block_c,block_dur,condition,countdown,datetime,endtime,list,multichar_response,project,response,response_time,session_number,start_end,starttime,subject_id,task,task_vers,trial
,,,,Wed Mar 11 2026 13:19:41 GMT-0500 (Central Daylight Time),,,,O,space,288,1,,,7772,WL,C,
prac,,0,,Wed Mar 11 2026 13:19:41 GMT-0500 (Central Daylight Time),,NA,b,O,b,6046,1,,,7772,WL,C,1.0
prac,,0,,Wed Mar 11 2026 13:19:41 GMT-0500 (Central Daylight Time),,NA,bo,O,o,344,1,,,7772,WL,C,1.0
prac,,0,,Wed Mar 11 2026 13:19:41 GMT-0500 (Central Daylight Time),,NA,boo,O,o,147,1,,,7772,WL,C,1.0
prac,,0,,Wed Mar 11 2026 13:19:41 GMT-0500 (Central Daylight Time),,NA,boos,O,s,116,1,,,7772,WL,C,1.0
prac,,0,,Wed Mar 11 2026 13:19:41 GMT-0500 (Central Daylight Time),,NA,boost,O,t,279,1,,,7772,WL,C,1.0
prac,,0,,Wed Mar 11 2026 13:19:41 GMT-0500 (Central Daylight Time),,NA,boostenter,O,enter,2012,1,,,7772,WL,C,1.0
1,0.6500000953674316,learn,59349.99990463257,Wed Mar 11 2026 13:19:41 GMT-0500 (Central Daylight Time),137835.0,A,t,O,t,642,1,649.5999999940395,137185.40000000596,7772,WL,C,1.0
1,0.8159999847412109,learn,59184.00001525879,Wed Mar 11 2026 13:19:41 GMT-0500 (Central Daylight Time),138001.5,A,to,O,o,145,1,816.0999999940395,137185.40000000596,7772,WL,C,1.0
1,0.9830000400543213,learn,59016.99995994568,Wed Mar 11 2026 13:19:41 GMT-0500 (Central Daylight Time),138168.30000001192,A,tow,O,w,155,1,982.9000000059605,137185.40000000596,7772,WL,C,1.0
1,1.1160001754760742,learn,58883.999824523926,Wed Mar 11 2026 13:19:41 GMT-0500 (Central Daylight Time),138301.5,A,towe,O,e,124,1,1116.0999999940395,137185.40000000596,7772,WL,C,1.0
1,1.2660000324249268,learn,58733.99996757507,Wed Mar 11 2026 13:19:41 GMT-0500 (Central Daylight Time),138451.30000001192,A,tower,O,r,134,1,1265.9000000059605,137185.40000000596,7772,WL,C,1.0
1,1.8990001678466797,learn,58100.99983215332,Wed Mar 11 2026 13:19:41 GMT-0500 (Central Daylight Time),139084.5,A,towerenter,O,enter,618,1,1899.0999999940395,137185.40000000596,7772,WL,C,1.0
1,2.5160000324249268,learn,57483.99996757507,Wed Mar 11 2026 13:19:41 GMT-0500 (Central Daylight Time),139700.90000000596,A,w,O,w,608,1,615.8000000119209,139085.09999999404,7772,WL,C,2.0
1,2.616000175476074,learn,57383.999824523926,Wed Mar 11 2026 13:19:41 GMT-0500 (Central Daylight Time),139801.09999999404,A,we,O,e,86,1,716.0,139085.09999999404,7772,WL,C,2.0
1,3.4830000400543213,learn,56516.99995994568,Wed Mar 11 2026 13:19:41 GMT-0500 (Central Daylight Time),140668.5,A,w,O,backspace,851,1,1583.4000000059605,139085.09999999404,7772,WL,C,2.0
1,3.8489999771118164,learn,56151.00002288818,Wed Mar 11 2026 13:19:41 GMT-0500 (Central Daylight Time),141033.80000001192,A,wh,O,h,351,1,1948.7000000178814,139085.09999999404,7772,WL,C,2.0
1,3.9820001125335693,learn,56017.99988746643,Wed Mar 11 2026 13:19:41 GMT-0500 (Central Daylight Time),141167.30000001192,A,whe,O,e,115,1,2082.2000000178814,139085.09999999404,7772,WL,C,2.0
1,4.182000160217285,learn,55817.999839782715,Wed Mar 11 2026 13:19:41 GMT-0500 (Central Daylight Time),141367.5,A,whea,O,a,189,1,2282.4000000059605,139085.09999999404,7772,WL,C,2.0
1,4.315000057220459,learn,55684.99994277954,Wed Mar 11 2026 13:19:41 GMT-0500 (Central Daylight Time),141500.40000000596,A,wheat,O,t,125,1,2415.300000011921,139085.09999999404,7772,WL,C,2.0
1,4.748000144958496,learn,55251.999855041504,Wed Mar 11 2026 13:19:41 GMT-0500 (Central Daylight Time),141933.5,A,wheatenter,O,enter,417,1,2848.4000000059605,139085.09999999404,7772,WL,C,2.0
1,5.680999994277954,learn,54319.000005722046,Wed Mar 11 2026 13:19:41 GMT-0500 (Central Daylight Time),142866.30000001192,A,s,O,s,926,1,932.2000000178814,141934.09999999404,7772,WL,C,3.0
1,5.815000057220459,learn,54184.99994277954,Wed Mar 11 2026 13:19:41 GMT-0500 (Central Daylight Time),142999.90000000596,A,su,O,u,113,1,1065.800000011921,141934.09999999404,7772,WL,C,3.0
1,6.215000152587891,learn,53784.99984741211,Wed Mar 11 2026 13:19:41 GMT-0500 (Central Daylight Time),143399.90000000596,A,sug,O,g,380,1,1465.800000011921,141934.09999999404,7772,WL,C,3.0
1,6.398000001907349,learn,53601.99999809265,Wed Mar 11 2026 13:19:41 GMT-0500 (Central Daylight Time),143583.0,A,suga,O,a,173,1,1648.9000000059605,141934.09999999404,7772,WL,C,3.0
1,6.514000177383423,learn,53485.99982261658,Wed Mar 11 2026 13:19:41 GMT-0500 (Central Daylight Time),143699.69999998808,A,sugar,O,r,100,1,1765.5999999940395,141934.09999999404,7772,WL,C,3.0
1,6.981000185012817,learn,53018.99981498718,Wed Mar 11 2026 13:19:41 GMT-0500 (Central Daylight Time),144166.19999998808,A,sugarenter,O,enter,448,1,2232.0999999940395,141934.09999999404,7772,WL,C,3.0
1,7.46399998664856,learn,52536.00001335144,Wed Mar 11 2026 13:19:41 GMT-0500 (Central Daylight Time),144649.30000001192,A,h,O,h,470,1,482.5,144166.80000001192,7772,WL,C,4.0
1,7.581000089645386,learn,52418.999910354614,Wed Mar 11 2026 13:19:41 GMT-0500 (Central Daylight Time),144766.0,A,ho,O,o,99,1,599.1999999880791,144166.80000001192,7772,WL,C,4.0
1,7.731000185012817,learn,52268.99981498718,Wed Mar 11 2026 13:19:41 GMT-0500 (Central Daylight Time),144916.0,A,hom,O,m,135,1,749.1999999880791,144166.80000001192,7772,WL,C,4.0
1,7.880000114440918,learn,52119.99988555908,Wed Mar 11 2026 13:19:41 GMT-0500 (Central Daylight Time),145065.80000001192,A,home,O,e,145,1,899.0,144166.80000001192,7772,WL,C,4.0
1,8.331000089645386,learn,51668.999910354614,Wed Mar 11 2026 13:19:41 GMT-0500 (Central Daylight Time),145515.90000000596,A,homeb,O,b,444,1,1349.0999999940395,144166.80000001192,7772,WL,C,4.0
1,9.246999979019165,learn,50753.000020980835,Wed Mar 11 2026 13:19:41 GMT-0500 (Central Daylight Time),146432.19999998808,A,home,O,backspace,897,1,2265.399999976158,144166.80000001192,7772,WL,C,4.0
1,9.797000169754028,learn,50202.99983024597,Wed Mar 11 2026 13:19:41 GMT-0500 (Central Daylight Time),146982.0,A,homeenter,O,enter,540,1,2815.199999988079,144166.80000001192,7772,WL,C,4.0
1,10.580000162124634,learn,49419.999837875366,Wed Mar 11 2026 13:19:41 GMT-0500 (Central Daylight Time),147765.30000001192,A,b,O,b,766,1,782.8000000119209,146982.5,7772,WL,C,5.0
1,10.77999997138977,learn,49220.00002861023,Wed Mar 11 2026 13:19:41 GMT-0500 (Central Daylight Time),147965.0,A,bo,O,o,192,1,982.5,146982.5,7772,WL,C,5.0
1,11.062999963760376,learn,48937.000036239624,Wed Mar 11 2026 13:19:41 GMT-0500 (Central Daylight Time),148248.19999998808,A,boy,O,y,272,1,1265.699999988079,146982.5,7772,WL,C,5.0
1,12.611999988555908,learn,47388.00001144409,Wed Mar 11 2026 13:19:41 GMT-0500 (Central Daylight Time),149797.5,A,boyenter,O,enter,1539,1,2815.0,146982.5,7772,WL,C,5.0
1,14.386000156402588,learn,45613.99984359741,Wed Mar 11 2026 13:19:41 GMT-0500 (Central Daylight Time),151571.80000001192,A,b,O,b,1752,1,1774.0,149797.80000001192,7772,WL,C,6.0
1,14.462000131607056,learn,45537.999868392944,Wed Mar 11 2026 13:19:41 GMT-0500 (Central Daylight Time),151646.80000001192,A,bo,O,o,61,1,1849.0,149797.80000001192,7772,WL,C,6.0
1,14.729000091552734,learn,45270.999908447266,Wed Mar 11 2026 13:19:41 GMT-0500 (Central Daylight Time),151914.0,A,bod,O,d,251,1,2116.199999988079,149797.80000001192,7772,WL,C,6.0
1,14.878000020980835,learn,45121.999979019165,Wed Mar 11 2026 13:19:41 GMT-0500 (Central Daylight Time),152063.5,A,body,O,y,137,1,2265.699999988079,149797.80000001192,7772,WL,C,6.0
1,15.328999996185303,learn,44671.0000038147,Wed Mar 11 2026 13:19:41 GMT-0500 (Central Daylight Time),152513.90000000596,A,bodyenter,O,enter,429,1,2716.0999999940395,149797.80000001192,7772,WL,C,6.0
1,15.995000123977661,learn,44004.99987602234,Wed Mar 11 2026 13:19:41 GMT-0500 (Central Daylight Time),153180.09999999404,A,d,O,d,659,1,665.7999999821186,152514.30000001192,7772,WL,C,7.0
1,16.128000020980835,learn,43871.999979019165,Wed Mar 11 2026 13:19:41 GMT-0500 (Central Daylight Time),153313.40000000596,A,do,O,o,120,1,799.0999999940395,152514.30000001192,7772,WL,C,7.0
1,16.311000108718872,learn,43688.99989128113,Wed Mar 11 2026 13:19:41 GMT-0500 (Central Daylight Time),153496.40000000596,A,doc,O,c,163,1,982.0999999940395,152514.30000001192,7772,WL,C,7.0
1,16.545000076293945,learn,43454.999923706055,Wed Mar 11 2026 13:19:41 GMT-0500 (Central Daylight Time),153730.09999999404,A,doct,O,t,213,1,1215.7999999821186,152514.30000001192,7772,WL,C,7.0
1,16.710999965667725,learn,43289.000034332275,Wed Mar 11 2026 13:19:41 GMT-0500 (Central Daylight Time),153896.30000001192,A,docto,O,o,146,1,1382.0,152514.30000001192,7772,WL,C,7.0
1,16.878000020980835,learn,43121.999979019165,Wed Mar 11 2026 13:19:41 GMT-0500 (Central Daylight Time),154063.09999999404,A,doctor,O,r,149,1,1548.7999999821186,152514.30000001192,7772,WL,C,7.0
1,17.32800006866455,learn,42671.99993133545,Wed Mar 11 2026 13:19:41 GMT-0500 (Central Daylight Time),154513.09999999404,A,doctorenter,O,enter,439,1,1998.7999999821186,152514.30000001192,7772,WL,C,7.0
1,60.01400017738342,learn,-14.000177383422852,Wed Mar 11 2026 13:19:41 GMT-0500 (Central Daylight Time),197199.80000001192,A,None,O,None,42682,1,42686.40000000596,154513.40000000596,7772,WL,C,8.0
2,0.7820000648498535,learn,59217.99993515015,Wed Mar 11 2026 13:19:41 GMT-0500 (Central Daylight Time),270826.59999999404,A,t,O,t,769,1,781.9000000059605,270044.6999999881,7772,WL,C,1.0
2,0.931999921798706,learn,59068.000078201294,Wed Mar 11 2026 13:19:41 GMT-0500 (Central Daylight Time),270976.59999999404,A,to,O,o,129,1,931.9000000059605,270044.6999999881,7772,WL,C,1.0
2,1.0820000171661377,learn,58917.99998283386,Wed Mar 11 2026 13:19:41 GMT-0500 (Central Daylight Time),271126.59999999404,A,tow,O,w,132,1,1081.9000000059605,270044.6999999881,7772,WL,C,1.0
2,1.1979999542236328,learn,58802.00004577637,Wed Mar 11 2026 13:19:41 GMT-0500 (Central Daylight Time),271243.1999999881,A,towe,O,e,110,1,1198.5,270044.6999999881,7772,WL,C,1.0
2,1.3489999771118164,learn,58651.00002288818,Wed Mar 11 2026 13:19:41 GMT-0500 (Central Daylight Time),271393.40000000596,A,tower,O,r,138,1,1348.7000000178814,270044.6999999881,7772,WL,C,1.0
2,2.7980000972747803,learn,57201.99990272522,Wed Mar 11 2026 13:19:41 GMT-0500 (Central Daylight Time),272842.6999999881,A,towerenter,O,enter,1428,1,2798.0,270044.6999999881,7772,WL,C,1.0
2,3.38100004196167,learn,56618.99995803833,Wed Mar 11 2026 13:19:41 GMT-0500 (Central Daylight Time),273425.8000000119,A,w,O,w,571,1,582.7000000178814,272843.09999999404,7772,WL,C,2.0
2,3.6470000743865967,learn,56352.9999256134,Wed Mar 11 2026 13:19:41 GMT-0500 (Central Daylight Time),273692.09999999404,A,wh,O,h,259,1,849.0,272843.09999999404,7772,WL,C,2.0
2,3.7639999389648438,learn,56236.000061035156,Wed Mar 11 2026 13:19:41 GMT-0500 (Central Daylight Time),273809.0,A,whe,O,e,97,1,965.9000000059605,272843.09999999404,7772,WL,C,2.0
2,3.947999954223633,learn,56052.00004577637,Wed Mar 11 2026 13:19:41 GMT-0500 (Central Daylight Time),273992.5,A,whea,O,a,172,1,1149.4000000059605,272843.09999999404,7772,WL,C,2.0
2,4.147000074386597,learn,55852.9999256134,Wed Mar 11 2026 13:19:41 GMT-0500 (Central Daylight Time),274192.1999999881,A,wheat,O,t,189,1,1349.0999999940395,272843.09999999404,7772,WL,C,2.0
2,4.63100004196167,learn,55368.99995803833,Wed Mar 11 2026 13:19:41 GMT-0500 (Central Daylight Time),274675.59999999404,A,wheatenter,O,enter,468,1,1832.5,272843.09999999404,7772,WL,C,2.0
2,5.447000026702881,learn,54552.99997329712,Wed Mar 11 2026 13:19:41 GMT-0500 (Central Daylight Time),275491.6999999881,A,h,O,h,802,1,815.7999999821186,274675.90000000596,7772,WL,C,3.0
2,5.5970001220703125,learn,54402.99987792969,Wed Mar 11 2026 13:19:41 GMT-0500 (Central Daylight Time),275641.8000000119,A,ho,O,o,137,1,965.9000000059605,274675.90000000596,7772,WL,C,3.0
2,5.7799999713897705,learn,54220.00002861023,Wed Mar 11 2026 13:19:41 GMT-0500 (Central Daylight Time),275825.1999999881,A,hom,O,m,162,1,1149.2999999821186,274675.90000000596,7772,WL,C,3.0
2,5.947000026702881,learn,54052.99997329712,Wed Mar 11 2026 13:19:41 GMT-0500 (Central Daylight Time),275992.09999999404,A,home,O,e,147,1,1316.199999988079,274675.90000000596,7772,WL,C,3.0
2,6.646000146865845,learn,53353.999853134155,Wed Mar 11 2026 13:19:41 GMT-0500 (Central Daylight Time),276691.3000000119,A,homeenter,O,enter,693,1,2015.4000000059605,274675.90000000596,7772,WL,C,3.0
2,7.513000011444092,learn,52486.99998855591,Wed Mar 11 2026 13:19:41 GMT-0500 (Central Daylight Time),277558.1999999881,A,b,O,b,857,1,866.5999999940395,276691.59999999404,7772,WL,C,4.0
2,7.663000106811523,learn,52336.99989318848,Wed Mar 11 2026 13:19:41 GMT-0500 (Central Daylight Time),277707.90000000596,A,bo,O,o,143,1,1016.3000000119209,276691.59999999404,7772,WL,C,4.0
2,7.930000066757202,learn,52069.9999332428,Wed Mar 11 2026 13:19:41 GMT-0500 (Central Daylight Time),277974.5,A,boy,O,y,250,1,1282.9000000059605,276691.59999999404,7772,WL,C,4.0
2,8.513000011444092,learn,51486.99998855591,Wed Mar 11 2026 13:19:41 GMT-0500 (Central Daylight Time),278557.6999999881,A,boyenter,O,enter,567,1,1866.0999999940395,276691.59999999404,7772,WL,C,4.0
2,8.996000051498413,learn,51003.99994850159,Wed Mar 11 2026 13:19:41 GMT-0500 (Central Daylight Time),279040.6999999881,A,c,O,c,462,1,482.69999998807907,278558.0,7772,WL,C,5.0
2,9.17900013923645,learn,50820.99986076355,Wed Mar 11 2026 13:19:41 GMT-0500 (Central Daylight Time),279224.09999999404,A,ca,O,a,164,1,666.0999999940395,278558.0,7772,WL,C,5.0
2,9.296000003814697,learn,50703.9999961853,Wed Mar 11 2026 13:19:41 GMT-0500 (Central Daylight Time),279340.59999999404,A,cat,O,t,102,1,782.5999999940395,278558.0,7772,WL,C,5.0
2,9.51200008392334,learn,50487.99991607666,Wed Mar 11 2026 13:19:41 GMT-0500 (Central Daylight Time),279557.1999999881,A,catt,O,t,209,1,999.1999999880791,278558.0,7772,WL,C,5.0
2,9.77999997138977,learn,50220.00002861023,Wed Mar 11 2026 13:19:41 GMT-0500 (Central Daylight Time),279825.0,A,cattl,O,l,248,1,1267.0,278558.0,7772,WL,C,5.0
2,9.845999956130981,learn,50154.00004386902,Wed Mar 11 2026 13:19:41 GMT-0500 (Central Daylight Time),279890.59999999404,A,cattle,O,e,60,1,1332.5999999940395,278558.0,7772,WL,C,5.0
2,10.26200008392334,learn,49737.99991607666,Wed Mar 11 2026 13:19:41 GMT-0500 (Central Daylight Time),280306.90000000596,A,cattleenter,O,enter,403,1,1748.9000000059605,278558.0,7772,WL,C,5.0
2,10.661999940872192,learn,49338.00005912781,Wed Mar 11 2026 13:19:41 GMT-0500 (Central Daylight Time),280706.90000000596,A,c,O,c,393,1,399.59999999403954,280307.3000000119,7772,WL,C,6.0
2,10.76200008392334,learn,49237.99991607666,Wed Mar 11 2026 13:19:41 GMT-0500 (Central Daylight Time),280807.0,A,co,O,o,91,1,499.69999998807907,280307.3000000119,7772,WL,C,6.0
2,10.930000066757202,learn,49069.9999332428,Wed Mar 11 2026 13:19:41 GMT-0500 (Central Daylight Time),280974.8000000119,A,cor,O,r,151,1,667.5,280307.3000000119,7772,WL,C,6.0
2,11.078999996185303,learn,48921.0000038147,Wed Mar 11 2026 13:19:41 GMT-0500 (Central Daylight Time),281123.8000000119,A,corn,O,n,133,1,816.5,280307.3000000119,7772,WL,C,6.0
2,11.545000076293945,learn,48454.999923706055,Wed Mar 11 2026 13:19:41 GMT-0500 (Central Daylight Time),281590.1999999881,A,cornenter,O,enter,450,1,1282.8999999761581,280307.3000000119,7772,WL,C,6.0
2,12.029000043869019,learn,47970.99995613098,Wed Mar 11 2026 13:19:41 GMT-0500 (Central Daylight Time),282074.3000000119,A,s,O,s,463,1,483.90000000596046,281590.40000000596,7772,WL,C,7.0
2,12.144999980926514,learn,47855.000019073486,Wed Mar 11 2026 13:19:41 GMT-0500 (Central Daylight Time),282189.8000000119,A,su,O,u,98,1,599.4000000059605,281590.40000000596,7772,WL,C,7.0
2,12.477999925613403,learn,47522.0000743866,Wed Mar 11 2026 13:19:41 GMT-0500 (Central Daylight Time),282522.8000000119,A,sug,O,g,328,1,932.4000000059605,281590.40000000596,7772,WL,C,7.0
2,12.694999933242798,learn,47305.0000667572,Wed Mar 11 2026 13:19:41 GMT-0500 (Central Daylight Time),282739.6999999881,A,suga,O,a,202,1,1149.2999999821186,281590.40000000596,7772,WL,C,7.0
2,12.795000076293945,learn,47204.999923706055,Wed Mar 11 2026 13:19:41 GMT-0500 (Central Daylight Time),282839.59999999404,A,sugar,O,r,89,1,1249.199999988079,281590.40000000596,7772,WL,C,7.0
2,13.260999917984009,learn,46739.00008201599,Wed Mar 11 2026 13:19:41 GMT-0500 (Central Daylight Time),283306.09999999404,A,sugarenter,O,enter,453,1,1715.699999988079,281590.40000000596,7772,WL,C,7.0
2,13.694999933242798,learn,46305.0000667572,Wed Mar 11 2026 13:19:41 GMT-0500 (Central Daylight Time),283739.40000000596,A,d,O,d,427,1,433.0,283306.40000000596,7772,WL,C,8.0
2,13.861000061035156,learn,46138.999938964844,Wed Mar 11 2026 13:19:41 GMT-0500 (Central Daylight Time),283905.90000000596,A,do,O,o,153,1,599.5,283306.40000000596,7772,WL,C,8.0
2,14.028000116348267,learn,45971.99988365173,Wed Mar 11 2026 13:19:41 GMT-0500 (Central Daylight Time),284072.5,A,doc,O,c,156,1,766.0999999940395,283306.40000000596,7772,WL,C,8.0
2,14.210999965667725,learn,45789.000034332275,Wed Mar 11 2026 13:19:41 GMT-0500 (Central Daylight Time),284255.59999999404,A,doct,O,t,164,1,949.1999999880791,283306.40000000596,7772,WL,C,8.0
2,14.361000061035156,learn,45638.999938964844,Wed Mar 11 2026 13:19:41 GMT-0500 (Central Daylight Time),284405.6999999881,A,docto,O,o,141,1,1099.2999999821186,283306.40000000596,7772,WL,C,8.0
2,14.528000116348267,learn,45471.99988365173,Wed Mar 11 2026 13:19:41 GMT-0500 (Central Daylight Time),284572.59999999404,A,doctor,O,r,152,1,1266.199999988079,283306.40000000596,7772,WL,C,8.0
2,14.99399995803833,learn,45006.00004196167,Wed Mar 11 2026 13:19:41 GMT-0500 (Central Daylight Time),285038.8000000119,A,doctorenter,O,enter,449,1,1732.4000000059605,283306.40000000596,7772,WL,C,8.0
2,16.64400005340576,learn,43355.99994659424,Wed Mar 11 2026 13:19:41 GMT-0500 (Central Daylight Time),286689.3000000119,A,f,O,f,1646,1,1650.2000000178814,285039.09999999404,7772,WL,C,9.0
2,16.776999950408936,learn,43223.000049591064,Wed Mar 11 2026 13:19:41 GMT-0500 (Central Daylight Time),286821.8000000119,A,fl,O,l,123,1,1782.7000000178814,285039.09999999404,7772,WL,C,9.0
2,17.092999935150146,learn,42907.00006484985,Wed Mar 11 2026 13:19:41 GMT-0500 (Central Daylight Time),287138.1999999881,A,fla,O,a,312,1,2099.0999999940395,285039.09999999404,7772,WL,C,9.0
2,17.860000133514404,learn,42139.999866485596,Wed Mar 11 2026 13:19:41 GMT-0500 (Central Daylight Time),287904.8000000119,A,flag,O,g,746,1,2865.7000000178814,285039.09999999404,7772,WL,C,9.0
2,18.360000133514404,learn,41639.999866485596,Wed Mar 11 2026 13:19:41 GMT-0500 (Central Daylight Time),288404.59999999404,A,flagenter,O,enter,492,1,3365.5,285039.09999999404,7772,WL,C,9.0
2,18.943000078201294,learn,41056.999921798706,Wed Mar 11 2026 13:19:41 GMT-0500 (Central Daylight Time),288987.6999999881,A,c,O,c,569,1,582.5999999940395,288405.09999999404,7772,WL,C,10.0
2,19.092999935150146,learn,40907.00006484985,Wed Mar 11 2026 13:19:41 GMT-0500 (Central Daylight Time),289137.40000000596,A,ca,O,a,145,1,732.3000000119209,288405.09999999404,7772,WL,C,10.0
2,19.259000062942505,learn,40740.999937057495,Wed Mar 11 2026 13:19:41 GMT-0500 (Central Daylight Time),289304.3000000119,A,cam,O,m,147,1,899.2000000178814,288405.09999999404,7772,WL,C,10.0
2,19.426000118255615,learn,40573.999881744385,Wed Mar 11 2026 13:19:41 GMT-0500 (Central Daylight Time),289471.0,A,camp,O,p,157,1,1065.9000000059605,288405.09999999404,7772,WL,C,10.0
2,19.875999927520752,learn,40124.00007247925,Wed Mar 11 2026 13:19:41 GMT-0500 (Central Daylight Time),289920.8000000119,A,campenter,O,enter,439,1,1515.7000000178814,288405.09999999404,7772,WL,C,10.0
2,21.342000007629395,learn,38657.999992370605,Wed Mar 11 2026 13:19:41 GMT-0500 (Central Daylight Time),291386.90000000596,A,b,O,b,1459,1,1465.800000011921,289921.09999999404,7772,WL,C,11.0
2,21.45900011062622,learn,38540.99988937378,Wed Mar 11 2026 13:19:41 GMT-0500 (Central Daylight Time),291503.5,A,bo,O,o,98,1,1582.4000000059605,289921.09999999404,7772,WL,C,11.0
2,21.64199995994568,learn,38358.00004005432,Wed Mar 11 2026 13:19:41 GMT-0500 (Central Daylight Time),291686.8000000119,A,bod,O,d,165,1,1765.7000000178814,289921.09999999404,7772,WL,C,11.0
2,21.79200005531311,learn,38207.99994468689,Wed Mar 11 2026 13:19:41 GMT-0500 (Central Daylight Time),291836.8000000119,A,body,O,y,142,1,1915.7000000178814,289921.09999999404,7772,WL,C,11.0
2,22.16000008583069,learn,37839.99991416931,Wed Mar 11 2026 13:19:41 GMT-0500 (Central Daylight Time),292204.40000000596,A,bodyenter,O,enter,353,1,2283.300000011921,289921.09999999404,7772,WL,C,11.0
2,29.038000106811523,learn,30961.999893188477,Wed Mar 11 2026 13:19:41 GMT-0500 (Central Daylight Time),299084.5,A,s,O,s,6873,1,6879.699999988079,292204.8000000119,7772,WL,C,12.0
2,29.187999963760376,learn,30812.000036239624,Wed Mar 11 2026 13:19:41 GMT-0500 (Central Daylight Time),299234.40000000596,A,su,O,u,129,1,7029.5999999940395,292204.8000000119,7772,WL,C,12.0
2,29.355000019073486,learn,30644.999980926514,Wed Mar 11 2026 13:19:41 GMT-0500 (Central Daylight Time),299401.1999999881,A,sug,O,g,146,1,7196.399999976158,292204.8000000119,7772,WL,C,12.0
2,29.538000106811523,learn,30461.999893188477,Wed Mar 11 2026 13:19:41 GMT-0500 (Central Daylight Time),299584.5,A,suga,O,a,164,1,7379.699999988079,292204.8000000119,7772,WL,C,12.0
2,29.621000051498413,learn,30378.999948501587,Wed Mar 11 2026 13:19:41 GMT-0500 (Central Daylight Time),299667.40000000596,A,sugar,O,r,76,1,7462.5999999940395,292204.8000000119,7772,WL,C,12.0
2,29.98799991607666,learn,30012.00008392334,Wed Mar 11 2026 13:19:41 GMT-0500 (Central Daylight Time),300034.5,A,sugarenter,O,enter,346,1,7829.699999988079,292204.8000000119,7772,WL,C,12.0
2,33.40400004386902,learn,26595.99995613098,Wed Mar 11 2026 13:19:41 GMT-0500 (Central Daylight Time),303449.90000000596,A,q,O,q,3403,1,3415.0,300034.90000000596,7772,WL,C,13.0
2,33.63700008392334,learn,26362.99991607666,Wed Mar 11 2026 13:19:41 GMT-0500 (Central Daylight Time),303683.0,A,qu,O,u,227,1,3648.0999999940395,300034.90000000596,7772,WL,C,13.0
2,33.80400013923645,learn,26195.99986076355,Wed Mar 11 2026 13:19:41 GMT-0500 (Central Daylight Time),303849.6999999881,A,que,O,e,155,1,3814.7999999821186,300034.90000000596,7772,WL,C,13.0
2,34.03699994087219,learn,25963.000059127808,Wed Mar 11 2026 13:19:41 GMT-0500 (Central Daylight Time),304083.3000000119,A,quee,O,e,220,1,4048.4000000059605,300034.90000000596,7772,WL,C,13.0
2,34.269999980926514,learn,25730.000019073486,Wed Mar 11 2026 13:19:41 GMT-0500 (Central Daylight Time),304316.09999999404,A,queen,O,n,226,1,4281.199999988079,300034.90000000596,7772,WL,C,13.0
2,34.587000131607056,learn,25412.999868392944,Wed Mar 11 2026 13:19:41 GMT-0500 (Central Daylight Time),304632.6999999881,A,queenenter,O,enter,306,1,4597.799999982119,300034.90000000596,7772,WL,C,13.0
2,39.569000005722046,learn,20430.999994277954,Wed Mar 11 2026 13:19:41 GMT-0500 (Central Daylight Time),309614.6999999881,A,l,O,l,4964,1,4981.699999988079,304633.0,7772,WL,C,14.0
2,39.668999910354614,learn,20331.000089645386,Wed Mar 11 2026 13:19:41 GMT-0500 (Central Daylight Time),309714.59999999404,A,le,O,e,95,1,5081.5999999940395,304633.0,7772,WL,C,14.0
2,39.818000078201294,learn,20181.999921798706,Wed Mar 11 2026 13:19:41 GMT-0500 (Central Daylight Time),309864.59999999404,A,let,O,t,138,1,5231.5999999940395,304633.0,7772,WL,C,14.0
2,40.01800012588501,learn,19981.99987411499,Wed Mar 11 2026 13:19:41 GMT-0500 (Central Daylight Time),310064.59999999404,A,lett,O,t,189,1,5431.5999999940395,304633.0,7772,WL,C,14.0
2,40.21799993515015,learn,19782.000064849854,Wed Mar 11 2026 13:19:41 GMT-0500 (Central Daylight Time),310264.3000000119,A,lette,O,e,188,1,5631.300000011921,304633.0,7772,WL,C,14.0
2,40.30200004577637,learn,19697.999954223633,Wed Mar 11 2026 13:19:41 GMT-0500 (Central Daylight Time),310347.90000000596,A,letter,O,r,68,1,5714.9000000059605,304633.0,7772,WL,C,14.0
2,40.401999950408936,learn,19598.000049591064,Wed Mar 11 2026 13:19:41 GMT-0500 (Central Daylight Time),310447.6999999881,A,letterenter,O,enter,89,1,5814.699999988079,304633.0,7772,WL,C,14.0
2,60.01200008392334,learn,-12.000083923339844,Wed Mar 11 2026 13:19:41 GMT-0500 (Central Daylight Time),330058.09999999404,A,None,O,None,19606,1,19610.0,310448.09999999404,7772,WL,C,15.0
3,0.9839999675750732,learn,59016.00003242493,Wed Mar 11 2026 13:19:41 GMT-0500 (Central Daylight Time),404685.09999999404,A,n,O,n,976,1,983.1999999880791,403701.90000000596,7772,WL,C,1.0
3,1.1170001029968262,learn,58882.999897003174,Wed Mar 11 2026 13:19:41 GMT-0500 (Central Daylight Time),404818.40000000596,A,na,O,a,128,1,1116.5,403701.90000000596,7772,WL,C,1.0
3,1.25,learn,58750.0,Wed Mar 11 2026 13:19:41 GMT-0500 (Central Daylight Time),404951.6999999881,A,nai,O,i,123,1,1249.7999999821186,403701.90000000596,7772,WL,C,1.0
3,1.4670000076293945,learn,58532.999992370605,Wed Mar 11 2026 13:19:41 GMT-0500 (Central Daylight Time),405168.0,A,nail,O,l,197,1,1466.0999999940395,403701.90000000596,7772,WL,C,1.0
3,1.7999999523162842,learn,58200.000047683716,Wed Mar 11 2026 13:19:41 GMT-0500 (Central Daylight Time),405501.1999999881,A,nailenter,O,enter,317,1,1799.2999999821186,403701.90000000596,7772,WL,C,1.0
3,2.117000102996826,learn,57882.999897003174,Wed Mar 11 2026 13:19:41 GMT-0500 (Central Daylight Time),405818.0,A,s,O,s,304,1,316.40000000596046,405501.59999999404,7772,WL,C,2.0
3,2.200000047683716,learn,57799.999952316284,Wed Mar 11 2026 13:19:41 GMT-0500 (Central Daylight Time),405901.1999999881,A,sh,O,h,66,1,399.59999999403954,405501.59999999404,7772,WL,C,2.0
3,2.316999912261963,learn,57683.00008773804,Wed Mar 11 2026 13:19:41 GMT-0500 (Central Daylight Time),406018.0,A,sho,O,o,96,1,516.4000000059605,405501.59999999404,7772,WL,C,2.0
3,2.5339999198913574,learn,57466.00008010864,Wed Mar 11 2026 13:19:41 GMT-0500 (Central Daylight Time),406235.59999999404,A,shor,O,r,195,1,734.0,405501.59999999404,7772,WL,C,2.0
3,2.5999999046325684,learn,57400.00009536743,Wed Mar 11 2026 13:19:41 GMT-0500 (Central Daylight Time),406301.09999999404,A,shore,O,e,57,1,799.5,405501.59999999404,7772,WL,C,2.0
3,3.0329999923706055,learn,56967.000007629395,Wed Mar 11 2026 13:19:41 GMT-0500 (Central Daylight Time),406734.40000000596,A,shoreenter,O,enter,417,1,1232.800000011921,405501.59999999404,7772,WL,C,2.0
3,4.183000087738037,learn,55816.99991226196,Wed Mar 11 2026 13:19:41 GMT-0500 (Central Daylight Time),407883.90000000596,A,c,O,c,1135,1,1149.2000000178814,406734.6999999881,7772,WL,C,3.0
3,4.332000017166138,learn,55667.99998283386,Wed Mar 11 2026 13:19:41 GMT-0500 (Central Daylight Time),408033.6999999881,A,ca,O,a,129,1,1299.0,406734.6999999881,7772,WL,C,3.0
3,4.565999984741211,learn,55434.00001525879,Wed Mar 11 2026 13:19:41 GMT-0500 (Central Daylight Time),408267.1999999881,A,cat,O,t,228,1,1532.5,406734.6999999881,7772,WL,C,3.0
3,4.749000072479248,learn,55250.99992752075,Wed Mar 11 2026 13:19:41 GMT-0500 (Central Daylight Time),408450.40000000596,A,catt,O,t,170,1,1715.7000000178814,406734.6999999881,7772,WL,C,3.0
3,4.915999889373779,learn,55084.00011062622,Wed Mar 11 2026 13:19:41 GMT-0500 (Central Daylight Time),408617.09999999404,A,cattl,O,l,154,1,1882.4000000059605,406734.6999999881,7772,WL,C,3.0
3,5.0320000648498535,learn,54967.99993515015,Wed Mar 11 2026 13:19:41 GMT-0500 (Central Daylight Time),408733.5,A,cattle,O,e,108,1,1998.800000011921,406734.6999999881,7772,WL,C,3.0
3,5.431999921798706,learn,54568.000078201294,Wed Mar 11 2026 13:19:41 GMT-0500 (Central Daylight Time),409133.5,A,cattleenter,O,enter,384,1,2398.800000011921,406734.6999999881,7772,WL,C,3.0
3,5.881999969482422,learn,54118.00003051758,Wed Mar 11 2026 13:19:41 GMT-0500 (Central Daylight Time),409583.40000000596,A,w,O,w,431,1,449.59999999403954,409133.8000000119,7772,WL,C,4.0
3,6.049000024795532,learn,53950.99997520447,Wed Mar 11 2026 13:19:41 GMT-0500 (Central Daylight Time),409750.0,A,wh,O,h,158,1,616.1999999880791,409133.8000000119,7772,WL,C,4.0
3,6.181999921798706,learn,53818.000078201294,Wed Mar 11 2026 13:19:41 GMT-0500 (Central Daylight Time),409883.40000000596,A,whe,O,e,120,1,749.5999999940395,409133.8000000119,7772,WL,C,4.0
3,6.466000080108643,learn,53533.99991989136,Wed Mar 11 2026 13:19:41 GMT-0500 (Central Daylight Time),410166.8000000119,A,whea,O,a,265,1,1033.0,409133.8000000119,7772,WL,C,4.0
3,6.615000009536743,learn,53384.99999046326,Wed Mar 11 2026 13:19:41 GMT-0500 (Central Daylight Time),410316.5,A,wheat,O,t,143,1,1182.699999988079,409133.8000000119,7772,WL,C,4.0
3,7.167999982833862,learn,52832.00001716614,Wed Mar 11 2026 13:19:41 GMT-0500 (Central Daylight Time),410869.5,A,wheatenter,O,enter,530,1,1735.699999988079,409133.8000000119,7772,WL,C,4.0
3,7.730999946594238,learn,52269.00005340576,Wed Mar 11 2026 13:19:41 GMT-0500 (Central Daylight Time),411432.6999999881,A,s,O,s,543,1,562.8999999761581,410869.8000000119,7772,WL,C,5.0
3,7.898000001907349,learn,52101.99999809265,Wed Mar 11 2026 13:19:41 GMT-0500 (Central Daylight Time),411599.40000000596,A,su,O,u,157,1,729.5999999940395,410869.8000000119,7772,WL,C,5.0
3,8.081000089645386,learn,51918.999910354614,Wed Mar 11 2026 13:19:41 GMT-0500 (Central Daylight Time),411782.5,A,sug,O,g,173,1,912.6999999880791,410869.8000000119,7772,WL,C,5.0
3,8.365000009536743,learn,51634.99999046326,Wed Mar 11 2026 13:19:41 GMT-0500 (Central Daylight Time),412066.1999999881,A,suga,O,a,271,1,1196.3999999761581,410869.8000000119,7772,WL,C,5.0
3,8.514999866485596,learn,51485.000133514404,Wed Mar 11 2026 13:19:41 GMT-0500 (Central Daylight Time),412215.90000000596,A,sugar,O,r,139,1,1346.0999999940395,410869.8000000119,7772,WL,C,5.0
3,8.914000034332275,learn,51085.999965667725,Wed Mar 11 2026 13:19:41 GMT-0500 (Central Daylight Time),412615.8000000119,A,sugarenter,O,enter,390,1,1746.0,410869.8000000119,7772,WL,C,5.0
3,11.52999997138977,learn,48470.00002861023,Wed Mar 11 2026 13:19:41 GMT-0500 (Central Daylight Time),415231.3000000119,A,c,O,c,2597,1,2615.2000000178814,412616.09999999404,7772,WL,C,6.0
3,11.69700002670288,learn,48302.99997329712,Wed Mar 11 2026 13:19:41 GMT-0500 (Central Daylight Time),415397.8000000119,A,ca,O,a,156,1,2781.7000000178814,412616.09999999404,7772,WL,C,6.0
3,11.846999883651733,learn,48153.00011634827,Wed Mar 11 2026 13:19:41 GMT-0500 (Central Daylight Time),415548.1999999881,A,cam,O,m,143,1,2932.0999999940395,412616.09999999404,7772,WL,C,6.0
3,12.29800009727478,learn,47701.99990272522,Wed Mar 11 2026 13:19:41 GMT-0500 (Central Daylight Time),415999.09999999404,A,camp,O,p,434,1,3383.0,412616.09999999404,7772,WL,C,6.0
3,13.36299991607666,learn,46637.00008392334,Wed Mar 11 2026 13:19:41 GMT-0500 (Central Daylight Time),417064.3000000119,A,campenter,O,enter,1054,1,4448.200000017881,412616.09999999404,7772,WL,C,6.0
3,14.196000099182129,learn,45803.99990081787,Wed Mar 11 2026 13:19:41 GMT-0500 (Central Daylight Time),417897.1999999881,A,f,O,f,821,1,832.5,417064.6999999881,7772,WL,C,7.0
3,14.345999956130981,learn,45654.00004386902,Wed Mar 11 2026 13:19:41 GMT-0500 (Central Daylight Time),418047.5,A,fl,O,l,131,1,982.8000000119209,417064.6999999881,7772,WL,C,7.0
3,14.477999925613403,learn,45522.0000743866,Wed Mar 11 2026 13:19:41 GMT-0500 (Central Daylight Time),418180.59999999404,A,fla,O,a,118,1,1115.9000000059605,417064.6999999881,7772,WL,C,7.0
3,14.810999870300293,learn,45189.00012969971,Wed Mar 11 2026 13:19:41 GMT-0500 (Central Daylight Time),418513.90000000596,A,flag,O,g,320,1,1449.2000000178814,417064.6999999881,7772,WL,C,7.0
3,15.027999877929688,learn,44972.00012207031,Wed Mar 11 2026 13:19:41 GMT-0500 (Central Daylight Time),418730.1999999881,A,flagenter,O,enter,212,1,1665.5,417064.6999999881,7772,WL,C,7.0
3,15.428999900817871,learn,44571.00009918213,Wed Mar 11 2026 13:19:41 GMT-0500 (Central Daylight Time),419131.5,A,l,O,l,394,1,401.09999999403954,418730.40000000596,7772,WL,C,8.0
3,15.527999877929688,learn,44472.00012207031,Wed Mar 11 2026 13:19:41 GMT-0500 (Central Daylight Time),419230.40000000596,A,le,O,e,90,1,500.0,418730.40000000596,7772,WL,C,8.0
3,15.696000099182129,learn,44303.99990081787,Wed Mar 11 2026 13:19:41 GMT-0500 (Central Daylight Time),419398.1999999881,A,let,O,t,150,1,667.7999999821186,418730.40000000596,7772,WL,C,8.0
3,15.894999980926514,learn,44105.000019073486,Wed Mar 11 2026 13:19:41 GMT-0500 (Central Daylight Time),419597.0,A,lett,O,t,190,1,866.5999999940395,418730.40000000596,7772,WL,C,8.0
3,16.128000020980835,learn,43871.999979019165,Wed Mar 11 2026 13:19:41 GMT-0500 (Central Daylight Time),419830.3000000119,A,lette,O,e,225,1,1099.9000000059605,418730.40000000596,7772,WL,C,8.0
3,16.16100001335144,learn,43838.99998664856,Wed Mar 11 2026 13:19:41 GMT-0500 (Central Daylight Time),419863.40000000596,A,letter,O,r,24,1,1133.0,418730.40000000596,7772,WL,C,8.0
3,16.543999910354614,learn,43456.000089645386,Wed Mar 11 2026 13:19:41 GMT-0500 (Central Daylight Time),420246.59999999404,A,letterenter,O,enter,373,1,1516.199999988079,418730.40000000596,7772,WL,C,8.0
3,17.543999910354614,learn,42456.000089645386,Wed Mar 11 2026 13:19:41 GMT-0500 (Central Daylight Time),421246.5,A,q,O,q,990,1,999.6999999880791,420246.8000000119,7772,WL,C,9.0
3,17.74399995803833,learn,42256.00004196167,Wed Mar 11 2026 13:19:41 GMT-0500 (Central Daylight Time),421446.3000000119,A,qu,O,u,182,1,1199.5,420246.8000000119,7772,WL,C,9.0
3,17.927000045776367,learn,42072.99995422363,Wed Mar 11 2026 13:19:41 GMT-0500 (Central Daylight Time),421629.6999999881,A,que,O,e,175,1,1382.8999999761581,420246.8000000119,7772,WL,C,9.0
3,18.26200008392334,learn,41737.99991607666,Wed Mar 11 2026 13:19:41 GMT-0500 (Central Daylight Time),421964.0,A,quee,O,e,320,1,1717.199999988079,420246.8000000119,7772,WL,C,9.0
3,18.526999950408936,learn,41473.000049591064,Wed Mar 11 2026 13:19:41 GMT-0500 (Central Daylight Time),422229.5,A,queen,O,n,256,1,1982.699999988079,420246.8000000119,7772,WL,C,9.0
3,19.092999935150146,learn,40907.00006484985,Wed Mar 11 2026 13:19:41 GMT-0500 (Central Daylight Time),422795.8000000119,A,queenenter,O,enter,559,1,2549.0,420246.8000000119,7772,WL,C,9.0
3,21.042999982833862,learn,38957.00001716614,Wed Mar 11 2026 13:19:41 GMT-0500 (Central Daylight Time),424745.59999999404,A,c,O,c,1945,1,1949.5,422796.09999999404,7772,WL,C,10.0
3,21.2260000705719,learn,38773.9999294281,Wed Mar 11 2026 13:19:41 GMT-0500 (Central Daylight Time),424928.59999999404,A,co,O,o,163,1,2132.5,422796.09999999404,7772,WL,C,10.0
3,21.375999927520752,learn,38624.00007247925,Wed Mar 11 2026 13:19:41 GMT-0500 (Central Daylight Time),425078.6999999881,A,cor,O,r,140,1,2282.5999999940395,422796.09999999404,7772,WL,C,10.0
3,21.55900001525879,learn,38440.99998474121,Wed Mar 11 2026 13:19:41 GMT-0500 (Central Daylight Time),425261.6999999881,A,corn,O,n,175,1,2465.5999999940395,422796.09999999404,7772,WL,C,10.0
3,22.425999879837036,learn,37574.000120162964,Wed Mar 11 2026 13:19:41 GMT-0500 (Central Daylight Time),426128.1999999881,A,cornenter,O,enter,856,1,3332.0999999940395,422796.09999999404,7772,WL,C,10.0
3,25.490999937057495,learn,34509.000062942505,Wed Mar 11 2026 13:19:41 GMT-0500 (Central Daylight Time),429193.8000000119,A,h,O,h,3054,1,3065.2000000178814,426128.59999999404,7772,WL,C,11.0
3,25.657999992370605,learn,34342.000007629395,Wed Mar 11 2026 13:19:41 GMT-0500 (Central Daylight Time),429360.5,A,ho,O,o,155,1,3231.9000000059605,426128.59999999404,7772,WL,C,11.0
3,25.757999897003174,learn,34242.000102996826,Wed Mar 11 2026 13:19:41 GMT-0500 (Central Daylight Time),429460.59999999404,A,hom,O,m,92,1,3332.0,426128.59999999404,7772,WL,C,11.0
3,25.95799994468689,learn,34042.00005531311,Wed Mar 11 2026 13:19:41 GMT-0500 (Central Daylight Time),429660.5,A,home,O,e,185,1,3531.9000000059605,426128.59999999404,7772,WL,C,11.0
3,26.20799994468689,learn,33792.00005531311,Wed Mar 11 2026 13:19:41 GMT-0500 (Central Daylight Time),429910.5,A,homeenter,O,enter,241,1,3781.9000000059605,426128.59999999404,7772,WL,C,11.0
3,26.657999992370605,learn,33342.000007629395,Wed Mar 11 2026 13:19:41 GMT-0500 (Central Daylight Time),430360.3000000119,A,b,O,b,429,1,449.5,429910.8000000119,7772,WL,C,12.0
3,26.740999937057495,learn,33259.000062942505,Wed Mar 11 2026 13:19:41 GMT-0500 (Central Daylight Time),430443.6999999881,A,bo,O,o,77,1,532.8999999761581,429910.8000000119,7772,WL,C,12.0
3,27.056999921798706,learn,32943.000078201294,Wed Mar 11 2026 13:19:41 GMT-0500 (Central Daylight Time),430760.0,A,boy,O,y,306,1,849.1999999880791,429910.8000000119,7772,WL,C,12.0
3,27.391000032424927,learn,32608.999967575073,Wed Mar 11 2026 13:19:41 GMT-0500 (Central Daylight Time),431093.40000000596,A,boyenter,O,enter,326,1,1182.5999999940395,429910.8000000119,7772,WL,C,12.0
3,27.924000024795532,learn,32075.999975204468,Wed Mar 11 2026 13:19:41 GMT-0500 (Central Daylight Time),431626.5,A,d,O,d,519,1,532.6999999880791,431093.8000000119,7772,WL,C,13.0
3,28.04099988937378,learn,31959.00011062622,Wed Mar 11 2026 13:19:41 GMT-0500 (Central Daylight Time),431743.0,A,do,O,o,106,1,649.1999999880791,431093.8000000119,7772,WL,C,13.0
3,28.323999881744385,learn,31676.000118255615,Wed Mar 11 2026 13:19:41 GMT-0500 (Central Daylight Time),432026.5,A,doc,O,c,270,1,932.6999999880791,431093.8000000119,7772,WL,C,13.0
3,28.5239999294281,learn,31476.0000705719,Wed Mar 11 2026 13:19:41 GMT-0500 (Central Daylight Time),432226.3000000119,A,doct,O,t,195,1,1132.5,431093.8000000119,7772,WL,C,13.0
3,28.674000024795532,learn,31325.999975204468,Wed Mar 11 2026 13:19:41 GMT-0500 (Central Daylight Time),432376.09999999404,A,docto,O,o,140,1,1282.2999999821186,431093.8000000119,7772,WL,C,13.0
3,28.806999921798706,learn,31193.000078201294,Wed Mar 11 2026 13:19:41 GMT-0500 (Central Daylight Time),432509.6999999881,A,doctor,O,r,117,1,1415.8999999761581,431093.8000000119,7772,WL,C,13.0
3,29.19000005722046,learn,30809.99994277954,Wed Mar 11 2026 13:19:41 GMT-0500 (Central Daylight Time),432892.6999999881,A,doctorenter,O,enter,376,1,1798.8999999761581,431093.8000000119,7772,WL,C,13.0
3,41.420000076293945,learn,18579.999923706055,Wed Mar 11 2026 13:19:41 GMT-0500 (Central Daylight Time),445123.0,A,s,O,s,12224,1,12230.0,432893.0,7772,WL,C,14.0
3,41.58699989318848,learn,18413.000106811523,Wed Mar 11 2026 13:19:41 GMT-0500 (Central Daylight Time),445289.09999999404,A,su,O,u,145,1,12396.09999999404,432893.0,7772,WL,C,14.0
3,41.73699998855591,learn,18263.00001144409,Wed Mar 11 2026 13:19:41 GMT-0500 (Central Daylight Time),445439.0,A,sua,O,a,132,1,12546.0,432893.0,7772,WL,C,14.0
3,41.88599991798401,learn,18114.00008201599,Wed Mar 11 2026 13:19:41 GMT-0500 (Central Daylight Time),445588.90000000596,A,suag,O,g,143,1,12695.90000000596,432893.0,7772,WL,C,14.0
3,42.986000061035156,learn,17013.999938964844,Wed Mar 11 2026 13:19:41 GMT-0500 (Central Daylight Time),446688.6999999881,A,sua,O,backspace,1089,1,13795.699999988079,432893.0,7772,WL,C,14.0
3,43.18599987030029,learn,16814.000129699707,Wed Mar 11 2026 13:19:41 GMT-0500 (Central Daylight Time),446888.5,A,su,O,backspace,181,1,13995.5,432893.0,7772,WL,C,14.0
3,43.651999950408936,learn,16348.000049591064,Wed Mar 11 2026 13:19:41 GMT-0500 (Central Daylight Time),447354.6999999881,A,suf,O,f,461,1,14461.699999988079,432893.0,7772,WL,C,14.0
3,44.569000005722046,learn,15430.999994277954,Wed Mar 11 2026 13:19:41 GMT-0500 (Central Daylight Time),448271.0,A,su,O,backspace,898,1,15378.0,432893.0,7772,WL,C,14.0
3,44.76900005340576,learn,15230.999946594238,Wed Mar 11 2026 13:19:41 GMT-0500 (Central Daylight Time),448471.0,A,sug,O,g,182,1,15578.0,432893.0,7772,WL,C,14.0
3,45.00200009346008,learn,14997.999906539917,Wed Mar 11 2026 13:19:41 GMT-0500 (Central Daylight Time),448704.6999999881,A,suga,O,a,223,1,15811.699999988079,432893.0,7772,WL,C,14.0
3,45.13499999046326,learn,14865.000009536743,Wed Mar 11 2026 13:19:41 GMT-0500 (Central Daylight Time),448837.59999999404,A,sugar,O,r,116,1,15944.59999999404,432893.0,7772,WL,C,14.0
3,45.8510000705719,learn,14148.9999294281,Wed Mar 11 2026 13:19:41 GMT-0500 (Central Daylight Time),449553.90000000596,A,sugarenter,O,enter,696,1,16660.90000000596,432893.0,7772,WL,C,14.0
3,50.78399991989136,learn,9216.000080108643,Wed Mar 11 2026 13:19:41 GMT-0500 (Central Daylight Time),454486.40000000596,A,c,O,c,4916,1,4932.300000011921,449554.09999999404,7772,WL,C,15.0
3,50.967000007629395,learn,9032.999992370605,Wed Mar 11 2026 13:19:41 GMT-0500 (Central Daylight Time),454669.3000000119,A,ca,O,a,166,1,5115.200000017881,449554.09999999404,7772,WL,C,15.0
3,51.09999990463257,learn,8900.000095367432,Wed Mar 11 2026 13:19:41 GMT-0500 (Central Daylight Time),454802.40000000596,A,cat,O,t,128,1,5248.300000011921,449554.09999999404,7772,WL,C,15.0
3,51.299999952316284,learn,8700.000047683716,Wed Mar 11 2026 13:19:41 GMT-0500 (Central Daylight Time),455002.6999999881,A,catt,O,t,186,1,5448.5999999940395,449554.09999999404,7772,WL,C,15.0
3,51.43300008773804,learn,8566.999912261963,Wed Mar 11 2026 13:19:41 GMT-0500 (Central Daylight Time),455135.90000000596,A,cattl,O,l,122,1,5581.800000011921,449554.09999999404,7772,WL,C,15.0
3,51.53399991989136,learn,8466.000080108643,Wed Mar 11 2026 13:19:41 GMT-0500 (Central Daylight Time),455236.8000000119,A,cattle,O,e,93,1,5682.700000017881,449554.09999999404,7772,WL,C,15.0
3,51.84999990463257,learn,8150.000095367432,Wed Mar 11 2026 13:19:41 GMT-0500 (Central Daylight Time),455552.3000000119,A,cattleenter,O,enter,296,1,5998.200000017881,449554.09999999404,7772,WL,C,15.0
4,0.9499998092651367,learn,59050.00019073486,Wed Mar 11 2026 13:19:41 GMT-0500 (Central Daylight Time),534994.099999994,A,c,O,c,938,1,949.5,534044.599999994,7772,WL,C,1.0
4,1.0999999046325684,learn,58900.00009536743,Wed Mar 11 2026 13:19:41 GMT-0500 (Central Daylight Time),535144.8000000119,A,co,O,o,131,1,1100.2000000178814,534044.599999994,7772,WL,C,1.0
4,1.2659997940063477,learn,58734.00020599365,Wed Mar 11 2026 13:19:41 GMT-0500 (Central Daylight Time),535310.400000006,A,cor,O,r,148,1,1265.800000011921,534044.599999994,7772,WL,C,1.0
4,1.4159998893737793,learn,58584.00011062622,Wed Mar 11 2026 13:19:41 GMT-0500 (Central Daylight Time),535460.3000000119,A,corn,O,n,142,1,1415.7000000178814,534044.599999994,7772,WL,C,1.0
4,1.9829998016357422,learn,58017.00019836426,Wed Mar 11 2026 13:19:41 GMT-0500 (Central Daylight Time),536027.3000000119,A,cornenter,O,enter,552,1,1982.7000000178814,534044.599999994,7772,WL,C,1.0
4,2.365999937057495,learn,57634.000062942505,Wed Mar 11 2026 13:19:41 GMT-0500 (Central Daylight Time),536410.400000006,A,n,O,n,362,1,382.7000000178814,536027.6999999881,7772,WL,C,2.0
4,2.631999969482422,learn,57368.00003051758,Wed Mar 11 2026 13:19:41 GMT-0500 (Central Daylight Time),536677.0,A,na,O,a,259,1,649.3000000119209,536027.6999999881,7772,WL,C,2.0
4,2.798999786376953,learn,57201.00021362305,Wed Mar 11 2026 13:19:41 GMT-0500 (Central Daylight Time),536843.599999994,A,nai,O,i,153,1,815.9000000059605,536027.6999999881,7772,WL,C,2.0
4,2.9659998416900635,learn,57034.00015830994,Wed Mar 11 2026 13:19:41 GMT-0500 (Central Daylight Time),537010.099999994,A,nail,O,l,146,1,982.4000000059605,536027.6999999881,7772,WL,C,2.0
4,3.315999984741211,learn,56684.00001525879,Wed Mar 11 2026 13:19:41 GMT-0500 (Central Daylight Time),537360.1999999881,A,nailenter,O,enter,340,1,1332.5,536027.6999999881,7772,WL,C,2.0
4,3.631999969482422,learn,56368.00003051758,Wed Mar 11 2026 13:19:41 GMT-0500 (Central Daylight Time),537676.599999994,A,c,O,c,309,1,316.09999999403954,537360.5,7772,WL,C,3.0
4,3.81499981880188,learn,56185.00018119812,Wed Mar 11 2026 13:19:41 GMT-0500 (Central Daylight Time),537860.0,A,ca,O,a,168,1,499.5,537360.5,7772,WL,C,3.0
4,4.031999826431274,learn,55968.000173568726,Wed Mar 11 2026 13:19:41 GMT-0500 (Central Daylight Time),538076.599999994,A,cat,O,t,200,1,716.0999999940395,537360.5,7772,WL,C,3.0
4,4.197999954223633,learn,55802.00004577637,Wed Mar 11 2026 13:19:41 GMT-0500 (Central Daylight Time),538243.0,A,catt,O,t,161,1,882.5,537360.5,7772,WL,C,3.0
4,4.347999811172485,learn,55652.000188827515,Wed Mar 11 2026 13:19:41 GMT-0500 (Central Daylight Time),538393.1999999881,A,cattl,O,l,139,1,1032.699999988079,537360.5,7772,WL,C,3.0
4,4.480999946594238,learn,55519.00005340576,Wed Mar 11 2026 13:19:41 GMT-0500 (Central Daylight Time),538526.3000000119,A,cattle,O,e,124,1,1165.800000011921,537360.5,7772,WL,C,3.0
4,4.797999858856201,learn,55202.0001411438,Wed Mar 11 2026 13:19:41 GMT-0500 (Central Daylight Time),538842.599999994,A,cattleenter,O,enter,311,1,1482.0999999940395,537360.5,7772,WL,C,3.0
4,5.080999851226807,learn,54919.00014877319,Wed Mar 11 2026 13:19:41 GMT-0500 (Central Daylight Time),539126.400000006,A,s,O,s,274,1,283.5,538842.900000006,7772,WL,C,4.0
4,5.180999994277954,learn,54819.000005722046,Wed Mar 11 2026 13:19:41 GMT-0500 (Central Daylight Time),539226.5,A,sh,O,h,95,1,383.59999999403954,538842.900000006,7772,WL,C,4.0
4,5.330999851226807,learn,54669.00014877319,Wed Mar 11 2026 13:19:41 GMT-0500 (Central Daylight Time),539376.099999994,A,sho,O,o,130,1,533.1999999880791,538842.900000006,7772,WL,C,4.0
4,5.46399998664856,learn,54536.00001335144,Wed Mar 11 2026 13:19:41 GMT-0500 (Central Daylight Time),539509.5,A,shor,O,r,125,1,666.5999999940395,538842.900000006,7772,WL,C,4.0
4,5.596999883651733,learn,54403.00011634827,Wed Mar 11 2026 13:19:41 GMT-0500 (Central Daylight Time),539642.5,A,shore,O,e,112,1,799.5999999940395,538842.900000006,7772,WL,C,4.0
4,5.947999954223633,learn,54052.00004577637,Wed Mar 11 2026 13:19:41 GMT-0500 (Central Daylight Time),539992.6999999881,A,shoreenter,O,enter,331,1,1149.7999999821186,538842.900000006,7772,WL,C,4.0
4,6.430999994277954,learn,53569.000005722046,Wed Mar 11 2026 13:19:41 GMT-0500 (Central Daylight Time),540475.8000000119,A,b,O,b,469,1,482.80000001192093,539993.0,7772,WL,C,5.0
4,6.513999938964844,learn,53486.000061035156,Wed Mar 11 2026 13:19:41 GMT-0500 (Central Daylight Time),540559.3000000119,A,bo,O,o,65,1,566.3000000119209,539993.0,7772,WL,C,5.0
4,6.763999938964844,learn,53236.000061035156,Wed Mar 11 2026 13:19:41 GMT-0500 (Central Daylight Time),540809.099999994,A,bod,O,d,229,1,816.0999999940395,539993.0,7772,WL,C,5.0
4,6.896999835968018,learn,53103.00016403198,Wed Mar 11 2026 13:19:41 GMT-0500 (Central Daylight Time),540942.3000000119,A,body,O,y,124,1,949.3000000119209,539993.0,7772,WL,C,5.0
4,7.347999811172485,learn,52652.000188827515,Wed Mar 11 2026 13:19:41 GMT-0500 (Central Daylight Time),541393.1999999881,A,bodyenter,O,enter,431,1,1400.199999988079,539993.0,7772,WL,C,5.0
4,10.36299991607666,learn,49637.00008392334,Wed Mar 11 2026 13:19:41 GMT-0500 (Central Daylight Time),544407.900000006,A,w,O,w,2996,1,3014.4000000059605,541393.5,7772,WL,C,6.0
4,11.811999797821045,learn,48188.000202178955,Wed Mar 11 2026 13:19:41 GMT-0500 (Central Daylight Time),545857.3000000119,A,,O,backspace,1438,1,4463.800000011921,541393.5,7772,WL,C,6.0
4,12.161999940872192,learn,47838.00005912781,Wed Mar 11 2026 13:19:41 GMT-0500 (Central Daylight Time),546207.3000000119,A,t,O,t,340,1,4813.800000011921,541393.5,7772,WL,C,6.0
4,12.311999797821045,learn,47688.000202178955,Wed Mar 11 2026 13:19:41 GMT-0500 (Central Daylight Time),546357.400000006,A,to,O,o,142,1,4963.9000000059605,541393.5,7772,WL,C,6.0
4,12.461999893188477,learn,47538.00010681152,Wed Mar 11 2026 13:19:41 GMT-0500 (Central Daylight Time),546507.5,A,tow,O,w,136,1,5114.0,541393.5,7772,WL,C,6.0
4,12.561999797821045,learn,47438.000202178955,Wed Mar 11 2026 13:19:41 GMT-0500 (Central Daylight Time),546607.1999999881,A,towe,O,e,82,1,5213.699999988079,541393.5,7772,WL,C,6.0
4,12.711999893188477,learn,47288.00010681152,Wed Mar 11 2026 13:19:41 GMT-0500 (Central Daylight Time),546757.5,A,tower,O,r,134,1,5364.0,541393.5,7772,WL,C,6.0
4,13.145999908447266,learn,46854.000091552734,Wed Mar 11 2026 13:19:41 GMT-0500 (Central Daylight Time),547191.5,A,towerenter,O,enter,416,1,5798.0,541393.5,7772,WL,C,6.0
4,13.544999837875366,learn,46455.000162124634,Wed Mar 11 2026 13:19:41 GMT-0500 (Central Daylight Time),547590.400000006,A,w,O,w,381,1,398.59999999403954,547191.8000000119,7772,WL,C,7.0
4,13.77899980545044,learn,46221.00019454956,Wed Mar 11 2026 13:19:41 GMT-0500 (Central Daylight Time),547823.8000000119,A,wh,O,h,215,1,632.0,547191.8000000119,7772,WL,C,7.0
4,13.944999933242798,learn,46055.0000667572,Wed Mar 11 2026 13:19:41 GMT-0500 (Central Daylight Time),547990.099999994,A,whe,O,e,158,1,798.2999999821186,547191.8000000119,7772,WL,C,7.0
4,14.263000011444092,learn,45736.99998855591,Wed Mar 11 2026 13:19:41 GMT-0500 (Central Daylight Time),548307.6999999881,A,whea,O,a,312,1,1115.8999999761581,547191.8000000119,7772,WL,C,7.0
4,14.378000020980835,learn,45621.999979019165,Wed Mar 11 2026 13:19:41 GMT-0500 (Central Daylight Time),548423.1999999881,A,wheat,O,t,106,1,1231.3999999761581,547191.8000000119,7772,WL,C,7.0
4,14.894999980926514,learn,45105.000019073486,Wed Mar 11 2026 13:19:41 GMT-0500 (Central Daylight Time),548939.900000006,A,wheatenter,O,enter,510,1,1748.0999999940395,547191.8000000119,7772,WL,C,7.0
4,15.827999830245972,learn,44172.00016975403,Wed Mar 11 2026 13:19:41 GMT-0500 (Central Daylight Time),549872.900000006,A,q,O,q,913,1,932.7000000178814,548940.1999999881,7772,WL,C,8.0
4,16.110999822616577,learn,43889.00017738342,Wed Mar 11 2026 13:19:41 GMT-0500 (Central Daylight Time),550156.099999994,A,qu,O,u,269,1,1215.9000000059605,548940.1999999881,7772,WL,C,8.0
4,16.26099991798401,learn,43739.00008201599,Wed Mar 11 2026 13:19:41 GMT-0500 (Central Daylight Time),550306.0,A,que,O,e,146,1,1365.800000011921,548940.1999999881,7772,WL,C,8.0
4,16.47699999809265,learn,43523.00000190735,Wed Mar 11 2026 13:19:41 GMT-0500 (Central Daylight Time),550522.5,A,quee,O,e,196,1,1582.300000011921,548940.1999999881,7772,WL,C,8.0
4,16.74399995803833,learn,43256.00004196167,Wed Mar 11 2026 13:19:41 GMT-0500 (Central Daylight Time),550789.3000000119,A,queen,O,n,259,1,1849.1000000238419,548940.1999999881,7772,WL,C,8.0
4,17.376999855041504,learn,42623.000144958496,Wed Mar 11 2026 13:19:41 GMT-0500 (Central Daylight Time),551422.3000000119,A,queenenter,O,enter,616,1,2482.100000023842,548940.1999999881,7772,WL,C,8.0
4,20.07699990272522,learn,39923.00009727478,Wed Mar 11 2026 13:19:41 GMT-0500 (Central Daylight Time),554121.6999999881,A,c,O,c,2678,1,2699.0999999940395,551422.599999994,7772,WL,C,9.0
4,20.22599983215332,learn,39774.00016784668,Wed Mar 11 2026 13:19:41 GMT-0500 (Central Daylight Time),554271.400000006,A,ca,O,a,140,1,2848.800000011921,551422.599999994,7772,WL,C,9.0
4,20.39299988746643,learn,39607.00011253357,Wed Mar 11 2026 13:19:41 GMT-0500 (Central Daylight Time),554438.1999999881,A,cam,O,m,158,1,3015.5999999940395,551422.599999994,7772,WL,C,9.0
4,20.575999975204468,learn,39424.00002479553,Wed Mar 11 2026 13:19:41 GMT-0500 (Central Daylight Time),554621.400000006,A,camp,O,p,168,1,3198.800000011921,551422.599999994,7772,WL,C,9.0
4,21.042999982833862,learn,38957.00001716614,Wed Mar 11 2026 13:19:41 GMT-0500 (Central Daylight Time),555087.8000000119,A,campenter,O,enter,456,1,3665.2000000178814,551422.599999994,7772,WL,C,9.0
4,22.47599983215332,learn,37524.00016784668,Wed Mar 11 2026 13:19:41 GMT-0500 (Central Daylight Time),556520.900000006,A,g,O,g,1422,1,1432.7000000178814,555088.1999999881,7772,WL,C,10.0
4,23.509999990463257,learn,36490.00000953674,Wed Mar 11 2026 13:19:41 GMT-0500 (Central Daylight Time),557554.900000006,A,,O,backspace,1012,1,2466.7000000178814,555088.1999999881,7772,WL,C,10.0
4,23.908999919891357,learn,36091.00008010864,Wed Mar 11 2026 13:19:41 GMT-0500 (Central Daylight Time),557953.599999994,A,f,O,f,394,1,2865.4000000059605,555088.1999999881,7772,WL,C,10.0
4,24.14199995994568,learn,35858.00004005432,Wed Mar 11 2026 13:19:41 GMT-0500 (Central Daylight Time),558186.900000006,A,fl,O,l,227,1,3098.7000000178814,555088.1999999881,7772,WL,C,10.0
4,24.29199981689453,learn,35708.00018310547,Wed Mar 11 2026 13:19:41 GMT-0500 (Central Daylight Time),558337.0,A,fla,O,a,130,1,3248.800000011921,555088.1999999881,7772,WL,C,10.0
4,24.94099998474121,learn,35059.00001525879,Wed Mar 11 2026 13:19:41 GMT-0500 (Central Daylight Time),558986.5,A,flag,O,g,637,1,3898.300000011921,555088.1999999881,7772,WL,C,10.0
4,25.30900001525879,learn,34690.99998474121,Wed Mar 11 2026 13:19:41 GMT-0500 (Central Daylight Time),559354.3000000119,A,flagenter,O,enter,355,1,4266.100000023842,555088.1999999881,7772,WL,C,10.0
4,25.740999937057495,learn,34259.000062942505,Wed Mar 11 2026 13:19:41 GMT-0500 (Central Daylight Time),559786.5,A,l,O,l,427,1,431.90000000596046,559354.599999994,7772,WL,C,11.0
4,25.79099988937378,learn,34209.00011062622,Wed Mar 11 2026 13:19:41 GMT-0500 (Central Daylight Time),559836.400000006,A,le,O,e,35,1,481.80000001192093,559354.599999994,7772,WL,C,11.0
4,25.924999952316284,learn,34075.000047683716,Wed Mar 11 2026 13:19:41 GMT-0500 (Central Daylight Time),559969.6999999881,A,let,O,t,121,1,615.0999999940395,559354.599999994,7772,WL,C,11.0
4,26.125,learn,33875.0,Wed Mar 11 2026 13:19:41 GMT-0500 (Central Daylight Time),560169.6999999881,A,lett,O,t,188,1,815.0999999940395,559354.599999994,7772,WL,C,11.0
4,26.324999809265137,learn,33675.00019073486,Wed Mar 11 2026 13:19:41 GMT-0500 (Central Daylight Time),560370.0,A,lette,O,e,196,1,1015.4000000059605,559354.599999994,7772,WL,C,11.0
4,26.37399983406067,learn,33626.00016593933,Wed Mar 11 2026 13:19:41 GMT-0500 (Central Daylight Time),560419.400000006,A,letter,O,r,44,1,1064.800000011921,559354.599999994,7772,WL,C,11.0
4,26.757999897003174,learn,33242.000102996826,Wed Mar 11 2026 13:19:41 GMT-0500 (Central Daylight Time),560802.6999999881,A,letterenter,O,enter,378,1,1448.0999999940395,559354.599999994,7772,WL,C,11.0
4,30.457000017166138,learn,29542.999982833862,Wed Mar 11 2026 13:19:41 GMT-0500 (Central Daylight Time),564501.6999999881,A,s,O,s,3691,1,3698.899999976158,560802.8000000119,7772,WL,C,12.0
4,30.60599994659424,learn,29394.00005340576,Wed Mar 11 2026 13:19:41 GMT-0500 (Central Daylight Time),564651.5,A,su,O,u,136,1,3848.699999988079,560802.8000000119,7772,WL,C,12.0
4,30.789999961853027,learn,29210.000038146973,Wed Mar 11 2026 13:19:41 GMT-0500 (Central Daylight Time),564834.599999994,A,sua,O,a,177,1,4031.7999999821186,560802.8000000119,7772,WL,C,12.0
4,31.738999843597412,learn,28261.000156402588,Wed Mar 11 2026 13:19:41 GMT-0500 (Central Daylight Time),565784.400000006,A,su,O,backspace,930,1,4981.5999999940395,560802.8000000119,7772,WL,C,12.0
4,32.03999996185303,learn,27960.000038146973,Wed Mar 11 2026 13:19:41 GMT-0500 (Central Daylight Time),566084.6999999881,A,sug,O,g,285,1,5281.899999976158,560802.8000000119,7772,WL,C,12.0
4,32.24000000953674,learn,27759.999990463257,Wed Mar 11 2026 13:19:41 GMT-0500 (Central Daylight Time),566284.599999994,A,suga,O,a,192,1,5481.799999982119,560802.8000000119,7772,WL,C,12.0
4,32.35599994659424,learn,27644.00005340576,Wed Mar 11 2026 13:19:41 GMT-0500 (Central Daylight Time),566401.1999999881,A,sugar,O,r,96,1,5598.399999976158,560802.8000000119,7772,WL,C,12.0
4,33.00599980354309,learn,26994.00019645691,Wed Mar 11 2026 13:19:41 GMT-0500 (Central Daylight Time),567050.900000006,A,sugarenter,O,enter,628,1,6248.0999999940395,560802.8000000119,7772,WL,C,12.0
4,33.45599985122681,learn,26544.000148773193,Wed Mar 11 2026 13:19:41 GMT-0500 (Central Daylight Time),567500.599999994,A,c,O,c,434,1,449.2999999821186,567051.3000000119,7772,WL,C,13.0
4,33.60599994659424,learn,26394.00005340576,Wed Mar 11 2026 13:19:41 GMT-0500 (Central Daylight Time),567650.6999999881,A,co,O,o,129,1,599.3999999761581,567051.3000000119,7772,WL,C,13.0
4,33.68899989128113,learn,26311.000108718872,Wed Mar 11 2026 13:19:41 GMT-0500 (Central Daylight Time),567734.099999994,A,cor,O,r,75,1,682.7999999821186,567051.3000000119,7772,WL,C,13.0
4,33.888999938964844,learn,26111.000061035156,Wed Mar 11 2026 13:19:41 GMT-0500 (Central Daylight Time),567933.900000006,A,corn,O,n,191,1,882.5999999940395,567051.3000000119,7772,WL,C,13.0
4,34.27199983596802,learn,25728.000164031982,Wed Mar 11 2026 13:19:41 GMT-0500 (Central Daylight Time),568316.900000006,A,cornenter,O,enter,376,1,1265.5999999940395,567051.3000000119,7772,WL,C,13.0
4,34.621999979019165,learn,25378.000020980835,Wed Mar 11 2026 13:19:41 GMT-0500 (Central Daylight Time),568666.900000006,A,c,O,c,344,1,349.7000000178814,568317.1999999881,7772,WL,C,14.0
4,34.80499982833862,learn,25195.000171661377,Wed Mar 11 2026 13:19:41 GMT-0500 (Central Daylight Time),568850.099999994,A,ca,O,a,178,1,532.9000000059605,568317.1999999881,7772,WL,C,14.0
4,34.92199993133545,learn,25078.00006866455,Wed Mar 11 2026 13:19:41 GMT-0500 (Central Daylight Time),568966.8000000119,A,cat,O,t,108,1,649.6000000238419,568317.1999999881,7772,WL,C,14.0
4,35.121999979019165,learn,24878.000020980835,Wed Mar 11 2026 13:19:41 GMT-0500 (Central Daylight Time),569166.900000006,A,catt,O,t,183,1,849.7000000178814,568317.1999999881,7772,WL,C,14.0
4,35.23899984359741,learn,24761.000156402588,Wed Mar 11 2026 13:19:41 GMT-0500 (Central Daylight Time),569283.6999999881,A,cattl,O,l,103,1,966.5,568317.1999999881,7772,WL,C,14.0
4,35.371999979019165,learn,24628.000020980835,Wed Mar 11 2026 13:19:41 GMT-0500 (Central Daylight Time),569417.099999994,A,cattle,O,e,114,1,1099.9000000059605,568317.1999999881,7772,WL,C,14.0
4,35.65499997138977,learn,24345.00002861023,Wed Mar 11 2026 13:19:41 GMT-0500 (Central Daylight Time),569699.900000006,A,cattleenter,O,enter,275,1,1382.7000000178814,568317.1999999881,7772,WL,C,14.0
4,38.75399994850159,learn,21246.000051498413,Wed Mar 11 2026 13:19:41 GMT-0500 (Central Daylight Time),572799.099999994,A,h,O,h,3082,1,3098.9000000059605,569700.1999999881,7772,WL,C,15.0
4,38.90399980545044,learn,21096.00019454956,Wed Mar 11 2026 13:19:41 GMT-0500 (Central Daylight Time),572949.0,A,ho,O,o,142,1,3248.800000011921,569700.1999999881,7772,WL,C,15.0
4,39.03699994087219,learn,20963.000059127808,Wed Mar 11 2026 13:19:41 GMT-0500 (Central Daylight Time),573082.5,A,hom,O,m,121,1,3382.300000011921,569700.1999999881,7772,WL,C,15.0
4,39.2039999961853,learn,20796.000003814697,Wed Mar 11 2026 13:19:41 GMT-0500 (Central Daylight Time),573248.8000000119,A,home,O,e,155,1,3548.600000023842,569700.1999999881,7772,WL,C,15.0
4,39.4539999961853,learn,20546.000003814697,Wed Mar 11 2026 13:19:41 GMT-0500 (Central Daylight Time),573498.900000006,A,homeenter,O,enter,237,1,3798.7000000178814,569700.1999999881,7772,WL,C,15.0
5,0.5669999122619629,learn,60000.0,Wed Mar 11 2026 13:19:41 GMT-0500 (Central Daylight Time),652058.099999994,A,c,O,c,546,1,567.0,651491.099999994,7772,WL,C,1.0
5,0.6670000553131104,learn,60000.0,Wed Mar 11 2026 13:19:41 GMT-0500 (Central Daylight Time),652157.6999999881,A,co,O,o,90,1,666.5999999940395,651491.099999994,7772,WL,C,1.0
5,0.8339998722076416,learn,60000.0,Wed Mar 11 2026 13:19:41 GMT-0500 (Central Daylight Time),652324.1999999881,A,cor,O,r,160,1,833.0999999940395,651491.099999994,7772,WL,C,1.0
5,0.9830000400543213,learn,60000.0,Wed Mar 11 2026 13:19:41 GMT-0500 (Central Daylight Time),652474.0,A,corn,O,n,129,1,982.9000000059605,651491.099999994,7772,WL,C,1.0
5,2.0999999046325684,learn,60000.0,Wed Mar 11 2026 13:19:41 GMT-0500 (Central Daylight Time),653590.400000006,A,cornenter,O,enter,1100,1,2099.300000011921,651491.099999994,7772,WL,C,1.0
5,2.7660000324249268,learn,60000.0,Wed Mar 11 2026 13:19:41 GMT-0500 (Central Daylight Time),654256.900000006,A,n,O,n,655,1,666.2000000178814,653590.6999999881,7772,WL,C,2.0
5,2.9159998893737793,learn,60000.0,Wed Mar 11 2026 13:19:41 GMT-0500 (Central Daylight Time),654406.900000006,A,na,O,a,140,1,816.2000000178814,653590.6999999881,7772,WL,C,2.0
5,3.0329999923706055,learn,60000.0,Wed Mar 11 2026 13:19:41 GMT-0500 (Central Daylight Time),654523.3000000119,A,nai,O,i,111,1,932.6000000238419,653590.6999999881,7772,WL,C,2.0
5,3.183000087738037,learn,60000.0,Wed Mar 11 2026 13:19:41 GMT-0500 (Central Daylight Time),654673.8000000119,A,nail,O,l,130,1,1083.1000000238419,653590.6999999881,7772,WL,C,2.0
5,3.499000072479248,learn,60000.0,Wed Mar 11 2026 13:19:41 GMT-0500 (Central Daylight Time),654990.099999994,A,nailenter,O,enter,308,1,1399.4000000059605,653590.6999999881,7772,WL,C,2.0
5,3.865999937057495,learn,60000.0,Wed Mar 11 2026 13:19:41 GMT-0500 (Central Daylight Time),655356.1999999881,A,c,O,c,359,1,365.7999999821186,654990.400000006,7772,WL,C,3.0
5,4.065999984741211,learn,60000.0,Wed Mar 11 2026 13:19:41 GMT-0500 (Central Daylight Time),655556.1999999881,A,ca,O,a,184,1,565.7999999821186,654990.400000006,7772,WL,C,3.0
5,4.216000080108643,learn,60000.0,Wed Mar 11 2026 13:19:41 GMT-0500 (Central Daylight Time),655706.5,A,cat,O,t,129,1,716.0999999940395,654990.400000006,7772,WL,C,3.0
5,4.398999929428101,learn,60000.0,Wed Mar 11 2026 13:19:41 GMT-0500 (Central Daylight Time),655889.599999994,A,catt,O,t,163,1,899.1999999880791,654990.400000006,7772,WL,C,3.0
5,4.516000032424927,learn,60000.0,Wed Mar 11 2026 13:19:41 GMT-0500 (Central Daylight Time),656006.1999999881,A,cattl,O,l,100,1,1015.7999999821186,654990.400000006,7772,WL,C,3.0
5,4.632999897003174,learn,60000.0,Wed Mar 11 2026 13:19:41 GMT-0500 (Central Daylight Time),656123.1999999881,A,cattle,O,e,103,1,1132.7999999821186,654990.400000006,7772,WL,C,3.0
5,4.832000017166138,learn,60000.0,Wed Mar 11 2026 13:19:41 GMT-0500 (Central Daylight Time),656323.0,A,cattleenter,O,enter,186,1,1332.5999999940395,654990.400000006,7772,WL,C,3.0
5,5.065999984741211,learn,60000.0,Wed Mar 11 2026 13:19:41 GMT-0500 (Central Daylight Time),656556.1999999881,A,s,O,s,220,1,232.89999997615814,656323.3000000119,7772,WL,C,4.0
5,5.198999881744385,learn,60000.0,Wed Mar 11 2026 13:19:41 GMT-0500 (Central Daylight Time),656689.8000000119,A,sh,O,h,112,1,366.5,656323.3000000119,7772,WL,C,4.0
5,5.315999984741211,learn,60000.0,Wed Mar 11 2026 13:19:41 GMT-0500 (Central Daylight Time),656806.3000000119,A,sho,O,o,108,1,483.0,656323.3000000119,7772,WL,C,4.0
5,5.448999881744385,learn,60000.0,Wed Mar 11 2026 13:19:41 GMT-0500 (Central Daylight Time),656939.599999994,A,shor,O,r,119,1,616.2999999821186,656323.3000000119,7772,WL,C,4.0
5,5.549000024795532,learn,60000.0,Wed Mar 11 2026 13:19:41 GMT-0500 (Central Daylight Time),657039.099999994,A,shore,O,e,82,1,715.7999999821186,656323.3000000119,7772,WL,C,4.0
5,5.931999921798706,learn,60000.0,Wed Mar 11 2026 13:19:41 GMT-0500 (Central Daylight Time),657422.599999994,A,shoreenter,O,enter,375,1,1099.2999999821186,656323.3000000119,7772,WL,C,4.0
5,6.332000017166138,learn,60000.0,Wed Mar 11 2026 13:19:41 GMT-0500 (Central Daylight Time),657822.5,A,b,O,b,382,1,399.5,657423.0,7772,WL,C,5.0
5,6.4649999141693115,learn,60000.0,Wed Mar 11 2026 13:19:41 GMT-0500 (Central Daylight Time),657956.0,A,bo,O,o,127,1,533.0,657423.0,7772,WL,C,5.0
5,6.664999961853027,learn,60000.0,Wed Mar 11 2026 13:19:41 GMT-0500 (Central Daylight Time),658155.8000000119,A,bod,O,d,186,1,732.8000000119209,657423.0,7772,WL,C,5.0
5,6.813999891281128,learn,60000.0,Wed Mar 11 2026 13:19:41 GMT-0500 (Central Daylight Time),658305.400000006,A,body,O,y,130,1,882.4000000059605,657423.0,7772,WL,C,5.0
5,7.180999994277954,learn,60000.0,Wed Mar 11 2026 13:19:41 GMT-0500 (Central Daylight Time),658672.1999999881,A,bodyenter,O,enter,356,1,1249.199999988079,657423.0,7772,WL,C,5.0
5,8.013999938964844,learn,60000.0,Wed Mar 11 2026 13:19:41 GMT-0500 (Central Daylight Time),659505.1999999881,A,t,O,t,812,1,832.5,658672.6999999881,7772,WL,C,6.0
5,8.098000049591064,learn,60000.0,Wed Mar 11 2026 13:19:41 GMT-0500 (Central Daylight Time),659588.6999999881,A,to,O,o,68,1,916.0,658672.6999999881,7772,WL,C,6.0
5,8.263999938964844,learn,60000.0,Wed Mar 11 2026 13:19:41 GMT-0500 (Central Daylight Time),659755.3000000119,A,tow,O,w,153,1,1082.6000000238419,658672.6999999881,7772,WL,C,6.0
5,8.44700002670288,learn,60000.0,Wed Mar 11 2026 13:19:41 GMT-0500 (Central Daylight Time),659938.599999994,A,towr,O,r,178,1,1265.9000000059605,658672.6999999881,7772,WL,C,6.0
5,9.898000001907349,learn,60000.0,Wed Mar 11 2026 13:19:41 GMT-0500 (Central Daylight Time),661388.8000000119,A,tow,O,backspace,1443,1,2716.100000023842,658672.6999999881,7772,WL,C,6.0
5,10.063999891281128,learn,60000.0,Wed Mar 11 2026 13:19:41 GMT-0500 (Central Daylight Time),661554.900000006,A,towe,O,e,151,1,2882.2000000178814,658672.6999999881,7772,WL,C,6.0
5,10.164000034332275,learn,60000.0,Wed Mar 11 2026 13:19:41 GMT-0500 (Central Daylight Time),661654.6999999881,A,tower,O,r,83,1,2982.0,658672.6999999881,7772,WL,C,6.0
5,10.44700002670288,learn,60000.0,Wed Mar 11 2026 13:19:41 GMT-0500 (Central Daylight Time),661937.8000000119,A,towerenter,O,enter,279,1,3265.100000023842,658672.6999999881,7772,WL,C,6.0
5,10.996999979019165,learn,60000.0,Wed Mar 11 2026 13:19:41 GMT-0500 (Central Daylight Time),662487.900000006,A,w,O,w,532,1,549.8000000119209,661938.099999994,7772,WL,C,7.0
5,11.162999868392944,learn,60000.0,Wed Mar 11 2026 13:19:41 GMT-0500 (Central Daylight Time),662654.1999999881,A,wh,O,h,150,1,716.0999999940395,661938.099999994,7772,WL,C,7.0
5,11.496000051498413,learn,60000.0,Wed Mar 11 2026 13:19:41 GMT-0500 (Central Daylight Time),662987.5,A,whe,O,e,320,1,1049.4000000059605,661938.099999994,7772,WL,C,7.0
5,11.730000019073486,learn,60000.0,Wed Mar 11 2026 13:19:41 GMT-0500 (Central Daylight Time),663220.6999999881,A,whea,O,a,218,1,1282.5999999940395,661938.099999994,7772,WL,C,7.0
5,11.86299991607666,learn,60000.0,Wed Mar 11 2026 13:19:41 GMT-0500 (Central Daylight Time),663354.0,A,wheat,O,t,129,1,1415.9000000059605,661938.099999994,7772,WL,C,7.0
5,12.312999963760376,learn,60000.0,Wed Mar 11 2026 13:19:41 GMT-0500 (Central Daylight Time),663804.0,A,wheatenter,O,enter,436,1,1865.9000000059605,661938.099999994,7772,WL,C,7.0
5,13.062999963760376,learn,60000.0,Wed Mar 11 2026 13:19:41 GMT-0500 (Central Daylight Time),664553.6999999881,A,q,O,q,738,1,749.3999999761581,663804.3000000119,7772,WL,C,8.0
5,13.161999940872192,learn,60000.0,Wed Mar 11 2026 13:19:41 GMT-0500 (Central Daylight Time),664653.5,A,qu,O,u,92,1,849.1999999880791,663804.3000000119,7772,WL,C,8.0
5,13.36299991607666,learn,60000.0,Wed Mar 11 2026 13:19:41 GMT-0500 (Central Daylight Time),664853.6999999881,A,que,O,e,184,1,1049.3999999761581,663804.3000000119,7772,WL,C,8.0
5,13.578999996185303,learn,60000.0,Wed Mar 11 2026 13:19:41 GMT-0500 (Central Daylight Time),665070.3000000119,A,quee,O,e,200,1,1266.0,663804.3000000119,7772,WL,C,8.0
5,13.828999996185303,learn,60000.0,Wed Mar 11 2026 13:19:41 GMT-0500 (Central Daylight Time),665320.1999999881,A,queen,O,n,231,1,1515.8999999761581,663804.3000000119,7772,WL,C,8.0
5,14.145999908447266,learn,60000.0,Wed Mar 11 2026 13:19:41 GMT-0500 (Central Daylight Time),665636.8000000119,A,queenenter,O,enter,309,1,1832.5,663804.3000000119,7772,WL,C,8.0
5,14.428999900817871,learn,60000.0,Wed Mar 11 2026 13:19:41 GMT-0500 (Central Daylight Time),665920.1999999881,A,s,O,s,273,1,283.0,665637.1999999881,7772,WL,C,9.0
5,14.595999956130981,learn,60000.0,Wed Mar 11 2026 13:19:41 GMT-0500 (Central Daylight Time),666086.900000006,A,su,O,u,148,1,449.7000000178814,665637.1999999881,7772,WL,C,9.0
5,15.161999940872192,learn,60000.0,Wed Mar 11 2026 13:19:41 GMT-0500 (Central Daylight Time),666653.1999999881,A,sug,O,g,559,1,1016.0,665637.1999999881,7772,WL,C,9.0
5,15.361999988555908,learn,60000.0,Wed Mar 11 2026 13:19:41 GMT-0500 (Central Daylight Time),666852.900000006,A,suga,O,a,192,1,1215.7000000178814,665637.1999999881,7772,WL,C,9.0
5,15.477999925613403,learn,60000.0,Wed Mar 11 2026 13:19:41 GMT-0500 (Central Daylight Time),666969.599999994,A,sugar,O,r,97,1,1332.4000000059605,665637.1999999881,7772,WL,C,9.0
5,15.796000003814697,learn,60000.0,Wed Mar 11 2026 13:19:41 GMT-0500 (Central Daylight Time),667287.099999994,A,sugarenter,O,enter,308,1,1649.9000000059605,665637.1999999881,7772,WL,C,9.0
5,16.277999877929688,learn,60000.0,Wed Mar 11 2026 13:19:41 GMT-0500 (Central Daylight Time),667769.400000006,A,c,O,c,471,1,482.0,667287.400000006,7772,WL,C,10.0
5,16.42799997329712,learn,60000.0,Wed Mar 11 2026 13:19:41 GMT-0500 (Central Daylight Time),667919.3000000119,A,ca,O,a,140,1,631.9000000059605,667287.400000006,7772,WL,C,10.0
5,16.57800006866455,learn,60000.0,Wed Mar 11 2026 13:19:41 GMT-0500 (Central Daylight Time),668069.599999994,A,cam,O,m,134,1,782.1999999880791,667287.400000006,7772,WL,C,10.0
5,16.777999877929688,learn,60000.0,Wed Mar 11 2026 13:19:41 GMT-0500 (Central Daylight Time),668269.0,A,camp,O,p,192,1,981.5999999940395,667287.400000006,7772,WL,C,10.0
5,17.17799997329712,learn,60000.0,Wed Mar 11 2026 13:19:41 GMT-0500 (Central Daylight Time),668669.0,A,campenter,O,enter,384,1,1381.5999999940395,667287.400000006,7772,WL,C,10.0
5,17.878000020980835,learn,60000.0,Wed Mar 11 2026 13:19:41 GMT-0500 (Central Daylight Time),669369.0,A,g,O,g,680,1,699.6999999880791,668669.3000000119,7772,WL,C,11.0
5,18.66100001335144,learn,60000.0,Wed Mar 11 2026 13:19:41 GMT-0500 (Central Daylight Time),670151.6999999881,A,,O,backspace,765,1,1482.3999999761581,668669.3000000119,7772,WL,C,11.0
5,18.793999910354614,learn,60000.0,Wed Mar 11 2026 13:19:41 GMT-0500 (Central Daylight Time),670285.1999999881,A,f,O,f,118,1,1615.8999999761581,668669.3000000119,7772,WL,C,11.0
5,19.16100001335144,learn,60000.0,Wed Mar 11 2026 13:19:41 GMT-0500 (Central Daylight Time),670652.099999994,A,fl,O,l,352,1,1982.7999999821186,668669.3000000119,7772,WL,C,11.0
5,19.328999996185303,learn,60000.0,Wed Mar 11 2026 13:19:41 GMT-0500 (Central Daylight Time),670819.8000000119,A,fla,O,a,146,1,2150.5,668669.3000000119,7772,WL,C,11.0
5,19.677000045776367,learn,60000.0,Wed Mar 11 2026 13:19:41 GMT-0500 (Central Daylight Time),671168.1999999881,A,flag,O,g,338,1,2498.899999976158,668669.3000000119,7772,WL,C,11.0
5,19.99399995803833,learn,60000.0,Wed Mar 11 2026 13:19:41 GMT-0500 (Central Daylight Time),671484.8000000119,A,flagenter,O,enter,309,1,2815.5,668669.3000000119,7772,WL,C,11.0
5,21.07699990272522,learn,60000.0,Wed Mar 11 2026 13:19:41 GMT-0500 (Central Daylight Time),672567.900000006,A,l,O,l,1073,1,1082.7000000178814,671485.1999999881,7772,WL,C,12.0
5,21.177000045776367,learn,60000.0,Wed Mar 11 2026 13:19:41 GMT-0500 (Central Daylight Time),672668.0,A,le,O,e,93,1,1182.800000011921,671485.1999999881,7772,WL,C,12.0
5,21.3439998626709,learn,60000.0,Wed Mar 11 2026 13:19:41 GMT-0500 (Central Daylight Time),672835.599999994,A,let,O,t,146,1,1350.4000000059605,671485.1999999881,7772,WL,C,12.0
5,21.526999950408936,learn,60000.0,Wed Mar 11 2026 13:19:41 GMT-0500 (Central Daylight Time),673017.6999999881,A,lett,O,t,177,1,1532.5,671485.1999999881,7772,WL,C,12.0
5,21.759999990463257,learn,60000.0,Wed Mar 11 2026 13:19:41 GMT-0500 (Central Daylight Time),673251.0,A,lette,O,e,220,1,1765.800000011921,671485.1999999881,7772,WL,C,12.0
5,21.82699990272522,learn,60000.0,Wed Mar 11 2026 13:19:41 GMT-0500 (Central Daylight Time),673317.8000000119,A,letter,O,r,59,1,1832.6000000238419,671485.1999999881,7772,WL,C,12.0
5,22.125999927520752,learn,60000.0,Wed Mar 11 2026 13:19:41 GMT-0500 (Central Daylight Time),673617.400000006,A,letterenter,O,enter,280,1,2132.2000000178814,671485.1999999881,7772,WL,C,12.0
5,24.875999927520752,learn,60000.0,Wed Mar 11 2026 13:19:41 GMT-0500 (Central Daylight Time),676366.599999994,A,c,O,c,2733,1,2748.9000000059605,673617.6999999881,7772,WL,C,13.0
5,25.075999975204468,learn,60000.0,Wed Mar 11 2026 13:19:41 GMT-0500 (Central Daylight Time),676566.8000000119,A,ca,O,a,182,1,2949.100000023842,673617.6999999881,7772,WL,C,13.0
5,25.276000022888184,learn,60000.0,Wed Mar 11 2026 13:19:41 GMT-0500 (Central Daylight Time),676767.0,A,cat,O,t,183,1,3149.300000011921,673617.6999999881,7772,WL,C,13.0
5,25.45899987220764,learn,60000.0,Wed Mar 11 2026 13:19:41 GMT-0500 (Central Daylight Time),676950.0,A,catt,O,t,166,1,3332.300000011921,673617.6999999881,7772,WL,C,13.0
5,25.60800004005432,learn,60000.0,Wed Mar 11 2026 13:19:41 GMT-0500 (Central Daylight Time),677099.5,A,cattl,O,l,143,1,3481.800000011921,673617.6999999881,7772,WL,C,13.0
5,25.7260000705719,learn,60000.0,Wed Mar 11 2026 13:19:41 GMT-0500 (Central Daylight Time),677216.6999999881,A,cattle,O,e,106,1,3599.0,673617.6999999881,7772,WL,C,13.0
5,26.05900001525879,learn,60000.0,Wed Mar 11 2026 13:19:41 GMT-0500 (Central Daylight Time),677549.8000000119,A,cattleenter,O,enter,317,1,3932.100000023842,673617.6999999881,7772,WL,C,13.0
5,29.874000072479248,learn,60000.0,Wed Mar 11 2026 13:19:41 GMT-0500 (Central Daylight Time),681365.1999999881,A,s,O,s,3808,1,3815.0,677550.1999999881,7772,WL,C,14.0
5,29.990999937057495,learn,60000.0,Wed Mar 11 2026 13:19:41 GMT-0500 (Central Daylight Time),681481.6999999881,A,sh,O,h,104,1,3931.5,677550.1999999881,7772,WL,C,14.0
5,30.124000072479248,learn,60000.0,Wed Mar 11 2026 13:19:41 GMT-0500 (Central Daylight Time),681615.1999999881,A,sho,O,o,115,1,4065.0,677550.1999999881,7772,WL,C,14.0
5,30.157000064849854,learn,60000.0,Wed Mar 11 2026 13:19:41 GMT-0500 (Central Daylight Time),681648.1999999881,A,shos,O,s,14,1,4098.0,677550.1999999881,7772,WL,C,14.0
5,30.223999977111816,learn,60000.0,Wed Mar 11 2026 13:19:41 GMT-0500 (Central Daylight Time),681715.3000000119,A,shosr,O,r,54,1,4165.100000023842,677550.1999999881,7772,WL,C,14.0
5,30.374000072479248,learn,60000.0,Wed Mar 11 2026 13:19:41 GMT-0500 (Central Daylight Time),681865.1999999881,A,shosre,O,e,130,1,4315.0,677550.1999999881,7772,WL,C,14.0
5,31.240000009536743,learn,60000.0,Wed Mar 11 2026 13:19:41 GMT-0500 (Central Daylight Time),682731.400000006,A,shosr,O,backspace,860,1,5181.200000017881,677550.1999999881,7772,WL,C,14.0
5,31.44000005722046,learn,60000.0,Wed Mar 11 2026 13:19:41 GMT-0500 (Central Daylight Time),682931.099999994,A,shos,O,backspace,194,1,5380.9000000059605,677550.1999999881,7772,WL,C,14.0
5,31.806999921798706,learn,60000.0,Wed Mar 11 2026 13:19:41 GMT-0500 (Central Daylight Time),683297.8000000119,A,sho,O,backspace,347,1,5747.600000023842,677550.1999999881,7772,WL,C,14.0
5,32.07299995422363,learn,60000.0,Wed Mar 11 2026 13:19:41 GMT-0500 (Central Daylight Time),683564.599999994,A,shor,O,r,260,1,6014.4000000059605,677550.1999999881,7772,WL,C,14.0
5,32.20700001716614,learn,60000.0,Wed Mar 11 2026 13:19:41 GMT-0500 (Central Daylight Time),683697.8000000119,A,shore,O,e,121,1,6147.600000023842,677550.1999999881,7772,WL,C,14.0
5,32.49000000953674,learn,60000.0,Wed Mar 11 2026 13:19:41 GMT-0500 (Central Daylight Time),683981.099999994,A,shoreenter,O,enter,268,1,6430.9000000059605,677550.1999999881,7772,WL,C,14.0
5,33.15599989891052,learn,60000.0,Wed Mar 11 2026 13:19:41 GMT-0500 (Central Daylight Time),684647.3000000119,A,h,O,h,649,1,665.9000000059605,683981.400000006,7772,WL,C,15.0
5,33.32299995422363,learn,60000.0,Wed Mar 11 2026 13:19:41 GMT-0500 (Central Daylight Time),684814.099999994,A,ho,O,o,150,1,832.6999999880791,683981.400000006,7772,WL,C,15.0
5,33.4229998588562,learn,60000.0,Wed Mar 11 2026 13:19:41 GMT-0500 (Central Daylight Time),684914.0,A,hom,O,m,86,1,932.5999999940395,683981.400000006,7772,WL,C,15.0
5,33.58999991416931,learn,60000.0,Wed Mar 11 2026 13:19:41 GMT-0500 (Central Daylight Time),685081.099999994,A,home,O,e,148,1,1099.699999988079,683981.400000006,7772,WL,C,15.0
5,33.90599989891052,learn,60000.0,Wed Mar 11 2026 13:19:41 GMT-0500 (Central Daylight Time),685397.1999999881,A,homeb,O,b,308,1,1415.7999999821186,683981.400000006,7772,WL,C,15.0
5,34.02300000190735,learn,60000.0,Wed Mar 11 2026 13:19:41 GMT-0500 (Central Daylight Time),685513.900000006,A,homebo,O,o,104,1,1532.5,683981.400000006,7772,WL,C,15.0
5,34.805999994277954,learn,60000.0,Wed Mar 11 2026 13:19:41 GMT-0500 (Central Daylight Time),686297.0,A,homeb,O,backspace,771,1,2315.5999999940395,683981.400000006,7772,WL,C,15.0
5,35.00600004196167,learn,60000.0,Wed Mar 11 2026 13:19:41 GMT-0500 (Central Daylight Time),686497.0,A,home,O,backspace,189,1,2515.5999999940395,683981.400000006,7772,WL,C,15.0
5,35.33899998664856,learn,60000.0,Wed Mar 11 2026 13:19:41 GMT-0500 (Central Daylight Time),686830.099999994,A,homeenter,O,enter,325,1,2848.699999988079,683981.400000006,7772,WL,C,15.0
6,0.4829998016357422,distr,59517.00019836426,Wed Mar 11 2026 13:19:41 GMT-0500 (Central Daylight Time),767588.3000000119,B,m,O,m,469,1,482.90000000596046,767105.400000006,7772,WL,C,1.0
6,0.6319999694824219,distr,59368.00003051758,Wed Mar 11 2026 13:19:41 GMT-0500 (Central Daylight Time),767738.099999994,B,mo,O,o,144,1,632.6999999880791,767105.400000006,7772,WL,C,1.0
6,0.8489999771118164,distr,59151.00002288818,Wed Mar 11 2026 13:19:41 GMT-0500 (Central Daylight Time),767954.599999994,B,mon,O,n,204,1,849.1999999880791,767105.400000006,7772,WL,C,1.0
6,1.0319998264312744,distr,58968.000173568726,Wed Mar 11 2026 13:19:41 GMT-0500 (Central Daylight Time),768138.0,B,mone,O,e,171,1,1032.5999999940395,767105.400000006,7772,WL,C,1.0
6,1.182999849319458,distr,58817.00015068054,Wed Mar 11 2026 13:19:41 GMT-0500 (Central Daylight Time),768289.099999994,B,money,O,y,131,1,1183.699999988079,767105.400000006,7772,WL,C,1.0
6,1.5319998264312744,distr,58468.000173568726,Wed Mar 11 2026 13:19:41 GMT-0500 (Central Daylight Time),768638.0,B,moneyenter,O,enter,341,1,1532.5999999940395,767105.400000006,7772,WL,C,1.0
6,1.998999834060669,distr,58001.00016593933,Wed Mar 11 2026 13:19:41 GMT-0500 (Central Daylight Time),769104.5,B,d,O,d,447,1,466.19999998807907,768638.3000000119,7772,WL,C,2.0
6,2.115999937057495,distr,57884.000062942505,Wed Mar 11 2026 13:19:41 GMT-0500 (Central Daylight Time),769221.099999994,B,do,O,o,101,1,582.7999999821186,768638.3000000119,7772,WL,C,2.0
6,2.3319997787475586,distr,57668.00022125244,Wed Mar 11 2026 13:19:41 GMT-0500 (Central Daylight Time),769437.8000000119,B,dol,O,l,201,1,799.5,768638.3000000119,7772,WL,C,2.0
6,2.4819998741149902,distr,57518.00012588501,Wed Mar 11 2026 13:19:41 GMT-0500 (Central Daylight Time),769587.6999999881,B,doll,O,l,136,1,949.3999999761581,768638.3000000119,7772,WL,C,2.0
6,2.614999771118164,distr,57385.000228881836,Wed Mar 11 2026 13:19:41 GMT-0500 (Central Daylight Time),769720.900000006,B,dolla,O,a,113,1,1082.5999999940395,768638.3000000119,7772,WL,C,2.0
6,2.7649998664855957,distr,57235.000133514404,Wed Mar 11 2026 13:19:41 GMT-0500 (Central Daylight Time),769870.900000006,B,dollar,O,r,141,1,1232.5999999940395,768638.3000000119,7772,WL,C,2.0
6,3.1649999618530273,distr,56835.00003814697,Wed Mar 11 2026 13:19:41 GMT-0500 (Central Daylight Time),770270.5,B,dollarenter,O,enter,383,1,1632.199999988079,768638.3000000119,7772,WL,C,2.0
6,4.4649999141693115,distr,55535.00008583069,Wed Mar 11 2026 13:19:41 GMT-0500 (Central Daylight Time),771570.400000006,B,s,O,s,1278,1,1299.5999999940395,770270.8000000119,7772,WL,C,3.0
6,4.648999929428101,distr,55351.0000705719,Wed Mar 11 2026 13:19:41 GMT-0500 (Central Daylight Time),771754.6999999881,B,sk,O,k,171,1,1483.8999999761581,770270.8000000119,7772,WL,C,3.0
6,4.947999954223633,distr,55052.00004577637,Wed Mar 11 2026 13:19:41 GMT-0500 (Central Daylight Time),772053.400000006,B,sky,O,y,283,1,1782.5999999940395,770270.8000000119,7772,WL,C,3.0
6,5.330999851226807,distr,54669.00014877319,Wed Mar 11 2026 13:19:41 GMT-0500 (Central Daylight Time),772436.5,B,skyenter,O,enter,368,1,2165.699999988079,770270.8000000119,7772,WL,C,3.0
6,6.197999954223633,distr,53802.00004577637,Wed Mar 11 2026 13:19:41 GMT-0500 (Central Daylight Time),773303.1999999881,B,v,O,v,857,1,866.3999999761581,772436.8000000119,7772,WL,C,4.0
6,6.363999843597412,distr,53636.00015640259,Wed Mar 11 2026 13:19:41 GMT-0500 (Central Daylight Time),773469.8000000119,B,va,O,a,158,1,1033.0,772436.8000000119,7772,WL,C,4.0
6,6.546999931335449,distr,53453.00006866455,Wed Mar 11 2026 13:19:41 GMT-0500 (Central Daylight Time),773653.0,B,val,O,l,168,1,1216.199999988079,772436.8000000119,7772,WL,C,4.0
6,6.696999788284302,distr,53303.0002117157,Wed Mar 11 2026 13:19:41 GMT-0500 (Central Daylight Time),773802.599999994,B,vall,O,l,145,1,1365.7999999821186,772436.8000000119,7772,WL,C,4.0
6,6.813999891281128,distr,53186.00010871887,Wed Mar 11 2026 13:19:41 GMT-0500 (Central Daylight Time),773919.8000000119,B,valle,O,e,108,1,1483.0,772436.8000000119,7772,WL,C,4.0
6,7.063999891281128,distr,52936.00010871887,Wed Mar 11 2026 13:19:41 GMT-0500 (Central Daylight Time),774169.8000000119,B,valley,O,y,238,1,1733.0,772436.8000000119,7772,WL,C,4.0
6,7.446999788284302,distr,52553.0002117157,Wed Mar 11 2026 13:19:41 GMT-0500 (Central Daylight Time),774552.6999999881,B,valleyenter,O,enter,372,1,2115.899999976158,772436.8000000119,7772,WL,C,4.0
6,12.52899980545044,distr,47471.00019454956,Wed Mar 11 2026 13:19:41 GMT-0500 (Central Daylight Time),779634.8000000119,B,d,O,d,5061,1,5081.800000011921,774553.0,7772,WL,C,5.0
6,12.694999933242798,distr,47305.0000667572,Wed Mar 11 2026 13:19:41 GMT-0500 (Central Daylight Time),779801.099999994,B,da,O,a,154,1,5248.0999999940395,774553.0,7772,WL,C,5.0
6,12.827999830245972,distr,47172.00016975403,Wed Mar 11 2026 13:19:41 GMT-0500 (Central Daylight Time),779934.400000006,B,dai,O,i,125,1,5381.4000000059605,774553.0,7772,WL,C,5.0
6,13.277999877929688,distr,46722.00012207031,Wed Mar 11 2026 13:19:41 GMT-0500 (Central Daylight Time),780384.1999999881,B,dais,O,s,439,1,5831.199999988079,774553.0,7772,WL,C,5.0
6,13.394999980926514,distr,46605.000019073486,Wed Mar 11 2026 13:19:41 GMT-0500 (Central Daylight Time),780500.900000006,B,daisy,O,y,109,1,5947.9000000059605,774553.0,7772,WL,C,5.0
6,13.777999877929688,distr,46222.00012207031,Wed Mar 11 2026 13:19:41 GMT-0500 (Central Daylight Time),780884.0,B,daisyenter,O,enter,377,1,6331.0,774553.0,7772,WL,C,5.0
6,60.01299977302551,distr,-12.999773025512695,Wed Mar 11 2026 13:19:41 GMT-0500 (Central Daylight Time),827119.5,B,None,O,None,46230,1,46235.09999999404,780884.400000006,7772,WL,C,6.0
7,12.728999853134155,immed,47271.000146865845,Wed Mar 11 2026 13:19:41 GMT-0500 (Central Daylight Time),853444.8000000119,A,t,O,t,12723,1,12729.100000023842,840715.6999999881,7772,WL,C,1.0
7,12.912999868392944,immed,47087.000131607056,Wed Mar 11 2026 13:19:41 GMT-0500 (Central Daylight Time),853628.0,A,to,O,o,176,1,12912.300000011921,840715.6999999881,7772,WL,C,1.0
7,13.078999996185303,immed,46921.0000038147,Wed Mar 11 2026 13:19:41 GMT-0500 (Central Daylight Time),853794.6999999881,A,tow,O,w,154,1,13079.0,840715.6999999881,7772,WL,C,1.0
7,13.19599986076355,immed,46804.00013923645,Wed Mar 11 2026 13:19:41 GMT-0500 (Central Daylight Time),853911.1999999881,A,towe,O,e,107,1,13195.5,840715.6999999881,7772,WL,C,1.0
7,13.36299991607666,immed,46637.00008392334,Wed Mar 11 2026 13:19:41 GMT-0500 (Central Daylight Time),854078.0,A,tower,O,r,158,1,13362.300000011921,840715.6999999881,7772,WL,C,1.0
7,14.079999923706055,immed,45920.000076293945,Wed Mar 11 2026 13:19:41 GMT-0500 (Central Daylight Time),854795.599999994,A,towerenter,O,enter,705,1,14079.90000000596,840715.6999999881,7772,WL,C,1.0
7,14.494999885559082,immed,45505.00011444092,Wed Mar 11 2026 13:19:41 GMT-0500 (Central Daylight Time),855210.8000000119,A,w,O,w,402,1,414.80000001192093,854796.0,7772,WL,C,2.0
7,14.628999948501587,immed,45371.00005149841,Wed Mar 11 2026 13:19:41 GMT-0500 (Central Daylight Time),855344.3000000119,A,wh,O,h,123,1,548.3000000119209,854796.0,7772,WL,C,2.0
7,14.76199984550476,immed,45238.00015449524,Wed Mar 11 2026 13:19:41 GMT-0500 (Central Daylight Time),855477.400000006,A,whe,O,e,118,1,681.4000000059605,854796.0,7772,WL,C,2.0
7,14.977999925613403,immed,45022.0000743866,Wed Mar 11 2026 13:19:41 GMT-0500 (Central Daylight Time),855693.6999999881,A,whea,O,a,200,1,897.6999999880791,854796.0,7772,WL,C,2.0
7,15.144999980926514,immed,44855.000019073486,Wed Mar 11 2026 13:19:41 GMT-0500 (Central Daylight Time),855860.6999999881,A,wheat,O,t,152,1,1064.699999988079,854796.0,7772,WL,C,2.0
7,15.478999853134155,immed,44521.000146865845,Wed Mar 11 2026 13:19:41 GMT-0500 (Central Daylight Time),856194.099999994,A,wheatenter,O,enter,321,1,1398.0999999940395,854796.0,7772,WL,C,2.0
7,15.84500002861023,immed,44154.99997138977,Wed Mar 11 2026 13:19:41 GMT-0500 (Central Daylight Time),856560.400000006,A,q,O,q,356,1,366.0,856194.400000006,7772,WL,C,3.0
7,16.027999877929688,immed,43972.00012207031,Wed Mar 11 2026 13:19:41 GMT-0500 (Central Daylight Time),856743.5,A,qu,O,u,173,1,549.0999999940395,856194.400000006,7772,WL,C,3.0
7,16.228999853134155,immed,43771.000146865845,Wed Mar 11 2026 13:19:41 GMT-0500 (Central Daylight Time),856943.8000000119,A,que,O,e,182,1,749.4000000059605,856194.400000006,7772,WL,C,3.0
7,16.444999933242798,immed,43555.0000667572,Wed Mar 11 2026 13:19:41 GMT-0500 (Central Daylight Time),857160.1999999881,A,quee,O,e,206,1,965.7999999821186,856194.400000006,7772,WL,C,3.0
7,16.744999885559082,immed,43255.00011444092,Wed Mar 11 2026 13:19:41 GMT-0500 (Central Daylight Time),857460.0,A,queen,O,n,293,1,1265.5999999940395,856194.400000006,7772,WL,C,3.0
7,17.210999965667725,immed,42789.000034332275,Wed Mar 11 2026 13:19:41 GMT-0500 (Central Daylight Time),857926.8000000119,A,queenenter,O,enter,450,1,1732.4000000059605,856194.400000006,7772,WL,C,3.0
7,17.707000017166138,immed,42292.99998283386,Wed Mar 11 2026 13:19:41 GMT-0500 (Central Daylight Time),858422.8000000119,A,h,O,h,491,1,495.7000000178814,857927.099999994,7772,WL,C,4.0
7,17.85599994659424,immed,42144.00005340576,Wed Mar 11 2026 13:19:41 GMT-0500 (Central Daylight Time),858570.900000006,A,ho,O,o,144,1,643.8000000119209,857927.099999994,7772,WL,C,4.0
7,17.960999965667725,immed,42039.000034332275,Wed Mar 11 2026 13:19:41 GMT-0500 (Central Daylight Time),858676.0,A,hom,O,m,98,1,748.9000000059605,857927.099999994,7772,WL,C,4.0
7,18.111999988555908,immed,41888.00001144409,Wed Mar 11 2026 13:19:41 GMT-0500 (Central Daylight Time),858827.6999999881,A,home,O,e,135,1,900.5999999940395,857927.099999994,7772,WL,C,4.0
7,18.694000005722046,immed,41305.999994277954,Wed Mar 11 2026 13:19:41 GMT-0500 (Central Daylight Time),859409.400000006,A,homeenter,O,enter,562,1,1482.300000011921,857927.099999994,7772,WL,C,4.0
7,19.060999870300293,immed,40939.00012969971,Wed Mar 11 2026 13:19:41 GMT-0500 (Central Daylight Time),859776.1999999881,A,b,O,b,348,1,366.5,859409.6999999881,7772,WL,C,5.0
7,19.210999965667725,immed,40789.000034332275,Wed Mar 11 2026 13:19:41 GMT-0500 (Central Daylight Time),859925.900000006,A,bo,O,o,134,1,516.2000000178814,859409.6999999881,7772,WL,C,5.0
7,19.426999807357788,immed,40573.00019264221,Wed Mar 11 2026 13:19:41 GMT-0500 (Central Daylight Time),860142.599999994,A,boy,O,y,208,1,732.9000000059605,859409.6999999881,7772,WL,C,5.0
7,19.810999870300293,immed,40189.00012969971,Wed Mar 11 2026 13:19:41 GMT-0500 (Central Daylight Time),860526.0,A,boyenter,O,enter,376,1,1116.300000011921,859409.6999999881,7772,WL,C,5.0
7,20.143999814987183,immed,39856.00018501282,Wed Mar 11 2026 13:19:41 GMT-0500 (Central Daylight Time),860859.099999994,A,d,O,d,320,1,332.7999999821186,860526.3000000119,7772,WL,C,6.0
7,20.276999950408936,immed,39723.000049591064,Wed Mar 11 2026 13:19:41 GMT-0500 (Central Daylight Time),860992.599999994,A,do,O,o,115,1,466.2999999821186,860526.3000000119,7772,WL,C,6.0
7,20.40999984741211,immed,39590.00015258789,Wed Mar 11 2026 13:19:41 GMT-0500 (Central Daylight Time),861125.6999999881,A,doc,O,c,117,1,599.3999999761581,860526.3000000119,7772,WL,C,6.0
7,20.5939998626709,immed,39406.0001373291,Wed Mar 11 2026 13:19:41 GMT-0500 (Central Daylight Time),861309.1999999881,A,doct,O,t,168,1,782.8999999761581,860526.3000000119,7772,WL,C,6.0
7,20.72699999809265,immed,39273.00000190735,Wed Mar 11 2026 13:19:41 GMT-0500 (Central Daylight Time),861442.5,A,docto,O,o,121,1,916.1999999880791,860526.3000000119,7772,WL,C,6.0
7,20.90999984741211,immed,39090.00015258789,Wed Mar 11 2026 13:19:41 GMT-0500 (Central Daylight Time),861625.5,A,doctor,O,r,171,1,1099.199999988079,860526.3000000119,7772,WL,C,6.0
7,21.342999935150146,immed,38657.00006484985,Wed Mar 11 2026 13:19:41 GMT-0500 (Central Daylight Time),862058.599999994,A,doctorenter,O,enter,413,1,1532.2999999821186,860526.3000000119,7772,WL,C,6.0
7,21.90999984741211,immed,38090.00015258789,Wed Mar 11 2026 13:19:41 GMT-0500 (Central Daylight Time),862625.1999999881,A,c,O,c,547,1,566.1999999880791,862059.0,7772,WL,C,7.0
7,22.07699990272522,immed,37923.00009727478,Wed Mar 11 2026 13:19:41 GMT-0500 (Central Daylight Time),862791.900000006,A,ca,O,a,149,1,732.9000000059605,862059.0,7772,WL,C,7.0
7,22.210000038146973,immed,37789.99996185303,Wed Mar 11 2026 13:19:41 GMT-0500 (Central Daylight Time),862925.3000000119,A,cam,O,m,118,1,866.3000000119209,862059.0,7772,WL,C,7.0
7,22.425999879837036,immed,37574.000120162964,Wed Mar 11 2026 13:19:41 GMT-0500 (Central Daylight Time),863141.6999999881,A,camp,O,p,208,1,1082.699999988079,862059.0,7772,WL,C,7.0
7,22.792999982833862,immed,37207.00001716614,Wed Mar 11 2026 13:19:41 GMT-0500 (Central Daylight Time),863508.3000000119,A,campenter,O,enter,361,1,1449.300000011921,862059.0,7772,WL,C,7.0
7,23.192999839782715,immed,36807.000160217285,Wed Mar 11 2026 13:19:41 GMT-0500 (Central Daylight Time),863908.1999999881,A,f,O,f,393,1,399.59999999403954,863508.599999994,7772,WL,C,8.0
7,23.359999895095825,immed,36640.000104904175,Wed Mar 11 2026 13:19:41 GMT-0500 (Central Daylight Time),864075.0,A,fl,O,l,153,1,566.4000000059605,863508.599999994,7772,WL,C,8.0
7,23.526000022888184,immed,36473.99997711182,Wed Mar 11 2026 13:19:41 GMT-0500 (Central Daylight Time),864241.5,A,fla,O,a,146,1,732.9000000059605,863508.599999994,7772,WL,C,8.0
7,23.91100001335144,immed,36088.99998664856,Wed Mar 11 2026 13:19:41 GMT-0500 (Central Daylight Time),864626.0,A,flag,O,g,364,1,1117.4000000059605,863508.599999994,7772,WL,C,8.0
7,24.54199981689453,immed,35458.00018310547,Wed Mar 11 2026 13:19:41 GMT-0500 (Central Daylight Time),865257.8000000119,A,flagenter,O,enter,627,1,1749.2000000178814,863508.599999994,7772,WL,C,8.0
7,25.491999864578247,immed,34508.00013542175,Wed Mar 11 2026 13:19:41 GMT-0500 (Central Daylight Time),866207.5,A,l,O,l,932,1,949.5,865258.0,7772,WL,C,9.0
7,25.608999967575073,immed,34391.00003242493,Wed Mar 11 2026 13:19:41 GMT-0500 (Central Daylight Time),866324.0,A,le,O,e,110,1,1066.0,865258.0,7772,WL,C,9.0
7,25.758999824523926,immed,34241.000175476074,Wed Mar 11 2026 13:19:41 GMT-0500 (Central Daylight Time),866474.1999999881,A,let,O,t,137,1,1216.199999988079,865258.0,7772,WL,C,9.0
7,25.95899987220764,immed,34041.00012779236,Wed Mar 11 2026 13:19:41 GMT-0500 (Central Daylight Time),866673.900000006,A,lett,O,t,188,1,1415.9000000059605,865258.0,7772,WL,C,9.0
7,26.15999984741211,immed,33840.00015258789,Wed Mar 11 2026 13:19:41 GMT-0500 (Central Daylight Time),866875.099999994,A,lette,O,e,180,1,1617.0999999940395,865258.0,7772,WL,C,9.0
7,26.20899987220764,immed,33791.00012779236,Wed Mar 11 2026 13:19:41 GMT-0500 (Central Daylight Time),866924.0,A,letter,O,r,42,1,1666.0,865258.0,7772,WL,C,9.0
7,26.441999912261963,immed,33558.00008773804,Wed Mar 11 2026 13:19:41 GMT-0500 (Central Daylight Time),867157.1999999881,A,letterenter,O,enter,226,1,1899.199999988079,865258.0,7772,WL,C,9.0
7,26.79199981689453,immed,33208.00018310547,Wed Mar 11 2026 13:19:41 GMT-0500 (Central Daylight Time),867506.900000006,A,c,O,c,345,1,349.40000000596046,867157.5,7772,WL,C,10.0
7,26.97499990463257,immed,33025.00009536743,Wed Mar 11 2026 13:19:41 GMT-0500 (Central Daylight Time),867690.5,A,ca,O,a,163,1,533.0,867157.5,7772,WL,C,10.0
7,27.14299988746643,immed,32857.00011253357,Wed Mar 11 2026 13:19:41 GMT-0500 (Central Daylight Time),867857.900000006,A,cat,O,t,163,1,700.4000000059605,867157.5,7772,WL,C,10.0
7,27.340999841690063,immed,32659.000158309937,Wed Mar 11 2026 13:19:41 GMT-0500 (Central Daylight Time),868056.8000000119,A,catt,O,t,180,1,899.3000000119209,867157.5,7772,WL,C,10.0
7,27.490999937057495,immed,32509.000062942505,Wed Mar 11 2026 13:19:41 GMT-0500 (Central Daylight Time),868206.6999999881,A,cattl,O,l,133,1,1049.199999988079,867157.5,7772,WL,C,10.0
7,27.60800004005432,immed,32391.99995994568,Wed Mar 11 2026 13:19:41 GMT-0500 (Central Daylight Time),868323.3000000119,A,cattle,O,e,111,1,1165.800000011921,867157.5,7772,WL,C,10.0
7,28.007999897003174,immed,31992.000102996826,Wed Mar 11 2026 13:19:41 GMT-0500 (Central Daylight Time),868723.099999994,A,cattleenter,O,enter,395,1,1565.5999999940395,867157.5,7772,WL,C,10.0
7,28.274999856948853,immed,31725.000143051147,Wed Mar 11 2026 13:19:41 GMT-0500 (Central Daylight Time),868990.0,A,s,O,s,258,1,266.69999998807907,868723.3000000119,7772,WL,C,11.0
7,28.507999897003174,immed,31492.000102996826,Wed Mar 11 2026 13:19:41 GMT-0500 (Central Daylight Time),869223.1999999881,A,su,O,u,216,1,499.89999997615814,868723.3000000119,7772,WL,C,11.0
7,28.823999881744385,immed,31176.000118255615,Wed Mar 11 2026 13:19:41 GMT-0500 (Central Daylight Time),869539.6999999881,A,sug,O,g,302,1,816.3999999761581,868723.3000000119,7772,WL,C,11.0
7,29.007999897003174,immed,30992.000102996826,Wed Mar 11 2026 13:19:41 GMT-0500 (Central Daylight Time),869723.0,A,suga,O,a,178,1,999.6999999880791,868723.3000000119,7772,WL,C,11.0
7,29.10800004005432,immed,30891.99995994568,Wed Mar 11 2026 13:19:41 GMT-0500 (Central Daylight Time),869823.0,A,sugar,O,r,90,1,1099.699999988079,868723.3000000119,7772,WL,C,11.0
7,29.490999937057495,immed,30509.000062942505,Wed Mar 11 2026 13:19:41 GMT-0500 (Central Daylight Time),870206.400000006,A,sugarenter,O,enter,367,1,1483.0999999940395,868723.3000000119,7772,WL,C,11.0
7,31.83999991416931,immed,28160.00008583069,Wed Mar 11 2026 13:19:41 GMT-0500 (Central Daylight Time),872555.0,A,l,O,l,2343,1,2348.300000011921,870206.6999999881,7772,WL,C,12.0
7,31.972999811172485,immed,28027.000188827515,Wed Mar 11 2026 13:19:41 GMT-0500 (Central Daylight Time),872688.8000000119,A,le,O,e,114,1,2482.100000023842,870206.6999999881,7772,WL,C,12.0
7,32.08999991416931,immed,27910.00008583069,Wed Mar 11 2026 13:19:41 GMT-0500 (Central Daylight Time),872805.3000000119,A,let,O,t,109,1,2598.600000023842,870206.6999999881,7772,WL,C,12.0
7,32.28999996185303,immed,27710.000038146973,Wed Mar 11 2026 13:19:41 GMT-0500 (Central Daylight Time),873005.1999999881,A,lett,O,t,184,1,2798.5,870206.6999999881,7772,WL,C,12.0
7,32.52300000190735,immed,27476.99999809265,Wed Mar 11 2026 13:19:41 GMT-0500 (Central Daylight Time),873238.1999999881,A,lette,O,e,224,1,3031.5,870206.6999999881,7772,WL,C,12.0
7,32.555999994277954,immed,27444.000005722046,Wed Mar 11 2026 13:19:41 GMT-0500 (Central Daylight Time),873271.5,A,letter,O,r,15,1,3064.800000011921,870206.6999999881,7772,WL,C,12.0
7,32.906999826431274,immed,27093.000173568726,Wed Mar 11 2026 13:19:41 GMT-0500 (Central Daylight Time),873621.900000006,A,letterenter,O,enter,334,1,3415.2000000178814,870206.6999999881,7772,WL,C,12.0
7,35.638999938964844,immed,24361.000061035156,Wed Mar 11 2026 13:19:41 GMT-0500 (Central Daylight Time),876354.400000006,A,b,O,b,2728,1,2732.2000000178814,873622.1999999881,7772,WL,C,13.0
7,35.73899984359741,immed,24261.000156402588,Wed Mar 11 2026 13:19:41 GMT-0500 (Central Daylight Time),876454.3000000119,A,bo,O,o,83,1,2832.100000023842,873622.1999999881,7772,WL,C,13.0
7,35.93899989128113,immed,24061.000108718872,Wed Mar 11 2026 13:19:41 GMT-0500 (Central Daylight Time),876654.099999994,A,bod,O,d,183,1,3031.9000000059605,873622.1999999881,7772,WL,C,13.0
7,36.05499982833862,immed,23945.000171661377,Wed Mar 11 2026 13:19:41 GMT-0500 (Central Daylight Time),876770.8000000119,A,body,O,y,111,1,3148.600000023842,873622.1999999881,7772,WL,C,13.0
7,37.25499987602234,immed,22745.00012397766,Wed Mar 11 2026 13:19:41 GMT-0500 (Central Daylight Time),877970.3000000119,A,bodyenter,O,enter,1195,1,4348.100000023842,873622.1999999881,7772,WL,C,13.0
7,37.82200002670288,immed,22177.99997329712,Wed Mar 11 2026 13:19:41 GMT-0500 (Central Daylight Time),878536.900000006,A,n,O,n,548,1,566.3000000119209,877970.599999994,7772,WL,C,14.0
7,37.954999923706055,immed,22045.000076293945,Wed Mar 11 2026 13:19:41 GMT-0500 (Central Daylight Time),878670.3000000119,A,na,O,a,117,1,699.7000000178814,877970.599999994,7772,WL,C,14.0
7,38.07099986076355,immed,21929.00013923645,Wed Mar 11 2026 13:19:41 GMT-0500 (Central Daylight Time),878786.599999994,A,nai,O,i,96,1,816.0,877970.599999994,7772,WL,C,14.0
7,38.25499987602234,immed,21745.00012397766,Wed Mar 11 2026 13:19:41 GMT-0500 (Central Daylight Time),878970.099999994,A,nail,O,l,171,1,999.5,877970.599999994,7772,WL,C,14.0
7,38.537999868392944,immed,21462.000131607056,Wed Mar 11 2026 13:19:41 GMT-0500 (Central Daylight Time),879253.400000006,A,nailenter,O,enter,277,1,1282.800000011921,877970.599999994,7772,WL,C,14.0
7,38.82099986076355,immed,21179.00013923645,Wed Mar 11 2026 13:19:41 GMT-0500 (Central Daylight Time),879536.6999999881,A,s,O,s,272,1,283.0,879253.6999999881,7772,WL,C,15.0
7,38.97099995613098,immed,21029.00004386902,Wed Mar 11 2026 13:19:41 GMT-0500 (Central Daylight Time),879686.400000006,A,sh,O,h,133,1,432.7000000178814,879253.6999999881,7772,WL,C,15.0
7,39.08799982070923,immed,20912.00017929077,Wed Mar 11 2026 13:19:41 GMT-0500 (Central Daylight Time),879803.099999994,A,sho,O,o,103,1,549.4000000059605,879253.6999999881,7772,WL,C,15.0
7,39.22099995613098,immed,20779.00004386902,Wed Mar 11 2026 13:19:41 GMT-0500 (Central Daylight Time),879936.400000006,A,shor,O,r,122,1,682.7000000178814,879253.6999999881,7772,WL,C,15.0
7,39.355000019073486,immed,20644.999980926514,Wed Mar 11 2026 13:19:41 GMT-0500 (Central Daylight Time),880069.900000006,A,shore,O,e,117,1,816.2000000178814,879253.6999999881,7772,WL,C,15.0
7,39.6710000038147,immed,20328.999996185303,Wed Mar 11 2026 13:19:41 GMT-0500 (Central Daylight Time),880386.5,A,shoreenter,O,enter,296,1,1132.800000011921,879253.6999999881,7772,WL,C,15.0
