block_c,block_dur,condition,countdown,datetime,endtime,list,multichar_response,project,response,response_time,session_number,start_end,starttime,subject_id,task,task_vers,trial
,,,,Tue Jun 03 2025 09:08:01 GMT-0500 (Central Daylight Time),,,,O,space,715,1,,,7160,WL,C,
prac,,0,,Tue Jun 03 2025 09:08:01 GMT-0500 (Central Daylight Time),,NA,b,O,b,3499,1,,,7160,WL,C,1.0
prac,,0,,Tue Jun 03 2025 09:08:01 GMT-0500 (Central Daylight Time),,NA,bo,O,o,536,1,,,7160,WL,C,1.0
prac,,0,,Tue Jun 03 2025 09:08:01 GMT-0500 (Central Daylight Time),,NA,boo,O,o,187,1,,,7160,WL,C,1.0
prac,,0,,Tue Jun 03 2025 09:08:01 GMT-0500 (Central Daylight Time),,NA,boos,O,s,254,1,,,7160,WL,C,1.0
prac,,0,,Tue Jun 03 2025 09:08:01 GMT-0500 (Central Daylight Time),,NA,boose,O,e,226,1,,,7160,WL,C,1.0
prac,,0,,Tue Jun 03 2025 09:08:01 GMT-0500 (Central Daylight Time),,NA,boos,O,backspace,816,1,,,7160,WL,C,1.0
prac,,0,,Tue Jun 03 2025 09:08:01 GMT-0500 (Central Daylight Time),,NA,boost,O,t,151,1,,,7160,WL,C,1.0
prac,,0,,Tue Jun 03 2025 09:08:01 GMT-0500 (Central Daylight Time),,NA,boostenter,O,enter,1094,1,,,7160,WL,C,1.0
1,2.799999952316284,learn,57200.000047683716,Tue Jun 03 2025 09:08:01 GMT-0500 (Central Daylight Time),509874.6000000015,A,t,O,t,2779,1,2799.60000000149,507075.0,7160,WL,C,1.0
1,3.2330000400543213,learn,56766.99995994568,Tue Jun 03 2025 09:08:01 GMT-0500 (Central Daylight Time),510307.0,A,to,O,o,417,1,3232.0,507075.0,7160,WL,C,1.0
1,3.6500000953674316,learn,56349.99990463257,Tue Jun 03 2025 09:08:01 GMT-0500 (Central Daylight Time),510723.90000000224,A,tow,O,w,411,1,3648.900000002235,507075.0,7160,WL,C,1.0
1,3.881999969482422,learn,56118.00003051758,Tue Jun 03 2025 09:08:01 GMT-0500 (Central Daylight Time),510956.0,A,towe,O,e,216,1,3881.0,507075.0,7160,WL,C,1.0
1,4.148999929428101,learn,55851.0000705719,Tue Jun 03 2025 09:08:01 GMT-0500 (Central Daylight Time),511223.40000000224,A,tower,O,r,255,1,4148.400000002235,507075.0,7160,WL,C,1.0
1,5.049000024795532,learn,54950.99997520447,Tue Jun 03 2025 09:08:01 GMT-0500 (Central Daylight Time),512123.0,A,towerw,O,w,878,1,5048.0,507075.0,7160,WL,C,1.0
1,5.865999937057495,learn,54134.000062942505,Tue Jun 03 2025 09:08:01 GMT-0500 (Central Daylight Time),512940.19999999925,A,tower,O,backspace,800,1,5865.199999999255,507075.0,7160,WL,C,1.0
1,9.79800009727478,learn,50201.99990272522,Tue Jun 03 2025 09:08:01 GMT-0500 (Central Daylight Time),516872.30000000075,A,towerenter,O,enter,3921,1,9797.300000000745,507075.0,7160,WL,C,1.0
1,11.230000019073486,learn,48769.999980926514,Tue Jun 03 2025 09:08:01 GMT-0500 (Central Daylight Time),518303.80000000075,A,w,O,w,1411,1,1431.1000000014901,516872.69999999925,7160,WL,C,2.0
1,11.864000082015991,learn,48135.99991798401,Tue Jun 03 2025 09:08:01 GMT-0500 (Central Daylight Time),518938.1000000015,A,wj,O,j,612,1,2065.400000002235,516872.69999999925,7160,WL,C,2.0
1,12.263999938964844,learn,47736.000061035156,Tue Jun 03 2025 09:08:01 GMT-0500 (Central Daylight Time),519338.30000000075,A,wje,O,e,386,1,2465.60000000149,516872.69999999925,7160,WL,C,2.0
1,12.680000066757202,learn,47319.9999332428,Tue Jun 03 2025 09:08:01 GMT-0500 (Central Daylight Time),519754.19999999925,A,wjea,O,a,401,1,2881.5,516872.69999999925,7160,WL,C,2.0
1,13.265000104904175,learn,46734.999895095825,Tue Jun 03 2025 09:08:01 GMT-0500 (Central Daylight Time),520339.40000000224,A,wjeat,O,t,570,1,3466.7000000029802,516872.69999999925,7160,WL,C,2.0
1,14.545000076293945,learn,45454.999923706055,Tue Jun 03 2025 09:08:01 GMT-0500 (Central Daylight Time),521619.40000000224,A,wjeatenter,O,enter,1266,1,4746.70000000298,516872.69999999925,7160,WL,C,2.0
1,16.52999997138977,learn,43470.00002861023,Tue Jun 03 2025 09:08:01 GMT-0500 (Central Daylight Time),523603.80000000075,A,q,O,q,1977,1,1984.1000000014901,521619.69999999925,7160,WL,C,3.0
1,16.89400005340576,learn,43105.99994659424,Tue Jun 03 2025 09:08:01 GMT-0500 (Central Daylight Time),523968.5,A,qi,O,i,344,1,2348.800000000745,521619.69999999925,7160,WL,C,3.0
1,17.211999893188477,learn,42788.00010681152,Tue Jun 03 2025 09:08:01 GMT-0500 (Central Daylight Time),524286.1000000015,A,qie,O,e,298,1,2666.400000002235,521619.69999999925,7160,WL,C,3.0
1,18.496999979019165,learn,41503.000020980835,Tue Jun 03 2025 09:08:01 GMT-0500 (Central Daylight Time),525570.8000000007,A,qi,O,backspace,1269,1,3951.10000000149,521619.69999999925,7160,WL,C,3.0
1,18.710999965667725,learn,41289.000034332275,Tue Jun 03 2025 09:08:01 GMT-0500 (Central Daylight Time),525785.6000000015,A,q,O,backspace,201,1,4165.900000002235,521619.69999999925,7160,WL,C,3.0
1,21.627000093460083,learn,38372.99990653992,Tue Jun 03 2025 09:08:01 GMT-0500 (Central Daylight Time),528701.4000000022,A,qu,O,u,2899,1,7081.70000000298,521619.69999999925,7160,WL,C,3.0
1,22.01099991798401,learn,37989.00008201599,Tue Jun 03 2025 09:08:01 GMT-0500 (Central Daylight Time),529085.4000000022,A,que,O,e,376,1,7465.70000000298,521619.69999999925,7160,WL,C,3.0
1,22.227999925613403,learn,37772.0000743866,Tue Jun 03 2025 09:08:01 GMT-0500 (Central Daylight Time),529302.1999999993,A,quee,O,e,199,1,7682.5,521619.69999999925,7160,WL,C,3.0
1,22.49399995803833,learn,37506.00004196167,Tue Jun 03 2025 09:08:01 GMT-0500 (Central Daylight Time),529568.3000000007,A,queen,O,n,255,1,7948.60000000149,521619.69999999925,7160,WL,C,3.0
1,23.14299988746643,learn,36857.00011253357,Tue Jun 03 2025 09:08:01 GMT-0500 (Central Daylight Time),530217.1000000015,A,queenenter,O,enter,626,1,8597.400000002235,521619.69999999925,7160,WL,C,3.0
1,24.80900001525879,learn,35190.99998474121,Tue Jun 03 2025 09:08:01 GMT-0500 (Central Daylight Time),531883.6000000015,A,d,O,d,1651,1,1666.1000000014901,530217.5,7160,WL,C,4.0
1,25.096999883651733,learn,34903.00011634827,Tue Jun 03 2025 09:08:01 GMT-0500 (Central Daylight Time),532171.4000000022,A,do,O,o,280,1,1953.9000000022352,530217.5,7160,WL,C,4.0
1,25.39299988746643,learn,34607.00011253357,Tue Jun 03 2025 09:08:01 GMT-0500 (Central Daylight Time),532467.5,A,doc,O,c,284,1,2250.0,530217.5,7160,WL,C,4.0
1,25.793999910354614,learn,34206.000089645386,Tue Jun 03 2025 09:08:01 GMT-0500 (Central Daylight Time),532867.8000000007,A,doct,O,t,393,1,2650.300000000745,530217.5,7160,WL,C,4.0
1,26.042999982833862,learn,33957.00001716614,Tue Jun 03 2025 09:08:01 GMT-0500 (Central Daylight Time),533116.6999999993,A,docto,O,o,235,1,2899.199999999255,530217.5,7160,WL,C,4.0
1,26.30900001525879,learn,33690.99998474121,Tue Jun 03 2025 09:08:01 GMT-0500 (Central Daylight Time),533383.0,A,doctor,O,r,257,1,3165.5,530217.5,7160,WL,C,4.0
1,28.02500009536743,learn,31974.99990463257,Tue Jun 03 2025 09:08:01 GMT-0500 (Central Daylight Time),535099.6999999993,A,doctorenter,O,enter,1702,1,4882.199999999255,530217.5,7160,WL,C,4.0
1,29.924000024795532,learn,30075.999975204468,Tue Jun 03 2025 09:08:01 GMT-0500 (Central Daylight Time),536997.6999999993,A,b,O,b,1881,1,1897.7999999970198,535099.9000000022,7160,WL,C,5.0
1,30.174000024795532,learn,29825.999975204468,Tue Jun 03 2025 09:08:01 GMT-0500 (Central Daylight Time),537248.0,A,bo,O,o,236,1,2148.099999997765,535099.9000000022,7160,WL,C,5.0
1,30.47499990463257,learn,29525.00009536743,Tue Jun 03 2025 09:08:01 GMT-0500 (Central Daylight Time),537549.0,A,boy,O,y,285,1,2449.099999997765,535099.9000000022,7160,WL,C,5.0
1,31.573999881744385,learn,28426.000118255615,Tue Jun 03 2025 09:08:01 GMT-0500 (Central Daylight Time),538648.3000000007,A,boyenter,O,enter,1080,1,3548.39999999851,535099.9000000022,7160,WL,C,5.0
1,34.621999979019165,learn,25378.000020980835,Tue Jun 03 2025 09:08:01 GMT-0500 (Central Daylight Time),541696.6999999993,A,c,O,c,3029,1,3048.0,538648.6999999993,7160,WL,C,6.0
1,34.93899989128113,learn,25061.000108718872,Tue Jun 03 2025 09:08:01 GMT-0500 (Central Daylight Time),542013.8000000007,A,ca,O,a,299,1,3365.10000000149,538648.6999999993,7160,WL,C,6.0
1,35.323999881744385,learn,24676.000118255615,Tue Jun 03 2025 09:08:01 GMT-0500 (Central Daylight Time),542398.6000000015,A,cat,O,t,367,1,3749.900000002235,538648.6999999993,7160,WL,C,6.0
1,35.555999994277954,learn,24444.000005722046,Tue Jun 03 2025 09:08:01 GMT-0500 (Central Daylight Time),542630.1000000015,A,catt,O,t,214,1,3981.400000002235,538648.6999999993,7160,WL,C,6.0
1,35.83899998664856,learn,24161.00001335144,Tue Jun 03 2025 09:08:01 GMT-0500 (Central Daylight Time),542913.6000000015,A,cattl,O,l,271,1,4264.900000002235,538648.6999999993,7160,WL,C,6.0
1,36.40499997138977,learn,23595.00002861023,Tue Jun 03 2025 09:08:01 GMT-0500 (Central Daylight Time),543480.0,A,cattle,O,e,546,1,4831.300000000745,538648.6999999993,7160,WL,C,6.0
1,36.83899998664856,learn,23161.00001335144,Tue Jun 03 2025 09:08:01 GMT-0500 (Central Daylight Time),543913.4000000022,A,cattleenter,O,enter,412,1,5264.70000000298,538648.6999999993,7160,WL,C,6.0
1,49.09999990463257,learn,10900.000095367432,Tue Jun 03 2025 09:08:01 GMT-0500 (Central Daylight Time),556174.6999999993,A,enter,O,enter,12252,1,12260.89999999851,543913.8000000007,7160,WL,C,7.0
1,50.01799988746643,learn,9982.00011253357,Tue Jun 03 2025 09:08:01 GMT-0500 (Central Daylight Time),557092.1999999993,A,enter,O,enter,903,1,917.1999999992549,556175.0,7160,WL,C,8.0
1,50.38499999046326,learn,9615.000009536743,Tue Jun 03 2025 09:08:01 GMT-0500 (Central Daylight Time),557459.1000000015,A,enter,O,enter,352,1,366.4000000022352,557092.6999999993,7160,WL,C,9.0
1,50.68400001525879,learn,9315.999984741211,Tue Jun 03 2025 09:08:01 GMT-0500 (Central Daylight Time),557758.0,A,enter,O,enter,282,1,298.3999999985099,557459.6000000015,7160,WL,C,10.0
1,51.03399991989136,learn,8966.000080108643,Tue Jun 03 2025 09:08:01 GMT-0500 (Central Daylight Time),558108.6000000015,A,enter,O,enter,343,1,350.19999999925494,557758.4000000022,7160,WL,C,11.0
1,51.36899995803833,learn,8631.00004196167,Tue Jun 03 2025 09:08:01 GMT-0500 (Central Daylight Time),558443.0,A,enter,O,enter,329,1,334.0999999977648,558108.9000000022,7160,WL,C,12.0
1,51.75099992752075,learn,8249.000072479248,Tue Jun 03 2025 09:08:01 GMT-0500 (Central Daylight Time),558825.3000000007,A,enter,O,enter,362,1,382.0,558443.3000000007,7160,WL,C,13.0
1,52.16799998283386,learn,7832.000017166138,Tue Jun 03 2025 09:08:01 GMT-0500 (Central Daylight Time),559242.8000000007,A,enter,O,enter,412,1,417.19999999925494,558825.6000000015,7160,WL,C,14.0
1,52.46799993515015,learn,7532.0000648498535,Tue Jun 03 2025 09:08:01 GMT-0500 (Central Daylight Time),559542.1999999993,A,enter,O,enter,282,1,299.0,559243.1999999993,7160,WL,C,15.0
2,0.818000078201294,learn,59181.999921798706,Tue Jun 03 2025 09:08:01 GMT-0500 (Central Daylight Time),627788.1999999993,A,f,O,f,814,1,818.0999999977648,626970.1000000015,7160,WL,C,1.0
2,1.4830000400543213,learn,58516.99995994568,Tue Jun 03 2025 09:08:01 GMT-0500 (Central Daylight Time),628452.6000000015,A,fp,O,p,649,1,1482.5,626970.1000000015,7160,WL,C,1.0
2,2.4820001125335693,learn,57517.99988746643,Tue Jun 03 2025 09:08:01 GMT-0500 (Central Daylight Time),629452.1000000015,A,f,O,backspace,993,1,2482.0,626970.1000000015,7160,WL,C,1.0
2,3.25,learn,56750.0,Tue Jun 03 2025 09:08:01 GMT-0500 (Central Daylight Time),630219.4000000022,A,fl,O,l,741,1,3249.300000000745,626970.1000000015,7160,WL,C,1.0
2,3.8340001106262207,learn,56165.99988937378,Tue Jun 03 2025 09:08:01 GMT-0500 (Central Daylight Time),630803.5,A,flo,O,o,577,1,3833.39999999851,626970.1000000015,7160,WL,C,1.0
2,4.265000104904175,learn,55734.999895095825,Tue Jun 03 2025 09:08:01 GMT-0500 (Central Daylight Time),631234.9000000022,A,flow,O,w,416,1,4264.800000000745,626970.1000000015,7160,WL,C,1.0
2,4.54800009727478,learn,55451.99990272522,Tue Jun 03 2025 09:08:01 GMT-0500 (Central Daylight Time),631518.3000000007,A,flowe,O,e,264,1,4548.199999999255,626970.1000000015,7160,WL,C,1.0
2,4.815000057220459,learn,55184.99994277954,Tue Jun 03 2025 09:08:01 GMT-0500 (Central Daylight Time),631785.3000000007,A,flower,O,r,244,1,4815.199999999255,626970.1000000015,7160,WL,C,1.0
2,5.398999929428101,learn,54601.0000705719,Tue Jun 03 2025 09:08:01 GMT-0500 (Central Daylight Time),632368.4000000022,A,flowerc,O,c,571,1,5398.300000000745,626970.1000000015,7160,WL,C,1.0
2,5.515000104904175,learn,54484.999895095825,Tue Jun 03 2025 09:08:01 GMT-0500 (Central Daylight Time),632484.6999999993,A,flowerco,O,o,110,1,5514.599999997765,626970.1000000015,7160,WL,C,1.0
2,5.749000072479248,learn,54250.99992752075,Tue Jun 03 2025 09:08:01 GMT-0500 (Central Daylight Time),632718.3000000007,A,flowercor,O,r,225,1,5748.199999999255,626970.1000000015,7160,WL,C,1.0
2,6.865000009536743,learn,53134.99999046326,Tue Jun 03 2025 09:08:01 GMT-0500 (Central Daylight Time),633835.0,A,flowerco,O,backspace,1102,1,6864.89999999851,626970.1000000015,7160,WL,C,1.0
2,7.082000017166138,learn,52917.99998283386,Tue Jun 03 2025 09:08:01 GMT-0500 (Central Daylight Time),634051.6000000015,A,flowerc,O,backspace,209,1,7081.5,626970.1000000015,7160,WL,C,1.0
2,7.38100004196167,learn,52618.99995803833,Tue Jun 03 2025 09:08:01 GMT-0500 (Central Daylight Time),634350.6999999993,A,flower,O,backspace,291,1,7380.599999997765,626970.1000000015,7160,WL,C,1.0
2,8.115000009536743,learn,51884.99999046326,Tue Jun 03 2025 09:08:01 GMT-0500 (Central Daylight Time),635084.4000000022,A,flowerenter,O,enter,718,1,8114.300000000745,626970.1000000015,7160,WL,C,1.0
2,9.597000122070312,learn,50402.99987792969,Tue Jun 03 2025 09:08:01 GMT-0500 (Central Daylight Time),636566.8000000007,A,l,O,l,1465,1,1482.0,635084.8000000007,7160,WL,C,2.0
2,9.94700002670288,learn,50052.99997329712,Tue Jun 03 2025 09:08:01 GMT-0500 (Central Daylight Time),636916.8000000007,A,le,O,e,342,1,1832.0,635084.8000000007,7160,WL,C,2.0
2,10.263000011444092,learn,49736.99998855591,Tue Jun 03 2025 09:08:01 GMT-0500 (Central Daylight Time),637232.8000000007,A,let,O,t,296,1,2148.0,635084.8000000007,7160,WL,C,2.0
2,10.480000019073486,learn,49519.999980926514,Tue Jun 03 2025 09:08:01 GMT-0500 (Central Daylight Time),637449.6999999993,A,lett,O,t,205,1,2364.89999999851,635084.8000000007,7160,WL,C,2.0
2,10.746999979019165,learn,49253.000020980835,Tue Jun 03 2025 09:08:01 GMT-0500 (Central Daylight Time),637716.9000000022,A,lette,O,e,251,1,2632.10000000149,635084.8000000007,7160,WL,C,2.0
2,11.013000011444092,learn,48986.99998855591,Tue Jun 03 2025 09:08:01 GMT-0500 (Central Daylight Time),637982.8000000007,A,letter,O,r,256,1,2898.0,635084.8000000007,7160,WL,C,2.0
2,11.946000099182129,learn,48053.99990081787,Tue Jun 03 2025 09:08:01 GMT-0500 (Central Daylight Time),638916.3000000007,A,letterenter,O,enter,918,1,3831.5,635084.8000000007,7160,WL,C,2.0
2,12.763000011444092,learn,47236.99998855591,Tue Jun 03 2025 09:08:01 GMT-0500 (Central Daylight Time),639732.6000000015,A,c,O,c,801,1,816.1000000014901,638916.5,7160,WL,C,3.0
2,13.046000003814697,learn,46953.9999961853,Tue Jun 03 2025 09:08:01 GMT-0500 (Central Daylight Time),640015.8000000007,A,co,O,o,273,1,1099.300000000745,638916.5,7160,WL,C,3.0
2,13.463000059127808,learn,46536.99994087219,Tue Jun 03 2025 09:08:01 GMT-0500 (Central Daylight Time),640432.3000000007,A,cor,O,r,405,1,1515.800000000745,638916.5,7160,WL,C,3.0
2,13.845999956130981,learn,46154.00004386902,Tue Jun 03 2025 09:08:01 GMT-0500 (Central Daylight Time),640815.6000000015,A,corn,O,n,364,1,1899.1000000014901,638916.5,7160,WL,C,3.0
2,15.029000043869019,learn,44970.99995613098,Tue Jun 03 2025 09:08:01 GMT-0500 (Central Daylight Time),641998.3000000007,A,cornenter,O,enter,1172,1,3081.800000000745,638916.5,7160,WL,C,3.0
2,16.543999910354614,learn,43456.000089645386,Tue Jun 03 2025 09:08:01 GMT-0500 (Central Daylight Time),643514.1000000015,A,t,O,t,1503,1,1515.5,641998.6000000015,7160,WL,C,4.0
2,16.77900004386902,learn,43220.99995613098,Tue Jun 03 2025 09:08:01 GMT-0500 (Central Daylight Time),643748.9000000022,A,to,O,o,228,1,1750.300000000745,641998.6000000015,7160,WL,C,4.0
2,17.061000108718872,learn,42938.99989128113,Tue Jun 03 2025 09:08:01 GMT-0500 (Central Daylight Time),644031.1000000015,A,tow,O,w,269,1,2032.5,641998.6000000015,7160,WL,C,4.0
2,17.312000036239624,learn,42687.999963760376,Tue Jun 03 2025 09:08:01 GMT-0500 (Central Daylight Time),644281.6999999993,A,towe,O,e,238,1,2283.099999997765,641998.6000000015,7160,WL,C,4.0
2,17.59500002861023,learn,42404.99997138977,Tue Jun 03 2025 09:08:01 GMT-0500 (Central Daylight Time),644564.9000000022,A,tower,O,r,267,1,2566.300000000745,641998.6000000015,7160,WL,C,4.0
2,18.07800006866455,learn,41921.99993133545,Tue Jun 03 2025 09:08:01 GMT-0500 (Central Daylight Time),645047.6000000015,A,towerenter,O,enter,472,1,3049.0,641998.6000000015,7160,WL,C,4.0
2,18.546000003814697,learn,41453.9999961853,Tue Jun 03 2025 09:08:01 GMT-0500 (Central Daylight Time),645516.0,A,w,O,w,447,1,468.0,645048.0,7160,WL,C,5.0
2,18.74399995803833,learn,41256.00004196167,Tue Jun 03 2025 09:08:01 GMT-0500 (Central Daylight Time),645714.0,A,wh,O,h,193,1,666.0,645048.0,7160,WL,C,5.0
2,18.960999965667725,learn,41039.000034332275,Tue Jun 03 2025 09:08:01 GMT-0500 (Central Daylight Time),645931.1999999993,A,whe,O,e,210,1,883.1999999992549,645048.0,7160,WL,C,5.0
2,19.227999925613403,learn,40772.0000743866,Tue Jun 03 2025 09:08:01 GMT-0500 (Central Daylight Time),646197.3000000007,A,whea,O,a,249,1,1149.300000000745,645048.0,7160,WL,C,5.0
2,19.460999965667725,learn,40539.000034332275,Tue Jun 03 2025 09:08:01 GMT-0500 (Central Daylight Time),646430.6000000015,A,wheat,O,t,216,1,1382.6000000014901,645048.0,7160,WL,C,5.0
2,19.80999994277954,learn,40190.00005722046,Tue Jun 03 2025 09:08:01 GMT-0500 (Central Daylight Time),646779.8000000007,A,wheatenter,O,enter,342,1,1731.800000000745,645048.0,7160,WL,C,5.0
2,20.64300012588501,learn,39356.99987411499,Tue Jun 03 2025 09:08:01 GMT-0500 (Central Daylight Time),647612.6999999993,A,l,O,l,812,1,832.6999999992549,646780.0,7160,WL,C,6.0
2,20.89300012588501,learn,39106.99987411499,Tue Jun 03 2025 09:08:01 GMT-0500 (Central Daylight Time),647863.1000000015,A,le,O,e,244,1,1083.1000000014901,646780.0,7160,WL,C,6.0
2,21.14400005340576,learn,38855.99994659424,Tue Jun 03 2025 09:08:01 GMT-0500 (Central Daylight Time),648113.6999999993,A,let,O,t,228,1,1333.699999999255,646780.0,7160,WL,C,6.0
2,21.342999935150146,learn,38657.00006484985,Tue Jun 03 2025 09:08:01 GMT-0500 (Central Daylight Time),648312.6999999993,A,lett,O,t,188,1,1532.699999999255,646780.0,7160,WL,C,6.0
2,21.55999994277954,learn,38440.00005722046,Tue Jun 03 2025 09:08:01 GMT-0500 (Central Daylight Time),648529.6000000015,A,lette,O,e,204,1,1749.6000000014901,646780.0,7160,WL,C,6.0
2,21.72699999809265,learn,38273.00000190735,Tue Jun 03 2025 09:08:01 GMT-0500 (Central Daylight Time),648696.3000000007,A,letter,O,r,155,1,1916.300000000745,646780.0,7160,WL,C,6.0
2,22.22499990463257,learn,37775.00009536743,Tue Jun 03 2025 09:08:01 GMT-0500 (Central Daylight Time),649194.8000000007,A,letterenter,O,enter,485,1,2414.800000000745,646780.0,7160,WL,C,6.0
2,22.91000008583069,learn,37089.99991416931,Tue Jun 03 2025 09:08:01 GMT-0500 (Central Daylight Time),649879.5,A,f,O,f,667,1,684.3999999985099,649195.1000000015,7160,WL,C,7.0
2,23.30900001525879,learn,36690.99998474121,Tue Jun 03 2025 09:08:01 GMT-0500 (Central Daylight Time),650278.6999999993,A,fl,O,l,391,1,1083.5999999977648,649195.1000000015,7160,WL,C,7.0
2,23.55999994277954,learn,36440.00005722046,Tue Jun 03 2025 09:08:01 GMT-0500 (Central Daylight Time),650529.3000000007,A,fla,O,a,237,1,1334.199999999255,649195.1000000015,7160,WL,C,7.0
2,24.157000064849854,learn,35842.99993515015,Tue Jun 03 2025 09:08:01 GMT-0500 (Central Daylight Time),651126.6000000015,A,flag,O,g,579,1,1931.5,649195.1000000015,7160,WL,C,7.0
2,24.825999975204468,learn,35174.00002479553,Tue Jun 03 2025 09:08:01 GMT-0500 (Central Daylight Time),651795.6999999993,A,flagenter,O,enter,665,1,2600.599999997765,649195.1000000015,7160,WL,C,7.0
2,25.79200005531311,learn,34207.99994468689,Tue Jun 03 2025 09:08:01 GMT-0500 (Central Daylight Time),652761.6999999993,A,b,O,b,953,1,965.7999999970198,651795.9000000022,7160,WL,C,8.0
2,26.043999910354614,learn,33956.000089645386,Tue Jun 03 2025 09:08:01 GMT-0500 (Central Daylight Time),653013.4000000022,A,bo,O,o,245,1,1217.5,651795.9000000022,7160,WL,C,8.0
2,26.308000087738037,learn,33691.99991226196,Tue Jun 03 2025 09:08:01 GMT-0500 (Central Daylight Time),653277.8000000007,A,boy,O,y,242,1,1481.8999999985099,651795.9000000022,7160,WL,C,8.0
2,26.674999952316284,learn,33325.000047683716,Tue Jun 03 2025 09:08:01 GMT-0500 (Central Daylight Time),653645.1000000015,A,boyenter,O,enter,349,1,1849.199999999255,651795.9000000022,7160,WL,C,8.0
2,27.841000080108643,learn,32158.999919891357,Tue Jun 03 2025 09:08:01 GMT-0500 (Central Daylight Time),654811.0,A,q,O,q,1154,1,1165.5999999977648,653645.4000000022,7160,WL,C,9.0
2,28.19099998474121,learn,31809.00001525879,Tue Jun 03 2025 09:08:01 GMT-0500 (Central Daylight Time),655161.0,A,qu,O,u,338,1,1515.5999999977648,653645.4000000022,7160,WL,C,9.0
2,28.641000032424927,learn,31358.999967575073,Tue Jun 03 2025 09:08:01 GMT-0500 (Central Daylight Time),655611.1000000015,A,que,O,e,435,1,1965.699999999255,653645.4000000022,7160,WL,C,9.0
2,28.85800004005432,learn,31141.99995994568,Tue Jun 03 2025 09:08:01 GMT-0500 (Central Daylight Time),655828.1000000015,A,quee,O,e,210,1,2182.699999999255,653645.4000000022,7160,WL,C,9.0
2,29.324000120162964,learn,30675.999879837036,Tue Jun 03 2025 09:08:01 GMT-0500 (Central Daylight Time),656294.1000000015,A,queen,O,n,442,1,2648.699999999255,653645.4000000022,7160,WL,C,9.0
2,29.85700011253357,learn,30142.99988746643,Tue Jun 03 2025 09:08:01 GMT-0500 (Central Daylight Time),656826.3000000007,A,queenenter,O,enter,517,1,3180.89999999851,653645.4000000022,7160,WL,C,9.0
2,30.591000080108643,learn,29408.999919891357,Tue Jun 03 2025 09:08:01 GMT-0500 (Central Daylight Time),657560.6000000015,A,t,O,t,715,1,734.0,656826.6000000015,7160,WL,C,10.0
2,30.85700011253357,learn,29142.99988746643,Tue Jun 03 2025 09:08:01 GMT-0500 (Central Daylight Time),657827.0,A,to,O,o,243,1,1000.3999999985099,656826.6000000015,7160,WL,C,10.0
2,31.10800004005432,learn,28891.99995994568,Tue Jun 03 2025 09:08:01 GMT-0500 (Central Daylight Time),658077.8000000007,A,tow,O,w,243,1,1251.199999999255,656826.6000000015,7160,WL,C,10.0
2,31.324000120162964,learn,28675.999879837036,Tue Jun 03 2025 09:08:01 GMT-0500 (Central Daylight Time),658293.4000000022,A,towe,O,e,201,1,1466.800000000745,656826.6000000015,7160,WL,C,10.0
2,31.625,learn,28375.0,Tue Jun 03 2025 09:08:01 GMT-0500 (Central Daylight Time),658594.6999999993,A,tower,O,r,288,1,1768.0999999977648,656826.6000000015,7160,WL,C,10.0
2,32.138999938964844,learn,27861.000061035156,Tue Jun 03 2025 09:08:01 GMT-0500 (Central Daylight Time),659108.6000000015,A,towerenter,O,enter,505,1,2282.0,656826.6000000015,7160,WL,C,10.0
2,33.02300000190735,learn,26976.99999809265,Tue Jun 03 2025 09:08:01 GMT-0500 (Central Daylight Time),659993.1000000015,A,w,O,w,865,1,884.1999999992549,659108.9000000022,7160,WL,C,11.0
2,33.27300000190735,learn,26726.99999809265,Tue Jun 03 2025 09:08:01 GMT-0500 (Central Daylight Time),660242.9000000022,A,wh,O,h,232,1,1134.0,659108.9000000022,7160,WL,C,11.0
2,33.77300000190735,learn,26226.99999809265,Tue Jun 03 2025 09:08:01 GMT-0500 (Central Daylight Time),660743.1000000015,A,whe,O,e,483,1,1634.199999999255,659108.9000000022,7160,WL,C,11.0
2,34.0220000743866,learn,25977.999925613403,Tue Jun 03 2025 09:08:01 GMT-0500 (Central Daylight Time),660991.8000000007,A,whea,O,a,238,1,1882.8999999985099,659108.9000000022,7160,WL,C,11.0
2,34.2720000743866,learn,25727.999925613403,Tue Jun 03 2025 09:08:01 GMT-0500 (Central Daylight Time),661242.3000000007,A,wheat,O,t,229,1,2133.39999999851,659108.9000000022,7160,WL,C,11.0
2,34.937999963760376,learn,25062.000036239624,Tue Jun 03 2025 09:08:01 GMT-0500 (Central Daylight Time),661907.6000000015,A,wheatenter,O,enter,642,1,2798.699999999255,659108.9000000022,7160,WL,C,11.0
2,36.138999938964844,learn,23861.000061035156,Tue Jun 03 2025 09:08:01 GMT-0500 (Central Daylight Time),663108.9000000022,A,d,O,d,1185,1,1201.1000000014901,661907.8000000007,7160,WL,C,12.0
2,36.437999963760376,learn,23562.000036239624,Tue Jun 03 2025 09:08:01 GMT-0500 (Central Daylight Time),663408.6000000015,A,do,O,o,277,1,1500.800000000745,661907.8000000007,7160,WL,C,12.0
2,36.67199993133545,learn,23328.00006866455,Tue Jun 03 2025 09:08:01 GMT-0500 (Central Daylight Time),663641.5,A,doc,O,c,221,1,1733.699999999255,661907.8000000007,7160,WL,C,12.0
2,37.03800010681152,learn,22961.999893188477,Tue Jun 03 2025 09:08:01 GMT-0500 (Central Daylight Time),664008.5,A,doct,O,t,347,1,2100.699999999255,661907.8000000007,7160,WL,C,12.0
2,37.30399990081787,learn,22696.00009918213,Tue Jun 03 2025 09:08:01 GMT-0500 (Central Daylight Time),664273.8000000007,A,docto,O,o,251,1,2366.0,661907.8000000007,7160,WL,C,12.0
2,37.520999908447266,learn,22479.000091552734,Tue Jun 03 2025 09:08:01 GMT-0500 (Central Daylight Time),664491.4000000022,A,doctor,O,r,203,1,2583.60000000149,661907.8000000007,7160,WL,C,12.0
2,38.087000131607056,learn,21912.999868392944,Tue Jun 03 2025 09:08:01 GMT-0500 (Central Daylight Time),665057.0,A,doctorenter,O,enter,540,1,3149.199999999255,661907.8000000007,7160,WL,C,12.0
2,38.62100005149841,learn,21378.999948501587,Tue Jun 03 2025 09:08:01 GMT-0500 (Central Daylight Time),665591.1000000015,A,f,O,f,524,1,533.9000000022352,665057.1999999993,7160,WL,C,13.0
2,38.88800001144409,learn,21111.99998855591,Tue Jun 03 2025 09:08:01 GMT-0500 (Central Daylight Time),665858.5,A,fl,O,l,248,1,801.3000000007451,665057.1999999993,7160,WL,C,13.0
2,39.20300006866455,learn,20796.99993133545,Tue Jun 03 2025 09:08:01 GMT-0500 (Central Daylight Time),666172.9000000022,A,fla,O,a,303,1,1115.7000000029802,665057.1999999993,7160,WL,C,13.0
2,39.58800005912781,learn,20411.999940872192,Tue Jun 03 2025 09:08:01 GMT-0500 (Central Daylight Time),666557.6999999993,A,flag,O,g,369,1,1500.5,665057.1999999993,7160,WL,C,13.0
2,40.019999980926514,learn,19980.000019073486,Tue Jun 03 2025 09:08:01 GMT-0500 (Central Daylight Time),666990.0,A,flagenter,O,enter,423,1,1932.800000000745,665057.1999999993,7160,WL,C,13.0
2,43.019999980926514,learn,16980.000019073486,Tue Jun 03 2025 09:08:01 GMT-0500 (Central Daylight Time),669989.6999999993,A,l,O,l,2983,1,2999.39999999851,666990.3000000007,7160,WL,C,14.0
2,43.269999980926514,learn,16730.000019073486,Tue Jun 03 2025 09:08:01 GMT-0500 (Central Daylight Time),670239.6000000015,A,le,O,e,240,1,3249.300000000745,666990.3000000007,7160,WL,C,14.0
2,43.55200004577637,learn,16447.999954223633,Tue Jun 03 2025 09:08:01 GMT-0500 (Central Daylight Time),670522.1999999993,A,let,O,t,264,1,3531.89999999851,666990.3000000007,7160,WL,C,14.0
2,43.76900005340576,learn,16230.999946594238,Tue Jun 03 2025 09:08:01 GMT-0500 (Central Daylight Time),670739.5,A,lett,O,t,207,1,3749.199999999255,666990.3000000007,7160,WL,C,14.0
2,44.085999965667725,learn,15914.000034332275,Tue Jun 03 2025 09:08:01 GMT-0500 (Central Daylight Time),671056.4000000022,A,lette,O,e,305,1,4066.10000000149,666990.3000000007,7160,WL,C,14.0
2,44.23699998855591,learn,15763.000011444092,Tue Jun 03 2025 09:08:01 GMT-0500 (Central Daylight Time),671206.8000000007,A,letter,O,r,145,1,4216.5,666990.3000000007,7160,WL,C,14.0
2,44.46799993515015,learn,15532.000064849854,Tue Jun 03 2025 09:08:01 GMT-0500 (Central Daylight Time),671438.4000000022,A,letterenter,O,enter,221,1,4448.10000000149,666990.3000000007,7160,WL,C,14.0
2,47.03500008583069,learn,12964.999914169312,Tue Jun 03 2025 09:08:01 GMT-0500 (Central Daylight Time),674005.1999999993,A,b,O,b,2551,1,2566.5,671438.6999999993,7160,WL,C,15.0
2,47.26800012588501,learn,12731.99987411499,Tue Jun 03 2025 09:08:01 GMT-0500 (Central Daylight Time),674238.0,A,bo,O,o,215,1,2799.300000000745,671438.6999999993,7160,WL,C,15.0
2,47.53399991989136,learn,12466.000080108643,Tue Jun 03 2025 09:08:01 GMT-0500 (Central Daylight Time),674503.8000000007,A,boy,O,y,253,1,3065.10000000149,671438.6999999993,7160,WL,C,15.0
2,47.91700005531311,learn,12082.99994468689,Tue Jun 03 2025 09:08:01 GMT-0500 (Central Daylight Time),674886.6999999993,A,boyenter,O,enter,364,1,3448.0,671438.6999999993,7160,WL,C,15.0
3,0.7009999752044678,learn,59299.00002479553,Tue Jun 03 2025 09:08:01 GMT-0500 (Central Daylight Time),742434.1999999993,A,t,O,t,686,1,700.5999999977648,741733.6000000015,7160,WL,C,1.0
3,1.0160000324249268,learn,58983.99996757507,Tue Jun 03 2025 09:08:01 GMT-0500 (Central Daylight Time),742748.9000000022,A,to,O,o,306,1,1015.3000000007451,741733.6000000015,7160,WL,C,1.0
3,1.3829998970031738,learn,58617.000102996826,Tue Jun 03 2025 09:08:01 GMT-0500 (Central Daylight Time),743115.9000000022,A,tow,O,w,344,1,1382.300000000745,741733.6000000015,7160,WL,C,1.0
3,1.6319999694824219,learn,58368.00003051758,Tue Jun 03 2025 09:08:01 GMT-0500 (Central Daylight Time),743364.8000000007,A,towe,O,e,231,1,1631.199999999255,741733.6000000015,7160,WL,C,1.0
3,1.9000000953674316,learn,58099.99990463257,Tue Jun 03 2025 09:08:01 GMT-0500 (Central Daylight Time),743632.9000000022,A,tower,O,r,256,1,1899.300000000745,741733.6000000015,7160,WL,C,1.0
3,2.4149999618530273,learn,57585.00003814697,Tue Jun 03 2025 09:08:01 GMT-0500 (Central Daylight Time),744148.6000000015,A,towerenter,O,enter,511,1,2415.0,741733.6000000015,7160,WL,C,1.0
3,2.949000120162964,learn,57050.999879837036,Tue Jun 03 2025 09:08:01 GMT-0500 (Central Daylight Time),744682.1000000015,A,w,O,w,520,1,533.1999999992549,744148.9000000022,7160,WL,C,2.0
3,3.1489999294281006,learn,56851.0000705719,Tue Jun 03 2025 09:08:01 GMT-0500 (Central Daylight Time),744882.1999999993,A,wh,O,h,187,1,733.2999999970198,744148.9000000022,7160,WL,C,2.0
3,3.4649999141693115,learn,56535.00008583069,Tue Jun 03 2025 09:08:01 GMT-0500 (Central Daylight Time),745198.1000000015,A,whe,O,e,306,1,1049.199999999255,744148.9000000022,7160,WL,C,2.0
3,3.881999969482422,learn,56118.00003051758,Tue Jun 03 2025 09:08:01 GMT-0500 (Central Daylight Time),745615.1999999993,A,whea,O,a,407,1,1466.2999999970198,744148.9000000022,7160,WL,C,2.0
3,4.098999977111816,learn,55901.00002288818,Tue Jun 03 2025 09:08:01 GMT-0500 (Central Daylight Time),745832.4000000022,A,wheat,O,t,198,1,1683.5,744148.9000000022,7160,WL,C,2.0
3,5.13100004196167,learn,54868.99995803833,Tue Jun 03 2025 09:08:01 GMT-0500 (Central Daylight Time),746863.6999999993,A,wheatenter,O,enter,1013,1,2714.7999999970198,744148.9000000022,7160,WL,C,2.0
3,5.732000112533569,learn,54267.99988746643,Tue Jun 03 2025 09:08:01 GMT-0500 (Central Daylight Time),747465.3000000007,A,q,O,q,581,1,601.3000000007451,746864.0,7160,WL,C,3.0
3,5.983000040054321,learn,54016.99995994568,Tue Jun 03 2025 09:08:01 GMT-0500 (Central Daylight Time),747716.0,A,qu,O,u,244,1,852.0,746864.0,7160,WL,C,3.0
3,6.2809998989105225,learn,53719.00010108948,Tue Jun 03 2025 09:08:01 GMT-0500 (Central Daylight Time),748014.6000000015,A,que,O,e,289,1,1150.6000000014901,746864.0,7160,WL,C,3.0
3,6.515000104904175,learn,53484.999895095825,Tue Jun 03 2025 09:08:01 GMT-0500 (Central Daylight Time),748247.8000000007,A,quee,O,e,221,1,1383.800000000745,746864.0,7160,WL,C,3.0
3,6.79800009727478,learn,53201.99990272522,Tue Jun 03 2025 09:08:01 GMT-0500 (Central Daylight Time),748531.1000000015,A,queen,O,n,269,1,1667.1000000014901,746864.0,7160,WL,C,3.0
3,7.21399998664856,learn,52786.00001335144,Tue Jun 03 2025 09:08:01 GMT-0500 (Central Daylight Time),748947.5,A,queenenter,O,enter,409,1,2083.5,746864.0,7160,WL,C,3.0
3,7.765000104904175,learn,52234.999895095825,Tue Jun 03 2025 09:08:01 GMT-0500 (Central Daylight Time),749498.0,A,s,O,s,530,1,550.1999999992549,748947.8000000007,7160,WL,C,4.0
3,8.032000064849854,learn,51967.99993515015,Tue Jun 03 2025 09:08:01 GMT-0500 (Central Daylight Time),749765.6000000015,A,su,O,u,262,1,817.8000000007451,748947.8000000007,7160,WL,C,4.0
3,8.29699993133545,learn,51703.00006866455,Tue Jun 03 2025 09:08:01 GMT-0500 (Central Daylight Time),750030.6000000015,A,sug,O,g,255,1,1082.800000000745,748947.8000000007,7160,WL,C,4.0
3,8.562999963760376,learn,51437.000036239624,Tue Jun 03 2025 09:08:01 GMT-0500 (Central Daylight Time),750295.9000000022,A,suga,O,a,245,1,1348.1000000014901,748947.8000000007,7160,WL,C,4.0
3,8.780999898910522,learn,51219.00010108948,Tue Jun 03 2025 09:08:01 GMT-0500 (Central Daylight Time),750514.0,A,sugar,O,r,195,1,1566.199999999255,748947.8000000007,7160,WL,C,4.0
3,9.180000066757202,learn,50819.9999332428,Tue Jun 03 2025 09:08:01 GMT-0500 (Central Daylight Time),750912.8000000007,A,sugarenter,O,enter,378,1,1965.0,748947.8000000007,7160,WL,C,4.0
3,10.030999898910522,learn,49969.00010108948,Tue Jun 03 2025 09:08:01 GMT-0500 (Central Daylight Time),751764.5,A,h,O,h,846,1,851.5,750913.0,7160,WL,C,5.0
3,10.331000089645386,learn,49668.999910354614,Tue Jun 03 2025 09:08:01 GMT-0500 (Central Daylight Time),752064.6000000015,A,ho,O,o,280,1,1151.6000000014901,750913.0,7160,WL,C,5.0
3,10.595999956130981,learn,49404.00004386902,Tue Jun 03 2025 09:08:01 GMT-0500 (Central Daylight Time),752329.6999999993,A,hom,O,m,252,1,1416.699999999255,750913.0,7160,WL,C,5.0
3,10.897000074386597,learn,49102.9999256134,Tue Jun 03 2025 09:08:01 GMT-0500 (Central Daylight Time),752630.3000000007,A,home,O,e,283,1,1717.300000000745,750913.0,7160,WL,C,5.0
3,11.313999891281128,learn,48686.00010871887,Tue Jun 03 2025 09:08:01 GMT-0500 (Central Daylight Time),753047.6999999993,A,homeenter,O,enter,397,1,2134.699999999255,750913.0,7160,WL,C,5.0
3,12.21399998664856,learn,47786.00001335144,Tue Jun 03 2025 09:08:01 GMT-0500 (Central Daylight Time),753946.9000000022,A,b,O,b,886,1,899.0,753047.9000000022,7160,WL,C,6.0
3,12.51200008392334,learn,47487.99991607666,Tue Jun 03 2025 09:08:01 GMT-0500 (Central Daylight Time),754245.4000000022,A,bo,O,o,281,1,1197.5,753047.9000000022,7160,WL,C,6.0
3,12.779000043869019,learn,47220.99995613098,Tue Jun 03 2025 09:08:01 GMT-0500 (Central Daylight Time),754512.1000000015,A,boy,O,y,254,1,1464.199999999255,753047.9000000022,7160,WL,C,6.0
3,13.246999979019165,learn,46753.000020980835,Tue Jun 03 2025 09:08:01 GMT-0500 (Central Daylight Time),754979.8000000007,A,boyenter,O,enter,463,1,1931.8999999985099,753047.9000000022,7160,WL,C,6.0
3,13.76200008392334,learn,46237.99991607666,Tue Jun 03 2025 09:08:01 GMT-0500 (Central Daylight Time),755495.4000000022,A,d,O,d,497,1,515.4000000022352,754980.0,7160,WL,C,7.0
3,14.095999956130981,learn,45904.00004386902,Tue Jun 03 2025 09:08:01 GMT-0500 (Central Daylight Time),755829.3000000007,A,do,O,o,328,1,849.3000000007451,754980.0,7160,WL,C,7.0
3,14.411999940872192,learn,45588.00005912781,Tue Jun 03 2025 09:08:01 GMT-0500 (Central Daylight Time),756145.6000000015,A,doc,O,c,295,1,1165.6000000014901,754980.0,7160,WL,C,7.0
3,14.778000116348267,learn,45221.99988365173,Tue Jun 03 2025 09:08:01 GMT-0500 (Central Daylight Time),756511.3000000007,A,doct,O,t,356,1,1531.300000000745,754980.0,7160,WL,C,7.0
3,14.995000123977661,learn,45004.99987602234,Tue Jun 03 2025 09:08:01 GMT-0500 (Central Daylight Time),756728.3000000007,A,docto,O,o,205,1,1748.300000000745,754980.0,7160,WL,C,7.0
3,15.144000053405762,learn,44855.99994659424,Tue Jun 03 2025 09:08:01 GMT-0500 (Central Daylight Time),756877.0,A,doctor,O,r,131,1,1897.0,754980.0,7160,WL,C,7.0
3,15.710999965667725,learn,44289.000034332275,Tue Jun 03 2025 09:08:01 GMT-0500 (Central Daylight Time),757444.6000000015,A,doctorenter,O,enter,555,1,2464.60000000149,754980.0,7160,WL,C,7.0
3,16.76099991798401,learn,43239.00008201599,Tue Jun 03 2025 09:08:01 GMT-0500 (Central Daylight Time),758494.1000000015,A,n,O,n,1042,1,1049.300000000745,757444.8000000007,7160,WL,C,8.0
3,16.977999925613403,learn,43022.0000743866,Tue Jun 03 2025 09:08:01 GMT-0500 (Central Daylight Time),758711.1999999993,A,na,O,a,199,1,1266.3999999985099,757444.8000000007,7160,WL,C,8.0
3,17.16100001335144,learn,42838.99998664856,Tue Jun 03 2025 09:08:01 GMT-0500 (Central Daylight Time),758894.6999999993,A,nai,O,i,167,1,1449.8999999985099,757444.8000000007,7160,WL,C,8.0
3,17.430000066757202,learn,42569.9999332428,Tue Jun 03 2025 09:08:01 GMT-0500 (Central Daylight Time),759162.9000000022,A,nail,O,l,248,1,1718.1000000014901,757444.8000000007,7160,WL,C,8.0
3,17.759999990463257,learn,42240.00000953674,Tue Jun 03 2025 09:08:01 GMT-0500 (Central Daylight Time),759493.5,A,nailenter,O,enter,322,1,2048.699999999255,757444.8000000007,7160,WL,C,8.0
3,18.312000036239624,learn,41687.999963760376,Tue Jun 03 2025 09:08:01 GMT-0500 (Central Daylight Time),760045.0,A,l,O,l,537,1,551.3000000007451,759493.6999999993,7160,WL,C,9.0
3,18.594000101089478,learn,41405.99989891052,Tue Jun 03 2025 09:08:01 GMT-0500 (Central Daylight Time),760327.0,A,lw,O,w,270,1,833.3000000007451,759493.6999999993,7160,WL,C,9.0
3,18.977999925613403,learn,41022.0000743866,Tue Jun 03 2025 09:08:01 GMT-0500 (Central Daylight Time),760711.1999999993,A,lwt,O,t,362,1,1217.5,759493.6999999993,7160,WL,C,9.0
3,19.878999948501587,learn,40121.00005149841,Tue Jun 03 2025 09:08:01 GMT-0500 (Central Daylight Time),761611.9000000022,A,lw,O,backspace,893,1,2118.2000000029802,759493.6999999993,7160,WL,C,9.0
3,20.109999895095825,learn,39890.000104904175,Tue Jun 03 2025 09:08:01 GMT-0500 (Central Daylight Time),761843.3000000007,A,l,O,backspace,215,1,2349.60000000149,759493.6999999993,7160,WL,C,9.0
3,20.89299988746643,learn,39107.00011253357,Tue Jun 03 2025 09:08:01 GMT-0500 (Central Daylight Time),762626.6000000015,A,le,O,e,770,1,3132.900000002235,759493.6999999993,7160,WL,C,9.0
3,21.26099991798401,learn,38739.00008201599,Tue Jun 03 2025 09:08:01 GMT-0500 (Central Daylight Time),762994.0,A,let,O,t,345,1,3500.300000000745,759493.6999999993,7160,WL,C,9.0
3,21.4760000705719,learn,38523.9999294281,Tue Jun 03 2025 09:08:01 GMT-0500 (Central Daylight Time),763209.1999999993,A,lett,O,t,195,1,3715.5,759493.6999999993,7160,WL,C,9.0
3,21.7260000705719,learn,38273.9999294281,Tue Jun 03 2025 09:08:01 GMT-0500 (Central Daylight Time),763458.8000000007,A,lette,O,e,228,1,3965.10000000149,759493.6999999993,7160,WL,C,9.0
3,21.877000093460083,learn,38122.99990653992,Tue Jun 03 2025 09:08:01 GMT-0500 (Central Daylight Time),763610.6000000015,A,letter,O,r,139,1,4116.900000002235,759493.6999999993,7160,WL,C,9.0
3,22.191999912261963,learn,37808.00008773804,Tue Jun 03 2025 09:08:01 GMT-0500 (Central Daylight Time),763925.4000000022,A,letterenter,O,enter,298,1,4431.70000000298,759493.6999999993,7160,WL,C,9.0
3,23.4760000705719,learn,36523.9999294281,Tue Jun 03 2025 09:08:01 GMT-0500 (Central Daylight Time),765208.9000000022,A,c,O,c,1263,1,1283.300000000745,763925.6000000015,7160,WL,C,10.0
3,23.7260000705719,learn,36273.9999294281,Tue Jun 03 2025 09:08:01 GMT-0500 (Central Daylight Time),765459.1999999993,A,ca,O,a,236,1,1533.5999999977648,763925.6000000015,7160,WL,C,10.0
3,24.009000062942505,learn,35990.999937057495,Tue Jun 03 2025 09:08:01 GMT-0500 (Central Daylight Time),765741.9000000022,A,cam,O,m,274,1,1816.300000000745,763925.6000000015,7160,WL,C,10.0
3,24.424999952316284,learn,35575.000047683716,Tue Jun 03 2025 09:08:01 GMT-0500 (Central Daylight Time),766158.4000000022,A,camp,O,p,408,1,2232.800000000745,763925.6000000015,7160,WL,C,10.0
3,25.007999897003174,learn,34992.000102996826,Tue Jun 03 2025 09:08:01 GMT-0500 (Central Daylight Time),766740.9000000022,A,campenter,O,enter,577,1,2815.300000000745,763925.6000000015,7160,WL,C,10.0
3,26.158999919891357,learn,33841.00008010864,Tue Jun 03 2025 09:08:01 GMT-0500 (Central Daylight Time),767892.1999999993,A,n,O,n,1146,1,1151.0999999977648,766741.1000000015,7160,WL,C,11.0
3,26.44099998474121,learn,33559.00001525879,Tue Jun 03 2025 09:08:01 GMT-0500 (Central Daylight Time),768173.9000000022,A,na,O,a,264,1,1432.800000000745,766741.1000000015,7160,WL,C,11.0
3,26.657000064849854,learn,33342.99993515015,Tue Jun 03 2025 09:08:01 GMT-0500 (Central Daylight Time),768390.6999999993,A,nai,O,i,205,1,1649.5999999977648,766741.1000000015,7160,WL,C,11.0
3,26.97499990463257,learn,33025.00009536743,Tue Jun 03 2025 09:08:01 GMT-0500 (Central Daylight Time),768708.1000000015,A,nail,O,l,303,1,1967.0,766741.1000000015,7160,WL,C,11.0
3,27.457000017166138,learn,32542.999982833862,Tue Jun 03 2025 09:08:01 GMT-0500 (Central Daylight Time),769190.6000000015,A,nailenter,O,enter,465,1,2449.5,766741.1000000015,7160,WL,C,11.0
3,30.006999969482422,learn,29993.000030517578,Tue Jun 03 2025 09:08:01 GMT-0500 (Central Daylight Time),771739.9000000022,A,c,O,c,2543,1,2549.0,769190.9000000022,7160,WL,C,12.0
3,30.174999952316284,learn,29825.000047683716,Tue Jun 03 2025 09:08:01 GMT-0500 (Central Daylight Time),771907.9000000022,A,co,O,o,159,1,2717.0,769190.9000000022,7160,WL,C,12.0
3,30.4760000705719,learn,29523.9999294281,Tue Jun 03 2025 09:08:01 GMT-0500 (Central Daylight Time),772209.1000000015,A,cor,O,r,290,1,3018.199999999255,769190.9000000022,7160,WL,C,12.0
3,30.723999977111816,learn,29276.000022888184,Tue Jun 03 2025 09:08:01 GMT-0500 (Central Daylight Time),772457.3000000007,A,corn,O,n,237,1,3266.39999999851,769190.9000000022,7160,WL,C,12.0
3,31.27300000190735,learn,28726.99999809265,Tue Jun 03 2025 09:08:01 GMT-0500 (Central Daylight Time),773006.4000000022,A,cornenter,O,enter,531,1,3815.5,769190.9000000022,7160,WL,C,12.0
3,31.973999977111816,learn,28026.000022888184,Tue Jun 03 2025 09:08:01 GMT-0500 (Central Daylight Time),773707.4000000022,A,c,O,c,695,1,700.7000000029802,773006.6999999993,7160,WL,C,13.0
3,32.2260000705719,learn,27773.9999294281,Tue Jun 03 2025 09:08:01 GMT-0500 (Central Daylight Time),773958.8000000007,A,ca,O,a,245,1,952.1000000014901,773006.6999999993,7160,WL,C,13.0
3,32.52300000190735,learn,27476.99999809265,Tue Jun 03 2025 09:08:01 GMT-0500 (Central Daylight Time),774255.8000000007,A,cat,O,t,277,1,1249.1000000014901,773006.6999999993,7160,WL,C,13.0
3,32.74000000953674,learn,27259.999990463257,Tue Jun 03 2025 09:08:01 GMT-0500 (Central Daylight Time),774473.6000000015,A,catt,O,t,197,1,1466.9000000022352,773006.6999999993,7160,WL,C,13.0
3,32.992000102996826,learn,27007.999897003174,Tue Jun 03 2025 09:08:01 GMT-0500 (Central Daylight Time),774724.8000000007,A,cattl,O,l,245,1,1718.1000000014901,773006.6999999993,7160,WL,C,13.0
3,33.223000049591064,learn,26776.999950408936,Tue Jun 03 2025 09:08:01 GMT-0500 (Central Daylight Time),774955.9000000022,A,cattle,O,e,214,1,1949.2000000029802,773006.6999999993,7160,WL,C,13.0
3,33.621999979019165,learn,26378.000020980835,Tue Jun 03 2025 09:08:01 GMT-0500 (Central Daylight Time),775355.3000000007,A,cattleenter,O,enter,387,1,2348.60000000149,773006.6999999993,7160,WL,C,13.0
3,34.539000034332275,learn,25460.999965667725,Tue Jun 03 2025 09:08:01 GMT-0500 (Central Daylight Time),776272.4000000022,A,l,O,l,908,1,916.8000000007451,775355.6000000015,7160,WL,C,14.0
3,35.223999977111816,learn,24776.000022888184,Tue Jun 03 2025 09:08:01 GMT-0500 (Central Daylight Time),776957.1999999993,A,,O,backspace,679,1,1601.5999999977648,775355.6000000015,7160,WL,C,14.0
3,35.5220000743866,learn,24477.999925613403,Tue Jun 03 2025 09:08:01 GMT-0500 (Central Daylight Time),777255.3000000007,A,f,O,f,286,1,1899.699999999255,775355.6000000015,7160,WL,C,14.0
3,35.806999921798706,learn,24193.000078201294,Tue Jun 03 2025 09:08:01 GMT-0500 (Central Daylight Time),777540.1000000015,A,fl,O,l,277,1,2184.5,775355.6000000015,7160,WL,C,14.0
3,36.25500011444092,learn,23744.999885559082,Tue Jun 03 2025 09:08:01 GMT-0500 (Central Daylight Time),777988.8000000007,A,fla,O,a,429,1,2633.199999999255,775355.6000000015,7160,WL,C,14.0
3,36.75600004196167,learn,23243.99995803833,Tue Jun 03 2025 09:08:01 GMT-0500 (Central Daylight Time),778489.5,A,flag,O,g,486,1,3133.89999999851,775355.6000000015,7160,WL,C,14.0
3,37.13800001144409,learn,22861.99998855591,Tue Jun 03 2025 09:08:01 GMT-0500 (Central Daylight Time),778871.1999999993,A,flagenter,O,enter,356,1,3515.599999997765,775355.6000000015,7160,WL,C,14.0
3,43.48799991607666,learn,16512.00008392334,Tue Jun 03 2025 09:08:01 GMT-0500 (Central Daylight Time),785221.1999999993,A,c,O,c,6327,1,6349.699999999255,778871.5,7160,WL,C,15.0
3,43.736000061035156,learn,16263.999938964844,Tue Jun 03 2025 09:08:01 GMT-0500 (Central Daylight Time),785469.1999999993,A,ca,O,a,234,1,6597.699999999255,778871.5,7160,WL,C,15.0
3,44.019999980926514,learn,15980.000019073486,Tue Jun 03 2025 09:08:01 GMT-0500 (Central Daylight Time),785753.6999999993,A,cam,O,m,259,1,6882.199999999255,778871.5,7160,WL,C,15.0
3,44.35199999809265,learn,15648.000001907349,Tue Jun 03 2025 09:08:01 GMT-0500 (Central Daylight Time),786085.5,A,camp,O,p,314,1,7214.0,778871.5,7160,WL,C,15.0
3,45.051000118255615,learn,14948.999881744385,Tue Jun 03 2025 09:08:01 GMT-0500 (Central Daylight Time),786784.9000000022,A,campenter,O,enter,685,1,7913.400000002235,778871.5,7160,WL,C,15.0
4,0.8509998321533203,learn,59149.00016784668,Tue Jun 03 2025 09:08:01 GMT-0500 (Central Daylight Time),851665.5,A,t,O,t,838,1,850.1999999992549,850815.3000000007,7160,WL,C,1.0
4,1.0839998722076416,learn,58916.00012779236,Tue Jun 03 2025 09:08:01 GMT-0500 (Central Daylight Time),851898.9000000022,A,to,O,o,228,1,1083.6000000014901,850815.3000000007,7160,WL,C,1.0
4,1.3179998397827148,learn,58682.000160217285,Tue Jun 03 2025 09:08:01 GMT-0500 (Central Daylight Time),852133.1000000015,A,tow,O,w,228,1,1317.800000000745,850815.3000000007,7160,WL,C,1.0
4,1.565999984741211,learn,58434.00001525879,Tue Jun 03 2025 09:08:01 GMT-0500 (Central Daylight Time),852381.0,A,towe,O,e,240,1,1565.699999999255,850815.3000000007,7160,WL,C,1.0
4,1.7829999923706055,learn,58217.000007629395,Tue Jun 03 2025 09:08:01 GMT-0500 (Central Daylight Time),852597.1999999993,A,tower,O,r,199,1,1781.8999999985099,850815.3000000007,7160,WL,C,1.0
4,2.0999999046325684,learn,57900.00009536743,Tue Jun 03 2025 09:08:01 GMT-0500 (Central Daylight Time),852914.5,A,towerenter,O,enter,303,1,2099.199999999255,850815.3000000007,7160,WL,C,1.0
4,2.6489999294281006,learn,57351.0000705719,Tue Jun 03 2025 09:08:01 GMT-0500 (Central Daylight Time),853463.6999999993,A,w,O,w,539,1,549.0,852914.6999999993,7160,WL,C,2.0
4,2.8999998569488525,learn,57100.00014305115,Tue Jun 03 2025 09:08:01 GMT-0500 (Central Daylight Time),853714.5,A,wh,O,h,239,1,799.8000000007451,852914.6999999993,7160,WL,C,2.0
4,3.3329999446868896,learn,56667.00005531311,Tue Jun 03 2025 09:08:01 GMT-0500 (Central Daylight Time),854147.9000000022,A,whe,O,e,419,1,1233.2000000029802,852914.6999999993,7160,WL,C,2.0
4,3.563999891281128,learn,56436.00010871887,Tue Jun 03 2025 09:08:01 GMT-0500 (Central Daylight Time),854379.1000000015,A,whea,O,a,215,1,1464.4000000022352,852914.6999999993,7160,WL,C,2.0
4,3.7639999389648438,learn,56236.000061035156,Tue Jun 03 2025 09:08:01 GMT-0500 (Central Daylight Time),854578.4000000022,A,wheat,O,t,180,1,1663.7000000029802,852914.6999999993,7160,WL,C,2.0
4,4.480999946594238,learn,55519.00005340576,Tue Jun 03 2025 09:08:01 GMT-0500 (Central Daylight Time),855295.4000000022,A,wheatenter,O,enter,708,1,2380.7000000029802,852914.6999999993,7160,WL,C,2.0
4,5.146999835968018,learn,54853.00016403198,Tue Jun 03 2025 09:08:01 GMT-0500 (Central Daylight Time),855961.9000000022,A,q,O,q,655,1,666.3000000007451,855295.6000000015,7160,WL,C,3.0
4,5.497999906539917,learn,54502.00009346008,Tue Jun 03 2025 09:08:01 GMT-0500 (Central Daylight Time),856313.1999999993,A,qu,O,u,330,1,1017.5999999977648,855295.6000000015,7160,WL,C,3.0
4,5.781999826431274,learn,54218.000173568726,Tue Jun 03 2025 09:08:01 GMT-0500 (Central Daylight Time),856597.0,A,que,O,e,262,1,1301.3999999985099,855295.6000000015,7160,WL,C,3.0
4,6.014999866485596,learn,53985.000133514404,Tue Jun 03 2025 09:08:01 GMT-0500 (Central Daylight Time),856829.1999999993,A,quee,O,e,215,1,1533.5999999977648,855295.6000000015,7160,WL,C,3.0
4,6.31499981880188,learn,53685.00018119812,Tue Jun 03 2025 09:08:01 GMT-0500 (Central Daylight Time),857129.5,A,queen,O,n,280,1,1833.8999999985099,855295.6000000015,7160,WL,C,3.0
4,6.597999811172485,learn,53402.000188827515,Tue Jun 03 2025 09:08:01 GMT-0500 (Central Daylight Time),857412.4000000022,A,queenenter,O,enter,273,1,2116.800000000745,855295.6000000015,7160,WL,C,3.0
4,7.148999929428101,learn,52851.0000705719,Tue Jun 03 2025 09:08:01 GMT-0500 (Central Daylight Time),857963.3000000007,A,s,O,s,538,1,550.6999999992549,857412.6000000015,7160,WL,C,4.0
4,7.448999881744385,learn,52551.000118255615,Tue Jun 03 2025 09:08:01 GMT-0500 (Central Daylight Time),858263.9000000022,A,su,O,u,291,1,851.3000000007451,857412.6000000015,7160,WL,C,4.0
4,7.7149999141693115,learn,52285.00008583069,Tue Jun 03 2025 09:08:01 GMT-0500 (Central Daylight Time),858529.3000000007,A,sug,O,g,254,1,1116.699999999255,857412.6000000015,7160,WL,C,4.0
4,7.949999809265137,learn,52050.00019073486,Tue Jun 03 2025 09:08:01 GMT-0500 (Central Daylight Time),858764.1999999993,A,suga,O,a,230,1,1351.5999999977648,857412.6000000015,7160,WL,C,4.0
4,8.1489999294281,learn,51851.0000705719,Tue Jun 03 2025 09:08:01 GMT-0500 (Central Daylight Time),858963.8000000007,A,sugar,O,r,193,1,1551.199999999255,857412.6000000015,7160,WL,C,4.0
4,8.73199987411499,learn,51268.00012588501,Tue Jun 03 2025 09:08:01 GMT-0500 (Central Daylight Time),859546.3000000007,A,sugarenter,O,enter,560,1,2133.699999999255,857412.6000000015,7160,WL,C,4.0
4,9.247999906539917,learn,50752.00009346008,Tue Jun 03 2025 09:08:01 GMT-0500 (Central Daylight Time),860062.9000000022,A,h,O,h,495,1,516.3000000007451,859546.6000000015,7160,WL,C,5.0
4,9.480000019073486,learn,50519.999980926514,Tue Jun 03 2025 09:08:01 GMT-0500 (Central Daylight Time),860294.6999999993,A,ho,O,o,213,1,748.0999999977648,859546.6000000015,7160,WL,C,5.0
4,9.680999994277954,learn,50319.000005722046,Tue Jun 03 2025 09:08:01 GMT-0500 (Central Daylight Time),860495.6000000015,A,hom,O,m,191,1,949.0,859546.6000000015,7160,WL,C,5.0
4,9.930999994277954,learn,50069.000005722046,Tue Jun 03 2025 09:08:01 GMT-0500 (Central Daylight Time),860745.5,A,home,O,e,238,1,1198.8999999985099,859546.6000000015,7160,WL,C,5.0
4,10.248999834060669,learn,49751.00016593933,Tue Jun 03 2025 09:08:01 GMT-0500 (Central Daylight Time),861063.6000000015,A,homeenter,O,enter,307,1,1517.0,859546.6000000015,7160,WL,C,5.0
4,10.829999923706055,learn,49170.000076293945,Tue Jun 03 2025 09:08:01 GMT-0500 (Central Daylight Time),861644.9000000022,A,b,O,b,567,1,580.8000000007451,861064.1000000015,7160,WL,C,6.0
4,11.04699993133545,learn,48953.00006866455,Tue Jun 03 2025 09:08:01 GMT-0500 (Central Daylight Time),861861.6000000015,A,bo,O,o,200,1,797.5,861064.1000000015,7160,WL,C,6.0
4,11.280999898910522,learn,48719.00010108948,Tue Jun 03 2025 09:08:01 GMT-0500 (Central Daylight Time),862096.1000000015,A,boy,O,y,224,1,1032.0,861064.1000000015,7160,WL,C,6.0
4,11.780999898910522,learn,48219.00010108948,Tue Jun 03 2025 09:08:01 GMT-0500 (Central Daylight Time),862596.0,A,boyenter,O,enter,492,1,1531.8999999985099,861064.1000000015,7160,WL,C,6.0
4,12.546000003814697,learn,47453.9999961853,Tue Jun 03 2025 09:08:01 GMT-0500 (Central Daylight Time),863361.1000000015,A,d,O,d,754,1,764.9000000022352,862596.1999999993,7160,WL,C,7.0
4,12.94599986076355,learn,47054.00013923645,Tue Jun 03 2025 09:08:01 GMT-0500 (Central Daylight Time),863760.6000000015,A,do,O,o,387,1,1164.4000000022352,862596.1999999993,7160,WL,C,7.0
4,13.16599988937378,learn,46834.00011062622,Tue Jun 03 2025 09:08:01 GMT-0500 (Central Daylight Time),863980.3000000007,A,doc,O,c,206,1,1384.1000000014901,862596.1999999993,7160,WL,C,7.0
4,13.480000019073486,learn,46519.999980926514,Tue Jun 03 2025 09:08:01 GMT-0500 (Central Daylight Time),864294.3000000007,A,doct,O,t,305,1,1698.1000000014901,862596.1999999993,7160,WL,C,7.0
4,13.745999813079834,learn,46254.000186920166,Tue Jun 03 2025 09:08:01 GMT-0500 (Central Daylight Time),864561.1000000015,A,docto,O,o,254,1,1964.9000000022352,862596.1999999993,7160,WL,C,7.0
4,13.91100001335144,learn,46088.99998664856,Tue Jun 03 2025 09:08:01 GMT-0500 (Central Daylight Time),864726.0,A,doctor,O,r,156,1,2129.800000000745,862596.1999999993,7160,WL,C,7.0
4,14.67799997329712,learn,45322.00002670288,Tue Jun 03 2025 09:08:01 GMT-0500 (Central Daylight Time),865492.6999999993,A,doctorenter,O,enter,745,1,2896.5,862596.1999999993,7160,WL,C,7.0
4,15.311999797821045,learn,44688.000202178955,Tue Jun 03 2025 09:08:01 GMT-0500 (Central Daylight Time),866126.3000000007,A,h,O,h,625,1,633.1999999992549,865493.1000000015,7160,WL,C,8.0
4,15.694999933242798,learn,44305.0000667572,Tue Jun 03 2025 09:08:01 GMT-0500 (Central Daylight Time),866509.9000000022,A,ho,O,o,376,1,1016.8000000007451,865493.1000000015,7160,WL,C,8.0
4,15.977999925613403,learn,44022.0000743866,Tue Jun 03 2025 09:08:01 GMT-0500 (Central Daylight Time),866793.1000000015,A,hom,O,m,269,1,1300.0,865493.1000000015,7160,WL,C,8.0
4,17.128000020980835,learn,42871.999979019165,Tue Jun 03 2025 09:08:01 GMT-0500 (Central Daylight Time),867943.0,A,ho,O,backspace,1140,1,2449.89999999851,865493.1000000015,7160,WL,C,8.0
4,17.394999980926514,learn,42605.000019073486,Tue Jun 03 2025 09:08:01 GMT-0500 (Central Daylight Time),868209.4000000022,A,h,O,backspace,247,1,2716.300000000745,865493.1000000015,7160,WL,C,8.0
4,18.227999925613403,learn,41772.0000743866,Tue Jun 03 2025 09:08:01 GMT-0500 (Central Daylight Time),869042.4000000022,A,,O,backspace,820,1,3549.300000000745,865493.1000000015,7160,WL,C,8.0
4,19.110999822616577,learn,40889.00017738342,Tue Jun 03 2025 09:08:01 GMT-0500 (Central Daylight Time),869925.8000000007,A,n,O,n,868,1,4432.699999999255,865493.1000000015,7160,WL,C,8.0
4,19.310999870300293,learn,40689.00012969971,Tue Jun 03 2025 09:08:01 GMT-0500 (Central Daylight Time),870125.5,A,na,O,a,191,1,4632.39999999851,865493.1000000015,7160,WL,C,8.0
4,19.44599986076355,learn,40554.00013923645,Tue Jun 03 2025 09:08:01 GMT-0500 (Central Daylight Time),870260.6000000015,A,nai,O,i,127,1,4767.5,865493.1000000015,7160,WL,C,8.0
4,19.74399995803833,learn,40256.00004196167,Tue Jun 03 2025 09:08:01 GMT-0500 (Central Daylight Time),870558.6000000015,A,nail,O,l,281,1,5065.5,865493.1000000015,7160,WL,C,8.0
4,20.027999877929688,learn,39972.00012207031,Tue Jun 03 2025 09:08:01 GMT-0500 (Central Daylight Time),870842.4000000022,A,nailenter,O,enter,262,1,5349.300000000745,865493.1000000015,7160,WL,C,8.0
4,20.65999984741211,learn,39340.00015258789,Tue Jun 03 2025 09:08:01 GMT-0500 (Central Daylight Time),871474.6999999993,A,c,O,c,613,1,632.0,870842.6999999993,7160,WL,C,9.0
4,20.893999814987183,learn,39106.00018501282,Tue Jun 03 2025 09:08:01 GMT-0500 (Central Daylight Time),871708.8000000007,A,ca,O,a,219,1,866.1000000014901,870842.6999999993,7160,WL,C,9.0
4,21.16100001335144,learn,38838.99998664856,Tue Jun 03 2025 09:08:01 GMT-0500 (Central Daylight Time),871975.4000000022,A,cam,O,m,248,1,1132.7000000029802,870842.6999999993,7160,WL,C,9.0
4,21.494999885559082,learn,38505.00011444092,Tue Jun 03 2025 09:08:01 GMT-0500 (Central Daylight Time),872310.1000000015,A,camp,O,p,329,1,1467.4000000022352,870842.6999999993,7160,WL,C,9.0
4,21.89299988746643,learn,38107.00011253357,Tue Jun 03 2025 09:08:01 GMT-0500 (Central Daylight Time),872707.8000000007,A,campenter,O,enter,382,1,1865.1000000014901,870842.6999999993,7160,WL,C,9.0
4,22.55999994277954,learn,37440.00005722046,Tue Jun 03 2025 09:08:01 GMT-0500 (Central Daylight Time),873374.4000000022,A,f,O,f,658,1,666.4000000022352,872708.0,7160,WL,C,10.0
4,22.89299988746643,learn,37107.00011253357,Tue Jun 03 2025 09:08:01 GMT-0500 (Central Daylight Time),873708.1000000015,A,fl,O,l,328,1,1000.1000000014901,872708.0,7160,WL,C,10.0
4,23.15999984741211,learn,36840.00015258789,Tue Jun 03 2025 09:08:01 GMT-0500 (Central Daylight Time),873974.4000000022,A,fla,O,a,249,1,1266.4000000022352,872708.0,7160,WL,C,10.0
4,23.47599983215332,learn,36524.00016784668,Tue Jun 03 2025 09:08:01 GMT-0500 (Central Daylight Time),874291.1000000015,A,flag,O,g,302,1,1583.1000000014901,872708.0,7160,WL,C,10.0
4,23.95899987220764,learn,36041.00012779236,Tue Jun 03 2025 09:08:01 GMT-0500 (Central Daylight Time),874773.8000000007,A,flagenter,O,enter,461,1,2065.800000000745,872708.0,7160,WL,C,10.0
4,24.658999919891357,learn,35341.00008010864,Tue Jun 03 2025 09:08:01 GMT-0500 (Central Daylight Time),875474.1999999993,A,l,O,l,687,1,700.0999999977648,874774.1000000015,7160,WL,C,11.0
4,25.575999975204468,learn,34424.00002479553,Tue Jun 03 2025 09:08:01 GMT-0500 (Central Daylight Time),876390.9000000022,A,le,O,e,900,1,1616.800000000745,874774.1000000015,7160,WL,C,11.0
4,25.875999927520752,learn,34124.00007247925,Tue Jun 03 2025 09:08:01 GMT-0500 (Central Daylight Time),876690.6999999993,A,let,O,t,279,1,1916.5999999977648,874774.1000000015,7160,WL,C,11.0
4,26.075999975204468,learn,33924.00002479553,Tue Jun 03 2025 09:08:01 GMT-0500 (Central Daylight Time),876890.4000000022,A,lett,O,t,186,1,2116.300000000745,874774.1000000015,7160,WL,C,11.0
4,26.292999982833862,learn,33707.00001716614,Tue Jun 03 2025 09:08:01 GMT-0500 (Central Daylight Time),877107.3000000007,A,lette,O,e,212,1,2333.199999999255,874774.1000000015,7160,WL,C,11.0
4,26.45899987220764,learn,33541.00012779236,Tue Jun 03 2025 09:08:01 GMT-0500 (Central Daylight Time),877274.1999999993,A,letter,O,r,146,1,2500.099999997765,874774.1000000015,7160,WL,C,11.0
4,26.891000032424927,learn,33108.99996757507,Tue Jun 03 2025 09:08:01 GMT-0500 (Central Daylight Time),877705.1999999993,A,letterenter,O,enter,411,1,2931.099999997765,874774.1000000015,7160,WL,C,11.0
4,28.807999849319458,learn,31192.000150680542,Tue Jun 03 2025 09:08:01 GMT-0500 (Central Daylight Time),879622.4000000022,A,c,O,c,1902,1,1917.0,877705.4000000022,7160,WL,C,12.0
4,29.090999841690063,learn,30909.000158309937,Tue Jun 03 2025 09:08:01 GMT-0500 (Central Daylight Time),879905.9000000022,A,ca,O,a,271,1,2200.5,877705.4000000022,7160,WL,C,12.0
4,29.342000007629395,learn,30657.999992370605,Tue Jun 03 2025 09:08:01 GMT-0500 (Central Daylight Time),880156.5,A,cat,O,t,244,1,2451.099999997765,877705.4000000022,7160,WL,C,12.0
4,29.556999921798706,learn,30443.000078201294,Tue Jun 03 2025 09:08:01 GMT-0500 (Central Daylight Time),880371.8000000007,A,catt,O,t,200,1,2666.39999999851,877705.4000000022,7160,WL,C,12.0
4,29.973999977111816,learn,30026.000022888184,Tue Jun 03 2025 09:08:01 GMT-0500 (Central Daylight Time),880788.8000000007,A,cattl,O,l,401,1,3083.39999999851,877705.4000000022,7160,WL,C,12.0
4,30.307999849319458,learn,29692.000150680542,Tue Jun 03 2025 09:08:01 GMT-0500 (Central Daylight Time),881122.8000000007,A,cattle,O,e,328,1,3417.39999999851,877705.4000000022,7160,WL,C,12.0
4,30.722999811172485,learn,29277.000188827515,Tue Jun 03 2025 09:08:01 GMT-0500 (Central Daylight Time),881538.0,A,cattleenter,O,enter,392,1,3832.599999997765,877705.4000000022,7160,WL,C,12.0
4,34.12299990653992,learn,25877.000093460083,Tue Jun 03 2025 09:08:01 GMT-0500 (Central Daylight Time),884937.9000000022,A,s,O,s,3388,1,3399.7000000029802,881538.1999999993,7160,WL,C,13.0
4,34.37299990653992,learn,25627.000093460083,Tue Jun 03 2025 09:08:01 GMT-0500 (Central Daylight Time),885188.0,A,sh,O,h,245,1,3649.800000000745,881538.1999999993,7160,WL,C,13.0
4,34.638999938964844,learn,25361.000061035156,Tue Jun 03 2025 09:08:01 GMT-0500 (Central Daylight Time),885454.1000000015,A,sho,O,o,245,1,3915.900000002235,881538.1999999993,7160,WL,C,13.0
4,34.95700001716614,learn,25042.999982833862,Tue Jun 03 2025 09:08:01 GMT-0500 (Central Daylight Time),885771.3000000007,A,shor,O,r,303,1,4233.10000000149,881538.1999999993,7160,WL,C,13.0
4,35.23799991607666,learn,24762.00008392334,Tue Jun 03 2025 09:08:01 GMT-0500 (Central Daylight Time),886052.4000000022,A,shore,O,e,266,1,4514.20000000298,881538.1999999993,7160,WL,C,13.0
4,35.57200002670288,learn,24427.99997329712,Tue Jun 03 2025 09:08:01 GMT-0500 (Central Daylight Time),886387.1999999993,A,shoreenter,O,enter,329,1,4849.0,881538.1999999993,7160,WL,C,13.0
4,36.1729998588562,learn,23827.0001411438,Tue Jun 03 2025 09:08:01 GMT-0500 (Central Daylight Time),886988.0,A,b,O,b,586,1,600.6999999992549,886387.3000000007,7160,WL,C,14.0
4,36.42199993133545,learn,23578.00006866455,Tue Jun 03 2025 09:08:01 GMT-0500 (Central Daylight Time),887237.0,A,bo,O,o,234,1,849.6999999992549,886387.3000000007,7160,WL,C,14.0
4,36.704999923706055,learn,23295.000076293945,Tue Jun 03 2025 09:08:01 GMT-0500 (Central Daylight Time),887519.8000000007,A,bod,O,d,271,1,1132.5,886387.3000000007,7160,WL,C,14.0
4,37.08899998664856,learn,22911.00001335144,Tue Jun 03 2025 09:08:01 GMT-0500 (Central Daylight Time),887903.1999999993,A,body,O,y,366,1,1515.8999999985099,886387.3000000007,7160,WL,C,14.0
4,37.539000034332275,learn,22460.999965667725,Tue Jun 03 2025 09:08:01 GMT-0500 (Central Daylight Time),888353.5,A,bodyenter,O,enter,437,1,1966.199999999255,886387.3000000007,7160,WL,C,14.0
4,40.55199980735779,learn,19448.000192642212,Tue Jun 03 2025 09:08:01 GMT-0500 (Central Daylight Time),891367.0,A,c,O,c,2996,1,3013.300000000745,888353.6999999993,7160,WL,C,15.0
4,40.770999908447266,learn,19229.000091552734,Tue Jun 03 2025 09:08:01 GMT-0500 (Central Daylight Time),891585.8000000007,A,co,O,o,200,1,3232.10000000149,888353.6999999993,7160,WL,C,15.0
4,41.23699998855591,learn,18763.00001144409,Tue Jun 03 2025 09:08:01 GMT-0500 (Central Daylight Time),892051.5,A,cor,O,r,450,1,3697.800000000745,888353.6999999993,7160,WL,C,15.0
4,41.520999908447266,learn,18479.000091552734,Tue Jun 03 2025 09:08:01 GMT-0500 (Central Daylight Time),892336.1000000015,A,corn,O,n,264,1,3982.400000002235,888353.6999999993,7160,WL,C,15.0
4,41.90399980545044,learn,18096.00019454956,Tue Jun 03 2025 09:08:01 GMT-0500 (Central Daylight Time),892718.3000000007,A,cornenter,O,enter,365,1,4364.60000000149,888353.6999999993,7160,WL,C,15.0
5,0.5840001106262207,learn,60000.0,Tue Jun 03 2025 09:08:01 GMT-0500 (Central Daylight Time),957081.6999999993,A,t,O,t,564,1,583.3999999985099,956498.3000000007,7160,WL,C,1.0
5,0.7999999523162842,learn,60000.0,Tue Jun 03 2025 09:08:01 GMT-0500 (Central Daylight Time),957297.6000000015,A,to,O,o,204,1,799.3000000007451,956498.3000000007,7160,WL,C,1.0
5,1.0840001106262207,learn,60000.0,Tue Jun 03 2025 09:08:01 GMT-0500 (Central Daylight Time),957581.8000000007,A,tow,O,w,276,1,1083.5,956498.3000000007,7160,WL,C,1.0
5,1.315999984741211,learn,60000.0,Tue Jun 03 2025 09:08:01 GMT-0500 (Central Daylight Time),957814.3000000007,A,towe,O,e,215,1,1316.0,956498.3000000007,7160,WL,C,1.0
5,1.4830000400543213,learn,60000.0,Tue Jun 03 2025 09:08:01 GMT-0500 (Central Daylight Time),957980.5,A,tower,O,r,159,1,1482.199999999255,956498.3000000007,7160,WL,C,1.0
5,1.7650001049041748,learn,60000.0,Tue Jun 03 2025 09:08:01 GMT-0500 (Central Daylight Time),958263.4000000022,A,towerenter,O,enter,271,1,1765.1000000014901,956498.3000000007,7160,WL,C,1.0
5,2.4820001125335693,learn,60000.0,Tue Jun 03 2025 09:08:01 GMT-0500 (Central Daylight Time),958979.9000000022,A,q,O,q,711,1,716.3000000007451,958263.6000000015,7160,WL,C,2.0
5,3.1480000019073486,learn,60000.0,Tue Jun 03 2025 09:08:01 GMT-0500 (Central Daylight Time),959646.5,A,,O,backspace,655,1,1382.8999999985099,958263.6000000015,7160,WL,C,2.0
5,3.4660000801086426,learn,60000.0,Tue Jun 03 2025 09:08:01 GMT-0500 (Central Daylight Time),959964.6000000015,A,w,O,w,313,1,1701.0,958263.6000000015,7160,WL,C,2.0
5,3.8489999771118164,learn,60000.0,Tue Jun 03 2025 09:08:01 GMT-0500 (Central Daylight Time),960347.1000000015,A,wh,O,h,370,1,2083.5,958263.6000000015,7160,WL,C,2.0
5,4.29800009727478,learn,60000.0,Tue Jun 03 2025 09:08:01 GMT-0500 (Central Daylight Time),960796.1999999993,A,whe,O,e,443,1,2532.599999997765,958263.6000000015,7160,WL,C,2.0
5,4.617000102996826,learn,60000.0,Tue Jun 03 2025 09:08:01 GMT-0500 (Central Daylight Time),961114.8000000007,A,whea,O,a,297,1,2851.199999999255,958263.6000000015,7160,WL,C,2.0
5,4.898000001907349,learn,60000.0,Tue Jun 03 2025 09:08:01 GMT-0500 (Central Daylight Time),961395.9000000022,A,wheat,O,t,267,1,3132.300000000745,958263.6000000015,7160,WL,C,2.0
5,5.364000082015991,learn,60000.0,Tue Jun 03 2025 09:08:01 GMT-0500 (Central Daylight Time),961862.5,A,wheatenter,O,enter,457,1,3598.89999999851,958263.6000000015,7160,WL,C,2.0
5,6.04800009727478,learn,60000.0,Tue Jun 03 2025 09:08:01 GMT-0500 (Central Daylight Time),962546.0,A,q,O,q,671,1,683.1999999992549,961862.8000000007,7160,WL,C,3.0
5,6.331000089645386,learn,60000.0,Tue Jun 03 2025 09:08:01 GMT-0500 (Central Daylight Time),962828.9000000022,A,qu,O,u,267,1,966.1000000014901,961862.8000000007,7160,WL,C,3.0
5,6.631999969482422,learn,60000.0,Tue Jun 03 2025 09:08:01 GMT-0500 (Central Daylight Time),963129.8000000007,A,que,O,e,289,1,1267.0,961862.8000000007,7160,WL,C,3.0
5,6.8480000495910645,learn,60000.0,Tue Jun 03 2025 09:08:01 GMT-0500 (Central Daylight Time),963346.1999999993,A,quee,O,e,195,1,1483.3999999985099,961862.8000000007,7160,WL,C,3.0
5,7.180999994277954,learn,60000.0,Tue Jun 03 2025 09:08:01 GMT-0500 (Central Daylight Time),963679.1999999993,A,queen,O,n,323,1,1816.3999999985099,961862.8000000007,7160,WL,C,3.0
5,7.5299999713897705,learn,60000.0,Tue Jun 03 2025 09:08:01 GMT-0500 (Central Daylight Time),964028.1999999993,A,queenenter,O,enter,335,1,2165.39999999851,961862.8000000007,7160,WL,C,3.0
5,7.981000185012817,learn,60000.0,Tue Jun 03 2025 09:08:01 GMT-0500 (Central Daylight Time),964479.1999999993,A,s,O,s,433,1,450.79999999701977,964028.4000000022,7160,WL,C,4.0
5,8.315999984741211,learn,60000.0,Tue Jun 03 2025 09:08:01 GMT-0500 (Central Daylight Time),964813.9000000022,A,su,O,u,329,1,785.5,964028.4000000022,7160,WL,C,4.0
5,8.630000114440918,learn,60000.0,Tue Jun 03 2025 09:08:01 GMT-0500 (Central Daylight Time),965128.0,A,sug,O,g,304,1,1099.5999999977648,964028.4000000022,7160,WL,C,4.0
5,8.864000082015991,learn,60000.0,Tue Jun 03 2025 09:08:01 GMT-0500 (Central Daylight Time),965362.4000000022,A,suga,O,a,229,1,1334.0,964028.4000000022,7160,WL,C,4.0
5,9.097000122070312,learn,60000.0,Tue Jun 03 2025 09:08:01 GMT-0500 (Central Daylight Time),965595.1000000015,A,sugar,O,r,220,1,1566.699999999255,964028.4000000022,7160,WL,C,4.0
5,9.430000066757202,learn,60000.0,Tue Jun 03 2025 09:08:01 GMT-0500 (Central Daylight Time),965928.4000000022,A,sugarenter,O,enter,322,1,1900.0,964028.4000000022,7160,WL,C,4.0
5,10.014000177383423,learn,60000.0,Tue Jun 03 2025 09:08:01 GMT-0500 (Central Daylight Time),966512.4000000022,A,h,O,h,566,1,583.7000000029802,965928.6999999993,7160,WL,C,5.0
5,10.230000019073486,learn,60000.0,Tue Jun 03 2025 09:08:01 GMT-0500 (Central Daylight Time),966727.6999999993,A,ho,O,o,204,1,799.0,965928.6999999993,7160,WL,C,5.0
5,10.46399998664856,learn,60000.0,Tue Jun 03 2025 09:08:01 GMT-0500 (Central Daylight Time),966961.9000000022,A,hom,O,m,215,1,1033.2000000029802,965928.6999999993,7160,WL,C,5.0
5,10.796000003814697,learn,60000.0,Tue Jun 03 2025 09:08:01 GMT-0500 (Central Daylight Time),967294.6999999993,A,home,O,e,315,1,1366.0,965928.6999999993,7160,WL,C,5.0
5,11.213000059127808,learn,60000.0,Tue Jun 03 2025 09:08:01 GMT-0500 (Central Daylight Time),967711.5,A,homeenter,O,enter,398,1,1782.800000000745,965928.6999999993,7160,WL,C,5.0
5,11.730000019073486,learn,60000.0,Tue Jun 03 2025 09:08:01 GMT-0500 (Central Daylight Time),968227.8000000007,A,b,O,b,511,1,516.1999999992549,967711.6000000015,7160,WL,C,6.0
5,11.979000091552734,learn,60000.0,Tue Jun 03 2025 09:08:01 GMT-0500 (Central Daylight Time),968477.5,A,bo,O,o,234,1,765.8999999985099,967711.6000000015,7160,WL,C,6.0
5,12.246000051498413,learn,60000.0,Tue Jun 03 2025 09:08:01 GMT-0500 (Central Daylight Time),968743.8000000007,A,boy,O,y,256,1,1032.199999999255,967711.6000000015,7160,WL,C,6.0
5,12.996000051498413,learn,60000.0,Tue Jun 03 2025 09:08:01 GMT-0500 (Central Daylight Time),969494.4000000022,A,boyenter,O,enter,734,1,1782.800000000745,967711.6000000015,7160,WL,C,6.0
5,13.812999963760376,learn,60000.0,Tue Jun 03 2025 09:08:01 GMT-0500 (Central Daylight Time),970310.6999999993,A,d,O,d,799,1,816.0,969494.6999999993,7160,WL,C,7.0
5,14.078999996185303,learn,60000.0,Tue Jun 03 2025 09:08:01 GMT-0500 (Central Daylight Time),970577.5,A,do,O,o,255,1,1082.800000000745,969494.6999999993,7160,WL,C,7.0
5,14.282000064849854,learn,60000.0,Tue Jun 03 2025 09:08:01 GMT-0500 (Central Daylight Time),970780.0,A,doc,O,c,198,1,1285.300000000745,969494.6999999993,7160,WL,C,7.0
5,14.578999996185303,learn,60000.0,Tue Jun 03 2025 09:08:01 GMT-0500 (Central Daylight Time),971077.0,A,doct,O,t,292,1,1582.300000000745,969494.6999999993,7160,WL,C,7.0
5,14.779000043869019,learn,60000.0,Tue Jun 03 2025 09:08:01 GMT-0500 (Central Daylight Time),971277.0,A,docto,O,o,195,1,1782.300000000745,969494.6999999993,7160,WL,C,7.0
5,14.960999965667725,learn,60000.0,Tue Jun 03 2025 09:08:01 GMT-0500 (Central Daylight Time),971459.6000000015,A,doctor,O,r,168,1,1964.9000000022352,969494.6999999993,7160,WL,C,7.0
5,15.312000036239624,learn,60000.0,Tue Jun 03 2025 09:08:01 GMT-0500 (Central Daylight Time),971810.0,A,doctorenter,O,enter,337,1,2315.300000000745,969494.6999999993,7160,WL,C,7.0
5,15.894999980926514,learn,60000.0,Tue Jun 03 2025 09:08:01 GMT-0500 (Central Daylight Time),972393.1000000015,A,c,O,c,563,1,582.9000000022352,971810.1999999993,7160,WL,C,8.0
5,16.128999948501587,learn,60000.0,Tue Jun 03 2025 09:08:01 GMT-0500 (Central Daylight Time),972627.4000000022,A,ca,O,a,212,1,817.2000000029802,971810.1999999993,7160,WL,C,8.0
5,16.311000108718872,learn,60000.0,Tue Jun 03 2025 09:08:01 GMT-0500 (Central Daylight Time),972808.6999999993,A,cam,O,m,171,1,998.5,971810.1999999993,7160,WL,C,8.0
5,16.67799997329712,learn,60000.0,Tue Jun 03 2025 09:08:01 GMT-0500 (Central Daylight Time),973175.8000000007,A,camp,O,p,358,1,1365.6000000014901,971810.1999999993,7160,WL,C,8.0
5,17.210999965667725,learn,60000.0,Tue Jun 03 2025 09:08:01 GMT-0500 (Central Daylight Time),973709.3000000007,A,campenter,O,enter,512,1,1899.1000000014901,971810.1999999993,7160,WL,C,8.0
5,17.92900013923645,learn,60000.0,Tue Jun 03 2025 09:08:01 GMT-0500 (Central Daylight Time),974426.8000000007,A,f,O,f,712,1,717.1999999992549,973709.6000000015,7160,WL,C,9.0
5,18.228000164031982,learn,60000.0,Tue Jun 03 2025 09:08:01 GMT-0500 (Central Daylight Time),974726.4000000022,A,fl,O,l,290,1,1016.8000000007451,973709.6000000015,7160,WL,C,9.0
5,18.47699999809265,learn,60000.0,Tue Jun 03 2025 09:08:01 GMT-0500 (Central Daylight Time),974975.1000000015,A,fla,O,a,239,1,1265.5,973709.6000000015,7160,WL,C,9.0
5,18.861000061035156,learn,60000.0,Tue Jun 03 2025 09:08:01 GMT-0500 (Central Daylight Time),975359.1999999993,A,flad,O,d,380,1,1649.5999999977648,973709.6000000015,7160,WL,C,9.0
5,20.06000018119812,learn,60000.0,Tue Jun 03 2025 09:08:01 GMT-0500 (Central Daylight Time),976558.4000000022,A,fla,O,backspace,1177,1,2848.800000000745,973709.6000000015,7160,WL,C,9.0
5,20.759999990463257,learn,60000.0,Tue Jun 03 2025 09:08:01 GMT-0500 (Central Daylight Time),977258.0,A,flag,O,g,686,1,3548.39999999851,973709.6000000015,7160,WL,C,9.0
5,21.159000158309937,learn,60000.0,Tue Jun 03 2025 09:08:01 GMT-0500 (Central Daylight Time),977657.3000000007,A,flagenter,O,enter,379,1,3947.699999999255,973709.6000000015,7160,WL,C,9.0
5,22.108999967575073,learn,60000.0,Tue Jun 03 2025 09:08:01 GMT-0500 (Central Daylight Time),978606.8000000007,A,d,O,d,933,1,949.3000000007451,977657.5,7160,WL,C,10.0
5,22.424000024795532,learn,60000.0,Tue Jun 03 2025 09:08:01 GMT-0500 (Central Daylight Time),978921.9000000022,A,do,O,o,301,1,1264.4000000022352,977657.5,7160,WL,C,10.0
5,22.657000064849854,learn,60000.0,Tue Jun 03 2025 09:08:01 GMT-0500 (Central Daylight Time),979155.1000000015,A,doc,O,c,228,1,1497.6000000014901,977657.5,7160,WL,C,10.0
5,23.006999969482422,learn,60000.0,Tue Jun 03 2025 09:08:01 GMT-0500 (Central Daylight Time),979505.1000000015,A,doct,O,t,331,1,1847.6000000014901,977657.5,7160,WL,C,10.0
5,23.27500009536743,learn,60000.0,Tue Jun 03 2025 09:08:01 GMT-0500 (Central Daylight Time),979773.6000000015,A,docto,O,o,261,1,2116.10000000149,977657.5,7160,WL,C,10.0
5,23.475000143051147,learn,60000.0,Tue Jun 03 2025 09:08:01 GMT-0500 (Central Daylight Time),979972.8000000007,A,doctor,O,r,192,1,2315.300000000745,977657.5,7160,WL,C,10.0
5,24.141000032424927,learn,60000.0,Tue Jun 03 2025 09:08:01 GMT-0500 (Central Daylight Time),980639.6000000015,A,doctorenter,O,enter,655,1,2982.10000000149,977657.5,7160,WL,C,10.0
5,24.776000022888184,learn,60000.0,Tue Jun 03 2025 09:08:01 GMT-0500 (Central Daylight Time),981273.9000000022,A,s,O,s,624,1,634.0,980639.9000000022,7160,WL,C,11.0
5,24.95900011062622,learn,60000.0,Tue Jun 03 2025 09:08:01 GMT-0500 (Central Daylight Time),981457.4000000022,A,sh,O,h,163,1,817.5,980639.9000000022,7160,WL,C,11.0
5,25.20800018310547,learn,60000.0,Tue Jun 03 2025 09:08:01 GMT-0500 (Central Daylight Time),981705.9000000022,A,sho,O,o,236,1,1066.0,980639.9000000022,7160,WL,C,11.0
5,25.558000087738037,learn,60000.0,Tue Jun 03 2025 09:08:01 GMT-0500 (Central Daylight Time),982056.4000000022,A,shor,O,r,331,1,1416.5,980639.9000000022,7160,WL,C,11.0
5,26.10800004005432,learn,60000.0,Tue Jun 03 2025 09:08:01 GMT-0500 (Central Daylight Time),982606.6000000015,A,shore,O,e,528,1,1966.699999999255,980639.9000000022,7160,WL,C,11.0
5,26.407999992370605,learn,60000.0,Tue Jun 03 2025 09:08:01 GMT-0500 (Central Daylight Time),982906.6000000015,A,shoreenter,O,enter,285,1,2266.699999999255,980639.9000000022,7160,WL,C,11.0
5,27.874000072479248,learn,60000.0,Tue Jun 03 2025 09:08:01 GMT-0500 (Central Daylight Time),984372.3000000007,A,c,O,c,1459,1,1465.5,982906.8000000007,7160,WL,C,12.0
5,28.1560001373291,learn,60000.0,Tue Jun 03 2025 09:08:01 GMT-0500 (Central Daylight Time),984654.4000000022,A,ca,O,a,274,1,1747.6000000014901,982906.8000000007,7160,WL,C,12.0
5,28.424999952316284,learn,60000.0,Tue Jun 03 2025 09:08:01 GMT-0500 (Central Daylight Time),984922.8000000007,A,cat,O,t,264,1,2016.0,982906.8000000007,7160,WL,C,12.0
5,28.641000032424927,learn,60000.0,Tue Jun 03 2025 09:08:01 GMT-0500 (Central Daylight Time),985139.6000000015,A,catt,O,t,202,1,2232.800000000745,982906.8000000007,7160,WL,C,12.0
5,28.843000173568726,learn,60000.0,Tue Jun 03 2025 09:08:01 GMT-0500 (Central Daylight Time),985341.1000000015,A,cattl,O,l,185,1,2434.300000000745,982906.8000000007,7160,WL,C,12.0
5,29.02500009536743,learn,60000.0,Tue Jun 03 2025 09:08:01 GMT-0500 (Central Daylight Time),985522.6999999993,A,cattle,O,e,161,1,2615.89999999851,982906.8000000007,7160,WL,C,12.0
5,29.373000144958496,learn,60000.0,Tue Jun 03 2025 09:08:01 GMT-0500 (Central Daylight Time),985870.9000000022,A,cattleenter,O,enter,338,1,2964.10000000149,982906.8000000007,7160,WL,C,12.0
5,29.805999994277954,learn,60000.0,Tue Jun 03 2025 09:08:01 GMT-0500 (Central Daylight Time),986304.5,A,l,O,l,423,1,433.30000000074506,985871.1999999993,7160,WL,C,13.0
5,30.072999954223633,learn,60000.0,Tue Jun 03 2025 09:08:01 GMT-0500 (Central Daylight Time),986571.4000000022,A,le,O,e,252,1,700.2000000029802,985871.1999999993,7160,WL,C,13.0
5,30.324000120162964,learn,60000.0,Tue Jun 03 2025 09:08:01 GMT-0500 (Central Daylight Time),986822.1000000015,A,let,O,t,243,1,950.9000000022352,985871.1999999993,7160,WL,C,13.0
5,30.557000160217285,learn,60000.0,Tue Jun 03 2025 09:08:01 GMT-0500 (Central Daylight Time),987055.0,A,lett,O,t,223,1,1183.800000000745,985871.1999999993,7160,WL,C,13.0
5,31.058000087738037,learn,60000.0,Tue Jun 03 2025 09:08:01 GMT-0500 (Central Daylight Time),987555.8000000007,A,lette,O,e,493,1,1684.6000000014901,985871.1999999993,7160,WL,C,13.0
5,31.258000135421753,learn,60000.0,Tue Jun 03 2025 09:08:01 GMT-0500 (Central Daylight Time),987756.1000000015,A,letter,O,r,192,1,1884.9000000022352,985871.1999999993,7160,WL,C,13.0
5,31.641000032424927,learn,60000.0,Tue Jun 03 2025 09:08:01 GMT-0500 (Central Daylight Time),988139.5,A,letterenter,O,enter,376,1,2268.300000000745,985871.1999999993,7160,WL,C,13.0
5,33.241000175476074,learn,60000.0,Tue Jun 03 2025 09:08:01 GMT-0500 (Central Daylight Time),989739.0,A,s,O,s,1593,1,1599.300000000745,988139.6999999993,7160,WL,C,14.0
5,33.44000005722046,learn,60000.0,Tue Jun 03 2025 09:08:01 GMT-0500 (Central Daylight Time),989937.8000000007,A,sh,O,h,180,1,1798.1000000014901,988139.6999999993,7160,WL,C,14.0
5,33.67300009727478,learn,60000.0,Tue Jun 03 2025 09:08:01 GMT-0500 (Central Daylight Time),990170.8000000007,A,sho,O,o,218,1,2031.1000000014901,988139.6999999993,7160,WL,C,14.0
5,33.873000144958496,learn,60000.0,Tue Jun 03 2025 09:08:01 GMT-0500 (Central Daylight Time),990370.9000000022,A,shor,O,r,186,1,2231.2000000029802,988139.6999999993,7160,WL,C,14.0
5,34.27300000190735,learn,60000.0,Tue Jun 03 2025 09:08:01 GMT-0500 (Central Daylight Time),990771.3000000007,A,shore,O,e,378,1,2631.60000000149,988139.6999999993,7160,WL,C,14.0
5,34.65499997138977,learn,60000.0,Tue Jun 03 2025 09:08:01 GMT-0500 (Central Daylight Time),991153.0,A,shoreenter,O,enter,360,1,3013.300000000745,988139.6999999993,7160,WL,C,14.0
5,40.769999980926514,learn,60000.0,Tue Jun 03 2025 09:08:01 GMT-0500 (Central Daylight Time),997267.9000000022,A,b,O,b,6101,1,6114.60000000149,991153.3000000007,7160,WL,C,15.0
5,41.003000020980835,learn,60000.0,Tue Jun 03 2025 09:08:01 GMT-0500 (Central Daylight Time),997500.6999999993,A,bo,O,o,213,1,6347.39999999851,991153.3000000007,7160,WL,C,15.0
5,41.28700017929077,learn,60000.0,Tue Jun 03 2025 09:08:01 GMT-0500 (Central Daylight Time),997785.4000000022,A,bod,O,d,270,1,6632.10000000149,991153.3000000007,7160,WL,C,15.0
5,41.57000017166138,learn,60000.0,Tue Jun 03 2025 09:08:01 GMT-0500 (Central Daylight Time),998068.4000000022,A,body,O,y,267,1,6915.10000000149,991153.3000000007,7160,WL,C,15.0
5,41.86899995803833,learn,60000.0,Tue Jun 03 2025 09:08:01 GMT-0500 (Central Daylight Time),998367.1000000015,A,bodyenter,O,enter,279,1,7213.800000000745,991153.3000000007,7160,WL,C,15.0
6,0.7170000076293945,distr,59282.999992370605,Tue Jun 03 2025 09:08:01 GMT-0500 (Central Daylight Time),1065963.9000000022,B,s,O,s,709,1,716.5,1065247.4000000022,7160,WL,C,1.0
6,1.1170001029968262,distr,58882.999897003174,Tue Jun 03 2025 09:08:01 GMT-0500 (Central Daylight Time),1066364.6000000015,B,sh,O,h,377,1,1117.199999999255,1065247.4000000022,7160,WL,C,1.0
6,1.5,distr,58500.0,Tue Jun 03 2025 09:08:01 GMT-0500 (Central Daylight Time),1066746.8000000007,B,shy,O,y,361,1,1499.3999999985099,1065247.4000000022,7160,WL,C,1.0
6,2.4660000801086426,distr,57533.99991989136,Tue Jun 03 2025 09:08:01 GMT-0500 (Central Daylight Time),1067713.3000000007,B,sh,O,backspace,944,1,2465.89999999851,1065247.4000000022,7160,WL,C,1.0
6,2.614000082015991,distr,57385.99991798401,Tue Jun 03 2025 09:08:01 GMT-0500 (Central Daylight Time),1067861.6999999993,B,s,O,backspace,138,1,2614.2999999970198,1065247.4000000022,7160,WL,C,1.0
6,3.197999954223633,distr,56802.00004577637,Tue Jun 03 2025 09:08:01 GMT-0500 (Central Daylight Time),1068445.3000000007,B,sk,O,k,568,1,3197.89999999851,1065247.4000000022,7160,WL,C,1.0
6,3.5179998874664307,distr,56482.00011253357,Tue Jun 03 2025 09:08:01 GMT-0500 (Central Daylight Time),1068765.1000000015,B,sky,O,y,306,1,3517.699999999255,1065247.4000000022,7160,WL,C,1.0
6,3.8980000019073486,distr,56101.99999809265,Tue Jun 03 2025 09:08:01 GMT-0500 (Central Daylight Time),1069145.5,B,skyenter,O,enter,358,1,3898.099999997765,1065247.4000000022,7160,WL,C,1.0
6,4.499000072479248,distr,55500.99992752075,Tue Jun 03 2025 09:08:01 GMT-0500 (Central Daylight Time),1069746.8000000007,B,f,O,f,581,1,601.1000000014901,1069145.6999999993,7160,WL,C,2.0
6,5.230999946594238,distr,54769.00005340576,Tue Jun 03 2025 09:08:01 GMT-0500 (Central Daylight Time),1070478.6000000015,B,fl,O,l,715,1,1332.9000000022352,1069145.6999999993,7160,WL,C,2.0
6,5.5329999923706055,distr,54467.000007629395,Tue Jun 03 2025 09:08:01 GMT-0500 (Central Daylight Time),1070780.1000000015,B,flo,O,o,294,1,1634.4000000022352,1069145.6999999993,7160,WL,C,2.0
6,5.815000057220459,distr,54184.99994277954,Tue Jun 03 2025 09:08:01 GMT-0500 (Central Daylight Time),1071062.3000000007,B,flow,O,w,276,1,1916.6000000014901,1069145.6999999993,7160,WL,C,2.0
6,6.01200008392334,distr,53987.99991607666,Tue Jun 03 2025 09:08:01 GMT-0500 (Central Daylight Time),1071259.1999999993,B,flowe,O,e,190,1,2113.5,1069145.6999999993,7160,WL,C,2.0
6,6.2820000648498535,distr,53717.99993515015,Tue Jun 03 2025 09:08:01 GMT-0500 (Central Daylight Time),1071528.9000000022,B,flower,O,r,250,1,2383.2000000029802,1069145.6999999993,7160,WL,C,2.0
6,6.513999938964844,distr,53486.000061035156,Tue Jun 03 2025 09:08:01 GMT-0500 (Central Daylight Time),1071761.4000000022,B,flowerenter,O,enter,209,1,2615.7000000029802,1069145.6999999993,7160,WL,C,2.0
6,7.197000026702881,distr,52802.99997329712,Tue Jun 03 2025 09:08:01 GMT-0500 (Central Daylight Time),1072444.4000000022,B,b,O,b,668,1,682.7000000029802,1071761.6999999993,7160,WL,C,3.0
6,7.615000009536743,distr,52384.99999046326,Tue Jun 03 2025 09:08:01 GMT-0500 (Central Daylight Time),1072862.1000000015,B,bu,O,u,410,1,1100.4000000022352,1071761.6999999993,7160,WL,C,3.0
6,7.897000074386597,distr,52102.9999256134,Tue Jun 03 2025 09:08:01 GMT-0500 (Central Daylight Time),1073144.4000000022,B,but,O,t,271,1,1382.7000000029802,1071761.6999999993,7160,WL,C,3.0
6,8.11299991607666,distr,51887.00008392334,Tue Jun 03 2025 09:08:01 GMT-0500 (Central Daylight Time),1073360.8000000007,B,butt,O,t,196,1,1599.1000000014901,1071761.6999999993,7160,WL,C,3.0
6,8.332000017166138,distr,51667.99998283386,Tue Jun 03 2025 09:08:01 GMT-0500 (Central Daylight Time),1073579.1000000015,B,butte,O,e,201,1,1817.4000000022352,1071761.6999999993,7160,WL,C,3.0
6,8.447999954223633,distr,51552.00004577637,Tue Jun 03 2025 09:08:01 GMT-0500 (Central Daylight Time),1073695.6999999993,B,butter,O,r,97,1,1934.0,1071761.6999999993,7160,WL,C,3.0
6,8.765000104904175,distr,51234.999895095825,Tue Jun 03 2025 09:08:01 GMT-0500 (Central Daylight Time),1074012.4000000022,B,butterenter,O,enter,312,1,2250.7000000029802,1071761.6999999993,7160,WL,C,3.0
6,10.081000089645386,distr,49918.999910354614,Tue Jun 03 2025 09:08:01 GMT-0500 (Central Daylight Time),1075328.0,B,c,O,c,1296,1,1315.300000000745,1074012.6999999993,7160,WL,C,4.0
6,10.296000003814697,distr,49703.9999961853,Tue Jun 03 2025 09:08:01 GMT-0500 (Central Daylight Time),1075543.1999999993,B,ch,O,h,197,1,1530.5,1074012.6999999993,7160,WL,C,4.0
6,10.61299991607666,distr,49387.00008392334,Tue Jun 03 2025 09:08:01 GMT-0500 (Central Daylight Time),1075859.9000000022,B,chr,O,r,303,1,1847.2000000029802,1074012.6999999993,7160,WL,C,4.0
6,10.861999988555908,distr,49138.00001144409,Tue Jun 03 2025 09:08:01 GMT-0500 (Central Daylight Time),1076109.6999999993,B,chri,O,i,242,1,2097.0,1074012.6999999993,7160,WL,C,4.0
6,11.078999996185303,distr,48921.0000038147,Tue Jun 03 2025 09:08:01 GMT-0500 (Central Daylight Time),1076326.3000000007,B,chris,O,s,209,1,2313.60000000149,1074012.6999999993,7160,WL,C,4.0
6,11.312000036239624,distr,48687.999963760376,Tue Jun 03 2025 09:08:01 GMT-0500 (Central Daylight Time),1076559.6999999993,B,christ,O,t,213,1,2547.0,1074012.6999999993,7160,WL,C,4.0
6,11.645999908447266,distr,48354.000091552734,Tue Jun 03 2025 09:08:01 GMT-0500 (Central Daylight Time),1076893.3000000007,B,christm,O,m,318,1,2880.60000000149,1074012.6999999993,7160,WL,C,4.0
6,11.82800006866455,distr,48171.99993133545,Tue Jun 03 2025 09:08:01 GMT-0500 (Central Daylight Time),1077075.4000000022,B,christma,O,a,168,1,3062.7000000029802,1074012.6999999993,7160,WL,C,4.0
6,12.145999908447266,distr,47854.000091552734,Tue Jun 03 2025 09:08:01 GMT-0500 (Central Daylight Time),1077393.5,B,christmas,O,s,305,1,3380.800000000745,1074012.6999999993,7160,WL,C,4.0
6,12.57699990272522,distr,47423.00009727478,Tue Jun 03 2025 09:08:01 GMT-0500 (Central Daylight Time),1077824.3000000007,B,christmasenter,O,enter,420,1,3811.60000000149,1074012.6999999993,7160,WL,C,4.0
6,13.027999877929688,distr,46972.00012207031,Tue Jun 03 2025 09:08:01 GMT-0500 (Central Daylight Time),1078275.6000000015,B,t,O,t,437,1,451.0,1077824.6000000015,7160,WL,C,5.0
6,13.279000043869019,distr,46720.99995613098,Tue Jun 03 2025 09:08:01 GMT-0500 (Central Daylight Time),1078526.1000000015,B,to,O,o,234,1,701.5,1077824.6000000015,7160,WL,C,5.0
6,13.444999933242798,distr,46555.0000667572,Tue Jun 03 2025 09:08:01 GMT-0500 (Central Daylight Time),1078691.9000000022,B,too,O,o,151,1,867.3000000007451,1077824.6000000015,7160,WL,C,5.0
6,13.961999893188477,distr,46038.00010681152,Tue Jun 03 2025 09:08:01 GMT-0500 (Central Daylight Time),1079209.3000000007,B,tool,O,l,495,1,1384.699999999255,1077824.6000000015,7160,WL,C,5.0
6,14.328999996185303,distr,45671.0000038147,Tue Jun 03 2025 09:08:01 GMT-0500 (Central Daylight Time),1079576.1000000015,B,toolenter,O,enter,357,1,1751.5,1077824.6000000015,7160,WL,C,5.0
6,18.509999990463257,distr,41490.00000953674,Tue Jun 03 2025 09:08:01 GMT-0500 (Central Daylight Time),1083757.8000000007,B,m,O,m,4176,1,4181.5,1079576.3000000007,7160,WL,C,6.0
6,18.74399995803833,distr,41256.00004196167,Tue Jun 03 2025 09:08:01 GMT-0500 (Central Daylight Time),1083991.1000000015,B,mo,O,o,215,1,4414.800000000745,1079576.3000000007,7160,WL,C,6.0
6,19.009999990463257,distr,40990.00000953674,Tue Jun 03 2025 09:08:01 GMT-0500 (Central Daylight Time),1084257.1000000015,B,mot,O,t,254,1,4680.800000000745,1079576.3000000007,7160,WL,C,6.0
6,19.14299988746643,distr,40857.00011253357,Tue Jun 03 2025 09:08:01 GMT-0500 (Central Daylight Time),1084390.6000000015,B,moth,O,h,115,1,4814.300000000745,1079576.3000000007,7160,WL,C,6.0
6,19.4760000705719,distr,40523.9999294281,Tue Jun 03 2025 09:08:01 GMT-0500 (Central Daylight Time),1084723.1999999993,B,mothe,O,e,310,1,5146.89999999851,1079576.3000000007,7160,WL,C,6.0
6,19.64299988746643,distr,40357.00011253357,Tue Jun 03 2025 09:08:01 GMT-0500 (Central Daylight Time),1084891.0,B,mother,O,r,149,1,5314.699999999255,1079576.3000000007,7160,WL,C,6.0
6,20.061000108718872,distr,39938.99989128113,Tue Jun 03 2025 09:08:01 GMT-0500 (Central Daylight Time),1085308.1999999993,B,motherenter,O,enter,411,1,5731.89999999851,1079576.3000000007,7160,WL,C,6.0
6,20.592999935150146,distr,39407.00006484985,Tue Jun 03 2025 09:08:01 GMT-0500 (Central Daylight Time),1085840.1999999993,B,m,O,m,522,1,531.6999999992549,1085308.5,7160,WL,C,7.0
6,20.80999994277954,distr,39190.00005722046,Tue Jun 03 2025 09:08:01 GMT-0500 (Central Daylight Time),1086057.0,B,me,O,e,205,1,748.5,1085308.5,7160,WL,C,7.0
6,21.05999994277954,distr,38940.00005722046,Tue Jun 03 2025 09:08:01 GMT-0500 (Central Daylight Time),1086307.4000000022,B,mea,O,a,226,1,998.9000000022352,1085308.5,7160,WL,C,7.0
6,21.259000062942505,distr,38740.999937057495,Tue Jun 03 2025 09:08:01 GMT-0500 (Central Daylight Time),1086506.6999999993,B,meat,O,t,193,1,1198.199999999255,1085308.5,7160,WL,C,7.0
6,21.54099988937378,distr,38459.00011062622,Tue Jun 03 2025 09:08:01 GMT-0500 (Central Daylight Time),1086788.9000000022,B,meatenter,O,enter,276,1,1480.4000000022352,1085308.5,7160,WL,C,7.0
6,21.94099998474121,distr,38059.00001525879,Tue Jun 03 2025 09:08:01 GMT-0500 (Central Daylight Time),1087188.8000000007,B,t,O,t,392,1,399.6000000014901,1086789.1999999993,7160,WL,C,8.0
6,22.157999992370605,distr,37842.000007629395,Tue Jun 03 2025 09:08:01 GMT-0500 (Central Daylight Time),1087405.9000000022,B,to,O,o,211,1,616.7000000029802,1086789.1999999993,7160,WL,C,8.0
6,22.325999975204468,distr,37674.00002479553,Tue Jun 03 2025 09:08:01 GMT-0500 (Central Daylight Time),1087573.5,B,too,O,o,152,1,784.3000000007451,1086789.1999999993,7160,WL,C,8.0
6,22.575000047683716,distr,37424.999952316284,Tue Jun 03 2025 09:08:01 GMT-0500 (Central Daylight Time),1087822.6000000015,B,tool,O,l,243,1,1033.4000000022352,1086789.1999999993,7160,WL,C,8.0
6,24.60800004005432,distr,35391.99995994568,Tue Jun 03 2025 09:08:01 GMT-0500 (Central Daylight Time),1089855.0,B,toolenter,O,enter,2014,1,3065.800000000745,1086789.1999999993,7160,WL,C,8.0
6,29.973999977111816,distr,30026.000022888184,Tue Jun 03 2025 09:08:01 GMT-0500 (Central Daylight Time),1095221.3000000007,B,h,O,h,5360,1,5366.10000000149,1089855.1999999993,7160,WL,C,9.0
6,30.174000024795532,distr,29825.999975204468,Tue Jun 03 2025 09:08:01 GMT-0500 (Central Daylight Time),1095421.5,B,ha,O,a,193,1,5566.300000000745,1089855.1999999993,7160,WL,C,9.0
6,30.35599994659424,distr,29644.00005340576,Tue Jun 03 2025 09:08:01 GMT-0500 (Central Daylight Time),1095603.4000000022,B,hal,O,l,169,1,5748.20000000298,1089855.1999999993,7160,WL,C,9.0
6,30.522000074386597,distr,29477.999925613403,Tue Jun 03 2025 09:08:01 GMT-0500 (Central Daylight Time),1095769.5,B,hall,O,l,146,1,5914.300000000745,1089855.1999999993,7160,WL,C,9.0
6,30.73900008201599,distr,29260.99991798401,Tue Jun 03 2025 09:08:01 GMT-0500 (Central Daylight Time),1095986.1999999993,B,hallenter,O,enter,211,1,6131.0,1089855.1999999993,7160,WL,C,9.0
6,39.70300006866455,distr,20296.99993133545,Tue Jun 03 2025 09:08:01 GMT-0500 (Central Daylight Time),1104950.3000000007,B,enter,O,enter,8949,1,8964.0,1095986.3000000007,7160,WL,C,10.0
6,40.003000020980835,distr,19996.999979019165,Tue Jun 03 2025 09:08:01 GMT-0500 (Central Daylight Time),1105250.1999999993,B,enter,O,enter,288,1,299.69999999925494,1104950.5,7160,WL,C,11.0
6,40.253000020980835,distr,19746.999979019165,Tue Jun 03 2025 09:08:01 GMT-0500 (Central Daylight Time),1105500.4000000022,B,enter,O,enter,235,1,249.90000000223517,1105250.5,7160,WL,C,12.0
6,40.43600010871887,distr,19563.999891281128,Tue Jun 03 2025 09:08:01 GMT-0500 (Central Daylight Time),1105683.0,B,enter,O,enter,178,1,182.39999999850988,1105500.6000000015,7160,WL,C,13.0
6,40.835999965667725,distr,19164.000034332275,Tue Jun 03 2025 09:08:01 GMT-0500 (Central Daylight Time),1106083.1999999993,B,enter,O,enter,387,1,399.8999999985099,1105683.3000000007,7160,WL,C,14.0
6,41.35199999809265,distr,18648.00000190735,Tue Jun 03 2025 09:08:01 GMT-0500 (Central Daylight Time),1106599.8000000007,B,enter,O,enter,506,1,516.3000000007451,1106083.5,7160,WL,C,15.0
7,6.313999891281128,immed,53686.00010871887,Tue Jun 03 2025 09:08:01 GMT-0500 (Central Daylight Time),1114063.6000000015,A,s,O,s,6304,1,6314.10000000149,1107749.5,7160,WL,C,1.0
7,7.764999866485596,immed,52235.000133514404,Tue Jun 03 2025 09:08:01 GMT-0500 (Central Daylight Time),1115514.4000000022,A,sk,O,k,1439,1,7764.900000002235,1107749.5,7160,WL,C,1.0
7,8.21399998664856,immed,51786.00001335144,Tue Jun 03 2025 09:08:01 GMT-0500 (Central Daylight Time),1115964.0,A,sky,O,y,435,1,8214.5,1107749.5,7160,WL,C,1.0
7,10.014999866485596,immed,49985.000133514404,Tue Jun 03 2025 09:08:01 GMT-0500 (Central Daylight Time),1117764.8000000007,A,skyf,O,f,1786,1,10015.300000000745,1107749.5,7160,WL,C,1.0
7,10.730000019073486,immed,49269.999980926514,Tue Jun 03 2025 09:08:01 GMT-0500 (Central Daylight Time),1118479.1999999993,A,skyfl,O,l,703,1,10729.699999999255,1107749.5,7160,WL,C,1.0
7,11.230000019073486,immed,48769.999980926514,Tue Jun 03 2025 09:08:01 GMT-0500 (Central Daylight Time),1118979.9000000022,A,skyflo,O,o,486,1,11230.400000002235,1107749.5,7160,WL,C,1.0
7,12.129999876022339,immed,47870.00012397766,Tue Jun 03 2025 09:08:01 GMT-0500 (Central Daylight Time),1119879.8000000007,A,skyfl,O,backspace,891,1,12130.300000000745,1107749.5,7160,WL,C,1.0
7,12.363999843597412,immed,47636.00015640259,Tue Jun 03 2025 09:08:01 GMT-0500 (Central Daylight Time),1120113.1000000015,A,skyf,O,backspace,213,1,12363.60000000149,1107749.5,7160,WL,C,1.0
7,12.843999862670898,immed,47156.0001373291,Tue Jun 03 2025 09:08:01 GMT-0500 (Central Daylight Time),1120593.6000000015,A,sky,O,backspace,467,1,12844.10000000149,1107749.5,7160,WL,C,1.0
7,14.678999900817871,immed,45321.00009918213,Tue Jun 03 2025 09:08:01 GMT-0500 (Central Daylight Time),1122428.5999999978,A,skyenter,O,enter,1826,1,14679.099999997765,1107749.5,7160,WL,C,1.0
7,16.04699993133545,immed,43953.00006866455,Tue Jun 03 2025 09:08:01 GMT-0500 (Central Daylight Time),1123796.0999999978,A,f,O,f,1345,1,1367.1999999955297,1122428.9000000022,7160,WL,C,2.0
7,16.2979998588562,immed,43702.0001411438,Tue Jun 03 2025 09:08:01 GMT-0500 (Central Daylight Time),1124047.5999999978,A,fl,O,l,244,1,1618.6999999955297,1122428.9000000022,7160,WL,C,2.0
7,16.59599995613098,immed,43404.00004386902,Tue Jun 03 2025 09:08:01 GMT-0500 (Central Daylight Time),1124345.3000000007,A,flo,O,o,285,1,1916.3999999985099,1122428.9000000022,7160,WL,C,2.0
7,16.895999908447266,immed,43104.000091552734,Tue Jun 03 2025 09:08:01 GMT-0500 (Central Daylight Time),1124645.0999999978,A,flow,O,w,296,1,2216.1999999955297,1122428.9000000022,7160,WL,C,2.0
7,17.143999814987183,immed,42856.00018501282,Tue Jun 03 2025 09:08:01 GMT-0500 (Central Daylight Time),1124893.5999999978,A,flowe,O,e,231,1,2464.6999999955297,1122428.9000000022,7160,WL,C,2.0
7,17.394999980926514,immed,42605.000019073486,Tue Jun 03 2025 09:08:01 GMT-0500 (Central Daylight Time),1125144.3000000007,A,flower,O,r,240,1,2715.39999999851,1122428.9000000022,7160,WL,C,2.0
7,17.926999807357788,immed,42073.00019264221,Tue Jun 03 2025 09:08:01 GMT-0500 (Central Daylight Time),1125676.3000000007,A,flowerenter,O,enter,517,1,3247.39999999851,1122428.9000000022,7160,WL,C,2.0
7,18.66100001335144,immed,41338.99998664856,Tue Jun 03 2025 09:08:01 GMT-0500 (Central Daylight Time),1126410.9000000022,A,b,O,b,722,1,734.2000000029802,1125676.6999999993,7160,WL,C,3.0
7,19.32699990272522,immed,40673.00009727478,Tue Jun 03 2025 09:08:01 GMT-0500 (Central Daylight Time),1127076.5000000037,A,bu,O,u,649,1,1399.8000000044703,1125676.6999999993,7160,WL,C,3.0
7,19.610999822616577,immed,40389.00017738342,Tue Jun 03 2025 09:08:01 GMT-0500 (Central Daylight Time),1127360.4000000022,A,but,O,t,273,1,1683.7000000029802,1125676.6999999993,7160,WL,C,3.0
7,19.84499979019165,immed,40155.00020980835,Tue Jun 03 2025 09:08:01 GMT-0500 (Central Daylight Time),1127594.3000000007,A,butt,O,t,212,1,1917.6000000014901,1125676.6999999993,7160,WL,C,3.0
7,20.110999822616577,immed,39889.00017738342,Tue Jun 03 2025 09:08:01 GMT-0500 (Central Daylight Time),1127860.3000000007,A,butte,O,e,250,1,2183.60000000149,1125676.6999999993,7160,WL,C,3.0
7,20.227999925613403,immed,39772.0000743866,Tue Jun 03 2025 09:08:01 GMT-0500 (Central Daylight Time),1127977.5999999978,A,butter,O,r,95,1,2300.89999999851,1125676.6999999993,7160,WL,C,3.0
7,20.625999927520752,immed,39374.00007247925,Tue Jun 03 2025 09:08:01 GMT-0500 (Central Daylight Time),1128375.8000000007,A,butterenter,O,enter,378,1,2699.10000000149,1125676.6999999993,7160,WL,C,3.0
7,22.009999990463257,immed,37990.00000953674,Tue Jun 03 2025 09:08:01 GMT-0500 (Central Daylight Time),1129759.1999999993,A,c,O,c,1367,1,1383.1999999955297,1128376.0000000037,7160,WL,C,4.0
7,22.22599983215332,immed,37774.00016784668,Tue Jun 03 2025 09:08:01 GMT-0500 (Central Daylight Time),1129975.0999999978,A,ch,O,h,205,1,1599.0999999940395,1128376.0000000037,7160,WL,C,4.0
7,22.526999950408936,immed,37473.000049591064,Tue Jun 03 2025 09:08:01 GMT-0500 (Central Daylight Time),1130277.0000000037,A,chr,O,r,286,1,1901.0,1128376.0000000037,7160,WL,C,4.0
7,22.758999824523926,immed,37241.000175476074,Tue Jun 03 2025 09:08:01 GMT-0500 (Central Daylight Time),1130508.9000000022,A,chri,O,i,224,1,2132.89999999851,1128376.0000000037,7160,WL,C,4.0
7,22.97699999809265,immed,37023.00000190735,Tue Jun 03 2025 09:08:01 GMT-0500 (Central Daylight Time),1130726.1999999993,A,chris,O,s,210,1,2350.1999999955297,1128376.0000000037,7160,WL,C,4.0
7,23.424999952316284,immed,36575.000047683716,Tue Jun 03 2025 09:08:01 GMT-0500 (Central Daylight Time),1131174.5999999978,A,christ,O,t,438,1,2798.5999999940395,1128376.0000000037,7160,WL,C,4.0
7,23.70799994468689,immed,36292.00005531311,Tue Jun 03 2025 09:08:01 GMT-0500 (Central Daylight Time),1131457.5000000037,A,christm,O,m,272,1,3081.5,1128376.0000000037,7160,WL,C,4.0
7,23.90999984741211,immed,36090.00015258789,Tue Jun 03 2025 09:08:01 GMT-0500 (Central Daylight Time),1131659.6999999993,A,christma,O,a,198,1,3283.6999999955297,1128376.0000000037,7160,WL,C,4.0
7,24.14299988746643,immed,35857.00011253357,Tue Jun 03 2025 09:08:01 GMT-0500 (Central Daylight Time),1131892.6999999993,A,christmas,O,s,224,1,3516.6999999955297,1128376.0000000037,7160,WL,C,4.0
7,24.47499990463257,immed,35525.00009536743,Tue Jun 03 2025 09:08:01 GMT-0500 (Central Daylight Time),1132224.4000000022,A,christmasenter,O,enter,312,1,3848.39999999851,1128376.0000000037,7160,WL,C,4.0
7,25.108999967575073,immed,34891.00003242493,Tue Jun 03 2025 09:08:01 GMT-0500 (Central Daylight Time),1132858.6999999993,A,m,O,m,614,1,634.1000000014901,1132224.5999999978,7160,WL,C,5.0
7,25.325999975204468,immed,34674.00002479553,Tue Jun 03 2025 09:08:01 GMT-0500 (Central Daylight Time),1133075.8000000007,A,mo,O,o,194,1,851.2000000029802,1132224.5999999978,7160,WL,C,5.0
7,25.525999784469604,immed,34474.000215530396,Tue Jun 03 2025 09:08:01 GMT-0500 (Central Daylight Time),1133275.0000000037,A,mot,O,t,184,1,1050.4000000059605,1132224.5999999978,7160,WL,C,5.0
7,25.64199995994568,immed,34358.00004005432,Tue Jun 03 2025 09:08:01 GMT-0500 (Central Daylight Time),1133391.5999999978,A,moth,O,h,97,1,1167.0,1132224.5999999978,7160,WL,C,5.0
7,25.908999919891357,immed,34091.00008010864,Tue Jun 03 2025 09:08:01 GMT-0500 (Central Daylight Time),1133658.4000000022,A,mothe,O,e,254,1,1433.8000000044703,1132224.5999999978,7160,WL,C,5.0
7,26.72499990463257,immed,33275.00009536743,Tue Jun 03 2025 09:08:01 GMT-0500 (Central Daylight Time),1134474.9000000022,A,mother,O,r,810,1,2250.3000000044703,1132224.5999999978,7160,WL,C,5.0
7,26.97499990463257,immed,33025.00009536743,Tue Jun 03 2025 09:08:01 GMT-0500 (Central Daylight Time),1134724.3000000007,A,motherenter,O,enter,244,1,2499.7000000029802,1132224.5999999978,7160,WL,C,5.0
7,27.607999801635742,immed,32392.000198364258,Tue Jun 03 2025 09:08:01 GMT-0500 (Central Daylight Time),1135358.0000000037,A,t,O,t,617,1,633.4000000059605,1134724.5999999978,7160,WL,C,6.0
7,27.823999881744385,immed,32176.000118255615,Tue Jun 03 2025 09:08:01 GMT-0500 (Central Daylight Time),1135573.8000000007,A,to,O,o,195,1,849.2000000029802,1134724.5999999978,7160,WL,C,6.0
7,27.97599983215332,immed,32024.00016784668,Tue Jun 03 2025 09:08:01 GMT-0500 (Central Daylight Time),1135726.0000000037,A,too,O,o,144,1,1001.4000000059605,1134724.5999999978,7160,WL,C,6.0
7,28.357999801635742,immed,31642.000198364258,Tue Jun 03 2025 09:08:01 GMT-0500 (Central Daylight Time),1136107.5000000037,A,tool,O,l,368,1,1382.9000000059605,1134724.5999999978,7160,WL,C,6.0
7,28.740999937057495,immed,31259.000062942505,Tue Jun 03 2025 09:08:01 GMT-0500 (Central Daylight Time),1136490.5000000037,A,toolenter,O,enter,363,1,1765.9000000059605,1134724.5999999978,7160,WL,C,6.0
7,34.02300000190735,immed,25976.99999809265,Tue Jun 03 2025 09:08:01 GMT-0500 (Central Daylight Time),1141772.8000000007,A,enter,O,enter,5278,1,5282.0,1136490.8000000007,7160,WL,C,7.0
7,34.305999994277954,immed,25694.000005722046,Tue Jun 03 2025 09:08:01 GMT-0500 (Central Daylight Time),1142055.4000000022,A,enter,O,enter,264,1,282.30000000447035,1141773.0999999978,7160,WL,C,8.0
7,34.52199983596802,immed,25478.000164031982,Tue Jun 03 2025 09:08:01 GMT-0500 (Central Daylight Time),1142271.4000000022,A,enter,O,enter,198,1,215.70000000298023,1142055.6999999993,7160,WL,C,9.0
7,34.70599985122681,immed,25294.000148773193,Tue Jun 03 2025 09:08:01 GMT-0500 (Central Daylight Time),1142455.5999999978,A,enter,O,enter,175,1,183.89999999850988,1142271.6999999993,7160,WL,C,10.0
7,34.90599989891052,immed,25094.000101089478,Tue Jun 03 2025 09:08:01 GMT-0500 (Central Daylight Time),1142656.0999999978,A,enter,O,enter,183,1,200.09999999403954,1142456.0000000037,7160,WL,C,11.0
7,35.10599994659424,immed,24894.00005340576,Tue Jun 03 2025 09:08:01 GMT-0500 (Central Daylight Time),1142855.5999999978,A,enter,O,enter,182,1,199.29999999701977,1142656.3000000007,7160,WL,C,12.0
7,35.52199983596802,immed,24478.000164031982,Tue Jun 03 2025 09:08:01 GMT-0500 (Central Daylight Time),1143271.1999999993,A,enter,O,enter,397,1,415.19999999552965,1142856.0000000037,7160,WL,C,13.0
7,35.788999795913696,immed,24211.000204086304,Tue Jun 03 2025 09:08:01 GMT-0500 (Central Daylight Time),1143538.4000000022,A,enter,O,enter,255,1,266.8999999985099,1143271.5000000037,7160,WL,C,14.0
7,36.621999979019165,immed,23378.000020980835,Tue Jun 03 2025 09:08:01 GMT-0500 (Central Daylight Time),1144371.6999999993,A,enter,O,enter,829,1,832.8999999985099,1143538.8000000007,7160,WL,C,15.0
