acc_sum,block,block_c,condition,correct,correct_response,datetime,endtime,flanker,jitter,project,response,response_test_buffer_response,response_test_target_response,response_time,response_time_test_buffer_response,response_time_test_target_response,row_sel,session_number,start_end,starttime,subject_id,target,task,task_vers,time_test_buffer,time_test_buffer_response,time_test_constants,time_test_flanker,time_test_jitter,time_test_logger,time_test_target,time_test_target_response,time_test_variables,trial
1,prac,1,inc,1,m,Wed Jun 11 2025 10:51:57 GMT-0500 (Central Daylight Time),78600.5,hate,1100,O,m,,,742,,,4,1,3145.0999999046326,75455.40000009537,7165,film,AF,B,,,,,,,,,,1
1,prac,1,con,0,z,Wed Jun 11 2025 10:51:57 GMT-0500 (Central Daylight Time),81599.60000014305,brutal,800,O,m,,,868,,,13,1,2970.800000190735,78628.79999995232,7165,brutal,AF,B,,,,,,,,,,2
2,prac,1,con,1,z,Wed Jun 11 2025 10:51:57 GMT-0500 (Central Daylight Time),84448.40000009537,elated,800,O,z,,,725,,,9,1,2824.9000000953674,81623.5,7165,elated,AF,B,,,,,,,,,,3
3,prac,1,con,1,m,Wed Jun 11 2025 10:51:57 GMT-0500 (Central Daylight Time),87497.29999995232,remote,1000,O,m,,,716,,,7,1,3024.0999999046326,84473.20000004768,7165,remote,AF,B,,,,,,,,,,4
4,prac,1,con,1,z,Wed Jun 11 2025 10:51:57 GMT-0500 (Central Daylight Time),90846.60000014305,rage,1000,O,z,,,1025,,,15,1,3329.800000190735,87516.79999995232,7165,rage,AF,B,,,,,,,,,,5
5,prac,1,con,1,z,Wed Jun 11 2025 10:51:57 GMT-0500 (Central Daylight Time),93661.79999995232,love,1000,O,z,,,486,,,11,1,2790.699999809265,90871.10000014305,7165,love,AF,B,,,,,,,,,,6
6,prac,1,inc,1,z,Wed Jun 11 2025 10:51:57 GMT-0500 (Central Daylight Time),96577.90000009537,rock,900,O,z,,,690,,,10,1,2893.0,93684.90000009537,7165,kind,AF,B,,,,,,,,,,7
7,prac,1,con,1,m,Wed Jun 11 2025 10:51:57 GMT-0500 (Central Daylight Time),99560.10000014305,bell,1000,O,m,,,658,,,3,1,2959.5,96600.60000014305,7165,bell,AF,B,,,,,,,,,,8
7,prac,1,inc,0,z,Wed Jun 11 2025 10:51:57 GMT-0500 (Central Daylight Time),102792.10000014305,napkin,1100,O,m,,,800,,,12,1,3209.7000000476837,99582.40000009537,7165,friend,AF,B,,,,,,,,,,9
8,prac,1,inc,1,m,Wed Jun 11 2025 10:51:57 GMT-0500 (Central Daylight Time),105907.90000009537,elated,900,O,m,,,896,,,6,1,3094.7000000476837,102813.20000004768,7165,napkin,AF,B,,,,,,,,,,10
9,prac,1,inc,1,z,Wed Jun 11 2025 10:51:57 GMT-0500 (Central Daylight Time),109173.5,window,1100,O,z,,,845,,,16,1,3241.899999856949,105931.60000014305,7165,temper,AF,B,,,,,,,,,,11
10,prac,1,con,1,m,Wed Jun 11 2025 10:51:57 GMT-0500 (Central Daylight Time),111906.10000014305,jacket,800,O,m,,,605,,,5,1,2710.2000000476837,109195.90000009537,7165,jacket,AF,B,,,,,,,,,,12
11,prac,1,con,1,m,Wed Jun 11 2025 10:51:57 GMT-0500 (Central Daylight Time),114571.60000014305,step,800,O,m,,,548,,,1,1,2643.5,111928.10000014305,7165,step,AF,B,,,,,,,,,,13
12,prac,1,inc,1,z,Wed Jun 11 2025 10:51:57 GMT-0500 (Central Daylight Time),117587.5,film,900,O,z,,,797,,,14,1,2994.5,114593.0,7165,hate,AF,B,,,,,,,,,,14
13,prac,1,inc,1,m,Wed Jun 11 2025 10:51:57 GMT-0500 (Central Daylight Time),120669.79999995232,brutal,1100,O,m,,,653,,,8,1,3064.699999809265,117605.10000014305,7165,window,AF,B,,,,,,,,,,15
14,prac,1,inc,1,m,Wed Jun 11 2025 10:51:57 GMT-0500 (Central Daylight Time),123418.90000009537,kind,900,O,m,,,531,,,2,1,2726.4000000953674,120692.5,7165,rock,AF,B,,,,,,,,,,16
1,test,1,inc,1,m,Wed Jun 11 2025 10:51:57 GMT-0500 (Central Daylight Time),137281.29999995232,friend,1100,O,m,m,None,451,236.0,215.0,128,1,2098.5,135182.79999995232,7165,window,AF,B,131706,131707,129858,130974,129859,131956,131490,131491,131956,1
2,test,1,con,1,m,Wed Jun 11 2025 10:51:57 GMT-0500 (Central Daylight Time),139097.20000004768,bell,800,O,m,m,None,460,245.0,215.0,81,1,1792.5999999046326,137304.60000014305,7165,bell,AF,B,133523,133523,131979,132790,131982,133772,133306,133307,133772,2
3,test,1,con,1,m,Wed Jun 11 2025 10:51:57 GMT-0500 (Central Daylight Time),141046.40000009537,film,1000,O,m,m,None,396,197.0,199.0,91,1,1928.6000001430511,139117.79999995232,7165,film,AF,B,135522,135522,133793,134806,133794,135721,135322,135322,135721,3
4,test,1,inc,1,m,Wed Jun 11 2025 10:51:57 GMT-0500 (Central Daylight Time),143095.40000009537,temper,1000,O,m,m,None,494,295.0,199.0,111,1,2030.2999999523163,141065.10000014305,7165,napkin,AF,B,137472,137472,135740,136755,135741,137771,137272,137272,137770,4
5,test,1,con,1,z,Wed Jun 11 2025 10:51:57 GMT-0500 (Central Daylight Time),145394.90000009537,friend,1100,O,z,z,None,633,434.0,199.0,28,1,2278.7999999523163,143116.10000014305,7165,friend,AF,B,139620,139621,137791,138905,137793,140070,139421,139421,140070,5
6,test,1,inc,1,z,Wed Jun 11 2025 10:51:57 GMT-0500 (Central Daylight Time),147494.29999995232,jacket,800,O,z,z,None,737,522.0,215.0,37,1,2077.699999809265,145416.60000014305,7165,brutal,AF,B,141637,141637,140092,140904,140093,142169,141420,141421,142169,6
7,test,1,inc,1,m,Wed Jun 11 2025 10:51:57 GMT-0500 (Central Daylight Time),149875.90000009537,friend,1100,O,m,m,None,729,514.0,215.0,120,1,2360.0,147515.90000009537,7165,remote,AF,B,144036,144036,142191,143303,142194,144551,143820,143820,144551,7
8,test,1,con,1,z,Wed Jun 11 2025 10:51:57 GMT-0500 (Central Daylight Time),151676.29999995232,rage,800,O,z,z,None,456,257.0,199.0,49,1,1795.0,149881.29999995232,7165,rage,AF,B,146086,146086,144556,145369,144557,146351,145886,145886,146351,8
9,test,1,con,1,m,Wed Jun 11 2025 10:51:57 GMT-0500 (Central Daylight Time),153741.70000004768,bell,900,O,m,m,None,614,414.0,200.0,82,1,2043.7000000476837,151698.0,7165,bell,AF,B,148001,148001,146373,147285,146375,148417,147800,147800,148417,9
10,test,1,inc,1,z,Wed Jun 11 2025 10:51:57 GMT-0500 (Central Daylight Time),155891.0,bell,1000,O,z,z,None,582,367.0,215.0,23,1,2126.2000000476837,153764.79999995232,7165,love,AF,B,150184,150184,148440,149451,148441,150566,149968,149968,150566,10
11,test,1,con,1,m,Wed Jun 11 2025 10:51:57 GMT-0500 (Central Daylight Time),157824.29999995232,jacket,900,O,m,m,None,493,294.0,199.0,98,1,1920.5999999046326,155903.70000004768,7165,jacket,AF,B,152201,152201,150579,151484,150580,152499,152000,152001,152499,11
12,test,1,inc,1,m,Wed Jun 11 2025 10:51:57 GMT-0500 (Central Daylight Time),159723.5,elated,800,O,m,m,None,540,325.0,215.0,125,1,1883.2000000476837,157840.29999995232,7165,window,AF,B,154066,154066,152515,153333,152517,154399,153850,153850,154399,12
13,test,1,inc,1,z,Wed Jun 11 2025 10:51:57 GMT-0500 (Central Daylight Time),161872.79999995232,bell,1000,O,z,z,None,585,386.0,199.0,47,1,2128.199999809265,159744.60000014305,7165,hate,AF,B,156148,156149,154420,155432,154422,156548,155949,155949,156548,13
14,test,1,inc,1,m,Wed Jun 11 2025 10:51:57 GMT-0500 (Central Daylight Time),164005.20000004768,kind,900,O,m,m,None,680,481.0,199.0,78,1,2111.7000000476837,161893.5,7165,rock,AF,B,158198,158198,156569,157482,156571,158680,157998,157998,158680,14
15,test,1,inc,1,m,Wed Jun 11 2025 10:51:57 GMT-0500 (Central Daylight Time),166187.79999995232,hate,1100,O,m,m,None,515,300.0,215.0,80,1,2162.199999809265,164025.60000014305,7165,rock,AF,B,160547,160547,158701,159813,158703,160863,160331,160331,160863,15
16,test,1,con,1,m,Wed Jun 11 2025 10:51:57 GMT-0500 (Central Daylight Time),168053.90000009537,napkin,800,O,m,m,None,512,297.0,215.0,105,1,1844.9000000953674,166209.0,7165,napkin,AF,B,162430,162430,160884,161697,160886,162729,162214,162214,162729,16
17,test,1,con,1,z,Wed Jun 11 2025 10:51:57 GMT-0500 (Central Daylight Time),170419.0,brutal,1100,O,z,z,None,713,498.0,215.0,36,1,2342.5,168076.5,7165,brutal,AF,B,164596,164596,162751,163863,162753,165094,164379,164380,165094,17
18,test,1,con,1,z,Wed Jun 11 2025 10:51:57 GMT-0500 (Central Daylight Time),172302.70000004768,rage,900,O,z,z,None,438,223.0,215.0,50,1,1878.2999999523163,170424.40000009537,7165,rage,AF,B,166744,166744,165099,166012,165100,166978,166529,166529,166978,18
19,test,1,inc,1,m,Wed Jun 11 2025 10:51:57 GMT-0500 (Central Daylight Time),174352.29999995232,love,1000,O,m,m,None,486,287.0,199.0,95,1,2029.1999998092651,172323.10000014305,7165,film,AF,B,168728,168728,166998,168011,167000,169027,168528,168528,169027,19
20,test,1,inc,1,m,Wed Jun 11 2025 10:51:57 GMT-0500 (Central Daylight Time),176301.60000014305,rage,800,O,m,m,None,588,373.0,215.0,77,1,1928.3000001907349,174373.29999995232,7165,rock,AF,B,170594,170594,169048,169861,169050,170977,170378,170378,170977,20
21,test,1,inc,1,m,Wed Jun 11 2025 10:51:57 GMT-0500 (Central Daylight Time),178433.40000009537,kind,900,O,m,m,None,675,476.0,199.0,94,1,2111.2999999523163,176322.10000014305,7165,film,AF,B,172626,172626,170997,171911,170999,173108,172427,172427,173108,21
22,test,1,con,1,z,Wed Jun 11 2025 10:51:57 GMT-0500 (Central Daylight Time),180366.40000009537,brutal,1000,O,z,z,None,396,197.0,199.0,35,1,1923.7999999523163,178442.60000014305,7165,brutal,AF,B,174842,174842,173118,174126,173118,175042,174643,174643,175041,22
23,test,1,inc,1,m,Wed Jun 11 2025 10:51:57 GMT-0500 (Central Daylight Time),182349.5,kind,900,O,m,m,None,531,332.0,199.0,70,1,1960.2000000476837,180389.29999995232,7165,step,AF,B,176692,176692,175064,175976,175066,177025,176492,176492,177024,23
24,test,1,inc,1,m,Wed Jun 11 2025 10:51:57 GMT-0500 (Central Daylight Time),184581.40000009537,hate,1100,O,m,m,None,579,380.0,199.0,88,1,2209.2999999523163,182372.10000014305,7165,bell,AF,B,178874,178874,177047,178158,177048,179257,178675,178675,179256,24
25,test,1,inc,1,z,Wed Jun 11 2025 10:51:57 GMT-0500 (Central Daylight Time),186831.29999995232,remote,1000,O,z,z,None,711,512.0,199.0,39,1,2238.7999999523163,184592.5,7165,brutal,AF,B,180990,180991,179268,180274,179269,181506,180791,180791,181506,25
26,test,1,inc,1,z,Wed Jun 11 2025 10:51:57 GMT-0500 (Central Daylight Time),189063.90000009537,window,1100,O,z,z,None,569,354.0,215.0,40,1,2210.5,186853.40000009537,7165,brutal,AF,B,183373,183373,181528,182640,181530,183739,183157,183157,183739,26
27,test,1,con,1,m,Wed Jun 11 2025 10:51:57 GMT-0500 (Central Daylight Time),191246.60000014305,remote,900,O,m,m,None,720,505.0,215.0,114,1,2160.300000190735,189086.29999995232,7165,remote,AF,B,185406,185406,183761,184673,183763,185922,185190,185190,185922,27
28,test,1,inc,1,m,Wed Jun 11 2025 10:51:57 GMT-0500 (Central Daylight Time),193445.79999995232,friend,1100,O,m,m,None,522,307.0,215.0,104,1,2179.199999809265,191266.60000014305,7165,jacket,AF,B,187805,187805,185942,187072,185943,188121,187589,187589,188121,28
29,test,1,inc,1,z,Wed Jun 11 2025 10:51:57 GMT-0500 (Central Daylight Time),195628.5,bell,1000,O,z,z,None,616,417.0,199.0,55,1,2163.0,193465.5,7165,rage,AF,B,189871,189871,188141,189155,188142,190304,189671,189671,190304,29
30,test,1,con,1,z,Wed Jun 11 2025 10:51:57 GMT-0500 (Central Daylight Time),197744.40000009537,brutal,900,O,z,z,None,662,462.0,200.0,34,1,2095.100000143051,195649.29999995232,7165,brutal,AF,B,191953,191953,190324,191237,190326,192420,191753,191753,192419,30
31,test,1,inc,1,z,Wed Jun 11 2025 10:51:57 GMT-0500 (Central Daylight Time),199776.60000014305,napkin,900,O,z,z,None,576,377.0,199.0,38,1,2012.9000000953674,197763.70000004768,7165,brutal,AF,B,194070,194070,192439,193353,192439,194452,193870,193870,194452,31
32,test,1,con,1,z,Wed Jun 11 2025 10:51:57 GMT-0500 (Central Daylight Time),201976.40000009537,hate,1000,O,z,z,None,660,445.0,215.0,43,1,2185.4000000953674,199791.0,7165,hate,AF,B,196202,196202,194466,195469,194467,196652,195986,195986,196651,32
33,test,1,inc,1,z,Wed Jun 11 2025 10:51:57 GMT-0500 (Central Daylight Time),204092.0,remote,1000,O,z,z,None,557,358.0,199.0,7,1,2097.899999856949,201994.10000014305,7165,elated,AF,B,198401,198401,196669,197684,196670,198767,198202,198202,198767,33
34,test,1,inc,1,z,Wed Jun 11 2025 10:51:57 GMT-0500 (Central Daylight Time),206224.90000009537,film,1100,O,z,z,None,485,286.0,199.0,24,1,2123.600000143051,204101.29999995232,7165,love,AF,B,200601,200601,198776,199884,198777,200900,200401,200401,200900,34
35,test,1,inc,1,m,Wed Jun 11 2025 10:51:57 GMT-0500 (Central Daylight Time),208141.10000014305,rage,800,O,m,m,None,563,348.0,215.0,85,1,1895.8000001907349,206245.29999995232,7165,bell,AF,B,202467,202467,200920,201734,200923,202816,202251,202251,202816,35
36,test,1,inc,1,z,Wed Jun 11 2025 10:51:57 GMT-0500 (Central Daylight Time),210090.10000014305,step,800,O,z,z,None,583,368.0,215.0,13,1,1929.0,208161.10000014305,7165,kind,AF,B,204383,204383,202836,203649,202838,204765,204167,204167,204765,36
37,test,1,con,1,m,Wed Jun 11 2025 10:51:57 GMT-0500 (Central Daylight Time),212256.40000009537,napkin,1000,O,m,m,None,610,411.0,199.0,107,1,2145.600000143051,210110.79999995232,7165,napkin,AF,B,206516,206516,204786,205800,204787,206931,206316,206316,206931,37
38,test,1,con,1,z,Wed Jun 11 2025 10:51:57 GMT-0500 (Central Daylight Time),214305.79999995232,friend,800,O,z,z,None,693,494.0,199.0,25,1,2029.5999999046326,212276.20000004768,7165,friend,AF,B,208481,208481,206951,207765,206953,208981,208282,208282,208981,38
39,test,1,con,1,m,Wed Jun 11 2025 10:51:57 GMT-0500 (Central Daylight Time),216571.60000014305,remote,1000,O,m,m,None,699,500.0,199.0,115,1,2247.5,214324.10000014305,7165,remote,AF,B,210730,210731,208999,210015,209000,211247,210531,210531,211247,39
40,test,1,inc,1,m,Wed Jun 11 2025 10:51:57 GMT-0500 (Central Daylight Time),218670.5,kind,900,O,m,m,None,645,446.0,199.0,86,1,2078.7000000476837,216591.79999995232,7165,bell,AF,B,212897,212897,211267,212180,211268,213346,212697,212697,213346,40
41,test,1,inc,1,m,Wed Jun 11 2025 10:51:57 GMT-0500 (Central Daylight Time),220853.5,love,1000,O,m,m,None,630,431.0,199.0,87,1,2163.7000000476837,218689.79999995232,7165,bell,AF,B,215096,215096,213365,214379,213366,215529,214896,214896,215528,41
42,test,1,inc,1,m,Wed Jun 11 2025 10:51:57 GMT-0500 (Central Daylight Time),222886.10000014305,rage,800,O,m,m,None,671,472.0,199.0,69,1,2012.4000000953674,220873.70000004768,7165,step,AF,B,217079,217079,215549,216362,215550,217561,216879,216879,217561,42
43,test,1,inc,1,z,Wed Jun 11 2025 10:51:57 GMT-0500 (Central Daylight Time),225035.40000009537,bell,1000,O,z,z,None,591,376.0,215.0,15,1,2131.0,222904.40000009537,7165,kind,AF,B,219328,219328,217579,218595,217581,219710,219112,219112,219710,43
44,test,1,con,1,z,Wed Jun 11 2025 10:51:57 GMT-0500 (Central Daylight Time),227151.40000009537,hate,900,O,z,z,None,662,462.0,200.0,42,1,2096.600000143051,225054.79999995232,7165,hate,AF,B,221361,221361,219730,220644,219732,221827,221160,221160,221826,44
45,test,1,con,1,m,Wed Jun 11 2025 10:51:57 GMT-0500 (Central Daylight Time),229317.40000009537,window,1000,O,m,m,None,613,397.0,216.0,123,1,2145.2999999523163,227172.10000014305,7165,window,AF,B,223593,223594,221847,222860,221849,223993,223377,223377,223992,45
46,test,1,con,1,m,Wed Jun 11 2025 10:51:57 GMT-0500 (Central Daylight Time),231666.70000004768,rock,1100,O,m,m,None,683,484.0,199.0,76,1,2328.5,229338.20000004768,7165,rock,AF,B,225843,225843,224013,225126,224015,226342,225643,225643,226342,46
47,test,1,con,1,m,Wed Jun 11 2025 10:51:57 GMT-0500 (Central Daylight Time),233832.10000014305,step,900,O,m,m,None,710,511.0,199.0,66,1,2144.800000190735,231687.29999995232,7165,step,AF,B,227991,227992,226362,227275,226364,228507,227792,227792,228507,47
48,test,1,con,1,m,Wed Jun 11 2025 10:51:57 GMT-0500 (Central Daylight Time),235731.90000009537,film,900,O,m,m,None,449,234.0,215.0,90,1,1888.7999999523163,233843.10000014305,7165,film,AF,B,230157,230157,228518,229425,228519,230407,229942,229942,230407,48
49,test,1,inc,1,z,Wed Jun 11 2025 10:51:57 GMT-0500 (Central Daylight Time),237648.0,step,800,O,z,z,None,553,354.0,199.0,53,1,1895.2000000476837,235752.79999995232,7165,rage,AF,B,231957,231957,230428,231241,230429,232323,231757,231757,232323,49
50,test,1,con,1,z,Wed Jun 11 2025 10:51:57 GMT-0500 (Central Daylight Time),239480.40000009537,temper,900,O,z,z,None,378,178.0,200.0,58,1,1810.6000001430511,237669.79999995232,7165,temper,AF,B,233973,233973,232345,233257,232346,234156,233773,233773,234155,50
51,test,1,con,1,z,Wed Jun 11 2025 10:51:57 GMT-0500 (Central Daylight Time),241480.10000014305,temper,1000,O,z,z,None,444,245.0,199.0,59,1,1980.0,239500.10000014305,7165,temper,AF,B,235906,235906,234175,235190,234177,236155,235706,235706,236155,51
52,test,1,inc,1,m,Wed Jun 11 2025 10:51:57 GMT-0500 (Central Daylight Time),243512.40000009537,love,1000,O,m,m,None,477,278.0,199.0,71,1,2012.5,241499.90000009537,7165,step,AF,B,237905,237905,236175,237189,236177,238188,237705,237705,238187,52
53,test,1,con,1,m,Wed Jun 11 2025 10:51:57 GMT-0500 (Central Daylight Time),245828.70000004768,rock,1000,O,m,m,None,756,557.0,199.0,75,1,2295.5,243533.20000004768,7165,rock,AF,B,239938,239938,238208,239221,238210,240504,239738,239738,240504,53
54,test,1,inc,1,z,Wed Jun 11 2025 10:51:57 GMT-0500 (Central Daylight Time),247661.10000014305,step,800,O,z,z,None,480,281.0,199.0,21,1,1809.8000001907349,245851.29999995232,7165,love,AF,B,242054,242054,240526,241337,240528,242336,241854,241854,242336,54
55,test,1,con,1,m,Wed Jun 11 2025 10:51:57 GMT-0500 (Central Daylight Time),249877.29999995232,napkin,1100,O,m,m,None,556,357.0,199.0,108,1,2196.5,247680.79999995232,7165,napkin,AF,B,244186,244186,242356,243470,242357,244552,243986,243987,244552,55
56,test,1,inc,1,z,Wed Jun 11 2025 10:51:57 GMT-0500 (Central Daylight Time),251810.0,jacket,800,O,z,z,None,575,360.0,215.0,29,1,1912.2000000476837,249897.79999995232,7165,friend,AF,B,246119,246119,244573,245386,244574,246485,245903,245903,246485,56
57,test,1,con,1,z,Wed Jun 11 2025 10:51:57 GMT-0500 (Central Daylight Time),254108.29999995232,hate,1100,O,z,z,None,663,448.0,215.0,44,1,2278.7999999523163,251829.5,7165,hate,AF,B,248334,248334,246505,247617,246506,248783,248119,248119,248783,57
58,test,1,inc,1,m,Wed Jun 11 2025 10:51:57 GMT-0500 (Central Daylight Time),256358.20000004768,hate,1100,O,m,m,None,613,414.0,199.0,72,1,2244.9000000953674,254113.29999995232,7165,step,AF,B,250617,250618,248788,249902,248789,251033,250418,250418,251033,58
59,test,1,con,1,m,Wed Jun 11 2025 10:51:57 GMT-0500 (Central Daylight Time),258424.60000014305,jacket,1000,O,m,m,None,510,295.0,215.0,99,1,2046.3000001907349,256378.29999995232,7165,jacket,AF,B,252800,252800,251053,252067,251055,253100,252584,252584,253100,59
60,test,1,inc,1,z,Wed Jun 11 2025 10:51:57 GMT-0500 (Central Daylight Time),260757.10000014305,window,1100,O,z,z,None,672,457.0,215.0,64,1,2312.4000000953674,258444.70000004768,7165,temper,AF,B,254966,254966,253120,254233,253121,255432,254750,254750,255432,60
61,test,1,inc,1,m,Wed Jun 11 2025 10:51:57 GMT-0500 (Central Daylight Time),262779.90000009537,brutal,900,O,m,m,None,555,341.0,214.0,110,1,2001.7999999523163,260778.10000014305,7165,napkin,AF,B,257098,257098,255453,256366,255455,257455,256883,256883,257455,61
62,test,1,con,1,z,Wed Jun 11 2025 10:51:57 GMT-0500 (Central Daylight Time),264855.40000009537,hate,800,O,z,z,None,720,521.0,199.0,41,1,2055.9000000953674,262799.5,7165,hate,AF,B,258998,258998,257475,258282,257476,259531,258798,258798,259530,62
63,test,1,inc,1,m,Wed Jun 11 2025 10:51:57 GMT-0500 (Central Daylight Time),266788.5,rage,800,O,m,m,None,566,351.0,215.0,93,1,1912.0999999046326,264876.40000009537,7165,film,AF,B,261097,261097,259551,260363,259553,261464,260881,260881,261463,63
64,test,1,con,1,m,Wed Jun 11 2025 10:51:57 GMT-0500 (Central Daylight Time),268753.60000014305,napkin,900,O,m,m,None,500,285.0,215.0,106,1,1945.9000000953674,266807.7000000477,7165,napkin,AF,B,263129,263129,261483,262397,261484,263429,262914,262914,263429,64
65,test,1,con,1,z,Wed Jun 11 2025 10:51:57 GMT-0500 (Central Daylight Time),270653.10000014305,elated,800,O,z,z,None,555,356.0,199.0,1,1,1893.5,268759.60000014305,7165,elated,AF,B,264962,264962,263435,264245,263435,265328,264762,264762,265328,65
66,test,1,inc,1,m,Wed Jun 11 2025 10:51:57 GMT-0500 (Central Daylight Time),272552.2999999523,elated,800,O,m,m,None,553,353.0,200.0,109,1,1893.3999998569489,270658.90000009537,7165,napkin,AF,B,266861,266861,265334,266145,265334,267227,266661,266661,267227,66
67,test,1,con,1,m,Wed Jun 11 2025 10:51:57 GMT-0500 (Central Daylight Time),274518.40000009537,bell,1000,O,m,m,None,430,230.0,200.0,83,1,1960.6000001430511,272557.7999999523,7165,bell,AF,B,268960,268960,267233,268244,267233,269194,268760,268760,269193,67
68,test,1,inc,1,z,Wed Jun 11 2025 10:51:57 GMT-0500 (Central Daylight Time),276718.40000009537,film,1100,O,z,z,None,563,364.0,199.0,56,1,2194.2999999523163,274524.10000014305,7165,rage,AF,B,271027,271027,269199,270311,269200,271394,270828,270828,271393,68
69,test,1,con,1,z,Wed Jun 11 2025 10:51:57 GMT-0500 (Central Daylight Time),279067.7999999523,temper,1100,O,z,z,None,682,483.0,199.0,60,1,2329.699999809265,276738.10000014305,7165,temper,AF,B,273244,273244,271413,272527,271415,273743,273044,273044,273743,69
70,test,1,con,1,z,Wed Jun 11 2025 10:51:57 GMT-0500 (Central Daylight Time),281167.0,friend,1000,O,z,z,None,545,346.0,199.0,27,1,2078.5,279088.5,7165,friend,AF,B,275493,275493,273764,274776,273765,275842,275293,275293,275842,70
71,test,1,inc,1,z,Wed Jun 11 2025 10:51:57 GMT-0500 (Central Daylight Time),283083.10000014305,jacket,800,O,z,z,None,557,342.0,215.0,5,1,1896.9000000953674,281186.2000000477,7165,elated,AF,B,277409,277409,275861,276676,275863,277758,277192,277193,277758,71
72,test,1,inc,1,z,Wed Jun 11 2025 10:51:57 GMT-0500 (Central Daylight Time),285098.2000000477,napkin,900,O,z,z,None,551,351.0,200.0,6,1,1996.2000000476837,283102.0,7165,elated,AF,B,279407,279407,277777,278690,277779,279773,279207,279207,279773,72
73,test,1,con,1,z,Wed Jun 11 2025 10:51:57 GMT-0500 (Central Daylight Time),286981.7000000477,love,900,O,z,z,None,438,223.0,215.0,18,1,1877.7999999523163,285103.90000009537,7165,love,AF,B,281424,281424,279779,280691,279779,281657,281208,281208,281657,73
74,test,1,con,1,z,Wed Jun 11 2025 10:51:57 GMT-0500 (Central Daylight Time),289047.7000000477,love,1100,O,z,z,None,411,212.0,199.0,20,1,2044.7999999523163,287002.90000009537,7165,love,AF,B,283507,283507,281678,282790,281680,283723,283307,283307,283723,74
75,test,1,con,1,m,Wed Jun 11 2025 10:51:57 GMT-0500 (Central Daylight Time),291280.40000009537,remote,1100,O,m,m,None,578,379.0,199.0,116,1,2213.7999999523163,289066.60000014305,7165,remote,AF,B,285573,285573,283742,284856,283743,285956,285373,285373,285955,75
76,test,1,inc,1,m,Wed Jun 11 2025 10:51:57 GMT-0500 (Central Daylight Time),293163.10000014305,elated,800,O,m,m,None,524,309.0,215.0,101,1,1863.9000000953674,291299.2000000477,7165,jacket,AF,B,287522,287522,285974,286789,285976,287838,287306,287306,287838,76
77,test,1,con,1,m,Wed Jun 11 2025 10:51:57 GMT-0500 (Central Daylight Time),294945.5,jacket,800,O,m,m,None,426,227.0,199.0,97,1,1762.0999999046326,293183.40000009537,7165,jacket,AF,B,289388,289388,287858,288672,287860,289621,289189,289189,289621,77
78,test,1,con,1,m,Wed Jun 11 2025 10:51:57 GMT-0500 (Central Daylight Time),296745.2999999523,rock,800,O,m,m,None,443,244.0,199.0,73,1,1781.0999999046326,294964.2000000477,7165,rock,AF,B,291171,291171,289639,290455,289640,291420,290971,290971,291420,78
79,test,1,inc,1,m,Wed Jun 11 2025 10:51:57 GMT-0500 (Central Daylight Time),298761.2999999523,brutal,900,O,m,m,None,559,344.0,215.0,102,1,1997.7999999523163,296763.5,7165,jacket,AF,B,293087,293087,291439,292354,291439,293436,292871,292871,293436,79
80,test,1,con,1,m,Wed Jun 11 2025 10:51:57 GMT-0500 (Central Daylight Time),300627.2000000477,window,800,O,m,m,None,500,301.0,199.0,121,1,1847.2000000476837,298780.0,7165,window,AF,B,294986,294986,293455,294270,293457,295302,294787,294787,295302,80
81,test,1,con,1,z,Wed Jun 11 2025 10:51:57 GMT-0500 (Central Daylight Time),302677.2999999523,temper,800,O,z,z,None,715,516.0,199.0,57,1,2036.7999999523163,300640.5,7165,temper,AF,B,296836,296836,295316,296119,295317,297352,296636,296636,297352,81
82,test,1,inc,1,m,Wed Jun 11 2025 10:51:57 GMT-0500 (Central Daylight Time),304942.40000009537,temper,1000,O,m,m,None,712,513.0,199.0,127,1,2245.0,302697.40000009537,7165,window,AF,B,299101,299102,297372,298386,297374,299618,298902,298902,299617,82
83,test,1,con,1,z,Wed Jun 11 2025 10:51:57 GMT-0500 (Central Daylight Time),307041.40000009537,brutal,800,O,z,z,None,741,542.0,199.0,33,1,2079.4000000953674,304962.0,7165,brutal,AF,B,301167,301168,299637,300451,299639,301716,300968,300968,301716,83
84,test,1,con,1,z,Wed Jun 11 2025 10:51:57 GMT-0500 (Central Daylight Time),308774.5,love,800,O,z,z,None,395,180.0,215.0,17,1,1724.0999999046326,307050.40000009537,7165,love,AF,B,303267,303267,301725,302534,301726,303450,303051,303051,303450,84
85,test,1,con,1,z,Wed Jun 11 2025 10:51:57 GMT-0500 (Central Daylight Time),310607.40000009537,elated,900,O,z,z,None,371,172.0,199.0,2,1,1813.7000000476837,308793.7000000477,7165,elated,AF,B,305099,305099,303469,304383,303470,305282,304899,304899,305282,85
86,test,1,con,1,m,Wed Jun 11 2025 10:51:57 GMT-0500 (Central Daylight Time),312489.90000009537,rock,900,O,m,m,None,426,227.0,199.0,74,1,1862.6000001430511,310627.2999999523,7165,rock,AF,B,306932,306932,305302,306216,305304,307165,306733,306733,307165,86
87,test,1,inc,1,m,Wed Jun 11 2025 10:51:57 GMT-0500 (Central Daylight Time),314756.0,hate,1100,O,m,m,None,599,400.0,199.0,96,1,2247.399999856949,312508.60000014305,7165,film,AF,B,309015,309015,307184,308298,307185,309431,308815,308815,309431,87
88,test,1,inc,1,m,Wed Jun 11 2025 10:51:57 GMT-0500 (Central Daylight Time),316855.2999999523,love,1000,O,m,m,None,545,346.0,199.0,79,1,2080.2999999523163,314775.0,7165,rock,AF,B,311181,311181,309450,310465,309452,311530,310981,310981,311530,88
89,test,1,inc,1,z,Wed Jun 11 2025 10:51:57 GMT-0500 (Central Daylight Time),318854.5,rock,900,O,z,z,None,546,347.0,199.0,46,1,1978.8999998569489,316875.60000014305,7165,hate,AF,B,313180,313180,311551,312464,311552,313530,312981,312981,313529,89
90,test,1,inc,1,m,Wed Jun 11 2025 10:51:57 GMT-0500 (Central Daylight Time),320854.10000014305,brutal,900,O,m,m,None,539,340.0,199.0,118,1,1981.3000001907349,318872.7999999523,7165,remote,AF,B,315179,315179,313548,314463,313549,315529,314980,314980,315529,90
91,test,1,con,1,z,Wed Jun 11 2025 10:51:57 GMT-0500 (Central Daylight Time),323136.60000014305,rage,1100,O,z,z,None,619,420.0,199.0,52,1,2262.600000143051,320874.0,7165,rage,AF,B,317379,317379,315549,316663,315551,317812,317179,317179,317812,91
92,test,1,inc,1,z,Wed Jun 11 2025 10:51:57 GMT-0500 (Central Daylight Time),325468.60000014305,film,1100,O,z,z,None,673,474.0,199.0,48,1,2311.800000190735,323156.7999999523,7165,hate,AF,B,319661,319661,317832,318945,317833,320144,319462,319462,320144,92
93,test,1,con,1,z,Wed Jun 11 2025 10:51:57 GMT-0500 (Central Daylight Time),327585.10000014305,elated,1100,O,z,z,None,477,278.0,199.0,4,1,2104.600000143051,325480.5,7165,elated,AF,B,321977,321977,320156,321260,320157,322260,321778,321778,322260,93
94,test,1,con,1,z,Wed Jun 11 2025 10:51:57 GMT-0500 (Central Daylight Time),329634.40000009537,elated,1000,O,z,z,None,492,293.0,199.0,3,1,2029.6000001430511,327604.7999999523,7165,elated,AF,B,324010,324010,322280,323294,322281,324310,323809,323810,324309,94
95,test,1,inc,1,z,Wed Jun 11 2025 10:51:57 GMT-0500 (Central Daylight Time),331883.2999999523,remote,1000,O,z,z,None,682,467.0,215.0,31,1,2229.899999856949,329653.40000009537,7165,friend,AF,B,326075,326075,324328,325343,324330,326558,325860,325860,326558,95
96,test,1,inc,1,m,Wed Jun 11 2025 10:51:57 GMT-0500 (Central Daylight Time),333782.2000000477,elated,800,O,m,m,None,553,354.0,199.0,117,1,1887.7000000476837,331894.5,7165,remote,AF,B,328092,328092,326570,327376,326570,328457,327892,327892,328457,96
97,test,1,con,1,m,Wed Jun 11 2025 10:51:57 GMT-0500 (Central Daylight Time),335765.60000014305,film,800,O,m,m,None,639,440.0,199.0,89,1,1977.8000001907349,333787.7999999523,7165,film,AF,B,329991,329991,328463,329275,328463,330441,329792,329792,330441,97
98,test,1,inc,1,m,Wed Jun 11 2025 10:51:57 GMT-0500 (Central Daylight Time),337715.2000000477,temper,1000,O,m,m,None,391,192.0,199.0,119,1,1929.5,335785.7000000477,7165,remote,AF,B,332191,332191,330461,331474,330462,332390,331991,331991,332390,98
99,test,1,con,1,m,Wed Jun 11 2025 10:51:57 GMT-0500 (Central Daylight Time),339747.5,jacket,1100,O,m,m,None,372,157.0,215.0,100,1,2012.5999999046326,337734.90000009537,7165,jacket,AF,B,334258,334258,332410,333524,332412,334423,334041,334041,334423,99
100,test,1,con,1,m,Wed Jun 11 2025 10:51:57 GMT-0500 (Central Daylight Time),341779.60000014305,film,1100,O,m,m,None,398,199.0,199.0,92,1,2018.9000000953674,339760.7000000477,7165,film,AF,B,336255,336255,334436,335540,334437,336455,336056,336056,336455,100
100,test,1,con,0,z,Wed Jun 11 2025 10:51:57 GMT-0500 (Central Daylight Time),343828.7999999523,kind,1100,O,m,m,None,406,207.0,199.0,12,1,2043.5,341785.2999999523,7165,kind,AF,B,338287,338287,336460,337571,336461,338504,338088,338088,338504,101
101,test,1,inc,1,z,Wed Jun 11 2025 10:51:57 GMT-0500 (Central Daylight Time),346145.7999999523,window,1100,O,z,z,None,667,452.0,215.0,8,1,2311.0,343834.7999999523,7165,elated,AF,B,340355,340355,338510,339622,338510,340821,340138,340139,340821,102
102,test,1,inc,1,m,Wed Jun 11 2025 10:51:57 GMT-0500 (Central Daylight Time),348295.10000014305,temper,1000,O,m,m,None,587,388.0,199.0,103,1,2130.4000000953674,346164.7000000477,7165,jacket,AF,B,342571,342571,340840,341854,340841,342970,342371,342371,342970,103
103,test,1,inc,1,z,Wed Jun 11 2025 10:51:57 GMT-0500 (Central Daylight Time),350327.2000000477,jacket,800,O,z,z,None,695,496.0,199.0,61,1,2011.2000000476837,348316.0,7165,temper,AF,B,344503,344503,342991,343802,342992,345002,344304,344304,345002,104
104,test,1,inc,1,z,Wed Jun 11 2025 10:51:57 GMT-0500 (Central Daylight Time),352309.7999999523,rock,900,O,z,z,None,520,321.0,199.0,54,1,1965.6999998092651,350344.10000014305,7165,rage,AF,B,346653,346653,345019,345936,345020,346985,346453,346453,346985,105
105,test,1,con,1,z,Wed Jun 11 2025 10:51:57 GMT-0500 (Central Daylight Time),354277.0,rage,1000,O,z,z,None,431,232.0,199.0,51,1,1958.0999999046326,352318.90000009537,7165,rage,AF,B,348718,348719,346994,348003,346995,348952,348519,348519,348952,106
106,test,1,inc,1,m,Wed Jun 11 2025 10:51:57 GMT-0500 (Central Daylight Time),356325.60000014305,brutal,900,O,m,m,None,598,399.0,199.0,126,1,2027.4000000953674,354298.2000000477,7165,window,AF,B,350601,350601,348973,349885,348975,351001,350402,350402,351001,107
107,test,1,inc,1,z,Wed Jun 11 2025 10:51:57 GMT-0500 (Central Daylight Time),358309.2999999523,step,800,O,z,z,None,631,432.0,199.0,45,1,1965.3999998569489,356343.90000009537,7165,hate,AF,B,352550,352551,351019,351835,351020,352984,352351,352351,352984,108
108,test,1,con,1,m,Wed Jun 11 2025 10:51:57 GMT-0500 (Central Daylight Time),360224.40000009537,step,800,O,m,m,None,552,353.0,199.0,65,1,1894.7999999523163,358329.60000014305,7165,step,AF,B,354534,354534,353005,353817,353006,354900,354334,354334,354899,109
109,test,1,inc,1,z,Wed Jun 11 2025 10:51:57 GMT-0500 (Central Daylight Time),362490.40000009537,window,1100,O,z,z,None,601,402.0,199.0,32,1,2247.0,360243.40000009537,7165,friend,AF,B,356749,356749,354918,356033,354920,357166,356549,356550,357165,110
110,test,1,inc,1,z,Wed Jun 11 2025 10:51:57 GMT-0500 (Central Daylight Time),364556.2999999523,rock,900,O,z,z,None,601,401.0,200.0,14,1,2044.7999999523163,362511.5,7165,kind,AF,B,358815,358815,357186,358099,357188,359231,358615,358615,359231,111
111,test,1,inc,1,z,Wed Jun 11 2025 10:51:57 GMT-0500 (Central Daylight Time),366572.5,napkin,900,O,z,z,None,549,334.0,215.0,30,1,1997.0999999046326,364575.40000009537,7165,friend,AF,B,360898,360898,359250,360165,359252,361248,360682,360682,361247,112
112,test,1,inc,1,z,Wed Jun 11 2025 10:51:57 GMT-0500 (Central Daylight Time),368638.10000014305,napkin,900,O,z,z,None,612,397.0,215.0,62,1,2047.0,366591.10000014305,7165,temper,AF,B,362914,362914,361266,362180,361268,363313,362698,362698,363313,113
113,test,1,con,1,m,Wed Jun 11 2025 10:51:57 GMT-0500 (Central Daylight Time),370904.10000014305,step,1100,O,m,m,None,610,395.0,215.0,68,1,2246.600000143051,368657.5,7165,step,AF,B,365180,365180,363333,364447,363334,365579,364963,364964,365579,114
114,test,1,con,1,m,Wed Jun 11 2025 10:51:57 GMT-0500 (Central Daylight Time),373053.0,window,900,O,m,m,None,687,472.0,215.0,122,1,2129.7000000476837,370923.2999999523,7165,window,AF,B,367246,367246,365598,366513,365599,367728,367030,367030,367728,115
115,test,1,con,1,m,Wed Jun 11 2025 10:51:57 GMT-0500 (Central Daylight Time),375036.2000000477,remote,800,O,m,m,None,657,442.0,215.0,113,1,1975.2999999523163,373060.90000009537,7165,remote,AF,B,369261,369261,367736,368544,367737,369711,369046,369046,369711,116
116,test,1,con,1,m,Wed Jun 11 2025 10:51:57 GMT-0500 (Central Daylight Time),377085.5,bell,1100,O,m,m,None,397,182.0,215.0,84,1,2030.5,375055.0,7165,bell,AF,B,371578,371578,369730,370845,369732,371761,371362,371362,371761,117
117,test,1,con,1,z,Wed Jun 11 2025 10:51:57 GMT-0500 (Central Daylight Time),379201.40000009537,love,1000,O,z,z,None,551,352.0,199.0,19,1,2097.2999999523163,377104.10000014305,7165,love,AF,B,373511,373511,371779,372794,371780,373877,373311,373311,373876,118
118,test,1,con,1,m,Wed Jun 11 2025 10:51:57 GMT-0500 (Central Daylight Time),381417.2999999523,window,1100,O,m,m,None,559,344.0,215.0,124,1,2195.899999856949,379221.40000009537,7165,window,AF,B,375743,375743,373896,375010,373898,376092,375527,375527,376092,119
119,test,1,con,1,z,Wed Jun 11 2025 10:51:57 GMT-0500 (Central Daylight Time),383416.7000000477,kind,800,O,z,z,None,636,437.0,199.0,9,1,1978.2000000476837,381438.5,7165,kind,AF,B,377642,377642,376114,376926,376115,378092,377443,377443,378092,120
120,test,1,con,1,z,Wed Jun 11 2025 10:51:57 GMT-0500 (Central Daylight Time),385366.10000014305,kind,1000,O,z,z,None,388,189.0,199.0,11,1,1929.8000001907349,383436.2999999523,7165,kind,AF,B,379842,379842,378111,379125,378113,380041,379642,379642,380041,121
121,test,1,con,1,z,Wed Jun 11 2025 10:51:57 GMT-0500 (Central Daylight Time),387431.7000000477,friend,900,O,z,z,None,612,413.0,199.0,26,1,2043.9000000953674,385387.7999999523,7165,friend,AF,B,381691,381691,380063,380975,380064,382107,381491,381491,382107,122
122,test,1,inc,1,m,Wed Jun 11 2025 10:51:57 GMT-0500 (Central Daylight Time),389614.40000009537,friend,1100,O,m,m,None,528,313.0,215.0,112,1,2162.600000143051,387451.7999999523,7165,napkin,AF,B,383974,383974,382127,383241,382128,384290,383758,383758,384289,123
123,test,1,inc,1,z,Wed Jun 11 2025 10:51:57 GMT-0500 (Central Daylight Time),391879.7000000477,film,1100,O,z,z,None,609,410.0,199.0,16,1,2246.0999999046326,389633.60000014305,7165,kind,AF,B,386140,386140,384309,385424,384310,386555,385940,385940,386555,124
124,test,1,con,1,z,Wed Jun 11 2025 10:51:57 GMT-0500 (Central Daylight Time),393879.7999999523,kind,900,O,z,z,None,561,362.0,199.0,10,1,1994.5999999046326,391885.2000000477,7165,kind,AF,B,388189,388189,386560,387473,386561,388555,387989,387989,388555,125
125,test,1,inc,1,z,Wed Jun 11 2025 10:51:57 GMT-0500 (Central Daylight Time),395779.40000009537,rock,900,O,z,z,None,457,243.0,214.0,22,1,1879.4000000953674,393900.0,7165,love,AF,B,390204,390204,388575,389487,388577,390455,389989,389989,390454,126
126,test,1,con,1,m,Wed Jun 11 2025 10:51:57 GMT-0500 (Central Daylight Time),397829.40000009537,step,1000,O,m,m,None,514,315.0,199.0,67,1,2030.0,395799.40000009537,7165,step,AF,B,392189,392189,390474,391487,390476,392504,391989,391989,392504,127
127,test,1,inc,1,z,Wed Jun 11 2025 10:51:57 GMT-0500 (Central Daylight Time),400111.0,remote,1000,O,z,z,None,728,529.0,199.0,63,1,2262.5999999046326,397848.40000009537,7165,temper,AF,B,394254,394254,392523,393537,392525,394786,394054,394054,394786,128
