acc_sum,block_c,block_dur,condition,correct,correct_response,countdown,datetime,endtime,project,response,response_time,response_time_test1_response,response_time_test2_response,row_sel,same,session_number,start_end,starttime,stim1,stim2,subject_id,task,task_vers,time_test1,time_test2,trial
1,1,0.0,prac,1,m,30000.0,Wed Jun 24 2026 16:01:44 GMT-0400 (Eastern Daylight Time),42503.200000047684,I,m,2521,,,3,no,1,4042.5,38460.700000047684,QHZXPC,QHZWPC,9090,LC,B,,,1
2,1,0.0,prac,1,z,30000.0,Wed Jun 24 2026 16:01:44 GMT-0400 (Eastern Daylight Time),46953.0,I,z,2916,,,2,yes,1,4440.0,42513.0,NBGFSM,NBGFSM,9090,LC,B,,,2
3,1,0.0,prac,1,m,30000.0,Wed Jun 24 2026 16:01:44 GMT-0400 (Eastern Daylight Time),49552.800000071526,I,m,1057,,,1,no,1,2587.899999976158,46964.90000009537,RNV,FNV,9090,LC,B,,,3
4,1,0.0,prac,1,z,30000.0,Wed Jun 24 2026 16:01:44 GMT-0400 (Eastern Daylight Time),52369.700000047684,I,z,1276,,,4,yes,1,2808.2000000476837,49561.5,RSM,RSM,9090,LC,B,,,4
5,1,0.0,prac,1,m,30000.0,Wed Jun 24 2026 16:01:44 GMT-0400 (Eastern Daylight Time),55969.800000071526,I,m,2057,,,5,no,1,3589.7000000476837,52380.10000002384,LNDPRSKQB,LNDPRSJQB,9090,LC,B,,,5
6,1,0.0,prac,1,z,30000.0,Wed Jun 24 2026 16:01:44 GMT-0400 (Eastern Daylight Time),60886.40000009537,I,z,3386,,,6,yes,1,4907.100000023842,55979.300000071526,CSDBFPHXZ,CSDBFPHXZ,9090,LC,B,,,6
1,1,0.9330000877380371,test,1,m,29066.999912261963,Wed Jun 24 2026 16:01:44 GMT-0400 (Eastern Daylight Time),76736.80000007153,I,m,915,915,,1,no,1,926.3999999761581,75810.40000009537,HCF,RCF,9090,LC,B,74212,,1
2,1,2.865999937057495,test,1,m,27134.000062942505,Wed Jun 24 2026 16:01:44 GMT-0400 (Eastern Daylight Time),78669.70000004768,I,m,1914,1914,,2,no,1,1922.2999999523163,76747.40000009537,QTPRJX,QTPNJX,9090,LC,B,75149,,2
3,1,4.598999977111816,test,1,m,25401.000022888184,Wed Jun 24 2026 16:01:44 GMT-0400 (Eastern Daylight Time),80403.10000002384,I,m,1713,1713,,3,no,1,1726.2999999523163,78676.80000007153,MZDYGVGKQ,MZDYGLBKQ,9090,LC,B,77078,,3
4,1,7.615999937057495,test,1,m,22384.000062942505,Wed Jun 24 2026 16:01:44 GMT-0400 (Eastern Daylight Time),83419.70000004768,I,m,3000,3000,,4,no,1,3006.5,80413.20000004768,FQTNMK,JQTNMK,9090,LC,B,78815,,4
5,1,8.815999984741211,test,1,z,21184.00001525879,Wed Jun 24 2026 16:01:44 GMT-0400 (Eastern Daylight Time),84619.80000007153,I,z,1186,1186,,5,yes,1,1191.8999999761581,83427.90000009537,CLJ,CLJ,9090,LC,B,81829,,5
6,1,13.632999897003174,test,1,m,16367.000102996826,Wed Jun 24 2026 16:01:44 GMT-0400 (Eastern Daylight Time),89436.40000009537,I,m,4803,4803,,6,no,1,4809.200000047684,84627.20000004768,JGDMNSVPW,JGZMNSVPW,9090,LC,B,83029,,6
6,1,16.249000072479248,test,0,z,13750.999927520752,Wed Jun 24 2026 16:01:44 GMT-0400 (Eastern Daylight Time),92053.10000002384,I,m,2594,2594,,7,yes,1,2609.5,89443.60000002384,FPTVHKCBJ,FPTVHKCBJ,9090,LC,B,87845,,7
7,1,17.8989999294281,test,1,m,12101.0000705719,Wed Jun 24 2026 16:01:44 GMT-0400 (Eastern Daylight Time),93703.10000002384,I,m,1642,1642,,8,no,1,1642.8999999761581,92060.20000004768,XRPZBS,ZRPBDH,9090,LC,B,90462,,8
8,1,19.1489999294281,test,1,m,10851.0000705719,Wed Jun 24 2026 16:01:44 GMT-0400 (Eastern Daylight Time),94953.0,I,m,1239,1239,,9,no,1,1242.0,93711.0,ZSQ,ZSP,9090,LC,B,92112,,9
9,1,21.466000080108643,test,1,z,8533.999919891357,Wed Jun 24 2026 16:01:44 GMT-0400 (Eastern Daylight Time),97269.80000007153,I,z,2293,2293,,10,yes,1,2308.899999976158,94960.90000009537,MPZRXL,MPZRXL,9090,LC,B,93362,,10
10,1,22.716000080108643,test,1,m,7283.999919891357,Wed Jun 24 2026 16:01:44 GMT-0400 (Eastern Daylight Time),98519.5,I,m,1240,1240,,11,no,1,1241.5999999046326,97277.90000009537,KJH,KRH,9090,LC,B,95679,,11
11,1,26.448999881744385,test,1,z,3551.0001182556152,Wed Jun 24 2026 16:01:44 GMT-0400 (Eastern Daylight Time),102253.10000002384,I,z,3717,3717,,12,yes,1,3723.399999976158,98529.70000004768,SMNHVTFCB,SMNHVTFCB,9090,LC,B,96931,,12
12,1,29.933000087738037,test,1,z,66.99991226196289,Wed Jun 24 2026 16:01:44 GMT-0400 (Eastern Daylight Time),105736.20000004768,I,z,3472,3472,,13,yes,1,3475.0,102261.20000004768,KJWTQF,KJWTQF,9090,LC,B,100663,,13
12,1,30.016000032424927,test,0,z,-16.000032424926758,Wed Jun 24 2026 16:01:44 GMT-0400 (Eastern Daylight Time),105819.80000007153,I,None,74,74,,14,yes,1,75.60000002384186,105744.20000004768,CHDKQGLMB,CHDKQGLMB,9090,LC,B,104146,,14
1,2,5.382999897003174,test,1,z,24617.000102996826,Wed Jun 24 2026 16:01:44 GMT-0400 (Eastern Daylight Time),113419.80000007153,I,z,5366,,5366.0,1,yes,1,7675.600000023842,105744.20000004768,PRDBZTYFN,PRDBZTYFN,9090,LC,B,,106450.0,1
2,2,7.799999952316284,test,1,m,22200.000047683716,Wed Jun 24 2026 16:01:44 GMT-0400 (Eastern Daylight Time),115836.40000009537,I,m,2402,,2402.0,2,no,1,10092.200000047684,105744.20000004768,NCWJDZ,NCMJDZ,9090,LC,B,,111829.0,2
3,2,9.032999992370605,test,1,m,20967.000007629395,Wed Jun 24 2026 16:01:44 GMT-0400 (Eastern Daylight Time),117069.5,I,m,1217,,1217.0,3,no,1,11325.299999952316,105744.20000004768,KHW,KBW,9090,LC,B,,114246.0,3
4,2,11.58299994468689,test,1,m,18417.00005531311,Wed Jun 24 2026 16:01:44 GMT-0400 (Eastern Daylight Time),119619.90000009537,I,m,2527,,2527.0,4,no,1,13875.700000047684,105744.20000004768,ZRBGMF,ZRBCMF,9090,LC,B,,115480.0,4
5,2,13.549999952316284,test,1,m,16450.000047683716,Wed Jun 24 2026 16:01:44 GMT-0400 (Eastern Daylight Time),121586.40000009537,I,m,1945,,1945.0,5,no,1,15842.200000047684,105744.20000004768,BTH,BYH,9090,LC,B,,118030.0,5
6,2,17.182999849319458,test,1,z,12817.000150680542,Wed Jun 24 2026 16:01:44 GMT-0400 (Eastern Daylight Time),125219.60000002384,I,z,3611,,3611.0,6,yes,1,19475.399999976158,105744.20000004768,XWKQRYCNZ,XWKQRYCNZ,9090,LC,B,,119997.0,6
7,2,19.83299994468689,test,1,z,10167.00005531311,Wed Jun 24 2026 16:01:44 GMT-0400 (Eastern Daylight Time),127869.80000007153,I,z,2635,,2635.0,7,yes,1,22125.600000023842,105744.20000004768,HNPDLK,HNPDLK,9090,LC,B,,123628.0,7
8,2,23.399999856948853,test,1,m,6600.0001430511475,Wed Jun 24 2026 16:01:44 GMT-0400 (Eastern Daylight Time),131436.40000009537,I,m,3552,,3552.0,8,no,1,25692.200000047684,105744.20000004768,WMQTRSGLZ,WMQTRZGLZ,9090,LC,B,,126279.0,8
9,2,24.715999841690063,test,1,z,5284.0001583099365,Wed Jun 24 2026 16:01:44 GMT-0400 (Eastern Daylight Time),132753.0,I,z,1297,,1297.0,9,yes,1,27008.799999952316,105744.20000004768,JPN,JPN,9090,LC,B,,129846.0,9
10,2,26.432999849319458,test,1,m,3567.000150680542,Wed Jun 24 2026 16:01:44 GMT-0400 (Eastern Daylight Time),134469.80000007153,I,m,1693,,1693.0,10,no,1,28725.600000023842,105744.20000004768,QLXSVT,QLNSVT,9090,LC,B,,131162.0,10
10,2,30.01699995994568,test,0,z,-16.99995994567871,Wed Jun 24 2026 16:01:44 GMT-0400 (Eastern Daylight Time),138053.10000002384,I,None,3574,,3574.0,11,yes,1,32308.899999976158,105744.20000004768,YXHKZVFPB,YXHKZVFPD,9090,LC,B,,132880.0,11
