acc_sum,block,block_c,change,condition,correct,correct_response,datetime,endtime,face,project,response,response_time,row_sel,session_number,start_end,starttime,subject_id,task,task_vers,trial
0,prac,1,,1-Back,,,Wed May 06 2026 10:28:26 GMT-0500 (Central Daylight Time),,093_m_f_n_a.png,O,space,11966,1,1,,,7798,NNB,C,0
1,prac,1,0.0,1-Back,1.0,m,Wed May 06 2026 10:28:26 GMT-0500 (Central Daylight Time),205491.0,098_y_f_n_a.png,O,m,868,2,1,1719.3999999985099,203771.6000000015,7798,NNB,C,1
1,prac,1,1.0,1-Back,0.0,z,Wed May 06 2026 10:28:26 GMT-0500 (Central Daylight Time),208258.3999999985,098_y_f_n_a.png,O,None,2006,3,1,2758.7999999970198,205499.6000000015,7798,NNB,C,2
2,prac,1,0.0,1-Back,1.0,m,Wed May 06 2026 10:28:26 GMT-0500 (Central Daylight Time),209407.3999999985,059_o_m_n_a.png,O,m,280,4,1,1136.2999999970198,208271.1000000015,7798,NNB,C,3
2,prac,1,0.0,1-Back,0.0,m,Wed May 06 2026 10:28:26 GMT-0500 (Central Daylight Time),211022.3999999985,092_m_m_n_a.png,O,z,759,5,1,1605.6999999955297,209416.70000000298,7798,NNB,C,4
3,prac,1,1.0,1-Back,1.0,z,Wed May 06 2026 10:28:26 GMT-0500 (Central Daylight Time),213239.6000000015,092_m_m_n_a.png,O,z,1427,6,1,2209.0,211030.6000000015,7798,NNB,C,5
4,prac,1,0.0,1-Back,1.0,m,Wed May 06 2026 10:28:26 GMT-0500 (Central Daylight Time),215688.20000000298,130_o_f_n_a.png,O,m,1586,7,1,2441.89999999851,213246.30000000447,7798,NNB,C,6
5,prac,1,0.0,1-Back,1.0,m,Wed May 06 2026 10:28:26 GMT-0500 (Central Daylight Time),217905.70000000298,082_m_m_n_a.png,O,m,1358,8,1,2207.89999999851,215697.80000000447,7798,NNB,C,7
6,prac,1,0.0,1-Back,1.0,m,Wed May 06 2026 10:28:26 GMT-0500 (Central Daylight Time),219621.8999999985,093_m_f_n_a.png,O,m,935,9,1,1707.3999999985099,217914.5,7798,NNB,C,8
7,prac,1,1.0,1-Back,1.0,z,Wed May 06 2026 10:28:26 GMT-0500 (Central Daylight Time),221338.30000000447,093_m_f_n_a.png,O,z,945,10,1,1704.5,219633.80000000447,7798,NNB,C,9
8,prac,1,0.0,1-Back,1.0,m,Wed May 06 2026 10:28:26 GMT-0500 (Central Daylight Time),223353.20000000298,059_o_m_n_a.png,O,m,1228,11,1,2003.6000000014901,221349.6000000015,7798,NNB,C,10
9,prac,1,0.0,1-Back,1.0,m,Wed May 06 2026 10:28:26 GMT-0500 (Central Daylight Time),225337.3999999985,028_y_f_n_a.png,O,m,1135,12,1,1974.5999999940395,223362.80000000447,7798,NNB,C,11
0,test,1,0.0,1-Back,,,Wed May 06 2026 10:28:26 GMT-0500 (Central Daylight Time),225337.3999999985,098_y_f_n_a.png,O,space,10132,1,1,1974.5999999940395,223362.80000000447,7798,NNB,C,0
0,test,1,0.0,1-Back,0.0,m,Wed May 06 2026 10:28:26 GMT-0500 (Central Daylight Time),251677.5,006_m_f_n_a.png,O,z,979,2,1,1993.5,249684.0,7798,NNB,C,1
0,test,1,0.0,1-Back,0.0,m,Wed May 06 2026 10:28:26 GMT-0500 (Central Daylight Time),254709.3999999985,028_y_f_n_a.png,O,None,2015,3,1,3028.5,251680.8999999985,7798,NNB,C,2
0,test,1,1.0,1-Back,0.0,z,Wed May 06 2026 10:28:26 GMT-0500 (Central Daylight Time),256843.70000000298,028_y_f_n_a.png,O,m,1102,4,1,2127.39999999851,254716.30000000447,7798,NNB,C,3
0,test,1,0.0,1-Back,0.0,m,Wed May 06 2026 10:28:26 GMT-0500 (Central Daylight Time),259457.8999999985,006_m_f_n_a.png,O,z,1592,5,1,2611.2999999970198,256846.6000000015,7798,NNB,C,4
0,test,1,0.0,1-Back,0.0,m,Wed May 06 2026 10:28:26 GMT-0500 (Central Daylight Time),262490.30000000447,059_o_m_n_a.png,O,None,2015,6,1,3028.5,259461.80000000447,7798,NNB,C,5
1,test,1,1.0,1-Back,1.0,z,Wed May 06 2026 10:28:26 GMT-0500 (Central Daylight Time),264689.8999999985,059_o_m_n_a.png,O,z,1172,7,1,2192.39999999851,262497.5,7798,NNB,C,6
2,test,1,0.0,1-Back,1.0,m,Wed May 06 2026 10:28:26 GMT-0500 (Central Daylight Time),266873.0,092_m_m_n_a.png,O,m,1151,8,1,2180.10000000149,264692.8999999985,7798,NNB,C,7
3,test,1,0.0,1-Back,1.0,m,Wed May 06 2026 10:28:26 GMT-0500 (Central Daylight Time),269590.200000003,130_o_f_n_a.png,O,m,1684,9,1,2714.39999999851,266875.80000000447,7798,NNB,C,8
4,test,1,0.0,1-Back,1.0,m,Wed May 06 2026 10:28:26 GMT-0500 (Central Daylight Time),272169.700000003,092_m_m_n_a.png,O,m,1553,10,1,2576.0,269593.700000003,7798,NNB,C,9
5,test,1,0.0,1-Back,1.0,m,Wed May 06 2026 10:28:26 GMT-0500 (Central Daylight Time),274252.5,057_y_m_n_a.png,O,m,1055,11,1,2079.60000000149,272172.8999999985,7798,NNB,C,10
6,test,1,1.0,1-Back,1.0,z,Wed May 06 2026 10:28:26 GMT-0500 (Central Daylight Time),275935.700000003,057_y_m_n_a.png,O,z,652,12,1,1679.3000000044703,274256.3999999985,7798,NNB,C,11
7,test,1,0.0,1-Back,1.0,m,Wed May 06 2026 10:28:26 GMT-0500 (Central Daylight Time),278052.200000003,030_o_f_n_a.png,O,m,1099,13,1,2111.89999999851,275940.30000000447,7798,NNB,C,12
8,test,1,1.0,1-Back,1.0,z,Wed May 06 2026 10:28:26 GMT-0500 (Central Daylight Time),280052.5,030_o_f_n_a.png,O,z,969,14,1,1997.8999999985099,278054.6000000015,7798,NNB,C,13
9,test,1,0.0,1-Back,1.0,m,Wed May 06 2026 10:28:26 GMT-0500 (Central Daylight Time),282151.1000000015,031_y_m_n_a.png,O,m,1079,15,1,2095.2000000029802,280055.8999999985,7798,NNB,C,14
10,test,1,0.0,1-Back,1.0,m,Wed May 06 2026 10:28:26 GMT-0500 (Central Daylight Time),284299.80000000447,093_m_f_n_a.png,O,m,1122,16,1,2145.4000000059605,282154.3999999985,7798,NNB,C,15
11,test,1,0.0,1-Back,1.0,m,Wed May 06 2026 10:28:26 GMT-0500 (Central Daylight Time),286315.80000000447,146_o_m_n_a.png,O,m,997,17,1,2011.8000000044703,284304.0,7798,NNB,C,16
12,test,1,0.0,1-Back,1.0,m,Wed May 06 2026 10:28:26 GMT-0500 (Central Daylight Time),288164.8999999985,093_m_f_n_a.png,O,m,828,18,1,1846.5,286318.3999999985,7798,NNB,C,17
0,test,2,0.0,1-Back,,,Wed May 06 2026 10:28:26 GMT-0500 (Central Daylight Time),288164.8999999985,092_m_m_n_a.png,O,space,7709,1,1,1846.5,286318.3999999985,7798,NNB,C,0
1,test,2,0.0,1-Back,1.0,m,Wed May 06 2026 10:28:26 GMT-0500 (Central Daylight Time),300761.700000003,006_m_f_n_a.png,O,m,1832,2,1,2859.3000000044703,297902.3999999985,7798,NNB,C,1
2,test,2,1.0,1-Back,1.0,z,Wed May 06 2026 10:28:26 GMT-0500 (Central Daylight Time),302927.3999999985,006_m_f_n_a.png,O,z,1135,3,1,2161.7999999970198,300765.6000000015,7798,NNB,C,2
3,test,2,0.0,1-Back,1.0,m,Wed May 06 2026 10:28:26 GMT-0500 (Central Daylight Time),304827.0,092_m_m_n_a.png,O,m,870,4,1,1896.3999999985099,302930.6000000015,7798,NNB,C,3
4,test,2,0.0,1-Back,1.0,m,Wed May 06 2026 10:28:26 GMT-0500 (Central Daylight Time),306776.30000000447,057_y_m_n_a.png,O,m,926,5,1,1942.8000000044703,304833.5,7798,NNB,C,4
5,test,2,0.0,1-Back,1.0,m,Wed May 06 2026 10:28:26 GMT-0500 (Central Daylight Time),308576.3999999985,098_y_f_n_a.png,O,m,778,6,1,1797.5999999940395,306778.80000000447,7798,NNB,C,5
6,test,2,1.0,1-Back,1.0,z,Wed May 06 2026 10:28:26 GMT-0500 (Central Daylight Time),310408.0,098_y_f_n_a.png,O,z,802,7,1,1826.2999999970198,308581.700000003,7798,NNB,C,6
7,test,2,0.0,1-Back,1.0,m,Wed May 06 2026 10:28:26 GMT-0500 (Central Daylight Time),312358.1000000015,057_y_m_n_a.png,O,m,922,8,1,1945.8999999985099,310412.200000003,7798,NNB,C,7
8,test,2,0.0,1-Back,1.0,m,Wed May 06 2026 10:28:26 GMT-0500 (Central Daylight Time),314574.0,030_o_f_n_a.png,O,m,1188,9,1,2212.7999999970198,312361.200000003,7798,NNB,C,8
9,test,2,0.0,1-Back,1.0,m,Wed May 06 2026 10:28:26 GMT-0500 (Central Daylight Time),316423.5,082_m_m_n_a.png,O,m,817,10,1,1846.6000000014901,314576.8999999985,7798,NNB,C,9
10,test,2,1.0,1-Back,1.0,z,Wed May 06 2026 10:28:26 GMT-0500 (Central Daylight Time),318272.1000000015,082_m_m_n_a.png,O,z,825,11,1,1845.7999999970198,316426.30000000447,7798,NNB,C,10
11,test,2,0.0,1-Back,1.0,m,Wed May 06 2026 10:28:26 GMT-0500 (Central Daylight Time),320107.30000000447,030_o_f_n_a.png,O,m,804,12,1,1833.2000000029802,318274.1000000015,7798,NNB,C,11
11,test,2,0.0,1-Back,0.0,m,Wed May 06 2026 10:28:26 GMT-0500 (Central Daylight Time),322104.6000000015,130_o_f_n_a.png,O,z,968,13,1,1994.8999999985099,320109.700000003,7798,NNB,C,12
12,test,2,0.0,1-Back,1.0,m,Wed May 06 2026 10:28:26 GMT-0500 (Central Daylight Time),323871.0,059_o_m_n_a.png,O,m,736,14,1,1763.1999999955297,322107.80000000447,7798,NNB,C,13
13,test,2,0.0,1-Back,1.0,m,Wed May 06 2026 10:28:26 GMT-0500 (Central Daylight Time),325788.5,146_o_m_n_a.png,O,m,889,15,1,1914.1000000014901,323874.3999999985,7798,NNB,C,14
13,test,2,1.0,1-Back,0.0,z,Wed May 06 2026 10:28:26 GMT-0500 (Central Daylight Time),327603.80000000447,146_o_m_n_a.png,O,m,800,16,1,1813.5,325790.30000000447,7798,NNB,C,15
13,test,2,0.0,1-Back,0.0,m,Wed May 06 2026 10:28:26 GMT-0500 (Central Daylight Time),329518.700000003,031_y_m_n_a.png,O,z,886,17,1,1912.8999999985099,327605.80000000447,7798,NNB,C,16
13,test,2,1.0,1-Back,0.0,z,Wed May 06 2026 10:28:26 GMT-0500 (Central Daylight Time),331786.5,031_y_m_n_a.png,O,m,1234,18,1,2265.1999999955297,329521.30000000447,7798,NNB,C,17
0,test,3,1.0,1-Back,,,Wed May 06 2026 10:28:26 GMT-0500 (Central Daylight Time),331786.5,028_y_f_n_a.png,O,space,6350,1,1,2265.1999999955297,329521.30000000447,7798,NNB,C,0
1,test,3,0.0,1-Back,1.0,m,Wed May 06 2026 10:28:26 GMT-0500 (Central Daylight Time),342683.5,146_o_m_n_a.png,O,m,1418,1,1,2443.7999999970198,340239.700000003,7798,NNB,C,1
2,test,3,1.0,1-Back,1.0,z,Wed May 06 2026 10:28:26 GMT-0500 (Central Daylight Time),345581.5,146_o_m_n_a.png,O,z,1872,1,1,2895.89999999851,342685.6000000015,7798,NNB,C,2
3,test,3,0.0,1-Back,1.0,m,Wed May 06 2026 10:28:26 GMT-0500 (Central Daylight Time),347946.8999999985,093_m_f_n_a.png,O,m,1333,1,1,2362.6999999955297,345584.200000003,7798,NNB,C,3
4,test,3,1.0,1-Back,1.0,z,Wed May 06 2026 10:28:26 GMT-0500 (Central Daylight Time),350012.1000000015,093_m_f_n_a.png,O,z,1032,1,1,2062.10000000149,347950.0,7798,NNB,C,4
5,test,3,0.0,1-Back,1.0,m,Wed May 06 2026 10:28:26 GMT-0500 (Central Daylight Time),352478.1000000015,030_o_f_n_a.png,O,m,1436,1,1,2462.7999999970198,350015.30000000447,7798,NNB,C,5
6,test,3,0.0,1-Back,1.0,m,Wed May 06 2026 10:28:26 GMT-0500 (Central Daylight Time),354827.0,057_y_m_n_a.png,O,m,1323,1,1,2346.89999999851,352480.1000000015,7798,NNB,C,6
6,test,3,0.0,1-Back,0.0,m,Wed May 06 2026 10:28:26 GMT-0500 (Central Daylight Time),356877.1000000015,030_o_f_n_a.png,O,z,1017,1,1,2047.2000000029802,354829.8999999985,7798,NNB,C,7
7,test,3,0.0,1-Back,1.0,m,Wed May 06 2026 10:28:26 GMT-0500 (Central Daylight Time),359242.6000000015,031_y_m_n_a.png,O,m,1335,1,1,2362.60000000149,356880.0,7798,NNB,C,8
8,test,3,1.0,1-Back,1.0,z,Wed May 06 2026 10:28:26 GMT-0500 (Central Daylight Time),361575.3999999985,031_y_m_n_a.png,O,z,1302,1,1,2329.0999999940395,359246.30000000447,7798,NNB,C,9
8,test,3,0.0,1-Back,0.0,m,Wed May 06 2026 10:28:26 GMT-0500 (Central Daylight Time),363940.80000000447,006_m_f_n_a.png,O,z,1337,1,1,2361.2000000029802,361579.6000000015,7798,NNB,C,10
9,test,3,0.0,1-Back,1.0,m,Wed May 06 2026 10:28:26 GMT-0500 (Central Daylight Time),366724.700000003,098_y_f_n_a.png,O,m,1749,1,1,2781.60000000149,363943.1000000015,7798,NNB,C,11
10,test,3,1.0,1-Back,1.0,z,Wed May 06 2026 10:28:26 GMT-0500 (Central Daylight Time),368740.3999999985,098_y_f_n_a.png,O,z,984,1,1,2013.6999999955297,366726.700000003,7798,NNB,C,12
11,test,3,0.0,1-Back,1.0,m,Wed May 06 2026 10:28:26 GMT-0500 (Central Daylight Time),370772.30000000447,006_m_f_n_a.png,O,m,1015,1,1,2028.3000000044703,368744.0,7798,NNB,C,13
12,test,3,0.0,1-Back,1.0,m,Wed May 06 2026 10:28:26 GMT-0500 (Central Daylight Time),373271.1000000015,092_m_m_n_a.png,O,m,1468,1,1,2496.0,370775.1000000015,7798,NNB,C,14
13,test,3,1.0,1-Back,1.0,z,Wed May 06 2026 10:28:26 GMT-0500 (Central Daylight Time),375186.5,092_m_m_n_a.png,O,z,888,1,1,1913.1000000014901,373273.3999999985,7798,NNB,C,15
14,test,3,0.0,1-Back,1.0,m,Wed May 06 2026 10:28:26 GMT-0500 (Central Daylight Time),377368.8999999985,130_o_f_n_a.png,O,m,1157,1,1,2180.6999999955297,375188.200000003,7798,NNB,C,16
15,test,3,1.0,1-Back,1.0,z,Wed May 06 2026 10:28:26 GMT-0500 (Central Daylight Time),379469.30000000447,130_o_f_n_a.png,O,z,1079,1,1,2098.5,377370.80000000447,7798,NNB,C,17
0,test,4,1.0,1-Back,,,Wed May 06 2026 10:28:26 GMT-0500 (Central Daylight Time),379469.30000000447,093_m_f_n_a.png,O,space,3228,1,1,2098.5,377370.80000000447,7798,NNB,C,0
1,test,4,0.0,1-Back,1.0,m,Wed May 06 2026 10:28:26 GMT-0500 (Central Daylight Time),387400.3999999985,146_o_m_n_a.png,O,m,1585,2,1,2606.1999999955297,384794.200000003,7798,NNB,C,1
2,test,4,0.0,1-Back,1.0,m,Wed May 06 2026 10:28:26 GMT-0500 (Central Daylight Time),389599.30000000447,093_m_f_n_a.png,O,m,1169,3,1,2194.2000000029802,387405.1000000015,7798,NNB,C,2
3,test,4,0.0,1-Back,1.0,m,Wed May 06 2026 10:28:26 GMT-0500 (Central Daylight Time),391666.5,030_o_f_n_a.png,O,m,1034,4,1,2062.10000000149,389604.3999999985,7798,NNB,C,3
4,test,4,1.0,1-Back,1.0,z,Wed May 06 2026 10:28:26 GMT-0500 (Central Daylight Time),393498.200000003,030_o_f_n_a.png,O,z,802,5,1,1828.0,391670.200000003,7798,NNB,C,4
5,test,4,0.0,1-Back,1.0,m,Wed May 06 2026 10:28:26 GMT-0500 (Central Daylight Time),395413.8999999985,098_y_f_n_a.png,O,m,886,6,1,1910.5999999940395,393503.30000000447,7798,NNB,C,5
6,test,4,0.0,1-Back,1.0,m,Wed May 06 2026 10:28:26 GMT-0500 (Central Daylight Time),397447.8999999985,057_y_m_n_a.png,O,m,1010,7,1,2029.7999999970198,395418.1000000015,7798,NNB,C,6
7,test,4,1.0,1-Back,1.0,z,Wed May 06 2026 10:28:26 GMT-0500 (Central Daylight Time),399330.0,057_y_m_n_a.png,O,z,858,8,1,1879.8999999985099,397450.1000000015,7798,NNB,C,7
8,test,4,0.0,1-Back,1.0,m,Wed May 06 2026 10:28:26 GMT-0500 (Central Daylight Time),401212.80000000447,098_y_f_n_a.png,O,m,851,9,1,1877.2000000029802,399335.6000000015,7798,NNB,C,8
9,test,4,0.0,1-Back,1.0,m,Wed May 06 2026 10:28:26 GMT-0500 (Central Daylight Time),403278.8999999985,082_m_m_n_a.png,O,m,1037,10,1,2061.89999999851,401217.0,7798,NNB,C,9
10,test,4,1.0,1-Back,1.0,z,Wed May 06 2026 10:28:26 GMT-0500 (Central Daylight Time),404994.1000000015,082_m_m_n_a.png,O,z,691,11,1,1710.7000000029802,403283.3999999985,7798,NNB,C,10
11,test,4,0.0,1-Back,1.0,m,Wed May 06 2026 10:28:26 GMT-0500 (Central Daylight Time),406827.700000003,130_o_f_n_a.png,O,m,808,12,1,1830.1000000014901,404997.6000000015,7798,NNB,C,11
12,test,4,0.0,1-Back,1.0,m,Wed May 06 2026 10:28:26 GMT-0500 (Central Daylight Time),409061.5,059_o_m_n_a.png,O,m,1208,13,1,2230.2999999970198,406831.200000003,7798,NNB,C,12
13,test,4,0.0,1-Back,1.0,m,Wed May 06 2026 10:28:26 GMT-0500 (Central Daylight Time),411177.30000000447,130_o_f_n_a.png,O,m,1085,14,1,2113.3000000044703,409064.0,7798,NNB,C,13
14,test,4,0.0,1-Back,1.0,m,Wed May 06 2026 10:28:26 GMT-0500 (Central Daylight Time),413125.3999999985,028_y_f_n_a.png,O,m,915,15,1,1944.6999999955297,411180.700000003,7798,NNB,C,14
15,test,4,1.0,1-Back,1.0,z,Wed May 06 2026 10:28:26 GMT-0500 (Central Daylight Time),414875.1000000015,028_y_f_n_a.png,O,z,718,16,1,1746.6000000014901,413128.5,7798,NNB,C,15
16,test,4,0.0,1-Back,1.0,m,Wed May 06 2026 10:28:26 GMT-0500 (Central Daylight Time),416658.6000000015,006_m_f_n_a.png,O,m,752,17,1,1780.2999999970198,414878.30000000447,7798,NNB,C,16
17,test,4,1.0,1-Back,1.0,z,Wed May 06 2026 10:28:26 GMT-0500 (Central Daylight Time),418557.5,006_m_f_n_a.png,O,z,871,18,1,1895.6000000014901,416661.8999999985,7798,NNB,C,17
0,test,5,1.0,1-Back,,,Wed May 06 2026 10:28:26 GMT-0500 (Central Daylight Time),418557.5,059_o_m_n_a.png,O,space,2951,1,1,1895.6000000014901,416661.8999999985,7798,NNB,C,0
1,test,5,1.0,1-Back,1.0,z,Wed May 06 2026 10:28:26 GMT-0500 (Central Daylight Time),425755.8999999985,059_o_m_n_a.png,O,z,1191,2,1,2208.89999999851,423547.0,7798,NNB,C,1
2,test,5,0.0,1-Back,1.0,m,Wed May 06 2026 10:28:26 GMT-0500 (Central Daylight Time),427687.30000000447,098_y_f_n_a.png,O,m,910,3,1,1928.7000000029802,425758.6000000015,7798,NNB,C,2
3,test,5,0.0,1-Back,1.0,m,Wed May 06 2026 10:28:26 GMT-0500 (Central Daylight Time),429620.200000003,057_y_m_n_a.png,O,m,907,4,1,1929.8999999985099,427690.30000000447,7798,NNB,C,3
4,test,5,0.0,1-Back,1.0,m,Wed May 06 2026 10:28:26 GMT-0500 (Central Daylight Time),431336.200000003,098_y_f_n_a.png,O,m,692,5,1,1713.5,429622.700000003,7798,NNB,C,4
5,test,5,0.0,1-Back,1.0,m,Wed May 06 2026 10:28:26 GMT-0500 (Central Daylight Time),433452.200000003,092_m_m_n_a.png,O,m,1083,6,1,2114.5,431337.700000003,7798,NNB,C,5
6,test,5,1.0,1-Back,1.0,z,Wed May 06 2026 10:28:26 GMT-0500 (Central Daylight Time),435219.30000000447,092_m_m_n_a.png,O,z,741,7,1,1762.8000000044703,433456.5,7798,NNB,C,6
7,test,5,0.0,1-Back,1.0,m,Wed May 06 2026 10:28:26 GMT-0500 (Central Daylight Time),436967.700000003,028_y_f_n_a.png,O,m,726,8,1,1745.8000000044703,435221.8999999985,7798,NNB,C,7
8,test,5,0.0,1-Back,1.0,m,Wed May 06 2026 10:28:26 GMT-0500 (Central Daylight Time),438868.3999999985,031_y_m_n_a.png,O,m,873,9,1,1897.2999999970198,436971.1000000015,7798,NNB,C,8
9,test,5,0.0,1-Back,1.0,m,Wed May 06 2026 10:28:26 GMT-0500 (Central Daylight Time),440582.6000000015,028_y_f_n_a.png,O,m,694,10,1,1711.3999999985099,438871.200000003,7798,NNB,C,9
10,test,5,0.0,1-Back,1.0,m,Wed May 06 2026 10:28:26 GMT-0500 (Central Daylight Time),442450.30000000447,130_o_f_n_a.png,O,m,835,11,1,1865.3000000044703,440585.0,7798,NNB,C,10
11,test,5,1.0,1-Back,1.0,z,Wed May 06 2026 10:28:26 GMT-0500 (Central Daylight Time),444349.1000000015,130_o_f_n_a.png,O,z,866,12,1,1895.8999999985099,442453.200000003,7798,NNB,C,11
12,test,5,0.0,1-Back,1.0,m,Wed May 06 2026 10:28:26 GMT-0500 (Central Daylight Time),446481.8999999985,146_o_m_n_a.png,O,m,1108,13,1,2128.5,444353.3999999985,7798,NNB,C,12
13,test,5,0.0,1-Back,1.0,m,Wed May 06 2026 10:28:26 GMT-0500 (Central Daylight Time),448431.200000003,093_m_f_n_a.png,O,m,927,14,1,1945.7000000029802,446485.5,7798,NNB,C,13
14,test,5,1.0,1-Back,1.0,z,Wed May 06 2026 10:28:26 GMT-0500 (Central Daylight Time),449980.6000000015,093_m_f_n_a.png,O,z,533,15,1,1547.5,448433.1000000015,7798,NNB,C,14
15,test,5,0.0,1-Back,1.0,m,Wed May 06 2026 10:28:26 GMT-0500 (Central Daylight Time),452063.5,146_o_m_n_a.png,O,m,1049,16,1,2080.10000000149,449983.3999999985,7798,NNB,C,15
16,test,5,0.0,1-Back,1.0,m,Wed May 06 2026 10:28:26 GMT-0500 (Central Daylight Time),454011.700000003,006_m_f_n_a.png,O,m,928,17,1,1944.8999999985099,452066.80000000447,7798,NNB,C,16
17,test,5,0.0,1-Back,1.0,m,Wed May 06 2026 10:28:26 GMT-0500 (Central Daylight Time),455846.80000000447,082_m_m_n_a.png,O,m,805,18,1,1832.4000000059605,454014.3999999985,7798,NNB,C,17
0,prac,1,0.0,2-Back,,,Wed May 06 2026 10:28:26 GMT-0500 (Central Daylight Time),455846.80000000447,031_y_m_n_a.png,O,space,13981,1,1,1832.4000000059605,454014.3999999985,7798,NNB,C,0
0,prac,1,0.0,2-Back,,,Wed May 06 2026 10:28:26 GMT-0500 (Central Daylight Time),455846.80000000447,006_m_f_n_a.png,O,space,13981,2,1,1832.4000000059605,454014.3999999985,7798,NNB,C,0
1,prac,1,1.0,2-Back,1.0,m,Wed May 06 2026 10:28:26 GMT-0500 (Central Daylight Time),661964.1000000015,146_o_m_n_a.png,O,m,1133,3,1,1989.2000000029802,659974.8999999985,7798,NNB,C,1
1,prac,1,0.0,2-Back,0.0,m,Wed May 06 2026 10:28:26 GMT-0500 (Central Daylight Time),664828.6000000015,130_o_f_n_a.png,O,None,2001,4,1,2854.60000000149,661974.0,7798,NNB,C,2
1,prac,1,0.0,2-Back,0.0,z,Wed May 06 2026 10:28:26 GMT-0500 (Central Daylight Time),665979.1000000015,146_o_m_n_a.png,O,m,363,5,1,1144.8999999985099,664834.200000003,7798,NNB,C,3
1,prac,1,1.0,2-Back,0.0,z,Wed May 06 2026 10:28:26 GMT-0500 (Central Daylight Time),668377.200000003,130_o_f_n_a.png,O,m,1616,6,1,2390.39999999851,665986.8000000045,7798,NNB,C,4
1,prac,1,0.0,2-Back,0.0,m,Wed May 06 2026 10:28:26 GMT-0500 (Central Daylight Time),671243.6000000015,082_m_m_n_a.png,O,None,2016,7,1,2856.2000000029802,668387.3999999985,7798,NNB,C,5
1,prac,1,0.0,2-Back,0.0,m,Wed May 06 2026 10:28:26 GMT-0500 (Central Daylight Time),673242.5,059_o_m_n_a.png,O,z,1134,8,1,1990.6000000014901,671251.8999999985,7798,NNB,C,6
1,prac,1,0.0,2-Back,0.0,m,Wed May 06 2026 10:28:26 GMT-0500 (Central Daylight Time),676078.3000000045,028_y_f_n_a.png,O,None,2002,9,1,2827.5,673250.8000000045,7798,NNB,C,7
1,prac,1,1.0,2-Back,0.0,z,Wed May 06 2026 10:28:26 GMT-0500 (Central Daylight Time),677342.3999999985,059_o_m_n_a.png,O,m,484,10,1,1255.3999999985099,676087.0,7798,NNB,C,8
2,prac,1,0.0,2-Back,1.0,m,Wed May 06 2026 10:28:26 GMT-0500 (Central Daylight Time),679223.3999999985,098_y_f_n_a.png,O,m,1037,11,1,1872.6999999955297,677350.700000003,7798,NNB,C,9
2,prac,1,0.0,2-Back,0.0,m,Wed May 06 2026 10:28:26 GMT-0500 (Central Daylight Time),681223.0,082_m_m_n_a.png,O,z,1224,12,1,1990.6999999955297,679232.3000000045,7798,NNB,C,10
0,prac,2,0.0,2-Back,,,Wed May 06 2026 10:28:26 GMT-0500 (Central Daylight Time),681223.0,031_y_m_n_a.png,O,a,28965,1,1,1990.6999999955297,679232.3000000045,7798,NNB,C,0
0,prac,2,0.0,2-Back,,,Wed May 06 2026 10:28:26 GMT-0500 (Central Daylight Time),681223.0,006_m_f_n_a.png,O,a,28965,2,1,1990.6999999955297,679232.3000000045,7798,NNB,C,0
0,prac,2,1.0,2-Back,0.0,m,Wed May 06 2026 10:28:26 GMT-0500 (Central Daylight Time),717295.700000003,146_o_m_n_a.png,O,z,1006,3,1,1875.6000000014901,715420.1000000015,7798,NNB,C,1
0,prac,2,0.0,2-Back,0.0,m,Wed May 06 2026 10:28:26 GMT-0500 (Central Daylight Time),720162.1000000015,130_o_f_n_a.png,O,None,2002,4,1,2858.10000000149,717304.0,7798,NNB,C,2
0,prac,2,0.0,2-Back,0.0,z,Wed May 06 2026 10:28:26 GMT-0500 (Central Daylight Time),721378.3000000045,146_o_m_n_a.png,O,m,426,5,1,1208.5,720169.8000000045,7798,NNB,C,3
0,prac,2,1.0,2-Back,0.0,z,Wed May 06 2026 10:28:26 GMT-0500 (Central Daylight Time),723011.700000003,130_o_f_n_a.png,O,m,848,6,1,1624.7000000029802,721387.0,7798,NNB,C,4
0,prac,2,0.0,2-Back,0.0,m,Wed May 06 2026 10:28:26 GMT-0500 (Central Daylight Time),725627.700000003,082_m_m_n_a.png,O,z,1773,7,1,2607.89999999851,723019.8000000045,7798,NNB,C,5
1,prac,2,0.0,2-Back,1.0,m,Wed May 06 2026 10:28:26 GMT-0500 (Central Daylight Time),727409.8999999985,059_o_m_n_a.png,O,m,921,8,1,1773.0,725636.8999999985,7798,NNB,C,6
1,prac,2,0.0,2-Back,0.0,m,Wed May 06 2026 10:28:26 GMT-0500 (Central Daylight Time),729876.1000000015,028_y_f_n_a.png,O,z,1605,9,1,2457.0,727419.1000000015,7798,NNB,C,7
1,prac,2,1.0,2-Back,0.0,z,Wed May 06 2026 10:28:26 GMT-0500 (Central Daylight Time),731690.1000000015,059_o_m_n_a.png,O,m,1029,10,1,1805.6000000014901,729884.5,7798,NNB,C,8
1,prac,2,0.0,2-Back,0.0,m,Wed May 06 2026 10:28:26 GMT-0500 (Central Daylight Time),734091.200000003,098_y_f_n_a.png,O,z,1561,11,1,2393.89999999851,731697.3000000045,7798,NNB,C,9
2,prac,2,0.0,2-Back,1.0,m,Wed May 06 2026 10:28:26 GMT-0500 (Central Daylight Time),736438.8999999985,082_m_m_n_a.png,O,m,1560,12,1,2341.0999999940395,734097.8000000045,7798,NNB,C,10
0,test,1,0.0,2-Back,,,Wed May 06 2026 10:28:26 GMT-0500 (Central Daylight Time),736438.8999999985,057_y_m_n_a.png,O,space,24421,1,1,2341.0999999940395,734097.8000000045,7798,NNB,C,0
0,test,1,0.0,2-Back,,,Wed May 06 2026 10:28:26 GMT-0500 (Central Daylight Time),736438.8999999985,057_y_m_n_a.png,O,space,24421,2,1,2341.0999999940395,734097.8000000045,7798,NNB,C,0
1,test,1,0.0,2-Back,1.0,m,Wed May 06 2026 10:28:26 GMT-0500 (Central Daylight Time),801184.700000003,130_o_f_n_a.png,O,m,1032,3,1,2042.0,799142.700000003,7798,NNB,C,1
1,test,1,0.0,2-Back,0.0,m,Wed May 06 2026 10:28:26 GMT-0500 (Central Daylight Time),803718.0,092_m_m_n_a.png,O,z,1504,4,1,2531.60000000149,801186.3999999985,7798,NNB,C,2
2,test,1,1.0,2-Back,1.0,z,Wed May 06 2026 10:28:26 GMT-0500 (Central Daylight Time),806199.0,130_o_f_n_a.png,O,z,1457,5,1,2478.2999999970198,803720.700000003,7798,NNB,C,3
3,test,1,0.0,2-Back,1.0,m,Wed May 06 2026 10:28:26 GMT-0500 (Central Daylight Time),808416.1000000015,098_y_f_n_a.png,O,m,1200,6,1,2215.39999999851,806200.700000003,7798,NNB,C,4
3,test,1,0.0,2-Back,0.0,m,Wed May 06 2026 10:28:26 GMT-0500 (Central Daylight Time),810866.3999999985,092_m_m_n_a.png,O,z,1418,7,1,2446.6999999955297,808419.700000003,7798,NNB,C,5
4,test,1,1.0,2-Back,1.0,z,Wed May 06 2026 10:28:26 GMT-0500 (Central Daylight Time),813364.200000003,098_y_f_n_a.png,O,z,1466,8,1,2495.0,810869.200000003,7798,NNB,C,6
5,test,1,0.0,2-Back,1.0,m,Wed May 06 2026 10:28:26 GMT-0500 (Central Daylight Time),815697.8000000045,031_y_m_n_a.png,O,m,1299,9,1,2331.3000000044703,813366.5,7798,NNB,C,7
5,test,1,0.0,2-Back,0.0,m,Wed May 06 2026 10:28:26 GMT-0500 (Central Daylight Time),818230.5,030_o_f_n_a.png,O,z,1504,10,1,2529.1999999955297,815701.3000000045,7798,NNB,C,8
6,test,1,1.0,2-Back,1.0,z,Wed May 06 2026 10:28:26 GMT-0500 (Central Daylight Time),820729.200000003,031_y_m_n_a.png,O,z,1476,11,1,2495.8000000044703,818233.3999999985,7798,NNB,C,9
7,test,1,0.0,2-Back,1.0,m,Wed May 06 2026 10:28:26 GMT-0500 (Central Daylight Time),822844.8000000045,006_m_f_n_a.png,O,m,1087,12,1,2113.3000000044703,820731.5,7798,NNB,C,10
7,test,1,0.0,2-Back,0.0,m,Wed May 06 2026 10:28:26 GMT-0500 (Central Daylight Time),825463.200000003,006_m_f_n_a.png,O,z,1585,13,1,2615.8000000044703,822847.3999999985,7798,NNB,C,11
8,test,1,0.0,2-Back,1.0,m,Wed May 06 2026 10:28:26 GMT-0500 (Central Daylight Time),827960.5,146_o_m_n_a.png,O,m,1467,14,1,2494.5,825466.0,7798,NNB,C,12
8,test,1,0.0,2-Back,0.0,m,Wed May 06 2026 10:28:26 GMT-0500 (Central Daylight Time),830259.0,030_o_f_n_a.png,O,z,1267,15,1,2295.7999999970198,827963.200000003,7798,NNB,C,13
8,test,1,1.0,2-Back,0.0,z,Wed May 06 2026 10:28:26 GMT-0500 (Central Daylight Time),832376.3999999985,146_o_m_n_a.png,O,m,1085,16,1,2113.89999999851,830262.5,7798,NNB,C,14
8,test,1,0.0,2-Back,0.0,m,Wed May 06 2026 10:28:26 GMT-0500 (Central Daylight Time),834474.6000000015,093_m_f_n_a.png,O,z,1073,17,1,2095.39999999851,832379.200000003,7798,NNB,C,15
8,test,1,0.0,2-Back,0.0,m,Wed May 06 2026 10:28:26 GMT-0500 (Central Daylight Time),836740.1000000015,082_m_m_n_a.png,O,z,1238,18,1,2263.5,834476.6000000015,7798,NNB,C,16
0,test,2,0.0,2-Back,,,Wed May 06 2026 10:28:26 GMT-0500 (Central Daylight Time),836740.1000000015,082_m_m_n_a.png,O,space,4861,1,1,2263.5,834476.6000000015,7798,NNB,C,0
0,test,2,0.0,2-Back,,,Wed May 06 2026 10:28:26 GMT-0500 (Central Daylight Time),836740.1000000015,028_y_f_n_a.png,O,space,4861,2,1,2263.5,834476.6000000015,7798,NNB,C,0
1,test,2,1.0,2-Back,1.0,z,Wed May 06 2026 10:28:26 GMT-0500 (Central Daylight Time),848538.8999999985,082_m_m_n_a.png,O,z,801,3,1,1827.1999999955297,846711.700000003,7798,NNB,C,1
2,test,2,0.0,2-Back,1.0,m,Wed May 06 2026 10:28:26 GMT-0500 (Central Daylight Time),850702.3999999985,093_m_f_n_a.png,O,m,1136,4,1,2160.7999999970198,848541.6000000015,7798,NNB,C,2
2,test,2,0.0,2-Back,0.0,m,Wed May 06 2026 10:28:26 GMT-0500 (Central Daylight Time),852651.6000000015,028_y_f_n_a.png,O,z,922,5,1,1945.7999999970198,850705.8000000045,7798,NNB,C,3
3,test,2,0.0,2-Back,1.0,m,Wed May 06 2026 10:28:26 GMT-0500 (Central Daylight Time),855351.1000000015,146_o_m_n_a.png,O,m,1677,6,1,2697.39999999851,852653.700000003,7798,NNB,C,4
4,test,2,0.0,2-Back,1.0,m,Wed May 06 2026 10:28:26 GMT-0500 (Central Daylight Time),857883.3000000045,098_y_f_n_a.png,O,m,1506,7,1,2528.9000000059605,855354.3999999985,7798,NNB,C,5
5,test,2,1.0,2-Back,1.0,z,Wed May 06 2026 10:28:26 GMT-0500 (Central Daylight Time),859950.200000003,146_o_m_n_a.png,O,z,1046,8,1,2062.2000000029802,857888.0,7798,NNB,C,6
6,test,2,0.0,2-Back,1.0,m,Wed May 06 2026 10:28:26 GMT-0500 (Central Daylight Time),862165.1000000015,031_y_m_n_a.png,O,m,1186,9,1,2210.5,859954.6000000015,7798,NNB,C,7
6,test,2,0.0,2-Back,0.0,m,Wed May 06 2026 10:28:26 GMT-0500 (Central Daylight Time),864514.5,031_y_m_n_a.png,O,z,1324,10,1,2347.60000000149,862166.8999999985,7798,NNB,C,8
6,test,2,0.0,2-Back,0.0,m,Wed May 06 2026 10:28:26 GMT-0500 (Central Daylight Time),867097.6000000015,006_m_f_n_a.png,O,z,1559,11,1,2578.5,864519.1000000015,7798,NNB,C,9
7,test,2,0.0,2-Back,1.0,m,Wed May 06 2026 10:28:26 GMT-0500 (Central Daylight Time),869713.1000000015,028_y_f_n_a.png,O,m,1593,12,1,2612.10000000149,867101.0,7798,NNB,C,10
8,test,2,1.0,2-Back,1.0,z,Wed May 06 2026 10:28:26 GMT-0500 (Central Daylight Time),871978.700000003,006_m_f_n_a.png,O,z,1235,13,1,2261.0,869717.700000003,7798,NNB,C,11
9,test,2,0.0,2-Back,1.0,m,Wed May 06 2026 10:28:26 GMT-0500 (Central Daylight Time),874279.0,059_o_m_n_a.png,O,m,1279,14,1,2295.6999999955297,871983.3000000045,7798,NNB,C,12
9,test,2,0.0,2-Back,0.0,m,Wed May 06 2026 10:28:26 GMT-0500 (Central Daylight Time),877311.3999999985,059_o_m_n_a.png,O,None,2015,15,1,3029.5,874281.8999999985,7798,NNB,C,13
9,test,2,0.0,2-Back,0.0,m,Wed May 06 2026 10:28:26 GMT-0500 (Central Daylight Time),879976.8999999985,030_o_f_n_a.png,O,z,1642,16,1,2659.39999999851,877317.5,7798,NNB,C,14
10,test,2,0.0,2-Back,1.0,m,Wed May 06 2026 10:28:26 GMT-0500 (Central Daylight Time),882042.700000003,092_m_m_n_a.png,O,m,1035,17,1,2062.5,879980.200000003,7798,NNB,C,15
11,test,2,1.0,2-Back,1.0,z,Wed May 06 2026 10:28:26 GMT-0500 (Central Daylight Time),884526.3000000045,030_o_f_n_a.png,O,z,1463,18,1,2479.7000000029802,882046.6000000015,7798,NNB,C,16
0,test,3,1.0,2-Back,,,Wed May 06 2026 10:28:26 GMT-0500 (Central Daylight Time),884526.3000000045,057_y_m_n_a.png,O,space,4383,1,1,2479.7000000029802,882046.6000000015,7798,NNB,C,0
0,test,3,1.0,2-Back,,,Wed May 06 2026 10:28:26 GMT-0500 (Central Daylight Time),884526.3000000045,057_y_m_n_a.png,O,space,4383,2,1,2479.7000000029802,882046.6000000015,7798,NNB,C,0
1,test,3,0.0,2-Back,1.0,m,Wed May 06 2026 10:28:26 GMT-0500 (Central Daylight Time),896221.8999999985,030_o_f_n_a.png,O,m,1153,3,1,2177.2999999970198,894044.6000000015,7798,NNB,C,1
2,test,3,0.0,2-Back,1.0,m,Wed May 06 2026 10:28:26 GMT-0500 (Central Daylight Time),898303.8000000045,082_m_m_n_a.png,O,m,1061,4,1,2079.4000000059605,896224.3999999985,7798,NNB,C,2
2,test,3,1.0,2-Back,0.0,z,Wed May 06 2026 10:28:26 GMT-0500 (Central Daylight Time),900954.1000000015,030_o_f_n_a.png,O,m,1617,5,1,2647.10000000149,898307.0,7798,NNB,C,3
2,test,3,0.0,2-Back,0.0,m,Wed May 06 2026 10:28:26 GMT-0500 (Central Daylight Time),902919.8999999985,031_y_m_n_a.png,O,z,943,6,1,1961.5999999940395,900958.3000000045,7798,NNB,C,4
2,test,3,0.0,2-Back,0.0,m,Wed May 06 2026 10:28:26 GMT-0500 (Central Daylight Time),905284.3999999985,082_m_m_n_a.png,O,z,1337,7,1,2361.0999999940395,902923.3000000045,7798,NNB,C,5
2,test,3,1.0,2-Back,0.0,z,Wed May 06 2026 10:28:26 GMT-0500 (Central Daylight Time),907935.3999999985,031_y_m_n_a.png,O,m,1633,8,1,2647.39999999851,905288.0,7798,NNB,C,6
3,test,3,0.0,2-Back,1.0,m,Wed May 06 2026 10:28:26 GMT-0500 (Central Daylight Time),910351.5,028_y_f_n_a.png,O,m,1395,9,1,2413.60000000149,907937.8999999985,7798,NNB,C,7
3,test,3,0.0,2-Back,0.0,m,Wed May 06 2026 10:28:26 GMT-0500 (Central Daylight Time),912566.700000003,092_m_m_n_a.png,O,z,1186,10,1,2212.7000000029802,910354.0,7798,NNB,C,8
4,test,3,1.0,2-Back,1.0,z,Wed May 06 2026 10:28:26 GMT-0500 (Central Daylight Time),915216.200000003,028_y_f_n_a.png,O,z,1625,11,1,2646.7000000029802,912569.5,7798,NNB,C,9
5,test,3,1.0,2-Back,1.0,z,Wed May 06 2026 10:28:26 GMT-0500 (Central Daylight Time),917382.0,092_m_m_n_a.png,O,z,1135,12,1,2162.6999999955297,915219.3000000045,7798,NNB,C,10
6,test,3,0.0,2-Back,1.0,m,Wed May 06 2026 10:28:26 GMT-0500 (Central Daylight Time),919515.6000000015,030_o_f_n_a.png,O,m,1108,13,1,2130.2999999970198,917385.3000000045,7798,NNB,C,11
7,test,3,0.0,2-Back,1.0,m,Wed May 06 2026 10:28:26 GMT-0500 (Central Daylight Time),921679.8999999985,093_m_f_n_a.png,O,m,1140,14,1,2161.5999999940395,919518.3000000045,7798,NNB,C,12
7,test,3,0.0,2-Back,0.0,m,Wed May 06 2026 10:28:26 GMT-0500 (Central Daylight Time),923445.200000003,146_o_m_n_a.png,O,z,746,15,1,1761.5,921683.700000003,7798,NNB,C,13
7,test,3,1.0,2-Back,0.0,z,Wed May 06 2026 10:28:26 GMT-0500 (Central Daylight Time),926078.3999999985,093_m_f_n_a.png,O,m,1613,16,1,2630.89999999851,923447.5,7798,NNB,C,14
8,test,3,0.0,2-Back,1.0,m,Wed May 06 2026 10:28:26 GMT-0500 (Central Daylight Time),928360.6000000015,130_o_f_n_a.png,O,m,1257,17,1,2279.7999999970198,926080.8000000045,7798,NNB,C,15
9,test,3,0.0,2-Back,1.0,m,Wed May 06 2026 10:28:26 GMT-0500 (Central Daylight Time),930893.5,130_o_f_n_a.png,O,m,1512,18,1,2530.0,928363.5,7798,NNB,C,16
0,test,4,0.0,2-Back,,,Wed May 06 2026 10:28:26 GMT-0500 (Central Daylight Time),930893.5,059_o_m_n_a.png,O,space,2203,1,1,2530.0,928363.5,7798,NNB,C,0
0,test,4,0.0,2-Back,,,Wed May 06 2026 10:28:26 GMT-0500 (Central Daylight Time),930893.5,098_y_f_n_a.png,O,space,2203,2,1,2530.0,928363.5,7798,NNB,C,0
1,test,4,1.0,2-Back,1.0,z,Wed May 06 2026 10:28:26 GMT-0500 (Central Daylight Time),940509.8000000045,059_o_m_n_a.png,O,z,1199,3,1,2224.8000000044703,938285.0,7798,NNB,C,1
1,test,4,1.0,2-Back,0.0,z,Wed May 06 2026 10:28:26 GMT-0500 (Central Daylight Time),943022.8000000045,098_y_f_n_a.png,O,m,1484,4,1,2509.9000000059605,940512.8999999985,7798,NNB,C,2
2,test,4,0.0,2-Back,1.0,m,Wed May 06 2026 10:28:26 GMT-0500 (Central Daylight Time),945289.700000003,030_o_f_n_a.png,O,m,1234,5,1,2263.5,943026.200000003,7798,NNB,C,3
3,test,4,0.0,2-Back,1.0,m,Wed May 06 2026 10:28:26 GMT-0500 (Central Daylight Time),948105.8999999985,030_o_f_n_a.png,O,m,1783,6,1,2812.7999999970198,945293.1000000015,7798,NNB,C,4
4,test,4,0.0,2-Back,1.0,m,Wed May 06 2026 10:28:26 GMT-0500 (Central Daylight Time),950509.8000000045,006_m_f_n_a.png,O,m,1384,7,1,2400.8000000044703,948109.0,7798,NNB,C,5
5,test,4,0.0,2-Back,1.0,m,Wed May 06 2026 10:28:26 GMT-0500 (Central Daylight Time),952703.5,031_y_m_n_a.png,O,m,1175,8,1,2189.6999999955297,950513.8000000045,7798,NNB,C,6
6,test,4,1.0,2-Back,1.0,z,Wed May 06 2026 10:28:26 GMT-0500 (Central Daylight Time),954419.700000003,006_m_f_n_a.png,O,z,685,9,1,1712.5,952707.200000003,7798,NNB,C,7
6,test,4,0.0,2-Back,0.0,m,Wed May 06 2026 10:28:26 GMT-0500 (Central Daylight Time),957219.3000000045,092_m_m_n_a.png,O,z,1766,10,1,2796.60000000149,954422.700000003,7798,NNB,C,8
6,test,4,0.0,2-Back,0.0,m,Wed May 06 2026 10:28:26 GMT-0500 (Central Daylight Time),959454.0,031_y_m_n_a.png,O,z,1208,11,1,2231.1999999955297,957222.8000000045,7798,NNB,C,9
7,test,4,0.0,2-Back,1.0,m,Wed May 06 2026 10:28:26 GMT-0500 (Central Daylight Time),961399.3999999985,130_o_f_n_a.png,O,m,926,12,1,1942.5,959456.8999999985,7798,NNB,C,10
8,test,4,0.0,2-Back,1.0,m,Wed May 06 2026 10:28:26 GMT-0500 (Central Daylight Time),963716.6000000015,057_y_m_n_a.png,O,m,1290,13,1,2314.60000000149,961402.0,7798,NNB,C,11
9,test,4,1.0,2-Back,1.0,z,Wed May 06 2026 10:28:26 GMT-0500 (Central Daylight Time),965501.700000003,130_o_f_n_a.png,O,z,756,14,1,1781.3999999985099,963720.3000000045,7798,NNB,C,12
9,test,4,1.0,2-Back,0.0,z,Wed May 06 2026 10:28:26 GMT-0500 (Central Daylight Time),968049.200000003,057_y_m_n_a.png,O,m,1518,15,1,2544.8000000044703,965504.3999999985,7798,NNB,C,13
9,test,4,0.0,2-Back,0.0,m,Wed May 06 2026 10:28:26 GMT-0500 (Central Daylight Time),970281.8000000045,082_m_m_n_a.png,O,z,1202,16,1,2229.8000000044703,968052.0,7798,NNB,C,14
10,test,4,0.0,2-Back,1.0,m,Wed May 06 2026 10:28:26 GMT-0500 (Central Daylight Time),972463.8999999985,093_m_f_n_a.png,O,m,1160,17,1,2178.7999999970198,970285.1000000015,7798,NNB,C,15
11,test,4,1.0,2-Back,1.0,z,Wed May 06 2026 10:28:26 GMT-0500 (Central Daylight Time),974498.0,082_m_m_n_a.png,O,z,1010,18,1,2031.6000000014901,972466.3999999985,7798,NNB,C,16
0,test,5,1.0,2-Back,,,Wed May 06 2026 10:28:26 GMT-0500 (Central Daylight Time),974498.0,057_y_m_n_a.png,O,space,4366,1,1,2031.6000000014901,972466.3999999985,7798,NNB,C,0
0,test,5,1.0,2-Back,,,Wed May 06 2026 10:28:26 GMT-0500 (Central Daylight Time),974498.0,093_m_f_n_a.png,O,space,4366,2,1,2031.6000000014901,972466.3999999985,7798,NNB,C,0
1,test,5,1.0,2-Back,1.0,z,Wed May 06 2026 10:28:26 GMT-0500 (Central Daylight Time),985860.6000000015,057_y_m_n_a.png,O,z,902,3,1,1925.2999999970198,983935.3000000045,7798,NNB,C,1
1,test,5,1.0,2-Back,0.0,z,Wed May 06 2026 10:28:26 GMT-0500 (Central Daylight Time),988742.3000000045,093_m_f_n_a.png,O,m,1862,4,1,2879.10000000149,985863.200000003,7798,NNB,C,2
2,test,5,0.0,2-Back,1.0,m,Wed May 06 2026 10:28:26 GMT-0500 (Central Daylight Time),990824.8999999985,130_o_f_n_a.png,O,m,1050,5,1,2079.39999999851,988745.5,7798,NNB,C,3
2,test,5,0.0,2-Back,0.0,m,Wed May 06 2026 10:28:26 GMT-0500 (Central Daylight Time),992990.3000000045,057_y_m_n_a.png,O,z,1135,6,1,2162.2000000029802,990828.1000000015,7798,NNB,C,4
3,test,5,0.0,2-Back,1.0,m,Wed May 06 2026 10:28:26 GMT-0500 (Central Daylight Time),995074.1000000015,028_y_f_n_a.png,O,m,1059,7,1,2080.7999999970198,992993.3000000045,7798,NNB,C,5
3,test,5,0.0,2-Back,0.0,m,Wed May 06 2026 10:28:26 GMT-0500 (Central Daylight Time),996989.3999999985,130_o_f_n_a.png,O,z,887,8,1,1911.0,995078.3999999985,7798,NNB,C,6
4,test,5,1.0,2-Back,1.0,z,Wed May 06 2026 10:28:26 GMT-0500 (Central Daylight Time),999489.6000000015,028_y_f_n_a.png,O,z,1470,9,1,2496.7000000029802,996992.8999999985,7798,NNB,C,7
5,test,5,0.0,2-Back,1.0,m,Wed May 06 2026 10:28:26 GMT-0500 (Central Daylight Time),1001571.8999999985,146_o_m_n_a.png,O,m,1053,10,1,2080.1999999955297,999491.700000003,7798,NNB,C,8
5,test,5,0.0,2-Back,0.0,m,Wed May 06 2026 10:28:26 GMT-0500 (Central Daylight Time),1004019.8999999985,006_m_f_n_a.png,O,z,1429,11,1,2445.0,1001574.8999999985,7798,NNB,C,9
6,test,5,0.0,2-Back,1.0,m,Wed May 06 2026 10:28:26 GMT-0500 (Central Daylight Time),1006604.0,092_m_m_n_a.png,O,m,1552,12,1,2582.1999999955297,1004021.8000000045,7798,NNB,C,10
6,test,5,0.0,2-Back,0.0,m,Wed May 06 2026 10:28:26 GMT-0500 (Central Daylight Time),1008886.200000003,146_o_m_n_a.png,O,z,1255,13,1,2278.89999999851,1006607.3000000045,7798,NNB,C,11
7,test,5,1.0,2-Back,1.0,z,Wed May 06 2026 10:28:26 GMT-0500 (Central Daylight Time),1011284.5,092_m_m_n_a.png,O,z,1365,14,1,2395.7999999970198,1008888.700000003,7798,NNB,C,12
8,test,5,0.0,2-Back,1.0,m,Wed May 06 2026 10:28:26 GMT-0500 (Central Daylight Time),1013333.200000003,098_y_f_n_a.png,O,m,1019,15,1,2044.6000000014901,1011288.6000000015,7798,NNB,C,13
9,test,5,0.0,2-Back,1.0,m,Wed May 06 2026 10:28:26 GMT-0500 (Central Daylight Time),1015867.1000000015,059_o_m_n_a.png,O,m,1507,16,1,2532.2999999970198,1013334.8000000045,7798,NNB,C,14
9,test,5,0.0,2-Back,0.0,m,Wed May 06 2026 10:28:26 GMT-0500 (Central Daylight Time),1017882.3999999985,006_m_f_n_a.png,O,z,991,17,1,2011.3999999985099,1015871.0,7798,NNB,C,15
9,test,5,1.0,2-Back,0.0,z,Wed May 06 2026 10:28:26 GMT-0500 (Central Daylight Time),1020281.6000000015,059_o_m_n_a.png,O,m,1373,18,1,2395.60000000149,1017886.0,7798,NNB,C,16
