acc_sum,block,block_c,condition,correct,correct_response,datetime,endtime,flanker,jitter,project,response,response_test_buffer_response,response_test_target_response,response_time,response_time_test_buffer_response,response_time_test_target_response,row_sel,session_number,start_end,starttime,subject_id,target,task,task_vers,time_test_buffer,time_test_buffer_response,time_test_constants,time_test_flanker,time_test_jitter,time_test_logger,time_test_target,time_test_target_response,time_test_variables,trial
0,prac,1,inc,0,z,Wed May 27 2026 14:45:06 GMT-0500 (Central Daylight Time),141131.29999999702,cobalt,1100,I,None,,,1799,,,4,1,5160.20000000298,135971.09999999404,8101,raisin,NF,C,,,,,,,,,,1
0,prac,1,con,0,m,Wed May 27 2026 14:45:06 GMT-0500 (Central Daylight Time),145996.39999999106,gold,800,I,None,,,1800,,,13,1,4859.0,141137.39999999106,8101,gold,NF,C,,,,,,,,,,2
1,prac,1,inc,1,m,Wed May 27 2026 14:45:06 GMT-0500 (Central Daylight Time),149745.29999999702,plum,1100,I,m,,,1339,,,16,1,3743.4000000059605,146001.89999999106,8101,lead,NF,C,,,,,,,,,,3
2,prac,1,con,1,z,Wed May 27 2026 14:45:06 GMT-0500 (Central Daylight Time),153144.09999999404,kiwi,1000,I,z,,,1099,,,7,1,3393.8999999910593,149750.20000000298,8101,kiwi,NF,C,,,,,,,,,,4
3,prac,1,con,1,m,Wed May 27 2026 14:45:06 GMT-0500 (Central Daylight Time),156509.79999999702,zinc,1000,I,m,,,1076,,,15,1,3359.7999999970198,153150.0,8101,zinc,NF,C,,,,,,,,,,5
4,prac,1,inc,1,z,Wed May 27 2026 14:45:06 GMT-0500 (Central Daylight Time),159925.20000000298,lead,1100,I,z,,,1010,,,8,1,3409.6000000089407,156515.59999999404,8101,plum,NF,C,,,,,,,,,,6
5,prac,1,con,1,z,Wed May 27 2026 14:45:06 GMT-0500 (Central Daylight Time),163257.70000000298,banana,800,I,z,,,1231,,,1,1,3326.9000000059605,159930.79999999702,8101,banana,NF,C,,,,,,,,,,7
6,prac,1,inc,1,z,Wed May 27 2026 14:45:06 GMT-0500 (Central Daylight Time),166489.89999999106,copper,900,I,z,,,1021,,,2,1,3227.0999999940395,163262.79999999702,8101,cherry,NF,C,,,,,,,,,,8
7,prac,1,inc,1,m,Wed May 27 2026 14:45:06 GMT-0500 (Central Daylight Time),169855.5,raisin,1100,I,m,,,966,,,12,1,3361.0,166494.5,8101,cobalt,NF,C,,,,,,,,,,9
8,prac,1,con,1,z,Wed May 27 2026 14:45:06 GMT-0500 (Central Daylight Time),172904.79999999702,lime,800,I,z,,,939,,,5,1,3043.4000000059605,169861.39999999106,8101,lime,NF,C,,,,,,,,,,10
9,prac,1,inc,1,z,Wed May 27 2026 14:45:06 GMT-0500 (Central Daylight Time),175886.89999999106,iron,900,I,z,,,774,,,6,1,2977.0,172909.89999999106,8101,pear,NF,C,,,,,,,,,,11
10,prac,1,inc,1,m,Wed May 27 2026 14:45:06 GMT-0500 (Central Daylight Time),179215.5,cherry,900,I,m,,,985,,,10,1,3323.4000000059605,175892.09999999404,8101,copper,NF,C,,,,,,,,,,12
11,prac,1,inc,1,m,Wed May 27 2026 14:45:06 GMT-0500 (Central Daylight Time),182335.09999999404,pear,900,I,m,,,900,,,14,1,3114.2000000029802,179220.89999999106,8101,iron,NF,C,,,,,,,,,,13
12,prac,1,con,1,m,Wed May 27 2026 14:45:06 GMT-0500 (Central Daylight Time),185483.89999999106,silver,1000,I,m,,,845,,,11,1,3143.3999999910593,182340.5,8101,silver,NF,C,,,,,,,,,,14
13,prac,1,con,1,m,Wed May 27 2026 14:45:06 GMT-0500 (Central Daylight Time),188549.79999999702,bronze,800,I,m,,,960,,,9,1,3061.0,185488.79999999702,8101,bronze,NF,C,,,,,,,,,,15
14,prac,1,con,1,z,Wed May 27 2026 14:45:06 GMT-0500 (Central Daylight Time),191749.0,orange,1000,I,z,,,894,,,3,1,3194.4000000059605,188554.59999999404,8101,orange,NF,C,,,,,,,,,,16
1,test,1,inc,1,z,Wed May 27 2026 14:45:06 GMT-0500 (Central Daylight Time),210609.5,zinc,1000,I,z,z,None,991,791.0,200.0,63,1,2528.7000000029802,208080.79999999702,8101,plum,NF,C,203647,203647,201918,202931,201918,204447,203447,203447,204446,1
2,test,1,con,1,m,Wed May 27 2026 14:45:06 GMT-0500 (Central Daylight Time),213442.0,iron,1000,I,m,m,None,1298,1098.0,200.0,107,1,2827.4000000059605,210614.59999999404,8101,iron,NF,C,206180,206180,204452,205463,204452,207279,205979,205979,207279,2
3,test,1,inc,1,z,Wed May 27 2026 14:45:06 GMT-0500 (Central Daylight Time),215457.89999999106,bronze,800,I,z,z,None,673,473.0,200.0,21,1,2011.2999999970198,213446.59999999404,8101,orange,NF,C,208813,208813,207284,208096,207284,209295,208612,208612,209295,3
4,test,1,con,1,m,Wed May 27 2026 14:45:06 GMT-0500 (Central Daylight Time),217507.20000000298,zinc,900,I,m,m,None,606,406.0,200.0,114,1,2044.6000000089407,215462.59999999404,8101,zinc,NF,C,210928,210928,209300,210212,209300,211344,210728,210728,211344,4
5,test,1,con,1,z,Wed May 27 2026 14:45:06 GMT-0500 (Central Daylight Time),219606.5,lime,1000,I,z,z,None,561,361.0,200.0,35,1,2094.6000000089407,217511.89999999106,8101,lime,NF,C,213077,213077,211349,212361,211349,213444,212877,212877,213444,5
6,test,1,inc,1,z,Wed May 27 2026 14:45:06 GMT-0500 (Central Daylight Time),221922.5,lead,1100,I,z,z,None,680,481.0,199.0,40,1,2311.7000000029802,219610.79999999702,8101,lime,NF,C,215277,215277,213448,214560,213448,215760,215077,215077,215760,6
7,test,1,con,1,z,Wed May 27 2026 14:45:06 GMT-0500 (Central Daylight Time),224005.09999999404,raisin,1000,I,z,z,None,544,345.0,199.0,27,1,2077.7999999970198,221927.29999999702,8101,raisin,NF,C,217493,217493,215764,216776,215765,217842,217293,217293,217842,7
8,test,1,con,1,m,Wed May 27 2026 14:45:06 GMT-0500 (Central Daylight Time),225921.20000000298,bronze,800,I,m,m,None,567,367.0,200.0,65,1,1911.4000000059605,224009.79999999702,8101,bronze,NF,C,219375,219375,217847,218659,217847,219758,219175,219175,219758,8
9,test,1,inc,1,m,Wed May 27 2026 14:45:06 GMT-0500 (Central Daylight Time),227937.39999999106,lime,800,I,m,m,None,667,467.0,200.0,117,1,2011.699999988079,225925.70000000298,8101,zinc,NF,C,221291,221291,219763,220575,219763,221775,221091,221091,221774,9
10,test,1,con,1,z,Wed May 27 2026 14:45:06 GMT-0500 (Central Daylight Time),230353.39999999106,plum,900,I,z,z,None,983,783.0,200.0,58,1,2411.2999999970198,227942.09999999404,8101,plum,NF,C,223407,223407,221779,222691,221779,224190,223207,223207,224190,10
11,test,1,con,1,m,Wed May 27 2026 14:45:06 GMT-0500 (Central Daylight Time),232553.20000000298,copper,1000,I,m,m,None,667,467.0,200.0,75,1,2194.9000000059605,230358.29999999702,8101,copper,NF,C,225923,225923,224195,225207,224196,226390,225723,225723,226390,11
12,test,1,inc,1,m,Wed May 27 2026 14:45:06 GMT-0500 (Central Daylight Time),235085.0,plum,1100,I,m,m,None,886,687.0,199.0,104,1,2526.9000000059605,232558.09999999404,8101,gold,NF,C,228223,228223,226395,227506,226395,228922,228023,228023,228922,12
13,test,1,inc,1,m,Wed May 27 2026 14:45:06 GMT-0500 (Central Daylight Time),237251.29999999702,lime,800,I,m,m,None,823,623.0,200.0,109,1,2162.0,235089.29999999702,8101,iron,NF,C,230455,230455,228926,229739,228927,231088,230255,230255,231088,13
14,test,1,inc,1,m,Wed May 27 2026 14:45:06 GMT-0500 (Central Daylight Time),239450.39999999106,banana,800,I,m,m,None,857,657.0,200.0,69,1,2195.0,237255.39999999106,8101,bronze,NF,C,232621,232621,231092,231905,231093,233287,232421,232421,233287,14
15,test,1,con,1,m,Wed May 27 2026 14:45:06 GMT-0500 (Central Daylight Time),241849.70000000298,silver,1000,I,m,m,None,849,650.0,199.0,83,1,2394.800000011921,239454.89999999106,8101,silver,NF,C,235020,235020,233292,234304,233292,235687,234820,234821,235687,15
16,test,1,con,1,m,Wed May 27 2026 14:45:06 GMT-0500 (Central Daylight Time),243849.0,iron,800,I,m,m,None,649,449.0,200.0,105,1,1994.7999999970198,241854.20000000298,8101,iron,NF,C,237221,237221,235691,236503,235692,237686,237020,237020,237686,16
17,test,1,inc,1,z,Wed May 27 2026 14:45:06 GMT-0500 (Central Daylight Time),246081.39999999106,copper,900,I,z,z,None,799,599.0,200.0,22,1,2225.5,243855.89999999106,8101,orange,NF,C,239319,239319,237693,238603,237693,239919,239119,239119,239918,17
18,test,1,inc,1,z,Wed May 27 2026 14:45:06 GMT-0500 (Central Daylight Time),248397.5,lead,1100,I,z,z,None,669,470.0,199.0,56,1,2311.2999999970198,246086.20000000298,8101,kiwi,NF,C,241752,241752,239923,241035,239924,242235,241552,241552,242235,18
19,test,1,inc,1,m,Wed May 27 2026 14:45:06 GMT-0500 (Central Daylight Time),250646.79999999702,cherry,900,I,m,m,None,695,493.0,202.0,78,1,2244.7999999970198,248402.0,8101,copper,NF,C,243985,243985,242239,243152,242239,244484,243783,243783,244484,19
20,test,1,con,1,z,Wed May 27 2026 14:45:06 GMT-0500 (Central Daylight Time),252729.59999999404,raisin,800,I,z,z,None,733,533.0,200.0,25,1,2078.5999999940395,250651.0,8101,raisin,NF,C,246017,246017,244488,245301,244488,246567,245817,245817,246567,20
21,test,1,con,1,z,Wed May 27 2026 14:45:06 GMT-0500 (Central Daylight Time),255095.29999999702,orange,1100,I,z,z,None,717,518.0,199.0,20,1,2360.7999999970198,252734.5,8101,orange,NF,C,248400,248400,246572,247683,246572,248932,248200,248200,248932,21
22,test,1,inc,1,m,Wed May 27 2026 14:45:06 GMT-0500 (Central Daylight Time),257178.09999999404,banana,800,I,m,m,None,747,548.0,199.0,93,1,2076.5999999940395,255101.5,8101,cobalt,NF,C,250466,250466,248939,249749,248939,251015,250266,250266,251015,22
23,test,1,inc,1,z,Wed May 27 2026 14:45:06 GMT-0500 (Central Daylight Time),259227.5,gold,800,I,z,z,None,714,514.0,200.0,53,1,2044.9000000059605,257182.59999999404,8101,kiwi,NF,C,252548,252548,251020,251832,251020,253065,252348,252348,253065,23
24,test,1,con,1,z,Wed May 27 2026 14:45:06 GMT-0500 (Central Daylight Time),261343.5,banana,900,I,z,z,None,675,476.0,199.0,2,1,2111.9000000059605,259231.59999999404,8101,banana,NF,C,254698,254698,253069,253981,253069,255181,254498,254498,255180,24
25,test,1,con,1,m,Wed May 27 2026 14:45:06 GMT-0500 (Central Daylight Time),264325.799999997,gold,1100,I,m,m,None,1335,1136.0,199.0,100,1,2977.7000000029802,261348.09999999404,8101,gold,NF,C,257014,257014,255185,256297,255185,258163,256814,256814,258163,25
26,test,1,con,1,m,Wed May 27 2026 14:45:06 GMT-0500 (Central Daylight Time),266408.700000003,cobalt,800,I,m,m,None,734,534.0,200.0,89,1,2078.6000000089407,264330.09999999404,8101,cobalt,NF,C,259696,259696,258167,258979,258167,260246,259496,259496,260246,26
27,test,1,inc,1,m,Wed May 27 2026 14:45:06 GMT-0500 (Central Daylight Time),268557.799999997,banana,800,I,m,m,None,810,611.0,199.0,77,1,2144.4000000059605,266413.39999999106,8101,copper,NF,C,261779,261779,260250,261062,260251,262395,261579,261579,262395,27
28,test,1,inc,1,z,Wed May 27 2026 14:45:06 GMT-0500 (Central Daylight Time),270908.299999997,silver,1000,I,z,z,None,806,606.0,200.0,15,1,2345.7999999970198,268562.5,8101,cherry,NF,C,264128,264128,262400,263411,262400,264745,263928,263928,264745,28
29,test,1,con,1,z,Wed May 27 2026 14:45:06 GMT-0500 (Central Daylight Time),273273.09999999404,plum,800,I,z,z,None,1033,833.0,200.0,57,1,2360.2000000029802,270912.89999999106,8101,plum,NF,C,266277,266277,264750,265561,264750,267110,266077,266077,267110,29
30,test,1,con,1,z,Wed May 27 2026 14:45:06 GMT-0500 (Central Daylight Time),275422.39999999106,lime,800,I,z,z,None,803,603.0,200.0,33,1,2145.0,273277.39999999106,8101,lime,NF,C,268643,268643,267114,267927,267115,269259,268443,268443,269259,30
31,test,1,con,1,m,Wed May 27 2026 14:45:06 GMT-0500 (Central Daylight Time),277371.89999999106,copper,800,I,m,m,None,605,405.0,200.0,73,1,1945.0999999940395,275426.799999997,8101,copper,NF,C,270793,270793,269264,270076,269264,271209,270592,270592,271209,31
32,test,1,inc,1,z,Wed May 27 2026 14:45:06 GMT-0500 (Central Daylight Time),279521.0,silver,1000,I,z,z,None,615,400.0,215.0,31,1,2144.6000000089407,277376.39999999106,8101,raisin,NF,C,272942,272942,271213,272225,271214,273358,272727,272727,273358,32
33,test,1,inc,1,z,Wed May 27 2026 14:45:06 GMT-0500 (Central Daylight Time),281820.5,bronze,800,I,z,z,None,955,755.0,200.0,5,1,2295.4000000059605,279525.09999999404,8101,banana,NF,C,274891,274891,273362,274175,273362,275658,274691,274691,275658,33
34,test,1,inc,1,m,Wed May 27 2026 14:45:06 GMT-0500 (Central Daylight Time),284153.39999999106,kiwi,1000,I,m,m,None,799,599.0,200.0,111,1,2328.7999999970198,281824.59999999404,8101,iron,NF,C,277390,277391,275662,276674,275662,277990,277190,277190,277990,34
35,test,1,con,1,z,Wed May 27 2026 14:45:06 GMT-0500 (Central Daylight Time),286585.59999999404,cherry,1100,I,z,z,None,783,583.0,200.0,12,1,2427.7000000029802,284157.89999999106,8101,cherry,NF,C,279823,279823,277995,279107,277995,280423,279623,279623,280423,35
36,test,1,con,1,m,Wed May 27 2026 14:45:06 GMT-0500 (Central Daylight Time),288851.39999999106,lead,900,I,m,m,None,829,630.0,199.0,122,1,2261.7999999970198,286589.59999999404,8101,lead,NF,C,282056,282056,280427,281339,280427,282689,281856,281856,282688,36
37,test,1,con,1,m,Wed May 27 2026 14:45:06 GMT-0500 (Central Daylight Time),291350.700000003,gold,1000,I,m,m,None,959,760.0,199.0,99,1,2494.5,288856.200000003,8101,gold,NF,C,284422,284422,282693,283705,282694,285188,284222,284222,285188,37
38,test,1,con,1,z,Wed May 27 2026 14:45:06 GMT-0500 (Central Daylight Time),293650.0,pear,1000,I,z,z,None,765,565.0,200.0,43,1,2295.2000000029802,291354.799999997,8101,pear,NF,C,286921,286921,285192,286204,285192,287487,286721,286721,287487,38
39,test,1,inc,1,z,Wed May 27 2026 14:45:06 GMT-0500 (Central Daylight Time),295849.299999997,silver,1000,I,z,z,None,666,466.0,200.0,7,1,2195.0999999940395,293654.200000003,8101,banana,NF,C,289220,289220,287491,288504,287492,289686,289020,289020,289686,39
40,test,1,con,1,z,Wed May 27 2026 14:45:06 GMT-0500 (Central Daylight Time),297948.59999999404,plum,1000,I,z,z,None,555,355.0,200.0,59,1,2094.5,295854.09999999404,8101,plum,NF,C,291419,291419,289691,290703,289691,291786,291219,291219,291786,40
41,test,1,inc,1,z,Wed May 27 2026 14:45:06 GMT-0500 (Central Daylight Time),300181.200000003,zinc,1000,I,z,z,None,694,495.0,199.0,39,1,2228.4000000059605,297952.799999997,8101,lime,NF,C,293519,293519,291790,292802,291790,294018,293319,293319,294018,41
42,test,1,con,1,m,Wed May 27 2026 14:45:06 GMT-0500 (Central Daylight Time),302297.09999999404,zinc,800,I,m,m,None,783,583.0,200.0,113,1,2111.2999999970198,300185.799999997,8101,zinc,NF,C,295551,295551,294023,294835,294023,296134,295351,295351,296134,42
43,test,1,inc,1,m,Wed May 27 2026 14:45:06 GMT-0500 (Central Daylight Time),304596.59999999404,plum,1100,I,m,m,None,655,455.0,200.0,128,1,2295.2999999970198,302301.299999997,8101,lead,NF,C,297967,297967,296138,297251,296139,298434,297767,297767,298434,43
44,test,1,inc,1,z,Wed May 27 2026 14:45:06 GMT-0500 (Central Daylight Time),306645.89999999106,copper,900,I,z,z,None,610,411.0,199.0,30,1,2044.7999999970198,304601.09999999404,8101,raisin,NF,C,300067,300067,298438,299350,298438,300483,299867,299867,300483,44
45,test,1,con,1,z,Wed May 27 2026 14:45:06 GMT-0500 (Central Daylight Time),308795.200000003,kiwi,800,I,z,z,None,822,623.0,199.0,49,1,2145.2000000029802,306650.0,8101,kiwi,NF,C,301999,301999,300487,301299,300487,302632,301800,301800,302632,45
46,test,1,inc,1,z,Wed May 27 2026 14:45:06 GMT-0500 (Central Daylight Time),310994.59999999404,copper,900,I,z,z,None,755,556.0,199.0,6,1,2195.2999999970198,308799.299999997,8101,banana,NF,C,304265,304266,302636,303549,302637,304832,304066,304066,304832,46
47,test,1,con,1,z,Wed May 27 2026 14:45:06 GMT-0500 (Central Daylight Time),313027.5,pear,900,I,z,z,None,588,389.0,199.0,42,1,2028.1000000089407,310999.39999999106,8101,pear,NF,C,306465,306465,304836,305748,304837,306865,306265,306265,306865,47
48,test,1,con,1,m,Wed May 27 2026 14:45:06 GMT-0500 (Central Daylight Time),315126.59999999404,silver,800,I,m,m,None,753,553.0,200.0,81,1,2095.0999999940395,313031.5,8101,silver,NF,C,308397,308397,306869,307681,306869,308964,308197,308197,308964,48
49,test,1,inc,1,m,Wed May 27 2026 14:45:06 GMT-0500 (Central Daylight Time),317425.799999997,cherry,900,I,m,m,None,856,657.0,199.0,94,1,2295.2000000029802,315130.59999999404,8101,cobalt,NF,C,310597,310597,308968,309880,308968,311263,310397,310397,311263,49
50,test,1,inc,1,z,Wed May 27 2026 14:45:06 GMT-0500 (Central Daylight Time),319608.799999997,zinc,1000,I,z,z,None,634,434.0,200.0,47,1,2178.9000000059605,317429.89999999106,8101,pear,NF,C,312996,312996,311267,312279,311267,313446,312796,312796,313446,50
51,test,1,con,1,z,Wed May 27 2026 14:45:06 GMT-0500 (Central Daylight Time),321924.5,raisin,1100,I,z,z,None,578,379.0,199.0,28,1,2311.4000000059605,319613.09999999404,8101,raisin,NF,C,315379,315379,313450,314673,313450,315762,315179,315179,315761,51
52,test,1,con,1,z,Wed May 27 2026 14:45:06 GMT-0500 (Central Daylight Time),323890.39999999106,orange,900,I,z,z,None,530,331.0,199.0,18,1,1961.699999988079,321928.700000003,8101,orange,NF,C,317395,317395,315766,316678,315766,317728,317194,317195,317727,52
53,test,1,inc,1,m,Wed May 27 2026 14:45:06 GMT-0500 (Central Daylight Time),326223.200000003,raisin,1100,I,m,m,None,693,493.0,200.0,80,1,2328.4000000059605,323894.799999997,8101,copper,NF,C,319561,319561,317732,318844,317732,320060,319361,319361,320060,53
54,test,1,con,1,z,Wed May 27 2026 14:45:06 GMT-0500 (Central Daylight Time),328439.09999999404,kiwi,1100,I,z,z,None,569,369.0,200.0,52,1,2211.2000000029802,326227.89999999106,8101,kiwi,NF,C,321893,321893,320065,321177,320065,322276,321693,321693,322276,54
55,test,1,con,1,z,Wed May 27 2026 14:45:06 GMT-0500 (Central Daylight Time),330722.799999997,banana,1000,I,z,z,None,749,549.0,200.0,3,1,2279.7000000029802,328443.09999999404,8101,banana,NF,C,324009,324009,322280,323293,322280,324560,323809,323809,324560,55
56,test,1,con,1,m,Wed May 27 2026 14:45:06 GMT-0500 (Central Daylight Time),333121.0,silver,1100,I,m,m,None,749,550.0,199.0,84,1,2393.9000000059605,330727.09999999404,8101,silver,NF,C,326392,326392,324564,325675,324564,326958,326192,326192,326958,56
57,test,1,inc,1,m,Wed May 27 2026 14:45:06 GMT-0500 (Central Daylight Time),335553.59999999404,lime,800,I,m,m,None,1083,883.0,200.0,125,1,2428.2999999970198,333125.299999997,8101,lead,NF,C,328491,328491,326962,327774,326963,329391,328291,328291,329391,57
58,test,1,inc,1,m,Wed May 27 2026 14:45:06 GMT-0500 (Central Daylight Time),338202.700000003,plum,1100,I,m,m,None,1014,813.0,201.0,112,1,2644.7000000029802,335558.0,8101,iron,NF,C,331225,331225,329395,330507,329395,332040,331024,331024,332040,58
59,test,1,inc,1,m,Wed May 27 2026 14:45:06 GMT-0500 (Central Daylight Time),340418.700000003,banana,800,I,m,m,None,881,681.0,200.0,85,1,2212.1000000089407,338206.59999999404,8101,silver,NF,C,333573,333573,332044,332856,332044,334256,333373,333373,334256,59
60,test,1,con,1,m,Wed May 27 2026 14:45:06 GMT-0500 (Central Daylight Time),342734.700000003,copper,900,I,m,m,None,868,669.0,199.0,74,1,2311.7000000029802,340423.0,8101,copper,NF,C,335889,335889,334260,335173,334261,336572,335689,335689,336572,60
61,test,1,inc,1,m,Wed May 27 2026 14:45:06 GMT-0500 (Central Daylight Time),344951.799999997,pear,900,I,m,m,None,680,476.0,204.0,118,1,2212.5999999940395,342739.200000003,8101,zinc,NF,C,338306,338306,336576,337488,336577,338789,338102,338102,338789,61
62,test,1,inc,1,z,Wed May 27 2026 14:45:06 GMT-0500 (Central Daylight Time),347000.299999997,bronze,800,I,z,z,None,708,509.0,199.0,13,1,2043.7999999970198,344956.5,8101,cherry,NF,C,340321,340321,338794,339604,338794,340837,340121,340121,340837,62
63,test,1,inc,1,m,Wed May 27 2026 14:45:06 GMT-0500 (Central Daylight Time),349365.89999999106,raisin,1100,I,m,m,None,728,528.0,200.0,96,1,2361.199999988079,347004.700000003,8101,cobalt,NF,C,342670,342670,340842,341953,340842,343203,342470,342470,343203,63
64,test,1,con,1,z,Wed May 27 2026 14:45:06 GMT-0500 (Central Daylight Time),351398.5,banana,800,I,z,z,None,694,494.0,200.0,1,1,2028.2000000029802,349370.299999997,8101,banana,NF,C,344736,344736,343207,344020,343208,345236,344536,344536,345236,64
65,test,1,con,1,m,Wed May 27 2026 14:45:06 GMT-0500 (Central Daylight Time),353714.5,cobalt,1000,I,m,m,None,772,573.0,199.0,91,1,2311.7999999970198,351402.700000003,8101,cobalt,NF,C,346969,346969,345240,346252,345240,347552,346769,346769,347552,65
66,test,1,inc,1,m,Wed May 27 2026 14:45:06 GMT-0500 (Central Daylight Time),356047.09999999404,raisin,1100,I,m,m,None,686,486.0,200.0,72,1,2328.5999999940395,353718.5,8101,bronze,NF,C,349384,349384,347556,348668,347556,349884,349184,349184,349884,66
67,test,1,inc,1,m,Wed May 27 2026 14:45:06 GMT-0500 (Central Daylight Time),358396.299999997,kiwi,1000,I,m,m,None,805,605.0,200.0,127,1,2344.7000000029802,356051.59999999404,8101,lead,NF,C,351617,351617,349889,350901,349889,352233,351417,351417,352233,67
68,test,1,con,1,m,Wed May 27 2026 14:45:06 GMT-0500 (Central Daylight Time),360645.700000003,lead,1000,I,m,m,None,712,512.0,200.0,123,1,2245.2000000029802,358400.5,8101,lead,NF,C,353966,353966,352237,353250,352238,354483,353766,353766,354483,68
69,test,1,inc,1,m,Wed May 27 2026 14:45:06 GMT-0500 (Central Daylight Time),362912.700000003,pear,900,I,m,m,None,825,626.0,199.0,110,1,2262.9000000059605,360649.799999997,8101,iron,NF,C,356116,356116,354487,355399,354487,356750,355916,355916,356750,69
70,test,1,inc,1,m,Wed May 27 2026 14:45:06 GMT-0500 (Central Daylight Time),365060.89999999106,pear,900,I,m,m,None,704,504.0,200.0,126,1,2143.8999999910593,362917.0,8101,lead,NF,C,358382,358382,356754,357665,356754,358898,358182,358182,358898,70
71,test,1,con,1,z,Wed May 27 2026 14:45:06 GMT-0500 (Central Daylight Time),367360.200000003,raisin,900,I,z,z,None,851,651.0,200.0,26,1,2294.7000000029802,365065.5,8101,raisin,NF,C,360531,360531,358903,359814,358903,361197,360331,360331,361197,71
71,test,1,con,0,z,Wed May 27 2026 14:45:06 GMT-0500 (Central Daylight Time),369610.5,lime,1100,I,m,m,None,608,408.0,200.0,36,1,2245.6000000089407,367364.89999999106,8101,lime,NF,C,363030,363030,361202,362314,361202,363448,362830,362830,363448,72
72,test,1,inc,1,z,Wed May 27 2026 14:45:06 GMT-0500 (Central Daylight Time),371725.59999999404,copper,900,I,z,z,None,677,478.0,199.0,14,1,2110.7000000029802,369614.89999999106,8101,cherry,NF,C,365080,365080,363452,364363,363452,365563,364880,364880,365563,73
73,test,1,con,1,m,Wed May 27 2026 14:45:06 GMT-0500 (Central Daylight Time),374058.0,zinc,1100,I,m,m,None,697,498.0,199.0,116,1,2328.2999999970198,371729.700000003,8101,zinc,NF,C,367396,367396,365567,366679,365567,367895,367196,367196,367895,74
74,test,1,inc,1,z,Wed May 27 2026 14:45:06 GMT-0500 (Central Daylight Time),376607.299999997,lead,1100,I,z,z,None,902,702.0,200.0,48,1,2545.0,374062.299999997,8101,pear,NF,C,369728,369728,367899,369012,367900,370444,369528,369528,370444,75
75,test,1,inc,1,z,Wed May 27 2026 14:45:06 GMT-0500 (Central Daylight Time),378657.0,gold,800,I,z,z,None,708,509.0,199.0,61,1,2044.9000000059605,376612.09999999404,8101,plum,NF,C,371978,371978,370449,371261,370449,372494,371778,371778,372494,76
76,test,1,con,1,m,Wed May 27 2026 14:45:06 GMT-0500 (Central Daylight Time),381089.200000003,cobalt,1100,I,m,m,None,798,599.0,199.0,92,1,2427.6000000089407,378661.59999999404,8101,cobalt,NF,C,374327,374327,372499,373610,372499,374926,374127,374127,374926,77
77,test,1,con,1,z,Wed May 27 2026 14:45:06 GMT-0500 (Central Daylight Time),383105.200000003,orange,800,I,z,z,None,675,475.0,200.0,17,1,2011.800000011921,381093.39999999106,8101,orange,NF,C,376459,376459,374930,375745,374931,376942,376259,376259,376942,78
78,test,1,inc,1,z,Wed May 27 2026 14:45:06 GMT-0500 (Central Daylight Time),385521.39999999106,cobalt,1100,I,z,z,None,782,583.0,199.0,8,1,2411.8999999910593,383109.5,8101,banana,NF,C,378775,378775,376947,378059,376947,379358,378576,378576,379358,79
79,test,1,con,1,z,Wed May 27 2026 14:45:06 GMT-0500 (Central Daylight Time),388220.39999999106,plum,1100,I,z,z,None,1055,855.0,200.0,60,1,2694.8999999910593,385525.5,8101,plum,NF,C,381191,381191,379363,380475,379363,382057,380991,380991,382057,80
80,test,1,con,1,z,Wed May 27 2026 14:45:06 GMT-0500 (Central Daylight Time),390253.0,kiwi,1000,I,z,z,None,495,295.0,200.0,51,1,2028.4000000059605,388224.59999999404,8101,kiwi,NF,C,383791,383791,382062,383074,382062,384090,383590,383590,384090,81
81,test,1,con,1,z,Wed May 27 2026 14:45:06 GMT-0500 (Central Daylight Time),392435.700000003,banana,1100,I,z,z,None,489,289.0,200.0,4,1,2178.2000000029802,390257.5,8101,banana,NF,C,385973,385973,384094,385272,384095,386273,385773,385773,386273,82
82,test,1,inc,1,z,Wed May 27 2026 14:45:06 GMT-0500 (Central Daylight Time),394735.0,iron,900,I,z,z,None,860,660.0,200.0,38,1,2295.2000000029802,392439.799999997,8101,lime,NF,C,387906,387906,386277,387189,386277,388572,387706,387706,388572,83
83,test,1,con,1,m,Wed May 27 2026 14:45:06 GMT-0500 (Central Daylight Time),397284.200000003,cobalt,900,I,m,m,None,1113,913.0,200.0,90,1,2545.1000000089407,394739.09999999404,8101,cobalt,NF,C,390205,390205,388576,389489,388576,391121,390005,390005,391121,84
84,test,1,inc,1,m,Wed May 27 2026 14:45:06 GMT-0500 (Central Daylight Time),399800.0,plum,1100,I,m,m,None,876,676.0,200.0,120,1,2511.9000000059605,397288.09999999404,8101,zinc,NF,C,392954,392954,391125,392238,391125,393637,392754,392754,393637,85
85,test,1,con,1,z,Wed May 27 2026 14:45:06 GMT-0500 (Central Daylight Time),401849.299999997,cherry,800,I,z,z,None,707,508.0,199.0,9,1,2045.2000000029802,399804.09999999404,8101,cherry,NF,C,395170,395170,393641,394454,393641,395686,394971,394971,395686,86
86,test,1,con,1,m,Wed May 27 2026 14:45:06 GMT-0500 (Central Daylight Time),403932.09999999404,gold,800,I,m,m,None,746,547.0,199.0,97,1,2078.5999999940395,401853.5,8101,gold,NF,C,397219,397219,395691,396503,395691,397769,397020,397020,397769,87
87,test,1,inc,1,m,Wed May 27 2026 14:45:06 GMT-0500 (Central Daylight Time),406331.200000003,orange,1000,I,m,m,None,864,664.0,200.0,71,1,2393.6000000089407,403937.59999999404,8101,bronze,NF,C,399502,399502,397775,398786,397775,400168,399302,399302,400168,88
88,test,1,con,1,z,Wed May 27 2026 14:45:06 GMT-0500 (Central Daylight Time),408547.200000003,lime,900,I,z,z,None,781,581.0,200.0,34,1,2211.9000000059605,406335.299999997,8101,lime,NF,C,401801,401801,400172,401085,400173,402384,401601,401601,402384,89
89,test,1,con,1,m,Wed May 27 2026 14:45:06 GMT-0500 (Central Daylight Time),410713.39999999106,bronze,1000,I,m,m,None,617,417.0,200.0,67,1,2161.5999999940395,408551.799999997,8101,bronze,NF,C,404117,404117,402389,403401,402389,404550,403917,403917,404550,90
90,test,1,con,1,m,Wed May 27 2026 14:45:06 GMT-0500 (Central Daylight Time),413495.700000003,iron,1100,I,m,m,None,1135,935.0,200.0,108,1,2778.1000000089407,410717.59999999404,8101,iron,NF,C,406383,406383,404555,405667,404555,407333,406183,406183,407333,91
91,test,1,inc,1,z,Wed May 27 2026 14:45:06 GMT-0500 (Central Daylight Time),415695.0,iron,900,I,z,z,None,656,451.0,205.0,62,1,2194.7000000029802,413500.299999997,8101,plum,NF,C,409067,409067,407337,408249,407338,409532,408861,408861,409532,92
92,test,1,con,1,m,Wed May 27 2026 14:45:06 GMT-0500 (Central Daylight Time),417677.799999997,silver,900,I,m,m,None,545,345.0,200.0,82,1,1978.9000000059605,415698.89999999106,8101,silver,NF,C,411165,411165,409536,410449,409536,411515,410965,410965,411515,93
93,test,1,con,1,z,Wed May 27 2026 14:45:06 GMT-0500 (Central Daylight Time),419977.0,orange,1000,I,z,z,None,758,558.0,200.0,19,1,2295.0,417682.0,8101,orange,NF,C,413248,413248,411519,412531,411519,413814,413048,413048,413814,94
94,test,1,con,1,z,Wed May 27 2026 14:45:06 GMT-0500 (Central Daylight Time),422293.0,pear,800,I,z,z,None,979,778.0,201.0,41,1,2312.1000000089407,419980.89999999106,8101,pear,NF,C,415348,415348,413818,414631,413818,416130,415147,415147,416130,95
95,test,1,con,1,z,Wed May 27 2026 14:45:06 GMT-0500 (Central Daylight Time),424392.200000003,pear,1100,I,z,z,None,467,268.0,199.0,44,1,2095.2000000029802,422297.0,8101,pear,NF,C,417946,417946,416134,417246,416134,418229,417747,417747,418229,96
96,test,1,con,1,m,Wed May 27 2026 14:45:06 GMT-0500 (Central Daylight Time),426658.200000003,copper,1100,I,m,m,None,623,423.0,200.0,76,1,2261.800000011921,424396.39999999106,8101,copper,NF,C,420063,420063,418233,419346,418234,420495,419862,419862,420495,97
97,test,1,inc,1,z,Wed May 27 2026 14:45:06 GMT-0500 (Central Daylight Time),428641.0,bronze,800,I,z,z,None,641,441.0,200.0,29,1,1978.2999999970198,426662.700000003,8101,raisin,NF,C,422029,422029,420500,421312,420500,422478,421828,421828,422478,98
98,test,1,inc,1,z,Wed May 27 2026 14:45:06 GMT-0500 (Central Daylight Time),430873.59999999404,cobalt,1100,I,z,z,None,583,383.0,200.0,16,1,2228.5,428645.09999999404,8101,cherry,NF,C,424311,424311,422482,423595,422483,424711,424111,424111,424711,99
99,test,1,inc,1,m,Wed May 27 2026 14:45:06 GMT-0500 (Central Daylight Time),433173.0,kiwi,1000,I,m,m,None,754,554.0,200.0,103,1,2294.4000000059605,430878.59999999404,8101,gold,NF,C,426444,426444,424716,425727,424716,427010,426244,426244,427010,100
100,test,1,con,1,m,Wed May 27 2026 14:45:06 GMT-0500 (Central Daylight Time),435305.5,bronze,900,I,m,m,None,683,483.0,200.0,66,1,2128.4000000059605,433177.09999999404,8101,bronze,NF,C,428643,428643,427014,427927,427014,429143,428443,428443,429143,101
100,test,1,inc,0,z,Wed May 27 2026 14:45:06 GMT-0500 (Central Daylight Time),437455.0,cobalt,1100,I,m,m,None,509,310.0,199.0,24,1,2145.1000000089407,435309.89999999106,8101,orange,NF,C,430976,430976,429147,430259,429147,431292,430776,430776,431292,102
101,test,1,con,1,m,Wed May 27 2026 14:45:06 GMT-0500 (Central Daylight Time),439704.09999999404,gold,900,I,m,m,None,808,609.0,199.0,98,1,2244.8999999910593,437459.200000003,8101,gold,NF,C,432925,432925,431296,432209,431296,433541,432726,432726,433541,103
102,test,1,inc,1,m,Wed May 27 2026 14:45:06 GMT-0500 (Central Daylight Time),441853.5,cherry,900,I,m,m,None,712,512.0,200.0,86,1,2145.2999999970198,439708.200000003,8101,silver,NF,C,435174,435174,433545,434459,433546,435691,434974,434974,435691,104
103,test,1,con,1,m,Wed May 27 2026 14:45:06 GMT-0500 (Central Daylight Time),444102.799999997,iron,900,I,m,m,None,802,602.0,200.0,106,1,2245.2999999970198,441857.5,8101,iron,NF,C,437324,437324,435695,436607,435695,437940,437123,437123,437940,105
104,test,1,inc,1,z,Wed May 27 2026 14:45:06 GMT-0500 (Central Daylight Time),446318.799999997,iron,900,I,z,z,None,769,569.0,200.0,46,1,2211.7999999970198,444107.0,8101,pear,NF,C,439573,439573,437944,438856,437944,440156,439373,439373,440156,106
105,test,1,inc,1,z,Wed May 27 2026 14:45:06 GMT-0500 (Central Daylight Time),448834.59999999404,cobalt,1100,I,z,z,None,873,673.0,200.0,32,1,2511.7000000029802,446322.89999999106,8101,raisin,NF,C,441989,441989,440160,441272,440160,442672,441789,441789,442672,107
106,test,1,con,1,m,Wed May 27 2026 14:45:06 GMT-0500 (Central Daylight Time),451183.799999997,lead,1100,I,m,m,None,700,501.0,199.0,124,1,2345.0999999940395,448838.700000003,8101,lead,NF,C,444505,444505,442676,443788,442676,445021,444305,444305,445021,108
107,test,1,inc,1,z,Wed May 27 2026 14:45:06 GMT-0500 (Central Daylight Time),453349.799999997,iron,900,I,z,z,None,728,528.0,200.0,54,1,2161.5999999940395,451188.200000003,8101,kiwi,NF,C,446654,446654,445025,445939,445025,447187,446454,446454,447187,109
108,test,1,inc,1,z,Wed May 27 2026 14:45:06 GMT-0500 (Central Daylight Time),455499.299999997,silver,1000,I,z,z,None,606,406.0,200.0,23,1,2145.2999999970198,453354.0,8101,orange,NF,C,448920,448920,447191,448204,447191,449336,448720,448720,449336,110
109,test,1,con,1,z,Wed May 27 2026 14:45:06 GMT-0500 (Central Daylight Time),457682.0,cherry,1000,I,z,z,None,649,449.0,200.0,11,1,2178.2000000029802,455503.799999997,8101,cherry,NF,C,451069,451069,449341,450353,449341,451519,450869,450869,451519,111
110,test,1,con,1,m,Wed May 27 2026 14:45:06 GMT-0500 (Central Daylight Time),459764.5,zinc,1000,I,m,m,None,538,338.0,200.0,115,1,2077.2999999970198,457687.200000003,8101,zinc,NF,C,453252,453252,451524,452535,451524,453602,453052,453052,453601,112
111,test,1,con,1,m,Wed May 27 2026 14:45:06 GMT-0500 (Central Daylight Time),461997.09999999404,lead,800,I,m,m,None,886,686.0,200.0,121,1,2228.5,459768.59999999404,8101,lead,NF,C,455136,455136,453606,454418,453606,455834,454935,454935,455834,113
112,test,1,inc,1,m,Wed May 27 2026 14:45:06 GMT-0500 (Central Daylight Time),464979.5,orange,1000,I,m,m,None,1439,1238.0,201.0,87,1,2978.1000000089407,462001.39999999106,8101,silver,NF,C,457568,457568,455838,456851,455839,458817,457367,457367,458817,114
113,test,1,con,1,z,Wed May 27 2026 14:45:06 GMT-0500 (Central Daylight Time),467112.200000003,cherry,900,I,z,z,None,691,492.0,199.0,10,1,2128.5,464983.700000003,8101,cherry,NF,C,460450,460450,458821,459733,458821,460949,460250,460250,460949,115
114,test,1,inc,1,m,Wed May 27 2026 14:45:06 GMT-0500 (Central Daylight Time),469378.39999999106,kiwi,1000,I,m,m,None,724,524.0,200.0,119,1,2262.199999988079,467116.200000003,8101,zinc,NF,C,462682,462682,460953,461966,460954,463216,462482,462482,463215,116
115,test,1,inc,1,z,Wed May 27 2026 14:45:06 GMT-0500 (Central Daylight Time),471460.799999997,gold,800,I,z,z,None,746,546.0,200.0,45,1,2078.2000000029802,469382.59999999404,8101,pear,NF,C,464748,464748,463220,464032,463220,465298,464548,464548,465298,117
116,test,1,con,1,m,Wed May 27 2026 14:45:06 GMT-0500 (Central Daylight Time),473860.200000003,bronze,1100,I,m,m,None,763,563.0,200.0,68,1,2395.2000000029802,471465.0,8101,bronze,NF,C,467131,467131,465302,466414,465302,467697,466931,466931,467697,118
117,test,1,inc,1,z,Wed May 27 2026 14:45:06 GMT-0500 (Central Daylight Time),476109.200000003,zinc,1000,I,z,z,None,712,512.0,200.0,55,1,2245.2000000029802,473864.0,8101,kiwi,NF,C,469430,469430,467701,468714,467701,469946,469230,469230,469946,119
118,test,1,inc,1,z,Wed May 27 2026 14:45:06 GMT-0500 (Central Daylight Time),478425.299999997,lead,1100,I,z,z,None,675,475.0,200.0,64,1,2312.4000000059605,476112.89999999106,8101,plum,NF,C,471779,471779,469950,471063,469950,472262,471579,471579,472262,120
119,test,1,inc,1,m,Wed May 27 2026 14:45:06 GMT-0500 (Central Daylight Time),480574.59999999404,lime,800,I,m,m,None,810,610.0,200.0,101,1,2145.3999999910593,478429.200000003,8101,gold,NF,C,473796,473796,472266,473079,472266,474412,473595,473595,474412,121
120,test,1,inc,1,m,Wed May 27 2026 14:45:06 GMT-0500 (Central Daylight Time),482640.700000003,pear,900,I,m,m,None,617,417.0,200.0,102,1,2061.9000000059605,480578.799999997,8101,gold,NF,C,476045,476045,474416,475328,474416,476478,475845,475845,476478,122
121,test,1,inc,1,m,Wed May 27 2026 14:45:06 GMT-0500 (Central Daylight Time),485289.700000003,raisin,1100,I,m,m,None,1015,815.0,200.0,88,1,2645.1000000089407,482644.59999999404,8101,silver,NF,C,478311,478311,476482,477594,476482,479127,478111,478111,479127,123
122,test,1,inc,1,m,Wed May 27 2026 14:45:06 GMT-0500 (Central Daylight Time),487439.09999999404,cherry,900,I,m,m,None,702,502.0,200.0,70,1,2145.0,485294.09999999404,8101,bronze,NF,C,480760,480760,479131,480044,479131,481276,480560,480560,481276,124
123,test,1,inc,1,m,Wed May 27 2026 14:45:06 GMT-0500 (Central Daylight Time),489705.09999999404,orange,1000,I,m,m,None,717,517.0,200.0,95,1,2261.2000000029802,487443.89999999106,8101,cobalt,NF,C,483009,483009,481281,482293,481281,483542,482809,482809,483542,125
124,test,1,inc,1,m,Wed May 27 2026 14:45:06 GMT-0500 (Central Daylight Time),491971.200000003,orange,1000,I,m,m,None,722,523.0,199.0,79,1,2261.9000000059605,489709.299999997,8101,copper,NF,C,485275,485275,483546,484559,483547,485808,485076,485076,485808,126
125,test,1,inc,1,z,Wed May 27 2026 14:45:06 GMT-0500 (Central Daylight Time),494120.5,gold,800,I,z,z,None,809,609.0,200.0,37,1,2144.7999999970198,491975.700000003,8101,lime,NF,C,487341,487341,485813,486625,485813,487958,487141,487141,487958,127
126,test,1,con,1,z,Wed May 27 2026 14:45:06 GMT-0500 (Central Daylight Time),496286.39999999106,kiwi,900,I,z,z,None,720,520.0,200.0,50,1,2161.8999999910593,494124.5,8101,kiwi,NF,C,489590,489590,487962,488874,487962,490123,489390,489390,490123,128
