acc_sum,block,block_c,condition,correct,correct_response,datetime,endtime,flanker,jitter,project,response,response_test_buffer_response,response_test_target_response,response_time,response_time_test_buffer_response,response_time_test_target_response,row_sel,session_number,start_end,starttime,subject_id,target,task,task_vers,time_test_buffer,time_test_buffer_response,time_test_constants,time_test_flanker,time_test_jitter,time_test_logger,time_test_target,time_test_target_response,time_test_variables,trial
1,prac,1,con,1,m,Wed Apr 15 2026 10:51:39 GMT-0400 (Eastern Daylight Time),114303.59999999963,step,800,I,m,,,463,,,1,1,2550.0,111753.59999999963,9070,step,AF,C,,,,,,,,,,1
1,prac,1,inc,0,z,Wed Apr 15 2026 10:51:39 GMT-0400 (Eastern Daylight Time),116969.59999999963,napkin,1100,I,m,,,263,,,12,1,2656.2999999998137,114313.29999999981,9070,friend,AF,C,,,,,,,,,,2
2,prac,1,con,1,m,Wed Apr 15 2026 10:51:39 GMT-0400 (Eastern Daylight Time),119653.09999999963,remote,1000,I,m,,,367,,,7,1,2677.1999999997206,116975.8999999999,9070,remote,AF,C,,,,,,,,,,3
2,prac,1,inc,0,z,Wed Apr 15 2026 10:51:39 GMT-0400 (Eastern Daylight Time),122136.19999999972,rock,900,I,m,,,271,,,10,1,2470.899999999907,119665.29999999981,9070,kind,AF,C,,,,,,,,,,4
2,prac,1,inc,0,z,Wed Apr 15 2026 10:51:39 GMT-0400 (Eastern Daylight Time),127302.59999999963,window,1100,I,None,,,1799,,,16,1,5159.799999999814,122142.79999999981,9070,temper,AF,C,,,,,,,,,,5
2,prac,1,inc,0,z,Wed Apr 15 2026 10:51:39 GMT-0400 (Eastern Daylight Time),129869.8999999999,film,900,I,m,,,365,,,14,1,2560.2000000001863,127309.69999999972,9070,hate,AF,C,,,,,,,,,,6
2,prac,1,con,0,z,Wed Apr 15 2026 10:51:39 GMT-0400 (Eastern Daylight Time),132969.7999999998,rage,1000,I,m,,,786,,,15,1,3091.100000000093,129878.69999999972,9070,rage,AF,C,,,,,,,,,,7
3,prac,1,inc,1,m,Wed Apr 15 2026 10:51:39 GMT-0400 (Eastern Daylight Time),136136.2999999998,brutal,1100,I,m,,,763,,,8,1,3157.7999999998137,132978.5,9070,window,AF,C,,,,,,,,,,8
3,prac,1,inc,0,m,Wed Apr 15 2026 10:51:39 GMT-0400 (Eastern Daylight Time),138786.3999999999,elated,900,I,z,,,444,,,6,1,2643.5,136142.8999999999,9070,napkin,AF,C,,,,,,,,,,9
3,prac,1,con,0,z,Wed Apr 15 2026 10:51:39 GMT-0400 (Eastern Daylight Time),141853.19999999972,brutal,800,I,m,,,959,,,13,1,3054.6999999997206,138798.5,9070,brutal,AF,C,,,,,,,,,,10
4,prac,1,con,1,m,Wed Apr 15 2026 10:51:39 GMT-0400 (Eastern Daylight Time),144286.59999999963,jacket,800,I,m,,,331,,,5,1,2423.7999999998137,141862.7999999998,9070,jacket,AF,C,,,,,,,,,,11
5,prac,1,con,1,z,Wed Apr 15 2026 10:51:39 GMT-0400 (Eastern Daylight Time),147019.7999999998,elated,800,I,z,,,619,,,9,1,2723.399999999907,144296.3999999999,9070,elated,AF,C,,,,,,,,,,12
6,prac,1,inc,1,m,Wed Apr 15 2026 10:51:39 GMT-0400 (Eastern Daylight Time),149903.09999999963,hate,1100,I,m,,,472,,,4,1,2875.2999999998137,147027.7999999998,9070,film,AF,C,,,,,,,,,,13
7,prac,1,inc,1,m,Wed Apr 15 2026 10:51:39 GMT-0400 (Eastern Daylight Time),152571.0,kind,900,I,m,,,461,,,2,1,2659.5,149911.5,9070,rock,AF,C,,,,,,,,,,14
8,prac,1,con,1,z,Wed Apr 15 2026 10:51:39 GMT-0400 (Eastern Daylight Time),155252.8999999999,love,1000,I,z,,,350,,,11,1,2666.5,152586.3999999999,9070,love,AF,C,,,,,,,,,,15
9,prac,1,con,1,m,Wed Apr 15 2026 10:51:39 GMT-0400 (Eastern Daylight Time),158153.19999999972,bell,1000,I,m,,,595,,,3,1,2895.100000000093,155258.09999999963,9070,bell,AF,C,,,,,,,,,,16
0,prac,2,inc,0,z,Wed Apr 15 2026 10:51:39 GMT-0400 (Eastern Daylight Time),184736.5,window,1100,I,m,,,412,,,16,1,2808.3000000002794,181928.19999999972,9070,temper,AF,C,,,,,,,,,,1
1,prac,2,con,1,z,Wed Apr 15 2026 10:51:39 GMT-0400 (Eastern Daylight Time),187503.09999999963,brutal,800,I,z,,,665,,,13,1,2758.2999999998137,184744.7999999998,9070,brutal,AF,C,,,,,,,,,,2
2,prac,2,inc,1,m,Wed Apr 15 2026 10:51:39 GMT-0400 (Eastern Daylight Time),190253.19999999972,hate,1100,I,m,,,333,,,4,1,2741.600000000093,187511.59999999963,9070,film,AF,C,,,,,,,,,,3
3,prac,2,inc,1,m,Wed Apr 15 2026 10:51:39 GMT-0400 (Eastern Daylight Time),192819.7999999998,kind,900,I,m,,,358,,,2,1,2557.899999999907,190261.8999999999,9070,rock,AF,C,,,,,,,,,,4
3,prac,2,con,0,m,Wed Apr 15 2026 10:51:39 GMT-0400 (Eastern Daylight Time),195253.09999999963,jacket,800,I,z,,,318,,,5,1,2425.399999999907,192827.69999999972,9070,jacket,AF,C,,,,,,,,,,5
3,prac,2,inc,0,z,Wed Apr 15 2026 10:51:39 GMT-0400 (Eastern Daylight Time),198036.3999999999,napkin,1100,I,m,,,367,,,12,1,2772.7000000001863,195263.69999999972,9070,friend,AF,C,,,,,,,,,,6
4,prac,2,con,1,z,Wed Apr 15 2026 10:51:39 GMT-0400 (Eastern Daylight Time),200752.7999999998,elated,800,I,z,,,605,,,9,1,2707.100000000093,198045.69999999972,9070,elated,AF,C,,,,,,,,,,7
5,prac,2,inc,1,z,Wed Apr 15 2026 10:51:39 GMT-0400 (Eastern Daylight Time),203519.8999999999,rock,900,I,z,,,555,,,10,1,2761.600000000093,200758.2999999998,9070,kind,AF,C,,,,,,,,,,8
6,prac,2,con,1,m,Wed Apr 15 2026 10:51:39 GMT-0400 (Eastern Daylight Time),206003.19999999972,step,800,I,m,,,377,,,1,1,2469.100000000093,203534.09999999963,9070,step,AF,C,,,,,,,,,,9
7,prac,2,con,1,m,Wed Apr 15 2026 10:51:39 GMT-0400 (Eastern Daylight Time),208703.19999999972,remote,1000,I,m,,,389,,,7,1,2689.1999999997206,206014.0,9070,remote,AF,C,,,,,,,,,,10
8,prac,2,con,1,m,Wed Apr 15 2026 10:51:39 GMT-0400 (Eastern Daylight Time),211386.59999999963,bell,1000,I,m,,,376,,,3,1,2669.2999999998137,208717.2999999998,9070,bell,AF,C,,,,,,,,,,11
9,prac,2,inc,1,z,Wed Apr 15 2026 10:51:39 GMT-0400 (Eastern Daylight Time),214086.3999999999,film,900,I,z,,,490,,,14,1,2691.0,211395.3999999999,9070,hate,AF,C,,,,,,,,,,12
10,prac,2,inc,1,m,Wed Apr 15 2026 10:51:39 GMT-0400 (Eastern Daylight Time),216986.59999999963,brutal,1100,I,m,,,495,,,8,1,2887.5999999996275,214099.0,9070,window,AF,C,,,,,,,,,,13
11,prac,2,con,1,z,Wed Apr 15 2026 10:51:39 GMT-0400 (Eastern Daylight Time),219769.7999999998,rage,1000,I,z,,,471,,,15,1,2774.7000000001863,216995.09999999963,9070,rage,AF,C,,,,,,,,,,14
12,prac,2,con,1,z,Wed Apr 15 2026 10:51:39 GMT-0400 (Eastern Daylight Time),222552.8999999999,love,1000,I,z,,,471,,,11,1,2775.5,219777.3999999999,9070,love,AF,C,,,,,,,,,,15
13,prac,2,inc,1,m,Wed Apr 15 2026 10:51:39 GMT-0400 (Eastern Daylight Time),225269.7999999998,elated,900,I,m,,,507,,,6,1,2705.7000000001863,222564.09999999963,9070,napkin,AF,C,,,,,,,,,,16
1,test,1,con,1,z,Wed Apr 15 2026 10:51:39 GMT-0400 (Eastern Daylight Time),246503.0,elated,900,I,z,z,None,315,116.0,199.0,2,1,1742.7999999998137,244760.2000000002,9070,elated,AF,C,241779,241779,240152,241062,240153,241895,241579,241579,241895,1
1,test,1,inc,0,z,Wed Apr 15 2026 10:51:39 GMT-0400 (Eastern Daylight Time),248136.2999999998,jacket,800,I,m,m,None,289,90.0,199.0,61,1,1626.4000000003725,246509.89999999944,9070,temper,AF,C,243429,243429,241902,242712,241902,243528,243229,243229,243528,2
2,test,1,con,1,m,Wed Apr 15 2026 10:51:39 GMT-0400 (Eastern Daylight Time),250203.09999999963,film,1100,I,m,m,None,421,221.0,200.0,92,1,2056.5999999996275,248146.5,9070,film,AF,C,245362,245362,243539,244646,243539,245595,245162,245162,245595,3
2,test,1,inc,0,m,Wed Apr 15 2026 10:51:39 GMT-0400 (Eastern Daylight Time),251986.09999999963,brutal,900,I,z,z,None,336,137.0,199.0,118,1,1772.0,250214.09999999963,9070,remote,AF,C,247229,247229,245606,246512,245607,247378,247029,247029,247378,4
3,test,1,inc,1,z,Wed Apr 15 2026 10:51:39 GMT-0400 (Eastern Daylight Time),253886.5,step,800,I,z,z,None,551,351.0,200.0,13,1,1894.6000000005588,251991.89999999944,9070,kind,AF,C,248912,248912,247384,248196,247384,249279,248712,248712,249278,5
4,test,1,inc,1,z,Wed Apr 15 2026 10:51:39 GMT-0400 (Eastern Daylight Time),255719.7999999998,napkin,900,I,z,z,None,399,199.0,200.0,38,1,1824.2000000001863,253895.59999999963,9070,brutal,AF,C,250912,250912,249288,250195,249288,251112,250712,250712,251112,6
4,test,1,inc,0,z,Wed Apr 15 2026 10:51:39 GMT-0400 (Eastern Daylight Time),257453.09999999963,napkin,900,I,m,m,None,285,85.0,200.0,30,1,1725.5,255727.59999999963,9070,friend,AF,C,252746,252746,251120,252028,251120,252845,252545,252545,252845,7
4,test,1,inc,0,z,Wed Apr 15 2026 10:51:39 GMT-0400 (Eastern Daylight Time),259386.39999999944,napkin,900,I,m,m,None,487,288.0,199.0,62,1,1926.199999999255,257460.2000000002,9070,temper,AF,C,254479,254479,252852,253762,252853,254778,254279,254279,254778,8
5,test,1,con,1,z,Wed Apr 15 2026 10:51:39 GMT-0400 (Eastern Daylight Time),261103.2000000002,love,800,I,z,z,None,367,167.0,200.0,17,1,1703.6000000005588,259399.59999999963,9070,love,AF,C,256312,256312,254792,255596,254792,256495,256112,256112,256495,9
6,test,1,con,1,m,Wed Apr 15 2026 10:51:39 GMT-0400 (Eastern Daylight Time),262802.89999999944,remote,800,I,m,m,None,353,154.0,199.0,113,1,1691.2999999998137,261111.59999999963,9070,remote,AF,C,258029,258029,256504,257312,256504,258195,257829,257829,258195,10
7,test,1,inc,1,z,Wed Apr 15 2026 10:51:39 GMT-0400 (Eastern Daylight Time),264536.39999999944,jacket,800,I,z,z,None,389,190.0,199.0,5,1,1727.5999999996275,262808.7999999998,9070,elated,AF,C,259729,259729,258201,259012,258201,259929,259529,259529,259928,11
7,test,1,con,0,z,Wed Apr 15 2026 10:51:39 GMT-0400 (Eastern Daylight Time),266319.7000000002,brutal,900,I,m,m,None,349,149.0,200.0,34,1,1769.300000000745,264550.39999999944,9070,brutal,AF,C,261562,261562,259942,260845,259943,261712,261362,261362,261712,12
8,test,1,con,1,z,Wed Apr 15 2026 10:51:39 GMT-0400 (Eastern Daylight Time),268153.0999999996,friend,1000,I,z,z,None,289,90.0,199.0,27,1,1825.5,266327.5999999996,9070,friend,AF,C,263445,263445,261720,262729,261720,263545,263246,263246,263545,13
9,test,1,con,1,z,Wed Apr 15 2026 10:51:39 GMT-0400 (Eastern Daylight Time),270036.2999999998,hate,1000,I,z,z,None,343,144.0,199.0,43,1,1874.2999999998137,268162.0,9070,hate,AF,C,265279,265279,263554,264562,263554,265428,265079,265079,265428,14
10,test,1,con,1,m,Wed Apr 15 2026 10:51:39 GMT-0400 (Eastern Daylight Time),271953.7999999998,window,1100,I,m,m,None,281,81.0,200.0,124,1,1907.5,270046.2999999998,9070,window,AF,C,267262,267262,265438,266545,265439,267346,267062,267062,267346,15
11,test,1,con,1,z,Wed Apr 15 2026 10:51:39 GMT-0400 (Eastern Daylight Time),273703.0999999996,elated,800,I,z,z,None,399,200.0,199.0,1,1,1740.7999999998137,271962.2999999998,9070,elated,AF,C,268879,268879,267354,268162,267355,269095,268679,268679,269095,16
11,test,1,inc,0,z,Wed Apr 15 2026 10:51:39 GMT-0400 (Eastern Daylight Time),275519.7000000002,bell,1000,I,m,m,None,281,82.0,199.0,23,1,1807.7000000001863,273712.0,9070,love,AF,C,270829,270829,269104,270112,269104,270912,270629,270629,270912,17
12,test,1,con,1,m,Wed Apr 15 2026 10:51:39 GMT-0400 (Eastern Daylight Time),277703.0,step,900,I,m,m,None,732,533.0,199.0,66,1,2174.4000000003725,275528.5999999996,9070,step,AF,C,272546,272546,270921,271829,270921,273095,272345,272346,273095,18
13,test,1,con,1,m,Wed Apr 15 2026 10:51:39 GMT-0400 (Eastern Daylight Time),279703.2000000002,napkin,1100,I,m,m,None,349,150.0,199.0,108,1,1991.800000000745,277711.39999999944,9070,napkin,AF,C,274929,274929,273103,274212,273104,275095,274729,274729,275095,19
14,test,1,con,1,m,Wed Apr 15 2026 10:51:39 GMT-0400 (Eastern Daylight Time),281386.39999999944,jacket,800,I,m,m,None,337,138.0,199.0,97,1,1675.0999999996275,279711.2999999998,9070,jacket,AF,C,276629,276629,275103,275912,275104,276778,276429,276429,276778,20
14,test,1,inc,0,m,Wed Apr 15 2026 10:51:39 GMT-0400 (Eastern Daylight Time),283303.2000000002,hate,1100,I,z,z,None,274,75.0,199.0,88,1,1908.2000000001863,281395.0,9070,bell,AF,C,278612,278612,276787,277895,276787,278695,278412,278412,278695,21
15,test,1,con,1,z,Wed Apr 15 2026 10:51:39 GMT-0400 (Eastern Daylight Time),285386.2999999998,kind,1000,I,z,z,None,545,346.0,199.0,11,1,2072.5999999996275,283313.7000000002,9070,kind,AF,C,280429,280429,278706,279712,278706,280778,280229,280229,280778,22
16,test,1,con,1,m,Wed Apr 15 2026 10:51:39 GMT-0400 (Eastern Daylight Time),287069.7999999998,napkin,800,I,m,m,None,343,143.0,200.0,105,1,1672.4000000003725,285397.39999999944,9070,napkin,AF,C,282312,282312,280789,281595,280790,282462,282112,282112,282462,23
16,test,1,inc,0,z,Wed Apr 15 2026 10:51:39 GMT-0400 (Eastern Daylight Time),288969.7000000002,remote,1000,I,m,m,None,363,164.0,199.0,7,1,1889.0,287080.7000000002,9070,elated,AF,C,284195,284195,282473,283479,282473,284362,283996,283996,284362,24
17,test,1,inc,1,z,Wed Apr 15 2026 10:51:39 GMT-0400 (Eastern Daylight Time),290886.7999999998,remote,1000,I,z,z,None,366,167.0,199.0,31,1,1906.2000000001863,288980.5999999996,9070,friend,AF,C,286095,286096,284373,285379,284373,286279,285896,285896,286279,25
18,test,1,inc,1,m,Wed Apr 15 2026 10:51:39 GMT-0400 (Eastern Daylight Time),292819.89999999944,love,1000,I,m,m,None,395,195.0,200.0,87,1,1922.199999999255,290897.7000000002,9070,bell,AF,C,288012,288012,286290,287296,286290,288212,287812,287812,288212,26
18,test,1,con,0,z,Wed Apr 15 2026 10:51:39 GMT-0400 (Eastern Daylight Time),294836.2999999998,elated,1000,I,m,m,None,468,269.0,199.0,3,1,2007.9000000003725,292828.39999999944,9070,elated,AF,C,289946,289946,288220,289229,288221,290228,289745,289746,290228,27
19,test,1,con,1,m,Wed Apr 15 2026 10:51:39 GMT-0400 (Eastern Daylight Time),296753.2000000002,remote,1000,I,m,m,None,373,173.0,200.0,115,1,1908.2000000001863,294845.0,9070,remote,AF,C,291962,291962,290237,291245,290237,292145,291762,291762,292145,28
19,test,1,inc,0,z,Wed Apr 15 2026 10:51:39 GMT-0400 (Eastern Daylight Time),298669.7999999998,bell,1000,I,m,m,None,375,176.0,199.0,15,1,1906.5999999996275,296763.2000000002,9070,kind,AF,C,293879,293879,292155,293162,292155,294062,293679,293679,294062,29
20,test,1,con,1,m,Wed Apr 15 2026 10:51:39 GMT-0400 (Eastern Daylight Time),300669.5999999996,napkin,1000,I,m,m,None,450,250.0,200.0,107,1,1991.2000000001863,298678.39999999944,9070,napkin,AF,C,295796,295796,294070,295079,294071,296062,295595,295595,296062,30
21,test,1,con,1,m,Wed Apr 15 2026 10:51:39 GMT-0400 (Eastern Daylight Time),302603.0999999996,rock,1000,I,m,m,None,395,195.0,200.0,75,1,1923.5999999996275,300679.5,9070,rock,AF,C,297796,297796,296072,297078,296072,297995,297595,297595,297995,31
22,test,1,con,1,z,Wed Apr 15 2026 10:51:39 GMT-0400 (Eastern Daylight Time),304252.89999999944,kind,800,I,z,z,None,308,109.0,199.0,9,1,1641.199999999255,302611.7000000002,9070,kind,AF,C,299529,299529,298004,298812,298004,299645,299329,299329,299645,32
22,test,1,inc,0,m,Wed Apr 15 2026 10:51:39 GMT-0400 (Eastern Daylight Time),306036.2999999998,brutal,900,I,z,z,None,336,136.0,200.0,102,1,1778.5999999996275,304257.7000000002,9070,jacket,AF,C,301279,301279,299650,300563,299650,301428,301079,301079,301428,33
23,test,1,inc,1,z,Wed Apr 15 2026 10:51:39 GMT-0400 (Eastern Daylight Time),308253.0999999996,remote,1000,I,z,z,None,677,477.0,200.0,39,1,2208.899999999441,306044.2000000002,9070,brutal,AF,C,303162,303162,301436,302445,301437,303645,302962,302962,303645,34
24,test,1,inc,1,m,Wed Apr 15 2026 10:51:39 GMT-0400 (Eastern Daylight Time),310169.7000000002,love,1000,I,m,m,None,371,172.0,199.0,79,1,1908.800000000745,308260.89999999944,9070,rock,AF,C,305379,305379,303653,304662,303653,305562,305179,305179,305562,35
25,test,1,con,1,m,Wed Apr 15 2026 10:51:39 GMT-0400 (Eastern Daylight Time),311869.7000000002,rock,800,I,m,m,None,351,151.0,200.0,73,1,1691.800000000745,310177.89999999944,9070,rock,AF,C,307096,307096,305570,306378,305570,307262,306895,306895,307262,36
25,test,1,con,0,m,Wed Apr 15 2026 10:51:39 GMT-0400 (Eastern Daylight Time),313786.2999999998,rock,1100,I,z,z,None,271,71.0,200.0,76,1,1907.5,311878.7999999998,9070,rock,AF,C,309096,309096,307271,308379,307271,309178,308895,308895,309178,37
26,test,1,inc,1,z,Wed Apr 15 2026 10:51:39 GMT-0400 (Eastern Daylight Time),315703.0999999996,rock,900,I,z,z,None,474,274.0,200.0,14,1,1902.2999999998137,313800.7999999998,9070,kind,AF,C,310812,310812,309193,310095,309194,311095,310612,310612,311095,38
27,test,1,inc,1,m,Wed Apr 15 2026 10:51:39 GMT-0400 (Eastern Daylight Time),317752.89999999944,friend,1100,I,m,m,None,412,213.0,199.0,128,1,2036.3999999994412,315716.5,9070,window,AF,C,312929,312929,311109,312212,311109,313145,312729,312729,313145,39
28,test,1,inc,1,z,Wed Apr 15 2026 10:51:39 GMT-0400 (Eastern Daylight Time),319653.0999999996,rock,900,I,z,z,None,459,260.0,199.0,54,1,1891.2000000001863,317761.89999999944,9070,rage,AF,C,314779,314779,313154,314063,313154,315045,314579,314579,315045,40
29,test,1,con,1,z,Wed Apr 15 2026 10:51:39 GMT-0400 (Eastern Daylight Time),321803.0,love,1000,I,z,z,None,603,404.0,199.0,19,1,2141.100000000559,319661.89999999944,9070,love,AF,C,316779,316779,315054,316062,315054,317195,316579,316579,317195,41
29,test,1,inc,0,m,Wed Apr 15 2026 10:51:39 GMT-0400 (Eastern Daylight Time),323736.5,friend,1100,I,z,z,None,290,90.0,200.0,120,1,1923.4000000003725,321813.0999999996,9070,remote,AF,C,319029,319029,317205,318312,317205,319129,318828,318828,319128,42
30,test,1,inc,1,m,Wed Apr 15 2026 10:51:39 GMT-0400 (Eastern Daylight Time),325619.7999999998,love,1000,I,m,m,None,344,145.0,199.0,71,1,1873.2000000001863,323746.5999999996,9070,step,AF,C,320862,320862,319139,320145,319139,321012,320662,320662,321012,43
31,test,1,con,1,m,Wed Apr 15 2026 10:51:39 GMT-0400 (Eastern Daylight Time),327836.2999999998,remote,1100,I,m,m,None,577,377.0,200.0,116,1,2203.0999999996275,325633.2000000002,9070,remote,AF,C,322845,322846,321025,322129,321026,323228,322645,322645,323228,44
32,test,1,inc,1,m,Wed Apr 15 2026 10:51:39 GMT-0400 (Eastern Daylight Time),329569.7000000002,elated,800,I,m,m,None,389,189.0,200.0,125,1,1725.2000000001863,327844.5,9070,window,AF,C,324762,324762,323237,324045,323237,324962,324562,324562,324962,45
32,test,1,con,0,z,Wed Apr 15 2026 10:51:39 GMT-0400 (Eastern Daylight Time),331619.7000000002,hate,1100,I,m,m,None,403,203.0,200.0,44,1,2040.9000000003725,329578.7999999998,9070,hate,AF,C,326796,326796,324971,326079,324971,327012,326595,326595,327012,46
33,test,1,inc,1,m,Wed Apr 15 2026 10:51:39 GMT-0400 (Eastern Daylight Time),333553.0999999996,brutal,900,I,m,m,None,489,290.0,199.0,126,1,1925.0,331628.0999999996,9070,window,AF,C,328645,328645,327020,327929,327020,328945,328446,328446,328945,47
33,test,1,con,0,m,Wed Apr 15 2026 10:51:39 GMT-0400 (Eastern Daylight Time),335319.39999999944,film,800,I,z,z,None,430,231.0,199.0,89,1,1756.3999999994412,333563.0,9070,film,AF,C,330479,330479,328955,329762,328955,330711,330279,330279,330711,48
34,test,1,inc,1,m,Wed Apr 15 2026 10:51:39 GMT-0400 (Eastern Daylight Time),337269.7999999998,kind,900,I,m,m,None,508,309.0,199.0,94,1,1944.5,335325.2999999998,9070,film,AF,C,332346,332346,330717,331629,330718,332662,332146,332146,332662,49
35,test,1,con,1,z,Wed Apr 15 2026 10:51:39 GMT-0400 (Eastern Daylight Time),338902.7999999998,temper,800,I,z,z,None,290,90.0,200.0,57,1,1621.9000000003725,337280.89999999944,9070,temper,AF,C,334195,334196,332673,333479,332673,334295,333995,333995,334295,50
36,test,1,inc,1,m,Wed Apr 15 2026 10:51:39 GMT-0400 (Eastern Daylight Time),340969.5999999996,temper,1000,I,m,m,None,520,321.0,199.0,127,1,2061.7000000001863,338907.89999999944,9070,window,AF,C,336029,336029,334300,335312,334300,336362,335829,335829,336362,51
37,test,1,inc,1,m,Wed Apr 15 2026 10:51:39 GMT-0400 (Eastern Daylight Time),343036.0999999996,friend,1100,I,m,m,None,418,218.0,200.0,112,1,2061.5999999996275,340974.5,9070,napkin,AF,C,338196,338196,336367,337479,336367,338428,337995,337995,338428,52
38,test,1,inc,1,m,Wed Apr 15 2026 10:51:39 GMT-0400 (Eastern Daylight Time),344786.39999999944,elated,800,I,m,m,None,405,205.0,200.0,117,1,1744.5,343041.89999999944,9070,remote,AF,C,339962,339962,338434,339245,338434,340178,339762,339762,340178,53
38,test,1,con,0,z,Wed Apr 15 2026 10:51:39 GMT-0400 (Eastern Daylight Time),346819.7999999998,friend,1100,I,m,m,None,395,195.0,200.0,28,1,2025.5,344794.2999999998,9070,friend,AF,C,342012,342012,340186,341295,340187,342212,341812,341812,342212,54
39,test,1,con,1,m,Wed Apr 15 2026 10:51:39 GMT-0400 (Eastern Daylight Time),348503.0,window,800,I,m,m,None,341,141.0,200.0,121,1,1674.6000000005588,346828.39999999944,9070,window,AF,C,343746,343746,342220,343029,342221,343895,343545,343545,343895,55
39,test,1,inc,0,m,Wed Apr 15 2026 10:51:39 GMT-0400 (Eastern Daylight Time),350403.0999999996,temper,1000,I,z,z,None,353,154.0,199.0,119,1,1891.2999999998137,348511.7999999998,9070,remote,AF,C,345629,345629,343904,344912,343904,345795,345429,345429,345795,56
40,test,1,con,1,z,Wed Apr 15 2026 10:51:39 GMT-0400 (Eastern Daylight Time),352436.2999999998,love,1100,I,z,z,None,393,194.0,199.0,20,1,2019.9000000003725,350416.39999999944,9070,love,AF,C,347629,347629,345808,346912,345809,347828,347429,347429,347828,57
40,test,1,inc,0,z,Wed Apr 15 2026 10:51:39 GMT-0400 (Eastern Daylight Time),354352.89999999944,window,1100,I,m,m,None,281,81.0,200.0,64,1,1908.3999999994412,352444.5,9070,temper,AF,C,349662,349662,347837,348945,347837,349745,349462,349462,349745,58
41,test,1,con,1,m,Wed Apr 15 2026 10:51:39 GMT-0400 (Eastern Daylight Time),356203.0999999996,remote,900,I,m,m,None,412,212.0,200.0,114,1,1840.2999999998137,354362.7999999998,9070,remote,AF,C,351379,351379,349755,350662,349755,351595,351179,351179,351595,59
42,test,1,inc,1,z,Wed Apr 15 2026 10:51:39 GMT-0400 (Eastern Daylight Time),358269.7000000002,film,1100,I,z,z,None,426,227.0,199.0,24,1,2057.9000000003725,356211.7999999998,9070,love,AF,C,353428,353428,351604,352712,351604,353662,353229,353229,353662,60
43,test,1,con,1,m,Wed Apr 15 2026 10:51:39 GMT-0400 (Eastern Daylight Time),360269.7999999998,jacket,1000,I,m,m,None,451,251.0,200.0,99,1,1991.7999999998137,358278.0,9070,jacket,AF,C,355396,355396,353670,354679,353670,355662,355195,355195,355662,61
44,test,1,inc,1,m,Wed Apr 15 2026 10:51:39 GMT-0400 (Eastern Daylight Time),362119.5999999996,elated,800,I,m,m,None,514,314.0,200.0,101,1,1838.7000000001863,360280.89999999944,9070,jacket,AF,C,357196,357196,355673,356479,355673,357512,356995,356995,357512,62
45,test,1,inc,1,m,Wed Apr 15 2026 10:51:39 GMT-0400 (Eastern Daylight Time),363903.0,rage,800,I,m,m,None,432,233.0,199.0,77,1,1775.7000000001863,362127.2999999998,9070,rock,AF,C,359045,359046,357519,358329,357520,359295,358846,358846,359295,63
46,test,1,inc,1,m,Wed Apr 15 2026 10:51:39 GMT-0400 (Eastern Daylight Time),365703.2999999998,rage,800,I,m,m,None,465,266.0,199.0,69,1,1790.4000000003725,363912.89999999944,9070,step,AF,C,360829,360829,359305,360112,359305,361095,360629,360629,361095,64
47,test,1,con,1,m,Wed Apr 15 2026 10:51:39 GMT-0400 (Eastern Daylight Time),367553.0999999996,rock,900,I,m,m,None,405,206.0,199.0,74,1,1841.7000000001863,365711.39999999944,9070,rock,AF,C,362729,362729,361103,362012,361104,362945,362529,362529,362945,65
48,test,1,inc,1,z,Wed Apr 15 2026 10:51:39 GMT-0400 (Eastern Daylight Time),369569.7000000002,film,1100,I,z,z,None,379,180.0,199.0,48,1,2007.7000000001863,367562.0,9070,hate,AF,C,364779,364779,362954,364062,362954,364962,364579,364579,364962,66
49,test,1,con,1,z,Wed Apr 15 2026 10:51:39 GMT-0400 (Eastern Daylight Time),371503.39999999944,hate,900,I,z,z,None,498,298.0,200.0,42,1,1925.199999999255,369578.2000000002,9070,hate,AF,C,366596,366596,364970,365879,364970,366896,366395,366395,366895,67
50,test,1,con,1,z,Wed Apr 15 2026 10:51:39 GMT-0400 (Eastern Daylight Time),373486.2999999998,brutal,1100,I,z,z,None,341,142.0,199.0,36,1,1976.7999999998137,371509.5,9070,brutal,AF,C,368729,368729,366902,368012,366902,368878,368529,368529,368878,68
51,test,1,con,1,m,Wed Apr 15 2026 10:51:39 GMT-0400 (Eastern Daylight Time),375303.2999999998,bell,1000,I,m,m,None,283,83.0,200.0,83,1,1806.0,373497.2999999998,9070,bell,AF,C,370612,370612,368889,369895,368890,370695,370412,370412,370695,69
52,test,1,con,1,z,Wed Apr 15 2026 10:51:39 GMT-0400 (Eastern Daylight Time),377252.89999999944,brutal,1000,I,z,z,None,401,202.0,199.0,35,1,1938.5999999996275,375314.2999999998,9070,brutal,AF,C,372429,372429,370706,371712,370707,372645,372229,372229,372645,70
53,test,1,con,1,z,Wed Apr 15 2026 10:51:39 GMT-0400 (Eastern Daylight Time),379153.0999999996,temper,1000,I,z,z,None,355,156.0,199.0,59,1,1889.5999999996275,377263.5,9070,temper,AF,C,374379,374379,372656,373662,372656,374545,374179,374179,374545,71
54,test,1,con,1,m,Wed Apr 15 2026 10:51:39 GMT-0400 (Eastern Daylight Time),381119.7000000002,jacket,1100,I,m,m,None,332,132.0,200.0,100,1,1958.0,379161.7000000002,9070,jacket,AF,C,376379,376379,374554,375662,374554,376512,376178,376178,376512,72
55,test,1,inc,1,m,Wed Apr 15 2026 10:51:39 GMT-0400 (Eastern Daylight Time),382869.5999999996,rage,800,I,m,m,None,400,200.0,200.0,93,1,1742.3999999994412,381127.2000000002,9070,film,AF,C,378046,378046,376519,377329,376520,378262,377845,377845,378262,73
56,test,1,inc,1,z,Wed Apr 15 2026 10:51:39 GMT-0400 (Eastern Daylight Time),384952.7999999998,window,1100,I,z,z,None,438,238.0,200.0,8,1,2077.2999999998137,382875.5,9070,elated,AF,C,380095,380096,378268,379379,378268,380345,379895,379895,380345,74
56,test,1,inc,0,z,Wed Apr 15 2026 10:51:39 GMT-0400 (Eastern Daylight Time),386719.5999999996,step,800,I,m,m,None,432,233.0,199.0,21,1,1759.5999999996275,384960.0,9070,love,AF,C,381878,381878,380352,381162,380352,382112,381679,381679,382112,75
57,test,1,inc,1,m,Wed Apr 15 2026 10:51:39 GMT-0400 (Eastern Daylight Time),388569.5999999996,kind,900,I,m,m,None,412,212.0,200.0,78,1,1841.2999999998137,386728.2999999998,9070,rock,AF,C,383746,383746,382120,383029,382121,383962,383545,383545,383962,76
58,test,1,con,1,z,Wed Apr 15 2026 10:51:39 GMT-0400 (Eastern Daylight Time),390619.39999999944,elated,1100,I,z,z,None,402,202.0,200.0,4,1,2043.699999999255,388575.7000000002,9070,elated,AF,C,385796,385796,383968,385079,383968,386011,385595,385595,386011,77
59,test,1,con,1,m,Wed Apr 15 2026 10:51:39 GMT-0400 (Eastern Daylight Time),392453.0999999996,step,1000,I,m,m,None,285,85.0,200.0,67,1,1828.2000000001863,390624.89999999944,9070,step,AF,C,387746,387746,386017,387028,386017,387845,387545,387545,387845,78
60,test,1,con,1,z,Wed Apr 15 2026 10:51:39 GMT-0400 (Eastern Daylight Time),394269.7000000002,temper,900,I,z,z,None,366,167.0,199.0,58,1,1807.9000000003725,392461.7999999998,9070,temper,AF,C,389479,389479,387854,388762,387854,389662,389279,389279,389662,79
60,test,1,inc,0,m,Wed Apr 15 2026 10:51:39 GMT-0400 (Eastern Daylight Time),396036.2999999998,kind,900,I,z,z,None,328,128.0,200.0,70,1,1758.7999999998137,394277.5,9070,step,AF,C,391295,391295,389669,390579,389670,391428,391095,391095,391428,80
61,test,1,con,1,m,Wed Apr 15 2026 10:51:39 GMT-0400 (Eastern Daylight Time),398019.7000000002,step,1100,I,m,m,None,345,145.0,200.0,68,1,1972.6000000005588,396047.0999999996,9070,step,AF,C,393262,393262,391439,392546,391439,393412,393062,393062,393412,81
62,test,1,inc,1,z,Wed Apr 15 2026 10:51:39 GMT-0400 (Eastern Daylight Time),400186.2999999998,bell,1000,I,z,z,None,621,422.0,199.0,47,1,2158.7000000001863,398027.5999999996,9070,hate,AF,C,395145,395145,393420,394429,393420,395578,394945,394946,395578,82
63,test,1,inc,1,m,Wed Apr 15 2026 10:51:39 GMT-0400 (Eastern Daylight Time),402019.5999999996,brutal,900,I,m,m,None,386,186.0,200.0,110,1,1825.2999999998137,400194.2999999998,9070,napkin,AF,C,397212,397212,395586,396495,395587,397412,397012,397012,397412,83
64,test,1,inc,1,m,Wed Apr 15 2026 10:51:39 GMT-0400 (Eastern Daylight Time),404036.2999999998,hate,1100,I,m,m,None,378,178.0,200.0,96,1,2010.0999999996275,402026.2000000002,9070,film,AF,C,399245,399245,397418,398529,397419,399428,399045,399045,399428,84
64,test,1,con,0,m,Wed Apr 15 2026 10:51:39 GMT-0400 (Eastern Daylight Time),405903.2000000002,film,1000,I,z,z,None,333,133.0,200.0,91,1,1859.800000000745,404043.39999999944,9070,film,AF,C,401162,401162,399435,400445,399436,401295,400962,400962,401295,85
65,test,1,con,1,z,Wed Apr 15 2026 10:51:39 GMT-0400 (Eastern Daylight Time),407636.2999999998,brutal,800,I,z,z,None,393,194.0,199.0,33,1,1724.5,405911.7999999998,9070,brutal,AF,C,402829,402829,401304,402112,401304,403028,402629,402629,403028,86
66,test,1,con,1,m,Wed Apr 15 2026 10:51:39 GMT-0400 (Eastern Daylight Time),409436.2999999998,napkin,900,I,m,m,None,360,161.0,199.0,106,1,1791.0999999996275,407645.2000000002,9070,napkin,AF,C,404662,404662,403037,403945,403037,404828,404462,404462,404828,87
66,test,1,inc,0,z,Wed Apr 15 2026 10:51:39 GMT-0400 (Eastern Daylight Time),411253.0,step,800,I,m,m,None,469,269.0,200.0,45,1,1808.0,409445.0,9070,hate,AF,C,406362,406362,404837,405645,404837,406645,406162,406162,406645,88
67,test,1,con,1,z,Wed Apr 15 2026 10:51:39 GMT-0400 (Eastern Daylight Time),413136.2999999998,love,900,I,z,z,None,439,240.0,199.0,18,1,1875.5,411260.7999999998,9070,love,AF,C,408279,408279,406653,407562,406653,408528,408079,408079,408528,89
68,test,1,inc,1,z,Wed Apr 15 2026 10:51:39 GMT-0400 (Eastern Daylight Time),415253.2000000002,film,1100,I,z,z,None,469,269.0,200.0,16,1,2104.9000000003725,413148.2999999998,9070,kind,AF,C,410362,410362,408540,409645,408541,410645,410162,410162,410645,90
68,test,1,inc,0,m,Wed Apr 15 2026 10:51:39 GMT-0400 (Eastern Daylight Time),417203.0999999996,friend,1100,I,z,z,None,303,104.0,199.0,104,1,1940.7999999998137,415262.2999999998,9070,jacket,AF,C,412479,412479,410654,411762,410655,412595,412279,412279,412595,91
69,test,1,con,1,m,Wed Apr 15 2026 10:51:39 GMT-0400 (Eastern Daylight Time),419036.2999999998,bell,900,I,m,m,None,392,193.0,199.0,82,1,1824.5,417211.7999999998,9070,bell,AF,C,414229,414229,412604,413512,412604,414428,414029,414029,414428,92
70,test,1,inc,1,z,Wed Apr 15 2026 10:51:39 GMT-0400 (Eastern Daylight Time),420986.5,step,800,I,z,z,None,613,413.0,200.0,53,1,1945.4000000003725,419041.0999999996,9070,rage,AF,C,415962,415962,414433,415245,414433,416379,415762,415762,416378,93
71,test,1,con,1,z,Wed Apr 15 2026 10:51:39 GMT-0400 (Eastern Daylight Time),423019.7000000002,temper,1100,I,z,z,None,387,187.0,200.0,60,1,2024.4000000003725,420995.2999999998,9070,temper,AF,C,418212,418212,416387,417495,416388,418412,418012,418012,418412,94
71,test,1,inc,0,z,Wed Apr 15 2026 10:51:39 GMT-0400 (Eastern Daylight Time),424836.39999999944,napkin,900,I,m,m,None,369,169.0,200.0,6,1,1808.8999999994412,423027.5,9070,elated,AF,C,420046,420046,418420,419329,418420,420228,419845,419845,420228,95
72,test,1,inc,1,z,Wed Apr 15 2026 10:51:39 GMT-0400 (Eastern Daylight Time),426919.7999999998,remote,1000,I,z,z,None,541,341.0,200.0,63,1,2070.0999999996275,424849.7000000002,9070,temper,AF,C,421962,421962,420242,421245,420242,422312,421762,421762,422312,96
73,test,1,inc,1,z,Wed Apr 15 2026 10:51:39 GMT-0400 (Eastern Daylight Time),428969.7999999998,window,1100,I,z,z,None,413,213.0,200.0,32,1,2040.0999999996275,426929.7000000002,9070,friend,AF,C,424145,424146,422322,423429,422322,424362,423945,423945,424362,97
74,test,1,con,1,z,Wed Apr 15 2026 10:51:39 GMT-0400 (Eastern Daylight Time),430703.0,friend,800,I,z,z,None,391,191.0,200.0,25,1,1724.4000000003725,428978.5999999996,9070,friend,AF,C,425896,425896,424371,425179,424371,426095,425695,425695,426095,98
75,test,1,inc,1,m,Wed Apr 15 2026 10:51:39 GMT-0400 (Eastern Daylight Time),432569.7999999998,love,1000,I,m,m,None,321,122.0,199.0,95,1,1858.0,430711.7999999998,9070,film,AF,C,427829,427829,426104,427112,426104,427962,427629,427629,427962,99
75,test,1,inc,0,m,Wed Apr 15 2026 10:51:39 GMT-0400 (Eastern Daylight Time),434386.39999999944,rage,800,I,z,z,None,478,279.0,199.0,85,1,1802.2999999998137,432584.0999999996,9070,bell,AF,C,429495,429496,427976,428779,427976,429778,429296,429296,429778,100
75,test,1,con,0,m,Wed Apr 15 2026 10:51:39 GMT-0400 (Eastern Daylight Time),436186.39999999944,step,800,I,z,z,None,453,254.0,199.0,65,1,1791.0,434395.39999999944,9070,step,AF,C,431312,431312,429787,430595,429788,431579,431113,431113,431578,101
76,test,1,inc,1,z,Wed Apr 15 2026 10:51:39 GMT-0400 (Eastern Daylight Time),438137.5999999996,jacket,800,I,z,z,None,615,415.0,200.0,37,1,1938.5999999996275,436199.0,9070,brutal,AF,C,433112,433112,431591,432395,431592,433530,432912,432912,433530,102
76,test,1,inc,0,m,Wed Apr 15 2026 10:51:39 GMT-0400 (Eastern Daylight Time),440236.2999999998,hate,1100,I,z,z,None,452,252.0,200.0,72,1,2087.7000000001863,438148.5999999996,9070,step,AF,C,435362,435362,433541,434645,433541,435628,435162,435162,435628,103
77,test,1,con,1,m,Wed Apr 15 2026 10:51:39 GMT-0400 (Eastern Daylight Time),442086.7999999998,window,900,I,m,m,None,401,201.0,200.0,122,1,1845.5999999996275,440241.2000000002,9070,window,AF,C,437262,437262,435633,436545,435634,437479,437062,437062,437479,104
78,test,1,con,1,z,Wed Apr 15 2026 10:51:39 GMT-0400 (Eastern Daylight Time),443936.2000000002,kind,900,I,z,z,None,414,214.0,200.0,10,1,1841.300000000745,442094.89999999944,9070,kind,AF,C,439112,439112,437487,438396,437487,439328,438912,438912,439328,105
79,test,1,con,1,z,Wed Apr 15 2026 10:51:39 GMT-0400 (Eastern Daylight Time),446003.2000000002,rage,1100,I,z,z,None,428,228.0,200.0,52,1,2058.800000000745,443944.39999999944,9070,rage,AF,C,441162,441162,439336,440445,439337,441395,440962,440962,441395,106
80,test,1,inc,1,z,Wed Apr 15 2026 10:51:39 GMT-0400 (Eastern Daylight Time),447886.39999999944,jacket,800,I,z,z,None,541,342.0,199.0,29,1,1870.2999999998137,446016.0999999996,9070,friend,AF,C,442928,442929,441408,442212,441409,443279,442729,442729,443278,107
81,test,1,con,1,m,Wed Apr 15 2026 10:51:39 GMT-0400 (Eastern Daylight Time),449853.0999999996,film,900,I,m,m,None,535,336.0,199.0,90,1,1958.2999999998137,447894.7999999998,9070,film,AF,C,444895,444895,443287,444195,443287,445245,444696,444696,445245,108
82,test,1,inc,1,z,Wed Apr 15 2026 10:51:39 GMT-0400 (Eastern Daylight Time),451953.0999999996,bell,1000,I,z,z,None,563,364.0,199.0,55,1,2091.899999999441,449861.2000000002,9070,rage,AF,C,446979,446979,445253,446262,445254,447345,446779,446779,447345,109
83,test,1,con,1,z,Wed Apr 15 2026 10:51:39 GMT-0400 (Eastern Daylight Time),453636.2999999998,hate,800,I,z,z,None,343,144.0,199.0,41,1,1674.4000000003725,451961.89999999944,9070,hate,AF,C,448879,448879,447354,448162,447354,449028,448679,448679,449028,110
84,test,1,inc,1,m,Wed Apr 15 2026 10:51:39 GMT-0400 (Eastern Daylight Time),455636.2000000002,kind,900,I,m,m,None,552,352.0,200.0,86,1,1990.7000000001863,453645.5,9070,bell,AF,C,450662,450662,449038,449945,449038,451028,450462,450462,451028,111
85,test,1,con,1,z,Wed Apr 15 2026 10:51:39 GMT-0400 (Eastern Daylight Time),457553.0,friend,900,I,z,z,None,480,280.0,200.0,26,1,1909.7999999998137,455643.2000000002,9070,friend,AF,C,452662,452662,451035,451945,451036,452945,452462,452462,452945,112
86,test,1,con,1,m,Wed Apr 15 2026 10:51:39 GMT-0400 (Eastern Daylight Time),459419.7000000002,bell,800,I,m,m,None,519,319.0,200.0,81,1,1856.9000000003725,457562.7999999998,9070,bell,AF,C,454479,454479,452955,453762,452955,454812,454278,454278,454812,113
86,test,1,inc,0,m,Wed Apr 15 2026 10:51:39 GMT-0400 (Eastern Daylight Time),461436.0999999996,temper,1000,I,z,z,None,477,277.0,200.0,103,1,2008.5,459427.5999999996,9070,jacket,AF,C,456545,456545,454820,455828,454820,456828,456345,456345,456828,114
87,test,1,con,1,z,Wed Apr 15 2026 10:51:39 GMT-0400 (Eastern Daylight Time),463419.7000000002,rage,800,I,z,z,None,645,445.0,200.0,49,1,1978.6000000005588,461441.0999999996,9070,rage,AF,C,458362,458362,456833,457645,456833,458812,458162,458162,458812,115
87,test,1,inc,0,z,Wed Apr 15 2026 10:51:39 GMT-0400 (Eastern Daylight Time),465586.2000000002,window,1100,I,m,m,None,520,320.0,200.0,40,1,2160.0,463426.2000000002,9070,brutal,AF,C,460646,460646,458818,459928,458819,460978,460445,460445,460978,116
88,test,1,inc,1,z,Wed Apr 15 2026 10:51:39 GMT-0400 (Eastern Daylight Time),467469.7999999998,rock,900,I,z,z,None,443,243.0,200.0,22,1,1875.9000000003725,465593.89999999944,9070,love,AF,C,462612,462612,460986,461895,460986,462862,462412,462412,462862,117
88,test,1,con,0,z,Wed Apr 15 2026 10:51:39 GMT-0400 (Eastern Daylight Time),469336.2999999998,rage,900,I,m,m,None,423,223.0,200.0,50,1,1856.0999999996275,467480.2000000002,9070,rage,AF,C,464496,464496,462872,463779,462872,464728,464295,464295,464728,118
89,test,1,inc,1,z,Wed Apr 15 2026 10:51:39 GMT-0400 (Eastern Daylight Time),471336.39999999944,rock,900,I,z,z,None,557,357.0,200.0,46,1,1991.8999999994412,469344.5,9070,hate,AF,C,466362,466362,464737,465645,464737,466728,466162,466162,466728,119
90,test,1,con,1,m,Wed Apr 15 2026 10:51:39 GMT-0400 (Eastern Daylight Time),473419.7999999998,window,1000,I,m,m,None,545,345.0,200.0,123,1,2075.2999999998137,471344.5,9070,window,AF,C,468462,468462,466737,467745,466737,468812,468262,468262,468812,120
91,test,1,inc,1,z,Wed Apr 15 2026 10:51:39 GMT-0400 (Eastern Daylight Time),475603.0,film,1100,I,z,z,None,545,345.0,200.0,56,1,2172.5,473430.5,9070,rage,AF,C,470646,470646,468823,469929,468823,470995,470445,470445,470995,121
92,test,1,inc,1,m,Wed Apr 15 2026 10:51:39 GMT-0400 (Eastern Daylight Time),477836.39999999944,hate,1100,I,m,m,None,585,386.0,199.0,80,1,2224.7999999998137,475611.5999999996,9070,rock,AF,C,472829,472829,471004,472112,471004,473229,472629,472629,473228,122
93,test,1,inc,1,m,Wed Apr 15 2026 10:51:39 GMT-0400 (Eastern Daylight Time),479936.39999999944,temper,1000,I,m,m,None,556,356.0,200.0,111,1,2085.5999999996275,477850.7999999998,9070,napkin,AF,C,474963,474963,473243,474245,473244,475329,474762,474762,475328,123
94,test,1,con,1,m,Wed Apr 15 2026 10:51:39 GMT-0400 (Eastern Daylight Time),481936.2999999998,jacket,900,I,m,m,None,565,365.0,200.0,98,1,1991.4000000003725,479944.89999999944,9070,jacket,AF,C,476962,476962,475337,476245,475337,477328,476762,476762,477328,124
95,test,1,con,1,z,Wed Apr 15 2026 10:51:39 GMT-0400 (Eastern Daylight Time),484053.2000000002,rage,1000,I,z,z,None,577,377.0,200.0,51,1,2109.100000000559,481944.0999999996,9070,rage,AF,C,479062,479062,477336,478345,477336,479445,478862,478862,479445,125
96,test,1,con,1,z,Wed Apr 15 2026 10:51:39 GMT-0400 (Eastern Daylight Time),486153.0,kind,1100,I,z,z,None,455,256.0,199.0,12,1,2089.7999999998137,484063.2000000002,9070,kind,AF,C,481279,481279,479455,480562,479456,481545,481079,481079,481545,126
97,test,1,inc,1,m,Wed Apr 15 2026 10:51:39 GMT-0400 (Eastern Daylight Time),488036.2999999998,elated,800,I,m,m,None,543,344.0,199.0,109,1,1872.9000000003725,486163.39999999944,9070,napkin,AF,C,483079,483079,481555,482362,481556,483428,482879,482879,483428,127
98,test,1,con,1,m,Wed Apr 15 2026 10:51:39 GMT-0400 (Eastern Daylight Time),490103.0,bell,1100,I,m,m,None,417,217.0,200.0,84,1,2058.4000000003725,488044.5999999996,9070,bell,AF,C,485262,485262,483437,484545,483437,485495,485062,485062,485495,128
