acc_sum,block_c,block_dur,condition,correct,correct_response,countdown,datetime,endtime,project,response,response_time,response_time_test1_response,response_time_test2_response,row_sel,same,session_number,start_end,starttime,stim1,stim2,subject_id,task,task_vers,time_test1,time_test2,trial
1,1,0.0,prac,1,z,30000.0,Tue Feb 03 2026 12:18:27 GMT-0500 (Eastern Standard Time),37312.699999809265,I,z,1009,,,3,yes,1,2542.199999809265,34770.5,practrial3.png,practrial3.png,9050,PC,A,,,1
2,1,0.0,prac,1,z,30000.0,Tue Feb 03 2026 12:18:27 GMT-0500 (Eastern Standard Time),40379.199999809265,I,z,1531,,,5,yes,1,3057.7999992370605,37321.400000572205,practrial5.png,practrial5.png,9050,PC,A,,,2
3,1,0.0,prac,1,m,30000.0,Tue Feb 03 2026 12:18:27 GMT-0500 (Eastern Standard Time),42912.400000572205,I,m,993,,,2,no,1,2525.7000007629395,40386.699999809265,practrial2.png,practrial2b.png,9050,PC,A,,,3
3,1,0.0,prac,0,m,30000.0,Tue Feb 03 2026 12:18:27 GMT-0500 (Eastern Standard Time),45429.0,I,z,985,,,4,no,1,2506.5,42922.5,practrial4.png,practrial4b.png,9050,PC,A,,,4
4,1,0.0,prac,1,z,30000.0,Tue Feb 03 2026 12:18:27 GMT-0500 (Eastern Standard Time),48712.800000190735,I,z,1750,,,1,yes,1,3275.1000003814697,45437.699999809265,practrial1.png,practrial1.png,9050,PC,A,,,5
5,1,0.0,prac,1,m,30000.0,Tue Feb 03 2026 12:18:27 GMT-0500 (Eastern Standard Time),52879.10000038147,I,m,2627,,,6,no,1,4157.900000572205,48721.199999809265,practrial6.png,practrial6b.png,9050,PC,A,,,6
1,1,2.1660001277923584,test,1,z,27833.99987220764,Tue Feb 03 2026 12:18:27 GMT-0500 (Eastern Standard Time),62212.900000572205,I,z,2143,2143,,1,yes,1,2160.2000007629395,60052.699999809265,test1trial1.png,test1trial1.png,9050,PC,A,57695,,1
2,1,3.2990000247955322,test,1,m,26700.999975204468,Tue Feb 03 2026 12:18:27 GMT-0500 (Eastern Standard Time),63345.900000572205,I,m,1112,1112,,2,no,1,1126.4000005722046,62219.5,test1trial2.png,test1trial2b.png,9050,PC,A,59862,,2
3,1,5.449000120162964,test,1,z,24550.999879837036,Tue Feb 03 2026 12:18:27 GMT-0500 (Eastern Standard Time),65495.60000038147,I,z,2139,2139,,3,yes,1,2141.800000190735,63353.800000190735,test1trial3.png,test1trial3.png,9050,PC,A,60996,,3
4,1,6.56600022315979,test,1,m,23433.99977684021,Tue Feb 03 2026 12:18:27 GMT-0500 (Eastern Standard Time),66612.69999980927,I,m,1092,1092,,4,no,1,1109.1999998092651,65503.5,test1trial4.png,test1trial4b.png,9050,PC,A,63146,,4
5,1,8.866000175476074,test,1,z,21133.999824523926,Tue Feb 03 2026 12:18:27 GMT-0500 (Eastern Standard Time),68912.60000038147,I,z,2281,2281,,5,yes,1,2292.800000190735,66619.80000019073,test1trial5.png,test1trial5.png,9050,PC,A,64262,,5
6,1,10.016000032424927,test,1,m,19983.999967575073,Tue Feb 03 2026 12:18:27 GMT-0500 (Eastern Standard Time),70062.5,I,m,1132,1132,,6,no,1,1143.0999994277954,68919.4000005722,test1trial6.png,test1trial6b.png,9050,PC,A,66562,,6
7,1,11.383000135421753,test,1,z,18616.999864578247,Tue Feb 03 2026 12:18:27 GMT-0500 (Eastern Standard Time),71429.5,I,z,1343,1343,,7,yes,1,1360.6999998092651,70068.80000019073,test1trial7.png,test1trial7.png,9050,PC,A,67710,,7
8,1,13.766000032424927,test,1,m,16233.999967575073,Tue Feb 03 2026 12:18:27 GMT-0500 (Eastern Standard Time),73812.60000038147,I,m,2359,2359,,8,no,1,2375.4000005722046,71437.19999980927,test1trial8.png,test1trial8b.png,9050,PC,A,69079,,8
9,1,15.833000183105469,test,1,z,14166.999816894531,Tue Feb 03 2026 12:18:27 GMT-0500 (Eastern Standard Time),75879.19999980927,I,z,2054,2054,,9,yes,1,2056.699999809265,73822.5,test1trial9.png,test1trial9.png,9050,PC,A,71464,,9
10,1,17.199000120162964,test,1,m,12800.999879837036,Tue Feb 03 2026 12:18:27 GMT-0500 (Eastern Standard Time),77246.0,I,m,1350,1350,,10,no,1,1359.5999994277954,75886.4000005722,test1trial10.png,test1trial10b.png,9050,PC,A,73528,,10
11,1,18.782999992370605,test,1,z,11217.000007629395,Tue Feb 03 2026 12:18:27 GMT-0500 (Eastern Standard Time),78829.30000019073,I,z,1566,1566,,11,yes,1,1576.0,77253.30000019073,test1trial11.png,test1trial11.png,9050,PC,A,74896,,11
12,1,20.58300018310547,test,1,m,9416.999816894531,Tue Feb 03 2026 12:18:27 GMT-0500 (Eastern Standard Time),80629.30000019073,I,m,1776,1776,,12,no,1,1792.0,78837.30000019073,test1trial12.png,test1trial12b.png,9050,PC,A,76479,,12
13,1,21.782999992370605,test,1,m,8217.000007629395,Tue Feb 03 2026 12:18:27 GMT-0500 (Eastern Standard Time),81829.10000038147,I,m,1176,1176,,13,no,1,1193.4000005722046,80635.69999980927,test1trial13.png,test1trial13b.png,9050,PC,A,78278,,13
14,1,23.782999992370605,test,1,m,6217.0000076293945,Tue Feb 03 2026 12:18:27 GMT-0500 (Eastern Standard Time),83829.19999980927,I,m,1975,1975,,14,no,1,1992.8999996185303,81836.30000019073,test1trial14.png,test1trial14b.png,9050,PC,A,79479,,14
15,1,25.266000032424927,test,1,z,4733.999967575073,Tue Feb 03 2026 12:18:27 GMT-0500 (Eastern Standard Time),85312.60000038147,I,z,1463,1463,,15,yes,1,1475.1000003814697,83837.5,test1trial15.png,test1trial15.png,9050,PC,A,81479,,15
16,1,26.366000175476074,test,1,m,3633.999824523926,Tue Feb 03 2026 12:18:27 GMT-0500 (Eastern Standard Time),86412.4000005722,I,m,1081,1081,,16,no,1,1090.5,85321.9000005722,test1trial16.png,test1trial16b.png,9050,PC,A,82965,,16
17,1,28.049000024795532,test,1,z,1950.9999752044678,Tue Feb 03 2026 12:18:27 GMT-0500 (Eastern Standard Time),88096.10000038147,I,z,1665,1665,,17,yes,1,1676.8000001907349,86419.30000019073,test1trial17.png,test1trial17.png,9050,PC,A,84061,,17
17,1,30.016000032424927,test,0,m,-16.000032424926758,Tue Feb 03 2026 12:18:27 GMT-0500 (Eastern Standard Time),90062.5,I,None,1958,1958,,18,no,1,1959.1999998092651,88103.30000019073,test1trial18.png,test1trial18b.png,9050,PC,A,85745,,18
1,2,3.366999864578247,test,1,m,26633.000135421753,Tue Feb 03 2026 12:18:27 GMT-0500 (Eastern Standard Time),100046.30000019073,I,m,3350,,3350.0,1,no,1,11943.0,88103.30000019073,test2trial1.png,test2trial1b.png,9050,PC,A,,94328.0,1
2,2,5.0,test,1,m,25000.0,Tue Feb 03 2026 12:18:27 GMT-0500 (Eastern Standard Time),101679.30000019073,I,m,1612,,1612.0,2,no,1,13576.0,88103.30000019073,test2trial2.png,test2trial2b.png,9050,PC,A,,97698.0,2
3,2,6.25,test,1,z,23750.0,Tue Feb 03 2026 12:18:27 GMT-0500 (Eastern Standard Time),102929.19999980927,I,z,1230,,1230.0,3,yes,1,14825.89999961853,88103.30000019073,test2trial3.png,test2trial3.png,9050,PC,A,,99328.0,3
4,2,7.516000032424927,test,1,z,22483.999967575073,Tue Feb 03 2026 12:18:27 GMT-0500 (Eastern Standard Time),104195.80000019073,I,z,1242,,1242.0,4,yes,1,16092.5,88103.30000019073,test2trial4.png,test2trial4.png,9050,PC,A,,100580.0,4
5,2,9.149999856948853,test,1,z,20850.000143051147,Tue Feb 03 2026 12:18:27 GMT-0500 (Eastern Standard Time),105829.10000038147,I,z,1610,,1610.0,5,yes,1,17725.800000190735,88103.30000019073,test2trial5.png,test2trial5.png,9050,PC,A,,101844.0,5
6,2,10.532999992370605,test,1,z,19467.000007629395,Tue Feb 03 2026 12:18:27 GMT-0500 (Eastern Standard Time),107212.5,I,z,1367,,1367.0,6,yes,1,19109.199999809265,88103.30000019073,test2trial6.png,test2trial6.png,9050,PC,A,,103480.0,6
7,2,11.933000087738037,test,1,m,18066.999912261963,Tue Feb 03 2026 12:18:27 GMT-0500 (Eastern Standard Time),108612.4000005722,I,m,1376,,1376.0,7,no,1,20509.10000038147,88103.30000019073,test2trial7.png,test2trial7b.png,9050,PC,A,,104862.0,7
8,2,13.233000040054321,test,1,m,16766.99995994568,Tue Feb 03 2026 12:18:27 GMT-0500 (Eastern Standard Time),109912.5,I,m,1290,,1290.0,8,no,1,21809.199999809265,88103.30000019073,test2trial8.png,test2trial8b.png,9050,PC,A,,106260.0,8
9,2,15.433000087738037,test,1,z,14566.999912261963,Tue Feb 03 2026 12:18:27 GMT-0500 (Eastern Standard Time),112112.69999980927,I,z,2179,,2179.0,9,yes,1,24009.39999961853,88103.30000019073,test2trial9.png,test2trial9.png,9050,PC,A,,107563.0,9
10,2,17.049000024795532,test,1,z,12950.999975204468,Tue Feb 03 2026 12:18:27 GMT-0500 (Eastern Standard Time),113729.0,I,z,1596,,1596.0,10,yes,1,25625.699999809265,88103.30000019073,test2trial10.png,test2trial10.png,9050,PC,A,,109762.0,10
11,2,18.6489999294281,test,1,m,11351.0000705719,Tue Feb 03 2026 12:18:27 GMT-0500 (Eastern Standard Time),115329.10000038147,I,m,1580,,1580.0,11,no,1,27225.800000190735,88103.30000019073,test2trial11.png,test2trial11b.png,9050,PC,A,,111378.0,11
12,2,19.91599988937378,test,1,m,10084.00011062622,Tue Feb 03 2026 12:18:27 GMT-0500 (Eastern Standard Time),116595.80000019073,I,m,1243,,1243.0,12,no,1,28492.5,88103.30000019073,test2trial12.png,test2trial12b.png,9050,PC,A,,112979.0,12
13,2,21.23300004005432,test,1,z,8766.999959945679,Tue Feb 03 2026 12:18:27 GMT-0500 (Eastern Standard Time),117912.30000019073,I,z,1306,,1306.0,13,yes,1,29809.0,88103.30000019073,test2trial13.png,test2trial13.png,9050,PC,A,,114245.0,13
13,2,23.0,test,0,m,7000.0,Tue Feb 03 2026 12:18:27 GMT-0500 (Eastern Standard Time),119679.19999980927,I,z,1748,,1748.0,14,no,1,31575.89999961853,88103.30000019073,test2trial14.png,test2trial14b.png,9050,PC,A,,115562.0,14
14,2,23.91599988937378,test,1,m,6084.000110626221,Tue Feb 03 2026 12:18:27 GMT-0500 (Eastern Standard Time),120595.9000005722,I,m,894,,894.0,15,no,1,32492.60000038147,88103.30000019073,test2trial15.png,test2trial15b.png,9050,PC,A,,117328.0,15
14,2,25.73199987411499,test,0,m,4268.00012588501,Tue Feb 03 2026 12:18:27 GMT-0500 (Eastern Standard Time),122412.0,I,z,1801,,1801.0,16,no,1,34308.699999809265,88103.30000019073,test2trial16.png,test2trial16b.png,9050,PC,A,,118244.0,16
15,2,26.98300004005432,test,1,z,3016.9999599456787,Tue Feb 03 2026 12:18:27 GMT-0500 (Eastern Standard Time),123662.4000005722,I,z,1236,,1236.0,17,yes,1,35559.10000038147,88103.30000019073,test2trial17.png,test2trial17.png,9050,PC,A,,120058.0,17
16,2,28.56599998474121,test,1,z,1434.000015258789,Tue Feb 03 2026 12:18:27 GMT-0500 (Eastern Standard Time),125245.80000019073,I,z,1568,,1568.0,18,yes,1,37142.5,88103.30000019073,test2trial18.png,test2trial18.png,9050,PC,A,,121310.0,18
16,2,30.016000032424927,test,0,z,-16.000032424926758,Tue Feb 03 2026 12:18:27 GMT-0500 (Eastern Standard Time),126695.80000019073,I,None,1440,,1440.0,19,yes,1,38592.5,88103.30000019073,test2trial19.png,test2trial19.png,9050,PC,A,,122897.0,19
