acc_sum,block,block_c,condition,correct,correct_response,datetime,endtime,flanker,jitter,project,response,response_test_buffer_response,response_test_target_response,response_time,response_time_test_buffer_response,response_time_test_target_response,row_sel,session_number,start_end,starttime,subject_id,target,task,task_vers,time_test_buffer,time_test_buffer_response,time_test_constants,time_test_flanker,time_test_jitter,time_test_logger,time_test_target,time_test_target_response,time_test_variables,trial
1,prac,1,inc,1,m,Wed Mar 25 2026 15:16:29 GMT-0500 (Central Daylight Time),200857.09999990463,elated,900,O,m,,,715,,,6,1,2911.0,197946.09999990463,7787,napkin,AF,B,,,,,,,,,,1
2,prac,1,con,1,z,Wed Mar 25 2026 15:16:29 GMT-0500 (Central Daylight Time),203690.20000004768,elated,800,O,z,,,720,,,9,1,2826.7000000476837,200863.5,7787,elated,AF,B,,,,,,,,,,2
3,prac,1,inc,1,z,Wed Mar 25 2026 15:16:29 GMT-0500 (Central Daylight Time),206622.5,rock,900,O,z,,,741,,,10,1,2926.4000000953674,203696.09999990463,7787,kind,AF,B,,,,,,,,,,3
4,prac,1,inc,1,z,Wed Mar 25 2026 15:16:29 GMT-0500 (Central Daylight Time),209853.0,window,1100,O,z,,,825,,,16,1,3225.4000000953674,206627.59999990463,7787,temper,AF,B,,,,,,,,,,4
4,prac,1,inc,0,z,Wed Mar 25 2026 15:16:29 GMT-0500 (Central Daylight Time),213085.70000004768,napkin,1100,O,m,,,815,,,12,1,3228.2000000476837,209857.5,7787,friend,AF,B,,,,,,,,,,5
5,prac,1,inc,1,m,Wed Mar 25 2026 15:16:29 GMT-0500 (Central Daylight Time),216185.29999995232,kind,900,O,m,,,889,,,2,1,3095.2999999523163,213090.0,7787,rock,AF,B,,,,,,,,,,6
6,prac,1,con,1,m,Wed Mar 25 2026 15:16:29 GMT-0500 (Central Daylight Time),219517.79999995232,step,800,O,m,,,1224,,,1,1,3326.2000000476837,216191.59999990463,7787,step,AF,B,,,,,,,,,,7
6,prac,1,inc,0,z,Wed Mar 25 2026 15:16:29 GMT-0500 (Central Daylight Time),222832.29999995232,film,900,O,m,,,1122,,,14,1,3308.0,219524.29999995232,7787,hate,AF,B,,,,,,,,,,8
7,prac,1,con,1,m,Wed Mar 25 2026 15:16:29 GMT-0500 (Central Daylight Time),225848.90000009537,remote,1000,O,m,,,704,,,7,1,3011.300000190735,222837.59999990463,7787,remote,AF,B,,,,,,,,,,9
8,prac,1,inc,1,m,Wed Mar 25 2026 15:16:29 GMT-0500 (Central Daylight Time),228931.20000004768,hate,1100,O,m,,,669,,,4,1,3077.5,225853.70000004768,7787,film,AF,B,,,,,,,,,,10
9,prac,1,con,1,m,Wed Mar 25 2026 15:16:29 GMT-0500 (Central Daylight Time),231679.40000009537,jacket,800,O,m,,,638,,,5,1,2740.7000000476837,228938.70000004768,7787,jacket,AF,B,,,,,,,,,,11
10,prac,1,con,1,z,Wed Mar 25 2026 15:16:29 GMT-0500 (Central Daylight Time),234533.29999995232,rage,1000,O,z,,,546,,,15,1,2850.2999999523163,231683.0,7787,rage,AF,B,,,,,,,,,,12
11,prac,1,inc,1,m,Wed Mar 25 2026 15:16:29 GMT-0500 (Central Daylight Time),238477.5,brutal,1100,O,m,,,1542,,,8,1,3940.7999999523163,234536.70000004768,7787,window,AF,B,,,,,,,,,,13
12,prac,1,con,1,m,Wed Mar 25 2026 15:16:29 GMT-0500 (Central Daylight Time),241877.09999990463,bell,1000,O,m,,,1092,,,3,1,3395.5,238481.59999990463,7787,bell,AF,B,,,,,,,,,,14
12,prac,1,con,0,z,Wed Mar 25 2026 15:16:29 GMT-0500 (Central Daylight Time),244860.29999995232,brutal,800,O,m,,,869,,,13,1,2977.5999999046326,241882.70000004768,7787,brutal,AF,B,,,,,,,,,,15
13,prac,1,con,1,z,Wed Mar 25 2026 15:16:29 GMT-0500 (Central Daylight Time),247942.20000004768,love,1000,O,z,,,794,,,11,1,3075.7999999523163,244866.40000009537,7787,love,AF,B,,,,,,,,,,16
1,test,1,con,1,z,Wed Mar 25 2026 15:16:29 GMT-0500 (Central Daylight Time),301274.40000009537,hate,900,O,z,z,None,657,456.0,201.0,42,1,2095.300000190735,299179.09999990463,7787,hate,AF,B,298254,298254,296625,297539,296625,298720,298053,298053,298720,1
2,test,1,inc,1,z,Wed Mar 25 2026 15:16:29 GMT-0500 (Central Daylight Time),303590.59999990463,window,1100,O,z,z,None,677,477.0,200.0,40,1,2311.7999999523163,301278.7999999523,7787,brutal,AF,B,300553,300553,298725,299837,298725,301037,300353,300353,301037,2
3,test,1,inc,1,z,Wed Mar 25 2026 15:16:29 GMT-0500 (Central Daylight Time),305773.7000000477,bell,1000,O,z,z,None,643,429.0,214.0,23,1,2178.2000000476837,303595.5,7787,love,AF,B,302785,302785,301042,302054,301042,303220,302571,302571,303220,3
4,test,1,con,1,m,Wed Mar 25 2026 15:16:29 GMT-0500 (Central Daylight Time),308090.40000009537,step,1100,O,m,m,None,674,475.0,199.0,68,1,2311.800000190735,305778.59999990463,7787,step,AF,B,305051,305052,303225,304336,303225,305536,304852,304852,305536,4
4,test,1,inc,0,z,Wed Mar 25 2026 15:16:29 GMT-0500 (Central Daylight Time),310338.40000009537,step,800,O,m,m,None,905,706.0,199.0,13,1,2241.7000000476837,308096.7000000477,7787,kind,AF,B,307068,307068,305543,306353,305543,307784,306869,306869,307784,5
5,test,1,inc,1,m,Wed Mar 25 2026 15:16:29 GMT-0500 (Central Daylight Time),312420.40000009537,brutal,900,O,m,m,None,636,437.0,199.0,102,1,2078.9000000953674,310341.5,7787,jacket,AF,B,309416,309416,307788,308701,307788,309866,309217,309217,309866,6
6,test,1,inc,1,z,Wed Mar 25 2026 15:16:29 GMT-0500 (Central Daylight Time),314836.2000000477,window,1100,O,z,z,None,768,569.0,199.0,32,1,2410.100000143051,312426.09999990463,7787,friend,AF,B,311701,311701,309872,310984,309873,312282,311501,311501,312282,7
7,test,1,con,1,z,Wed Mar 25 2026 15:16:29 GMT-0500 (Central Daylight Time),316987.2999999523,love,900,O,z,z,None,716,500.0,216.0,18,1,2145.0999999046326,314842.2000000477,7787,love,AF,B,313933,313933,312288,313199,312289,314433,313717,313717,314433,8
8,test,1,inc,1,m,Wed Mar 25 2026 15:16:29 GMT-0500 (Central Daylight Time),319086.0,kind,900,O,m,m,None,663,462.0,201.0,70,1,2093.2000000476837,316992.7999999523,7787,step,AF,B,316065,316065,314439,315348,314439,316532,315864,315864,316532,9
9,test,1,con,1,z,Wed Mar 25 2026 15:16:29 GMT-0500 (Central Daylight Time),321567.2999999523,hate,1100,O,z,z,None,832,633.0,199.0,44,1,2476.5,319090.7999999523,7787,hate,AF,B,318364,318364,316537,317648,316537,319013,318164,318164,319013,10
10,test,1,con,1,z,Wed Mar 25 2026 15:16:29 GMT-0500 (Central Daylight Time),323650.90000009537,temper,900,O,z,z,None,647,447.0,200.0,58,1,2078.100000143051,321572.7999999523,7787,temper,AF,B,320647,320647,319019,319931,319019,321097,320447,320447,321097,11
11,test,1,con,1,m,Wed Mar 25 2026 15:16:29 GMT-0500 (Central Daylight Time),325933.5,window,1000,O,m,m,None,761,545.0,216.0,123,1,2276.0999999046326,323657.40000009537,7787,window,AF,B,322830,322830,321103,322112,321104,323380,322614,322614,323380,12
12,test,1,con,1,m,Wed Mar 25 2026 15:16:29 GMT-0500 (Central Daylight Time),328249.0,step,800,O,m,m,None,972,773.0,199.0,65,1,2310.9000000953674,325938.09999990463,7787,step,AF,B,324913,324914,323384,324196,323385,325695,324714,324714,325695,13
13,test,1,inc,1,z,Wed Mar 25 2026 15:16:29 GMT-0500 (Central Daylight Time),330698.40000009537,napkin,900,O,z,z,None,1005,805.0,200.0,30,1,2442.4000000953674,328256.0,7787,friend,AF,B,327329,327329,325702,326612,325702,328145,327129,327129,328144,14
14,test,1,con,1,m,Wed Mar 25 2026 15:16:29 GMT-0500 (Central Daylight Time),332963.0,bell,900,O,m,m,None,820,618.0,202.0,82,1,2261.5999999046326,330701.40000009537,7787,bell,AF,B,329779,329779,328147,329061,328148,330409,329577,329577,330409,15
15,test,1,inc,1,z,Wed Mar 25 2026 15:16:29 GMT-0500 (Central Daylight Time),335365.2000000477,bell,1000,O,z,z,None,852,653.0,199.0,55,1,2399.100000143051,332966.09999990463,7787,rage,AF,B,332145,332145,330412,331428,330413,332811,331945,331945,332811,16
16,test,1,con,1,z,Wed Mar 25 2026 15:16:29 GMT-0500 (Central Daylight Time),338147.7000000477,elated,1100,O,z,z,None,1150,949.0,201.0,4,1,2777.100000143051,335370.59999990463,7787,elated,AF,B,334644,334644,332817,333927,332817,335594,334443,334443,335594,17
17,test,1,inc,1,m,Wed Mar 25 2026 15:16:29 GMT-0500 (Central Daylight Time),340261.40000009537,rage,800,O,m,m,None,769,570.0,199.0,69,1,2107.7000000476837,338153.7000000477,7787,step,AF,B,337124,337124,335600,336410,335600,337707,336925,336925,337707,18
18,test,1,con,1,z,Wed Mar 25 2026 15:16:29 GMT-0500 (Central Daylight Time),342444.7000000477,love,800,O,z,z,None,844,645.0,199.0,17,1,2177.2999999523163,340267.40000009537,7787,love,AF,B,339242,339242,337713,338526,337714,339891,339042,339042,339891,19
19,test,1,con,1,m,Wed Mar 25 2026 15:16:29 GMT-0500 (Central Daylight Time),344993.90000009537,film,1100,O,m,m,None,906,706.0,200.0,92,1,2545.600000143051,342448.2999999523,7787,film,AF,B,341725,341725,339894,341009,339895,342440,341524,341524,342440,20
20,test,1,inc,1,m,Wed Mar 25 2026 15:16:29 GMT-0500 (Central Daylight Time),347576.7000000477,hate,1100,O,m,m,None,939,740.0,199.0,96,1,2577.2999999523163,344999.40000009537,7787,film,AF,B,344274,344274,342445,343557,342446,345023,344074,344074,345023,21
21,test,1,inc,1,m,Wed Mar 25 2026 15:16:29 GMT-0500 (Central Daylight Time),350158.59999990463,hate,1100,O,m,m,None,940,741.0,199.0,88,1,2576.5999999046326,347582.0,7787,bell,AF,B,346857,346857,345028,346139,345028,347605,346657,346657,347605,22
22,test,1,con,1,z,Wed Mar 25 2026 15:16:29 GMT-0500 (Central Daylight Time),352290.5,kind,800,O,z,z,None,787,588.0,199.0,9,1,2127.9000000953674,350162.59999990463,7787,kind,AF,B,349137,349137,347609,348423,347609,349737,348938,348938,349737,23
23,test,1,con,1,m,Wed Mar 25 2026 15:16:29 GMT-0500 (Central Daylight Time),354591.59999990463,jacket,1100,O,m,m,None,666,464.0,202.0,100,1,2297.399999856949,352294.2000000477,7787,jacket,AF,B,351574,351574,349740,350855,349741,352038,351371,351371,352038,24
24,test,1,con,1,m,Wed Mar 25 2026 15:16:29 GMT-0500 (Central Daylight Time),356822.7000000477,film,800,O,m,m,None,892,692.0,200.0,89,1,2226.600000143051,354596.09999990463,7787,film,AF,B,353570,353570,352042,352854,352042,354269,353370,353370,354269,25
25,test,1,inc,1,z,Wed Mar 25 2026 15:16:29 GMT-0500 (Central Daylight Time),359012.09999990463,rock,900,O,z,z,None,757,557.0,200.0,54,1,2186.0999999046326,356826.0,7787,rage,AF,B,355887,355888,354272,355186,354272,356458,355687,355687,356458,26
26,test,1,con,1,z,Wed Mar 25 2026 15:16:29 GMT-0500 (Central Daylight Time),361104.40000009537,friend,900,O,z,z,None,673,474.0,199.0,26,1,2089.300000190735,359015.09999990463,7787,friend,AF,B,358068,358068,356461,357368,356461,358550,357869,357869,358550,27
27,test,1,inc,1,z,Wed Mar 25 2026 15:16:29 GMT-0500 (Central Daylight Time),363404.2999999523,bell,1000,O,z,z,None,761,561.0,200.0,47,1,2295.399999856949,361108.90000009537,7787,hate,AF,B,360285,360285,358555,359568,358555,360850,360084,360084,360850,28
28,test,1,con,1,m,Wed Mar 25 2026 15:16:29 GMT-0500 (Central Daylight Time),365436.5,jacket,800,O,m,m,None,700,485.0,215.0,97,1,2029.2000000476837,363407.2999999523,7787,jacket,AF,B,362385,362385,360853,361667,360854,362883,362169,362169,362883,29
29,test,1,con,1,m,Wed Mar 25 2026 15:16:29 GMT-0500 (Central Daylight Time),368019.7999999523,rock,900,O,m,m,None,1137,938.0,199.0,74,1,2578.5,365441.2999999523,7787,rock,AF,B,364517,364517,362887,363799,362888,365466,364317,364317,365466,30
30,test,1,con,1,m,Wed Mar 25 2026 15:16:29 GMT-0500 (Central Daylight Time),370234.7000000477,napkin,800,O,m,m,None,878,678.0,200.0,105,1,2210.2999999523163,368024.40000009537,7787,napkin,AF,B,367000,367000,365470,366281,365471,367681,366799,366799,367681,31
30,test,1,inc,0,z,Wed Mar 25 2026 15:16:29 GMT-0500 (Central Daylight Time),373185.7000000477,rock,900,O,m,m,None,1509,1309.0,200.0,14,1,2946.4000000953674,370239.2999999523,7787,kind,AF,B,369315,369315,367685,368599,367686,370632,369115,369115,370632,32
31,test,1,inc,1,z,Wed Mar 25 2026 15:16:29 GMT-0500 (Central Daylight Time),375284.5,step,800,O,z,z,None,752,552.0,200.0,21,1,2094.9000000953674,373189.59999990463,7787,love,AF,B,372165,372166,370636,371448,370636,372731,371965,371965,372731,33
32,test,1,con,1,m,Wed Mar 25 2026 15:16:29 GMT-0500 (Central Daylight Time),378249.2000000477,window,1100,O,m,m,None,1329,1115.0,214.0,124,1,2960.100000143051,375289.09999990463,7787,window,AF,B,374579,374579,372735,373847,372735,375695,374364,374364,375695,34
33,test,1,inc,1,m,Wed Mar 25 2026 15:16:29 GMT-0500 (Central Daylight Time),380432.0,rage,800,O,m,m,None,832,632.0,200.0,85,1,2178.0999999046326,378253.90000009537,7787,bell,AF,B,377230,377230,375700,376514,375700,377878,377029,377029,377878,35
34,test,1,con,1,m,Wed Mar 25 2026 15:16:29 GMT-0500 (Central Daylight Time),382564.2999999523,window,800,O,m,m,None,794,593.0,201.0,121,1,2126.0,380438.2999999523,7787,window,AF,B,379412,379412,377884,378695,377885,380010,379211,379211,380010,36
35,test,1,inc,1,m,Wed Mar 25 2026 15:16:29 GMT-0500 (Central Daylight Time),385497.2000000477,temper,1000,O,m,m,None,1398,1198.0,200.0,119,1,2930.100000143051,382567.09999990463,7787,remote,AF,B,381745,381745,380013,381028,380013,382943,381544,381544,382943,37
36,test,1,inc,1,z,Wed Mar 25 2026 15:16:29 GMT-0500 (Central Daylight Time),387531.2999999523,jacket,800,O,z,z,None,689,490.0,199.0,37,1,2028.0,385503.2999999523,7787,brutal,AF,B,384476,384476,382949,383761,382949,384977,384277,384277,384977,38
37,test,1,inc,1,m,Wed Mar 25 2026 15:16:29 GMT-0500 (Central Daylight Time),389845.5,brutal,900,O,m,m,None,868,669.0,199.0,126,1,2307.7000000476837,387537.7999999523,7787,window,AF,B,386609,386609,384984,385894,384984,387292,386409,386409,387292,39
38,test,1,inc,1,m,Wed Mar 25 2026 15:16:29 GMT-0500 (Central Daylight Time),392361.5,elated,800,O,m,m,None,1172,969.0,203.0,117,1,2509.0,389852.5,7787,remote,AF,B,388829,388829,387299,388109,387299,389808,388625,388625,389808,40
39,test,1,con,1,z,Wed Mar 25 2026 15:16:29 GMT-0500 (Central Daylight Time),394693.7999999523,friend,1100,O,z,z,None,701,486.0,215.0,28,1,2326.2000000476837,392367.59999990463,7787,friend,AF,B,391640,391640,389814,390924,389814,392140,391425,391425,392140,41
40,test,1,con,1,m,Wed Mar 25 2026 15:16:29 GMT-0500 (Central Daylight Time),396976.7999999523,remote,1000,O,m,m,None,733,533.0,200.0,115,1,2277.2999999523163,394699.5,7787,remote,AF,B,393873,393874,392146,393158,392146,394423,393673,393673,394423,42
41,test,1,inc,1,m,Wed Mar 25 2026 15:16:29 GMT-0500 (Central Daylight Time),400225.59999990463,kind,900,O,m,m,None,1814,1614.0,200.0,94,1,3241.699999809265,396983.90000009537,7787,film,AF,B,396056,396056,394430,395340,394430,397672,395856,395856,397672,43
42,test,1,con,1,z,Wed Mar 25 2026 15:16:29 GMT-0500 (Central Daylight Time),402375.09999990463,rage,800,O,z,z,None,799,598.0,201.0,49,1,2143.2999999523163,400231.7999999523,7787,rage,AF,B,399208,399208,397678,398489,397678,399821,399006,399006,399821,44
43,test,1,inc,1,m,Wed Mar 25 2026 15:16:29 GMT-0500 (Central Daylight Time),404808.09999990463,friend,1100,O,m,m,None,806,591.0,215.0,112,1,2425.7999999523163,402382.2999999523,7787,napkin,AF,B,401655,401655,399828,400938,399829,402254,401439,401439,402254,45
44,test,1,con,1,m,Wed Mar 25 2026 15:16:29 GMT-0500 (Central Daylight Time),407425.40000009537,rock,1100,O,m,m,None,973,774.0,199.0,76,1,2611.800000190735,404813.59999990463,7787,rock,AF,B,404087,404087,402260,403370,402260,404872,403888,403888,404871,46
45,test,1,con,1,m,Wed Mar 25 2026 15:16:29 GMT-0500 (Central Daylight Time),409639.40000009537,film,1000,O,m,m,None,677,477.0,200.0,91,1,2211.100000143051,407428.2999999523,7787,film,AF,B,406603,406603,404874,405886,404875,407085,406402,406402,407085,47
46,test,1,con,1,m,Wed Mar 25 2026 15:16:29 GMT-0500 (Central Daylight Time),411889.09999990463,rock,1000,O,m,m,None,700,500.0,200.0,75,1,2246.399999856949,409642.7000000477,7787,rock,AF,B,408820,408820,407089,408104,407089,409335,408620,408620,409335,48
47,test,1,con,1,z,Wed Mar 25 2026 15:16:29 GMT-0500 (Central Daylight Time),413804.90000009537,friend,800,O,z,z,None,568,353.0,215.0,25,1,1909.9000000953674,411895.0,7787,friend,AF,B,410885,410885,409341,410152,409341,411251,410669,410669,411251,49
48,test,1,inc,1,z,Wed Mar 25 2026 15:16:29 GMT-0500 (Central Daylight Time),415970.59999990463,remote,1000,O,z,z,None,621,420.0,201.0,31,1,2160.5,413810.09999990463,7787,friend,AF,B,412985,412985,411256,412270,411256,413417,412784,412784,413417,50
49,test,1,con,1,z,Wed Mar 25 2026 15:16:29 GMT-0500 (Central Daylight Time),418203.2000000477,love,1000,O,z,z,None,697,496.0,201.0,19,1,2229.600000143051,415973.59999990463,7787,love,AF,B,415151,415151,413420,414434,413420,415649,414950,414950,415649,51
50,test,1,con,1,m,Wed Mar 25 2026 15:16:29 GMT-0500 (Central Daylight Time),420419.7999999523,step,1000,O,m,m,None,694,495.0,199.0,67,1,2209.7999999523163,418210.0,7787,step,AF,B,417366,417367,415656,416666,415656,417866,417167,417167,417866,52
51,test,1,inc,1,m,Wed Mar 25 2026 15:16:29 GMT-0500 (Central Daylight Time),422969.09999990463,friend,1100,O,m,m,None,907,707.0,200.0,128,1,2544.2999999523163,420424.7999999523,7787,window,AF,B,419699,419699,417871,418982,417871,420415,419499,419499,420415,53
52,test,1,inc,1,z,Wed Mar 25 2026 15:16:29 GMT-0500 (Central Daylight Time),425385.0,film,1100,O,z,z,None,797,583.0,214.0,16,1,2411.4000000953674,422973.59999990463,7787,kind,AF,B,422248,422248,420420,421532,420420,422831,422034,422034,422831,54
53,test,1,inc,1,z,Wed Mar 25 2026 15:16:29 GMT-0500 (Central Daylight Time),427550.59999990463,remote,1000,O,z,z,None,616,417.0,199.0,63,1,2158.2999999523163,425392.2999999523,7787,temper,AF,B,424565,424565,422838,423848,422839,424997,424365,424365,424997,55
54,test,1,con,1,z,Wed Mar 25 2026 15:16:29 GMT-0500 (Central Daylight Time),429950.09999990463,friend,1000,O,z,z,None,852,652.0,200.0,27,1,2394.7999999523163,427555.2999999523,7787,friend,AF,B,426730,426730,425001,426013,425002,427396,426529,426529,427396,56
55,test,1,inc,1,m,Wed Mar 25 2026 15:16:29 GMT-0500 (Central Daylight Time),432315.2999999523,hate,1100,O,m,m,None,727,527.0,200.0,72,1,2361.0,429954.2999999523,7787,step,AF,B,429231,429231,427400,428514,427401,429761,429030,429030,429761,57
56,test,1,con,1,z,Wed Mar 25 2026 15:16:29 GMT-0500 (Central Daylight Time),434598.5,elated,1000,O,z,z,None,741,542.0,199.0,3,1,2278.7000000476837,432319.7999999523,7787,elated,AF,B,431496,431496,429766,430779,429766,432045,431296,431296,432044,58
57,test,1,inc,1,z,Wed Mar 25 2026 15:16:29 GMT-0500 (Central Daylight Time),437013.59999990463,window,1100,O,z,z,None,765,550.0,215.0,64,1,2410.5999999046326,434603.0,7787,temper,AF,B,433895,433895,432049,433161,432049,434460,433679,433679,434460,59
58,test,1,inc,1,z,Wed Mar 25 2026 15:16:29 GMT-0500 (Central Daylight Time),439265.0,rock,900,O,z,z,None,809,610.0,199.0,22,1,2247.5999999046326,437017.40000009537,7787,love,AF,B,436093,436093,434463,435377,434464,436711,435894,435894,436711,60
59,test,1,con,1,z,Wed Mar 25 2026 15:16:29 GMT-0500 (Central Daylight Time),441678.5,hate,1000,O,z,z,None,874,674.0,200.0,43,1,2409.5,439269.0,7787,hate,AF,B,438443,438443,436715,437727,436715,439125,438243,438243,439125,61
60,test,1,con,1,z,Wed Mar 25 2026 15:16:29 GMT-0500 (Central Daylight Time),444012.09999990463,kind,1000,O,z,z,None,793,593.0,200.0,11,1,2330.5,441681.59999990463,7787,kind,AF,B,440860,440860,439128,440143,439128,441458,440659,440659,441458,62
61,test,1,inc,1,m,Wed Mar 25 2026 15:16:29 GMT-0500 (Central Daylight Time),446129.7000000477,brutal,900,O,m,m,None,683,483.0,200.0,110,1,2114.5,444015.2000000477,7787,napkin,AF,B,443092,443092,441461,442376,441461,443576,442892,442892,443576,63
62,test,1,inc,1,z,Wed Mar 25 2026 15:16:29 GMT-0500 (Central Daylight Time),448311.2000000477,napkin,900,O,z,z,None,742,543.0,199.0,62,1,2177.2000000476837,446134.0,7787,temper,AF,B,445207,445207,443580,444491,443580,445757,445008,445008,445757,64
63,test,1,con,1,m,Wed Mar 25 2026 15:16:29 GMT-0500 (Central Daylight Time),450794.2000000477,bell,1100,O,m,m,None,849,650.0,199.0,84,1,2476.2000000476837,448318.0,7787,bell,AF,B,447590,447590,445764,446874,445764,448240,447391,447391,448240,65
64,test,1,con,1,m,Wed Mar 25 2026 15:16:29 GMT-0500 (Central Daylight Time),453042.7000000477,bell,1000,O,m,m,None,712,512.0,200.0,83,1,2244.9000000953674,450797.7999999523,7787,bell,AF,B,449973,449973,448244,449257,448244,450489,449772,449772,450489,66
65,test,1,inc,1,m,Wed Mar 25 2026 15:16:29 GMT-0500 (Central Daylight Time),455242.0,love,1000,O,m,m,None,656,457.0,199.0,71,1,2196.2999999523163,453045.7000000477,7787,step,AF,B,452222,452222,450492,451505,450492,452688,452023,452023,452688,67
66,test,1,con,1,m,Wed Mar 25 2026 15:16:29 GMT-0500 (Central Daylight Time),457408.5,window,900,O,m,m,None,717,517.0,200.0,122,1,2162.7000000476837,455245.7999999523,7787,window,AF,B,454322,454322,452692,453605,452692,454855,454122,454122,454854,68
67,test,1,inc,1,z,Wed Mar 25 2026 15:16:29 GMT-0500 (Central Daylight Time),459723.5,bell,1000,O,z,z,None,771,571.0,200.0,15,1,2309.0999999046326,457414.40000009537,7787,kind,AF,B,456587,456587,454860,455872,454861,457170,456387,456387,457170,69
68,test,1,inc,1,m,Wed Mar 25 2026 15:16:29 GMT-0500 (Central Daylight Time),462022.90000009537,temper,1000,O,m,m,None,767,567.0,200.0,103,1,2295.4000000953674,459727.5,7787,jacket,AF,B,458887,458887,457174,458186,457174,459469,458687,458687,459469,70
69,test,1,inc,1,m,Wed Mar 25 2026 15:16:29 GMT-0500 (Central Daylight Time),464706.40000009537,temper,1000,O,m,m,None,1140,939.0,201.0,127,1,2679.7000000476837,462026.7000000477,7787,window,AF,B,461203,461204,459473,460487,459473,462152,461002,461002,462152,71
70,test,1,con,1,m,Wed Mar 25 2026 15:16:29 GMT-0500 (Central Daylight Time),466654.59999990463,rock,800,O,m,m,None,608,409.0,199.0,73,1,1944.2999999523163,464710.2999999523,7787,rock,AF,B,463685,463685,462156,462969,462157,464101,463485,463485,464101,72
71,test,1,inc,1,m,Wed Mar 25 2026 15:16:29 GMT-0500 (Central Daylight Time),468721.7000000477,kind,900,O,m,m,None,632,432.0,200.0,78,1,2063.7000000476837,466658.0,7787,rock,AF,B,465734,465734,464104,465017,464104,466168,465534,465534,466168,73
72,test,1,con,1,z,Wed Mar 25 2026 15:16:29 GMT-0500 (Central Daylight Time),470886.7999999523,elated,900,O,z,z,None,725,526.0,199.0,2,1,2158.5999999046326,468728.2000000477,7787,elated,AF,B,467800,467800,466174,467085,466175,468333,467601,467601,468333,74
73,test,1,con,1,z,Wed Mar 25 2026 15:16:29 GMT-0500 (Central Daylight Time),473169.5,rage,1000,O,z,z,None,747,548.0,199.0,51,1,2278.0,470891.5,7787,rage,AF,B,470066,470066,468338,469350,468338,470616,469866,469866,470615,75
74,test,1,inc,1,z,Wed Mar 25 2026 15:16:29 GMT-0500 (Central Daylight Time),475369.7999999523,jacket,800,O,z,z,None,859,658.0,201.0,5,1,2195.399999856949,473174.40000009537,7787,elated,AF,B,472150,472150,470620,471433,470621,472816,471948,471948,472816,76
75,test,1,con,1,m,Wed Mar 25 2026 15:16:29 GMT-0500 (Central Daylight Time),477633.59999990463,napkin,1100,O,m,m,None,636,423.0,213.0,108,1,2259.2999999523163,475374.2999999523,7787,napkin,AF,B,474648,474648,472820,473931,472820,475080,474435,474435,475080,77
76,test,1,inc,1,z,Wed Mar 25 2026 15:16:29 GMT-0500 (Central Daylight Time),480017.09999990463,film,1100,O,z,z,None,738,525.0,213.0,56,1,2379.7999999523163,477637.2999999523,7787,rage,AF,B,476929,476929,475083,476198,475084,477463,476715,476715,477463,78
77,test,1,con,1,z,Wed Mar 25 2026 15:16:29 GMT-0500 (Central Daylight Time),482385.7000000477,love,1100,O,z,z,None,728,527.0,201.0,20,1,2364.0,480021.7000000477,7787,love,AF,B,479296,479296,477468,478580,477468,479832,479095,479095,479832,79
78,test,1,inc,1,m,Wed Mar 25 2026 15:16:29 GMT-0500 (Central Daylight Time),484499.09999990463,elated,800,O,m,m,None,779,580.0,199.0,109,1,2109.7999999523163,482389.2999999523,7787,napkin,AF,B,481363,481363,479835,480646,479836,481945,481164,481164,481945,80
79,test,1,inc,1,m,Wed Mar 25 2026 15:16:29 GMT-0500 (Central Daylight Time),486698.7000000477,love,1000,O,m,m,None,670,455.0,215.0,79,1,2194.0,484504.7000000477,7787,rock,AF,B,483679,483679,481951,482962,481951,484145,483463,483463,484145,81
80,test,1,con,1,m,Wed Mar 25 2026 15:16:29 GMT-0500 (Central Daylight Time),488864.5,film,900,O,m,m,None,731,532.0,199.0,90,1,2162.5999999046326,486701.90000009537,7787,film,AF,B,485778,485778,484148,485062,484148,486311,485579,485579,486310,82
81,test,1,con,1,z,Wed Mar 25 2026 15:16:29 GMT-0500 (Central Daylight Time),491697.09999990463,brutal,900,O,z,z,None,1391,1192.0,199.0,34,1,2825.0,488872.09999990463,7787,brutal,AF,B,487943,487943,486318,487228,486319,489143,487744,487744,489143,83
82,test,1,inc,1,z,Wed Mar 25 2026 15:16:29 GMT-0500 (Central Daylight Time),493896.0,jacket,800,O,z,z,None,858,659.0,199.0,29,1,2195.2999999523163,491700.7000000477,7787,friend,AF,B,490675,490675,489147,489961,489147,491342,490476,490476,491342,84
83,test,1,inc,1,z,Wed Mar 25 2026 15:16:29 GMT-0500 (Central Daylight Time),496245.5,film,1100,O,z,z,None,700,486.0,214.0,24,1,2344.2999999523163,493901.2000000477,7787,love,AF,B,493192,493192,491347,492460,491348,493692,492977,492977,493692,85
84,test,1,con,1,z,Wed Mar 25 2026 15:16:29 GMT-0500 (Central Daylight Time),498860.7000000477,rage,1100,O,z,z,None,977,777.0,200.0,52,1,2610.2000000476837,496250.5,7787,rage,AF,B,495525,495525,493696,494810,493697,496307,495325,495325,496307,86
85,test,1,con,1,m,Wed Mar 25 2026 15:16:29 GMT-0500 (Central Daylight Time),501210.0,remote,800,O,m,m,None,1006,806.0,200.0,113,1,2343.5,498866.5,7787,remote,AF,B,497840,497840,496312,497124,496313,498656,497640,497640,498656,87
86,test,1,inc,1,z,Wed Mar 25 2026 15:16:29 GMT-0500 (Central Daylight Time),503410.5,step,800,O,z,z,None,864,663.0,201.0,53,1,2195.0,501215.5,7787,rage,AF,B,500191,500191,498662,499473,498662,500857,499990,499990,500857,88
87,test,1,inc,1,m,Wed Mar 25 2026 15:16:29 GMT-0500 (Central Daylight Time),505592.2000000477,love,1000,O,m,m,None,655,454.0,201.0,87,1,2176.4000000953674,503415.7999999523,7787,bell,AF,B,502576,502576,500862,501872,500862,503038,502374,502374,503038,89
88,test,1,con,1,z,Wed Mar 25 2026 15:16:29 GMT-0500 (Central Daylight Time),507608.40000009537,hate,800,O,z,z,None,682,482.0,200.0,41,1,2009.9000000953674,505598.5,7787,hate,AF,B,504572,504572,503045,503856,503045,505054,504371,504371,505054,90
89,test,1,inc,1,m,Wed Mar 25 2026 15:16:29 GMT-0500 (Central Daylight Time),509790.59999990463,love,1000,O,m,m,None,633,434.0,199.0,95,1,2177.5999999046326,507613.0,7787,film,AF,B,506788,506788,505059,506073,505059,507237,506588,506588,507237,91
90,test,1,con,1,m,Wed Mar 25 2026 15:16:29 GMT-0500 (Central Daylight Time),512158.0,remote,900,O,m,m,None,933,719.0,214.0,114,1,2362.0,509796.0,7787,remote,AF,B,508870,508870,507242,508153,507242,509604,508656,508656,509604,92
91,test,1,inc,1,z,Wed Mar 25 2026 15:16:29 GMT-0500 (Central Daylight Time),514473.0,window,1100,O,z,z,None,673,458.0,215.0,8,1,2311.0,512162.0,7787,elated,AF,B,511453,511453,509608,510720,509608,511919,511236,511237,511919,93
92,test,1,inc,1,z,Wed Mar 25 2026 15:16:29 GMT-0500 (Central Daylight Time),516655.5,napkin,900,O,z,z,None,742,540.0,202.0,38,1,2177.2999999523163,514478.2000000477,7787,brutal,AF,B,513554,513554,511924,512835,511925,514102,513352,513352,514101,94
93,test,1,inc,1,m,Wed Mar 25 2026 15:16:29 GMT-0500 (Central Daylight Time),518724.7999999523,elated,800,O,m,m,None,733,533.0,200.0,125,1,2066.2000000476837,516658.59999990463,7787,window,AF,B,515635,515635,514105,514920,514105,516171,515435,515435,516171,95
94,test,1,con,1,m,Wed Mar 25 2026 15:16:29 GMT-0500 (Central Daylight Time),521138.09999990463,jacket,1000,O,m,m,None,888,689.0,199.0,99,1,2409.699999809265,518728.40000009537,7787,jacket,AF,B,517885,517885,516174,517184,516175,518584,517685,517685,518584,96
95,test,1,inc,1,m,Wed Mar 25 2026 15:16:29 GMT-0500 (Central Daylight Time),523369.7000000477,temper,1000,O,m,m,None,711,512.0,199.0,111,1,2224.100000143051,521145.59999990463,7787,napkin,AF,B,520302,520303,518592,519601,518592,520816,520103,520103,520816,97
96,test,1,inc,1,z,Wed Mar 25 2026 15:16:29 GMT-0500 (Central Daylight Time),525621.5999999046,film,1100,O,z,z,None,605,406.0,199.0,48,1,2246.5,523375.09999990463,7787,hate,AF,B,522649,522649,520821,521932,520821,523068,522449,522449,523068,98
97,test,1,con,1,z,Wed Mar 25 2026 15:16:29 GMT-0500 (Central Daylight Time),527950.2999999523,rage,900,O,z,z,None,888,689.0,199.0,50,1,2323.5999999046326,525626.7000000477,7787,rage,AF,B,524700,524700,523073,523983,523073,525396,524500,524500,525396,99
98,test,1,inc,1,m,Wed Mar 25 2026 15:16:29 GMT-0500 (Central Daylight Time),530435.5999999046,hate,1100,O,m,m,None,839,637.0,202.0,80,1,2482.0,527953.5999999046,7787,rock,AF,B,527234,527234,525400,526515,525400,527882,527032,527032,527882,100
99,test,1,inc,1,m,Wed Mar 25 2026 15:16:29 GMT-0500 (Central Daylight Time),532584.0999999046,rage,800,O,m,m,None,825,624.0,201.0,77,1,2144.5,530439.5999999046,7787,rock,AF,B,529398,529398,527886,528696,527886,530030,529197,529197,530030,101
100,test,1,con,1,z,Wed Mar 25 2026 15:16:29 GMT-0500 (Central Daylight Time),534700.9000000954,elated,800,O,z,z,None,778,578.0,200.0,1,1,2112.300000190735,532588.5999999046,7787,elated,AF,B,531564,531564,530035,530847,530035,532147,531363,531363,532147,102
101,test,1,con,1,z,Wed Mar 25 2026 15:16:29 GMT-0500 (Central Daylight Time),537081.5999999046,temper,1000,O,z,z,None,838,637.0,201.0,59,1,2375.0,534706.5999999046,7787,temper,AF,B,533881,533881,532153,533164,532153,534528,533680,533680,534528,103
102,test,1,inc,1,z,Wed Mar 25 2026 15:16:29 GMT-0500 (Central Daylight Time),539132.2999999523,step,800,O,z,z,None,703,504.0,199.0,45,1,2045.3999998569489,537086.9000000954,7787,hate,AF,B,536063,536063,534533,535345,534533,536578,535863,535863,536578,104
103,test,1,con,1,m,Wed Mar 25 2026 15:16:29 GMT-0500 (Central Daylight Time),541547.4000000954,jacket,900,O,m,m,None,970,770.0,200.0,98,1,2412.100000143051,539135.2999999523,7787,jacket,AF,B,538212,538212,536581,537496,536582,538993,538011,538011,538993,105
104,test,1,inc,1,z,Wed Mar 25 2026 15:16:29 GMT-0500 (Central Daylight Time),543812.2000000477,remote,1000,O,z,z,None,726,510.0,216.0,7,1,2258.600000143051,541553.5999999046,7787,elated,AF,B,540744,540744,539000,540011,539000,541258,540528,540528,541258,106
105,test,1,con,1,z,Wed Mar 25 2026 15:16:29 GMT-0500 (Central Daylight Time),546862.7000000477,temper,1100,O,z,z,None,1408,1208.0,200.0,60,1,3046.600000143051,543816.0999999046,7787,temper,AF,B,543094,543094,541262,542377,541262,544309,542893,542893,544309,107
106,test,1,con,1,z,Wed Mar 25 2026 15:16:29 GMT-0500 (Central Daylight Time),549178.9000000954,brutal,1000,O,z,z,None,772,571.0,201.0,35,1,2312.800000190735,546866.0999999046,7787,brutal,AF,B,546043,546043,544312,545325,544312,546625,545842,545842,546625,108
107,test,1,inc,1,m,Wed Mar 25 2026 15:16:29 GMT-0500 (Central Daylight Time),551295.4000000954,kind,900,O,m,m,None,681,465.0,216.0,86,1,2110.300000190735,549185.0999999046,7787,bell,AF,B,548275,548276,546631,547544,546631,548741,548059,548059,548741,109
108,test,1,inc,1,m,Wed Mar 25 2026 15:16:29 GMT-0500 (Central Daylight Time),553246.7999999523,elated,800,O,m,m,None,612,412.0,200.0,101,1,1947.8999998569489,551298.9000000954,7787,jacket,AF,B,550274,550274,548745,549558,548745,550693,550074,550074,550693,110
109,test,1,inc,1,m,Wed Mar 25 2026 15:16:29 GMT-0500 (Central Daylight Time),555211.0999999046,rage,800,O,m,m,None,623,408.0,215.0,93,1,1959.0999999046326,553252.0,7787,film,AF,B,552239,552239,550698,551510,550698,552657,552024,552024,552657,111
110,test,1,con,1,m,Wed Mar 25 2026 15:16:29 GMT-0500 (Central Daylight Time),557161.5999999046,bell,800,O,m,m,None,616,417.0,199.0,81,1,1946.2999999523163,555215.2999999523,7787,bell,AF,B,554190,554190,552661,553472,552662,554608,553991,553991,554608,112
111,test,1,con,1,m,Wed Mar 25 2026 15:16:29 GMT-0500 (Central Daylight Time),559540.2999999523,remote,1100,O,m,m,None,736,536.0,200.0,116,1,2374.0999999046326,557166.2000000477,7787,remote,AF,B,556437,556437,554612,555722,554612,556986,556237,556237,556986,113
112,test,1,inc,1,z,Wed Mar 25 2026 15:16:29 GMT-0500 (Central Daylight Time),561690.5999999046,napkin,900,O,z,z,None,706,505.0,201.0,6,1,2147.5999999046326,559543.0,7787,elated,AF,B,558621,558621,556989,557904,556989,559137,558420,558420,559137,114
113,test,1,con,1,z,Wed Mar 25 2026 15:16:29 GMT-0500 (Central Daylight Time),563972.9000000954,kind,900,O,z,z,None,834,635.0,199.0,10,1,2277.9000000953674,561695.0,7787,kind,AF,B,560770,560770,559141,560054,559141,561419,560571,560571,561419,115
114,test,1,inc,1,m,Wed Mar 25 2026 15:16:29 GMT-0500 (Central Daylight Time),566389.4000000954,friend,1100,O,m,m,None,775,560.0,215.0,104,1,2412.5,563976.9000000954,7787,jacket,AF,B,563269,563269,561423,562537,561423,563835,563054,563054,563835,116
115,test,1,inc,1,m,Wed Mar 25 2026 15:16:29 GMT-0500 (Central Daylight Time),568572.5,brutal,900,O,m,m,None,743,543.0,200.0,118,1,2180.2999999523163,566392.2000000477,7787,remote,AF,B,565471,565471,563838,564754,563838,566019,565271,565271,566018,117
116,test,1,inc,1,z,Wed Mar 25 2026 15:16:29 GMT-0500 (Central Daylight Time),570854.5,remote,1000,O,z,z,None,758,559.0,199.0,39,1,2278.0999999046326,568576.4000000954,7787,brutal,AF,B,567735,567736,566022,567035,566023,568301,567536,567536,568300,118
117,test,1,con,1,m,Wed Mar 25 2026 15:16:29 GMT-0500 (Central Daylight Time),573904.7999999523,napkin,900,O,m,m,None,1607,1407.0,200.0,106,1,3046.5999999046326,570858.2000000477,7787,napkin,AF,B,569936,569936,568304,569219,568305,571351,569735,569735,571351,119
118,test,1,con,1,m,Wed Mar 25 2026 15:16:29 GMT-0500 (Central Daylight Time),576187.2000000477,napkin,1000,O,m,m,None,747,546.0,201.0,107,1,2278.4000000953674,573908.7999999523,7787,napkin,AF,B,573084,573084,571355,572367,571355,573633,572883,572883,573633,120
119,test,1,con,1,z,Wed Mar 25 2026 15:16:29 GMT-0500 (Central Daylight Time),578187.2000000477,temper,800,O,z,z,None,667,467.0,200.0,57,1,1997.1000001430511,576190.0999999046,7787,temper,AF,B,575150,575150,573636,574449,573636,575633,574950,574950,575633,121
120,test,1,inc,1,m,Wed Mar 25 2026 15:16:29 GMT-0500 (Central Daylight Time),581002.7999999523,friend,1100,O,m,m,None,1182,982.0,200.0,120,1,2811.399999856949,578191.4000000954,7787,remote,AF,B,577466,577466,575637,576751,575638,578449,577265,577265,578449,122
121,test,1,inc,1,z,Wed Mar 25 2026 15:16:29 GMT-0500 (Central Daylight Time),583218.0999999046,rock,900,O,z,z,None,782,582.0,200.0,46,1,2210.399999856949,581007.7000000477,7787,hate,AF,B,580082,580082,578454,579365,578454,580664,579882,579882,580664,123
122,test,1,con,1,z,Wed Mar 25 2026 15:16:29 GMT-0500 (Central Daylight Time),585784.7000000477,brutal,800,O,z,z,None,1231,1032.0,199.0,33,1,2563.4000000953674,583221.2999999523,7787,brutal,AF,B,582199,582199,580667,581481,580667,583231,581999,581999,583231,124
123,test,1,con,1,z,Wed Mar 25 2026 15:16:29 GMT-0500 (Central Daylight Time),588099.2999999523,kind,1100,O,z,z,None,689,488.0,201.0,12,1,2310.7000000476837,585788.5999999046,7787,kind,AF,B,585047,585047,583235,584345,583235,585545,584846,584846,585545,125
124,test,1,con,1,z,Wed Mar 25 2026 15:16:29 GMT-0500 (Central Daylight Time),590333.2000000477,brutal,1100,O,z,z,None,588,388.0,200.0,36,1,2229.100000143051,588104.0999999046,7787,brutal,AF,B,587379,587379,585550,586663,585550,587779,587179,587179,587779,126
125,test,1,inc,1,z,Wed Mar 25 2026 15:16:29 GMT-0500 (Central Daylight Time),592331.5,jacket,800,O,z,z,None,661,462.0,199.0,61,1,1993.5999999046326,590337.9000000954,7787,temper,AF,B,589312,589312,587784,588596,587784,589778,589113,589113,589778,127
126,test,1,con,1,m,Wed Mar 25 2026 15:16:29 GMT-0500 (Central Daylight Time),594482.0,step,900,O,m,m,None,708,508.0,200.0,66,1,2144.9000000953674,592337.0999999046,7787,step,AF,B,591411,591411,589783,590695,589783,591928,591211,591211,591928,128
