acc_sum,block,block_c,change,condition,correct,correct_response,datetime,endtime,face,project,response,response_time,row_sel,session_number,start_end,starttime,subject_id,task,task_vers,trial
0,prac,1,,1-Back,,,Mon Jun 23 2025 16:57:47 GMT-0500 (Central Daylight Time),,097_m_f_n_a.png,O,space,14566,1,1,,,7147,NNB,B,0
1,prac,1,0.0,1-Back,1,m,Mon Jun 23 2025 16:57:47 GMT-0500 (Central Daylight Time),148907.30000001192,152_y_f_n_a.png,O,m,1102,2,1,1955.699999988079,146951.60000002384,7147,NNB,B,1
1,prac,1,1.0,1-Back,0,z,Mon Jun 23 2025 16:57:47 GMT-0500 (Central Daylight Time),151674.80000001192,152_y_f_n_a.png,O,None,2007,3,1,2759.800000011921,148915.0,7147,NNB,B,2
1,prac,1,0.0,1-Back,0,m,Mon Jun 23 2025 16:57:47 GMT-0500 (Central Daylight Time),154541.0,176_o_m_n_a.png,O,None,2011,4,1,2857.599999964237,151683.40000003576,7147,NNB,B,3
2,prac,1,0.0,1-Back,1,m,Mon Jun 23 2025 16:57:47 GMT-0500 (Central Daylight Time),156789.30000001192,126_m_m_n_a.png,O,m,1381,5,1,2240.199999988079,154549.10000002384,7147,NNB,B,4
3,prac,1,1.0,1-Back,1,z,Mon Jun 23 2025 16:57:47 GMT-0500 (Central Daylight Time),158756.40000003576,126_m_m_n_a.png,O,z,1179,6,1,1957.6000000238419,156798.80000001192,7147,NNB,B,5
4,prac,1,0.0,1-Back,1,m,Mon Jun 23 2025 16:57:47 GMT-0500 (Central Daylight Time),160972.19999998808,086_o_f_n_a.png,O,m,1334,7,1,2206.699999988079,158765.5,7147,NNB,B,6
5,prac,1,0.0,1-Back,1,m,Mon Jun 23 2025 16:57:47 GMT-0500 (Central Daylight Time),162904.60000002384,178_m_m_n_a.png,O,m,1057,8,1,1923.4000000357628,160981.19999998808,7147,NNB,B,7
6,prac,1,0.0,1-Back,1,m,Mon Jun 23 2025 16:57:47 GMT-0500 (Central Daylight Time),164721.10000002384,097_m_f_n_a.png,O,m,1040,9,1,1807.4000000357628,162913.69999998808,7147,NNB,B,8
7,prac,1,1.0,1-Back,1,z,Mon Jun 23 2025 16:57:47 GMT-0500 (Central Daylight Time),166253.0,097_m_f_n_a.png,O,z,743,10,1,1523.5999999642372,164729.40000003576,7147,NNB,B,9
8,prac,1,0.0,1-Back,1,m,Mon Jun 23 2025 16:57:47 GMT-0500 (Central Daylight Time),168067.90000003576,176_o_m_n_a.png,O,m,1027,11,1,1805.0,166262.90000003576,7147,NNB,B,10
9,prac,1,0.0,1-Back,1,m,Mon Jun 23 2025 16:57:47 GMT-0500 (Central Daylight Time),169984.90000003576,173_y_f_n_a.png,O,m,1057,12,1,1907.800000011921,168077.10000002384,7147,NNB,B,11
0,test,1,0.0,1-Back,,,Mon Jun 23 2025 16:57:47 GMT-0500 (Central Daylight Time),169984.90000003576,152_y_f_n_a.png,O,space,13478,1,1,1907.800000011921,168077.10000002384,7147,NNB,B,0
0,test,1,0.0,1-Back,0,m,Mon Jun 23 2025 16:57:47 GMT-0500 (Central Daylight Time),192061.80000001192,029_m_f_n_a.png,O,z,921,2,1,1942.699999988079,190119.10000002384,7147,NNB,B,1
1,test,1,0.0,1-Back,1,m,Mon Jun 23 2025 16:57:47 GMT-0500 (Central Daylight Time),194460.69999998808,173_y_f_n_a.png,O,m,1377,3,1,2389.599999964237,192071.10000002384,7147,NNB,B,2
2,test,1,1.0,1-Back,1,z,Mon Jun 23 2025 16:57:47 GMT-0500 (Central Daylight Time),196377.5,173_y_f_n_a.png,O,z,884,4,1,1909.199999988079,194468.30000001192,7147,NNB,B,3
3,test,1,0.0,1-Back,1,m,Mon Jun 23 2025 16:57:47 GMT-0500 (Central Daylight Time),198325.60000002384,029_m_f_n_a.png,O,m,917,5,1,1941.4000000357628,196384.19999998808,7147,NNB,B,4
4,test,1,0.0,1-Back,1,m,Mon Jun 23 2025 16:57:47 GMT-0500 (Central Daylight Time),200075.80000001192,176_o_m_n_a.png,O,m,732,6,1,1742.1000000238419,198333.69999998808,7147,NNB,B,5
5,test,1,1.0,1-Back,1,z,Mon Jun 23 2025 16:57:47 GMT-0500 (Central Daylight Time),201707.5,176_o_m_n_a.png,O,z,614,7,1,1623.8999999761581,200083.60000002384,7147,NNB,B,6
6,test,1,0.0,1-Back,1,m,Mon Jun 23 2025 16:57:47 GMT-0500 (Central Daylight Time),203607.19999998808,126_m_m_n_a.png,O,m,875,8,1,1892.0999999642372,201715.10000002384,7147,NNB,B,7
7,test,1,0.0,1-Back,1,m,Mon Jun 23 2025 16:57:47 GMT-0500 (Central Daylight Time),205423.0,086_o_f_n_a.png,O,m,785,9,1,1809.5999999642372,203613.40000003576,7147,NNB,B,8
8,test,1,0.0,1-Back,1,m,Mon Jun 23 2025 16:57:47 GMT-0500 (Central Daylight Time),207488.5,126_m_m_n_a.png,O,m,1041,10,1,2058.699999988079,205429.80000001192,7147,NNB,B,9
9,test,1,0.0,1-Back,1,m,Mon Jun 23 2025 16:57:47 GMT-0500 (Central Daylight Time),209286.30000001192,153_y_m_n_a.png,O,m,775,11,1,1792.199999988079,207494.10000002384,7147,NNB,B,10
10,test,1,1.0,1-Back,1,z,Mon Jun 23 2025 16:57:47 GMT-0500 (Central Daylight Time),210988.19999998808,153_y_m_n_a.png,O,z,680,12,1,1698.199999988079,209290.0,7147,NNB,B,11
11,test,1,0.0,1-Back,1,m,Mon Jun 23 2025 16:57:47 GMT-0500 (Central Daylight Time),212803.80000001192,110_o_f_n_a.png,O,m,797,13,1,1809.199999988079,210994.60000002384,7147,NNB,B,12
12,test,1,1.0,1-Back,1,z,Mon Jun 23 2025 16:57:47 GMT-0500 (Central Daylight Time),214520.90000003576,110_o_f_n_a.png,O,z,692,14,1,1709.800000011921,212811.10000002384,7147,NNB,B,13
13,test,1,0.0,1-Back,1,m,Mon Jun 23 2025 16:57:47 GMT-0500 (Central Daylight Time),216187.69999998808,013_y_m_n_a.png,O,m,640,15,1,1661.2999999523163,214526.40000003576,7147,NNB,B,14
14,test,1,0.0,1-Back,1,m,Mon Jun 23 2025 16:57:47 GMT-0500 (Central Daylight Time),218152.90000003576,097_m_f_n_a.png,O,m,934,16,1,1957.5,216195.40000003576,7147,NNB,B,15
15,test,1,0.0,1-Back,1,m,Mon Jun 23 2025 16:57:47 GMT-0500 (Central Daylight Time),220019.90000003576,065_o_m_n_a.png,O,m,833,17,1,1860.300000011921,218159.60000002384,7147,NNB,B,16
16,test,1,0.0,1-Back,1,m,Mon Jun 23 2025 16:57:47 GMT-0500 (Central Daylight Time),222252.90000003576,097_m_f_n_a.png,O,m,1217,18,1,2226.2000000476837,220026.69999998808,7147,NNB,B,17
0,test,2,0.0,1-Back,,,Mon Jun 23 2025 16:57:47 GMT-0500 (Central Daylight Time),222252.90000003576,126_m_m_n_a.png,O,space,2140,1,1,2226.2000000476837,220026.69999998808,7147,NNB,B,0
1,test,2,0.0,1-Back,1,m,Mon Jun 23 2025 16:57:47 GMT-0500 (Central Daylight Time),228233.5,029_m_f_n_a.png,O,m,783,2,1,1810.199999988079,226423.30000001192,7147,NNB,B,1
2,test,2,1.0,1-Back,1,z,Mon Jun 23 2025 16:57:47 GMT-0500 (Central Daylight Time),230048.40000003576,029_m_f_n_a.png,O,z,793,3,1,1807.7000000476837,228240.69999998808,7147,NNB,B,2
3,test,2,0.0,1-Back,1,m,Mon Jun 23 2025 16:57:47 GMT-0500 (Central Daylight Time),231997.40000003576,126_m_m_n_a.png,O,m,920,4,1,1941.4000000357628,230056.0,7147,NNB,B,3
4,test,2,0.0,1-Back,1,m,Mon Jun 23 2025 16:57:47 GMT-0500 (Central Daylight Time),233947.90000003576,153_y_m_n_a.png,O,m,923,5,1,1942.7000000476837,232005.19999998808,7147,NNB,B,4
5,test,2,0.0,1-Back,1,m,Mon Jun 23 2025 16:57:47 GMT-0500 (Central Daylight Time),235963.60000002384,152_y_f_n_a.png,O,m,992,6,1,2008.4000000357628,233955.19999998808,7147,NNB,B,5
6,test,2,1.0,1-Back,1,z,Mon Jun 23 2025 16:57:47 GMT-0500 (Central Daylight Time),237862.69999998808,152_y_f_n_a.png,O,z,878,7,1,1890.5999999642372,235972.10000002384,7147,NNB,B,6
7,test,2,0.0,1-Back,1,m,Mon Jun 23 2025 16:57:47 GMT-0500 (Central Daylight Time),239579.90000003576,153_y_m_n_a.png,O,m,697,8,1,1709.4000000357628,237870.5,7147,NNB,B,7
8,test,2,0.0,1-Back,1,m,Mon Jun 23 2025 16:57:47 GMT-0500 (Central Daylight Time),241412.90000003576,110_o_f_n_a.png,O,m,805,9,1,1828.5,239584.40000003576,7147,NNB,B,8
9,test,2,0.0,1-Back,1,m,Mon Jun 23 2025 16:57:47 GMT-0500 (Central Daylight Time),243144.30000001192,178_m_m_n_a.png,O,m,701,10,1,1725.699999988079,241418.60000002384,7147,NNB,B,9
10,test,2,1.0,1-Back,1,z,Mon Jun 23 2025 16:57:47 GMT-0500 (Central Daylight Time),244995.5,178_m_m_n_a.png,O,z,831,11,1,1845.0999999642372,243150.40000003576,7147,NNB,B,10
11,test,2,0.0,1-Back,1,m,Mon Jun 23 2025 16:57:47 GMT-0500 (Central Daylight Time),246731.30000001192,110_o_f_n_a.png,O,m,719,12,1,1730.5,245000.80000001192,7147,NNB,B,11
12,test,2,0.0,1-Back,1,m,Mon Jun 23 2025 16:57:47 GMT-0500 (Central Daylight Time),248542.80000001192,086_o_f_n_a.png,O,m,788,13,1,1807.3999999761581,246735.40000003576,7147,NNB,B,12
13,test,2,0.0,1-Back,1,m,Mon Jun 23 2025 16:57:47 GMT-0500 (Central Daylight Time),250258.90000003576,176_o_m_n_a.png,O,m,689,14,1,1709.6000000238419,248549.30000001192,7147,NNB,B,13
14,test,2,0.0,1-Back,1,m,Mon Jun 23 2025 16:57:47 GMT-0500 (Central Daylight Time),251991.60000002384,065_o_m_n_a.png,O,m,702,15,1,1724.300000011921,250267.30000001192,7147,NNB,B,14
15,test,2,1.0,1-Back,1,z,Mon Jun 23 2025 16:57:47 GMT-0500 (Central Daylight Time),253757.80000001192,065_o_m_n_a.png,O,z,743,16,1,1759.8999999761581,251997.90000003576,7147,NNB,B,15
16,test,2,0.0,1-Back,1,m,Mon Jun 23 2025 16:57:47 GMT-0500 (Central Daylight Time),255540.40000003576,013_y_m_n_a.png,O,m,755,17,1,1776.2000000476837,253764.19999998808,7147,NNB,B,16
17,test,2,1.0,1-Back,1,z,Mon Jun 23 2025 16:57:47 GMT-0500 (Central Daylight Time),257242.5,013_y_m_n_a.png,O,z,685,18,1,1694.3999999761581,255548.10000002384,7147,NNB,B,17
0,test,3,1.0,1-Back,,,Mon Jun 23 2025 16:57:47 GMT-0500 (Central Daylight Time),257242.5,173_y_f_n_a.png,O,space,1631,1,1,1694.3999999761581,255548.10000002384,7147,NNB,B,0
1,test,3,0.0,1-Back,1,m,Mon Jun 23 2025 16:57:47 GMT-0500 (Central Daylight Time),262805.40000003576,065_o_m_n_a.png,O,m,789,1,1,1809.5,260995.90000003576,7147,NNB,B,1
2,test,3,1.0,1-Back,1,z,Mon Jun 23 2025 16:57:47 GMT-0500 (Central Daylight Time),264604.6999999881,065_o_m_n_a.png,O,z,780,1,1,1791.5,262813.1999999881,7147,NNB,B,2
3,test,3,0.0,1-Back,1,m,Mon Jun 23 2025 16:57:47 GMT-0500 (Central Daylight Time),266355.1999999881,097_m_f_n_a.png,O,m,731,1,1,1744.0,264611.1999999881,7147,NNB,B,3
4,test,3,1.0,1-Back,1,z,Mon Jun 23 2025 16:57:47 GMT-0500 (Central Daylight Time),268102.6999999881,097_m_f_n_a.png,O,z,728,1,1,1742.5999999642372,266360.10000002384,7147,NNB,B,4
5,test,3,0.0,1-Back,1,m,Mon Jun 23 2025 16:57:47 GMT-0500 (Central Daylight Time),269736.3000000119,110_o_f_n_a.png,O,m,601,1,1,1626.699999988079,268109.60000002384,7147,NNB,B,5
6,test,3,0.0,1-Back,1,m,Mon Jun 23 2025 16:57:47 GMT-0500 (Central Daylight Time),271585.8000000119,153_y_m_n_a.png,O,m,825,1,1,1841.5,269744.3000000119,7147,NNB,B,6
7,test,3,0.0,1-Back,1,m,Mon Jun 23 2025 16:57:47 GMT-0500 (Central Daylight Time),273501.60000002384,110_o_f_n_a.png,O,m,896,1,1,1908.4000000357628,271593.1999999881,7147,NNB,B,7
8,test,3,0.0,1-Back,1,m,Mon Jun 23 2025 16:57:47 GMT-0500 (Central Daylight Time),275152.40000003576,013_y_m_n_a.png,O,m,627,1,1,1642.300000011921,273510.10000002384,7147,NNB,B,8
8,test,3,1.0,1-Back,0,z,Mon Jun 23 2025 16:57:47 GMT-0500 (Central Daylight Time),277599.90000003576,013_y_m_n_a.png,O,m,1416,1,1,2441.400000035763,275158.5,7147,NNB,B,9
9,test,3,0.0,1-Back,1,m,Mon Jun 23 2025 16:57:47 GMT-0500 (Central Daylight Time),279350.10000002384,029_m_f_n_a.png,O,m,730,1,1,1742.699999988079,277607.40000003576,7147,NNB,B,10
10,test,3,0.0,1-Back,1,m,Mon Jun 23 2025 16:57:47 GMT-0500 (Central Daylight Time),281099.40000003576,152_y_f_n_a.png,O,m,723,1,1,1742.9000000357628,279356.5,7147,NNB,B,11
11,test,3,1.0,1-Back,1,z,Mon Jun 23 2025 16:57:47 GMT-0500 (Central Daylight Time),282814.8000000119,152_y_f_n_a.png,O,z,685,1,1,1708.800000011921,281106.0,7147,NNB,B,12
12,test,3,0.0,1-Back,1,m,Mon Jun 23 2025 16:57:47 GMT-0500 (Central Daylight Time),284614.8000000119,029_m_f_n_a.png,O,m,769,1,1,1793.5,282821.3000000119,7147,NNB,B,13
13,test,3,0.0,1-Back,1,m,Mon Jun 23 2025 16:57:47 GMT-0500 (Central Daylight Time),286364.0,126_m_m_n_a.png,O,m,721,1,1,1742.199999988079,284621.8000000119,7147,NNB,B,14
14,test,3,1.0,1-Back,1,z,Mon Jun 23 2025 16:57:47 GMT-0500 (Central Daylight Time),288014.40000003576,126_m_m_n_a.png,O,z,620,1,1,1644.2000000476837,286370.1999999881,7147,NNB,B,15
15,test,3,0.0,1-Back,1,m,Mon Jun 23 2025 16:57:47 GMT-0500 (Central Daylight Time),289795.8000000119,086_o_f_n_a.png,O,m,764,1,1,1774.8999999761581,288020.90000003576,7147,NNB,B,16
16,test,3,1.0,1-Back,1,z,Mon Jun 23 2025 16:57:47 GMT-0500 (Central Daylight Time),291362.5,086_o_f_n_a.png,O,z,540,1,1,1562.5,289800.0,7147,NNB,B,17
0,test,4,1.0,1-Back,,,Mon Jun 23 2025 16:57:47 GMT-0500 (Central Daylight Time),291362.5,097_m_f_n_a.png,O,space,1511,1,1,1562.5,289800.0,7147,NNB,B,0
1,test,4,0.0,1-Back,1,m,Mon Jun 23 2025 16:57:47 GMT-0500 (Central Daylight Time),296561.1999999881,065_o_m_n_a.png,O,m,558,2,1,1574.3999999761581,294986.8000000119,7147,NNB,B,1
2,test,4,0.0,1-Back,1,m,Mon Jun 23 2025 16:57:47 GMT-0500 (Central Daylight Time),298476.0,097_m_f_n_a.png,O,m,887,3,1,1908.800000011921,296567.1999999881,7147,NNB,B,2
3,test,4,0.0,1-Back,1,m,Mon Jun 23 2025 16:57:47 GMT-0500 (Central Daylight Time),300395.6999999881,110_o_f_n_a.png,O,m,901,4,1,1912.199999988079,298483.5,7147,NNB,B,3
3,test,4,1.0,1-Back,0,z,Mon Jun 23 2025 16:57:47 GMT-0500 (Central Daylight Time),302775.5,110_o_f_n_a.png,O,m,1353,5,1,2373.5,300402.0,7147,NNB,B,4
4,test,4,0.0,1-Back,1,m,Mon Jun 23 2025 16:57:47 GMT-0500 (Central Daylight Time),304508.10000002384,152_y_f_n_a.png,O,m,705,6,1,1726.0,302782.10000002384,7147,NNB,B,5
5,test,4,0.0,1-Back,1,m,Mon Jun 23 2025 16:57:47 GMT-0500 (Central Daylight Time),306307.5,153_y_m_n_a.png,O,m,781,7,1,1792.3999999761581,304515.10000002384,7147,NNB,B,6
6,test,4,1.0,1-Back,1,z,Mon Jun 23 2025 16:57:47 GMT-0500 (Central Daylight Time),308040.1999999881,153_y_m_n_a.png,O,z,709,8,1,1728.5999999642372,306311.60000002384,7147,NNB,B,7
7,test,4,0.0,1-Back,1,m,Mon Jun 23 2025 16:57:47 GMT-0500 (Central Daylight Time),309957.0,152_y_f_n_a.png,O,m,898,9,1,1909.5,308047.5,7147,NNB,B,8
8,test,4,0.0,1-Back,1,m,Mon Jun 23 2025 16:57:47 GMT-0500 (Central Daylight Time),311689.5,178_m_m_n_a.png,O,m,709,10,1,1723.800000011921,309965.6999999881,7147,NNB,B,9
9,test,4,1.0,1-Back,1,z,Mon Jun 23 2025 16:57:47 GMT-0500 (Central Daylight Time),313572.5,178_m_m_n_a.png,O,z,854,11,1,1875.0,311697.5,7147,NNB,B,10
10,test,4,0.0,1-Back,1,m,Mon Jun 23 2025 16:57:47 GMT-0500 (Central Daylight Time),315454.60000002384,086_o_f_n_a.png,O,m,852,12,1,1875.300000011921,313579.3000000119,7147,NNB,B,11
11,test,4,0.0,1-Back,1,m,Mon Jun 23 2025 16:57:47 GMT-0500 (Central Daylight Time),317054.3000000119,176_o_m_n_a.png,O,m,569,13,1,1592.8999999761581,315461.40000003576,7147,NNB,B,12
12,test,4,0.0,1-Back,1,m,Mon Jun 23 2025 16:57:47 GMT-0500 (Central Daylight Time),318920.0,086_o_f_n_a.png,O,m,834,14,1,1857.5,317062.5,7147,NNB,B,13
13,test,4,0.0,1-Back,1,m,Mon Jun 23 2025 16:57:47 GMT-0500 (Central Daylight Time),320736.6999999881,173_y_f_n_a.png,O,m,792,15,1,1810.0,318926.6999999881,7147,NNB,B,14
14,test,4,1.0,1-Back,1,z,Mon Jun 23 2025 16:57:47 GMT-0500 (Central Daylight Time),322419.60000002384,173_y_f_n_a.png,O,z,664,16,1,1677.0,320742.60000002384,7147,NNB,B,15
15,test,4,0.0,1-Back,1,m,Mon Jun 23 2025 16:57:47 GMT-0500 (Central Daylight Time),324084.6999999881,029_m_f_n_a.png,O,m,644,17,1,1660.199999988079,322424.5,7147,NNB,B,16
16,test,4,1.0,1-Back,1,z,Mon Jun 23 2025 16:57:47 GMT-0500 (Central Daylight Time),325749.6999999881,029_m_f_n_a.png,O,z,634,18,1,1658.2999999523163,324091.40000003576,7147,NNB,B,17
0,test,5,1.0,1-Back,,,Mon Jun 23 2025 16:57:47 GMT-0500 (Central Daylight Time),325749.6999999881,176_o_m_n_a.png,O,space,1460,1,1,1658.2999999523163,324091.40000003576,7147,NNB,B,0
1,test,5,1.0,1-Back,1,z,Mon Jun 23 2025 16:57:47 GMT-0500 (Central Daylight Time),330733.10000002384,176_o_m_n_a.png,O,z,470,2,1,1492.300000011921,329240.8000000119,7147,NNB,B,1
2,test,5,0.0,1-Back,1,m,Mon Jun 23 2025 16:57:47 GMT-0500 (Central Daylight Time),332282.1999999881,152_y_f_n_a.png,O,m,523,3,1,1542.0999999642372,330740.10000002384,7147,NNB,B,2
3,test,5,0.0,1-Back,1,m,Mon Jun 23 2025 16:57:47 GMT-0500 (Central Daylight Time),334065.5,153_y_m_n_a.png,O,m,757,4,1,1780.5,332285.0,7147,NNB,B,3
4,test,5,0.0,1-Back,1,m,Mon Jun 23 2025 16:57:47 GMT-0500 (Central Daylight Time),335931.60000002384,152_y_f_n_a.png,O,m,839,5,1,1858.300000011921,334073.3000000119,7147,NNB,B,4
5,test,5,0.0,1-Back,1,m,Mon Jun 23 2025 16:57:47 GMT-0500 (Central Daylight Time),337964.3000000119,126_m_m_n_a.png,O,m,1006,6,1,2025.699999988079,335938.60000002384,7147,NNB,B,5
6,test,5,1.0,1-Back,1,z,Mon Jun 23 2025 16:57:47 GMT-0500 (Central Daylight Time),339663.1999999881,126_m_m_n_a.png,O,z,677,7,1,1692.699999988079,337970.5,7147,NNB,B,6
7,test,5,0.0,1-Back,1,m,Mon Jun 23 2025 16:57:47 GMT-0500 (Central Daylight Time),341396.0,173_y_f_n_a.png,O,m,714,8,1,1725.8999999761581,339670.10000002384,7147,NNB,B,7
8,test,5,0.0,1-Back,1,m,Mon Jun 23 2025 16:57:47 GMT-0500 (Central Daylight Time),343112.60000002384,013_y_m_n_a.png,O,m,693,9,1,1712.1000000238419,341400.5,7147,NNB,B,8
9,test,5,0.0,1-Back,1,m,Mon Jun 23 2025 16:57:47 GMT-0500 (Central Daylight Time),345077.8000000119,173_y_f_n_a.png,O,m,943,10,1,1958.800000011921,343119.0,7147,NNB,B,9
10,test,5,0.0,1-Back,1,m,Mon Jun 23 2025 16:57:47 GMT-0500 (Central Daylight Time),346944.90000003576,086_o_f_n_a.png,O,m,834,11,1,1859.5,345085.40000003576,7147,NNB,B,10
11,test,5,1.0,1-Back,1,z,Mon Jun 23 2025 16:57:47 GMT-0500 (Central Daylight Time),348579.40000003576,086_o_f_n_a.png,O,z,615,12,1,1628.0,346951.40000003576,7147,NNB,B,11
12,test,5,0.0,1-Back,1,m,Mon Jun 23 2025 16:57:47 GMT-0500 (Central Daylight Time),350512.8000000119,065_o_m_n_a.png,O,m,902,13,1,1928.699999988079,348584.10000002384,7147,NNB,B,12
13,test,5,0.0,1-Back,1,m,Mon Jun 23 2025 16:57:47 GMT-0500 (Central Daylight Time),352092.90000003576,097_m_f_n_a.png,O,m,554,14,1,1577.5,350515.40000003576,7147,NNB,B,13
14,test,5,1.0,1-Back,1,z,Mon Jun 23 2025 16:57:47 GMT-0500 (Central Daylight Time),353792.8000000119,097_m_f_n_a.png,O,z,667,15,1,1692.8999999761581,352099.90000003576,7147,NNB,B,14
15,test,5,0.0,1-Back,1,m,Mon Jun 23 2025 16:57:47 GMT-0500 (Central Daylight Time),355477.40000003576,065_o_m_n_a.png,O,m,666,16,1,1676.800000011921,353800.60000002384,7147,NNB,B,15
16,test,5,0.0,1-Back,1,m,Mon Jun 23 2025 16:57:47 GMT-0500 (Central Daylight Time),357408.6999999881,029_m_f_n_a.png,O,m,901,17,1,1924.2999999523163,355484.40000003576,7147,NNB,B,16
17,test,5,0.0,1-Back,1,m,Mon Jun 23 2025 16:57:47 GMT-0500 (Central Daylight Time),359059.3000000119,178_m_m_n_a.png,O,m,634,18,1,1644.6000000238419,357414.6999999881,7147,NNB,B,17
0,prac,1,0.0,2-Back,,,Mon Jun 23 2025 16:57:47 GMT-0500 (Central Daylight Time),359059.3000000119,013_y_m_n_a.png,O,space,12419,1,1,1644.6000000238419,357414.6999999881,7147,NNB,B,0
0,prac,1,0.0,2-Back,,,Mon Jun 23 2025 16:57:47 GMT-0500 (Central Daylight Time),359059.3000000119,029_m_f_n_a.png,O,space,12419,2,1,1644.6000000238419,357414.6999999881,7147,NNB,B,0
1,prac,1,1.0,2-Back,1,m,Mon Jun 23 2025 16:57:47 GMT-0500 (Central Daylight Time),492033.3000000119,065_o_m_n_a.png,O,m,1771,3,1,2624.300000011921,489409.0,7147,NNB,B,1
2,prac,1,0.0,2-Back,1,m,Mon Jun 23 2025 16:57:47 GMT-0500 (Central Daylight Time),494398.8000000119,086_o_f_n_a.png,O,m,1467,4,1,2357.600000023842,492041.1999999881,7147,NNB,B,2
3,prac,1,0.0,2-Back,1,z,Mon Jun 23 2025 16:57:47 GMT-0500 (Central Daylight Time),496548.8000000119,065_o_m_n_a.png,O,z,1373,5,1,2142.199999988079,494406.60000002384,7147,NNB,B,3
4,prac,1,1.0,2-Back,1,z,Mon Jun 23 2025 16:57:47 GMT-0500 (Central Daylight Time),499229.40000003576,086_o_f_n_a.png,O,z,1899,6,1,2670.600000023842,496558.8000000119,7147,NNB,B,4
5,prac,1,0.0,2-Back,1,m,Mon Jun 23 2025 16:57:47 GMT-0500 (Central Daylight Time),501695.0,178_m_m_n_a.png,O,m,1588,7,1,2458.399999976158,499236.60000002384,7147,NNB,B,5
6,prac,1,0.0,2-Back,1,m,Mon Jun 23 2025 16:57:47 GMT-0500 (Central Daylight Time),503778.1999999881,176_o_m_n_a.png,O,m,1204,8,1,2074.0,501704.1999999881,7147,NNB,B,6
7,prac,1,0.0,2-Back,1,m,Mon Jun 23 2025 16:57:47 GMT-0500 (Central Daylight Time),505812.1999999881,173_y_f_n_a.png,O,m,1183,9,1,2024.699999988079,503787.5,7147,NNB,B,7
8,prac,1,1.0,2-Back,1,z,Mon Jun 23 2025 16:57:47 GMT-0500 (Central Daylight Time),508212.3000000119,176_o_m_n_a.png,O,z,1624,10,1,2391.199999988079,505821.10000002384,7147,NNB,B,8
8,prac,1,0.0,2-Back,0,m,Mon Jun 23 2025 16:57:47 GMT-0500 (Central Daylight Time),511061.8000000119,152_y_f_n_a.png,O,None,2003,11,1,2842.100000023842,508219.6999999881,7147,NNB,B,9
8,prac,1,0.0,2-Back,0,m,Mon Jun 23 2025 16:57:47 GMT-0500 (Central Daylight Time),513425.90000003576,178_m_m_n_a.png,O,z,1589,12,1,2355.600000023842,511070.3000000119,7147,NNB,B,10
0,test,1,0.0,2-Back,,,Mon Jun 23 2025 16:57:47 GMT-0500 (Central Daylight Time),513425.90000003576,153_y_m_n_a.png,O,space,13741,1,1,2355.600000023842,511070.3000000119,7147,NNB,B,0
0,test,1,0.0,2-Back,,,Mon Jun 23 2025 16:57:47 GMT-0500 (Central Daylight Time),513425.90000003576,153_y_m_n_a.png,O,space,13741,2,1,2355.600000023842,511070.3000000119,7147,NNB,B,0
1,test,1,0.0,2-Back,1,m,Mon Jun 23 2025 16:57:47 GMT-0500 (Central Daylight Time),545033.1999999881,086_o_f_n_a.png,O,m,1909,3,1,2929.599999964237,542103.6000000238,7147,NNB,B,1
2,test,1,0.0,2-Back,1,m,Mon Jun 23 2025 16:57:47 GMT-0500 (Central Daylight Time),547681.1999999881,126_m_m_n_a.png,O,m,1616,4,1,2640.599999964237,545040.6000000238,7147,NNB,B,2
3,test,1,1.0,2-Back,1,z,Mon Jun 23 2025 16:57:47 GMT-0500 (Central Daylight Time),550562.9000000358,086_o_f_n_a.png,O,z,1863,5,1,2878.600000023842,547684.3000000119,7147,NNB,B,3
4,test,1,0.0,2-Back,1,m,Mon Jun 23 2025 16:57:47 GMT-0500 (Central Daylight Time),553197.0,152_y_f_n_a.png,O,m,1618,6,1,2629.800000011921,550567.1999999881,7147,NNB,B,4
4,test,1,0.0,2-Back,0,m,Mon Jun 23 2025 16:57:47 GMT-0500 (Central Daylight Time),555411.4000000358,126_m_m_n_a.png,O,z,1190,7,1,2208.300000011921,553203.1000000238,7147,NNB,B,5
5,test,1,1.0,2-Back,1,z,Mon Jun 23 2025 16:57:47 GMT-0500 (Central Daylight Time),558311.5,152_y_f_n_a.png,O,z,1868,8,1,2893.399999976158,555418.1000000238,7147,NNB,B,6
6,test,1,0.0,2-Back,1,m,Mon Jun 23 2025 16:57:47 GMT-0500 (Central Daylight Time),560977.0,013_y_m_n_a.png,O,m,1643,9,1,2656.399999976158,558320.6000000238,7147,NNB,B,7
7,test,1,0.0,2-Back,1,m,Mon Jun 23 2025 16:57:47 GMT-0500 (Central Daylight Time),563244.5,110_o_f_n_a.png,O,m,1253,10,1,2260.199999988079,560984.3000000119,7147,NNB,B,8
8,test,1,1.0,2-Back,1,z,Mon Jun 23 2025 16:57:47 GMT-0500 (Central Daylight Time),565059.8000000119,013_y_m_n_a.png,O,z,796,11,1,1809.3999999761581,563250.4000000358,7147,NNB,B,9
9,test,1,0.0,2-Back,1,m,Mon Jun 23 2025 16:57:47 GMT-0500 (Central Daylight Time),567276.6999999881,029_m_f_n_a.png,O,m,1199,12,1,2212.699999988079,565064.0,7147,NNB,B,10
9,test,1,0.0,2-Back,0,m,Mon Jun 23 2025 16:57:47 GMT-0500 (Central Daylight Time),570307.0,029_m_f_n_a.png,O,None,2015,13,1,3023.5,567283.5,7147,NNB,B,11
10,test,1,0.0,2-Back,1,m,Mon Jun 23 2025 16:57:47 GMT-0500 (Central Daylight Time),572488.6000000238,065_o_m_n_a.png,O,m,1149,14,1,2173.699999988079,570314.9000000358,7147,NNB,B,12
10,test,1,0.0,2-Back,0,m,Mon Jun 23 2025 16:57:47 GMT-0500 (Central Daylight Time),574923.6000000238,110_o_f_n_a.png,O,z,1406,15,1,2431.400000035763,572492.1999999881,7147,NNB,B,13
11,test,1,1.0,2-Back,1,z,Mon Jun 23 2025 16:57:47 GMT-0500 (Central Daylight Time),577055.6999999881,065_o_m_n_a.png,O,z,1112,16,1,2125.5,574930.1999999881,7147,NNB,B,14
12,test,1,0.0,2-Back,1,m,Mon Jun 23 2025 16:57:47 GMT-0500 (Central Daylight Time),579187.9000000358,097_m_f_n_a.png,O,m,1115,17,1,2124.900000035763,577063.0,7147,NNB,B,15
13,test,1,0.0,2-Back,1,m,Mon Jun 23 2025 16:57:47 GMT-0500 (Central Daylight Time),581737.1999999881,178_m_m_n_a.png,O,m,1518,18,1,2541.7999999523163,579195.4000000358,7147,NNB,B,16
0,test,2,0.0,2-Back,,,Mon Jun 23 2025 16:57:47 GMT-0500 (Central Daylight Time),581737.1999999881,178_m_m_n_a.png,O,space,2547,1,1,2541.7999999523163,579195.4000000358,7147,NNB,B,0
0,test,2,0.0,2-Back,,,Mon Jun 23 2025 16:57:47 GMT-0500 (Central Daylight Time),581737.1999999881,173_y_f_n_a.png,O,space,2547,2,1,2541.7999999523163,579195.4000000358,7147,NNB,B,0
1,test,2,1.0,2-Back,1,z,Mon Jun 23 2025 16:57:47 GMT-0500 (Central Daylight Time),591666.4000000358,178_m_m_n_a.png,O,z,1223,3,1,2241.100000023842,589425.3000000119,7147,NNB,B,1
2,test,2,0.0,2-Back,1,m,Mon Jun 23 2025 16:57:47 GMT-0500 (Central Daylight Time),593651.1999999881,097_m_f_n_a.png,O,m,959,4,1,1980.0,591671.1999999881,7147,NNB,B,2
2,test,2,0.0,2-Back,0,m,Mon Jun 23 2025 16:57:47 GMT-0500 (Central Daylight Time),596084.0,173_y_f_n_a.png,O,z,1416,5,1,2426.199999988079,593657.8000000119,7147,NNB,B,3
3,test,2,0.0,2-Back,1,m,Mon Jun 23 2025 16:57:47 GMT-0500 (Central Daylight Time),598232.1000000238,065_o_m_n_a.png,O,m,1128,6,1,2143.800000011921,596088.3000000119,7147,NNB,B,4
4,test,2,0.0,2-Back,1,m,Mon Jun 23 2025 16:57:47 GMT-0500 (Central Daylight Time),600482.6999999881,152_y_f_n_a.png,O,m,1226,7,1,2242.899999976158,598239.8000000119,7147,NNB,B,5
5,test,2,1.0,2-Back,1,z,Mon Jun 23 2025 16:57:47 GMT-0500 (Central Daylight Time),602480.4000000358,065_o_m_n_a.png,O,z,968,8,1,1990.7000000476837,600489.6999999881,7147,NNB,B,6
6,test,2,0.0,2-Back,1,m,Mon Jun 23 2025 16:57:47 GMT-0500 (Central Daylight Time),604730.1000000238,013_y_m_n_a.png,O,m,1224,9,1,2242.199999988079,602487.9000000358,7147,NNB,B,7
6,test,2,0.0,2-Back,0,m,Mon Jun 23 2025 16:57:47 GMT-0500 (Central Daylight Time),607045.1999999881,013_y_m_n_a.png,O,z,1295,10,1,2308.899999976158,604736.3000000119,7147,NNB,B,8
7,test,2,0.0,2-Back,1,m,Mon Jun 23 2025 16:57:47 GMT-0500 (Central Daylight Time),609344.9000000358,029_m_f_n_a.png,O,m,1268,11,1,2291.5,607053.4000000358,7147,NNB,B,9
7,test,2,0.0,2-Back,0,m,Mon Jun 23 2025 16:57:47 GMT-0500 (Central Daylight Time),611726.5,173_y_f_n_a.png,O,z,1352,12,1,2375.199999988079,609351.3000000119,7147,NNB,B,10
8,test,2,1.0,2-Back,1,z,Mon Jun 23 2025 16:57:47 GMT-0500 (Central Daylight Time),613760.0,029_m_f_n_a.png,O,z,1001,13,1,2027.0999999642372,611732.9000000358,7147,NNB,B,11
9,test,2,0.0,2-Back,1,m,Mon Jun 23 2025 16:57:47 GMT-0500 (Central Daylight Time),615843.6000000238,176_o_m_n_a.png,O,m,1066,14,1,2076.5,613767.1000000238,7147,NNB,B,12
9,test,2,0.0,2-Back,0,m,Mon Jun 23 2025 16:57:47 GMT-0500 (Central Daylight Time),618043.3000000119,176_o_m_n_a.png,O,z,1183,15,1,2195.100000023842,615848.1999999881,7147,NNB,B,13
10,test,2,0.0,2-Back,1,m,Mon Jun 23 2025 16:57:47 GMT-0500 (Central Daylight Time),620175.3000000119,110_o_f_n_a.png,O,m,1104,16,1,2127.600000023842,618047.6999999881,7147,NNB,B,14
11,test,2,0.0,2-Back,1,m,Mon Jun 23 2025 16:57:47 GMT-0500 (Central Daylight Time),622456.8000000119,126_m_m_n_a.png,O,m,1260,17,1,2275.199999988079,620181.6000000238,7147,NNB,B,15
12,test,2,1.0,2-Back,1,z,Mon Jun 23 2025 16:57:47 GMT-0500 (Central Daylight Time),624423.1999999881,110_o_f_n_a.png,O,z,936,18,1,1959.0999999642372,622464.1000000238,7147,NNB,B,16
0,test,3,1.0,2-Back,,,Mon Jun 23 2025 16:57:47 GMT-0500 (Central Daylight Time),624423.1999999881,153_y_m_n_a.png,O,space,1627,1,1,1959.0999999642372,622464.1000000238,7147,NNB,B,0
0,test,3,1.0,2-Back,,,Mon Jun 23 2025 16:57:47 GMT-0500 (Central Daylight Time),624423.1999999881,153_y_m_n_a.png,O,space,1627,2,1,1959.0999999642372,622464.1000000238,7147,NNB,B,0
1,test,3,0.0,2-Back,1,m,Mon Jun 23 2025 16:57:47 GMT-0500 (Central Daylight Time),633388.1000000238,110_o_f_n_a.png,O,m,1185,3,1,2192.400000035763,631195.6999999881,7147,NNB,B,1
2,test,3,0.0,2-Back,1,m,Mon Jun 23 2025 16:57:47 GMT-0500 (Central Daylight Time),635719.9000000358,178_m_m_n_a.png,O,m,1310,4,1,2323.800000011921,633396.1000000238,7147,NNB,B,2
3,test,3,1.0,2-Back,1,z,Mon Jun 23 2025 16:57:47 GMT-0500 (Central Daylight Time),638053.8000000119,110_o_f_n_a.png,O,z,1305,5,1,2327.199999988079,635726.6000000238,7147,NNB,B,3
4,test,3,0.0,2-Back,1,m,Mon Jun 23 2025 16:57:47 GMT-0500 (Central Daylight Time),639951.1999999881,013_y_m_n_a.png,O,m,869,6,1,1890.5999999642372,638060.6000000238,7147,NNB,B,4
4,test,3,0.0,2-Back,0,m,Mon Jun 23 2025 16:57:47 GMT-0500 (Central Daylight Time),641802.5,178_m_m_n_a.png,O,z,833,7,1,1844.5999999642372,639957.9000000358,7147,NNB,B,5
5,test,3,1.0,2-Back,1,z,Mon Jun 23 2025 16:57:47 GMT-0500 (Central Daylight Time),643816.8000000119,013_y_m_n_a.png,O,z,993,8,1,2007.300000011921,641809.5,7147,NNB,B,6
6,test,3,0.0,2-Back,1,m,Mon Jun 23 2025 16:57:47 GMT-0500 (Central Daylight Time),646683.6000000238,173_y_f_n_a.png,O,m,1839,9,1,2860.5,643823.1000000238,7147,NNB,B,7
7,test,3,0.0,2-Back,1,m,Mon Jun 23 2025 16:57:47 GMT-0500 (Central Daylight Time),649348.5,126_m_m_n_a.png,O,m,1647,10,1,2657.5,646691.0,7147,NNB,B,8
8,test,3,1.0,2-Back,1,z,Mon Jun 23 2025 16:57:47 GMT-0500 (Central Daylight Time),651317.0,173_y_f_n_a.png,O,z,951,11,1,1962.5,649354.5,7147,NNB,B,9
9,test,3,1.0,2-Back,1,z,Mon Jun 23 2025 16:57:47 GMT-0500 (Central Daylight Time),653297.9000000358,126_m_m_n_a.png,O,z,950,12,1,1973.4000000357628,651324.5,7147,NNB,B,10
10,test,3,0.0,2-Back,1,m,Mon Jun 23 2025 16:57:47 GMT-0500 (Central Daylight Time),655648.9000000358,110_o_f_n_a.png,O,m,1318,13,1,2344.2000000476837,653304.6999999881,7147,NNB,B,11
11,test,3,0.0,2-Back,1,m,Mon Jun 23 2025 16:57:47 GMT-0500 (Central Daylight Time),657763.9000000358,097_m_f_n_a.png,O,m,1092,14,1,2108.400000035763,655655.5,7147,NNB,B,12
12,test,3,0.0,2-Back,1,m,Mon Jun 23 2025 16:57:47 GMT-0500 (Central Daylight Time),659912.5,065_o_m_n_a.png,O,m,1119,15,1,2142.800000011921,657769.6999999881,7147,NNB,B,13
13,test,3,1.0,2-Back,1,z,Mon Jun 23 2025 16:57:47 GMT-0500 (Central Daylight Time),661862.5,097_m_f_n_a.png,O,z,920,16,1,1943.0999999642372,659919.4000000358,7147,NNB,B,14
14,test,3,0.0,2-Back,1,m,Mon Jun 23 2025 16:57:47 GMT-0500 (Central Daylight Time),663826.4000000358,086_o_f_n_a.png,O,m,937,17,1,1954.5,661871.9000000358,7147,NNB,B,15
14,test,3,0.0,2-Back,0,m,Mon Jun 23 2025 16:57:47 GMT-0500 (Central Daylight Time),666092.4000000358,086_o_f_n_a.png,O,z,1238,18,1,2263.600000023842,663828.8000000119,7147,NNB,B,16
0,test,4,0.0,2-Back,,,Mon Jun 23 2025 16:57:47 GMT-0500 (Central Daylight Time),666092.4000000358,176_o_m_n_a.png,O,space,2045,1,1,2263.600000023842,663828.8000000119,7147,NNB,B,0
0,test,4,0.0,2-Back,,,Mon Jun 23 2025 16:57:47 GMT-0500 (Central Daylight Time),666092.4000000358,152_y_f_n_a.png,O,space,2045,2,1,2263.600000023842,663828.8000000119,7147,NNB,B,0
1,test,4,1.0,2-Back,1,z,Mon Jun 23 2025 16:57:47 GMT-0500 (Central Daylight Time),675258.1000000238,176_o_m_n_a.png,O,z,867,3,1,1892.4000000357628,673365.6999999881,7147,NNB,B,1
2,test,4,1.0,2-Back,1,z,Mon Jun 23 2025 16:57:47 GMT-0500 (Central Daylight Time),677490.4000000358,152_y_f_n_a.png,O,z,1198,4,1,2224.800000011921,675265.6000000238,7147,NNB,B,2
3,test,4,0.0,2-Back,1,m,Mon Jun 23 2025 16:57:47 GMT-0500 (Central Daylight Time),679556.0,110_o_f_n_a.png,O,m,1037,5,1,2057.899999976158,677498.1000000238,7147,NNB,B,3
3,test,4,0.0,2-Back,0,m,Mon Jun 23 2025 16:57:47 GMT-0500 (Central Daylight Time),681672.1000000238,110_o_f_n_a.png,O,z,1086,6,1,2113.600000023842,679558.5,7147,NNB,B,4
4,test,4,0.0,2-Back,1,m,Mon Jun 23 2025 16:57:47 GMT-0500 (Central Daylight Time),683773.1000000238,029_m_f_n_a.png,O,m,1085,7,1,2094.699999988079,681678.4000000358,7147,NNB,B,5
5,test,4,0.0,2-Back,1,m,Mon Jun 23 2025 16:57:47 GMT-0500 (Central Daylight Time),685820.1000000238,013_y_m_n_a.png,O,m,1032,8,1,2040.800000011921,683779.3000000119,7147,NNB,B,6
6,test,4,1.0,2-Back,1,z,Mon Jun 23 2025 16:57:47 GMT-0500 (Central Daylight Time),687752.3000000119,029_m_f_n_a.png,O,z,899,9,1,1925.300000011921,685827.0,7147,NNB,B,7
7,test,4,0.0,2-Back,1,m,Mon Jun 23 2025 16:57:47 GMT-0500 (Central Daylight Time),689836.6999999881,126_m_m_n_a.png,O,m,1055,10,1,2081.699999988079,687755.0,7147,NNB,B,8
8,test,4,0.0,2-Back,1,m,Mon Jun 23 2025 16:57:47 GMT-0500 (Central Daylight Time),692150.6999999881,013_y_m_n_a.png,O,m,1293,11,1,2306.899999976158,689843.8000000119,7147,NNB,B,9
8,test,4,0.0,2-Back,0,m,Mon Jun 23 2025 16:57:47 GMT-0500 (Central Daylight Time),694133.5,086_o_f_n_a.png,O,z,953,12,1,1980.300000011921,692153.1999999881,7147,NNB,B,10
9,test,4,0.0,2-Back,1,m,Mon Jun 23 2025 16:57:47 GMT-0500 (Central Daylight Time),696217.6999999881,153_y_m_n_a.png,O,m,1050,13,1,2077.899999976158,694139.8000000119,7147,NNB,B,11
10,test,4,1.0,2-Back,1,z,Mon Jun 23 2025 16:57:47 GMT-0500 (Central Daylight Time),698349.9000000358,086_o_f_n_a.png,O,z,1103,14,1,2124.2000000476837,696225.6999999881,7147,NNB,B,12
10,test,4,1.0,2-Back,0,z,Mon Jun 23 2025 16:57:47 GMT-0500 (Central Daylight Time),700866.1000000238,153_y_m_n_a.png,O,m,1483,15,1,2510.100000023842,698356.0,7147,NNB,B,13
11,test,4,0.0,2-Back,1,m,Mon Jun 23 2025 16:57:47 GMT-0500 (Central Daylight Time),703483.1000000238,178_m_m_n_a.png,O,m,1601,16,1,2609.400000035763,700873.6999999881,7147,NNB,B,14
12,test,4,0.0,2-Back,1,m,Mon Jun 23 2025 16:57:47 GMT-0500 (Central Daylight Time),705898.0,097_m_f_n_a.png,O,m,1384,17,1,2408.099999964237,703489.9000000358,7147,NNB,B,15
13,test,4,1.0,2-Back,1,z,Mon Jun 23 2025 16:57:47 GMT-0500 (Central Daylight Time),707829.9000000358,178_m_m_n_a.png,O,z,909,18,1,1925.5,705904.4000000358,7147,NNB,B,16
0,test,5,1.0,2-Back,,,Mon Jun 23 2025 16:57:47 GMT-0500 (Central Daylight Time),707829.9000000358,153_y_m_n_a.png,O,space,1443,1,1,1925.5,705904.4000000358,7147,NNB,B,0
0,test,5,1.0,2-Back,,,Mon Jun 23 2025 16:57:47 GMT-0500 (Central Daylight Time),707829.9000000358,097_m_f_n_a.png,O,space,1443,2,1,1925.5,705904.4000000358,7147,NNB,B,0
1,test,5,1.0,2-Back,1,z,Mon Jun 23 2025 16:57:47 GMT-0500 (Central Daylight Time),716509.3000000119,153_y_m_n_a.png,O,z,1175,3,1,2190.800000011921,714318.5,7147,NNB,B,1
2,test,5,1.0,2-Back,1,z,Mon Jun 23 2025 16:57:47 GMT-0500 (Central Daylight Time),718477.5,097_m_f_n_a.png,O,z,950,4,1,1963.199999988079,716514.3000000119,7147,NNB,B,2
3,test,5,0.0,2-Back,1,m,Mon Jun 23 2025 16:57:47 GMT-0500 (Central Daylight Time),721460.3000000119,086_o_f_n_a.png,O,m,1966,5,1,2977.600000023842,718482.6999999881,7147,NNB,B,3
3,test,5,0.0,2-Back,0,m,Mon Jun 23 2025 16:57:47 GMT-0500 (Central Daylight Time),723507.8000000119,153_y_m_n_a.png,O,z,1022,6,1,2044.0,721463.8000000119,7147,NNB,B,4
4,test,5,0.0,2-Back,1,m,Mon Jun 23 2025 16:57:47 GMT-0500 (Central Daylight Time),725459.1999999881,173_y_f_n_a.png,O,m,934,7,1,1943.7999999523163,723515.4000000358,7147,NNB,B,5
4,test,5,0.0,2-Back,0,m,Mon Jun 23 2025 16:57:47 GMT-0500 (Central Daylight Time),727523.0,086_o_f_n_a.png,O,z,1040,8,1,2058.0,725465.0,7147,NNB,B,6
5,test,5,1.0,2-Back,1,z,Mon Jun 23 2025 16:57:47 GMT-0500 (Central Daylight Time),730057.9000000358,173_y_f_n_a.png,O,z,1502,9,1,2528.600000023842,727529.3000000119,7147,NNB,B,7
6,test,5,0.0,2-Back,1,m,Mon Jun 23 2025 16:57:47 GMT-0500 (Central Daylight Time),732087.6999999881,065_o_m_n_a.png,O,m,1010,10,1,2023.5,730064.1999999881,7147,NNB,B,8
7,test,5,0.0,2-Back,1,m,Mon Jun 23 2025 16:57:47 GMT-0500 (Central Daylight Time),734487.1000000238,029_m_f_n_a.png,O,m,1367,11,1,2393.800000011921,732093.3000000119,7147,NNB,B,9
8,test,5,0.0,2-Back,1,m,Mon Jun 23 2025 16:57:47 GMT-0500 (Central Daylight Time),736487.1999999881,126_m_m_n_a.png,O,m,977,12,1,1993.199999988079,734494.0,7147,NNB,B,10
8,test,5,0.0,2-Back,0,m,Mon Jun 23 2025 16:57:47 GMT-0500 (Central Daylight Time),738387.8000000119,065_o_m_n_a.png,O,z,882,13,1,1893.699999988079,736494.1000000238,7147,NNB,B,11
9,test,5,1.0,2-Back,1,z,Mon Jun 23 2025 16:57:47 GMT-0500 (Central Daylight Time),741085.6999999881,126_m_m_n_a.png,O,z,1680,14,1,2690.699999988079,738395.0,7147,NNB,B,12
10,test,5,0.0,2-Back,1,m,Mon Jun 23 2025 16:57:47 GMT-0500 (Central Daylight Time),743151.6000000238,152_y_f_n_a.png,O,m,1043,15,1,2062.600000023842,741089.0,7147,NNB,B,13
11,test,5,0.0,2-Back,1,m,Mon Jun 23 2025 16:57:47 GMT-0500 (Central Daylight Time),745068.4000000358,176_o_m_n_a.png,O,m,900,16,1,1909.0,743159.4000000358,7147,NNB,B,14
12,test,5,0.0,2-Back,1,m,Mon Jun 23 2025 16:57:47 GMT-0500 (Central Daylight Time),746916.6000000238,029_m_f_n_a.png,O,m,831,17,1,1839.5,745077.1000000238,7147,NNB,B,15
13,test,5,1.0,2-Back,1,z,Mon Jun 23 2025 16:57:47 GMT-0500 (Central Daylight Time),749267.5,176_o_m_n_a.png,O,z,1333,18,1,2344.800000011921,746922.6999999881,7147,NNB,B,16
