acc_sum,block,block_c,block_cond,con_img,correct,correct_response,datetime,endtime,face,jitter,line,project,response,response_time,row_sel,session_number,start_end,starttime,subject_id,task,task_vers,trial
0,prac,1,A,haborder.png,0,m,Fri Jun 06 2025 09:50:47 GMT-0500 (Central Daylight Time),65447.39999997616,CFD-WF-017-016-HC.jpg,1500,solid,O,None,1516,11,1,3799.0,61648.39999997616,7166,ATS,A,1
1,prac,1,A,haborder.png,1,m,Fri Jun 06 2025 09:50:47 GMT-0500 (Central Daylight Time),68496.09999999404,CFD-BM-029-026-HC.jpg,1500,solid,O,m,766,3,1,6847.700000017881,61648.39999997616,7166,ATS,A,2
2,prac,1,A,haborder.png,1,m,Fri Jun 06 2025 09:50:47 GMT-0500 (Central Daylight Time),71978.69999998808,CFD-BF-028-020-HC.jpg,2000,solid,O,m,689,5,1,10330.300000011921,61648.39999997616,7166,ATS,A,3
3,prac,1,A,haborder.png,1,z,Fri Jun 06 2025 09:50:47 GMT-0500 (Central Daylight Time),75444.0,CFD-WM-013-015-A.jpg,1900,solid,O,z,778,8,1,13795.600000023842,61648.39999997616,7166,ATS,A,4
4,prac,1,A,haborder.png,1,z,Fri Jun 06 2025 09:50:47 GMT-0500 (Central Daylight Time),77893.39999997616,CFD-BF-023-013-A.jpg,1000,solid,O,z,653,4,1,16245.0,61648.39999997616,7166,ATS,A,5
5,prac,1,A,haborder.png,1,z,Fri Jun 06 2025 09:50:47 GMT-0500 (Central Daylight Time),80375.89999997616,CFD-WF-019-015-A.jpg,1000,solid,O,z,692,12,1,18727.5,61648.39999997616,7166,ATS,A,6
6,prac,1,A,haborder.png,1,z,Fri Jun 06 2025 09:50:47 GMT-0500 (Central Daylight Time),83408.39999997616,CFD-BM-005-010-A.jpg,1600,solid,O,z,648,2,1,21760.0,61648.39999997616,7166,ATS,A,7
7,prac,1,A,haborder.png,1,m,Fri Jun 06 2025 09:50:47 GMT-0500 (Central Daylight Time),86590.69999998808,CFD-BM-017-052-HC.jpg,1700,solid,O,m,692,1,1,24942.30000001192,61648.39999997616,7166,ATS,A,8
8,prac,1,A,haborder.png,1,m,Fri Jun 06 2025 09:50:47 GMT-0500 (Central Daylight Time),89473.0,CFD-WM-004-005-HC.jpg,1400,solid,O,m,691,7,1,27824.600000023842,61648.39999997616,7166,ATS,A,9
9,prac,1,A,haborder.png,1,z,Fri Jun 06 2025 09:50:47 GMT-0500 (Central Daylight Time),92522.29999998212,CFD-WF-003-014-A.jpg,1600,solid,O,z,655,10,1,30873.90000000596,61648.39999997616,7166,ATS,A,10
10,prac,1,A,haborder.png,1,m,Fri Jun 06 2025 09:50:47 GMT-0500 (Central Daylight Time),95704.5,CFD-WM-006-013-HC.jpg,1700,solid,O,m,699,9,1,34056.10000002384,61648.39999997616,7166,ATS,A,11
11,prac,1,A,haborder.png,1,z,Fri Jun 06 2025 09:50:47 GMT-0500 (Central Daylight Time),98270.09999999404,CFD-BF-039-039-A.jpg,1200,solid,O,z,577,6,1,36621.70000001788,61648.39999997616,7166,ATS,A,12
1,prac,1,B,mfborder.png,1,z,Fri Jun 06 2025 09:50:47 GMT-0500 (Central Daylight Time),128010.89999997616,CFD-WF-003-014-A.jpg,1500,dash,O,z,954,11,1,3249.0,124761.89999997616,7166,ATS,A,1
1,prac,1,B,mfborder.png,0,m,Fri Jun 06 2025 09:50:47 GMT-0500 (Central Daylight Time),132009.89999997616,CFD-WM-013-015-A.jpg,1700,dash,O,None,1516,9,1,7248.0,124761.89999997616,7166,ATS,A,2
1,prac,1,B,mfborder.png,0,z,Fri Jun 06 2025 09:50:47 GMT-0500 (Central Daylight Time),135508.5,CFD-WF-002-008-HC.jpg,1900,dash,O,m,803,8,1,10746.600000023842,124761.89999997616,7166,ATS,A,3
2,prac,1,B,mfborder.png,1,m,Fri Jun 06 2025 09:50:47 GMT-0500 (Central Daylight Time),139040.69999998808,CFD-WM-006-013-HC.jpg,1600,dash,O,m,1141,10,1,14278.800000011921,124761.89999997616,7166,ATS,A,4
3,prac,1,B,mfborder.png,1,z,Fri Jun 06 2025 09:50:47 GMT-0500 (Central Daylight Time),141640.09999999404,CFD-BF-023-013-A.jpg,1000,dash,O,z,800,4,1,16878.20000001788,124761.89999997616,7166,ATS,A,5
4,prac,1,B,mfborder.png,1,z,Fri Jun 06 2025 09:50:47 GMT-0500 (Central Daylight Time),144105.79999998212,CFD-WF-017-016-HC.jpg,1000,dash,O,z,681,12,1,19343.90000000596,124761.89999997616,7166,ATS,A,6
5,prac,1,B,mfborder.png,1,m,Fri Jun 06 2025 09:50:47 GMT-0500 (Central Daylight Time),148271.19999998808,CFD-BM-005-010-A.jpg,2000,dash,O,m,1375,5,1,23509.30000001192,124761.89999997616,7166,ATS,A,7
6,prac,1,B,mfborder.png,1,z,Fri Jun 06 2025 09:50:47 GMT-0500 (Central Daylight Time),151370.39999997616,CFD-BF-028-020-HC.jpg,1400,dash,O,z,906,7,1,26608.5,124761.89999997616,7166,ATS,A,8
7,prac,1,B,mfborder.png,1,m,Fri Jun 06 2025 09:50:47 GMT-0500 (Central Daylight Time),154569.19999998808,CFD-WM-019-013-A.jpg,1200,dash,O,m,1207,6,1,29807.30000001192,124761.89999997616,7166,ATS,A,9
8,prac,1,B,mfborder.png,1,m,Fri Jun 06 2025 09:50:47 GMT-0500 (Central Daylight Time),158131.89999997616,CFD-BM-029-026-HC.jpg,1700,dash,O,m,1051,1,1,33370.0,124761.89999997616,7166,ATS,A,10
9,prac,1,B,mfborder.png,1,z,Fri Jun 06 2025 09:50:47 GMT-0500 (Central Daylight Time),161667.09999999404,CFD-BF-010-005-HC.jpg,1500,dash,O,z,1238,3,1,36905.20000001788,124761.89999997616,7166,ATS,A,11
10,prac,1,B,mfborder.png,1,m,Fri Jun 06 2025 09:50:47 GMT-0500 (Central Daylight Time),164949.29999998212,CFD-BM-010-019-A.jpg,1600,dash,O,m,894,2,1,40187.40000000596,124761.89999997616,7166,ATS,A,12
0,test,1,A,haborder.png,0,m,Fri Jun 06 2025 09:50:47 GMT-0500 (Central Daylight Time),186525.79999998212,CFD-BM-017-052-HC.jpg,1700,solid,O,None,1512,1,1,3232.4000000059605,183293.39999997616,7166,ATS,A,1
1,test,1,A,haborder.png,1,m,Fri Jun 06 2025 09:50:47 GMT-0500 (Central Daylight Time),189274.89999997616,CFD-BF-028-020-HC.jpg,2000,solid,O,m,723,5,1,5981.5,183293.39999997616,7166,ATS,A,2
2,test,1,A,haborder.png,1,m,Fri Jun 06 2025 09:50:47 GMT-0500 (Central Daylight Time),191292.09999999404,CFD-WF-017-016-HC.jpg,1500,solid,O,m,498,11,1,7998.700000017881,183293.39999997616,7166,ATS,A,3
3,test,1,A,haborder.png,1,z,Fri Jun 06 2025 09:50:47 GMT-0500 (Central Daylight Time),192890.59999999404,CFD-WF-019-015-A.jpg,1000,solid,O,z,574,12,1,9597.200000017881,183293.39999997616,7166,ATS,A,4
4,test,1,A,haborder.png,1,m,Fri Jun 06 2025 09:50:47 GMT-0500 (Central Daylight Time),195756.29999998212,CFD-BF-028-020-HC.jpg,2000,solid,O,m,839,5,1,12462.90000000596,183293.39999997616,7166,ATS,A,5
5,test,1,A,haborder.png,1,z,Fri Jun 06 2025 09:50:47 GMT-0500 (Central Daylight Time),197755.79999998212,CFD-BF-039-039-A.jpg,1200,solid,O,z,773,6,1,14462.40000000596,183293.39999997616,7166,ATS,A,6
6,test,1,A,haborder.png,1,m,Fri Jun 06 2025 09:50:47 GMT-0500 (Central Daylight Time),200088.5,CFD-BM-029-026-HC.jpg,1500,solid,O,m,810,3,1,16795.100000023842,183293.39999997616,7166,ATS,A,7
7,test,1,A,haborder.png,1,m,Fri Jun 06 2025 09:50:47 GMT-0500 (Central Daylight Time),202671.0,CFD-WM-006-013-HC.jpg,1700,solid,O,m,853,9,1,19377.600000023842,183293.39999997616,7166,ATS,A,8
8,test,1,A,haborder.png,1,z,Fri Jun 06 2025 09:50:47 GMT-0500 (Central Daylight Time),205381.39999997616,CFD-WF-003-014-A.jpg,1600,solid,O,z,948,10,1,22088.0,183293.39999997616,7166,ATS,A,9
8,test,1,A,haborder.png,0,z,Fri Jun 06 2025 09:50:47 GMT-0500 (Central Daylight Time),208818.79999998212,CFD-WM-013-015-A.jpg,1900,solid,O,None,1516,8,1,25525.40000000596,183293.39999997616,7166,ATS,A,10
8,test,1,A,haborder.png,0,m,Fri Jun 06 2025 09:50:47 GMT-0500 (Central Daylight Time),211851.29999998212,CFD-WF-017-016-HC.jpg,1500,solid,O,None,1516,11,1,28557.90000000596,183293.39999997616,7166,ATS,A,11
9,test,1,A,haborder.png,1,m,Fri Jun 06 2025 09:50:47 GMT-0500 (Central Daylight Time),214000.59999999404,CFD-BM-029-026-HC.jpg,1500,solid,O,m,618,3,1,30707.20000001788,183293.39999997616,7166,ATS,A,12
10,test,1,A,haborder.png,1,z,Fri Jun 06 2025 09:50:47 GMT-0500 (Central Daylight Time),215899.89999997616,CFD-BF-023-013-A.jpg,1000,solid,O,z,881,4,1,32606.5,183293.39999997616,7166,ATS,A,13
10,test,1,A,haborder.png,0,z,Fri Jun 06 2025 09:50:47 GMT-0500 (Central Daylight Time),218349.39999997616,CFD-BM-005-010-A.jpg,1600,solid,O,m,829,2,1,35056.0,183293.39999997616,7166,ATS,A,14
10,test,1,A,haborder.png,0,z,Fri Jun 06 2025 09:50:47 GMT-0500 (Central Daylight Time),220548.59999999404,CFD-BF-039-039-A.jpg,1200,solid,O,m,980,6,1,37255.20000001788,183293.39999997616,7166,ATS,A,15
11,test,1,A,haborder.png,1,m,Fri Jun 06 2025 09:50:47 GMT-0500 (Central Daylight Time),223097.79999998212,CFD-BM-017-052-HC.jpg,1700,solid,O,m,829,1,1,39804.40000000596,183293.39999997616,7166,ATS,A,16
12,test,1,A,haborder.png,1,m,Fri Jun 06 2025 09:50:47 GMT-0500 (Central Daylight Time),225863.59999999404,CFD-WM-004-005-HC.jpg,1400,solid,O,m,1335,7,1,42570.20000001788,183293.39999997616,7166,ATS,A,17
13,test,1,A,haborder.png,1,z,Fri Jun 06 2025 09:50:47 GMT-0500 (Central Daylight Time),228312.69999998808,CFD-WF-003-014-A.jpg,1600,solid,O,z,818,10,1,45019.30000001192,183293.39999997616,7166,ATS,A,18
14,test,1,A,haborder.png,1,z,Fri Jun 06 2025 09:50:47 GMT-0500 (Central Daylight Time),230079.0,CFD-WF-019-015-A.jpg,1000,solid,O,z,744,12,1,46785.60000002384,183293.39999997616,7166,ATS,A,19
14,test,1,A,haborder.png,0,z,Fri Jun 06 2025 09:50:47 GMT-0500 (Central Daylight Time),233511.39999997616,CFD-WM-013-015-A.jpg,1900,solid,O,None,1515,8,1,50218.0,183293.39999997616,7166,ATS,A,20
15,test,1,A,haborder.png,1,z,Fri Jun 06 2025 09:50:47 GMT-0500 (Central Daylight Time),235194.0,CFD-BF-023-013-A.jpg,1000,solid,O,z,657,4,1,51900.60000002384,183293.39999997616,7166,ATS,A,21
16,test,1,A,haborder.png,1,m,Fri Jun 06 2025 09:50:47 GMT-0500 (Central Daylight Time),237594.19999998808,CFD-WM-006-013-HC.jpg,1700,solid,O,m,675,9,1,54300.80000001192,183293.39999997616,7166,ATS,A,22
17,test,1,A,haborder.png,1,z,Fri Jun 06 2025 09:50:47 GMT-0500 (Central Daylight Time),240075.69999998808,CFD-BM-005-010-A.jpg,1600,solid,O,z,856,2,1,56782.30000001192,183293.39999997616,7166,ATS,A,23
18,test,1,A,haborder.png,1,m,Fri Jun 06 2025 09:50:47 GMT-0500 (Central Daylight Time),242275.29999998212,CFD-WM-004-005-HC.jpg,1400,solid,O,m,773,7,1,58981.90000000596,183293.39999997616,7166,ATS,A,24
1,test,1,B,mfborder.png,1,m,Fri Jun 06 2025 09:50:47 GMT-0500 (Central Daylight Time),261568.89999997616,CFD-WM-013-015-A.jpg,1700,dash,O,m,497,9,1,2232.399999976158,259336.5,7166,ATS,A,1
2,test,1,B,mfborder.png,1,z,Fri Jun 06 2025 09:50:47 GMT-0500 (Central Daylight Time),263185.2999999821,CFD-BF-023-013-A.jpg,1000,dash,O,z,583,4,1,3848.7999999821186,259336.5,7166,ATS,A,2
3,test,1,B,mfborder.png,1,z,Fri Jun 06 2025 09:50:47 GMT-0500 (Central Daylight Time),265817.6999999881,CFD-WF-002-008-HC.jpg,1900,dash,O,z,708,8,1,6481.199999988079,259336.5,7166,ATS,A,3
4,test,1,B,mfborder.png,1,z,Fri Jun 06 2025 09:50:47 GMT-0500 (Central Daylight Time),267866.7999999821,CFD-WF-003-014-A.jpg,1500,dash,O,z,531,11,1,8530.299999982119,259336.5,7166,ATS,A,4
5,test,1,B,mfborder.png,1,m,Fri Jun 06 2025 09:50:47 GMT-0500 (Central Daylight Time),270149.6999999881,CFD-BM-029-026-HC.jpg,1700,dash,O,m,562,1,1,10813.199999988079,259336.5,7166,ATS,A,5
6,test,1,B,mfborder.png,1,m,Fri Jun 06 2025 09:50:47 GMT-0500 (Central Daylight Time),272415.59999999404,CFD-WM-006-013-HC.jpg,1600,dash,O,m,643,10,1,13079.09999999404,259336.5,7166,ATS,A,6
7,test,1,B,mfborder.png,1,m,Fri Jun 06 2025 09:50:47 GMT-0500 (Central Daylight Time),274481.6999999881,CFD-WM-019-013-A.jpg,1200,dash,O,m,834,6,1,15145.199999988079,259336.5,7166,ATS,A,7
8,test,1,B,mfborder.png,1,z,Fri Jun 06 2025 09:50:47 GMT-0500 (Central Daylight Time),277014.0,CFD-WF-002-008-HC.jpg,1900,dash,O,z,612,8,1,17677.5,259336.5,7166,ATS,A,8
9,test,1,B,mfborder.png,1,z,Fri Jun 06 2025 09:50:47 GMT-0500 (Central Daylight Time),278629.89999997616,CFD-WF-017-016-HC.jpg,1000,dash,O,z,594,12,1,19293.399999976158,259336.5,7166,ATS,A,9
10,test,1,B,mfborder.png,1,m,Fri Jun 06 2025 09:50:47 GMT-0500 (Central Daylight Time),280529.89999997616,CFD-WM-019-013-A.jpg,1200,dash,O,m,667,6,1,21193.399999976158,259336.5,7166,ATS,A,10
11,test,1,B,mfborder.png,1,z,Fri Jun 06 2025 09:50:47 GMT-0500 (Central Daylight Time),282745.6999999881,CFD-BF-010-005-HC.jpg,1500,dash,O,z,698,3,1,23409.19999998808,259336.5,7166,ATS,A,11
12,test,1,B,mfborder.png,1,m,Fri Jun 06 2025 09:50:47 GMT-0500 (Central Daylight Time),285711.5,CFD-BM-005-010-A.jpg,2000,dash,O,m,936,5,1,26375.0,259336.5,7166,ATS,A,12
13,test,1,B,mfborder.png,1,m,Fri Jun 06 2025 09:50:47 GMT-0500 (Central Daylight Time),288027.39999997616,CFD-BM-010-019-A.jpg,1600,dash,O,m,698,2,1,28690.899999976158,259336.5,7166,ATS,A,13
14,test,1,B,mfborder.png,1,m,Fri Jun 06 2025 09:50:47 GMT-0500 (Central Daylight Time),290909.7999999821,CFD-BM-005-010-A.jpg,2000,dash,O,m,862,5,1,31573.29999998212,259336.5,7166,ATS,A,14
15,test,1,B,mfborder.png,1,z,Fri Jun 06 2025 09:50:47 GMT-0500 (Central Daylight Time),293292.39999997616,CFD-BF-010-005-HC.jpg,1500,dash,O,z,863,3,1,33955.89999997616,259336.5,7166,ATS,A,15
16,test,1,B,mfborder.png,1,m,Fri Jun 06 2025 09:50:47 GMT-0500 (Central Daylight Time),295808.1999999881,CFD-BM-029-026-HC.jpg,1700,dash,O,m,793,1,1,36471.69999998808,259336.5,7166,ATS,A,16
17,test,1,B,mfborder.png,1,z,Fri Jun 06 2025 09:50:47 GMT-0500 (Central Daylight Time),298190.89999997616,CFD-BF-028-020-HC.jpg,1400,dash,O,z,960,7,1,38854.39999997616,259336.5,7166,ATS,A,17
18,test,1,B,mfborder.png,1,z,Fri Jun 06 2025 09:50:47 GMT-0500 (Central Daylight Time),299756.6999999881,CFD-WF-017-016-HC.jpg,1000,dash,O,z,546,12,1,40420.19999998808,259336.5,7166,ATS,A,18
19,test,1,B,mfborder.png,1,m,Fri Jun 06 2025 09:50:47 GMT-0500 (Central Daylight Time),302022.89999997616,CFD-WM-013-015-A.jpg,1700,dash,O,m,544,9,1,42686.39999997616,259336.5,7166,ATS,A,19
20,test,1,B,mfborder.png,1,z,Fri Jun 06 2025 09:50:47 GMT-0500 (Central Daylight Time),304155.89999997616,CFD-BF-028-020-HC.jpg,1400,dash,O,z,714,7,1,44819.39999997616,259336.5,7166,ATS,A,20
21,test,1,B,mfborder.png,1,z,Fri Jun 06 2025 09:50:47 GMT-0500 (Central Daylight Time),305838.39999997616,CFD-BF-023-013-A.jpg,1000,dash,O,z,653,4,1,46501.89999997616,259336.5,7166,ATS,A,21
22,test,1,B,mfborder.png,1,m,Fri Jun 06 2025 09:50:47 GMT-0500 (Central Daylight Time),308238.0,CFD-BM-010-019-A.jpg,1600,dash,O,m,779,2,1,48901.5,259336.5,7166,ATS,A,22
23,test,1,B,mfborder.png,1,m,Fri Jun 06 2025 09:50:47 GMT-0500 (Central Daylight Time),310823.6999999881,CFD-WM-006-013-HC.jpg,1600,dash,O,m,956,10,1,51487.19999998808,259336.5,7166,ATS,A,23
24,test,1,B,mfborder.png,1,z,Fri Jun 06 2025 09:50:47 GMT-0500 (Central Daylight Time),313436.09999999404,CFD-WF-003-014-A.jpg,1500,dash,O,z,1097,11,1,54099.59999999404,259336.5,7166,ATS,A,24
0,prac,1,C,haborder.png,0,m,Fri Jun 06 2025 09:50:47 GMT-0500 (Central Daylight Time),365969.7999999821,CFD-BM-029-026-HC.jpg,1500,solid,O,None,1511,10,1,3798.7999999821186,362171.0,7166,ATS,A,1
0,prac,1,C,mfborder.png,0,z,Fri Jun 06 2025 09:50:47 GMT-0500 (Central Daylight Time),369535.09999999404,CFD-WF-017-016-HC.jpg,1600,dash,O,m,1171,1,1,7364.0999999940395,362171.0,7166,ATS,A,2
0,prac,1,C,mfborder.png,0,m,Fri Jun 06 2025 09:50:47 GMT-0500 (Central Daylight Time),373534.0,CFD-WM-013-015-A.jpg,1700,solid,O,None,1516,6,1,11363.0,362171.0,7166,ATS,A,3
0,prac,1,C,haborder.png,0,z,Fri Jun 06 2025 09:50:47 GMT-0500 (Central Daylight Time),377732.59999999404,CFD-BF-023-013-A.jpg,1900,dash,O,None,1516,7,1,15561.59999999404,362171.0,7166,ATS,A,4
0,prac,1,C,haborder.png,0,z,Fri Jun 06 2025 09:50:47 GMT-0500 (Central Daylight Time),381731.2999999821,CFD-BF-039-039-A.jpg,1700,solid,O,None,1516,8,1,19560.29999998212,362171.0,7166,ATS,A,5
1,prac,1,C,mfborder.png,1,m,Fri Jun 06 2025 09:50:47 GMT-0500 (Central Daylight Time),385280.2999999821,CFD-BM-017-052-HC.jpg,2000,solid,O,m,758,4,1,23109.29999998212,362171.0,7166,ATS,A,6
2,prac,1,C,mfborder.png,1,z,Fri Jun 06 2025 09:50:47 GMT-0500 (Central Daylight Time),388446.09999999404,CFD-WF-019-015-A.jpg,1500,solid,O,z,869,2,1,26275.09999999404,362171.0,7166,ATS,A,7
3,prac,1,C,mfborder.png,1,z,Fri Jun 06 2025 09:50:47 GMT-0500 (Central Daylight Time),391128.59999999404,CFD-BF-028-020-HC.jpg,1000,dash,O,z,899,3,1,28957.59999999404,362171.0,7166,ATS,A,8
4,prac,1,C,haborder.png,1,m,Fri Jun 06 2025 09:50:47 GMT-0500 (Central Daylight Time),393839.6999999881,CFD-WM-004-005-HC.jpg,1000,dash,O,m,921,11,1,31668.69999998808,362171.0,7166,ATS,A,9
5,prac,1,C,haborder.png,1,m,Fri Jun 06 2025 09:50:47 GMT-0500 (Central Daylight Time),397409.7999999821,CFD-WM-004-005-HC.jpg,1400,solid,O,m,1373,12,1,35238.79999998212,362171.0,7166,ATS,A,10
6,prac,1,C,haborder.png,1,z,Fri Jun 06 2025 09:50:47 GMT-0500 (Central Daylight Time),401092.0,CFD-WF-003-014-A.jpg,1600,dash,O,z,1295,9,1,38921.0,362171.0,7166,ATS,A,11
6,prac,1,C,mfborder.png,0,m,Fri Jun 06 2025 09:50:47 GMT-0500 (Central Daylight Time),404590.89999997616,CFD-BM-005-010-A.jpg,1200,dash,O,None,1515,5,1,42419.89999997616,362171.0,7166,ATS,A,12
0,prac,2,C,haborder.png,0,z,Fri Jun 06 2025 09:50:47 GMT-0500 (Central Daylight Time),444844.89999997616,CFD-WF-003-014-A.jpg,1600,dash,O,None,1516,9,1,82673.89999997616,362171.0,7166,ATS,A,1
1,prac,2,C,haborder.png,1,m,Fri Jun 06 2025 09:50:47 GMT-0500 (Central Daylight Time),447944.09999999404,CFD-BM-029-026-HC.jpg,1500,solid,O,m,808,10,1,85773.09999999404,362171.0,7166,ATS,A,2
2,prac,2,C,mfborder.png,1,z,Fri Jun 06 2025 09:50:47 GMT-0500 (Central Daylight Time),451359.59999999404,CFD-WF-019-015-A.jpg,1500,solid,O,z,1125,2,1,89188.59999999404,362171.0,7166,ATS,A,3
2,prac,2,C,haborder.png,0,z,Fri Jun 06 2025 09:50:47 GMT-0500 (Central Daylight Time),454891.7999999821,CFD-BF-023-013-A.jpg,1900,dash,O,m,838,7,1,92720.79999998212,362171.0,7166,ATS,A,4
3,prac,2,C,mfborder.png,1,z,Fri Jun 06 2025 09:50:47 GMT-0500 (Central Daylight Time),458373.89999997616,CFD-WF-017-016-HC.jpg,1600,dash,O,z,1086,1,1,96202.89999997616,362171.0,7166,ATS,A,5
4,prac,2,C,mfborder.png,1,m,Fri Jun 06 2025 09:50:47 GMT-0500 (Central Daylight Time),461689.6999999881,CFD-WM-013-015-A.jpg,1700,solid,O,m,831,6,1,99518.69999998808,362171.0,7166,ATS,A,6
5,prac,2,C,haborder.png,1,z,Fri Jun 06 2025 09:50:47 GMT-0500 (Central Daylight Time),465588.39999997616,CFD-BF-039-039-A.jpg,1700,solid,O,z,1404,8,1,103417.39999997616,362171.0,7166,ATS,A,7
6,prac,2,C,mfborder.png,1,m,Fri Jun 06 2025 09:50:47 GMT-0500 (Central Daylight Time),468770.6999999881,CFD-BM-005-010-A.jpg,1200,dash,O,m,1197,5,1,106599.69999998808,362171.0,7166,ATS,A,8
7,prac,2,C,mfborder.png,1,m,Fri Jun 06 2025 09:50:47 GMT-0500 (Central Daylight Time),472486.39999997616,CFD-BM-017-052-HC.jpg,2000,solid,O,m,919,4,1,110315.39999997616,362171.0,7166,ATS,A,9
7,prac,2,C,haborder.png,0,m,Fri Jun 06 2025 09:50:47 GMT-0500 (Central Daylight Time),476185.2999999821,CFD-WM-004-005-HC.jpg,1400,solid,O,None,1516,12,1,114014.29999998212,362171.0,7166,ATS,A,10
8,prac,2,C,haborder.png,1,m,Fri Jun 06 2025 09:50:47 GMT-0500 (Central Daylight Time),479067.59999999404,CFD-WM-004-005-HC.jpg,1000,dash,O,m,1084,11,1,116896.59999999404,362171.0,7166,ATS,A,11
9,prac,2,C,mfborder.png,1,z,Fri Jun 06 2025 09:50:47 GMT-0500 (Central Daylight Time),482233.2999999821,CFD-BF-028-020-HC.jpg,1000,dash,O,z,1374,3,1,120062.29999998212,362171.0,7166,ATS,A,12
1,test,1,C,haborder.png,1,m,Fri Jun 06 2025 09:50:47 GMT-0500 (Central Daylight Time),532767.2999999821,CFD-WF-017-016-HC.jpg,1000,solid,O,m,1353,12,1,2382.2999999821186,530385.0,7166,ATS,A,1
2,test,1,C,haborder.png,1,z,Fri Jun 06 2025 09:50:47 GMT-0500 (Central Daylight Time),535782.8999999762,CFD-BM-005-010-A.jpg,1900,solid,O,z,1086,8,1,5397.899999976158,530385.0,7166,ATS,A,2
3,test,1,C,mfborder.png,1,z,Fri Jun 06 2025 09:50:47 GMT-0500 (Central Daylight Time),538065.6999999881,CFD-WF-003-014-A.jpg,1500,dash,O,z,758,3,1,7680.699999988079,530385.0,7166,ATS,A,3
4,test,1,C,mfborder.png,1,m,Fri Jun 06 2025 09:50:47 GMT-0500 (Central Daylight Time),540381.599999994,CFD-WM-006-013-HC.jpg,1000,dash,O,m,1296,4,1,9996.59999999404,530385.0,7166,ATS,A,4
4,test,1,C,haborder.png,0,z,Fri Jun 06 2025 09:50:47 GMT-0500 (Central Daylight Time),543317.6999999881,CFD-WM-013-015-A.jpg,1400,solid,O,None,1516,7,1,12932.699999988079,530385.0,7166,ATS,A,5
5,test,1,C,mfborder.png,1,z,Fri Jun 06 2025 09:50:47 GMT-0500 (Central Daylight Time),546096.5,CFD-BF-010-005-HC.jpg,1700,dash,O,z,1051,1,1,15711.5,530385.0,7166,ATS,A,6
5,test,1,C,mfborder.png,0,m,Fri Jun 06 2025 09:50:47 GMT-0500 (Central Daylight Time),548678.8999999762,CFD-BM-029-026-HC.jpg,1200,dash,O,z,1352,6,1,18293.899999976158,530385.0,7166,ATS,A,7
5,test,1,C,mfborder.png,0,m,Fri Jun 06 2025 09:50:47 GMT-0500 (Central Daylight Time),552078.0,CFD-WM-019-013-A.jpg,2000,dash,O,z,1370,5,1,21693.0,530385.0,7166,ATS,A,8
6,test,1,C,mfborder.png,1,m,Fri Jun 06 2025 09:50:47 GMT-0500 (Central Daylight Time),555476.8999999762,CFD-WM-019-013-A.jpg,2000,dash,O,m,1371,5,1,25091.899999976158,530385.0,7166,ATS,A,9
6,test,1,C,haborder.png,0,m,Fri Jun 06 2025 09:50:47 GMT-0500 (Central Daylight Time),558604.0,CFD-BF-028-020-HC.jpg,1600,solid,O,None,1511,10,1,28219.0,530385.0,7166,ATS,A,10
6,test,1,C,haborder.png,0,z,Fri Jun 06 2025 09:50:47 GMT-0500 (Central Daylight Time),561525.0,CFD-WM-013-015-A.jpg,1400,solid,O,None,1516,7,1,31140.0,530385.0,7166,ATS,A,11
6,test,1,C,haborder.png,0,m,Fri Jun 06 2025 09:50:47 GMT-0500 (Central Daylight Time),564557.1999999881,CFD-WF-002-008-HC.jpg,1500,solid,O,None,1515,11,1,34172.19999998808,530385.0,7166,ATS,A,12
6,test,1,C,mfborder.png,0,m,Fri Jun 06 2025 09:50:47 GMT-0500 (Central Daylight Time),567023.1999999881,CFD-BM-029-026-HC.jpg,1200,dash,O,z,1236,6,1,36638.19999998808,530385.0,7166,ATS,A,13
6,test,1,C,haborder.png,0,m,Fri Jun 06 2025 09:50:47 GMT-0500 (Central Daylight Time),570155.599999994,CFD-BF-028-020-HC.jpg,1600,solid,O,None,1516,10,1,39770.59999999404,530385.0,7166,ATS,A,14
6,test,1,C,mfborder.png,0,m,Fri Jun 06 2025 09:50:47 GMT-0500 (Central Daylight Time),572588.099999994,CFD-WM-006-013-HC.jpg,1000,dash,O,z,1406,4,1,42203.09999999404,530385.0,7166,ATS,A,15
6,test,1,C,haborder.png,0,m,Fri Jun 06 2025 09:50:47 GMT-0500 (Central Daylight Time),575120.7999999821,CFD-WF-017-016-HC.jpg,1000,solid,O,None,1516,12,1,44735.79999998212,530385.0,7166,ATS,A,16
6,test,1,C,mfborder.png,0,z,Fri Jun 06 2025 09:50:47 GMT-0500 (Central Daylight Time),578353.0,CFD-BF-010-005-HC.jpg,1700,dash,O,None,1516,1,1,47968.0,530385.0,7166,ATS,A,17
6,test,1,C,haborder.png,0,z,Fri Jun 06 2025 09:50:47 GMT-0500 (Central Daylight Time),581085.5,CFD-BM-010-019-A.jpg,1700,solid,O,m,1012,9,1,50700.5,530385.0,7166,ATS,A,18
7,test,1,C,mfborder.png,1,z,Fri Jun 06 2025 09:50:47 GMT-0500 (Central Daylight Time),584034.5,CFD-WF-003-014-A.jpg,1500,dash,O,z,1432,3,1,53649.5,530385.0,7166,ATS,A,19
8,test,1,C,haborder.png,1,z,Fri Jun 06 2025 09:50:47 GMT-0500 (Central Daylight Time),587150.3999999762,CFD-BM-005-010-A.jpg,1900,solid,O,z,1195,8,1,56765.39999997616,530385.0,7166,ATS,A,20
9,test,1,C,mfborder.png,1,z,Fri Jun 06 2025 09:50:47 GMT-0500 (Central Daylight Time),590199.1999999881,CFD-BF-023-013-A.jpg,1600,dash,O,z,1419,2,1,59814.19999998808,530385.0,7166,ATS,A,21
10,test,1,C,mfborder.png,1,z,Fri Jun 06 2025 09:50:47 GMT-0500 (Central Daylight Time),592515.2999999821,CFD-BF-023-013-A.jpg,1600,dash,O,z,690,2,1,62130.29999998212,530385.0,7166,ATS,A,22
10,test,1,C,haborder.png,0,z,Fri Jun 06 2025 09:50:47 GMT-0500 (Central Daylight Time),595115.1999999881,CFD-BM-010-019-A.jpg,1700,solid,O,m,882,9,1,64730.19999998808,530385.0,7166,ATS,A,23
11,test,1,C,haborder.png,1,m,Fri Jun 06 2025 09:50:47 GMT-0500 (Central Daylight Time),598096.8999999762,CFD-WF-002-008-HC.jpg,1500,solid,O,m,1451,11,1,67711.89999997616,530385.0,7166,ATS,A,24
1,test,2,C,mfborder.png,1,z,Fri Jun 06 2025 09:50:47 GMT-0500 (Central Daylight Time),616557.7999999821,CFD-BF-028-020-HC.jpg,1500,dash,O,z,1292,3,1,2815.7999999821186,613742.0,7166,ATS,A,1
2,test,2,C,haborder.png,1,z,Fri Jun 06 2025 09:50:47 GMT-0500 (Central Daylight Time),619890.1999999881,CFD-BF-039-039-A.jpg,1900,solid,O,z,1396,8,1,6148.199999988079,613742.0,7166,ATS,A,2
3,test,2,C,haborder.png,1,m,Fri Jun 06 2025 09:50:47 GMT-0500 (Central Daylight Time),622072.7999999821,CFD-WM-004-005-HC.jpg,1000,solid,O,m,1151,12,1,8330.799999982119,613742.0,7166,ATS,A,3
4,test,2,C,haborder.png,1,m,Fri Jun 06 2025 09:50:47 GMT-0500 (Central Daylight Time),624538.2999999821,CFD-BM-029-026-HC.jpg,1600,solid,O,m,849,10,1,10796.299999982119,613742.0,7166,ATS,A,4
5,test,2,C,haborder.png,1,z,Fri Jun 06 2025 09:50:47 GMT-0500 (Central Daylight Time),627354.2999999821,CFD-WF-003-014-A.jpg,1700,solid,O,z,1099,9,1,13612.299999982119,613742.0,7166,ATS,A,5
5,test,2,C,mfborder.png,0,m,Fri Jun 06 2025 09:50:47 GMT-0500 (Central Daylight Time),630086.8999999762,CFD-WM-013-015-A.jpg,1200,dash,O,None,1516,6,1,16344.899999976158,613742.0,7166,ATS,A,6
5,test,2,C,mfborder.png,0,m,Fri Jun 06 2025 09:50:47 GMT-0500 (Central Daylight Time),632619.1999999881,CFD-BM-017-052-HC.jpg,1000,dash,O,None,1515,4,1,18877.19999998808,613742.0,7166,ATS,A,7
6,test,2,C,mfborder.png,1,z,Fri Jun 06 2025 09:50:47 GMT-0500 (Central Daylight Time),635535.0,CFD-WF-017-016-HC.jpg,1700,dash,O,z,1194,1,1,21793.0,613742.0,7166,ATS,A,8
7,test,2,C,mfborder.png,1,z,Fri Jun 06 2025 09:50:47 GMT-0500 (Central Daylight Time),638317.3999999762,CFD-WF-019-015-A.jpg,1600,dash,O,z,1162,2,1,24575.399999976158,613742.0,7166,ATS,A,9
7,test,2,C,mfborder.png,0,m,Fri Jun 06 2025 09:50:47 GMT-0500 (Central Daylight Time),641416.599999994,CFD-BM-005-010-A.jpg,2000,dash,O,z,1068,5,1,27674.59999999404,613742.0,7166,ATS,A,10
8,test,2,C,mfborder.png,1,m,Fri Jun 06 2025 09:50:47 GMT-0500 (Central Daylight Time),643516.099999994,CFD-BM-017-052-HC.jpg,1000,dash,O,m,1071,4,1,29774.09999999404,613742.0,7166,ATS,A,11
8,test,2,C,mfborder.png,0,z,Fri Jun 06 2025 09:50:47 GMT-0500 (Central Daylight Time),646281.6999999881,CFD-WF-017-016-HC.jpg,1700,dash,O,m,1041,1,1,32539.69999998808,613742.0,7166,ATS,A,12
9,test,2,C,haborder.png,1,z,Fri Jun 06 2025 09:50:47 GMT-0500 (Central Daylight Time),648681.099999994,CFD-BF-023-013-A.jpg,1400,solid,O,z,976,7,1,34939.09999999404,613742.0,7166,ATS,A,13
10,test,2,C,haborder.png,1,z,Fri Jun 06 2025 09:50:47 GMT-0500 (Central Daylight Time),650713.8999999762,CFD-BF-023-013-A.jpg,1400,solid,O,z,608,7,1,36971.89999997616,613742.0,7166,ATS,A,14
11,test,2,C,haborder.png,1,m,Fri Jun 06 2025 09:50:47 GMT-0500 (Central Daylight Time),652893.6999999881,CFD-WM-004-005-HC.jpg,1500,solid,O,m,662,11,1,39151.69999998808,613742.0,7166,ATS,A,15
12,test,2,C,haborder.png,1,z,Fri Jun 06 2025 09:50:47 GMT-0500 (Central Daylight Time),655662.099999994,CFD-WF-003-014-A.jpg,1700,solid,O,z,1034,9,1,41920.09999999404,613742.0,7166,ATS,A,16
13,test,2,C,haborder.png,1,m,Fri Jun 06 2025 09:50:47 GMT-0500 (Central Daylight Time),657395.0,CFD-WM-004-005-HC.jpg,1000,solid,O,m,707,12,1,43653.0,613742.0,7166,ATS,A,17
13,test,2,C,mfborder.png,0,m,Fri Jun 06 2025 09:50:47 GMT-0500 (Central Daylight Time),660610.8999999762,CFD-BM-005-010-A.jpg,2000,dash,O,z,1190,5,1,46868.89999997616,613742.0,7166,ATS,A,18
14,test,2,C,haborder.png,1,m,Fri Jun 06 2025 09:50:47 GMT-0500 (Central Daylight Time),663376.1999999881,CFD-WM-004-005-HC.jpg,1500,solid,O,m,1235,11,1,49634.19999998808,613742.0,7166,ATS,A,19
15,test,2,C,mfborder.png,1,m,Fri Jun 06 2025 09:50:47 GMT-0500 (Central Daylight Time),665759.0,CFD-WM-013-015-A.jpg,1200,dash,O,m,1153,6,1,52017.0,613742.0,7166,ATS,A,20
16,test,2,C,mfborder.png,1,z,Fri Jun 06 2025 09:50:47 GMT-0500 (Central Daylight Time),668724.6999999881,CFD-BF-028-020-HC.jpg,1500,dash,O,z,1438,3,1,54982.69999998808,613742.0,7166,ATS,A,21
17,test,2,C,haborder.png,1,z,Fri Jun 06 2025 09:50:47 GMT-0500 (Central Daylight Time),671606.7999999821,CFD-BF-039-039-A.jpg,1900,solid,O,z,960,8,1,57864.79999998212,613742.0,7166,ATS,A,22
18,test,2,C,mfborder.png,1,z,Fri Jun 06 2025 09:50:47 GMT-0500 (Central Daylight Time),674009.599999994,CFD-WF-019-015-A.jpg,1600,dash,O,z,770,2,1,60267.59999999404,613742.0,7166,ATS,A,23
19,test,2,C,haborder.png,1,m,Fri Jun 06 2025 09:50:47 GMT-0500 (Central Daylight Time),676602.099999994,CFD-BM-029-026-HC.jpg,1600,solid,O,m,979,10,1,62860.09999999404,613742.0,7166,ATS,A,24
0,test,3,C,mfborder.png,0,m,Fri Jun 06 2025 09:50:47 GMT-0500 (Central Daylight Time),682254.0,CFD-BM-029-026-HC.jpg,1200,dash,O,None,1512,6,1,2732.800000011921,679521.1999999881,7166,ATS,A,1
1,test,3,C,haborder.png,1,z,Fri Jun 06 2025 09:50:47 GMT-0500 (Central Daylight Time),685386.2999999821,CFD-BM-010-019-A.jpg,1700,solid,O,z,1415,9,1,5865.0999999940395,679521.1999999881,7166,ATS,A,2
2,test,3,C,mfborder.png,1,m,Fri Jun 06 2025 09:50:47 GMT-0500 (Central Daylight Time),687985.1999999881,CFD-BM-029-026-HC.jpg,1200,dash,O,m,1367,6,1,8464.0,679521.1999999881,7166,ATS,A,3
3,test,3,C,mfborder.png,1,z,Fri Jun 06 2025 09:50:47 GMT-0500 (Central Daylight Time),690917.6999999881,CFD-BF-023-013-A.jpg,1600,dash,O,z,1304,2,1,11396.5,679521.1999999881,7166,ATS,A,4
4,test,3,C,haborder.png,1,m,Fri Jun 06 2025 09:50:47 GMT-0500 (Central Daylight Time),692950.5,CFD-WF-017-016-HC.jpg,1000,solid,O,m,1011,12,1,13429.300000011921,679521.1999999881,7166,ATS,A,5
5,test,3,C,mfborder.png,1,z,Fri Jun 06 2025 09:50:47 GMT-0500 (Central Daylight Time),695716.1999999881,CFD-BF-010-005-HC.jpg,1700,dash,O,z,1039,1,1,16195.0,679521.1999999881,7166,ATS,A,6
5,test,3,C,haborder.png,0,z,Fri Jun 06 2025 09:50:47 GMT-0500 (Central Daylight Time),698431.8999999762,CFD-BM-010-019-A.jpg,1700,solid,O,m,993,9,1,18910.69999998808,679521.1999999881,7166,ATS,A,7
6,test,3,C,mfborder.png,1,m,Fri Jun 06 2025 09:50:47 GMT-0500 (Central Daylight Time),701914.1999999881,CFD-WM-019-013-A.jpg,2000,dash,O,m,1458,5,1,22393.0,679521.1999999881,7166,ATS,A,8
6,test,3,C,mfborder.png,0,m,Fri Jun 06 2025 09:50:47 GMT-0500 (Central Daylight Time),704446.8999999762,CFD-WM-006-013-HC.jpg,1000,dash,O,None,1516,4,1,24925.69999998808,679521.1999999881,7166,ATS,A,9
7,test,3,C,mfborder.png,1,z,Fri Jun 06 2025 09:50:47 GMT-0500 (Central Daylight Time),706829.3999999762,CFD-WF-003-014-A.jpg,1500,dash,O,z,862,3,1,27308.19999998808,679521.1999999881,7166,ATS,A,10
8,test,3,C,mfborder.png,1,z,Fri Jun 06 2025 09:50:47 GMT-0500 (Central Daylight Time),709611.8999999762,CFD-BF-010-005-HC.jpg,1700,dash,O,z,1060,1,1,30090.69999998808,679521.1999999881,7166,ATS,A,11
8,test,3,C,haborder.png,0,m,Fri Jun 06 2025 09:50:47 GMT-0500 (Central Daylight Time),712527.6999999881,CFD-BF-028-020-HC.jpg,1600,solid,O,z,1293,10,1,33006.5,679521.1999999881,7166,ATS,A,12
9,test,3,C,haborder.png,1,z,Fri Jun 06 2025 09:50:47 GMT-0500 (Central Daylight Time),715943.1999999881,CFD-BM-005-010-A.jpg,1900,solid,O,z,1486,8,1,36422.0,679521.1999999881,7166,ATS,A,13
10,test,3,C,haborder.png,1,m,Fri Jun 06 2025 09:50:47 GMT-0500 (Central Daylight Time),718909.099999994,CFD-BF-028-020-HC.jpg,1600,solid,O,m,1346,10,1,39387.90000000596,679521.1999999881,7166,ATS,A,14
11,test,3,C,haborder.png,1,m,Fri Jun 06 2025 09:50:47 GMT-0500 (Central Daylight Time),721208.099999994,CFD-WF-002-008-HC.jpg,1500,solid,O,m,776,11,1,41686.90000000596,679521.1999999881,7166,ATS,A,15
11,test,3,C,haborder.png,0,z,Fri Jun 06 2025 09:50:47 GMT-0500 (Central Daylight Time),724107.1999999881,CFD-BM-005-010-A.jpg,1900,solid,O,m,973,8,1,44586.0,679521.1999999881,7166,ATS,A,16
12,test,3,C,mfborder.png,1,z,Fri Jun 06 2025 09:50:47 GMT-0500 (Central Daylight Time),726773.1999999881,CFD-BF-023-013-A.jpg,1600,dash,O,z,1046,2,1,47252.0,679521.1999999881,7166,ATS,A,17
12,test,3,C,haborder.png,0,m,Fri Jun 06 2025 09:50:47 GMT-0500 (Central Daylight Time),729772.3999999762,CFD-WF-002-008-HC.jpg,1500,solid,O,z,1480,11,1,50251.19999998808,679521.1999999881,7166,ATS,A,18
12,test,3,C,haborder.png,0,m,Fri Jun 06 2025 09:50:47 GMT-0500 (Central Daylight Time),732304.7999999821,CFD-WF-017-016-HC.jpg,1000,solid,O,None,1512,12,1,52783.59999999404,679521.1999999881,7166,ATS,A,19
13,test,3,C,mfborder.png,1,z,Fri Jun 06 2025 09:50:47 GMT-0500 (Central Daylight Time),734687.2999999821,CFD-WF-003-014-A.jpg,1500,dash,O,z,853,3,1,55166.09999999404,679521.1999999881,7166,ATS,A,20
13,test,3,C,haborder.png,0,z,Fri Jun 06 2025 09:50:47 GMT-0500 (Central Daylight Time),736986.5,CFD-WM-013-015-A.jpg,1400,solid,O,m,882,7,1,57465.30000001192,679521.1999999881,7166,ATS,A,21
14,test,3,C,mfborder.png,1,m,Fri Jun 06 2025 09:50:47 GMT-0500 (Central Daylight Time),740202.3999999762,CFD-WM-019-013-A.jpg,2000,dash,O,m,1191,5,1,60681.19999998808,679521.1999999881,7166,ATS,A,22
15,test,3,C,mfborder.png,1,m,Fri Jun 06 2025 09:50:47 GMT-0500 (Central Daylight Time),742384.8999999762,CFD-WM-006-013-HC.jpg,1000,dash,O,m,1151,4,1,62863.69999998808,679521.1999999881,7166,ATS,A,23
16,test,3,C,haborder.png,1,z,Fri Jun 06 2025 09:50:47 GMT-0500 (Central Daylight Time),744850.599999994,CFD-WM-013-015-A.jpg,1400,solid,O,z,1045,7,1,65329.40000000596,679521.1999999881,7166,ATS,A,24
1,test,4,C,mfborder.png,1,z,Fri Jun 06 2025 09:50:47 GMT-0500 (Central Daylight Time),753381.5,CFD-WF-017-016-HC.jpg,1700,dash,O,z,1295,1,1,3015.5,750366.0,7166,ATS,A,1
2,test,4,C,mfborder.png,1,m,Fri Jun 06 2025 09:50:47 GMT-0500 (Central Daylight Time),755164.3999999762,CFD-BM-017-052-HC.jpg,1000,dash,O,m,764,4,1,4798.399999976158,750366.0,7166,ATS,A,2
3,test,4,C,mfborder.png,1,m,Fri Jun 06 2025 09:50:47 GMT-0500 (Central Daylight Time),757330.099999994,CFD-WM-013-015-A.jpg,1200,dash,O,m,949,6,1,6964.0999999940395,750366.0,7166,ATS,A,3
4,test,4,C,mfborder.png,1,m,Fri Jun 06 2025 09:50:47 GMT-0500 (Central Daylight Time),760212.6999999881,CFD-BM-005-010-A.jpg,2000,dash,O,m,863,5,1,9846.699999988079,750366.0,7166,ATS,A,4
4,test,4,C,mfborder.png,0,z,Fri Jun 06 2025 09:50:47 GMT-0500 (Central Daylight Time),762945.099999994,CFD-BF-028-020-HC.jpg,1500,dash,O,m,1209,3,1,12579.09999999404,750366.0,7166,ATS,A,5
5,test,4,C,haborder.png,1,m,Fri Jun 06 2025 09:50:47 GMT-0500 (Central Daylight Time),765210.8999999762,CFD-WM-004-005-HC.jpg,1000,solid,O,m,1248,12,1,14844.899999976158,750366.0,7166,ATS,A,6
6,test,4,C,mfborder.png,1,z,Fri Jun 06 2025 09:50:47 GMT-0500 (Central Daylight Time),767410.2999999821,CFD-BF-028-020-HC.jpg,1500,dash,O,z,674,3,1,17044.29999998212,750366.0,7166,ATS,A,7
6,test,4,C,haborder.png,0,z,Fri Jun 06 2025 09:50:47 GMT-0500 (Central Daylight Time),770209.6999999881,CFD-WF-003-014-A.jpg,1700,solid,O,m,1063,9,1,19843.69999998808,750366.0,7166,ATS,A,8
7,test,4,C,mfborder.png,1,m,Fri Jun 06 2025 09:50:47 GMT-0500 (Central Daylight Time),772459.6999999881,CFD-BM-017-052-HC.jpg,1000,dash,O,m,1223,4,1,22093.69999998808,750366.0,7166,ATS,A,9
8,test,4,C,haborder.png,1,z,Fri Jun 06 2025 09:50:47 GMT-0500 (Central Daylight Time),775307.8999999762,CFD-BF-039-039-A.jpg,1900,solid,O,z,918,8,1,24941.899999976158,750366.0,7166,ATS,A,10
9,test,4,C,mfborder.png,1,z,Fri Jun 06 2025 09:50:47 GMT-0500 (Central Daylight Time),777740.6999999881,CFD-WF-019-015-A.jpg,1600,dash,O,z,813,2,1,27374.69999998808,750366.0,7166,ATS,A,11
9,test,4,C,mfborder.png,0,m,Fri Jun 06 2025 09:50:47 GMT-0500 (Central Daylight Time),780123.2999999821,CFD-WM-013-015-A.jpg,1200,dash,O,z,1157,6,1,29757.29999998212,750366.0,7166,ATS,A,12
10,test,4,C,mfborder.png,1,z,Fri Jun 06 2025 09:50:47 GMT-0500 (Central Daylight Time),782559.2999999821,CFD-WF-019-015-A.jpg,1600,dash,O,z,814,2,1,32193.29999998212,750366.0,7166,ATS,A,13
11,test,4,C,haborder.png,1,z,Fri Jun 06 2025 09:50:47 GMT-0500 (Central Daylight Time),785238.099999994,CFD-BF-023-013-A.jpg,1400,solid,O,z,1262,7,1,34872.09999999404,750366.0,7166,ATS,A,14
11,test,4,C,haborder.png,0,m,Fri Jun 06 2025 09:50:47 GMT-0500 (Central Daylight Time),787854.0,CFD-WM-004-005-HC.jpg,1500,solid,O,z,1095,11,1,37488.0,750366.0,7166,ATS,A,15
12,test,4,C,haborder.png,1,z,Fri Jun 06 2025 09:50:47 GMT-0500 (Central Daylight Time),790319.8999999762,CFD-WF-003-014-A.jpg,1700,solid,O,z,735,9,1,39953.89999997616,750366.0,7166,ATS,A,16
12,test,4,C,mfborder.png,0,z,Fri Jun 06 2025 09:50:47 GMT-0500 (Central Daylight Time),793052.2999999821,CFD-WF-017-016-HC.jpg,1700,dash,O,m,1013,1,1,42686.29999998212,750366.0,7166,ATS,A,17
13,test,4,C,haborder.png,1,m,Fri Jun 06 2025 09:50:47 GMT-0500 (Central Daylight Time),794951.6999999881,CFD-WM-004-005-HC.jpg,1000,solid,O,m,869,12,1,44585.69999998808,750366.0,7166,ATS,A,18
13,test,4,C,mfborder.png,0,m,Fri Jun 06 2025 09:50:47 GMT-0500 (Central Daylight Time),797984.0,CFD-BM-005-010-A.jpg,2000,dash,O,z,1010,5,1,47618.0,750366.0,7166,ATS,A,19
14,test,4,C,haborder.png,1,m,Fri Jun 06 2025 09:50:47 GMT-0500 (Central Daylight Time),800883.2999999821,CFD-BM-029-026-HC.jpg,1600,solid,O,m,1281,10,1,50517.29999998212,750366.0,7166,ATS,A,20
15,test,4,C,haborder.png,1,z,Fri Jun 06 2025 09:50:47 GMT-0500 (Central Daylight Time),803166.0,CFD-BF-023-013-A.jpg,1400,solid,O,z,850,7,1,52800.0,750366.0,7166,ATS,A,21
16,test,4,C,haborder.png,1,z,Fri Jun 06 2025 09:50:47 GMT-0500 (Central Daylight Time),805914.8999999762,CFD-BF-039-039-A.jpg,1900,solid,O,z,832,8,1,55548.89999997616,750366.0,7166,ATS,A,22
17,test,4,C,haborder.png,1,m,Fri Jun 06 2025 09:50:47 GMT-0500 (Central Daylight Time),808080.8999999762,CFD-WM-004-005-HC.jpg,1500,solid,O,m,630,11,1,57714.89999997616,750366.0,7166,ATS,A,23
18,test,4,C,haborder.png,1,m,Fri Jun 06 2025 09:50:47 GMT-0500 (Central Daylight Time),810297.099999994,CFD-BM-029-026-HC.jpg,1600,solid,O,m,592,10,1,59931.09999999404,750366.0,7166,ATS,A,24
