block_c,block_dur,condition,countdown,datetime,endtime,list,multichar_response,project,response,response_time,session_number,start_end,starttime,subject_id,task,task_vers,trial
,,,,Thu Sep 18 2025 14:38:14 GMT-0500 (Central Daylight Time),,,,I,space,493,2,,,8051,WL,A,
prac,,0,,Thu Sep 18 2025 14:38:14 GMT-0500 (Central Daylight Time),,NA,b,I,b,2031,2,,,8051,WL,A,1.0
prac,,0,,Thu Sep 18 2025 14:38:14 GMT-0500 (Central Daylight Time),,NA,bo,I,o,258,2,,,8051,WL,A,1.0
prac,,0,,Thu Sep 18 2025 14:38:14 GMT-0500 (Central Daylight Time),,NA,boo,I,o,151,2,,,8051,WL,A,1.0
prac,,0,,Thu Sep 18 2025 14:38:14 GMT-0500 (Central Daylight Time),,NA,boos,I,s,105,2,,,8051,WL,A,1.0
prac,,0,,Thu Sep 18 2025 14:38:14 GMT-0500 (Central Daylight Time),,NA,boost,I,t,309,2,,,8051,WL,A,1.0
prac,,0,,Thu Sep 18 2025 14:38:14 GMT-0500 (Central Daylight Time),,NA,boostenter,I,enter,2656,2,,,8051,WL,A,1.0
1,7.813999891281128,learn,52186.00010871887,Thu Sep 18 2025 14:38:14 GMT-0500 (Central Daylight Time),143522.40000009537,A,b,I,b,7800,2,7814.0,135708.40000009537,8051,WL,A,1.0
1,10.680000066757202,learn,49319.9999332428,Thu Sep 18 2025 14:38:14 GMT-0500 (Central Daylight Time),146387.90000009537,A,bo,I,o,2848,2,10679.5,135708.40000009537,8051,WL,A,1.0
1,10.829999923706055,learn,49170.000076293945,Thu Sep 18 2025 14:38:14 GMT-0500 (Central Daylight Time),146538.20000004768,A,boo,I,o,134,2,10829.799999952316,135708.40000009537,8051,WL,A,1.0
1,11.44599986076355,learn,48554.00013923645,Thu Sep 18 2025 14:38:14 GMT-0500 (Central Daylight Time),147154.5,A,book,I,k,601,2,11446.099999904633,135708.40000009537,8051,WL,A,1.0
1,14.04699993133545,learn,45953.00006866455,Thu Sep 18 2025 14:38:14 GMT-0500 (Central Daylight Time),149754.79999995232,A,bookenter,I,enter,2585,2,14046.399999856949,135708.40000009537,8051,WL,A,1.0
1,14.411999940872192,learn,45588.00005912781,Thu Sep 18 2025 14:38:14 GMT-0500 (Central Daylight Time),150120.29999995232,A,f,I,f,352,2,365.09999990463257,149755.20000004768,8051,WL,A,2.0
1,14.611999988555908,learn,45388.00001144409,Thu Sep 18 2025 14:38:14 GMT-0500 (Central Daylight Time),150320.09999990463,A,fl,I,l,187,2,564.8999998569489,149755.20000004768,8051,WL,A,2.0
1,14.779000043869019,learn,45220.99995613098,Thu Sep 18 2025 14:38:14 GMT-0500 (Central Daylight Time),150487.09999990463,A,flo,I,o,148,2,731.8999998569489,149755.20000004768,8051,WL,A,2.0
1,14.928999900817871,learn,45071.00009918213,Thu Sep 18 2025 14:38:14 GMT-0500 (Central Daylight Time),150636.79999995232,A,flow,I,w,131,2,881.5999999046326,149755.20000004768,8051,WL,A,2.0
1,15.079999923706055,learn,44920.000076293945,Thu Sep 18 2025 14:38:14 GMT-0500 (Central Daylight Time),150787.70000004768,A,flowe,I,e,143,2,1032.5,149755.20000004768,8051,WL,A,2.0
1,15.312000036239624,learn,44687.999963760376,Thu Sep 18 2025 14:38:14 GMT-0500 (Central Daylight Time),151020.09999990463,A,flower,I,r,215,2,1264.8999998569489,149755.20000004768,8051,WL,A,2.0
1,15.51200008392334,learn,44487.99991607666,Thu Sep 18 2025 14:38:14 GMT-0500 (Central Daylight Time),151220.20000004768,A,flowerenter,I,enter,192,2,1465.0,149755.20000004768,8051,WL,A,2.0
1,15.82800006866455,learn,44171.99993133545,Thu Sep 18 2025 14:38:14 GMT-0500 (Central Daylight Time),151536.5,A,t,I,t,294,2,316.0,151220.5,8051,WL,A,3.0
1,16.045000076293945,learn,43954.999923706055,Thu Sep 18 2025 14:38:14 GMT-0500 (Central Daylight Time),151753.20000004768,A,tr,I,r,195,2,532.7000000476837,151220.5,8051,WL,A,3.0
1,16.244999885559082,learn,43755.00011444092,Thu Sep 18 2025 14:38:14 GMT-0500 (Central Daylight Time),151952.79999995232,A,tra,I,a,186,2,732.2999999523163,151220.5,8051,WL,A,3.0
1,16.42799997329712,learn,43572.00002670288,Thu Sep 18 2025 14:38:14 GMT-0500 (Central Daylight Time),152136.09999990463,A,trai,I,i,162,2,915.5999999046326,151220.5,8051,WL,A,3.0
1,16.59500002861023,learn,43404.99997138977,Thu Sep 18 2025 14:38:14 GMT-0500 (Central Daylight Time),152303.0,A,train,I,n,147,2,1082.5,151220.5,8051,WL,A,3.0
1,16.878000020980835,learn,43121.999979019165,Thu Sep 18 2025 14:38:14 GMT-0500 (Central Daylight Time),152586.09999990463,A,trainenter,I,enter,269,2,1365.5999999046326,151220.5,8051,WL,A,3.0
1,17.361000061035156,learn,42638.999938964844,Thu Sep 18 2025 14:38:14 GMT-0500 (Central Daylight Time),153069.20000004768,A,r,I,r,474,2,482.7999999523163,152586.40000009537,8051,WL,A,4.0
1,17.644999980926514,learn,42355.000019073486,Thu Sep 18 2025 14:38:14 GMT-0500 (Central Daylight Time),153352.70000004768,A,ru,I,u,263,2,766.2999999523163,152586.40000009537,8051,WL,A,4.0
1,17.91100001335144,learn,42088.99998664856,Thu Sep 18 2025 14:38:14 GMT-0500 (Central Daylight Time),153619.0,A,rug,I,g,251,2,1032.5999999046326,152586.40000009537,8051,WL,A,4.0
1,18.17799997329712,learn,41822.00002670288,Thu Sep 18 2025 14:38:14 GMT-0500 (Central Daylight Time),153885.79999995232,A,rugenter,I,enter,257,2,1299.3999998569489,152586.40000009537,8051,WL,A,4.0
1,18.51099991798401,learn,41489.00008201599,Thu Sep 18 2025 14:38:14 GMT-0500 (Central Daylight Time),154219.0,A,m,I,m,326,2,332.7000000476837,153886.29999995232,8051,WL,A,5.0
1,18.677000045776367,learn,41322.99995422363,Thu Sep 18 2025 14:38:14 GMT-0500 (Central Daylight Time),154385.59999990463,A,me,I,e,145,2,499.2999999523163,153886.29999995232,8051,WL,A,5.0
1,18.861000061035156,learn,41138.999938964844,Thu Sep 18 2025 14:38:14 GMT-0500 (Central Daylight Time),154568.79999995232,A,mea,I,a,169,2,682.5,153886.29999995232,8051,WL,A,5.0
1,18.97699999809265,learn,41023.00000190735,Thu Sep 18 2025 14:38:14 GMT-0500 (Central Daylight Time),154685.5,A,mead,I,d,99,2,799.2000000476837,153886.29999995232,8051,WL,A,5.0
1,19.14400005340576,learn,40855.99994659424,Thu Sep 18 2025 14:38:14 GMT-0500 (Central Daylight Time),154852.20000004768,A,meado,I,o,150,2,965.9000000953674,153886.29999995232,8051,WL,A,5.0
1,19.32699990272522,learn,40673.00009727478,Thu Sep 18 2025 14:38:14 GMT-0500 (Central Daylight Time),155035.5,A,meadow,I,w,168,2,1149.2000000476837,153886.29999995232,8051,WL,A,5.0
1,19.509999990463257,learn,40490.00000953674,Thu Sep 18 2025 14:38:14 GMT-0500 (Central Daylight Time),155218.20000004768,A,meadowenter,I,enter,177,2,1331.9000000953674,153886.29999995232,8051,WL,A,5.0
1,20.16000008583069,learn,39839.99991416931,Thu Sep 18 2025 14:38:14 GMT-0500 (Central Daylight Time),155868.40000009537,A,f,I,f,633,2,649.8000001907349,155218.59999990463,8051,WL,A,6.0
1,20.376999855041504,learn,39623.000144958496,Thu Sep 18 2025 14:38:14 GMT-0500 (Central Daylight Time),156085.20000004768,A,fl,I,l,199,2,866.6000001430511,155218.59999990463,8051,WL,A,6.0
1,20.542999982833862,learn,39457.00001716614,Thu Sep 18 2025 14:38:14 GMT-0500 (Central Daylight Time),156251.59999990463,A,flo,I,o,150,2,1033.0,155218.59999990463,8051,WL,A,6.0
1,20.693000078201294,learn,39306.999921798706,Thu Sep 18 2025 14:38:14 GMT-0500 (Central Daylight Time),156401.40000009537,A,flow,I,w,128,2,1182.8000001907349,155218.59999990463,8051,WL,A,6.0
1,20.776999950408936,learn,39223.000049591064,Thu Sep 18 2025 14:38:14 GMT-0500 (Central Daylight Time),156484.70000004768,A,flowe,I,e,75,2,1266.1000001430511,155218.59999990463,8051,WL,A,6.0
1,21.042999982833862,learn,38957.00001716614,Thu Sep 18 2025 14:38:14 GMT-0500 (Central Daylight Time),156751.29999995232,A,flower,I,r,254,2,1532.7000000476837,155218.59999990463,8051,WL,A,6.0
1,21.493000030517578,learn,38506.99996948242,Thu Sep 18 2025 14:38:14 GMT-0500 (Central Daylight Time),157201.20000004768,A,flowerenter,I,enter,437,2,1982.6000001430511,155218.59999990463,8051,WL,A,6.0
1,24.89199995994568,learn,35108.00004005432,Thu Sep 18 2025 14:38:14 GMT-0500 (Central Daylight Time),160600.09999990463,A,g,I,g,3378,2,3398.399999856949,157201.70000004768,8051,WL,A,7.0
1,25.04200005531311,learn,34957.99994468689,Thu Sep 18 2025 14:38:14 GMT-0500 (Central Daylight Time),160750.29999995232,A,go,I,o,132,2,3548.5999999046326,157201.70000004768,8051,WL,A,7.0
1,25.191999912261963,learn,34808.00008773804,Thu Sep 18 2025 14:38:14 GMT-0500 (Central Daylight Time),160900.20000004768,A,gol,I,l,134,2,3698.5,157201.70000004768,8051,WL,A,7.0
1,25.325999975204468,learn,34674.00002479553,Thu Sep 18 2025 14:38:14 GMT-0500 (Central Daylight Time),161033.70000004768,A,gold,I,d,120,2,3832.0,157201.70000004768,8051,WL,A,7.0
1,25.509000062942505,learn,34490.999937057495,Thu Sep 18 2025 14:38:14 GMT-0500 (Central Daylight Time),161216.59999990463,A,goldenter,I,enter,163,2,4014.899999856949,157201.70000004768,8051,WL,A,7.0
1,26.757999897003174,learn,33242.000102996826,Thu Sep 18 2025 14:38:14 GMT-0500 (Central Daylight Time),162465.90000009537,A,r,I,r,1242,2,1248.7000000476837,161217.20000004768,8051,WL,A,8.0
1,27.007999897003174,learn,32992.000102996826,Thu Sep 18 2025 14:38:14 GMT-0500 (Central Daylight Time),162716.40000009537,A,ru,I,u,234,2,1499.2000000476837,161217.20000004768,8051,WL,A,8.0
1,27.174999952316284,learn,32825.000047683716,Thu Sep 18 2025 14:38:14 GMT-0500 (Central Daylight Time),162882.90000009537,A,rug,I,g,152,2,1665.7000000476837,161217.20000004768,8051,WL,A,8.0
1,27.35800004005432,learn,32641.99995994568,Thu Sep 18 2025 14:38:14 GMT-0500 (Central Daylight Time),163066.0,A,rugenter,I,enter,178,2,1848.7999999523163,161217.20000004768,8051,WL,A,8.0
1,35.40499997138977,learn,24595.00002861023,Thu Sep 18 2025 14:38:14 GMT-0500 (Central Daylight Time),171113.59999990463,A,s,I,s,8042,2,8047.299999952316,163066.29999995232,8051,WL,A,9.0
1,35.605000019073486,learn,24394.999980926514,Thu Sep 18 2025 14:38:14 GMT-0500 (Central Daylight Time),171313.29999995232,A,sa,I,a,194,2,8247.0,163066.29999995232,8051,WL,A,9.0
1,35.73900008201599,learn,24260.99991798401,Thu Sep 18 2025 14:38:14 GMT-0500 (Central Daylight Time),171446.79999995232,A,sal,I,l,115,2,8380.5,163066.29999995232,8051,WL,A,9.0
1,35.954999923706055,learn,24045.000076293945,Thu Sep 18 2025 14:38:14 GMT-0500 (Central Daylight Time),171663.29999995232,A,salt,I,t,206,2,8597.0,163066.29999995232,8051,WL,A,9.0
1,36.13800001144409,learn,23861.99998855591,Thu Sep 18 2025 14:38:14 GMT-0500 (Central Daylight Time),171846.5,A,saltenter,I,enter,173,2,8780.200000047684,163066.29999995232,8051,WL,A,9.0
1,39.47099995613098,learn,20529.00004386902,Thu Sep 18 2025 14:38:14 GMT-0500 (Central Daylight Time),175178.79999995232,A,h,I,h,3318,2,3332.0,171846.79999995232,8051,WL,A,10.0
1,39.58699989318848,learn,20413.000106811523,Thu Sep 18 2025 14:38:14 GMT-0500 (Central Daylight Time),175295.40000009537,A,ha,I,a,97,2,3448.600000143051,171846.79999995232,8051,WL,A,10.0
1,39.75399994850159,learn,20246.000051498413,Thu Sep 18 2025 14:38:14 GMT-0500 (Central Daylight Time),175462.20000004768,A,har,I,r,149,2,3615.4000000953674,171846.79999995232,8051,WL,A,10.0
1,39.9539999961853,learn,20046.000003814697,Thu Sep 18 2025 14:38:14 GMT-0500 (Central Daylight Time),175662.59999990463,A,harp,I,p,182,2,3815.7999999523163,171846.79999995232,8051,WL,A,10.0
1,40.23699998855591,learn,19763.00001144409,Thu Sep 18 2025 14:38:14 GMT-0500 (Central Daylight Time),175945.29999995232,A,harpenter,I,enter,277,2,4098.5,171846.79999995232,8051,WL,A,10.0
1,50.132999897003174,learn,9867.000102996826,Thu Sep 18 2025 14:38:14 GMT-0500 (Central Daylight Time),185842.59999990463,A,j,I,j,9884,2,9897.099999904633,175945.5,8051,WL,A,11.0
1,50.73300004005432,learn,9266.999959945679,Thu Sep 18 2025 14:38:14 GMT-0500 (Central Daylight Time),186441.79999995232,A,ja,I,a,592,2,10496.299999952316,175945.5,8051,WL,A,11.0
1,50.89999985694885,learn,9100.000143051147,Thu Sep 18 2025 14:38:14 GMT-0500 (Central Daylight Time),186608.90000009537,A,jar,I,r,147,2,10663.400000095367,175945.5,8051,WL,A,11.0
1,51.098999977111816,learn,8901.000022888184,Thu Sep 18 2025 14:38:14 GMT-0500 (Central Daylight Time),186808.59999990463,A,jarenter,I,enter,179,2,10863.099999904633,175945.5,8051,WL,A,11.0
1,60.01300001144409,learn,-13.000011444091797,Thu Sep 18 2025 14:38:14 GMT-0500 (Central Daylight Time),195722.59999990463,A,None,I,None,8909,2,8913.699999809265,186808.90000009537,8051,WL,A,12.0
2,1.0829999446868896,learn,58917.00005531311,Thu Sep 18 2025 14:38:14 GMT-0500 (Central Daylight Time),269666.09999990463,A,a,I,a,1070,2,1082.6999998092651,268583.40000009537,8051,WL,A,1.0
2,1.3660001754760742,learn,58633.999824523926,Thu Sep 18 2025 14:38:14 GMT-0500 (Central Daylight Time),269949.5,A,ap,I,p,265,2,1366.0999999046326,268583.40000009537,8051,WL,A,1.0
2,1.499000072479248,learn,58500.99992752075,Thu Sep 18 2025 14:38:14 GMT-0500 (Central Daylight Time),270082.2000000477,A,app,I,p,127,2,1498.7999999523163,268583.40000009537,8051,WL,A,1.0
2,1.6820001602172852,learn,58317.999839782715,Thu Sep 18 2025 14:38:14 GMT-0500 (Central Daylight Time),270265.59999990463,A,appl,I,l,170,2,1682.1999998092651,268583.40000009537,8051,WL,A,1.0
2,1.8489999771118164,learn,58151.00002288818,Thu Sep 18 2025 14:38:14 GMT-0500 (Central Daylight Time),270432.59999990463,A,apple,I,e,155,2,1849.1999998092651,268583.40000009537,8051,WL,A,1.0
2,2.699000120162964,learn,57300.999879837036,Thu Sep 18 2025 14:38:14 GMT-0500 (Central Daylight Time),271282.2000000477,A,appleenter,I,enter,836,2,2698.7999999523163,268583.40000009537,8051,WL,A,1.0
2,3.1649999618530273,learn,56835.00003814697,Thu Sep 18 2025 14:38:14 GMT-0500 (Central Daylight Time),271748.7000000477,A,c,I,c,458,2,466.10000014305115,271282.59999990463,8051,WL,A,2.0
2,3.432000160217285,learn,56567.999839782715,Thu Sep 18 2025 14:38:14 GMT-0500 (Central Daylight Time),272015.2000000477,A,ch,I,h,256,2,732.6000001430511,271282.59999990463,8051,WL,A,2.0
2,3.7150001525878906,learn,56284.99984741211,Thu Sep 18 2025 14:38:14 GMT-0500 (Central Daylight Time),272298.40000009537,A,chi,I,i,276,2,1015.8000001907349,271282.59999990463,8051,WL,A,2.0
2,4.980999946594238,learn,55019.00005340576,Thu Sep 18 2025 14:38:14 GMT-0500 (Central Daylight Time),273564.7999999523,A,chin,I,n,1249,2,2282.2000000476837,271282.59999990463,8051,WL,A,2.0
2,5.930999994277954,learn,54069.000005722046,Thu Sep 18 2025 14:38:14 GMT-0500 (Central Daylight Time),274514.59999990463,A,chinn,I,n,943,2,3232.0,271282.59999990463,8051,WL,A,2.0
2,6.0980000495910645,learn,53901.999950408936,Thu Sep 18 2025 14:38:14 GMT-0500 (Central Daylight Time),274681.0,A,chinne,I,e,146,2,3398.4000000953674,271282.59999990463,8051,WL,A,2.0
2,6.248000144958496,learn,53751.999855041504,Thu Sep 18 2025 14:38:14 GMT-0500 (Central Daylight Time),274831.5,A,chinney,I,y,133,2,3548.9000000953674,271282.59999990463,8051,WL,A,2.0
2,6.54800009727478,learn,53451.99990272522,Thu Sep 18 2025 14:38:14 GMT-0500 (Central Daylight Time),275131.0,A,chinneyenter,I,enter,285,2,3848.4000000953674,271282.59999990463,8051,WL,A,2.0
2,8.664000034332275,learn,51335.999965667725,Thu Sep 18 2025 14:38:14 GMT-0500 (Central Daylight Time),277246.90000009537,A,f,I,f,2105,2,2115.600000143051,275131.2999999523,8051,WL,A,3.0
2,8.864000082015991,learn,51135.99991798401,Thu Sep 18 2025 14:38:14 GMT-0500 (Central Daylight Time),277446.90000009537,A,fi,I,i,189,2,2315.600000143051,275131.2999999523,8051,WL,A,3.0
2,9.080000162124634,learn,50919.999837875366,Thu Sep 18 2025 14:38:14 GMT-0500 (Central Daylight Time),277663.5,A,fin,I,n,197,2,2532.2000000476837,275131.2999999523,8051,WL,A,3.0
2,9.27999997138977,learn,50720.00002861023,Thu Sep 18 2025 14:38:14 GMT-0500 (Central Daylight Time),277863.2000000477,A,fing,I,g,189,2,2731.9000000953674,275131.2999999523,8051,WL,A,3.0
2,9.595999956130981,learn,50404.00004386902,Thu Sep 18 2025 14:38:14 GMT-0500 (Central Daylight Time),278179.90000009537,A,finge,I,e,302,2,3048.600000143051,275131.2999999523,8051,WL,A,3.0
2,9.647000074386597,learn,50352.9999256134,Thu Sep 18 2025 14:38:14 GMT-0500 (Central Daylight Time),278230.2999999523,A,finger,I,r,40,2,3099.0,275131.2999999523,8051,WL,A,3.0
2,10.062999963760376,learn,49937.000036239624,Thu Sep 18 2025 14:38:14 GMT-0500 (Central Daylight Time),278646.5,A,finge,I,backspace,406,2,3515.2000000476837,275131.2999999523,8051,WL,A,3.0
2,11.046000003814697,learn,48953.9999961853,Thu Sep 18 2025 14:38:14 GMT-0500 (Central Daylight Time),279629.7000000477,A,finger,I,r,974,2,4498.400000095367,275131.2999999523,8051,WL,A,3.0
2,11.196000099182129,learn,48803.99990081787,Thu Sep 18 2025 14:38:14 GMT-0500 (Central Daylight Time),279779.5,A,fingerenter,I,enter,135,2,4648.200000047684,275131.2999999523,8051,WL,A,3.0
2,17.311000108718872,learn,42688.99989128113,Thu Sep 18 2025 14:38:14 GMT-0500 (Central Daylight Time),285894.5,A,s,I,s,6097,2,6114.700000047684,279779.7999999523,8051,WL,A,4.0
2,17.460999965667725,learn,42539.000034332275,Thu Sep 18 2025 14:38:14 GMT-0500 (Central Daylight Time),286044.2999999523,A,sa,I,a,141,2,6264.5,279779.7999999523,8051,WL,A,4.0
2,17.594000101089478,learn,42405.99989891052,Thu Sep 18 2025 14:38:14 GMT-0500 (Central Daylight Time),286177.2000000477,A,sal,I,l,128,2,6397.400000095367,279779.7999999523,8051,WL,A,4.0
2,17.794000148773193,learn,42205.99985122681,Thu Sep 18 2025 14:38:14 GMT-0500 (Central Daylight Time),286377.2000000477,A,salt,I,t,195,2,6597.400000095367,279779.7999999523,8051,WL,A,4.0
2,18.094000101089478,learn,41905.99989891052,Thu Sep 18 2025 14:38:14 GMT-0500 (Central Daylight Time),286677.2000000477,A,saltenter,I,enter,291,2,6897.400000095367,279779.7999999523,8051,WL,A,4.0
2,19.594000101089478,learn,40405.99989891052,Thu Sep 18 2025 14:38:14 GMT-0500 (Central Daylight Time),288177.2000000477,A,b,I,b,1487,2,1499.6000001430511,286677.59999990463,8051,WL,A,5.0
2,20.177000045776367,learn,39822.99995422363,Thu Sep 18 2025 14:38:14 GMT-0500 (Central Daylight Time),288760.0,A,bu,I,u,571,2,2082.4000000953674,286677.59999990463,8051,WL,A,5.0
2,20.3270001411438,learn,39672.9998588562,Thu Sep 18 2025 14:38:14 GMT-0500 (Central Daylight Time),288910.0,A,but,I,t,132,2,2232.4000000953674,286677.59999990463,8051,WL,A,5.0
2,20.460000038146973,learn,39539.99996185303,Thu Sep 18 2025 14:38:14 GMT-0500 (Central Daylight Time),289043.2999999523,A,butt,I,t,118,2,2365.7000000476837,286677.59999990463,8051,WL,A,5.0
2,20.593000173568726,learn,39406.999826431274,Thu Sep 18 2025 14:38:14 GMT-0500 (Central Daylight Time),289176.90000009537,A,butto,I,o,112,2,2499.300000190735,286677.59999990463,8051,WL,A,5.0
2,20.792999982833862,learn,39207.00001716614,Thu Sep 18 2025 14:38:14 GMT-0500 (Central Daylight Time),289376.40000009537,A,button,I,n,179,2,2698.800000190735,286677.59999990463,8051,WL,A,5.0
2,21.210000038146973,learn,38789.99996185303,Thu Sep 18 2025 14:38:14 GMT-0500 (Central Daylight Time),289793.09999990463,A,buttonenter,I,enter,396,2,3115.5,286677.59999990463,8051,WL,A,5.0
2,23.475000143051147,learn,36524.99985694885,Thu Sep 18 2025 14:38:14 GMT-0500 (Central Daylight Time),292059.0,A,b,I,b,2258,2,2265.5,289793.5,8051,WL,A,6.0
2,23.64199995994568,learn,36358.00004005432,Thu Sep 18 2025 14:38:14 GMT-0500 (Central Daylight Time),292225.7999999523,A,bo,I,o,154,2,2432.2999999523163,289793.5,8051,WL,A,6.0
2,23.79200005531311,learn,36207.99994468689,Thu Sep 18 2025 14:38:14 GMT-0500 (Central Daylight Time),292375.5,A,boo,I,o,139,2,2582.0,289793.5,8051,WL,A,6.0
2,23.95900011062622,learn,36040.99988937378,Thu Sep 18 2025 14:38:14 GMT-0500 (Central Daylight Time),292542.09999990463,A,book,I,k,157,2,2748.5999999046326,289793.5,8051,WL,A,6.0
2,24.2260000705719,learn,35773.9999294281,Thu Sep 18 2025 14:38:14 GMT-0500 (Central Daylight Time),292809.0,A,bookenter,I,enter,254,2,3015.5,289793.5,8051,WL,A,6.0
2,24.475000143051147,learn,35524.99985694885,Thu Sep 18 2025 14:38:14 GMT-0500 (Central Daylight Time),293058.7999999523,A,f,I,f,235,2,249.39999985694885,292809.40000009537,8051,WL,A,7.0
2,24.674999952316284,learn,35325.000047683716,Thu Sep 18 2025 14:38:14 GMT-0500 (Central Daylight Time),293258.90000009537,A,fl,I,l,186,2,449.5,292809.40000009537,8051,WL,A,7.0
2,24.842000007629395,learn,35157.999992370605,Thu Sep 18 2025 14:38:14 GMT-0500 (Central Daylight Time),293425.2000000477,A,flo,I,o,162,2,615.7999999523163,292809.40000009537,8051,WL,A,7.0
2,25.058000087738037,learn,34941.99991226196,Thu Sep 18 2025 14:38:14 GMT-0500 (Central Daylight Time),293641.7000000477,A,flow,I,w,211,2,832.2999999523163,292809.40000009537,8051,WL,A,7.0
2,25.174999952316284,learn,34825.000047683716,Thu Sep 18 2025 14:38:14 GMT-0500 (Central Daylight Time),293758.2999999523,A,flowe,I,e,107,2,948.8999998569489,292809.40000009537,8051,WL,A,7.0
2,25.442000150680542,learn,34557.99984931946,Thu Sep 18 2025 14:38:14 GMT-0500 (Central Daylight Time),294025.09999990463,A,flower,I,r,246,2,1215.6999998092651,292809.40000009537,8051,WL,A,7.0
2,25.64199995994568,learn,34358.00004005432,Thu Sep 18 2025 14:38:14 GMT-0500 (Central Daylight Time),294225.0,A,flowerenter,I,enter,195,2,1415.5999999046326,292809.40000009537,8051,WL,A,7.0
2,25.95799994468689,learn,34042.00005531311,Thu Sep 18 2025 14:38:14 GMT-0500 (Central Daylight Time),294541.7999999523,A,t,I,t,308,2,316.59999990463257,294225.2000000477,8051,WL,A,8.0
2,26.174999952316284,learn,33825.000047683716,Thu Sep 18 2025 14:38:14 GMT-0500 (Central Daylight Time),294758.5,A,tr,I,r,199,2,533.2999999523163,294225.2000000477,8051,WL,A,8.0
2,26.341000080108643,learn,33658.99991989136,Thu Sep 18 2025 14:38:14 GMT-0500 (Central Daylight Time),294924.5,A,tra,I,a,157,2,699.2999999523163,294225.2000000477,8051,WL,A,8.0
2,26.475000143051147,learn,33524.99985694885,Thu Sep 18 2025 14:38:14 GMT-0500 (Central Daylight Time),295058.09999990463,A,trai,I,i,128,2,832.8999998569489,294225.2000000477,8051,WL,A,8.0
2,26.641000032424927,learn,33358.99996757507,Thu Sep 18 2025 14:38:14 GMT-0500 (Central Daylight Time),295224.7999999523,A,train,I,n,147,2,999.5999999046326,294225.2000000477,8051,WL,A,8.0
2,26.907999992370605,learn,33092.000007629395,Thu Sep 18 2025 14:38:14 GMT-0500 (Central Daylight Time),295491.2999999523,A,trainenter,I,enter,259,2,1266.0999999046326,294225.2000000477,8051,WL,A,8.0
2,28.92300009727478,learn,31076.99990272522,Thu Sep 18 2025 14:38:14 GMT-0500 (Central Daylight Time),297507.2999999523,A,s,I,s,2009,2,2015.7000000476837,295491.59999990463,8051,WL,A,9.0
2,29.10599994659424,learn,30894.00005340576,Thu Sep 18 2025 14:38:14 GMT-0500 (Central Daylight Time),297690.7999999523,A,sa,I,a,169,2,2199.2000000476837,295491.59999990463,8051,WL,A,9.0
2,29.23900008201599,learn,30760.99991798401,Thu Sep 18 2025 14:38:14 GMT-0500 (Central Daylight Time),297823.7999999523,A,sal,I,l,120,2,2332.2000000476837,295491.59999990463,8051,WL,A,9.0
2,29.390000104904175,learn,30609.999895095825,Thu Sep 18 2025 14:38:14 GMT-0500 (Central Daylight Time),297974.2000000477,A,salt,I,t,141,2,2482.600000143051,295491.59999990463,8051,WL,A,9.0
2,29.555999994277954,learn,30444.000005722046,Thu Sep 18 2025 14:38:14 GMT-0500 (Central Daylight Time),298140.2000000477,A,saltenter,I,enter,157,2,2648.600000143051,295491.59999990463,8051,WL,A,9.0
2,42.60199999809265,learn,17398.00000190735,Thu Sep 18 2025 14:38:14 GMT-0500 (Central Daylight Time),311186.2000000477,A,t,I,t,13032,2,13045.700000047684,298140.5,8051,WL,A,10.0
2,43.485000133514404,learn,16514.999866485596,Thu Sep 18 2025 14:38:14 GMT-0500 (Central Daylight Time),312069.40000009537,A,tr,I,r,874,2,13928.900000095367,298140.5,8051,WL,A,10.0
2,43.718000173568726,learn,16281.999826431274,Thu Sep 18 2025 14:38:14 GMT-0500 (Central Daylight Time),312302.7999999523,A,tra,I,a,215,2,14162.299999952316,298140.5,8051,WL,A,10.0
2,43.85199999809265,learn,16148.000001907349,Thu Sep 18 2025 14:38:14 GMT-0500 (Central Daylight Time),312436.09999990463,A,trai,I,i,117,2,14295.599999904633,298140.5,8051,WL,A,10.0
2,44.01800012588501,learn,15981.99987411499,Thu Sep 18 2025 14:38:14 GMT-0500 (Central Daylight Time),312602.59999990463,A,train,I,n,159,2,14462.099999904633,298140.5,8051,WL,A,10.0
2,44.6010000705719,learn,15398.9999294281,Thu Sep 18 2025 14:38:14 GMT-0500 (Central Daylight Time),313185.7999999523,A,trainenter,I,enter,563,2,15045.299999952316,298140.5,8051,WL,A,10.0
2,49.81599998474121,learn,10184.000015258789,Thu Sep 18 2025 14:38:14 GMT-0500 (Central Daylight Time),318400.90000009537,A,a,I,a,5195,2,5214.800000190735,313186.09999990463,8051,WL,A,11.0
2,50.032999992370605,learn,9967.000007629395,Thu Sep 18 2025 14:38:14 GMT-0500 (Central Daylight Time),318617.40000009537,A,ap,I,p,203,2,5431.300000190735,313186.09999990463,8051,WL,A,11.0
2,50.18300008773804,learn,9816.999912261963,Thu Sep 18 2025 14:38:14 GMT-0500 (Central Daylight Time),318767.2000000477,A,app,I,p,131,2,5581.100000143051,313186.09999990463,8051,WL,A,11.0
2,50.35000014305115,learn,9649.999856948853,Thu Sep 18 2025 14:38:14 GMT-0500 (Central Daylight Time),318934.09999990463,A,appl,I,l,157,2,5748.0,313186.09999990463,8051,WL,A,11.0
2,50.48300004005432,learn,9516.999959945679,Thu Sep 18 2025 14:38:14 GMT-0500 (Central Daylight Time),319067.09999990463,A,apple,I,e,118,2,5881.0,313186.09999990463,8051,WL,A,11.0
2,50.64900016784668,learn,9350.99983215332,Thu Sep 18 2025 14:38:14 GMT-0500 (Central Daylight Time),319233.40000009537,A,appleenter,I,enter,162,2,6047.300000190735,313186.09999990463,8051,WL,A,11.0
2,51.29900002479553,learn,8700.999975204468,Thu Sep 18 2025 14:38:14 GMT-0500 (Central Daylight Time),319883.90000009537,A,c,I,c,635,2,650.2000000476837,319233.7000000477,8051,WL,A,12.0
2,51.48200011253357,learn,8517.99988746643,Thu Sep 18 2025 14:38:14 GMT-0500 (Central Daylight Time),320066.7999999523,A,ch,I,h,168,2,833.0999999046326,319233.7000000477,8051,WL,A,12.0
2,51.74900007247925,learn,8250.999927520752,Thu Sep 18 2025 14:38:14 GMT-0500 (Central Daylight Time),320333.5,A,chi,I,i,258,2,1099.7999999523163,319233.7000000477,8051,WL,A,12.0
2,51.949000120162964,learn,8050.999879837036,Thu Sep 18 2025 14:38:14 GMT-0500 (Central Daylight Time),320533.40000009537,A,chin,I,n,191,2,1299.7000000476837,319233.7000000477,8051,WL,A,12.0
2,53.08200001716614,learn,6917.999982833862,Thu Sep 18 2025 14:38:14 GMT-0500 (Central Daylight Time),321666.2999999523,A,chinb,I,b,1127,2,2432.5999999046326,319233.7000000477,8051,WL,A,12.0
2,53.182000160217285,learn,6817.999839782715,Thu Sep 18 2025 14:38:14 GMT-0500 (Central Daylight Time),321766.40000009537,A,chinbe,I,e,90,2,2532.7000000476837,319233.7000000477,8051,WL,A,12.0
2,53.46500015258789,learn,6534.999847412109,Thu Sep 18 2025 14:38:14 GMT-0500 (Central Daylight Time),322049.59999990463,A,chinbey,I,y,278,2,2815.899999856949,319233.7000000477,8051,WL,A,12.0
2,53.848000049591064,learn,6151.999950408936,Thu Sep 18 2025 14:38:14 GMT-0500 (Central Daylight Time),322433.0,A,chinbeyenter,I,enter,371,2,3199.2999999523163,319233.7000000477,8051,WL,A,12.0
2,60.01300001144409,learn,-13.000011444091797,Thu Sep 18 2025 14:38:14 GMT-0500 (Central Daylight Time),328597.7000000477,A,None,I,None,6159,2,6164.400000095367,322433.2999999523,8051,WL,A,13.0
3,0.36700010299682617,learn,59632.999897003174,Thu Sep 18 2025 14:38:14 GMT-0500 (Central Daylight Time),395160.0,A,a,I,a,356,2,366.5,394793.5,8051,WL,A,1.0
3,0.81600022315979,learn,59183.99977684021,Thu Sep 18 2025 14:38:14 GMT-0500 (Central Daylight Time),395609.7000000477,A,ap,I,p,444,2,816.2000000476837,394793.5,8051,WL,A,1.0
3,0.9830000400543213,learn,59016.99995994568,Thu Sep 18 2025 14:38:14 GMT-0500 (Central Daylight Time),395776.7999999523,A,app,I,p,155,2,983.2999999523163,394793.5,8051,WL,A,1.0
3,1.183000087738037,learn,58816.99991226196,Thu Sep 18 2025 14:38:14 GMT-0500 (Central Daylight Time),395976.5,A,appk,I,k,180,2,1183.0,394793.5,8051,WL,A,1.0
3,1.2670001983642578,learn,58732.99980163574,Thu Sep 18 2025 14:38:14 GMT-0500 (Central Daylight Time),396059.90000009537,A,appke,I,e,76,2,1266.4000000953674,394793.5,8051,WL,A,1.0
3,1.5830001831054688,learn,58416.99981689453,Thu Sep 18 2025 14:38:14 GMT-0500 (Central Daylight Time),396376.2999999523,A,appkeenter,I,enter,305,2,1582.7999999523163,394793.5,8051,WL,A,1.0
3,2.56600022315979,learn,57433.99977684021,Thu Sep 18 2025 14:38:14 GMT-0500 (Central Daylight Time),397359.40000009537,A,c,I,c,972,2,982.7000000476837,396376.7000000477,8051,WL,A,2.0
3,2.866000175476074,learn,57133.999824523926,Thu Sep 18 2025 14:38:14 GMT-0500 (Central Daylight Time),397659.2999999523,A,ch,I,h,293,2,1282.5999999046326,396376.7000000477,8051,WL,A,2.0
3,3.632000207901001,learn,56367.999792099,Thu Sep 18 2025 14:38:14 GMT-0500 (Central Daylight Time),398425.40000009537,A,chi,I,i,761,2,2048.7000000476837,396376.7000000477,8051,WL,A,2.0
3,3.865000009536743,learn,56134.99999046326,Thu Sep 18 2025 14:38:14 GMT-0500 (Central Daylight Time),398658.7999999523,A,chin,I,n,219,2,2282.0999999046326,396376.7000000477,8051,WL,A,2.0
3,4.132000207901001,learn,55867.999792099,Thu Sep 18 2025 14:38:14 GMT-0500 (Central Daylight Time),398925.7000000477,A,chine,I,e,249,2,2549.0,396376.7000000477,8051,WL,A,2.0
3,4.31600022315979,learn,55683.99977684021,Thu Sep 18 2025 14:38:14 GMT-0500 (Central Daylight Time),399108.90000009537,A,chiney,I,y,167,2,2732.2000000476837,396376.7000000477,8051,WL,A,2.0
3,4.6650002002716064,learn,55334.99979972839,Thu Sep 18 2025 14:38:14 GMT-0500 (Central Daylight Time),399458.59999990463,A,chineyenter,I,enter,335,2,3081.899999856949,396376.7000000477,8051,WL,A,2.0
3,5.432000160217285,learn,54567.999839782715,Thu Sep 18 2025 14:38:14 GMT-0500 (Central Daylight Time),400224.90000009537,A,b,I,b,754,2,766.1000001430511,399458.7999999523,8051,WL,A,3.0
3,5.682000160217285,learn,54317.999839782715,Thu Sep 18 2025 14:38:14 GMT-0500 (Central Daylight Time),400475.0,A,bu,I,u,236,2,1016.2000000476837,399458.7999999523,8051,WL,A,3.0
3,5.898000001907349,learn,54101.99999809265,Thu Sep 18 2025 14:38:14 GMT-0500 (Central Daylight Time),400691.7000000477,A,but,I,t,209,2,1232.9000000953674,399458.7999999523,8051,WL,A,3.0
3,6.04800009727478,learn,53951.99990272522,Thu Sep 18 2025 14:38:14 GMT-0500 (Central Daylight Time),400841.59999990463,A,butt,I,t,136,2,1382.7999999523163,399458.7999999523,8051,WL,A,3.0
3,6.181000232696533,learn,53818.99976730347,Thu Sep 18 2025 14:38:14 GMT-0500 (Central Daylight Time),400974.7000000477,A,butto,I,o,123,2,1515.9000000953674,399458.7999999523,8051,WL,A,3.0
3,6.38100004196167,learn,53618.99995803833,Thu Sep 18 2025 14:38:14 GMT-0500 (Central Daylight Time),401174.7000000477,A,button,I,n,191,2,1715.9000000953674,399458.7999999523,8051,WL,A,3.0
3,6.931000232696533,learn,53068.99976730347,Thu Sep 18 2025 14:38:14 GMT-0500 (Central Daylight Time),401724.7999999523,A,buttonenter,I,enter,534,2,2266.0,399458.7999999523,8051,WL,A,3.0
3,7.79800009727478,learn,52201.99990272522,Thu Sep 18 2025 14:38:14 GMT-0500 (Central Daylight Time),402591.0,A,l,I,l,848,2,865.9000000953674,401725.09999990463,8051,WL,A,4.0
3,7.981000185012817,learn,52018.99981498718,Thu Sep 18 2025 14:38:14 GMT-0500 (Central Daylight Time),402774.2999999523,A,lo,I,o,166,2,1049.2000000476837,401725.09999990463,8051,WL,A,4.0
3,8.264000177383423,learn,51735.99982261658,Thu Sep 18 2025 14:38:14 GMT-0500 (Central Daylight Time),403057.59999990463,A,log,I,g,262,2,1332.5,401725.09999990463,8051,WL,A,4.0
3,8.648000001907349,learn,51351.99999809265,Thu Sep 18 2025 14:38:14 GMT-0500 (Central Daylight Time),403441.0,A,logenter,I,enter,363,2,1715.9000000953674,401725.09999990463,8051,WL,A,4.0
3,9.414000034332275,learn,50585.999965667725,Thu Sep 18 2025 14:38:14 GMT-0500 (Central Daylight Time),404207.40000009537,A,k,I,k,748,2,766.0,403441.40000009537,8051,WL,A,5.0
3,9.630000114440918,learn,50369.99988555908,Thu Sep 18 2025 14:38:14 GMT-0500 (Central Daylight Time),404423.7000000477,A,ke,I,e,196,2,982.2999999523163,403441.40000009537,8051,WL,A,5.0
3,9.79800009727478,learn,50201.99990272522,Thu Sep 18 2025 14:38:14 GMT-0500 (Central Daylight Time),404590.90000009537,A,key,I,y,157,2,1149.5,403441.40000009537,8051,WL,A,5.0
3,10.097000122070312,learn,49902.99987792969,Thu Sep 18 2025 14:38:14 GMT-0500 (Central Daylight Time),404890.2999999523,A,keyenter,I,enter,286,2,1448.8999998569489,403441.40000009537,8051,WL,A,5.0
3,10.53000020980835,learn,49469.99979019165,Thu Sep 18 2025 14:38:14 GMT-0500 (Central Daylight Time),405323.40000009537,A,r,I,r,426,2,432.7000000476837,404890.7000000477,8051,WL,A,6.0
3,10.746000051498413,learn,49253.99994850159,Thu Sep 18 2025 14:38:14 GMT-0500 (Central Daylight Time),405539.7999999523,A,ra,I,a,209,2,649.0999999046326,404890.7000000477,8051,WL,A,6.0
3,10.963000059127808,learn,49036.99994087219,Thu Sep 18 2025 14:38:14 GMT-0500 (Central Daylight Time),405756.59999990463,A,rat,I,t,208,2,865.8999998569489,404890.7000000477,8051,WL,A,6.0
3,11.11300015449524,learn,48886.99984550476,Thu Sep 18 2025 14:38:14 GMT-0500 (Central Daylight Time),405906.59999990463,A,ratt,I,t,134,2,1015.8999998569489,404890.7000000477,8051,WL,A,6.0
3,11.230000019073486,learn,48769.999980926514,Thu Sep 18 2025 14:38:14 GMT-0500 (Central Daylight Time),406023.0,A,rattl,I,l,105,2,1132.2999999523163,404890.7000000477,8051,WL,A,6.0
3,11.36300015449524,learn,48636.99984550476,Thu Sep 18 2025 14:38:14 GMT-0500 (Central Daylight Time),406156.2000000477,A,rattle,I,e,125,2,1265.5,404890.7000000477,8051,WL,A,6.0
3,11.563000202178955,learn,48436.999797821045,Thu Sep 18 2025 14:38:14 GMT-0500 (Central Daylight Time),406356.40000009537,A,rattleenter,I,enter,183,2,1465.7000000476837,404890.7000000477,8051,WL,A,6.0
3,12.229000091552734,learn,47770.999908447266,Thu Sep 18 2025 14:38:14 GMT-0500 (Central Daylight Time),407022.7000000477,A,g,I,g,647,2,666.0,406356.7000000477,8051,WL,A,7.0
3,12.396000146865845,learn,47603.999853134155,Thu Sep 18 2025 14:38:14 GMT-0500 (Central Daylight Time),407189.2999999523,A,go,I,o,158,2,832.5999999046326,406356.7000000477,8051,WL,A,7.0
3,12.579000234603882,learn,47420.99976539612,Thu Sep 18 2025 14:38:14 GMT-0500 (Central Daylight Time),407372.5,A,gol,I,l,166,2,1015.7999999523163,406356.7000000477,8051,WL,A,7.0
3,12.729000091552734,learn,47270.999908447266,Thu Sep 18 2025 14:38:14 GMT-0500 (Central Daylight Time),407522.7000000477,A,gold,I,d,135,2,1166.0,406356.7000000477,8051,WL,A,7.0
3,12.946000099182129,learn,47053.99990081787,Thu Sep 18 2025 14:38:14 GMT-0500 (Central Daylight Time),407739.09999990463,A,goldenter,I,enter,208,2,1382.3999998569489,406356.7000000477,8051,WL,A,7.0
3,13.79200005531311,learn,46207.99994468689,Thu Sep 18 2025 14:38:14 GMT-0500 (Central Daylight Time),408585.2999999523,A,b,I,b,841,2,845.8999998569489,407739.40000009537,8051,WL,A,8.0
3,13.996000051498413,learn,46003.99994850159,Thu Sep 18 2025 14:38:14 GMT-0500 (Central Daylight Time),408788.90000009537,A,bo,I,o,182,2,1049.5,407739.40000009537,8051,WL,A,8.0
3,14.145000219345093,learn,45854.99978065491,Thu Sep 18 2025 14:38:14 GMT-0500 (Central Daylight Time),408938.7000000477,A,boo,I,o,132,2,1199.2999999523163,407739.40000009537,8051,WL,A,8.0
3,14.312000036239624,learn,45687.999963760376,Thu Sep 18 2025 14:38:14 GMT-0500 (Central Daylight Time),409105.40000009537,A,book,I,k,162,2,1366.0,407739.40000009537,8051,WL,A,8.0
3,14.779000043869019,learn,45220.99995613098,Thu Sep 18 2025 14:38:14 GMT-0500 (Central Daylight Time),409571.7999999523,A,bookenter,I,enter,450,2,1832.3999998569489,407739.40000009537,8051,WL,A,8.0
3,15.59500002861023,learn,44404.99997138977,Thu Sep 18 2025 14:38:14 GMT-0500 (Central Daylight Time),410388.5,A,f,I,f,801,2,816.5,409572.0,8051,WL,A,9.0
3,15.712000131607056,learn,44287.999868392944,Thu Sep 18 2025 14:38:14 GMT-0500 (Central Daylight Time),410505.0,A,fl,I,l,96,2,933.0,409572.0,8051,WL,A,9.0
3,15.862000226974487,learn,44137.99977302551,Thu Sep 18 2025 14:38:14 GMT-0500 (Central Daylight Time),410655.2000000477,A,flo,I,o,139,2,1083.2000000476837,409572.0,8051,WL,A,9.0
3,15.979000091552734,learn,44020.999908447266,Thu Sep 18 2025 14:38:14 GMT-0500 (Central Daylight Time),410771.90000009537,A,flow,I,w,109,2,1199.9000000953674,409572.0,8051,WL,A,9.0
3,16.079000234603882,learn,43920.99976539612,Thu Sep 18 2025 14:38:14 GMT-0500 (Central Daylight Time),410871.90000009537,A,flowe,I,e,80,2,1299.9000000953674,409572.0,8051,WL,A,9.0
3,16.34500002861023,learn,43654.99997138977,Thu Sep 18 2025 14:38:14 GMT-0500 (Central Daylight Time),411138.2000000477,A,flower,I,r,253,2,1566.2000000476837,409572.0,8051,WL,A,9.0
3,16.52900004386902,learn,43470.99995613098,Thu Sep 18 2025 14:38:14 GMT-0500 (Central Daylight Time),411322.7000000477,A,flowerenter,I,enter,170,2,1750.7000000476837,409572.0,8051,WL,A,9.0
3,17.145000219345093,learn,42854.99978065491,Thu Sep 18 2025 14:38:14 GMT-0500 (Central Daylight Time),411938.09999990463,A,m,I,m,601,2,614.8999998569489,411323.2000000477,8051,WL,A,10.0
3,17.26200008392334,learn,42737.99991607666,Thu Sep 18 2025 14:38:14 GMT-0500 (Central Daylight Time),412054.90000009537,A,me,I,e,107,2,731.7000000476837,411323.2000000477,8051,WL,A,10.0
3,17.478000164031982,learn,42521.99983596802,Thu Sep 18 2025 14:38:14 GMT-0500 (Central Daylight Time),412271.2000000477,A,mea,I,a,205,2,948.0,411323.2000000477,8051,WL,A,10.0
3,17.778000116348267,learn,42221.99988365173,Thu Sep 18 2025 14:38:14 GMT-0500 (Central Daylight Time),412571.40000009537,A,mead,I,d,285,2,1248.2000000476837,411323.2000000477,8051,WL,A,10.0
3,17.961000204086304,learn,42038.999795913696,Thu Sep 18 2025 14:38:14 GMT-0500 (Central Daylight Time),412754.59999990463,A,meado,I,o,168,2,1431.3999998569489,411323.2000000477,8051,WL,A,10.0
3,18.128000020980835,learn,41871.999979019165,Thu Sep 18 2025 14:38:14 GMT-0500 (Central Daylight Time),412920.90000009537,A,meadow,I,w,162,2,1597.7000000476837,411323.2000000477,8051,WL,A,10.0
3,18.361000061035156,learn,41638.999938964844,Thu Sep 18 2025 14:38:14 GMT-0500 (Central Daylight Time),413154.0,A,meadowenter,I,enter,229,2,1830.7999999523163,411323.2000000477,8051,WL,A,10.0
3,18.91100001335144,learn,41088.99998664856,Thu Sep 18 2025 14:38:14 GMT-0500 (Central Daylight Time),413704.2000000477,A,h,I,h,539,2,549.9000000953674,413154.2999999523,8051,WL,A,11.0
3,19.011000156402588,learn,40988.99984359741,Thu Sep 18 2025 14:38:14 GMT-0500 (Central Daylight Time),413804.2000000477,A,ha,I,a,92,2,649.9000000953674,413154.2999999523,8051,WL,A,11.0
3,19.1780002117157,learn,40821.9997882843,Thu Sep 18 2025 14:38:14 GMT-0500 (Central Daylight Time),413971.0,A,har,I,r,152,2,816.7000000476837,413154.2999999523,8051,WL,A,11.0
3,19.39400005340576,learn,40605.99994659424,Thu Sep 18 2025 14:38:14 GMT-0500 (Central Daylight Time),414187.40000009537,A,harp,I,p,210,2,1033.1000001430511,413154.2999999523,8051,WL,A,11.0
3,19.944000005722046,learn,40055.999994277954,Thu Sep 18 2025 14:38:14 GMT-0500 (Central Daylight Time),414737.40000009537,A,harpenter,I,enter,545,2,1583.1000001430511,413154.2999999523,8051,WL,A,11.0
3,23.642000198364258,learn,36357.99980163574,Thu Sep 18 2025 14:38:14 GMT-0500 (Central Daylight Time),418436.09999990463,A,f,I,f,3683,2,3698.5,414737.59999990463,8051,WL,A,12.0
3,24.45900011062622,learn,35540.99988937378,Thu Sep 18 2025 14:38:14 GMT-0500 (Central Daylight Time),419252.7000000477,A,,I,backspace,808,2,4515.100000143051,414737.59999990463,8051,WL,A,12.0
3,30.407000064849854,learn,29592.999935150146,Thu Sep 18 2025 14:38:14 GMT-0500 (Central Daylight Time),425200.90000009537,A,f,I,f,5936,2,10463.300000190735,414737.59999990463,8051,WL,A,12.0
3,30.623000144958496,learn,29376.999855041504,Thu Sep 18 2025 14:38:14 GMT-0500 (Central Daylight Time),425416.90000009537,A,fi,I,i,211,2,10679.300000190735,414737.59999990463,8051,WL,A,12.0
3,30.85700011253357,learn,29142.99988746643,Thu Sep 18 2025 14:38:14 GMT-0500 (Central Daylight Time),425650.40000009537,A,fin,I,n,220,2,10912.800000190735,414737.59999990463,8051,WL,A,12.0
3,30.973000049591064,learn,29026.999950408936,Thu Sep 18 2025 14:38:14 GMT-0500 (Central Daylight Time),425767.09999990463,A,fing,I,g,98,2,11029.5,414737.59999990463,8051,WL,A,12.0
3,31.757000207901,learn,28242.999792099,Thu Sep 18 2025 14:38:14 GMT-0500 (Central Daylight Time),426550.2999999523,A,fin,I,backspace,766,2,11812.700000047684,414737.59999990463,8051,WL,A,12.0
3,32.80600023269653,learn,27193.999767303467,Thu Sep 18 2025 14:38:14 GMT-0500 (Central Daylight Time),427599.59999990463,A,fing,I,g,1029,2,12862.0,414737.59999990463,8051,WL,A,12.0
3,33.05600023269653,learn,26943.999767303467,Thu Sep 18 2025 14:38:14 GMT-0500 (Central Daylight Time),427850.0,A,finge,I,e,238,2,13112.400000095367,414737.59999990463,8051,WL,A,12.0
3,33.1560001373291,learn,26843.9998626709,Thu Sep 18 2025 14:38:14 GMT-0500 (Central Daylight Time),427949.7000000477,A,finger,I,r,90,2,13212.100000143051,414737.59999990463,8051,WL,A,12.0
3,33.373000144958496,learn,26626.999855041504,Thu Sep 18 2025 14:38:14 GMT-0500 (Central Daylight Time),428166.2999999523,A,fingerenter,I,enter,199,2,13428.700000047684,414737.59999990463,8051,WL,A,12.0
3,38.72100019454956,learn,21278.99980545044,Thu Sep 18 2025 14:38:14 GMT-0500 (Central Daylight Time),433514.7999999523,A,c,I,c,5334,2,5348.099999904633,428166.7000000477,8051,WL,A,13.0
3,39.03800010681152,learn,20961.999893188477,Thu Sep 18 2025 14:38:14 GMT-0500 (Central Daylight Time),433831.59999990463,A,ch,I,h,295,2,5664.899999856949,428166.7000000477,8051,WL,A,13.0
3,39.40400004386902,learn,20595.99995613098,Thu Sep 18 2025 14:38:14 GMT-0500 (Central Daylight Time),434197.90000009537,A,chi,I,i,357,2,6031.200000047684,428166.7000000477,8051,WL,A,13.0
3,39.771000146865845,learn,20228.999853134155,Thu Sep 18 2025 14:38:14 GMT-0500 (Central Daylight Time),434564.2999999523,A,chin,I,n,351,2,6397.599999904633,428166.7000000477,8051,WL,A,13.0
3,40.23700022697449,learn,19762.999773025513,Thu Sep 18 2025 14:38:14 GMT-0500 (Central Daylight Time),435031.0,A,chi,I,backspace,456,2,6864.299999952316,428166.7000000477,8051,WL,A,13.0
3,40.504000186920166,learn,19495.999813079834,Thu Sep 18 2025 14:38:14 GMT-0500 (Central Daylight Time),435297.59999990463,A,chim,I,m,254,2,7130.899999856949,428166.7000000477,8051,WL,A,13.0
3,40.77000021934509,learn,19229.999780654907,Thu Sep 18 2025 14:38:14 GMT-0500 (Central Daylight Time),435563.7999999523,A,chimn,I,n,259,2,7397.099999904633,428166.7000000477,8051,WL,A,13.0
3,41.0530002117157,learn,18946.9997882843,Thu Sep 18 2025 14:38:14 GMT-0500 (Central Daylight Time),435847.2000000477,A,chimne,I,e,265,2,7680.5,428166.7000000477,8051,WL,A,13.0
3,41.337000131607056,learn,18662.999868392944,Thu Sep 18 2025 14:38:14 GMT-0500 (Central Daylight Time),436130.59999990463,A,chimney,I,y,269,2,7963.899999856949,428166.7000000477,8051,WL,A,13.0
3,41.72000002861023,learn,18279.99997138977,Thu Sep 18 2025 14:38:14 GMT-0500 (Central Daylight Time),436513.59999990463,A,chimneyenter,I,enter,370,2,8346.899999856949,428166.7000000477,8051,WL,A,13.0
3,44.10199999809265,learn,15898.000001907349,Thu Sep 18 2025 14:38:14 GMT-0500 (Central Daylight Time),438896.2000000477,A,a,I,a,2362,2,2382.2000000476837,436514.0,8051,WL,A,14.0
3,44.38600015640259,learn,15613.999843597412,Thu Sep 18 2025 14:38:14 GMT-0500 (Central Daylight Time),439179.5,A,ap,I,p,276,2,2665.5,436514.0,8051,WL,A,14.0
3,44.53500008583069,learn,15464.999914169312,Thu Sep 18 2025 14:38:14 GMT-0500 (Central Daylight Time),439329.2000000477,A,app,I,p,145,2,2815.2000000476837,436514.0,8051,WL,A,14.0
3,44.71900010108948,learn,15280.999898910522,Thu Sep 18 2025 14:38:14 GMT-0500 (Central Daylight Time),439512.7999999523,A,appl,I,l,163,2,2998.7999999523163,436514.0,8051,WL,A,14.0
3,44.836000204086304,learn,15163.999795913696,Thu Sep 18 2025 14:38:14 GMT-0500 (Central Daylight Time),439629.40000009537,A,apple,I,e,108,2,3115.4000000953674,436514.0,8051,WL,A,14.0
3,45.08500003814697,learn,14914.999961853027,Thu Sep 18 2025 14:38:14 GMT-0500 (Central Daylight Time),439879.2000000477,A,appleenter,I,enter,231,2,3365.2000000476837,436514.0,8051,WL,A,14.0
3,51.700000047683716,learn,8299.999952316284,Thu Sep 18 2025 14:38:14 GMT-0500 (Central Daylight Time),446494.0,A,g,I,g,6605,2,6614.5,439879.5,8051,WL,A,15.0
3,51.83400011062622,learn,8165.999889373779,Thu Sep 18 2025 14:38:14 GMT-0500 (Central Daylight Time),446627.2999999523,A,go,I,o,118,2,6747.799999952316,439879.5,8051,WL,A,15.0
3,52.0,learn,8000.0,Thu Sep 18 2025 14:38:14 GMT-0500 (Central Daylight Time),446793.7000000477,A,gol,I,l,160,2,6914.200000047684,439879.5,8051,WL,A,15.0
3,52.18400001525879,learn,7815.999984741211,Thu Sep 18 2025 14:38:14 GMT-0500 (Central Daylight Time),446977.2999999523,A,gold,I,d,163,2,7097.799999952316,439879.5,8051,WL,A,15.0
3,52.35000014305115,learn,7649.9998569488525,Thu Sep 18 2025 14:38:14 GMT-0500 (Central Daylight Time),447144.0,A,goldenter,I,enter,155,2,7264.5,439879.5,8051,WL,A,15.0
4,0.5839998722076416,learn,59416.00012779236,Thu Sep 18 2025 14:38:14 GMT-0500 (Central Daylight Time),513239.7999999523,A,b,I,b,572,2,583.0999999046326,512656.7000000477,8051,WL,A,1.0
4,1.0829999446868896,learn,58917.00005531311,Thu Sep 18 2025 14:38:14 GMT-0500 (Central Daylight Time),513739.7999999523,A,bo,I,o,483,2,1083.0999999046326,512656.7000000477,8051,WL,A,1.0
4,1.2669999599456787,learn,58733.00004005432,Thu Sep 18 2025 14:38:14 GMT-0500 (Central Daylight Time),513922.90000009537,A,boo,I,o,168,2,1266.2000000476837,512656.7000000477,8051,WL,A,1.0
4,1.8329999446868896,learn,58167.00005531311,Thu Sep 18 2025 14:38:14 GMT-0500 (Central Daylight Time),514489.2000000477,A,book,I,k,562,2,1832.5,512656.7000000477,8051,WL,A,1.0
4,2.3499999046325684,learn,57650.00009536743,Thu Sep 18 2025 14:38:14 GMT-0500 (Central Daylight Time),515005.7000000477,A,bookenter,I,enter,507,2,2349.0,512656.7000000477,8051,WL,A,1.0
4,3.5329999923706055,learn,56467.000007629395,Thu Sep 18 2025 14:38:14 GMT-0500 (Central Daylight Time),516188.7999999523,A,t,I,t,1167,2,1182.7000000476837,515006.09999990463,8051,WL,A,2.0
4,3.815999984741211,learn,56184.00001525879,Thu Sep 18 2025 14:38:14 GMT-0500 (Central Daylight Time),516472.2000000477,A,tr,I,r,263,2,1466.1000001430511,515006.09999990463,8051,WL,A,2.0
4,4.065999984741211,learn,55934.00001525879,Thu Sep 18 2025 14:38:14 GMT-0500 (Central Daylight Time),516722.0,A,tra,I,a,229,2,1715.9000000953674,515006.09999990463,8051,WL,A,2.0
4,4.348999977111816,learn,55651.00002288818,Thu Sep 18 2025 14:38:14 GMT-0500 (Central Daylight Time),517005.2999999523,A,trai,I,i,275,2,1999.2000000476837,515006.09999990463,8051,WL,A,2.0
4,4.548999786376953,learn,55451.00021362305,Thu Sep 18 2025 14:38:14 GMT-0500 (Central Daylight Time),517205.2000000477,A,train,I,n,183,2,2199.100000143051,515006.09999990463,8051,WL,A,2.0
4,5.06499981880188,learn,54935.00018119812,Thu Sep 18 2025 14:38:14 GMT-0500 (Central Daylight Time),517721.7999999523,A,trainenter,I,enter,503,2,2715.7000000476837,515006.09999990463,8051,WL,A,2.0
4,6.781999826431274,learn,53218.000173568726,Thu Sep 18 2025 14:38:14 GMT-0500 (Central Daylight Time),519437.7999999523,A,f,I,f,1699,2,1715.7000000476837,517722.09999990463,8051,WL,A,3.0
4,6.947999954223633,learn,53052.00004577637,Thu Sep 18 2025 14:38:14 GMT-0500 (Central Daylight Time),519604.40000009537,A,fl,I,l,158,2,1882.3000001907349,517722.09999990463,8051,WL,A,3.0
4,7.148000001907349,learn,52851.99999809265,Thu Sep 18 2025 14:38:14 GMT-0500 (Central Daylight Time),519804.09999990463,A,flo,I,o,192,2,2082.0,517722.09999990463,8051,WL,A,3.0
4,7.2809998989105225,learn,52719.00010108948,Thu Sep 18 2025 14:38:14 GMT-0500 (Central Daylight Time),519937.7000000477,A,flow,I,w,128,2,2215.600000143051,517722.09999990463,8051,WL,A,3.0
4,7.413999795913696,learn,52586.000204086304,Thu Sep 18 2025 14:38:14 GMT-0500 (Central Daylight Time),520070.59999990463,A,flowe,I,e,123,2,2348.5,517722.09999990463,8051,WL,A,3.0
4,7.664999961853027,learn,52335.00003814697,Thu Sep 18 2025 14:38:14 GMT-0500 (Central Daylight Time),520320.90000009537,A,flower,I,r,246,2,2598.800000190735,517722.09999990463,8051,WL,A,3.0
4,7.980999946594238,learn,52019.00005340576,Thu Sep 18 2025 14:38:14 GMT-0500 (Central Daylight Time),520637.5,A,flowerenter,I,enter,300,2,2915.4000000953674,517722.09999990463,8051,WL,A,3.0
4,9.196999788284302,learn,50803.0002117157,Thu Sep 18 2025 14:38:14 GMT-0500 (Central Daylight Time),521853.5,A,m,I,m,1199,2,1215.5999999046326,520637.90000009537,8051,WL,A,4.0
4,9.330999851226807,learn,50669.00014877319,Thu Sep 18 2025 14:38:14 GMT-0500 (Central Daylight Time),521987.0,A,me,I,e,119,2,1349.0999999046326,520637.90000009537,8051,WL,A,4.0
4,9.579999923706055,learn,50420.000076293945,Thu Sep 18 2025 14:38:14 GMT-0500 (Central Daylight Time),522236.7000000477,A,mea,I,a,241,2,1598.7999999523163,520637.90000009537,8051,WL,A,4.0
4,9.746999979019165,learn,50253.000020980835,Thu Sep 18 2025 14:38:14 GMT-0500 (Central Daylight Time),522403.2000000477,A,mead,I,d,160,2,1765.2999999523163,520637.90000009537,8051,WL,A,4.0
4,10.02999997138977,learn,49970.00002861023,Thu Sep 18 2025 14:38:14 GMT-0500 (Central Daylight Time),522686.5,A,meado,I,o,273,2,2048.5999999046326,520637.90000009537,8051,WL,A,4.0
4,10.196999788284302,learn,49803.0002117157,Thu Sep 18 2025 14:38:14 GMT-0500 (Central Daylight Time),522853.0,A,meadow,I,w,157,2,2215.0999999046326,520637.90000009537,8051,WL,A,4.0
4,10.762999773025513,learn,49237.00022697449,Thu Sep 18 2025 14:38:14 GMT-0500 (Central Daylight Time),523419.59999990463,A,meadowenter,I,enter,551,2,2781.699999809265,520637.90000009537,8051,WL,A,4.0
4,12.679999828338623,learn,47320.00017166138,Thu Sep 18 2025 14:38:14 GMT-0500 (Central Daylight Time),525335.9000000954,A,h,I,h,1904,2,1916.1000001430511,523419.7999999523,8051,WL,A,5.0
4,12.829999923706055,learn,47170.000076293945,Thu Sep 18 2025 14:38:14 GMT-0500 (Central Daylight Time),525486.2999999523,A,ha,I,a,133,2,2066.5,523419.7999999523,8051,WL,A,5.0
4,13.062999963760376,learn,46937.000036239624,Thu Sep 18 2025 14:38:14 GMT-0500 (Central Daylight Time),525719.5,A,har,I,r,214,2,2299.7000000476837,523419.7999999523,8051,WL,A,5.0
4,13.312999963760376,learn,46687.000036239624,Thu Sep 18 2025 14:38:14 GMT-0500 (Central Daylight Time),525969.0,A,harp,I,p,245,2,2549.2000000476837,523419.7999999523,8051,WL,A,5.0
4,13.88699984550476,learn,46113.00015449524,Thu Sep 18 2025 14:38:14 GMT-0500 (Central Daylight Time),526543.0,A,harpenter,I,enter,569,2,3123.2000000476837,523419.7999999523,8051,WL,A,5.0
4,15.978999853134155,learn,44021.000146865845,Thu Sep 18 2025 14:38:14 GMT-0500 (Central Daylight Time),528635.0999999046,A,f,I,f,2077,2,2091.7999999523163,526543.2999999523,8051,WL,A,6.0
4,16.228999853134155,learn,43771.000146865845,Thu Sep 18 2025 14:38:14 GMT-0500 (Central Daylight Time),528885.4000000954,A,fi,I,i,233,2,2342.100000143051,526543.2999999523,8051,WL,A,6.0
4,16.444999933242798,learn,43555.0000667572,Thu Sep 18 2025 14:38:14 GMT-0500 (Central Daylight Time),529101.5,A,fib,I,b,207,2,2558.2000000476837,526543.2999999523,8051,WL,A,6.0
4,17.860999822616577,learn,42139.00017738342,Thu Sep 18 2025 14:38:14 GMT-0500 (Central Daylight Time),530517.7000000477,A,fi,I,backspace,1407,2,3974.4000000953674,526543.2999999523,8051,WL,A,6.0
4,18.460999965667725,learn,41539.000034332275,Thu Sep 18 2025 14:38:14 GMT-0500 (Central Daylight Time),531117.2999999523,A,fin,I,n,583,2,4574.0,526543.2999999523,8051,WL,A,6.0
4,18.661999940872192,learn,41338.00005912781,Thu Sep 18 2025 14:38:14 GMT-0500 (Central Daylight Time),531318.7999999523,A,fing,I,g,191,2,4775.5,526543.2999999523,8051,WL,A,6.0
4,18.893999814987183,learn,41106.00018501282,Thu Sep 18 2025 14:38:14 GMT-0500 (Central Daylight Time),531550.7999999523,A,finge,I,e,221,2,5007.5,526543.2999999523,8051,WL,A,6.0
4,18.97699999809265,learn,41023.00000190735,Thu Sep 18 2025 14:38:14 GMT-0500 (Central Daylight Time),531633.7000000477,A,finger,I,r,78,2,5090.400000095367,526543.2999999523,8051,WL,A,6.0
4,19.194000005722046,learn,40805.999994277954,Thu Sep 18 2025 14:38:14 GMT-0500 (Central Daylight Time),531850.2999999523,A,fingerenter,I,enter,211,2,5307.0,526543.2999999523,8051,WL,A,6.0
4,20.643999814987183,learn,39356.00018501282,Thu Sep 18 2025 14:38:14 GMT-0500 (Central Daylight Time),533299.9000000954,A,a,I,a,1434,2,1449.4000000953674,531850.5,8051,WL,A,7.0
4,20.944000005722046,learn,39055.999994277954,Thu Sep 18 2025 14:38:14 GMT-0500 (Central Daylight Time),533600.0999999046,A,ap,I,p,289,2,1749.5999999046326,531850.5,8051,WL,A,7.0
4,21.109999895095825,learn,38890.000104904175,Thu Sep 18 2025 14:38:14 GMT-0500 (Central Daylight Time),533766.7000000477,A,app,I,p,148,2,1916.2000000476837,531850.5,8051,WL,A,7.0
4,21.293999910354614,learn,38706.000089645386,Thu Sep 18 2025 14:38:14 GMT-0500 (Central Daylight Time),533950.0,A,appl,I,l,166,2,2099.5,531850.5,8051,WL,A,7.0
4,21.426999807357788,learn,38573.00019264221,Thu Sep 18 2025 14:38:14 GMT-0500 (Central Daylight Time),534083.0999999046,A,apple,I,e,119,2,2232.5999999046326,531850.5,8051,WL,A,7.0
4,21.5939998626709,learn,38406.0001373291,Thu Sep 18 2025 14:38:14 GMT-0500 (Central Daylight Time),534249.9000000954,A,appleenter,I,enter,153,2,2399.4000000953674,531850.5,8051,WL,A,7.0
4,21.959999799728394,learn,38040.00020027161,Thu Sep 18 2025 14:38:14 GMT-0500 (Central Daylight Time),534616.4000000954,A,c,I,c,346,2,366.10000014305115,534250.2999999523,8051,WL,A,8.0
4,22.209999799728394,learn,37790.00020027161,Thu Sep 18 2025 14:38:14 GMT-0500 (Central Daylight Time),534866.0999999046,A,ch,I,h,236,2,615.7999999523163,534250.2999999523,8051,WL,A,8.0
4,22.542999982833862,learn,37457.00001716614,Thu Sep 18 2025 14:38:14 GMT-0500 (Central Daylight Time),535199.4000000954,A,chi,I,i,314,2,949.1000001430511,534250.2999999523,8051,WL,A,8.0
4,22.80899977684021,learn,37191.00022315979,Thu Sep 18 2025 14:38:14 GMT-0500 (Central Daylight Time),535465.7000000477,A,chim,I,m,261,2,1215.4000000953674,534250.2999999523,8051,WL,A,8.0
4,23.05999994277954,learn,36940.00005722046,Thu Sep 18 2025 14:38:14 GMT-0500 (Central Daylight Time),535716.2999999523,A,chimn,I,n,235,2,1466.0,534250.2999999523,8051,WL,A,8.0
4,23.242999792099,learn,36757.000207901,Thu Sep 18 2025 14:38:14 GMT-0500 (Central Daylight Time),535899.4000000954,A,chimne,I,e,168,2,1649.1000001430511,534250.2999999523,8051,WL,A,8.0
4,23.508999824523926,learn,36491.000175476074,Thu Sep 18 2025 14:38:14 GMT-0500 (Central Daylight Time),536165.7999999523,A,chimney,I,y,257,2,1915.5,534250.2999999523,8051,WL,A,8.0
4,23.859999895095825,learn,36140.000104904175,Thu Sep 18 2025 14:38:14 GMT-0500 (Central Daylight Time),536515.9000000954,A,chimneyenter,I,enter,344,2,2265.600000143051,534250.2999999523,8051,WL,A,8.0
4,26.875,learn,33125.0,Thu Sep 18 2025 14:38:14 GMT-0500 (Central Daylight Time),539531.5999999046,A,g,I,g,3001,2,3015.399999856949,536516.2000000477,8051,WL,A,9.0
4,27.024999856948853,learn,32975.00014305115,Thu Sep 18 2025 14:38:14 GMT-0500 (Central Daylight Time),539681.4000000954,A,go,I,o,137,2,3165.2000000476837,536516.2000000477,8051,WL,A,9.0
4,27.20799994468689,learn,32792.00005531311,Thu Sep 18 2025 14:38:14 GMT-0500 (Central Daylight Time),539864.7999999523,A,gol,I,l,171,2,3348.5999999046326,536516.2000000477,8051,WL,A,9.0
4,27.324999809265137,learn,32675.000190734863,Thu Sep 18 2025 14:38:14 GMT-0500 (Central Daylight Time),539981.5,A,gold,I,d,107,2,3465.2999999523163,536516.2000000477,8051,WL,A,9.0
4,27.590999841690063,learn,32409.000158309937,Thu Sep 18 2025 14:38:14 GMT-0500 (Central Daylight Time),540248.2000000477,A,goldenter,I,enter,256,2,3732.0,536516.2000000477,8051,WL,A,9.0
4,32.25599980354309,learn,27744.00019645691,Thu Sep 18 2025 14:38:14 GMT-0500 (Central Daylight Time),544913.0999999046,A,l,I,l,4652,2,4664.5,540248.5999999046,8051,WL,A,10.0
4,32.43999981880188,learn,27560.00018119812,Thu Sep 18 2025 14:38:14 GMT-0500 (Central Daylight Time),545096.2999999523,A,lo,I,o,171,2,4847.700000047684,540248.5999999046,8051,WL,A,10.0
4,32.68899989128113,learn,27311.000108718872,Thu Sep 18 2025 14:38:14 GMT-0500 (Central Daylight Time),545346.2000000477,A,log,I,g,236,2,5097.600000143051,540248.5999999046,8051,WL,A,10.0
4,32.889999866485596,learn,27110.000133514404,Thu Sep 18 2025 14:38:14 GMT-0500 (Central Daylight Time),545546.5,A,logenter,I,enter,186,2,5297.900000095367,540248.5999999046,8051,WL,A,10.0
4,40.48699998855591,learn,19513.00001144409,Thu Sep 18 2025 14:38:14 GMT-0500 (Central Daylight Time),553143.7000000477,A,s,I,s,7586,2,7596.900000095367,545546.7999999523,8051,WL,A,11.0
4,40.71999979019165,learn,19280.00020980835,Thu Sep 18 2025 14:38:14 GMT-0500 (Central Daylight Time),553377.2999999523,A,sa,I,a,212,2,7830.5,545546.7999999523,8051,WL,A,11.0
4,40.90399980545044,learn,19096.00019454956,Thu Sep 18 2025 14:38:14 GMT-0500 (Central Daylight Time),553560.5,A,sal,I,l,163,2,8013.700000047684,545546.7999999523,8051,WL,A,11.0
4,41.186999797821045,learn,18813.000202178955,Thu Sep 18 2025 14:38:14 GMT-0500 (Central Daylight Time),553843.7999999523,A,salt,I,t,268,2,8297.0,545546.7999999523,8051,WL,A,11.0
4,41.38699984550476,learn,18613.00015449524,Thu Sep 18 2025 14:38:14 GMT-0500 (Central Daylight Time),554043.7000000477,A,saltenter,I,enter,185,2,8496.900000095367,545546.7999999523,8051,WL,A,11.0
4,42.28699994087219,learn,17713.000059127808,Thu Sep 18 2025 14:38:14 GMT-0500 (Central Daylight Time),554943.2999999523,A,g,I,g,889,2,899.2000000476837,554044.0999999046,8051,WL,A,12.0
4,42.48699998855591,learn,17513.00001144409,Thu Sep 18 2025 14:38:14 GMT-0500 (Central Daylight Time),555143.2999999523,A,go,I,o,189,2,1099.2000000476837,554044.0999999046,8051,WL,A,12.0
4,42.669999837875366,learn,17330.000162124634,Thu Sep 18 2025 14:38:14 GMT-0500 (Central Daylight Time),555326.7999999523,A,gol,I,l,165,2,1282.7000000476837,554044.0999999046,8051,WL,A,12.0
4,42.787999868392944,learn,17212.000131607056,Thu Sep 18 2025 14:38:14 GMT-0500 (Central Daylight Time),555444.4000000954,A,gold,I,d,110,2,1400.3000001907349,554044.0999999046,8051,WL,A,12.0
4,42.93599987030029,learn,17064.000129699707,Thu Sep 18 2025 14:38:14 GMT-0500 (Central Daylight Time),555593.2000000477,A,goldenter,I,enter,144,2,1549.1000001430511,554044.0999999046,8051,WL,A,12.0
4,46.151999950408936,learn,13848.000049591064,Thu Sep 18 2025 14:38:14 GMT-0500 (Central Daylight Time),558808.7999999523,A,r,I,r,3196,2,3215.5,555593.2999999523,8051,WL,A,13.0
4,46.55199980735779,learn,13448.000192642212,Thu Sep 18 2025 14:38:14 GMT-0500 (Central Daylight Time),559208.5,A,ru,I,u,380,2,3615.2000000476837,555593.2999999523,8051,WL,A,13.0
4,46.78499984741211,learn,13215.00015258789,Thu Sep 18 2025 14:38:14 GMT-0500 (Central Daylight Time),559441.9000000954,A,rug,I,g,219,2,3848.600000143051,555593.2999999523,8051,WL,A,13.0
4,46.96799993515015,learn,13032.000064849854,Thu Sep 18 2025 14:38:14 GMT-0500 (Central Daylight Time),559625.0999999046,A,rugenter,I,enter,171,2,4031.7999999523163,555593.2999999523,8051,WL,A,13.0
4,50.133999824523926,learn,9866.000175476074,Thu Sep 18 2025 14:38:14 GMT-0500 (Central Daylight Time),562790.7999999523,A,m,I,m,3147,2,3165.399999856949,559625.4000000954,8051,WL,A,14.0
4,50.217000007629395,learn,9782.999992370605,Thu Sep 18 2025 14:38:14 GMT-0500 (Central Daylight Time),562874.0,A,me,I,e,78,2,3248.5999999046326,559625.4000000954,8051,WL,A,14.0
4,50.46799993515015,learn,9532.000064849854,Thu Sep 18 2025 14:38:14 GMT-0500 (Central Daylight Time),563124.4000000954,A,mea,I,a,235,2,3499.0,559625.4000000954,8051,WL,A,14.0
4,50.61699986457825,learn,9383.000135421753,Thu Sep 18 2025 14:38:14 GMT-0500 (Central Daylight Time),563274.0999999046,A,mead,I,d,136,2,3648.699999809265,559625.4000000954,8051,WL,A,14.0
4,50.81699991226196,learn,9183.000087738037,Thu Sep 18 2025 14:38:14 GMT-0500 (Central Daylight Time),563474.0999999046,A,meado,I,o,179,2,3848.699999809265,559625.4000000954,8051,WL,A,14.0
4,50.95099997520447,learn,9049.000024795532,Thu Sep 18 2025 14:38:14 GMT-0500 (Central Daylight Time),563607.4000000954,A,meadow,I,w,123,2,3982.0,559625.4000000954,8051,WL,A,14.0
4,51.09999990463257,learn,8900.000095367432,Thu Sep 18 2025 14:38:14 GMT-0500 (Central Daylight Time),563757.0999999046,A,meadowenter,I,enter,133,2,4131.699999809265,559625.4000000954,8051,WL,A,14.0
4,54.06599998474121,learn,5934.000015258789,Thu Sep 18 2025 14:38:14 GMT-0500 (Central Daylight Time),566722.9000000954,A,enter,I,enter,2951,2,2965.5,563757.4000000954,8051,WL,A,15.0
5,0.6000001430511475,learn,60000.0,Thu Sep 18 2025 14:38:14 GMT-0500 (Central Daylight Time),632569.0999999046,A,b,I,b,588,2,599.3999998569489,631969.7000000477,8051,WL,A,1.0
5,0.8159999847412109,learn,60000.0,Thu Sep 18 2025 14:38:14 GMT-0500 (Central Daylight Time),632785.5999999046,A,bo,I,o,195,2,815.8999998569489,631969.7000000477,8051,WL,A,1.0
5,0.9830000400543213,learn,60000.0,Thu Sep 18 2025 14:38:14 GMT-0500 (Central Daylight Time),632952.0999999046,A,boo,I,o,145,2,982.3999998569489,631969.7000000477,8051,WL,A,1.0
5,1.183000087738037,learn,60000.0,Thu Sep 18 2025 14:38:14 GMT-0500 (Central Daylight Time),633152.0999999046,A,bool,I,l,180,2,1182.3999998569489,631969.7000000477,8051,WL,A,1.0
5,2.4830000400543213,learn,60000.0,Thu Sep 18 2025 14:38:14 GMT-0500 (Central Daylight Time),634451.7999999523,A,boo,I,backspace,1284,2,2482.0999999046326,631969.7000000477,8051,WL,A,1.0
5,3.4150002002716064,learn,60000.0,Thu Sep 18 2025 14:38:14 GMT-0500 (Central Daylight Time),635384.5999999046,A,book,I,k,920,2,3414.899999856949,631969.7000000477,8051,WL,A,1.0
5,4.199000120162964,learn,60000.0,Thu Sep 18 2025 14:38:14 GMT-0500 (Central Daylight Time),636167.9000000954,A,bookenter,I,enter,764,2,4198.200000047684,631969.7000000477,8051,WL,A,1.0
5,5.04800009727478,learn,60000.0,Thu Sep 18 2025 14:38:14 GMT-0500 (Central Daylight Time),637017.5,A,f,I,f,829,2,849.4000000953674,636168.0999999046,8051,WL,A,2.0
5,5.3480000495910645,learn,60000.0,Thu Sep 18 2025 14:38:14 GMT-0500 (Central Daylight Time),637317.4000000954,A,fl,I,l,291,2,1149.3000001907349,636168.0999999046,8051,WL,A,2.0
5,5.54800009727478,learn,60000.0,Thu Sep 18 2025 14:38:14 GMT-0500 (Central Daylight Time),637517.2999999523,A,flo,I,o,191,2,1349.2000000476837,636168.0999999046,8051,WL,A,2.0
5,5.748000144958496,learn,60000.0,Thu Sep 18 2025 14:38:14 GMT-0500 (Central Daylight Time),637717.5999999046,A,flow,I,w,191,2,1549.5,636168.0999999046,8051,WL,A,2.0
5,5.998000144958496,learn,60000.0,Thu Sep 18 2025 14:38:14 GMT-0500 (Central Daylight Time),637967.2000000477,A,flowe,I,e,231,2,1799.1000001430511,636168.0999999046,8051,WL,A,2.0
5,6.231000185012817,learn,60000.0,Thu Sep 18 2025 14:38:14 GMT-0500 (Central Daylight Time),638200.5999999046,A,flower,I,r,213,2,2032.5,636168.0999999046,8051,WL,A,2.0
5,6.481000185012817,learn,60000.0,Thu Sep 18 2025 14:38:14 GMT-0500 (Central Daylight Time),638450.2000000477,A,flowerenter,I,enter,245,2,2282.100000143051,636168.0999999046,8051,WL,A,2.0
5,6.898000001907349,learn,60000.0,Thu Sep 18 2025 14:38:14 GMT-0500 (Central Daylight Time),638867.0,A,t,I,t,403,2,416.5,638450.5,8051,WL,A,3.0
5,7.148000001907349,learn,60000.0,Thu Sep 18 2025 14:38:14 GMT-0500 (Central Daylight Time),639116.7999999523,A,tr,I,r,241,2,666.2999999523163,638450.5,8051,WL,A,3.0
5,7.38100004196167,learn,60000.0,Thu Sep 18 2025 14:38:14 GMT-0500 (Central Daylight Time),639350.2999999523,A,tra,I,a,224,2,899.7999999523163,638450.5,8051,WL,A,3.0
5,7.581000089645386,learn,60000.0,Thu Sep 18 2025 14:38:14 GMT-0500 (Central Daylight Time),639550.0999999046,A,trai,I,i,182,2,1099.5999999046326,638450.5,8051,WL,A,3.0
5,7.764000177383423,learn,60000.0,Thu Sep 18 2025 14:38:14 GMT-0500 (Central Daylight Time),639733.4000000954,A,train,I,n,166,2,1282.9000000953674,638450.5,8051,WL,A,3.0
5,8.081000089645386,learn,60000.0,Thu Sep 18 2025 14:38:14 GMT-0500 (Central Daylight Time),640050.0999999046,A,trainenter,I,enter,303,2,1599.5999999046326,638450.5,8051,WL,A,3.0
5,8.514000177383423,learn,60000.0,Thu Sep 18 2025 14:38:14 GMT-0500 (Central Daylight Time),640483.0,A,r,I,r,418,2,432.59999990463257,640050.4000000954,8051,WL,A,4.0
5,8.864000082015991,learn,60000.0,Thu Sep 18 2025 14:38:14 GMT-0500 (Central Daylight Time),640833.0,A,ru,I,u,330,2,782.5999999046326,640050.4000000954,8051,WL,A,4.0
5,9.097000122070312,learn,60000.0,Thu Sep 18 2025 14:38:14 GMT-0500 (Central Daylight Time),641066.2000000477,A,rug,I,g,228,2,1015.7999999523163,640050.4000000954,8051,WL,A,4.0
5,9.314000129699707,learn,60000.0,Thu Sep 18 2025 14:38:14 GMT-0500 (Central Daylight Time),641282.9000000954,A,rugenter,I,enter,204,2,1232.5,640050.4000000954,8051,WL,A,4.0
5,10.03000020980835,learn,60000.0,Thu Sep 18 2025 14:38:14 GMT-0500 (Central Daylight Time),641999.2999999523,A,m,I,m,698,2,716.2000000476837,641283.0999999046,8051,WL,A,5.0
5,10.21399998664856,learn,60000.0,Thu Sep 18 2025 14:38:14 GMT-0500 (Central Daylight Time),642182.7999999523,A,me,I,e,174,2,899.7000000476837,641283.0999999046,8051,WL,A,5.0
5,10.430000066757202,learn,60000.0,Thu Sep 18 2025 14:38:14 GMT-0500 (Central Daylight Time),642399.0999999046,A,mea,I,a,206,2,1116.0,641283.0999999046,8051,WL,A,5.0
5,10.580000162124634,learn,60000.0,Thu Sep 18 2025 14:38:14 GMT-0500 (Central Daylight Time),642549.2000000477,A,mead,I,d,134,2,1266.1000001430511,641283.0999999046,8051,WL,A,5.0
5,10.746999979019165,learn,60000.0,Thu Sep 18 2025 14:38:14 GMT-0500 (Central Daylight Time),642715.9000000954,A,meado,I,o,159,2,1432.8000001907349,641283.0999999046,8051,WL,A,5.0
5,10.963000059127808,learn,60000.0,Thu Sep 18 2025 14:38:14 GMT-0500 (Central Daylight Time),642932.5999999046,A,meadow,I,w,209,2,1649.5,641283.0999999046,8051,WL,A,5.0
5,11.180000066757202,learn,60000.0,Thu Sep 18 2025 14:38:14 GMT-0500 (Central Daylight Time),643148.9000000954,A,meadowenter,I,enter,201,2,1865.8000001907349,641283.0999999046,8051,WL,A,5.0
5,11.946000099182129,learn,60000.0,Thu Sep 18 2025 14:38:14 GMT-0500 (Central Daylight Time),643915.4000000954,A,h,I,h,759,2,766.2000000476837,643149.2000000477,8051,WL,A,6.0
5,12.09600019454956,learn,60000.0,Thu Sep 18 2025 14:38:14 GMT-0500 (Central Daylight Time),644065.2999999523,A,ha,I,a,145,2,916.0999999046326,643149.2000000477,8051,WL,A,6.0
5,12.398000001907349,learn,60000.0,Thu Sep 18 2025 14:38:14 GMT-0500 (Central Daylight Time),644367.0,A,har,I,r,297,2,1217.7999999523163,643149.2000000477,8051,WL,A,6.0
5,12.545000076293945,learn,60000.0,Thu Sep 18 2025 14:38:14 GMT-0500 (Central Daylight Time),644514.5,A,harp,I,p,140,2,1365.2999999523163,643149.2000000477,8051,WL,A,6.0
5,12.879000186920166,learn,60000.0,Thu Sep 18 2025 14:38:14 GMT-0500 (Central Daylight Time),644848.7000000477,A,harpenter,I,enter,314,2,1699.5,643149.2000000477,8051,WL,A,6.0
5,14.546000003814697,learn,60000.0,Thu Sep 18 2025 14:38:14 GMT-0500 (Central Daylight Time),646514.9000000954,A,f,I,f,1653,2,1665.8000001907349,644849.0999999046,8051,WL,A,7.0
5,14.728000164031982,learn,60000.0,Thu Sep 18 2025 14:38:14 GMT-0500 (Central Daylight Time),646697.7000000477,A,fl,I,l,178,2,1848.6000001430511,644849.0999999046,8051,WL,A,7.0
5,14.912000179290771,learn,60000.0,Thu Sep 18 2025 14:38:14 GMT-0500 (Central Daylight Time),646881.0,A,flo,I,o,171,2,2031.9000000953674,644849.0999999046,8051,WL,A,7.0
5,15.09500002861023,learn,60000.0,Thu Sep 18 2025 14:38:14 GMT-0500 (Central Daylight Time),647064.4000000954,A,flow,I,w,164,2,2215.300000190735,644849.0999999046,8051,WL,A,7.0
5,15.34500002861023,learn,60000.0,Thu Sep 18 2025 14:38:14 GMT-0500 (Central Daylight Time),647314.2999999523,A,flowe,I,e,236,2,2465.2000000476837,644849.0999999046,8051,WL,A,7.0
5,15.611999988555908,learn,60000.0,Thu Sep 18 2025 14:38:14 GMT-0500 (Central Daylight Time),647581.0,A,flower,I,r,258,2,2731.9000000953674,644849.0999999046,8051,WL,A,7.0
5,16.92799997329712,learn,60000.0,Thu Sep 18 2025 14:38:14 GMT-0500 (Central Daylight Time),648897.2999999523,A,flowe,I,backspace,1296,2,4048.2000000476837,644849.0999999046,8051,WL,A,7.0
5,17.09500002861023,learn,60000.0,Thu Sep 18 2025 14:38:14 GMT-0500 (Central Daylight Time),649063.7999999523,A,flow,I,backspace,147,2,4214.700000047684,644849.0999999046,8051,WL,A,7.0
5,17.24500012397766,learn,60000.0,Thu Sep 18 2025 14:38:14 GMT-0500 (Central Daylight Time),649213.9000000954,A,flo,I,backspace,133,2,4364.800000190735,644849.0999999046,8051,WL,A,7.0
5,17.377000093460083,learn,60000.0,Thu Sep 18 2025 14:38:14 GMT-0500 (Central Daylight Time),649346.7999999523,A,fl,I,backspace,128,2,4497.700000047684,644849.0999999046,8051,WL,A,7.0
5,17.511000156402588,learn,60000.0,Thu Sep 18 2025 14:38:14 GMT-0500 (Central Daylight Time),649480.4000000954,A,f,I,backspace,122,2,4631.300000190735,644849.0999999046,8051,WL,A,7.0
5,17.66100001335144,learn,60000.0,Thu Sep 18 2025 14:38:14 GMT-0500 (Central Daylight Time),649630.2000000477,A,,I,backspace,132,2,4781.100000143051,644849.0999999046,8051,WL,A,7.0
5,20.0770001411438,learn,60000.0,Thu Sep 18 2025 14:38:14 GMT-0500 (Central Daylight Time),652046.2999999523,A,s,I,s,2407,2,7197.200000047684,644849.0999999046,8051,WL,A,7.0
5,20.259999990463257,learn,60000.0,Thu Sep 18 2025 14:38:14 GMT-0500 (Central Daylight Time),652229.5,A,sa,I,a,174,2,7380.400000095367,644849.0999999046,8051,WL,A,7.0
5,20.39400005340576,learn,60000.0,Thu Sep 18 2025 14:38:14 GMT-0500 (Central Daylight Time),652363.0,A,sal,I,l,127,2,7513.900000095367,644849.0999999046,8051,WL,A,7.0
5,20.5770001411438,learn,60000.0,Thu Sep 18 2025 14:38:14 GMT-0500 (Central Daylight Time),652546.4000000954,A,salt,I,t,170,2,7697.300000190735,644849.0999999046,8051,WL,A,7.0
5,20.8270001411438,learn,60000.0,Thu Sep 18 2025 14:38:14 GMT-0500 (Central Daylight Time),652795.7999999523,A,saltenter,I,enter,234,2,7946.700000047684,644849.0999999046,8051,WL,A,7.0
5,22.460000038146973,learn,60000.0,Thu Sep 18 2025 14:38:14 GMT-0500 (Central Daylight Time),654429.0,A,c,I,c,1616,2,1632.9000000953674,652796.0999999046,8051,WL,A,8.0
5,22.64300012588501,learn,60000.0,Thu Sep 18 2025 14:38:14 GMT-0500 (Central Daylight Time),654611.9000000954,A,ch,I,h,167,2,1815.8000001907349,652796.0999999046,8051,WL,A,8.0
5,22.87600016593933,learn,60000.0,Thu Sep 18 2025 14:38:14 GMT-0500 (Central Daylight Time),654845.5,A,chi,I,i,226,2,2049.4000000953674,652796.0999999046,8051,WL,A,8.0
5,23.159000158309937,learn,60000.0,Thu Sep 18 2025 14:38:14 GMT-0500 (Central Daylight Time),655128.5,A,chin,I,n,271,2,2332.4000000953674,652796.0999999046,8051,WL,A,8.0
5,23.87600016593933,learn,60000.0,Thu Sep 18 2025 14:38:14 GMT-0500 (Central Daylight Time),655845.2000000477,A,chi,I,backspace,708,2,3049.100000143051,652796.0999999046,8051,WL,A,8.0
5,24.16000008583069,learn,60000.0,Thu Sep 18 2025 14:38:14 GMT-0500 (Central Daylight Time),656129.2000000477,A,chim,I,m,263,2,3333.100000143051,652796.0999999046,8051,WL,A,8.0
5,24.392000198364258,learn,60000.0,Thu Sep 18 2025 14:38:14 GMT-0500 (Central Daylight Time),656361.4000000954,A,chimn,I,n,219,2,3565.300000190735,652796.0999999046,8051,WL,A,8.0
5,24.592000007629395,learn,60000.0,Thu Sep 18 2025 14:38:14 GMT-0500 (Central Daylight Time),656561.7000000477,A,chimne,I,e,187,2,3765.600000143051,652796.0999999046,8051,WL,A,8.0
5,24.875,learn,60000.0,Thu Sep 18 2025 14:38:14 GMT-0500 (Central Daylight Time),656844.9000000954,A,chimney,I,y,267,2,4048.800000190735,652796.0999999046,8051,WL,A,8.0
5,25.325000047683716,learn,60000.0,Thu Sep 18 2025 14:38:14 GMT-0500 (Central Daylight Time),657294.5,A,chimneyenter,I,enter,440,2,4498.400000095367,652796.0999999046,8051,WL,A,8.0
5,26.30900001525879,learn,60000.0,Thu Sep 18 2025 14:38:14 GMT-0500 (Central Daylight Time),658278.0999999046,A,f,I,f,966,2,983.1999998092651,657294.9000000954,8051,WL,A,9.0
5,26.52500009536743,learn,60000.0,Thu Sep 18 2025 14:38:14 GMT-0500 (Central Daylight Time),658494.2000000477,A,fi,I,i,198,2,1199.2999999523163,657294.9000000954,8051,WL,A,9.0
5,26.69099998474121,learn,60000.0,Thu Sep 18 2025 14:38:14 GMT-0500 (Central Daylight Time),658660.5999999046,A,fin,I,n,158,2,1365.6999998092651,657294.9000000954,8051,WL,A,9.0
5,27.10800004005432,learn,60000.0,Thu Sep 18 2025 14:38:14 GMT-0500 (Central Daylight Time),659077.2999999523,A,fing,I,g,408,2,1782.3999998569489,657294.9000000954,8051,WL,A,9.0
5,27.325000047683716,learn,60000.0,Thu Sep 18 2025 14:38:14 GMT-0500 (Central Daylight Time),659294.2000000477,A,finge,I,e,207,2,1999.2999999523163,657294.9000000954,8051,WL,A,9.0
5,27.44099998474121,learn,60000.0,Thu Sep 18 2025 14:38:14 GMT-0500 (Central Daylight Time),659410.5999999046,A,finger,I,r,102,2,2115.699999809265,657294.9000000954,8051,WL,A,9.0
5,27.70800018310547,learn,60000.0,Thu Sep 18 2025 14:38:14 GMT-0500 (Central Daylight Time),659677.2000000477,A,fingerenter,I,enter,258,2,2382.2999999523163,657294.9000000954,8051,WL,A,9.0
5,28.657000064849854,learn,60000.0,Thu Sep 18 2025 14:38:14 GMT-0500 (Central Daylight Time),660627.0,A,a,I,a,936,2,949.5,659677.5,8051,WL,A,10.0
5,28.94099998474121,learn,60000.0,Thu Sep 18 2025 14:38:14 GMT-0500 (Central Daylight Time),660910.0999999046,A,ap,I,p,265,2,1232.5999999046326,659677.5,8051,WL,A,10.0
5,29.091000080108643,learn,60000.0,Thu Sep 18 2025 14:38:14 GMT-0500 (Central Daylight Time),661060.2000000477,A,app,I,p,142,2,1382.7000000476837,659677.5,8051,WL,A,10.0
5,29.257000207901,learn,60000.0,Thu Sep 18 2025 14:38:14 GMT-0500 (Central Daylight Time),661227.0,A,appl,I,l,152,2,1549.5,659677.5,8051,WL,A,10.0
5,29.407000064849854,learn,60000.0,Thu Sep 18 2025 14:38:14 GMT-0500 (Central Daylight Time),661376.5999999046,A,apple,I,e,138,2,1699.0999999046326,659677.5,8051,WL,A,10.0
5,29.84000015258789,learn,60000.0,Thu Sep 18 2025 14:38:14 GMT-0500 (Central Daylight Time),661809.7999999523,A,appleenter,I,enter,420,2,2132.2999999523163,659677.5,8051,WL,A,10.0
5,34.371999979019165,learn,60000.0,Thu Sep 18 2025 14:38:14 GMT-0500 (Central Daylight Time),666341.5999999046,A,k,I,k,4523,2,4531.399999856949,661810.2000000477,8051,WL,A,11.0
5,34.555999994277954,learn,60000.0,Thu Sep 18 2025 14:38:14 GMT-0500 (Central Daylight Time),666525.4000000954,A,ke,I,e,168,2,4715.200000047684,661810.2000000477,8051,WL,A,11.0
5,34.789000034332275,learn,60000.0,Thu Sep 18 2025 14:38:14 GMT-0500 (Central Daylight Time),666758.0999999046,A,key,I,y,223,2,4947.899999856949,661810.2000000477,8051,WL,A,11.0
5,35.23800015449524,learn,60000.0,Thu Sep 18 2025 14:38:14 GMT-0500 (Central Daylight Time),667208.0,A,keyenter,I,enter,430,2,5397.799999952316,661810.2000000477,8051,WL,A,11.0
5,42.57000017166138,learn,60000.0,Thu Sep 18 2025 14:38:14 GMT-0500 (Central Daylight Time),674539.4000000954,A,g,I,g,7317,2,7331.0,667208.4000000954,8051,WL,A,12.0
5,42.72000002861023,learn,60000.0,Thu Sep 18 2025 14:38:14 GMT-0500 (Central Daylight Time),674689.2999999523,A,go,I,o,137,2,7480.899999856949,667208.4000000954,8051,WL,A,12.0
5,42.90300011634827,learn,60000.0,Thu Sep 18 2025 14:38:14 GMT-0500 (Central Daylight Time),674872.4000000954,A,gol,I,l,171,2,7664.0,667208.4000000954,8051,WL,A,12.0
5,43.07000017166138,learn,60000.0,Thu Sep 18 2025 14:38:14 GMT-0500 (Central Daylight Time),675039.2999999523,A,gold,I,d,157,2,7830.899999856949,667208.4000000954,8051,WL,A,12.0
5,43.76900005340576,learn,60000.0,Thu Sep 18 2025 14:38:14 GMT-0500 (Central Daylight Time),675738.7999999523,A,goldenter,I,enter,693,2,8530.399999856949,667208.4000000954,8051,WL,A,12.0
5,49.53400015830994,learn,60000.0,Thu Sep 18 2025 14:38:14 GMT-0500 (Central Daylight Time),681503.7999999523,A,b,I,b,5747,2,5764.700000047684,675739.0999999046,8051,WL,A,13.0
5,49.75100016593933,learn,60000.0,Thu Sep 18 2025 14:38:14 GMT-0500 (Central Daylight Time),681720.2000000477,A,bu,I,u,205,2,5981.100000143051,675739.0999999046,8051,WL,A,13.0
5,49.98400020599365,learn,60000.0,Thu Sep 18 2025 14:38:14 GMT-0500 (Central Daylight Time),681953.5,A,but,I,t,212,2,6214.400000095367,675739.0999999046,8051,WL,A,13.0
5,50.117000102996826,learn,60000.0,Thu Sep 18 2025 14:38:14 GMT-0500 (Central Daylight Time),682086.5999999046,A,butt,I,t,123,2,6347.5,675739.0999999046,8051,WL,A,13.0
5,50.28400015830994,learn,60000.0,Thu Sep 18 2025 14:38:14 GMT-0500 (Central Daylight Time),682253.2000000477,A,butto,I,o,150,2,6514.100000143051,675739.0999999046,8051,WL,A,13.0
5,50.467000007629395,learn,60000.0,Thu Sep 18 2025 14:38:14 GMT-0500 (Central Daylight Time),682436.7999999523,A,button,I,n,175,2,6697.700000047684,675739.0999999046,8051,WL,A,13.0
5,50.884000062942505,learn,60000.0,Thu Sep 18 2025 14:38:14 GMT-0500 (Central Daylight Time),682853.4000000954,A,buttonenter,I,enter,400,2,7114.300000190735,675739.0999999046,8051,WL,A,13.0
5,91.22100019454956,learn,60000.0,Thu Sep 18 2025 14:38:14 GMT-0500 (Central Daylight Time),723190.5999999046,A,enter,I,enter,40320,2,40336.89999985695,682853.7000000477,8051,WL,A,14.0
6,0.9170000553131104,distr,59082.99994468689,Thu Sep 18 2025 14:38:14 GMT-0500 (Central Daylight Time),797100.7999999523,B,b,I,b,901,2,916.2000000476837,796184.5999999046,8051,WL,A,1.0
6,1.2170000076293945,distr,58782.999992370605,Thu Sep 18 2025 14:38:14 GMT-0500 (Central Daylight Time),797400.7999999523,B,bo,I,o,287,2,1216.2000000476837,796184.5999999046,8051,WL,A,1.0
6,1.433000087738037,distr,58566.99991226196,Thu Sep 18 2025 14:38:14 GMT-0500 (Central Daylight Time),797617.2999999523,B,bow,I,w,196,2,1432.7000000476837,796184.5999999046,8051,WL,A,1.0
6,1.6000001430511475,distr,58399.99985694885,Thu Sep 18 2025 14:38:14 GMT-0500 (Central Daylight Time),797783.7000000477,B,bowl,I,l,147,2,1599.1000001430511,796184.5999999046,8051,WL,A,1.0
6,2.700000047683716,distr,57299.999952316284,Thu Sep 18 2025 14:38:14 GMT-0500 (Central Daylight Time),798883.5,B,bowlenter,I,enter,1094,2,2698.9000000953674,796184.5999999046,8051,WL,A,1.0
6,3.183000087738037,distr,56816.99991226196,Thu Sep 18 2025 14:38:14 GMT-0500 (Central Daylight Time),799366.7000000477,B,d,I,d,466,2,482.90000009536743,798883.7999999523,8051,WL,A,2.0
6,3.56600022315979,distr,56433.99977684021,Thu Sep 18 2025 14:38:14 GMT-0500 (Central Daylight Time),799750.0999999046,B,do,I,o,366,2,866.2999999523163,798883.7999999523,8051,WL,A,2.0
6,3.882000207901001,distr,56117.999792099,Thu Sep 18 2025 14:38:14 GMT-0500 (Central Daylight Time),800066.4000000954,B,don,I,n,303,2,1182.6000001430511,798883.7999999523,8051,WL,A,2.0
6,5.249000072479248,distr,54750.99992752075,Thu Sep 18 2025 14:38:14 GMT-0500 (Central Daylight Time),801432.9000000954,B,do,I,backspace,1346,2,2549.100000143051,798883.7999999523,8051,WL,A,2.0
6,5.715000152587891,distr,54284.99984741211,Thu Sep 18 2025 14:38:14 GMT-0500 (Central Daylight Time),801899.0999999046,B,d,I,backspace,452,2,3015.2999999523163,798883.7999999523,8051,WL,A,2.0
6,5.882000207901001,distr,54117.999792099,Thu Sep 18 2025 14:38:14 GMT-0500 (Central Daylight Time),802066.0,B,da,I,a,154,2,3182.2000000476837,798883.7999999523,8051,WL,A,2.0
6,6.115000009536743,distr,53884.99999046326,Thu Sep 18 2025 14:38:14 GMT-0500 (Central Daylight Time),802299.0999999046,B,daw,I,w,226,2,3415.2999999523163,798883.7999999523,8051,WL,A,2.0
6,7.565000057220459,distr,52434.99994277954,Thu Sep 18 2025 14:38:14 GMT-0500 (Central Daylight Time),803748.5999999046,B,dawn,I,n,1434,2,4864.799999952316,798883.7999999523,8051,WL,A,2.0
6,8.065000057220459,distr,51934.99994277954,Thu Sep 18 2025 14:38:14 GMT-0500 (Central Daylight Time),804248.7000000477,B,dawnenter,I,enter,488,2,5364.900000095367,798883.7999999523,8051,WL,A,2.0
6,9.064000129699707,distr,50935.99987030029,Thu Sep 18 2025 14:38:14 GMT-0500 (Central Daylight Time),805248.0999999046,B,j,I,j,980,2,999.0,804249.0999999046,8051,WL,A,3.0
6,9.231000185012817,distr,50768.99981498718,Thu Sep 18 2025 14:38:14 GMT-0500 (Central Daylight Time),805414.7999999523,B,ju,I,u,148,2,1165.7000000476837,804249.0999999046,8051,WL,A,3.0
6,9.897000074386597,distr,50102.9999256134,Thu Sep 18 2025 14:38:14 GMT-0500 (Central Daylight Time),806081.2999999523,B,jud,I,d,646,2,1832.2000000476837,804249.0999999046,8051,WL,A,3.0
6,10.19700002670288,distr,49802.99997329712,Thu Sep 18 2025 14:38:14 GMT-0500 (Central Daylight Time),806381.0,B,judg,I,g,283,2,2131.9000000953674,804249.0999999046,8051,WL,A,3.0
6,10.347000122070312,distr,49652.99987792969,Thu Sep 18 2025 14:38:14 GMT-0500 (Central Daylight Time),806531.0999999046,B,judge,I,e,144,2,2282.0,804249.0999999046,8051,WL,A,3.0
6,10.680000066757202,distr,49319.9999332428,Thu Sep 18 2025 14:38:14 GMT-0500 (Central Daylight Time),806864.2000000477,B,judgeenter,I,enter,322,2,2615.100000143051,804249.0999999046,8051,WL,A,3.0
6,11.564000129699707,distr,48435.99987030029,Thu Sep 18 2025 14:38:14 GMT-0500 (Central Daylight Time),807747.7000000477,B,g,I,g,877,2,883.2999999523163,806864.4000000954,8051,WL,A,4.0
6,11.797000169754028,distr,48202.99983024597,Thu Sep 18 2025 14:38:14 GMT-0500 (Central Daylight Time),807980.9000000954,B,gr,I,r,225,2,1116.5,806864.4000000954,8051,WL,A,4.0
6,12.013000011444092,distr,47986.99998855591,Thu Sep 18 2025 14:38:14 GMT-0500 (Central Daylight Time),808197.0999999046,B,grq,I,q,208,2,1332.6999998092651,806864.4000000954,8051,WL,A,4.0
6,12.03000020980835,distr,47969.99979019165,Thu Sep 18 2025 14:38:14 GMT-0500 (Central Daylight Time),808214.2000000477,B,grqa,I,a,0,2,1349.7999999523163,806864.4000000954,8051,WL,A,4.0
6,12.180999994277954,distr,47819.000005722046,Thu Sep 18 2025 14:38:14 GMT-0500 (Central Daylight Time),808365.0999999046,B,grqan,I,n,134,2,1500.6999998092651,806864.4000000954,8051,WL,A,4.0
6,12.963000059127808,distr,47036.99994087219,Thu Sep 18 2025 14:38:14 GMT-0500 (Central Daylight Time),809147.0,B,grqa,I,backspace,768,2,2282.5999999046326,806864.4000000954,8051,WL,A,4.0
6,13.190000057220459,distr,46809.99994277954,Thu Sep 18 2025 14:38:14 GMT-0500 (Central Daylight Time),809374.5,B,grq,I,backspace,222,2,2510.0999999046326,806864.4000000954,8051,WL,A,4.0
6,13.338000059127808,distr,46661.99994087219,Thu Sep 18 2025 14:38:14 GMT-0500 (Central Daylight Time),809521.7999999523,B,gr,I,backspace,142,2,2657.399999856949,806864.4000000954,8051,WL,A,4.0
6,13.59600019454956,distr,46403.99980545044,Thu Sep 18 2025 14:38:14 GMT-0500 (Central Daylight Time),809780.2999999523,B,g,I,backspace,249,2,2915.899999856949,806864.4000000954,8051,WL,A,4.0
6,13.84600019454956,distr,46153.99980545044,Thu Sep 18 2025 14:38:14 GMT-0500 (Central Daylight Time),810030.2999999523,B,ga,I,a,241,2,3165.899999856949,806864.4000000954,8051,WL,A,4.0
6,14.279000043869019,distr,45720.99995613098,Thu Sep 18 2025 14:38:14 GMT-0500 (Central Daylight Time),810463.2999999523,B,g,I,backspace,422,2,3598.899999856949,806864.4000000954,8051,WL,A,4.0
6,14.545000076293945,distr,45454.999923706055,Thu Sep 18 2025 14:38:14 GMT-0500 (Central Daylight Time),810729.5,B,gr,I,r,261,2,3865.0999999046326,806864.4000000954,8051,WL,A,4.0
6,14.779000043869019,distr,45220.99995613098,Thu Sep 18 2025 14:38:14 GMT-0500 (Central Daylight Time),810963.2000000477,B,gra,I,a,227,2,4098.799999952316,806864.4000000954,8051,WL,A,4.0
6,15.01200008392334,distr,44987.99991607666,Thu Sep 18 2025 14:38:14 GMT-0500 (Central Daylight Time),811196.4000000954,B,grab,I,b,225,2,4332.0,806864.4000000954,8051,WL,A,4.0
6,15.162000179290771,distr,44837.99982070923,Thu Sep 18 2025 14:38:14 GMT-0500 (Central Daylight Time),811346.0,B,grabt,I,t,144,2,4481.599999904633,806864.4000000954,8051,WL,A,4.0
6,15.84500002861023,distr,44154.99997138977,Thu Sep 18 2025 14:38:14 GMT-0500 (Central Daylight Time),812029.2999999523,B,grab,I,backspace,675,2,5164.899999856949,806864.4000000954,8051,WL,A,4.0
6,16.02900004386902,distr,43970.99995613098,Thu Sep 18 2025 14:38:14 GMT-0500 (Central Daylight Time),812212.5999999046,B,gra,I,backspace,168,2,5348.199999809265,806864.4000000954,8051,WL,A,4.0
6,16.962000131607056,distr,43037.999868392944,Thu Sep 18 2025 14:38:14 GMT-0500 (Central Daylight Time),813145.9000000954,B,gran,I,n,921,2,6281.5,806864.4000000954,8051,WL,A,4.0
6,17.07800006866455,distr,42921.99993133545,Thu Sep 18 2025 14:38:14 GMT-0500 (Central Daylight Time),813262.2000000477,B,grant,I,t,98,2,6397.799999952316,806864.4000000954,8051,WL,A,4.0
6,17.361999988555908,distr,42638.00001144409,Thu Sep 18 2025 14:38:14 GMT-0500 (Central Daylight Time),813545.7999999523,B,grantenter,I,enter,262,2,6681.399999856949,806864.4000000954,8051,WL,A,4.0
6,17.74500012397766,distr,42254.99987602234,Thu Sep 18 2025 14:38:14 GMT-0500 (Central Daylight Time),813928.9000000954,B,i,I,i,371,2,382.80000019073486,813546.0999999046,8051,WL,A,5.0
6,17.961000204086304,distr,42038.999795913696,Thu Sep 18 2025 14:38:14 GMT-0500 (Central Daylight Time),814145.2999999523,B,in,I,n,204,2,599.2000000476837,813546.0999999046,8051,WL,A,5.0
6,18.34500002861023,distr,41654.99997138977,Thu Sep 18 2025 14:38:14 GMT-0500 (Central Daylight Time),814528.7000000477,B,ins,I,s,363,2,982.6000001430511,813546.0999999046,8051,WL,A,5.0
6,18.545000076293945,distr,41454.999923706055,Thu Sep 18 2025 14:38:14 GMT-0500 (Central Daylight Time),814728.7000000477,B,inse,I,e,188,2,1182.6000001430511,813546.0999999046,8051,WL,A,5.0
6,18.778000116348267,distr,41221.99988365173,Thu Sep 18 2025 14:38:14 GMT-0500 (Central Daylight Time),814961.7999999523,B,insec,I,c,220,2,1415.7000000476837,813546.0999999046,8051,WL,A,5.0
6,19.011000156402588,distr,40988.99984359741,Thu Sep 18 2025 14:38:14 GMT-0500 (Central Daylight Time),815195.0,B,insect,I,t,220,2,1648.9000000953674,813546.0999999046,8051,WL,A,5.0
6,19.261000156402588,distr,40738.99984359741,Thu Sep 18 2025 14:38:14 GMT-0500 (Central Daylight Time),815445.0,B,insectenter,I,enter,235,2,1898.9000000953674,813546.0999999046,8051,WL,A,5.0
6,28.657999992370605,distr,31342.000007629395,Thu Sep 18 2025 14:38:14 GMT-0500 (Central Daylight Time),824842.0999999046,B,s,I,s,9385,2,9396.799999952316,815445.2999999523,8051,WL,A,6.0
6,29.058000087738037,distr,30941.999912261963,Thu Sep 18 2025 14:38:14 GMT-0500 (Central Daylight Time),825242.0,B,sh,I,h,386,2,9796.700000047684,815445.2999999523,8051,WL,A,6.0
6,29.224000215530396,distr,30775.999784469604,Thu Sep 18 2025 14:38:14 GMT-0500 (Central Daylight Time),825408.2999999523,B,she,I,e,155,2,9963.0,815445.2999999523,8051,WL,A,6.0
6,29.35800004005432,distr,30641.99995994568,Thu Sep 18 2025 14:38:14 GMT-0500 (Central Daylight Time),825541.7000000477,B,shee,I,e,124,2,10096.400000095367,815445.2999999523,8051,WL,A,6.0
6,29.491000175476074,distr,30508.999824523926,Thu Sep 18 2025 14:38:14 GMT-0500 (Central Daylight Time),825675.0,B,sheep,I,p,127,2,10229.700000047684,815445.2999999523,8051,WL,A,6.0
6,29.808000087738037,distr,30191.999912261963,Thu Sep 18 2025 14:38:14 GMT-0500 (Central Daylight Time),825991.7000000477,B,sheepenter,I,enter,298,2,10546.400000095367,815445.2999999523,8051,WL,A,6.0
6,30.307000160217285,distr,29692.999839782715,Thu Sep 18 2025 14:38:14 GMT-0500 (Central Daylight Time),826491.5,B,c,I,c,485,2,499.40000009536743,825992.0999999046,8051,WL,A,7.0
6,30.45800018310547,distr,29541.99981689453,Thu Sep 18 2025 14:38:14 GMT-0500 (Central Daylight Time),826641.5999999046,B,ch,I,h,137,2,649.5,825992.0999999046,8051,WL,A,7.0
6,30.574000120162964,distr,29425.999879837036,Thu Sep 18 2025 14:38:14 GMT-0500 (Central Daylight Time),826758.0,B,cha,I,a,99,2,765.9000000953674,825992.0999999046,8051,WL,A,7.0
6,30.707000017166138,distr,29292.999982833862,Thu Sep 18 2025 14:38:14 GMT-0500 (Central Daylight Time),826891.4000000954,B,chai,I,i,119,2,899.3000001907349,825992.0999999046,8051,WL,A,7.0
6,30.891000032424927,distr,29108.999967575073,Thu Sep 18 2025 14:38:14 GMT-0500 (Central Daylight Time),827074.7999999523,B,chair,I,r,169,2,1082.7000000476837,825992.0999999046,8051,WL,A,7.0
6,31.040000200271606,distr,28959.999799728394,Thu Sep 18 2025 14:38:14 GMT-0500 (Central Daylight Time),827224.4000000954,B,chairenter,I,enter,138,2,1232.3000001907349,825992.0999999046,8051,WL,A,7.0
6,33.82300019264221,distr,26176.999807357788,Thu Sep 18 2025 14:38:14 GMT-0500 (Central Daylight Time),830007.2000000477,B,enter,I,enter,2774,2,2782.600000143051,827224.5999999046,8051,WL,A,8.0
6,34.123000144958496,distr,25876.999855041504,Thu Sep 18 2025 14:38:14 GMT-0500 (Central Daylight Time),830306.7000000477,B,enter,I,enter,295,2,299.10000014305115,830007.5999999046,8051,WL,A,9.0
6,34.4060001373291,distr,25593.9998626709,Thu Sep 18 2025 14:38:14 GMT-0500 (Central Daylight Time),830590.2999999523,B,enter,I,enter,266,2,283.2999999523163,830307.0,8051,WL,A,10.0
6,34.57300019264221,distr,25426.999807357788,Thu Sep 18 2025 14:38:14 GMT-0500 (Central Daylight Time),830756.7999999523,B,enter,I,enter,151,2,166.09999990463257,830590.7000000477,8051,WL,A,11.0
6,34.74000000953674,distr,25259.999990463257,Thu Sep 18 2025 14:38:14 GMT-0500 (Central Daylight Time),830923.5,B,enter,I,enter,161,2,166.40000009536743,830757.0999999046,8051,WL,A,12.0
6,34.890000104904175,distr,25109.999895095825,Thu Sep 18 2025 14:38:14 GMT-0500 (Central Daylight Time),831073.5999999046,B,enter,I,enter,137,2,149.69999980926514,830923.9000000954,8051,WL,A,13.0
6,35.10600018501282,distr,24893.999814987183,Thu Sep 18 2025 14:38:14 GMT-0500 (Central Daylight Time),831289.7999999523,B,enter,I,enter,211,2,215.79999995231628,831074.0,8051,WL,A,14.0
6,35.32200002670288,distr,24677.99997329712,Thu Sep 18 2025 14:38:14 GMT-0500 (Central Daylight Time),831506.5,B,enter,I,enter,203,2,216.5,831290.0,8051,WL,A,15.0
7,1.5160000324249268,immed,58483.99996757507,Thu Sep 18 2025 14:38:14 GMT-0500 (Central Daylight Time),852800.0999999046,A,b,I,b,1505,2,1516.0,851284.0999999046,8051,WL,A,1.0
7,1.7990000247955322,immed,58200.99997520447,Thu Sep 18 2025 14:38:14 GMT-0500 (Central Daylight Time),853083.0999999046,A,bo,I,o,276,2,1799.0,851284.0999999046,8051,WL,A,1.0
7,1.9660000801086426,immed,58033.99991989136,Thu Sep 18 2025 14:38:14 GMT-0500 (Central Daylight Time),853250.0,A,boo,I,o,154,2,1965.9000000953674,851284.0999999046,8051,WL,A,1.0
7,2.8320000171661377,immed,57167.99998283386,Thu Sep 18 2025 14:38:14 GMT-0500 (Central Daylight Time),854116.2000000477,A,book,I,k,858,2,2832.100000143051,851284.0999999046,8051,WL,A,1.0
7,3.365000009536743,immed,56634.99999046326,Thu Sep 18 2025 14:38:14 GMT-0500 (Central Daylight Time),854649.2000000477,A,bookenter,I,enter,520,2,3365.100000143051,851284.0999999046,8051,WL,A,1.0
7,3.7649998664855957,immed,56235.000133514404,Thu Sep 18 2025 14:38:14 GMT-0500 (Central Daylight Time),855049.2000000477,A,f,I,f,395,2,399.7000000476837,854649.5,8051,WL,A,2.0
7,4.014999866485596,immed,55985.000133514404,Thu Sep 18 2025 14:38:14 GMT-0500 (Central Daylight Time),855299.2000000477,A,fl,I,l,233,2,649.7000000476837,854649.5,8051,WL,A,2.0
7,4.180999994277954,immed,55819.000005722046,Thu Sep 18 2025 14:38:14 GMT-0500 (Central Daylight Time),855465.7000000477,A,flo,I,o,161,2,816.2000000476837,854649.5,8051,WL,A,2.0
7,4.330999851226807,immed,55669.00014877319,Thu Sep 18 2025 14:38:14 GMT-0500 (Central Daylight Time),855615.7000000477,A,flow,I,w,140,2,966.2000000476837,854649.5,8051,WL,A,2.0
7,4.514999866485596,immed,55485.000133514404,Thu Sep 18 2025 14:38:14 GMT-0500 (Central Daylight Time),855799.2000000477,A,flowe,I,e,164,2,1149.7000000476837,854649.5,8051,WL,A,2.0
7,4.73199987411499,immed,55268.00012588501,Thu Sep 18 2025 14:38:14 GMT-0500 (Central Daylight Time),856015.7999999523,A,flower,I,r,205,2,1366.2999999523163,854649.5,8051,WL,A,2.0
7,4.914999961853027,immed,55085.00003814697,Thu Sep 18 2025 14:38:14 GMT-0500 (Central Daylight Time),856198.7999999523,A,flowerenter,I,enter,174,2,1549.2999999523163,854649.5,8051,WL,A,2.0
7,5.448999881744385,immed,54551.000118255615,Thu Sep 18 2025 14:38:14 GMT-0500 (Central Daylight Time),856732.9000000954,A,t,I,t,526,2,533.7000000476837,856199.2000000477,8051,WL,A,3.0
7,5.664999961853027,immed,54335.00003814697,Thu Sep 18 2025 14:38:14 GMT-0500 (Central Daylight Time),856948.9000000954,A,tr,I,r,198,2,749.7000000476837,856199.2000000477,8051,WL,A,3.0
7,5.88100004196167,immed,54118.99995803833,Thu Sep 18 2025 14:38:14 GMT-0500 (Central Daylight Time),857165.5999999046,A,tra,I,a,200,2,966.3999998569489,856199.2000000477,8051,WL,A,3.0
7,6.0309998989105225,immed,53969.00010108948,Thu Sep 18 2025 14:38:14 GMT-0500 (Central Daylight Time),857315.2000000477,A,trai,I,i,135,2,1116.0,856199.2000000477,8051,WL,A,3.0
7,6.197000026702881,immed,53802.99997329712,Thu Sep 18 2025 14:38:14 GMT-0500 (Central Daylight Time),857481.5999999046,A,train,I,n,161,2,1282.3999998569489,856199.2000000477,8051,WL,A,3.0
7,6.647000074386597,immed,53352.9999256134,Thu Sep 18 2025 14:38:14 GMT-0500 (Central Daylight Time),857931.7000000477,A,trainenter,I,enter,442,2,1732.5,856199.2000000477,8051,WL,A,3.0
7,9.180000066757202,immed,50819.9999332428,Thu Sep 18 2025 14:38:14 GMT-0500 (Central Daylight Time),860464.2000000477,A,s,I,s,2521,2,2532.2000000476837,857932.0,8051,WL,A,4.0
7,9.346999883651733,immed,50653.00011634827,Thu Sep 18 2025 14:38:14 GMT-0500 (Central Daylight Time),860630.9000000954,A,sa,I,a,148,2,2698.9000000953674,857932.0,8051,WL,A,4.0
7,9.480000019073486,immed,50519.999980926514,Thu Sep 18 2025 14:38:14 GMT-0500 (Central Daylight Time),860764.0999999046,A,sal,I,l,118,2,2832.0999999046326,857932.0,8051,WL,A,4.0
7,9.680000066757202,immed,50319.9999332428,Thu Sep 18 2025 14:38:14 GMT-0500 (Central Daylight Time),860963.9000000954,A,salt,I,t,192,2,3031.9000000953674,857932.0,8051,WL,A,4.0
7,9.86299991607666,immed,50137.00008392334,Thu Sep 18 2025 14:38:14 GMT-0500 (Central Daylight Time),861147.2999999523,A,saltenter,I,enter,177,2,3215.2999999523163,857932.0,8051,WL,A,4.0
7,12.428999900817871,immed,47571.00009918213,Thu Sep 18 2025 14:38:14 GMT-0500 (Central Daylight Time),863713.5999999046,A,n,I,n,2545,2,2566.0,861147.5999999046,8051,WL,A,5.0
7,12.961999893188477,immed,47038.00010681152,Thu Sep 18 2025 14:38:14 GMT-0500 (Central Daylight Time),864246.5999999046,A,,I,backspace,522,2,3099.0,861147.5999999046,8051,WL,A,5.0
7,13.244999885559082,immed,46755.00011444092,Thu Sep 18 2025 14:38:14 GMT-0500 (Central Daylight Time),864529.5,A,m,I,m,263,2,3381.9000000953674,861147.5999999046,8051,WL,A,5.0
7,13.394999980926514,immed,46605.000019073486,Thu Sep 18 2025 14:38:14 GMT-0500 (Central Daylight Time),864679.5999999046,A,me,I,e,131,2,3532.0,861147.5999999046,8051,WL,A,5.0
7,13.59500002861023,immed,46404.99997138977,Thu Sep 18 2025 14:38:14 GMT-0500 (Central Daylight Time),864879.5999999046,A,mea,I,a,190,2,3732.0,861147.5999999046,8051,WL,A,5.0
7,13.711999893188477,immed,46288.00010681152,Thu Sep 18 2025 14:38:14 GMT-0500 (Central Daylight Time),864996.2000000477,A,mead,I,d,109,2,3848.600000143051,861147.5999999046,8051,WL,A,5.0
7,13.894999980926514,immed,46105.000019073486,Thu Sep 18 2025 14:38:14 GMT-0500 (Central Daylight Time),865179.0999999046,A,meado,I,o,176,2,4031.5,861147.5999999046,8051,WL,A,5.0
7,14.062000036239624,immed,45937.999963760376,Thu Sep 18 2025 14:38:14 GMT-0500 (Central Daylight Time),865346.2999999523,A,meadow,I,w,155,2,4198.700000047684,861147.5999999046,8051,WL,A,5.0
7,14.312000036239624,immed,45687.999963760376,Thu Sep 18 2025 14:38:14 GMT-0500 (Central Daylight Time),865595.7999999523,A,meadowenter,I,enter,235,2,4448.200000047684,861147.5999999046,8051,WL,A,5.0
7,15.878000020980835,immed,44121.999979019165,Thu Sep 18 2025 14:38:14 GMT-0500 (Central Daylight Time),867161.9000000954,A,g,I,g,1553,2,1565.7000000476837,865596.2000000477,8051,WL,A,6.0
7,16.045000076293945,immed,43954.999923706055,Thu Sep 18 2025 14:38:14 GMT-0500 (Central Daylight Time),867329.4000000954,A,go,I,o,163,2,1733.2000000476837,865596.2000000477,8051,WL,A,6.0
7,16.210999965667725,immed,43789.000034332275,Thu Sep 18 2025 14:38:14 GMT-0500 (Central Daylight Time),867495.4000000954,A,gol,I,l,156,2,1899.2000000476837,865596.2000000477,8051,WL,A,6.0
7,16.378000020980835,immed,43621.999979019165,Thu Sep 18 2025 14:38:14 GMT-0500 (Central Daylight Time),867662.2000000477,A,gold,I,d,150,2,2066.0,865596.2000000477,8051,WL,A,6.0
7,16.628000020980835,immed,43371.999979019165,Thu Sep 18 2025 14:38:14 GMT-0500 (Central Daylight Time),867911.9000000954,A,goldenter,I,enter,231,2,2315.7000000476837,865596.2000000477,8051,WL,A,6.0
7,18.960000038146973,immed,41039.99996185303,Thu Sep 18 2025 14:38:14 GMT-0500 (Central Daylight Time),870244.5,A,s,I,s,2317,2,2332.2999999523163,867912.2000000477,8051,WL,A,7.0
7,19.177000045776367,immed,40822.99995422363,Thu Sep 18 2025 14:38:14 GMT-0500 (Central Daylight Time),870461.0,A,sa,I,a,200,2,2548.7999999523163,867912.2000000477,8051,WL,A,7.0
7,19.30999994277954,immed,40690.00005722046,Thu Sep 18 2025 14:38:14 GMT-0500 (Central Daylight Time),870594.0,A,sal,I,l,129,2,2681.7999999523163,867912.2000000477,8051,WL,A,7.0
7,19.542999982833862,immed,40457.00001716614,Thu Sep 18 2025 14:38:14 GMT-0500 (Central Daylight Time),870827.7000000477,A,salt,I,t,228,2,2915.5,867912.2000000477,8051,WL,A,7.0
7,19.677000045776367,immed,40322.99995422363,Thu Sep 18 2025 14:38:14 GMT-0500 (Central Daylight Time),870960.7999999523,A,saltenter,I,enter,112,2,3048.5999999046326,867912.2000000477,8051,WL,A,7.0
7,22.325999975204468,immed,37674.00002479553,Thu Sep 18 2025 14:38:14 GMT-0500 (Central Daylight Time),873609.9000000954,A,f,I,f,2644,2,2648.9000000953674,870961.0,8051,WL,A,8.0
7,22.542999982833862,immed,37457.00001716614,Thu Sep 18 2025 14:38:14 GMT-0500 (Central Daylight Time),873826.7999999523,A,fi,I,i,204,2,2865.7999999523163,870961.0,8051,WL,A,8.0
7,22.72699999809265,immed,37273.00000190735,Thu Sep 18 2025 14:38:14 GMT-0500 (Central Daylight Time),874011.0,A,fin,I,n,170,2,3050.0,870961.0,8051,WL,A,8.0
7,22.842000007629395,immed,37157.999992370605,Thu Sep 18 2025 14:38:14 GMT-0500 (Central Daylight Time),874126.5,A,fing,I,g,97,2,3165.5,870961.0,8051,WL,A,8.0
7,23.04200005531311,immed,36957.99994468689,Thu Sep 18 2025 14:38:14 GMT-0500 (Central Daylight Time),874326.4000000954,A,finge,I,e,190,2,3365.4000000953674,870961.0,8051,WL,A,8.0
7,23.108999967575073,immed,36891.00003242493,Thu Sep 18 2025 14:38:14 GMT-0500 (Central Daylight Time),874393.4000000954,A,finger,I,r,54,2,3432.4000000953674,870961.0,8051,WL,A,8.0
7,23.241999864578247,immed,36758.00013542175,Thu Sep 18 2025 14:38:14 GMT-0500 (Central Daylight Time),874526.5,A,fingerenter,I,enter,124,2,3565.5,870961.0,8051,WL,A,8.0
7,25.991999864578247,immed,34008.00013542175,Thu Sep 18 2025 14:38:14 GMT-0500 (Central Daylight Time),877275.9000000954,A,k,I,k,2735,2,2749.0,874526.9000000954,8051,WL,A,9.0
7,26.141000032424927,immed,33858.99996757507,Thu Sep 18 2025 14:38:14 GMT-0500 (Central Daylight Time),877425.4000000954,A,ke,I,e,137,2,2898.5,874526.9000000954,8051,WL,A,9.0
7,26.29099988937378,immed,33709.00011062622,Thu Sep 18 2025 14:38:14 GMT-0500 (Central Daylight Time),877575.5,A,key,I,y,131,2,3048.5999999046326,874526.9000000954,8051,WL,A,9.0
7,26.723999977111816,immed,33276.00002288818,Thu Sep 18 2025 14:38:14 GMT-0500 (Central Daylight Time),878008.7000000477,A,keyenter,I,enter,413,2,3481.7999999523163,874526.9000000954,8051,WL,A,9.0
7,29.806999921798706,immed,30193.000078201294,Thu Sep 18 2025 14:38:14 GMT-0500 (Central Daylight Time),881091.0999999046,A,b,I,b,3068,2,3082.0999999046326,878009.0,8051,WL,A,10.0
7,30.08999991416931,immed,29910.00008583069,Thu Sep 18 2025 14:38:14 GMT-0500 (Central Daylight Time),881374.4000000954,A,bu,I,u,266,2,3365.4000000953674,878009.0,8051,WL,A,10.0
7,30.306999921798706,immed,29693.000078201294,Thu Sep 18 2025 14:38:14 GMT-0500 (Central Daylight Time),881590.9000000954,A,but,I,t,198,2,3581.9000000953674,878009.0,8051,WL,A,10.0
7,30.44000005722046,immed,29559.99994277954,Thu Sep 18 2025 14:38:14 GMT-0500 (Central Daylight Time),881724.2999999523,A,butt,I,t,126,2,3715.2999999523163,878009.0,8051,WL,A,10.0
7,30.60699987411499,immed,29393.00012588501,Thu Sep 18 2025 14:38:14 GMT-0500 (Central Daylight Time),881890.9000000954,A,butto,I,o,160,2,3881.9000000953674,878009.0,8051,WL,A,10.0
7,31.85599994659424,immed,28144.00005340576,Thu Sep 18 2025 14:38:14 GMT-0500 (Central Daylight Time),883140.5,A,button,I,n,1234,2,5131.5,878009.0,8051,WL,A,10.0
7,32.289000034332275,immed,27710.999965667725,Thu Sep 18 2025 14:38:14 GMT-0500 (Central Daylight Time),883573.7000000477,A,buttonenter,I,enter,425,2,5564.700000047684,878009.0,8051,WL,A,10.0
7,41.45300006866455,immed,18546.99993133545,Thu Sep 18 2025 14:38:14 GMT-0500 (Central Daylight Time),892737.2000000477,A,c,I,c,9151,2,9163.200000047684,883574.0,8051,WL,A,11.0
7,41.70300006866455,immed,18296.99993133545,Thu Sep 18 2025 14:38:14 GMT-0500 (Central Daylight Time),892987.2000000477,A,ch,I,h,235,2,9413.200000047684,883574.0,8051,WL,A,11.0
7,42.13599991798401,immed,17864.00008201599,Thu Sep 18 2025 14:38:14 GMT-0500 (Central Daylight Time),893420.5999999046,A,chi,I,i,426,2,9846.599999904633,883574.0,8051,WL,A,11.0
