block_c,block_dur,condition,countdown,datetime,endtime,list,multichar_response,project,response,response_time,session_number,start_end,starttime,subject_id,task,task_vers,trial
,,,,Fri Jan 30 2026 10:58:26 GMT-0600 (Central Standard Time),,,,I,space,612,3,,,8051,WL,C,
prac,,0,,Fri Jan 30 2026 10:58:26 GMT-0600 (Central Standard Time),,NA,b,I,b,2289,3,,,8051,WL,C,1.0
prac,,0,,Fri Jan 30 2026 10:58:26 GMT-0600 (Central Standard Time),,NA,bo,I,o,202,3,,,8051,WL,C,1.0
prac,,0,,Fri Jan 30 2026 10:58:26 GMT-0600 (Central Standard Time),,NA,boo,I,o,146,3,,,8051,WL,C,1.0
prac,,0,,Fri Jan 30 2026 10:58:26 GMT-0600 (Central Standard Time),,NA,boos,I,s,107,3,,,8051,WL,C,1.0
prac,,0,,Fri Jan 30 2026 10:58:26 GMT-0600 (Central Standard Time),,NA,boost,I,t,208,3,,,8051,WL,C,1.0
prac,,0,,Fri Jan 30 2026 10:58:26 GMT-0600 (Central Standard Time),,NA,boostenter,I,enter,1343,3,,,8051,WL,C,1.0
1,1.1489999294281006,learn,58851.0000705719,Fri Jan 30 2026 10:58:26 GMT-0600 (Central Standard Time),135927.19999998808,A,t,I,t,1130,3,1149.4000000059605,134777.79999998212,8051,WL,C,1.0
1,1.3659999370574951,learn,58634.000062942505,Fri Jan 30 2026 10:58:26 GMT-0600 (Central Standard Time),136143.69999998808,A,to,I,o,194,3,1365.9000000059605,134777.79999998212,8051,WL,C,1.0
1,1.5989999771118164,learn,58401.00002288818,Fri Jan 30 2026 10:58:26 GMT-0600 (Central Standard Time),136376.79999998212,A,tow,I,w,212,3,1599.0,134777.79999998212,8051,WL,C,1.0
1,1.7659997940063477,learn,58234.00020599365,Fri Jan 30 2026 10:58:26 GMT-0600 (Central Standard Time),136543.59999999404,A,towe,I,e,154,3,1765.800000011921,134777.79999998212,8051,WL,C,1.0
1,1.9829998016357422,learn,58017.00019836426,Fri Jan 30 2026 10:58:26 GMT-0600 (Central Standard Time),136760.39999997616,A,tower,I,r,204,3,1982.5999999940395,134777.79999998212,8051,WL,C,1.0
1,2.548999786376953,learn,57451.00021362305,Fri Jan 30 2026 10:58:26 GMT-0600 (Central Standard Time),137326.59999999404,A,towerenter,I,enter,547,3,2548.800000011921,134777.79999998212,8051,WL,C,1.0
1,3.431999921798706,learn,56568.000078201294,Fri Jan 30 2026 10:58:26 GMT-0600 (Central Standard Time),138209.5,A,w,I,w,869,3,882.3000000119209,137327.19999998808,8051,WL,C,2.0
1,3.8980000019073486,learn,56101.99999809265,Fri Jan 30 2026 10:58:26 GMT-0600 (Central Standard Time),138676.0,A,wh,I,h,450,3,1348.800000011921,137327.19999998808,8051,WL,C,2.0
1,4.014999866485596,learn,55985.000133514404,Fri Jan 30 2026 10:58:26 GMT-0600 (Central Standard Time),138792.89999997616,A,whe,I,e,104,3,1465.699999988079,137327.19999998808,8051,WL,C,2.0
1,4.247999906539917,learn,55752.00009346008,Fri Jan 30 2026 10:58:26 GMT-0600 (Central Standard Time),139026.19999998808,A,whea,I,a,225,3,1699.0,137327.19999998808,8051,WL,C,2.0
1,4.430999994277954,learn,55569.000005722046,Fri Jan 30 2026 10:58:26 GMT-0600 (Central Standard Time),139209.19999998808,A,wheat,I,t,176,3,1882.0,137327.19999998808,8051,WL,C,2.0
1,4.73199987411499,learn,55268.00012588501,Fri Jan 30 2026 10:58:26 GMT-0600 (Central Standard Time),139509.29999998212,A,wheatenter,I,enter,283,3,2182.0999999940395,137327.19999998808,8051,WL,C,2.0
1,5.31499981880188,learn,54685.00018119812,Fri Jan 30 2026 10:58:26 GMT-0600 (Central Standard Time),140092.5,A,q,I,q,566,3,582.8000000119209,139509.69999998808,8051,WL,C,3.0
1,5.630999803543091,learn,54369.00019645691,Fri Jan 30 2026 10:58:26 GMT-0600 (Central Standard Time),140408.89999997616,A,qu,I,u,303,3,899.1999999880791,139509.69999998808,8051,WL,C,3.0
1,5.797999858856201,learn,54202.0001411438,Fri Jan 30 2026 10:58:26 GMT-0600 (Central Standard Time),140575.5,A,que,I,e,154,3,1065.800000011921,139509.69999998808,8051,WL,C,3.0
1,5.946999788284302,learn,54053.0002117157,Fri Jan 30 2026 10:58:26 GMT-0600 (Central Standard Time),140725.19999998808,A,quee,I,e,139,3,1215.5,139509.69999998808,8051,WL,C,3.0
1,6.146999835968018,learn,53853.00016403198,Fri Jan 30 2026 10:58:26 GMT-0600 (Central Standard Time),140925.19999998808,A,queen,I,n,190,3,1415.5,139509.69999998808,8051,WL,C,3.0
1,6.496999979019165,learn,53503.000020980835,Fri Jan 30 2026 10:58:26 GMT-0600 (Central Standard Time),141275.09999999404,A,queenenter,I,enter,343,3,1765.4000000059605,139509.69999998808,8051,WL,C,3.0
1,6.930999994277954,learn,53069.000005722046,Fri Jan 30 2026 10:58:26 GMT-0600 (Central Standard Time),141708.5,A,s,I,s,416,3,433.2000000178814,141275.29999998212,8051,WL,C,4.0
1,7.080999851226807,learn,52919.00014877319,Fri Jan 30 2026 10:58:26 GMT-0600 (Central Standard Time),141858.59999999404,A,su,I,u,134,3,583.3000000119209,141275.29999998212,8051,WL,C,4.0
1,7.248999834060669,learn,52751.00016593933,Fri Jan 30 2026 10:58:26 GMT-0600 (Central Standard Time),142026.69999998808,A,sug,I,g,161,3,751.4000000059605,141275.29999998212,8051,WL,C,4.0
1,7.447999954223633,learn,52552.00004577637,Fri Jan 30 2026 10:58:26 GMT-0600 (Central Standard Time),142225.29999998212,A,suga,I,a,185,3,950.0,141275.29999998212,8051,WL,C,4.0
1,8.129999876022339,learn,51870.00012397766,Fri Jan 30 2026 10:58:26 GMT-0600 (Central Standard Time),142908.19999998808,A,sugar,I,r,674,3,1632.9000000059605,141275.29999998212,8051,WL,C,4.0
1,8.44599986076355,learn,51554.00013923645,Fri Jan 30 2026 10:58:26 GMT-0600 (Central Standard Time),143224.79999998212,A,sugarenter,I,enter,304,3,1949.5,141275.29999998212,8051,WL,C,4.0
1,9.296000003814697,learn,50703.9999961853,Fri Jan 30 2026 10:58:26 GMT-0600 (Central Standard Time),144074.5,A,d,I,d,834,3,849.3000000119209,143225.19999998808,8051,WL,C,5.0
1,9.495999813079834,learn,50504.000186920166,Fri Jan 30 2026 10:58:26 GMT-0600 (Central Standard Time),144274.19999998808,A,do,I,o,185,3,1049.0,143225.19999998808,8051,WL,C,5.0
1,9.595999956130981,learn,50404.00004386902,Fri Jan 30 2026 10:58:26 GMT-0600 (Central Standard Time),144374.59999999404,A,doc,I,c,90,3,1149.4000000059605,143225.19999998808,8051,WL,C,5.0
1,9.895999908447266,learn,50104.000091552734,Fri Jan 30 2026 10:58:26 GMT-0600 (Central Standard Time),144674.29999998212,A,doct,I,t,285,3,1449.0999999940395,143225.19999998808,8051,WL,C,5.0
1,10.095999956130981,learn,49904.00004386902,Fri Jan 30 2026 10:58:26 GMT-0600 (Central Standard Time),144874.5,A,docto,I,o,186,3,1649.300000011921,143225.19999998808,8051,WL,C,5.0
1,10.245999813079834,learn,49754.000186920166,Fri Jan 30 2026 10:58:26 GMT-0600 (Central Standard Time),145024.29999998212,A,doctor,I,r,129,3,1799.0999999940395,143225.19999998808,8051,WL,C,5.0
1,10.77899980545044,learn,49221.00019454956,Fri Jan 30 2026 10:58:26 GMT-0600 (Central Standard Time),145557.5,A,doctorenter,I,enter,524,3,2332.300000011921,143225.19999998808,8051,WL,C,5.0
1,11.811999797821045,learn,48188.000202178955,Fri Jan 30 2026 10:58:26 GMT-0600 (Central Standard Time),146590.19999998808,A,h,I,h,1014,3,1032.4000000059605,145557.79999998212,8051,WL,C,6.0
1,12.061999797821045,learn,47938.000202178955,Fri Jan 30 2026 10:58:26 GMT-0600 (Central Standard Time),146840.39999997616,A,ho,I,o,228,3,1282.5999999940395,145557.79999998212,8051,WL,C,6.0
1,12.245999813079834,learn,47754.000186920166,Fri Jan 30 2026 10:58:26 GMT-0600 (Central Standard Time),147023.89999997616,A,hom,I,m,172,3,1466.0999999940395,145557.79999998212,8051,WL,C,6.0
1,12.34499979019165,learn,47655.00020980835,Fri Jan 30 2026 10:58:26 GMT-0600 (Central Standard Time),147123.29999998212,A,home,I,e,82,3,1565.5,145557.79999998212,8051,WL,C,6.0
1,12.544999837875366,learn,47455.000162124634,Fri Jan 30 2026 10:58:26 GMT-0600 (Central Standard Time),147323.69999998808,A,homeenter,I,enter,184,3,1765.9000000059605,145557.79999998212,8051,WL,C,6.0
1,12.944999933242798,learn,47055.0000667572,Fri Jan 30 2026 10:58:26 GMT-0600 (Central Standard Time),147723.5,A,b,I,b,383,3,399.2000000178814,147324.29999998212,8051,WL,C,7.0
1,13.178999900817871,learn,46821.00009918213,Fri Jan 30 2026 10:58:26 GMT-0600 (Central Standard Time),147956.89999997616,A,bo,I,o,225,3,632.5999999940395,147324.29999998212,8051,WL,C,7.0
1,13.561999797821045,learn,46438.000202178955,Fri Jan 30 2026 10:58:26 GMT-0600 (Central Standard Time),148340.09999999404,A,boy,I,y,368,3,1015.8000000119209,147324.29999998212,8051,WL,C,7.0
1,13.894999980926514,learn,46105.000019073486,Fri Jan 30 2026 10:58:26 GMT-0600 (Central Standard Time),148673.29999998212,A,boyenter,I,enter,320,3,1349.0,147324.29999998212,8051,WL,C,7.0
1,14.843999862670898,learn,45156.0001373291,Fri Jan 30 2026 10:58:26 GMT-0600 (Central Standard Time),149622.79999998212,A,s,I,s,939,3,949.1999999880791,148673.59999999404,8051,WL,C,8.0
1,15.027999877929688,learn,44972.00012207031,Fri Jan 30 2026 10:58:26 GMT-0600 (Central Standard Time),149806.0,A,sa,I,a,165,3,1132.4000000059605,148673.59999999404,8051,WL,C,8.0
1,15.144999980926514,learn,44855.000019073486,Fri Jan 30 2026 10:58:26 GMT-0600 (Central Standard Time),149923.0,A,san,I,n,102,3,1249.4000000059605,148673.59999999404,8051,WL,C,8.0
1,15.310999870300293,learn,44689.00012969971,Fri Jan 30 2026 10:58:26 GMT-0600 (Central Standard Time),150089.0,A,sand,I,d,154,3,1415.4000000059605,148673.59999999404,8051,WL,C,8.0
1,15.643999814987183,learn,44356.00018501282,Fri Jan 30 2026 10:58:26 GMT-0600 (Central Standard Time),150422.59999999404,A,sandenter,I,enter,322,3,1749.0,148673.59999999404,8051,WL,C,8.0
1,20.292999982833862,learn,39707.00001716614,Fri Jan 30 2026 10:58:26 GMT-0600 (Central Standard Time),155071.29999998212,A,n,I,n,4628,3,4648.0999999940395,150423.19999998808,8051,WL,C,9.0
1,20.425999879837036,learn,39574.000120162964,Fri Jan 30 2026 10:58:26 GMT-0600 (Central Standard Time),155204.39999997616,A,na,I,a,116,3,4781.199999988079,150423.19999998808,8051,WL,C,9.0
1,20.55900001525879,learn,39440.99998474121,Fri Jan 30 2026 10:58:26 GMT-0600 (Central Standard Time),155337.79999998212,A,nai,I,i,119,3,4914.5999999940395,150423.19999998808,8051,WL,C,9.0
1,20.776000022888184,learn,39223.99997711182,Fri Jan 30 2026 10:58:26 GMT-0600 (Central Standard Time),155554.09999999404,A,nail,I,l,210,3,5130.9000000059605,150423.19999998808,8051,WL,C,9.0
1,21.075999975204468,learn,38924.00002479553,Fri Jan 30 2026 10:58:26 GMT-0600 (Central Standard Time),155854.09999999404,A,nailenter,I,enter,282,3,5430.9000000059605,150423.19999998808,8051,WL,C,9.0
1,22.175999879837036,learn,37824.000120162964,Fri Jan 30 2026 10:58:26 GMT-0600 (Central Standard Time),156953.89999997616,A,i,I,i,1086,3,1099.5,155854.39999997616,8051,WL,C,10.0
1,22.358999967575073,learn,37641.00003242493,Fri Jan 30 2026 10:58:26 GMT-0600 (Central Standard Time),157137.0,A,ir,I,r,178,3,1282.6000000238419,155854.39999997616,8051,WL,C,10.0
1,22.491999864578247,learn,37508.00013542175,Fri Jan 30 2026 10:58:26 GMT-0600 (Central Standard Time),157270.5,A,iro,I,o,115,3,1416.1000000238419,155854.39999997616,8051,WL,C,10.0
1,22.674999952316284,learn,37325.000047683716,Fri Jan 30 2026 10:58:26 GMT-0600 (Central Standard Time),157453.5,A,iron,I,n,166,3,1599.1000000238419,155854.39999997616,8051,WL,C,10.0
1,22.97499990463257,learn,37025.00009536743,Fri Jan 30 2026 10:58:26 GMT-0600 (Central Standard Time),157753.39999997616,A,ironenter,I,enter,295,3,1899.0,155854.39999997616,8051,WL,C,10.0
1,33.52199983596802,learn,26478.000164031982,Fri Jan 30 2026 10:58:26 GMT-0600 (Central Standard Time),168300.39999997616,A,enter,I,enter,10538,3,10546.799999982119,157753.59999999404,8051,WL,C,11.0
1,34.355000019073486,learn,25644.999980926514,Fri Jan 30 2026 10:58:26 GMT-0600 (Central Standard Time),169133.39999997616,A,enter,I,enter,823,3,832.5,168300.89999997616,8051,WL,C,12.0
1,34.67199993133545,learn,25328.00006866455,Fri Jan 30 2026 10:58:26 GMT-0600 (Central Standard Time),169449.89999997616,A,enter,I,enter,310,3,316.09999999403954,169133.79999998212,8051,WL,C,13.0
1,34.90499997138977,learn,25095.00002861023,Fri Jan 30 2026 10:58:26 GMT-0600 (Central Standard Time),169683.09999999404,A,enter,I,enter,227,3,233.0,169450.09999999404,8051,WL,C,14.0
1,35.48799991607666,learn,24512.00008392334,Fri Jan 30 2026 10:58:26 GMT-0600 (Central Standard Time),170266.5,A,enter,I,enter,569,3,582.9000000059605,169683.59999999404,8051,WL,C,15.0
2,0.5999999046325684,learn,59400.00009536743,Fri Jan 30 2026 10:58:26 GMT-0600 (Central Standard Time),248158.69999998808,A,c,I,c,589,3,599.4000000059605,247559.29999998212,8051,WL,C,1.0
2,0.9659998416900635,learn,59034.00015830994,Fri Jan 30 2026 10:58:26 GMT-0600 (Central Standard Time),248525.29999998212,A,ca,I,a,357,3,966.0,247559.29999998212,8051,WL,C,1.0
2,1.8659999370574951,learn,58134.000062942505,Fri Jan 30 2026 10:58:26 GMT-0600 (Central Standard Time),249425.0,A,cam,I,m,887,3,1865.7000000178814,247559.29999998212,8051,WL,C,1.0
2,2.132999897003174,learn,57867.000102996826,Fri Jan 30 2026 10:58:26 GMT-0600 (Central Standard Time),249691.5,A,camp,I,p,250,3,2132.2000000178814,247559.29999998212,8051,WL,C,1.0
2,2.9489998817443848,learn,57051.000118255615,Fri Jan 30 2026 10:58:26 GMT-0600 (Central Standard Time),250507.79999998212,A,campenter,I,enter,809,3,2948.5,247559.29999998212,8051,WL,C,1.0
2,3.2660000324249268,learn,56733.99996757507,Fri Jan 30 2026 10:58:26 GMT-0600 (Central Standard Time),250824.5,A,f,I,f,304,3,316.30000001192093,250508.19999998808,8051,WL,C,2.0
2,3.4659998416900635,learn,56534.00015830994,Fri Jan 30 2026 10:58:26 GMT-0600 (Central Standard Time),251024.5,A,fl,I,l,195,3,516.3000000119209,250508.19999998808,8051,WL,C,2.0
2,3.615999937057495,learn,56384.000062942505,Fri Jan 30 2026 10:58:26 GMT-0600 (Central Standard Time),251174.5,A,fla,I,a,132,3,666.3000000119209,250508.19999998808,8051,WL,C,2.0
2,3.931999921798706,learn,56068.000078201294,Fri Jan 30 2026 10:58:26 GMT-0600 (Central Standard Time),251490.89999997616,A,flag,I,g,310,3,982.6999999880791,250508.19999998808,8051,WL,C,2.0
2,4.2149999141693115,learn,55785.00008583069,Fri Jan 30 2026 10:58:26 GMT-0600 (Central Standard Time),251774.19999998808,A,flagenter,I,enter,274,3,1266.0,250508.19999998808,8051,WL,C,2.0
2,4.81499981880188,learn,55185.00018119812,Fri Jan 30 2026 10:58:26 GMT-0600 (Central Standard Time),252373.79999998212,A,l,I,l,590,3,599.2999999821186,251774.5,8051,WL,C,3.0
2,4.947999954223633,learn,55052.00004577637,Fri Jan 30 2026 10:58:26 GMT-0600 (Central Standard Time),252507.19999998808,A,le,I,e,118,3,732.6999999880791,251774.5,8051,WL,C,3.0
2,5.198999881744385,learn,54801.000118255615,Fri Jan 30 2026 10:58:26 GMT-0600 (Central Standard Time),252757.39999997616,A,let,I,t,240,3,982.8999999761581,251774.5,8051,WL,C,3.0
2,5.381999969482422,learn,54618.00003051758,Fri Jan 30 2026 10:58:26 GMT-0600 (Central Standard Time),252940.29999998212,A,lett,I,t,175,3,1165.7999999821186,251774.5,8051,WL,C,3.0
2,5.582000017166138,learn,54417.99998283386,Fri Jan 30 2026 10:58:26 GMT-0600 (Central Standard Time),253140.39999997616,A,lette,I,e,184,3,1365.8999999761581,251774.5,8051,WL,C,3.0
2,5.664999961853027,learn,54335.00003814697,Fri Jan 30 2026 10:58:26 GMT-0600 (Central Standard Time),253224.09999999404,A,letter,I,r,72,3,1449.5999999940395,251774.5,8051,WL,C,3.0
2,5.832000017166138,learn,54167.99998283386,Fri Jan 30 2026 10:58:26 GMT-0600 (Central Standard Time),253390.39999997616,A,letterenter,I,enter,149,3,1615.8999999761581,251774.5,8051,WL,C,3.0
2,7.06499981880188,learn,52935.00018119812,Fri Jan 30 2026 10:58:26 GMT-0600 (Central Standard Time),254623.39999997616,A,c,I,c,1213,3,1232.699999988079,253390.69999998808,8051,WL,C,4.0
2,7.3480000495910645,learn,52651.999950408936,Fri Jan 30 2026 10:58:26 GMT-0600 (Central Standard Time),254906.69999998808,A,ca,I,a,269,3,1516.0,253390.69999998808,8051,WL,C,4.0
2,7.680999994277954,learn,52319.000005722046,Fri Jan 30 2026 10:58:26 GMT-0600 (Central Standard Time),255239.79999998212,A,cat,I,t,313,3,1849.0999999940395,253390.69999998808,8051,WL,C,4.0
2,7.813999891281128,learn,52186.00010871887,Fri Jan 30 2026 10:58:26 GMT-0600 (Central Standard Time),255373.19999998808,A,catt,I,t,117,3,1982.5,253390.69999998808,8051,WL,C,4.0
2,7.914000034332275,learn,52085.999965667725,Fri Jan 30 2026 10:58:26 GMT-0600 (Central Standard Time),255472.89999997616,A,cattl,I,l,95,3,2082.199999988079,253390.69999998808,8051,WL,C,4.0
2,8.063999891281128,learn,51936.00010871887,Fri Jan 30 2026 10:58:26 GMT-0600 (Central Standard Time),255622.79999998212,A,cattle,I,e,140,3,2232.0999999940395,253390.69999998808,8051,WL,C,4.0
2,8.19700002670288,learn,51802.99997329712,Fri Jan 30 2026 10:58:26 GMT-0600 (Central Standard Time),255756.29999998212,A,cattleenter,I,enter,125,3,2365.5999999940395,253390.69999998808,8051,WL,C,4.0
2,8.613999843597412,learn,51386.00015640259,Fri Jan 30 2026 10:58:26 GMT-0600 (Central Standard Time),256172.79999998212,A,s,I,s,407,3,416.19999998807907,255756.59999999404,8051,WL,C,5.0
2,8.914000034332275,learn,51085.999965667725,Fri Jan 30 2026 10:58:26 GMT-0600 (Central Standard Time),256472.59999999404,A,sh,I,h,280,3,716.0,255756.59999999404,8051,WL,C,5.0
2,9.04699993133545,learn,50953.00006866455,Fri Jan 30 2026 10:58:26 GMT-0600 (Central Standard Time),256606.09999999404,A,sho,I,o,123,3,849.5,255756.59999999404,8051,WL,C,5.0
2,9.230999946594238,learn,50769.00005340576,Fri Jan 30 2026 10:58:26 GMT-0600 (Central Standard Time),256789.5,A,shor,I,r,174,3,1032.9000000059605,255756.59999999404,8051,WL,C,5.0
2,9.313999891281128,learn,50686.00010871887,Fri Jan 30 2026 10:58:26 GMT-0600 (Central Standard Time),256872.79999998212,A,shore,I,e,79,3,1116.199999988079,255756.59999999404,8051,WL,C,5.0
2,9.54699993133545,learn,50453.00006866455,Fri Jan 30 2026 10:58:26 GMT-0600 (Central Standard Time),257106.0,A,shoreenter,I,enter,219,3,1349.4000000059605,255756.59999999404,8051,WL,C,5.0
2,10.129999876022339,learn,49870.00012397766,Fri Jan 30 2026 10:58:26 GMT-0600 (Central Standard Time),257689.19999998808,A,b,I,b,579,3,582.9000000059605,257106.29999998212,8051,WL,C,6.0
2,10.346999883651733,learn,49653.00011634827,Fri Jan 30 2026 10:58:26 GMT-0600 (Central Standard Time),257905.39999997616,A,bo,I,o,210,3,799.0999999940395,257106.29999998212,8051,WL,C,6.0
2,10.79699993133545,learn,49203.00006866455,Fri Jan 30 2026 10:58:26 GMT-0600 (Central Standard Time),258355.5,A,bod,I,d,435,3,1249.2000000178814,257106.29999998212,8051,WL,C,6.0
2,11.062999963760376,learn,48937.000036239624,Fri Jan 30 2026 10:58:26 GMT-0600 (Central Standard Time),258622.0,A,body,I,y,257,3,1515.7000000178814,257106.29999998212,8051,WL,C,6.0
2,11.480000019073486,learn,48519.999980926514,Fri Jan 30 2026 10:58:26 GMT-0600 (Central Standard Time),259038.5,A,bodyenter,I,enter,406,3,1932.2000000178814,257106.29999998212,8051,WL,C,6.0
2,13.44599986076355,learn,46554.00013923645,Fri Jan 30 2026 10:58:26 GMT-0600 (Central Standard Time),261004.39999997616,A,t,I,t,1949,3,1965.5,259038.89999997616,8051,WL,C,7.0
2,13.595999956130981,learn,46404.00004386902,Fri Jan 30 2026 10:58:26 GMT-0600 (Central Standard Time),261155.29999998212,A,to,I,o,143,3,2116.4000000059605,259038.89999997616,8051,WL,C,7.0
2,13.76199984550476,learn,46238.00015449524,Fri Jan 30 2026 10:58:26 GMT-0600 (Central Standard Time),261321.29999998212,A,tow,I,w,161,3,2282.4000000059605,259038.89999997616,8051,WL,C,7.0
2,13.878999948501587,learn,46121.00005149841,Fri Jan 30 2026 10:58:26 GMT-0600 (Central Standard Time),261437.89999997616,A,towe,I,e,99,3,2399.0,259038.89999997616,8051,WL,C,7.0
2,14.111999988555908,learn,45888.00001144409,Fri Jan 30 2026 10:58:26 GMT-0600 (Central Standard Time),261671.09999999404,A,tower,I,r,214,3,2632.2000000178814,259038.89999997616,8051,WL,C,7.0
2,14.345999956130981,learn,45654.00004386902,Fri Jan 30 2026 10:58:26 GMT-0600 (Central Standard Time),261904.59999999404,A,towerenter,I,enter,221,3,2865.7000000178814,259038.89999997616,8051,WL,C,7.0
2,14.69599986076355,learn,45304.00013923645,Fri Jan 30 2026 10:58:26 GMT-0600 (Central Standard Time),262254.2999999821,A,w,I,w,332,3,349.2999999821186,261905.0,8051,WL,C,8.0
2,14.944999933242798,learn,45055.0000667572,Fri Jan 30 2026 10:58:26 GMT-0600 (Central Standard Time),262504.1999999881,A,we,I,e,238,3,599.1999999880791,261905.0,8051,WL,C,8.0
2,15.161999940872192,learn,44838.00005912781,Fri Jan 30 2026 10:58:26 GMT-0600 (Central Standard Time),262720.7999999821,A,weh,I,h,204,3,815.7999999821186,261905.0,8051,WL,C,8.0
2,15.277999877929688,learn,44722.00012207031,Fri Jan 30 2026 10:58:26 GMT-0600 (Central Standard Time),262837.59999999404,A,weha,I,a,108,3,932.5999999940395,261905.0,8051,WL,C,8.0
2,15.411999940872192,learn,44588.00005912781,Fri Jan 30 2026 10:58:26 GMT-0600 (Central Standard Time),262971.09999999404,A,wehat,I,t,119,3,1066.0999999940395,261905.0,8051,WL,C,8.0
2,15.59500002861023,learn,44404.99997138977,Fri Jan 30 2026 10:58:26 GMT-0600 (Central Standard Time),263154.0,A,wehatenter,I,enter,169,3,1249.0,261905.0,8051,WL,C,8.0
2,16.3439998626709,learn,43656.0001373291,Fri Jan 30 2026 10:58:26 GMT-0600 (Central Standard Time),263903.6999999881,A,q,I,q,738,3,749.3000000119209,263154.39999997616,8051,WL,C,9.0
2,16.610999822616577,learn,43389.00017738342,Fri Jan 30 2026 10:58:26 GMT-0600 (Central Standard Time),264170.0,A,qu,I,u,261,3,1015.6000000238419,263154.39999997616,8051,WL,C,9.0
2,16.777999877929688,learn,43222.00012207031,Fri Jan 30 2026 10:58:26 GMT-0600 (Central Standard Time),264337.0,A,que,I,e,154,3,1182.6000000238419,263154.39999997616,8051,WL,C,9.0
2,18.944000005722046,learn,41055.999994277954,Fri Jan 30 2026 10:58:26 GMT-0600 (Central Standard Time),266503.09999999404,A,quee,I,e,2147,3,3348.7000000178814,263154.39999997616,8051,WL,C,9.0
2,19.07699990272522,learn,40923.00009727478,Fri Jan 30 2026 10:58:26 GMT-0600 (Central Standard Time),266636.1999999881,A,queen,I,n,125,3,3481.800000011921,263154.39999997616,8051,WL,C,9.0
2,19.393999814987183,learn,40606.00018501282,Fri Jan 30 2026 10:58:26 GMT-0600 (Central Standard Time),266953.09999999404,A,queenenter,I,enter,312,3,3798.7000000178814,263154.39999997616,8051,WL,C,9.0
2,19.859999895095825,learn,40140.000104904175,Fri Jan 30 2026 10:58:26 GMT-0600 (Central Standard Time),267419.39999997616,A,s,I,s,451,3,465.89999997615814,266953.5,8051,WL,C,10.0
2,20.07699990272522,learn,39923.00009727478,Fri Jan 30 2026 10:58:26 GMT-0600 (Central Standard Time),267636.0,A,su,I,u,200,3,682.5,266953.5,8051,WL,C,10.0
2,20.32699990272522,learn,39673.00009727478,Fri Jan 30 2026 10:58:26 GMT-0600 (Central Standard Time),267886.0,A,sug,I,g,232,3,932.5,266953.5,8051,WL,C,10.0
2,20.493000030517578,learn,39506.99996948242,Fri Jan 30 2026 10:58:26 GMT-0600 (Central Standard Time),268052.1999999881,A,suga,I,a,149,3,1098.699999988079,266953.5,8051,WL,C,10.0
2,20.743000030517578,learn,39256.99996948242,Fri Jan 30 2026 10:58:26 GMT-0600 (Central Standard Time),268302.2999999821,A,sugar,I,r,239,3,1348.7999999821186,266953.5,8051,WL,C,10.0
2,20.927000045776367,learn,39072.99995422363,Fri Jan 30 2026 10:58:26 GMT-0600 (Central Standard Time),268485.89999997616,A,sugarenter,I,enter,166,3,1532.3999999761581,266953.5,8051,WL,C,10.0
2,21.55900001525879,learn,38440.99998474121,Fri Jan 30 2026 10:58:26 GMT-0600 (Central Standard Time),269118.6999999881,A,h,I,h,614,3,632.4000000059605,268486.2999999821,8051,WL,C,11.0
2,21.743000030517578,learn,38256.99996948242,Fri Jan 30 2026 10:58:26 GMT-0600 (Central Standard Time),269302.09999999404,A,ho,I,o,166,3,815.8000000119209,268486.2999999821,8051,WL,C,11.0
2,21.90999984741211,learn,38090.00015258789,Fri Jan 30 2026 10:58:26 GMT-0600 (Central Standard Time),269469.0,A,hom,I,m,150,3,982.7000000178814,268486.2999999821,8051,WL,C,11.0
2,22.008999824523926,learn,37991.000175476074,Fri Jan 30 2026 10:58:26 GMT-0600 (Central Standard Time),269568.39999997616,A,home,I,e,95,3,1082.0999999940395,268486.2999999821,8051,WL,C,11.0
2,22.22599983215332,learn,37774.00016784668,Fri Jan 30 2026 10:58:26 GMT-0600 (Central Standard Time),269785.09999999404,A,homeenter,I,enter,196,3,1298.800000011921,268486.2999999821,8051,WL,C,11.0
2,23.05900001525879,learn,36940.99998474121,Fri Jan 30 2026 10:58:26 GMT-0600 (Central Standard Time),270618.39999997616,A,b,I,b,826,3,832.8999999761581,269785.5,8051,WL,C,12.0
2,23.30900001525879,learn,36690.99998474121,Fri Jan 30 2026 10:58:26 GMT-0600 (Central Standard Time),270868.2999999821,A,bo,I,o,233,3,1082.7999999821186,269785.5,8051,WL,C,12.0
2,23.54199981689453,learn,36458.00018310547,Fri Jan 30 2026 10:58:26 GMT-0600 (Central Standard Time),271101.6999999881,A,boy,I,y,215,3,1316.199999988079,269785.5,8051,WL,C,12.0
2,24.45799994468689,learn,35542.00005531311,Fri Jan 30 2026 10:58:26 GMT-0600 (Central Standard Time),272017.59999999404,A,boyenter,I,enter,910,3,2232.0999999940395,269785.5,8051,WL,C,12.0
2,25.22499990463257,learn,34775.00009536743,Fri Jan 30 2026 10:58:26 GMT-0600 (Central Standard Time),272784.2999999821,A,d,I,d,755,3,766.4000000059605,272017.89999997616,8051,WL,C,13.0
2,25.375,learn,34625.0,Fri Jan 30 2026 10:58:26 GMT-0600 (Central Standard Time),272934.1999999881,A,do,I,o,140,3,916.3000000119209,272017.89999997616,8051,WL,C,13.0
2,25.641000032424927,learn,34358.99996757507,Fri Jan 30 2026 10:58:26 GMT-0600 (Central Standard Time),273200.6999999881,A,doc,I,c,246,3,1182.800000011921,272017.89999997616,8051,WL,C,13.0
2,25.891000032424927,learn,34108.99996757507,Fri Jan 30 2026 10:58:26 GMT-0600 (Central Standard Time),273450.7999999821,A,doct,I,t,235,3,1432.9000000059605,272017.89999997616,8051,WL,C,13.0
2,26.04099988937378,learn,33959.00011062622,Fri Jan 30 2026 10:58:26 GMT-0600 (Central Standard Time),273600.6999999881,A,docto,I,o,130,3,1582.800000011921,272017.89999997616,8051,WL,C,13.0
2,26.19099998474121,learn,33809.00001525879,Fri Jan 30 2026 10:58:26 GMT-0600 (Central Standard Time),273750.59999999404,A,doctoe,I,e,131,3,1732.7000000178814,272017.89999997616,8051,WL,C,13.0
2,26.274999856948853,learn,33725.00014305115,Fri Jan 30 2026 10:58:26 GMT-0600 (Central Standard Time),273834.1999999881,A,doctoer,I,r,69,3,1816.300000011921,272017.89999997616,8051,WL,C,13.0
2,26.47499990463257,learn,33525.00009536743,Fri Jan 30 2026 10:58:26 GMT-0600 (Central Standard Time),274033.89999997616,A,doctoerenter,I,enter,186,3,2016.0,272017.89999997616,8051,WL,C,13.0
2,30.256999969482422,learn,29743.000030517578,Fri Jan 30 2026 10:58:26 GMT-0600 (Central Standard Time),277816.09999999404,A,enter,I,enter,3762,3,3781.9000000059605,274034.1999999881,8051,WL,C,14.0
2,30.889999866485596,learn,29110.000133514404,Fri Jan 30 2026 10:58:26 GMT-0600 (Central Standard Time),278449.09999999404,A,enter,I,enter,613,3,632.5999999940395,277816.5,8051,WL,C,15.0
3,1.0329999923706055,learn,58967.000007629395,Fri Jan 30 2026 10:58:26 GMT-0600 (Central Standard Time),345745.39999997616,A,c,I,c,1029,3,1033.199999988079,344712.1999999881,8051,WL,C,1.0
3,1.3659999370574951,learn,58634.000062942505,Fri Jan 30 2026 10:58:26 GMT-0600 (Central Standard Time),346078.2999999821,A,ca,I,a,314,3,1366.0999999940395,344712.1999999881,8051,WL,C,1.0
3,1.6659998893737793,learn,58334.00011062622,Fri Jan 30 2026 10:58:26 GMT-0600 (Central Standard Time),346377.89999997616,A,cam,I,m,294,3,1665.699999988079,344712.1999999881,8051,WL,C,1.0
3,1.9159998893737793,learn,58084.00011062622,Fri Jan 30 2026 10:58:26 GMT-0600 (Central Standard Time),346628.0,A,camp,I,p,235,3,1915.800000011921,344712.1999999881,8051,WL,C,1.0
3,2.5989999771118164,learn,57401.00002288818,Fri Jan 30 2026 10:58:26 GMT-0600 (Central Standard Time),347311.0,A,campenter,I,enter,663,3,2598.800000011921,344712.1999999881,8051,WL,C,1.0
3,3.0989999771118164,learn,56901.00002288818,Fri Jan 30 2026 10:58:26 GMT-0600 (Central Standard Time),347810.89999997616,A,f,I,f,486,3,499.5,347311.39999997616,8051,WL,C,2.0
3,3.2990000247955322,learn,56700.99997520447,Fri Jan 30 2026 10:58:26 GMT-0600 (Central Standard Time),348010.89999997616,A,fl,I,l,185,3,699.5,347311.39999997616,8051,WL,C,2.0
3,3.431999921798706,learn,56568.000078201294,Fri Jan 30 2026 10:58:26 GMT-0600 (Central Standard Time),348144.2999999821,A,fla,I,a,122,3,832.9000000059605,347311.39999997616,8051,WL,C,2.0
3,3.5149998664855957,learn,56485.000133514404,Fri Jan 30 2026 10:58:26 GMT-0600 (Central Standard Time),348227.2999999821,A,flad,I,d,76,3,915.9000000059605,347311.39999997616,8051,WL,C,2.0
3,4.4649999141693115,learn,55535.00008583069,Fri Jan 30 2026 10:58:26 GMT-0600 (Central Standard Time),349176.89999997616,A,fla,I,backspace,945,3,1865.5,347311.39999997616,8051,WL,C,2.0
3,4.697999954223633,learn,55302.00004577637,Fri Jan 30 2026 10:58:26 GMT-0600 (Central Standard Time),349410.09999999404,A,flag,I,g,227,3,2098.7000000178814,347311.39999997616,8051,WL,C,2.0
3,4.947999954223633,learn,55052.00004577637,Fri Jan 30 2026 10:58:26 GMT-0600 (Central Standard Time),349660.2999999821,A,flagenter,I,enter,234,3,2348.9000000059605,347311.39999997616,8051,WL,C,2.0
3,5.832000017166138,learn,54167.99998283386,Fri Jan 30 2026 10:58:26 GMT-0600 (Central Standard Time),350543.6999999881,A,l,I,l,863,3,883.0,349660.6999999881,8051,WL,C,3.0
3,5.9649999141693115,learn,54035.00008583069,Fri Jan 30 2026 10:58:26 GMT-0600 (Central Standard Time),350676.5,A,le,I,e,124,3,1015.8000000119209,349660.6999999881,8051,WL,C,3.0
3,6.180999994277954,learn,53819.000005722046,Fri Jan 30 2026 10:58:26 GMT-0600 (Central Standard Time),350893.39999997616,A,let,I,t,200,3,1232.699999988079,349660.6999999881,8051,WL,C,3.0
3,6.331000089645386,learn,53668.999910354614,Fri Jan 30 2026 10:58:26 GMT-0600 (Central Standard Time),351043.39999997616,A,lett,I,t,143,3,1382.699999988079,349660.6999999881,8051,WL,C,3.0
3,6.48199987411499,learn,53518.00012588501,Fri Jan 30 2026 10:58:26 GMT-0600 (Central Standard Time),351193.39999997616,A,lette,I,e,145,3,1532.699999988079,349660.6999999881,8051,WL,C,3.0
3,6.581000089645386,learn,53418.999910354614,Fri Jan 30 2026 10:58:26 GMT-0600 (Central Standard Time),351293.2999999821,A,letter,I,r,83,3,1632.5999999940395,349660.6999999881,8051,WL,C,3.0
3,6.697999954223633,learn,53302.00004577637,Fri Jan 30 2026 10:58:26 GMT-0600 (Central Standard Time),351409.6999999881,A,letterenter,I,enter,102,3,1749.0,349660.6999999881,8051,WL,C,3.0
3,7.148000001907349,learn,52851.99999809265,Fri Jan 30 2026 10:58:26 GMT-0600 (Central Standard Time),351859.59999999404,A,c,I,c,442,3,449.5,351410.09999999404,8051,WL,C,4.0
3,7.29800009727478,learn,52701.99990272522,Fri Jan 30 2026 10:58:26 GMT-0600 (Central Standard Time),352009.5,A,co,I,o,137,3,599.4000000059605,351410.09999999404,8051,WL,C,4.0
3,7.448999881744385,learn,52551.000118255615,Fri Jan 30 2026 10:58:26 GMT-0600 (Central Standard Time),352160.6999999881,A,cor,I,r,139,3,750.5999999940395,351410.09999999404,8051,WL,C,4.0
3,7.596999883651733,learn,52403.00011634827,Fri Jan 30 2026 10:58:26 GMT-0600 (Central Standard Time),352309.2999999821,A,corn,I,n,131,3,899.1999999880791,351410.09999999404,8051,WL,C,4.0
3,7.930999994277954,learn,52069.000005722046,Fri Jan 30 2026 10:58:26 GMT-0600 (Central Standard Time),352643.0,A,cornenter,I,enter,319,3,1232.9000000059605,351410.09999999404,8051,WL,C,4.0
3,8.513999938964844,learn,51486.000061035156,Fri Jan 30 2026 10:58:26 GMT-0600 (Central Standard Time),353225.89999997616,A,n,I,n,570,3,582.5999999940395,352643.2999999821,8051,WL,C,5.0
3,8.647000074386597,learn,51352.9999256134,Fri Jan 30 2026 10:58:26 GMT-0600 (Central Standard Time),353359.1999999881,A,na,I,a,122,3,715.9000000059605,352643.2999999821,8051,WL,C,5.0
3,8.947999954223633,learn,51052.00004577637,Fri Jan 30 2026 10:58:26 GMT-0600 (Central Standard Time),353659.5,A,nai,I,i,285,3,1016.2000000178814,352643.2999999821,8051,WL,C,5.0
3,9.129999876022339,learn,50870.00012397766,Fri Jan 30 2026 10:58:26 GMT-0600 (Central Standard Time),353842.39999997616,A,nail,I,l,168,3,1199.0999999940395,352643.2999999821,8051,WL,C,5.0
3,9.54699993133545,learn,50453.00006866455,Fri Jan 30 2026 10:58:26 GMT-0600 (Central Standard Time),354258.89999997616,A,nailenter,I,enter,410,3,1615.5999999940395,352643.2999999821,8051,WL,C,5.0
3,9.980000019073486,learn,50019.999980926514,Fri Jan 30 2026 10:58:26 GMT-0600 (Central Standard Time),354692.0,A,c,I,c,418,3,432.7000000178814,354259.2999999821,8051,WL,C,6.0
3,10.164000034332275,learn,49835.999965667725,Fri Jan 30 2026 10:58:26 GMT-0600 (Central Standard Time),354875.59999999404,A,ca,I,a,169,3,616.3000000119209,354259.2999999821,8051,WL,C,6.0
3,10.463000059127808,learn,49536.99994087219,Fri Jan 30 2026 10:58:26 GMT-0600 (Central Standard Time),355175.2999999821,A,cat,I,t,289,3,916.0,354259.2999999821,8051,WL,C,6.0
3,10.579999923706055,learn,49420.000076293945,Fri Jan 30 2026 10:58:26 GMT-0600 (Central Standard Time),355292.09999999404,A,catt,I,t,101,3,1032.800000011921,354259.2999999821,8051,WL,C,6.0
3,10.730000019073486,learn,49269.999980926514,Fri Jan 30 2026 10:58:26 GMT-0600 (Central Standard Time),355441.89999997616,A,cattl,I,l,136,3,1182.5999999940395,354259.2999999821,8051,WL,C,6.0
3,10.864000082015991,learn,49135.99991798401,Fri Jan 30 2026 10:58:26 GMT-0600 (Central Standard Time),355575.5,A,cattle,I,e,115,3,1316.2000000178814,354259.2999999821,8051,WL,C,6.0
3,11.02999997138977,learn,48970.00002861023,Fri Jan 30 2026 10:58:26 GMT-0600 (Central Standard Time),355741.7999999821,A,cattleenter,I,enter,148,3,1482.5,354259.2999999821,8051,WL,C,6.0
3,11.61299991607666,learn,48387.00008392334,Fri Jan 30 2026 10:58:26 GMT-0600 (Central Standard Time),356325.1999999881,A,b,I,b,565,3,583.0,355742.1999999881,8051,WL,C,7.0
3,11.829999923706055,learn,48170.000076293945,Fri Jan 30 2026 10:58:26 GMT-0600 (Central Standard Time),356541.5,A,bo,I,o,198,3,799.3000000119209,355742.1999999881,8051,WL,C,7.0
3,12.178999900817871,learn,47821.00009918213,Fri Jan 30 2026 10:58:26 GMT-0600 (Central Standard Time),356891.2999999821,A,bod,I,d,335,3,1149.0999999940395,355742.1999999881,8051,WL,C,7.0
3,12.395999908447266,learn,47604.000091552734,Fri Jan 30 2026 10:58:26 GMT-0600 (Central Standard Time),357108.0,A,body,I,y,208,3,1365.800000011921,355742.1999999881,8051,WL,C,7.0
3,12.729000091552734,learn,47270.999908447266,Fri Jan 30 2026 10:58:26 GMT-0600 (Central Standard Time),357441.39999997616,A,bodyenter,I,enter,320,3,1699.199999988079,355742.1999999881,8051,WL,C,7.0
3,13.51200008392334,learn,46487.99991607666,Fri Jan 30 2026 10:58:26 GMT-0600 (Central Standard Time),358224.39999997616,A,s,I,s,771,3,782.7999999821186,357441.59999999404,8051,WL,C,8.0
3,13.661999940872192,learn,46338.00005912781,Fri Jan 30 2026 10:58:26 GMT-0600 (Central Standard Time),358374.1999999881,A,sh,I,h,132,3,932.5999999940395,357441.59999999404,8051,WL,C,8.0
3,13.779000043869019,learn,46220.99995613098,Fri Jan 30 2026 10:58:26 GMT-0600 (Central Standard Time),358490.89999997616,A,sho,I,o,110,3,1049.2999999821186,357441.59999999404,8051,WL,C,8.0
3,14.01200008392334,learn,45987.99991607666,Fri Jan 30 2026 10:58:26 GMT-0600 (Central Standard Time),358723.89999997616,A,shor,I,r,227,3,1282.2999999821186,357441.59999999404,8051,WL,C,8.0
3,14.095999956130981,learn,45904.00004386902,Fri Jan 30 2026 10:58:26 GMT-0600 (Central Standard Time),358807.39999997616,A,shore,I,e,72,3,1365.7999999821186,357441.59999999404,8051,WL,C,8.0
3,14.279000043869019,learn,45720.99995613098,Fri Jan 30 2026 10:58:26 GMT-0600 (Central Standard Time),358990.89999997616,A,shoreenter,I,enter,172,3,1549.2999999821186,357441.59999999404,8051,WL,C,8.0
3,16.01200008392334,learn,43987.99991607666,Fri Jan 30 2026 10:58:26 GMT-0600 (Central Standard Time),360723.5,A,t,I,t,1718,3,1732.2000000178814,358991.2999999821,8051,WL,C,9.0
3,16.194999933242798,learn,43805.0000667572,Fri Jan 30 2026 10:58:26 GMT-0600 (Central Standard Time),360906.89999997616,A,to,I,o,168,3,1915.5999999940395,358991.2999999821,8051,WL,C,9.0
3,16.34500002861023,learn,43654.99997138977,Fri Jan 30 2026 10:58:26 GMT-0600 (Central Standard Time),361056.59999999404,A,tow,I,w,129,3,2065.300000011921,358991.2999999821,8051,WL,C,9.0
3,16.460999965667725,learn,43539.000034332275,Fri Jan 30 2026 10:58:26 GMT-0600 (Central Standard Time),361173.39999997616,A,towe,I,e,99,3,2182.0999999940395,358991.2999999821,8051,WL,C,9.0
3,16.710999965667725,learn,43289.000034332275,Fri Jan 30 2026 10:58:26 GMT-0600 (Central Standard Time),361423.5,A,tower,I,r,230,3,2432.2000000178814,358991.2999999821,8051,WL,C,9.0
3,16.82800006866455,learn,43171.99993133545,Fri Jan 30 2026 10:58:26 GMT-0600 (Central Standard Time),361539.89999997616,A,towerenter,I,enter,100,3,2548.5999999940395,358991.2999999821,8051,WL,C,9.0
3,18.277999877929688,learn,41722.00012207031,Fri Jan 30 2026 10:58:26 GMT-0600 (Central Standard Time),362989.7999999821,A,e,I,e,1441,3,1449.5,361540.2999999821,8051,WL,C,10.0
3,18.878000020980835,learn,41121.999979019165,Fri Jan 30 2026 10:58:26 GMT-0600 (Central Standard Time),363589.5,A,,I,backspace,591,3,2049.2000000178814,361540.2999999821,8051,WL,C,10.0
3,19.177000045776367,learn,40822.99995422363,Fri Jan 30 2026 10:58:26 GMT-0600 (Central Standard Time),363889.39999997616,A,w,I,w,279,3,2349.0999999940395,361540.2999999821,8051,WL,C,10.0
3,19.32699990272522,learn,40673.00009727478,Fri Jan 30 2026 10:58:26 GMT-0600 (Central Standard Time),364039.0,A,wh,I,h,131,3,2498.7000000178814,361540.2999999821,8051,WL,C,10.0
3,19.51099991798401,learn,40489.00008201599,Fri Jan 30 2026 10:58:26 GMT-0600 (Central Standard Time),364222.5,A,wha,I,a,164,3,2682.2000000178814,361540.2999999821,8051,WL,C,10.0
3,19.80999994277954,learn,40190.00005722046,Fri Jan 30 2026 10:58:26 GMT-0600 (Central Standard Time),364522.0,A,what,I,t,294,3,2981.7000000178814,361540.2999999821,8051,WL,C,10.0
3,20.22699999809265,learn,39773.00000190735,Fri Jan 30 2026 10:58:26 GMT-0600 (Central Standard Time),364938.89999997616,A,wha,I,backspace,402,3,3398.5999999940395,361540.2999999821,8051,WL,C,10.0
3,20.377000093460083,learn,39622.99990653992,Fri Jan 30 2026 10:58:26 GMT-0600 (Central Standard Time),365088.7999999821,A,wh,I,backspace,146,3,3548.5,361540.2999999821,8051,WL,C,10.0
3,20.543999910354614,learn,39456.000089645386,Fri Jan 30 2026 10:58:26 GMT-0600 (Central Standard Time),365255.5,A,whe,I,e,155,3,3715.2000000178814,361540.2999999821,8051,WL,C,10.0
3,20.80999994277954,learn,39190.00005722046,Fri Jan 30 2026 10:58:26 GMT-0600 (Central Standard Time),365522.09999999404,A,whea,I,a,260,3,3981.800000011921,361540.2999999821,8051,WL,C,10.0
3,20.97699999809265,learn,39023.00000190735,Fri Jan 30 2026 10:58:26 GMT-0600 (Central Standard Time),365688.89999997616,A,wheat,I,t,154,3,4148.5999999940395,361540.2999999821,8051,WL,C,10.0
3,21.210000038146973,learn,38789.99996185303,Fri Jan 30 2026 10:58:26 GMT-0600 (Central Standard Time),365921.89999997616,A,wheatenter,I,enter,219,3,4381.5999999940395,361540.2999999821,8051,WL,C,10.0
3,21.526999950408936,learn,38473.000049591064,Fri Jan 30 2026 10:58:26 GMT-0600 (Central Standard Time),366238.39999997616,A,q,I,q,299,3,316.19999998807907,365922.1999999881,8051,WL,C,11.0
3,21.792999982833862,learn,38207.00001716614,Fri Jan 30 2026 10:58:26 GMT-0600 (Central Standard Time),366505.0,A,qu,I,u,247,3,582.8000000119209,365922.1999999881,8051,WL,C,11.0
3,21.97699999809265,learn,38023.00000190735,Fri Jan 30 2026 10:58:26 GMT-0600 (Central Standard Time),366688.5,A,que,I,e,178,3,766.3000000119209,365922.1999999881,8051,WL,C,11.0
3,22.124000072479248,learn,37875.99992752075,Fri Jan 30 2026 10:58:26 GMT-0600 (Central Standard Time),366835.7999999821,A,quee,I,e,142,3,913.5999999940395,365922.1999999881,8051,WL,C,11.0
3,22.276000022888184,learn,37723.99997711182,Fri Jan 30 2026 10:58:26 GMT-0600 (Central Standard Time),366988.2999999821,A,queen,I,n,135,3,1066.0999999940395,365922.1999999881,8051,WL,C,11.0
3,22.960000038146973,learn,37039.99996185303,Fri Jan 30 2026 10:58:26 GMT-0600 (Central Standard Time),367671.39999997616,A,queenenter,I,enter,663,3,1749.199999988079,365922.1999999881,8051,WL,C,11.0
3,25.79200005531311,learn,34207.99994468689,Fri Jan 30 2026 10:58:26 GMT-0600 (Central Standard Time),370503.7999999821,A,s,I,s,2812,3,2832.0,367671.7999999821,8051,WL,C,12.0
3,26.02500009536743,learn,33974.99990463257,Fri Jan 30 2026 10:58:26 GMT-0600 (Central Standard Time),370737.2999999821,A,su,I,u,220,3,3065.5,367671.7999999821,8051,WL,C,12.0
3,26.407999992370605,learn,33592.000007629395,Fri Jan 30 2026 10:58:26 GMT-0600 (Central Standard Time),371120.39999997616,A,sug,I,g,362,3,3448.5999999940395,367671.7999999821,8051,WL,C,12.0
3,26.575000047683716,learn,33424.999952316284,Fri Jan 30 2026 10:58:26 GMT-0600 (Central Standard Time),371286.89999997616,A,suga,I,a,156,3,3615.0999999940395,367671.7999999821,8051,WL,C,12.0
3,26.674999952316284,learn,33325.000047683716,Fri Jan 30 2026 10:58:26 GMT-0600 (Central Standard Time),371387.0,A,sugar,I,r,85,3,3715.2000000178814,367671.7999999821,8051,WL,C,12.0
3,26.79200005531311,learn,33207.99994468689,Fri Jan 30 2026 10:58:26 GMT-0600 (Central Standard Time),371503.59999999404,A,sugarenter,I,enter,106,3,3831.800000011921,367671.7999999821,8051,WL,C,12.0
3,27.674000024795532,learn,32325.999975204468,Fri Jan 30 2026 10:58:26 GMT-0600 (Central Standard Time),372386.2999999821,A,h,I,h,869,3,882.4000000059605,371503.89999997616,8051,WL,C,13.0
3,27.825000047683716,learn,32174.999952316284,Fri Jan 30 2026 10:58:26 GMT-0600 (Central Standard Time),372536.5,A,ho,I,o,138,3,1032.6000000238419,371503.89999997616,8051,WL,C,13.0
3,27.94099998474121,learn,32059.00001525879,Fri Jan 30 2026 10:58:26 GMT-0600 (Central Standard Time),372653.09999999404,A,hom,I,m,108,3,1149.2000000178814,371503.89999997616,8051,WL,C,13.0
3,28.091000080108643,learn,31908.999919891357,Fri Jan 30 2026 10:58:26 GMT-0600 (Central Standard Time),372803.1999999881,A,home,I,e,136,3,1299.300000011921,371503.89999997616,8051,WL,C,13.0
3,28.240999937057495,learn,31759.000062942505,Fri Jan 30 2026 10:58:26 GMT-0600 (Central Standard Time),372953.09999999404,A,homeenter,I,enter,136,3,1449.2000000178814,371503.89999997616,8051,WL,C,13.0
3,28.874000072479248,learn,31125.999927520752,Fri Jan 30 2026 10:58:26 GMT-0600 (Central Standard Time),373586.2999999821,A,b,I,b,619,3,632.7999999821186,372953.5,8051,WL,C,14.0
3,29.141000032424927,learn,30858.999967575073,Fri Jan 30 2026 10:58:26 GMT-0600 (Central Standard Time),373853.1999999881,A,bo,I,o,249,3,899.6999999880791,372953.5,8051,WL,C,14.0
3,29.60699987411499,learn,30393.00012588501,Fri Jan 30 2026 10:58:26 GMT-0600 (Central Standard Time),374319.39999997616,A,boy,I,y,446,3,1365.8999999761581,372953.5,8051,WL,C,14.0
3,29.95799994468689,learn,30042.00005531311,Fri Jan 30 2026 10:58:26 GMT-0600 (Central Standard Time),374669.59999999404,A,boyenter,I,enter,340,3,1716.0999999940395,372953.5,8051,WL,C,14.0
3,30.391000032424927,learn,29608.999967575073,Fri Jan 30 2026 10:58:26 GMT-0600 (Central Standard Time),375102.5,A,d,I,d,423,3,432.60000002384186,374669.89999997616,8051,WL,C,15.0
3,30.573999881744385,learn,29426.000118255615,Fri Jan 30 2026 10:58:26 GMT-0600 (Central Standard Time),375285.6999999881,A,do,I,o,165,3,615.8000000119209,374669.89999997616,8051,WL,C,15.0
3,30.657000064849854,learn,29342.999935150146,Fri Jan 30 2026 10:58:26 GMT-0600 (Central Standard Time),375369.2999999821,A,doc,I,c,71,3,699.4000000059605,374669.89999997616,8051,WL,C,15.0
3,30.924000024795532,learn,29075.999975204468,Fri Jan 30 2026 10:58:26 GMT-0600 (Central Standard Time),375635.5,A,doct,I,t,250,3,965.6000000238419,374669.89999997616,8051,WL,C,15.0
3,31.039999961853027,learn,28960.000038146973,Fri Jan 30 2026 10:58:26 GMT-0600 (Central Standard Time),375752.1999999881,A,docto,I,o,105,3,1082.300000011921,374669.89999997616,8051,WL,C,15.0
3,31.174000024795532,learn,28825.999975204468,Fri Jan 30 2026 10:58:26 GMT-0600 (Central Standard Time),375885.39999997616,A,doctor,I,r,124,3,1215.5,374669.89999997616,8051,WL,C,15.0
3,31.907000064849854,learn,28092.999935150146,Fri Jan 30 2026 10:58:26 GMT-0600 (Central Standard Time),376618.5,A,doctorenter,I,enter,719,3,1948.6000000238419,374669.89999997616,8051,WL,C,15.0
4,0.75,learn,59250.0,Fri Jan 30 2026 10:58:26 GMT-0600 (Central Standard Time),445580.39999997616,A,c,I,c,734,3,749.6999999880791,444830.6999999881,8051,WL,C,1.0
4,1.0160000324249268,learn,58983.99996757507,Fri Jan 30 2026 10:58:26 GMT-0600 (Central Standard Time),445846.89999997616,A,cp,I,p,255,3,1016.1999999880791,444830.6999999881,8051,WL,C,1.0
4,1.6329998970031738,learn,58367.000102996826,Fri Jan 30 2026 10:58:26 GMT-0600 (Central Standard Time),446463.2999999821,A,c,I,backspace,598,3,1632.5999999940395,444830.6999999881,8051,WL,C,1.0
4,1.9159998893737793,learn,58084.00011062622,Fri Jan 30 2026 10:58:26 GMT-0600 (Central Standard Time),446746.59999999404,A,co,I,o,268,3,1915.9000000059605,444830.6999999881,8051,WL,C,1.0
4,2.2159998416900635,learn,57784.00015830994,Fri Jan 30 2026 10:58:26 GMT-0600 (Central Standard Time),447046.89999997616,A,cor,I,r,289,3,2216.199999988079,444830.6999999881,8051,WL,C,1.0
4,2.4159998893737793,learn,57584.00011062622,Fri Jan 30 2026 10:58:26 GMT-0600 (Central Standard Time),447246.6999999881,A,corm,I,m,188,3,2416.0,444830.6999999881,8051,WL,C,1.0
4,3.3489999771118164,learn,56651.00002288818,Fri Jan 30 2026 10:58:26 GMT-0600 (Central Standard Time),448179.59999999404,A,cor,I,backspace,917,3,3348.9000000059605,444830.6999999881,8051,WL,C,1.0
4,3.815000057220459,learn,56184.99994277954,Fri Jan 30 2026 10:58:26 GMT-0600 (Central Standard Time),448645.6999999881,A,corn,I,n,448,3,3815.0,444830.6999999881,8051,WL,C,1.0
4,4.082000017166138,learn,55917.99998283386,Fri Jan 30 2026 10:58:26 GMT-0600 (Central Standard Time),448912.6999999881,A,cornenter,I,enter,261,3,4082.0,444830.6999999881,8051,WL,C,1.0
4,4.648000001907349,learn,55351.99999809265,Fri Jan 30 2026 10:58:26 GMT-0600 (Central Standard Time),449478.89999997616,A,n,I,n,547,3,565.8999999761581,448913.0,8051,WL,C,2.0
4,4.797999858856201,learn,55202.0001411438,Fri Jan 30 2026 10:58:26 GMT-0600 (Central Standard Time),449628.7999999821,A,na,I,a,132,3,715.7999999821186,448913.0,8051,WL,C,2.0
4,4.9649999141693115,learn,55035.00008583069,Fri Jan 30 2026 10:58:26 GMT-0600 (Central Standard Time),449795.6999999881,A,nai,I,i,152,3,882.6999999880791,448913.0,8051,WL,C,2.0
4,5.181999921798706,learn,54818.000078201294,Fri Jan 30 2026 10:58:26 GMT-0600 (Central Standard Time),450012.1999999881,A,nail,I,l,201,3,1099.199999988079,448913.0,8051,WL,C,2.0
4,5.514999866485596,learn,54485.000133514404,Fri Jan 30 2026 10:58:26 GMT-0600 (Central Standard Time),450345.5,A,nailenter,I,enter,328,3,1432.5,448913.0,8051,WL,C,2.0
4,6.0980000495910645,learn,53901.999950408936,Fri Jan 30 2026 10:58:26 GMT-0600 (Central Standard Time),450928.89999997616,A,c,I,c,571,3,583.0999999940395,450345.7999999821,8051,WL,C,3.0
4,6.297999858856201,learn,53702.0001411438,Fri Jan 30 2026 10:58:26 GMT-0600 (Central Standard Time),451128.6999999881,A,ca,I,a,186,3,782.9000000059605,450345.7999999821,8051,WL,C,3.0
4,6.514999866485596,learn,53485.000133514404,Fri Jan 30 2026 10:58:26 GMT-0600 (Central Standard Time),451345.09999999404,A,cat,I,t,204,3,999.3000000119209,450345.7999999821,8051,WL,C,3.0
4,6.664999961853027,learn,53335.00003814697,Fri Jan 30 2026 10:58:26 GMT-0600 (Central Standard Time),451495.09999999404,A,catt,I,t,139,3,1149.300000011921,450345.7999999821,8051,WL,C,3.0
4,6.815000057220459,learn,53184.99994277954,Fri Jan 30 2026 10:58:26 GMT-0600 (Central Standard Time),451645.59999999404,A,cattl,I,l,132,3,1299.800000011921,450345.7999999821,8051,WL,C,3.0
4,6.930999994277954,learn,53069.000005722046,Fri Jan 30 2026 10:58:26 GMT-0600 (Central Standard Time),451761.59999999404,A,cattle,I,e,102,3,1415.800000011921,450345.7999999821,8051,WL,C,3.0
4,7.115000009536743,learn,52884.99999046326,Fri Jan 30 2026 10:58:26 GMT-0600 (Central Standard Time),451945.09999999404,A,cattleenter,I,enter,162,3,1599.300000011921,450345.7999999821,8051,WL,C,3.0
4,7.513999938964844,learn,52486.000061035156,Fri Jan 30 2026 10:58:26 GMT-0600 (Central Standard Time),452344.6999999881,A,s,I,s,395,3,399.19999998807907,451945.5,8051,WL,C,4.0
4,7.71399998664856,learn,52286.00001335144,Fri Jan 30 2026 10:58:26 GMT-0600 (Central Standard Time),452544.89999997616,A,sh,I,h,187,3,599.3999999761581,451945.5,8051,WL,C,4.0
4,7.88100004196167,learn,52118.99995803833,Fri Jan 30 2026 10:58:26 GMT-0600 (Central Standard Time),452711.5,A,sho,I,o,155,3,766.0,451945.5,8051,WL,C,4.0
4,8.013999938964844,learn,51986.000061035156,Fri Jan 30 2026 10:58:26 GMT-0600 (Central Standard Time),452844.89999997616,A,shor,I,r,124,3,899.3999999761581,451945.5,8051,WL,C,4.0
4,8.098000049591064,learn,51901.999950408936,Fri Jan 30 2026 10:58:26 GMT-0600 (Central Standard Time),452928.39999997616,A,shore,I,e,64,3,982.8999999761581,451945.5,8051,WL,C,4.0
4,8.29699993133545,learn,51703.00006866455,Fri Jan 30 2026 10:58:26 GMT-0600 (Central Standard Time),453128.0,A,shoreenter,I,enter,188,3,1182.5,451945.5,8051,WL,C,4.0
4,8.930000066757202,learn,51069.9999332428,Fri Jan 30 2026 10:58:26 GMT-0600 (Central Standard Time),453761.0,A,b,I,b,613,3,632.6000000238419,453128.39999997616,8051,WL,C,5.0
4,9.13100004196167,learn,50868.99995803833,Fri Jan 30 2026 10:58:26 GMT-0600 (Central Standard Time),453961.09999999404,A,bo,I,o,188,3,832.7000000178814,453128.39999997616,8051,WL,C,5.0
4,9.562999963760376,learn,50437.000036239624,Fri Jan 30 2026 10:58:26 GMT-0600 (Central Standard Time),454393.89999997616,A,bod,I,d,427,3,1265.5,453128.39999997616,8051,WL,C,5.0
4,9.763999938964844,learn,50236.000061035156,Fri Jan 30 2026 10:58:26 GMT-0600 (Central Standard Time),454594.2999999821,A,body,I,y,187,3,1465.9000000059605,453128.39999997616,8051,WL,C,5.0
4,10.079999923706055,learn,49920.000076293945,Fri Jan 30 2026 10:58:26 GMT-0600 (Central Standard Time),454910.89999997616,A,bodyenter,I,enter,298,3,1782.5,453128.39999997616,8051,WL,C,5.0
4,10.680000066757202,learn,49319.9999332428,Fri Jan 30 2026 10:58:26 GMT-0600 (Central Standard Time),455510.6999999881,A,c,I,c,582,3,599.5,454911.1999999881,8051,WL,C,6.0
4,10.86299991607666,learn,49137.00008392334,Fri Jan 30 2026 10:58:26 GMT-0600 (Central Standard Time),455693.89999997616,A,ca,I,a,166,3,782.6999999880791,454911.1999999881,8051,WL,C,6.0
4,11.230000019073486,learn,48769.999980926514,Fri Jan 30 2026 10:58:26 GMT-0600 (Central Standard Time),456060.1999999881,A,cam,I,m,359,3,1149.0,454911.1999999881,8051,WL,C,6.0
4,11.44599986076355,learn,48554.00013923645,Fri Jan 30 2026 10:58:26 GMT-0600 (Central Standard Time),456276.89999997616,A,camp,I,p,209,3,1365.699999988079,454911.1999999881,8051,WL,C,6.0
4,11.746000051498413,learn,48253.99994850159,Fri Jan 30 2026 10:58:26 GMT-0600 (Central Standard Time),456577.0,A,campenter,I,enter,280,3,1665.800000011921,454911.1999999881,8051,WL,C,6.0
4,12.145999908447266,learn,47854.000091552734,Fri Jan 30 2026 10:58:26 GMT-0600 (Central Standard Time),456976.7999999821,A,f,I,f,379,3,399.5,456577.2999999821,8051,WL,C,7.0
4,12.345999956130981,learn,47654.00004386902,Fri Jan 30 2026 10:58:26 GMT-0600 (Central Standard Time),457176.7999999821,A,fl,I,l,195,3,599.5,456577.2999999821,8051,WL,C,7.0
4,12.496000051498413,learn,47503.99994850159,Fri Jan 30 2026 10:58:26 GMT-0600 (Central Standard Time),457326.5,A,fla,I,a,131,3,749.2000000178814,456577.2999999821,8051,WL,C,7.0
4,12.796000003814697,learn,47203.9999961853,Fri Jan 30 2026 10:58:26 GMT-0600 (Central Standard Time),457626.6999999881,A,flag,I,g,286,3,1049.4000000059605,456577.2999999821,8051,WL,C,7.0
4,13.046000003814697,learn,46953.9999961853,Fri Jan 30 2026 10:58:26 GMT-0600 (Central Standard Time),457876.6999999881,A,flagenter,I,enter,234,3,1299.4000000059605,456577.2999999821,8051,WL,C,7.0
4,13.59500002861023,learn,46404.99997138977,Fri Jan 30 2026 10:58:26 GMT-0600 (Central Standard Time),458426.0,A,l,I,l,544,3,548.9000000059605,457877.09999999404,8051,WL,C,8.0
4,13.728999853134155,learn,46271.000146865845,Fri Jan 30 2026 10:58:26 GMT-0600 (Central Standard Time),458559.6999999881,A,le,I,e,122,3,682.5999999940395,457877.09999999404,8051,WL,C,8.0
4,13.961999893188477,learn,46038.00010681152,Fri Jan 30 2026 10:58:26 GMT-0600 (Central Standard Time),458792.89999997616,A,let,I,t,213,3,915.7999999821186,457877.09999999404,8051,WL,C,8.0
4,14.128999948501587,learn,45871.00005149841,Fri Jan 30 2026 10:58:26 GMT-0600 (Central Standard Time),458959.59999999404,A,lett,I,t,156,3,1082.5,457877.09999999404,8051,WL,C,8.0
4,14.328999996185303,learn,45671.0000038147,Fri Jan 30 2026 10:58:26 GMT-0600 (Central Standard Time),459159.59999999404,A,lette,I,e,189,3,1282.5,457877.09999999404,8051,WL,C,8.0
4,14.395999908447266,learn,45604.000091552734,Fri Jan 30 2026 10:58:26 GMT-0600 (Central Standard Time),459226.5,A,letter,I,r,53,3,1349.4000000059605,457877.09999999404,8051,WL,C,8.0
4,14.562000036239624,learn,45437.999963760376,Fri Jan 30 2026 10:58:26 GMT-0600 (Central Standard Time),459392.7999999821,A,letterenter,I,enter,146,3,1515.699999988079,457877.09999999404,8051,WL,C,8.0
4,16.41100001335144,learn,43588.99998664856,Fri Jan 30 2026 10:58:26 GMT-0600 (Central Standard Time),461241.7999999821,A,t,I,t,1835,3,1848.7999999821186,459393.0,8051,WL,C,9.0
4,16.57800006866455,learn,43421.99993133545,Fri Jan 30 2026 10:58:26 GMT-0600 (Central Standard Time),461408.7999999821,A,to,I,o,146,3,2015.7999999821186,459393.0,8051,WL,C,9.0
4,16.744999885559082,learn,43255.00011444092,Fri Jan 30 2026 10:58:26 GMT-0600 (Central Standard Time),461575.59999999404,A,tow,I,w,147,3,2182.5999999940395,459393.0,8051,WL,C,9.0
4,16.861999988555908,learn,43138.00001144409,Fri Jan 30 2026 10:58:26 GMT-0600 (Central Standard Time),461692.1999999881,A,towe,I,e,109,3,2299.199999988079,459393.0,8051,WL,C,9.0
4,17.07800006866455,learn,42921.99993133545,Fri Jan 30 2026 10:58:26 GMT-0600 (Central Standard Time),461908.5,A,tower,I,r,200,3,2515.5,459393.0,8051,WL,C,9.0
4,17.26099991798401,learn,42739.00008201599,Fri Jan 30 2026 10:58:26 GMT-0600 (Central Standard Time),462092.0,A,towerenter,I,enter,167,3,2699.0,459393.0,8051,WL,C,9.0
4,17.74399995803833,learn,42256.00004196167,Fri Jan 30 2026 10:58:26 GMT-0600 (Central Standard Time),462575.09999999404,A,w,I,w,465,3,482.7000000178814,462092.39999997616,8051,WL,C,10.0
4,18.16100001335144,learn,41838.99998664856,Fri Jan 30 2026 10:58:26 GMT-0600 (Central Standard Time),462991.6999999881,A,wh,I,h,405,3,899.3000000119209,462092.39999997616,8051,WL,C,10.0
4,18.293999910354614,learn,41706.000089645386,Fri Jan 30 2026 10:58:26 GMT-0600 (Central Standard Time),463125.09999999404,A,whe,I,e,125,3,1032.7000000178814,462092.39999997616,8051,WL,C,10.0
4,18.543999910354614,learn,41456.000089645386,Fri Jan 30 2026 10:58:26 GMT-0600 (Central Standard Time),463374.89999997616,A,whea,I,a,231,3,1282.5,462092.39999997616,8051,WL,C,10.0
4,18.776999950408936,learn,41223.000049591064,Fri Jan 30 2026 10:58:26 GMT-0600 (Central Standard Time),463608.09999999404,A,wheat,I,t,212,3,1515.7000000178814,462092.39999997616,8051,WL,C,10.0
4,19.060999870300293,learn,40939.00012969971,Fri Jan 30 2026 10:58:26 GMT-0600 (Central Standard Time),463891.39999997616,A,wheatenter,I,enter,277,3,1799.0,462092.39999997616,8051,WL,C,10.0
4,22.243000030517578,learn,37756.99996948242,Fri Jan 30 2026 10:58:26 GMT-0600 (Central Standard Time),467073.39999997616,A,q,I,q,3177,3,3181.5999999940395,463891.7999999821,8051,WL,C,11.0
4,22.542999982833862,learn,37457.00001716614,Fri Jan 30 2026 10:58:26 GMT-0600 (Central Standard Time),467373.5,A,qu,I,u,283,3,3481.7000000178814,463891.7999999821,8051,WL,C,11.0
4,22.692999839782715,learn,37307.000160217285,Fri Jan 30 2026 10:58:26 GMT-0600 (Central Standard Time),467523.7999999821,A,que,I,e,135,3,3632.0,463891.7999999821,8051,WL,C,11.0
4,22.825999975204468,learn,37174.00002479553,Fri Jan 30 2026 10:58:26 GMT-0600 (Central Standard Time),467656.7999999821,A,quee,I,e,129,3,3765.0,463891.7999999821,8051,WL,C,11.0
4,22.993000030517578,learn,37006.99996948242,Fri Jan 30 2026 10:58:26 GMT-0600 (Central Standard Time),467823.5,A,queen,I,n,148,3,3931.7000000178814,463891.7999999821,8051,WL,C,11.0
4,23.425999879837036,learn,36574.000120162964,Fri Jan 30 2026 10:58:26 GMT-0600 (Central Standard Time),468256.39999997616,A,queenenter,I,enter,421,3,4364.5999999940395,463891.7999999821,8051,WL,C,11.0
4,23.908999919891357,learn,36091.00008010864,Fri Jan 30 2026 10:58:26 GMT-0600 (Central Standard Time),468739.7999999821,A,s,I,s,468,3,483.0,468256.7999999821,8051,WL,C,12.0
4,24.276000022888184,learn,35723.99997711182,Fri Jan 30 2026 10:58:26 GMT-0600 (Central Standard Time),469106.59999999404,A,su,I,u,353,3,849.8000000119209,468256.7999999821,8051,WL,C,12.0
4,24.47499990463257,learn,35525.00009536743,Fri Jan 30 2026 10:58:26 GMT-0600 (Central Standard Time),469306.0,A,sug,I,g,194,3,1049.2000000178814,468256.7999999821,8051,WL,C,12.0
4,24.658999919891357,learn,35341.00008010864,Fri Jan 30 2026 10:58:26 GMT-0600 (Central Standard Time),469489.39999997616,A,suga,I,a,179,3,1232.5999999940395,468256.7999999821,8051,WL,C,12.0
4,24.825999975204468,learn,35174.00002479553,Fri Jan 30 2026 10:58:26 GMT-0600 (Central Standard Time),469656.09999999404,A,sugar,I,r,155,3,1399.300000011921,468256.7999999821,8051,WL,C,12.0
4,24.9760000705719,learn,35023.9999294281,Fri Jan 30 2026 10:58:26 GMT-0600 (Central Standard Time),469806.5,A,sugarenter,I,enter,133,3,1549.7000000178814,468256.7999999821,8051,WL,C,12.0
4,26.108999967575073,learn,33891.00003242493,Fri Jan 30 2026 10:58:26 GMT-0600 (Central Standard Time),470939.2999999821,A,h,I,h,1118,3,1132.5999999940395,469806.6999999881,8051,WL,C,13.0
4,26.29200005531311,learn,33707.99994468689,Fri Jan 30 2026 10:58:26 GMT-0600 (Central Standard Time),471122.59999999404,A,ho,I,o,168,3,1315.9000000059605,469806.6999999881,8051,WL,C,13.0
4,26.39199995994568,learn,33608.00004005432,Fri Jan 30 2026 10:58:26 GMT-0600 (Central Standard Time),471222.2999999821,A,hom,I,m,90,3,1415.5999999940395,469806.6999999881,8051,WL,C,13.0
4,26.575000047683716,learn,33424.999952316284,Fri Jan 30 2026 10:58:26 GMT-0600 (Central Standard Time),471405.7999999821,A,home,I,e,166,3,1599.0999999940395,469806.6999999881,8051,WL,C,13.0
4,27.125,learn,32875.0,Fri Jan 30 2026 10:58:26 GMT-0600 (Central Standard Time),471955.1999999881,A,homeenter,I,enter,543,3,2148.5,469806.6999999881,8051,WL,C,13.0
4,28.157999992370605,learn,31842.000007629395,Fri Jan 30 2026 10:58:26 GMT-0600 (Central Standard Time),472988.5,A,b,I,b,1016,3,1033.0,471955.5,8051,WL,C,14.0
4,28.424999952316284,learn,31575.000047683716,Fri Jan 30 2026 10:58:26 GMT-0600 (Central Standard Time),473255.09999999404,A,bi,I,i,247,3,1299.5999999940395,471955.5,8051,WL,C,14.0
4,28.95799994468689,learn,31042.00005531311,Fri Jan 30 2026 10:58:26 GMT-0600 (Central Standard Time),473788.1999999881,A,b,I,backspace,526,3,1832.699999988079,471955.5,8051,WL,C,14.0
4,29.490999937057495,learn,30509.000062942505,Fri Jan 30 2026 10:58:26 GMT-0600 (Central Standard Time),474321.39999997616,A,bo,I,o,512,3,2365.899999976158,471955.5,8051,WL,C,14.0
4,29.806999921798706,learn,30193.000078201294,Fri Jan 30 2026 10:58:26 GMT-0600 (Central Standard Time),474637.89999997616,A,boy,I,y,307,3,2682.399999976158,471955.5,8051,WL,C,14.0
4,30.0239999294281,learn,29976.0000705719,Fri Jan 30 2026 10:58:26 GMT-0600 (Central Standard Time),474854.5,A,boyenter,I,enter,207,3,2899.0,471955.5,8051,WL,C,14.0
4,30.639999866485596,learn,29360.000133514404,Fri Jan 30 2026 10:58:26 GMT-0600 (Central Standard Time),475470.7999999821,A,d,I,d,597,3,616.0,474854.7999999821,8051,WL,C,15.0
4,30.85699987411499,learn,29143.00012588501,Fri Jan 30 2026 10:58:26 GMT-0600 (Central Standard Time),475687.59999999404,A,do,I,o,205,3,832.8000000119209,474854.7999999821,8051,WL,C,15.0
4,31.35699987411499,learn,28643.00012588501,Fri Jan 30 2026 10:58:26 GMT-0600 (Central Standard Time),476187.5,A,doc,I,c,492,3,1332.7000000178814,474854.7999999821,8051,WL,C,15.0
4,31.639999866485596,learn,28360.000133514404,Fri Jan 30 2026 10:58:26 GMT-0600 (Central Standard Time),476470.6999999881,A,doct,I,t,265,3,1615.9000000059605,474854.7999999821,8051,WL,C,15.0
4,31.85699987411499,learn,28143.00012588501,Fri Jan 30 2026 10:58:26 GMT-0600 (Central Standard Time),476687.39999997616,A,docto,I,o,206,3,1832.5999999940395,474854.7999999821,8051,WL,C,15.0
4,31.957000017166138,learn,28042.999982833862,Fri Jan 30 2026 10:58:26 GMT-0600 (Central Standard Time),476787.39999997616,A,doctor,I,r,85,3,1932.5999999940395,474854.7999999821,8051,WL,C,15.0
4,32.45700001716614,learn,27542.999982833862,Fri Jan 30 2026 10:58:26 GMT-0600 (Central Standard Time),477287.1999999881,A,doctorenter,I,enter,489,3,2432.4000000059605,474854.7999999821,8051,WL,C,15.0
5,0.8169999122619629,learn,60000.0,Fri Jan 30 2026 10:58:26 GMT-0600 (Central Standard Time),543216.8999999762,A,c,I,c,803,3,816.2999999821186,542400.599999994,8051,WL,C,1.0
5,1.066999912261963,learn,60000.0,Fri Jan 30 2026 10:58:26 GMT-0600 (Central Standard Time),543466.6999999881,A,co,I,o,235,3,1066.0999999940395,542400.599999994,8051,WL,C,1.0
5,1.3329999446868896,learn,60000.0,Fri Jan 30 2026 10:58:26 GMT-0600 (Central Standard Time),543733.0,A,cor,I,r,250,3,1332.4000000059605,542400.599999994,8051,WL,C,1.0
5,1.566999912261963,learn,60000.0,Fri Jan 30 2026 10:58:26 GMT-0600 (Central Standard Time),543966.3999999762,A,corn,I,n,223,3,1565.7999999821186,542400.599999994,8051,WL,C,1.0
5,2.0169999599456787,learn,60000.0,Fri Jan 30 2026 10:58:26 GMT-0600 (Central Standard Time),544416.3999999762,A,cornenter,I,enter,438,3,2015.7999999821186,542400.599999994,8051,WL,C,1.0
5,3.2660000324249268,learn,60000.0,Fri Jan 30 2026 10:58:26 GMT-0600 (Central Standard Time),545665.6999999881,A,n,I,n,1235,3,1249.0,544416.6999999881,8051,WL,C,2.0
5,3.5160000324249268,learn,60000.0,Fri Jan 30 2026 10:58:26 GMT-0600 (Central Standard Time),545916.1999999881,A,na,I,a,233,3,1499.5,544416.6999999881,8051,WL,C,2.0
5,3.8489999771118164,learn,60000.0,Fri Jan 30 2026 10:58:26 GMT-0600 (Central Standard Time),546249.1999999881,A,nai,I,i,320,3,1832.5,544416.6999999881,8051,WL,C,2.0
5,4.065000057220459,learn,60000.0,Fri Jan 30 2026 10:58:26 GMT-0600 (Central Standard Time),546465.1999999881,A,nail,I,l,211,3,2048.5,544416.6999999881,8051,WL,C,2.0
5,4.365000009536743,learn,60000.0,Fri Jan 30 2026 10:58:26 GMT-0600 (Central Standard Time),546765.2999999821,A,nailenter,I,enter,291,3,2348.5999999940395,544416.6999999881,8051,WL,C,2.0
5,5.398999929428101,learn,60000.0,Fri Jan 30 2026 10:58:26 GMT-0600 (Central Standard Time),547798.599999994,A,c,I,c,1015,3,1032.9000000059605,546765.6999999881,8051,WL,C,3.0
5,5.998999834060669,learn,60000.0,Fri Jan 30 2026 10:58:26 GMT-0600 (Central Standard Time),548398.3999999762,A,ca,I,a,581,3,1632.699999988079,546765.6999999881,8051,WL,C,3.0
5,6.381999969482422,learn,60000.0,Fri Jan 30 2026 10:58:26 GMT-0600 (Central Standard Time),548781.3999999762,A,cat,I,t,374,3,2015.699999988079,546765.6999999881,8051,WL,C,3.0
5,6.547999858856201,learn,60000.0,Fri Jan 30 2026 10:58:26 GMT-0600 (Central Standard Time),548948.0,A,catt,I,t,151,3,2182.300000011921,546765.6999999881,8051,WL,C,3.0
5,6.7149999141693115,learn,60000.0,Fri Jan 30 2026 10:58:26 GMT-0600 (Central Standard Time),549114.7999999821,A,cattl,I,l,152,3,2349.0999999940395,546765.6999999881,8051,WL,C,3.0
5,6.865000009536743,learn,60000.0,Fri Jan 30 2026 10:58:26 GMT-0600 (Central Standard Time),549264.3999999762,A,cattle,I,e,138,3,2498.699999988079,546765.6999999881,8051,WL,C,3.0
5,7.065000057220459,learn,60000.0,Fri Jan 30 2026 10:58:26 GMT-0600 (Central Standard Time),549464.7999999821,A,cattleenter,I,enter,187,3,2699.0999999940395,546765.6999999881,8051,WL,C,3.0
5,7.8480000495910645,learn,60000.0,Fri Jan 30 2026 10:58:26 GMT-0600 (Central Standard Time),550247.6999999881,A,s,I,s,763,3,782.5999999940395,549465.099999994,8051,WL,C,4.0
5,8.214999914169312,learn,60000.0,Fri Jan 30 2026 10:58:26 GMT-0600 (Central Standard Time),550614.5,A,so,I,o,357,3,1149.4000000059605,549465.099999994,8051,WL,C,4.0
5,8.997999906539917,learn,60000.0,Fri Jan 30 2026 10:58:26 GMT-0600 (Central Standard Time),551397.3999999762,A,s,I,backspace,766,3,1932.2999999821186,549465.099999994,8051,WL,C,4.0
5,9.363999843597412,learn,60000.0,Fri Jan 30 2026 10:58:26 GMT-0600 (Central Standard Time),551763.3999999762,A,sh,I,h,358,3,2298.2999999821186,549465.099999994,8051,WL,C,4.0
5,9.596999883651733,learn,60000.0,Fri Jan 30 2026 10:58:26 GMT-0600 (Central Standard Time),551997.1999999881,A,sho,I,o,224,3,2532.0999999940395,549465.099999994,8051,WL,C,4.0
5,9.79699993133545,learn,60000.0,Fri Jan 30 2026 10:58:26 GMT-0600 (Central Standard Time),552197.2999999821,A,shor,I,r,191,3,2732.199999988079,549465.099999994,8051,WL,C,4.0
5,9.88100004196167,learn,60000.0,Fri Jan 30 2026 10:58:26 GMT-0600 (Central Standard Time),552280.599999994,A,shore,I,e,71,3,2815.5,549465.099999994,8051,WL,C,4.0
5,10.04699993133545,learn,60000.0,Fri Jan 30 2026 10:58:26 GMT-0600 (Central Standard Time),552446.8999999762,A,shoreenter,I,enter,147,3,2981.7999999821186,549465.099999994,8051,WL,C,4.0
5,10.563999891281128,learn,60000.0,Fri Jan 30 2026 10:58:26 GMT-0600 (Central Standard Time),552963.599999994,A,b,I,b,501,3,516.3000000119209,552447.2999999821,8051,WL,C,5.0
5,10.996999979019165,learn,60000.0,Fri Jan 30 2026 10:58:26 GMT-0600 (Central Standard Time),553396.6999999881,A,bo,I,o,425,3,949.4000000059605,552447.2999999821,8051,WL,C,5.0
5,11.313999891281128,learn,60000.0,Fri Jan 30 2026 10:58:26 GMT-0600 (Central Standard Time),553713.2999999821,A,bod,I,d,304,3,1266.0,552447.2999999821,8051,WL,C,5.0
5,11.54699993133545,learn,60000.0,Fri Jan 30 2026 10:58:26 GMT-0600 (Central Standard Time),553946.6999999881,A,body,I,y,219,3,1499.4000000059605,552447.2999999821,8051,WL,C,5.0
5,11.86299991607666,learn,60000.0,Fri Jan 30 2026 10:58:26 GMT-0600 (Central Standard Time),554263.099999994,A,bodyenter,I,enter,306,3,1815.800000011921,552447.2999999821,8051,WL,C,5.0
5,12.429999828338623,learn,60000.0,Fri Jan 30 2026 10:58:26 GMT-0600 (Central Standard Time),554829.599999994,A,c,I,c,556,3,566.0999999940395,554263.5,8051,WL,C,6.0
5,12.595999956130981,learn,60000.0,Fri Jan 30 2026 10:58:26 GMT-0600 (Central Standard Time),554996.0,A,ca,I,a,159,3,732.5,554263.5,8051,WL,C,6.0
5,13.092999935150146,learn,60000.0,Fri Jan 30 2026 10:58:26 GMT-0600 (Central Standard Time),555493.1999999881,A,cam,I,m,344,3,1229.699999988079,554263.5,8051,WL,C,6.0
5,13.128999948501587,learn,60000.0,Fri Jan 30 2026 10:58:26 GMT-0600 (Central Standard Time),555529.0,A,camp,I,p,30,3,1265.5,554263.5,8051,WL,C,6.0
5,13.44599986076355,learn,60000.0,Fri Jan 30 2026 10:58:26 GMT-0600 (Central Standard Time),555846.0,A,campenter,I,enter,299,3,1582.5,554263.5,8051,WL,C,6.0
5,13.779000043869019,learn,60000.0,Fri Jan 30 2026 10:58:26 GMT-0600 (Central Standard Time),556179.2999999821,A,f,I,f,319,3,332.90000000596046,555846.3999999762,8051,WL,C,7.0
5,13.978999853134155,learn,60000.0,Fri Jan 30 2026 10:58:26 GMT-0600 (Central Standard Time),556378.8999999762,A,fl,I,l,193,3,532.5,555846.3999999762,8051,WL,C,7.0
5,14.128999948501587,learn,60000.0,Fri Jan 30 2026 10:58:26 GMT-0600 (Central Standard Time),556529.1999999881,A,fla,I,a,136,3,682.8000000119209,555846.3999999762,8051,WL,C,7.0
5,14.411999940872192,learn,60000.0,Fri Jan 30 2026 10:58:26 GMT-0600 (Central Standard Time),556812.1999999881,A,flag,I,g,267,3,965.8000000119209,555846.3999999762,8051,WL,C,7.0
5,14.611999988555908,learn,60000.0,Fri Jan 30 2026 10:58:26 GMT-0600 (Central Standard Time),557011.8999999762,A,flagenter,I,enter,183,3,1165.5,555846.3999999762,8051,WL,C,7.0
5,15.046000003814697,learn,60000.0,Fri Jan 30 2026 10:58:26 GMT-0600 (Central Standard Time),557445.3999999762,A,l,I,l,416,3,432.7999999821186,557012.599999994,8051,WL,C,8.0
5,15.26199984550476,learn,60000.0,Fri Jan 30 2026 10:58:26 GMT-0600 (Central Standard Time),557662.1999999881,A,le,I,e,199,3,649.5999999940395,557012.599999994,8051,WL,C,8.0
5,15.478999853134155,learn,60000.0,Fri Jan 30 2026 10:58:26 GMT-0600 (Central Standard Time),557878.6999999881,A,let,I,t,206,3,866.0999999940395,557012.599999994,8051,WL,C,8.0
5,15.644999980926514,learn,60000.0,Fri Jan 30 2026 10:58:26 GMT-0600 (Central Standard Time),558045.099999994,A,lett,I,t,150,3,1032.5,557012.599999994,8051,WL,C,8.0
5,15.828999996185303,learn,60000.0,Fri Jan 30 2026 10:58:26 GMT-0600 (Central Standard Time),558228.5,A,lette,I,e,175,3,1215.9000000059605,557012.599999994,8051,WL,C,8.0
5,15.894999980926514,learn,60000.0,Fri Jan 30 2026 10:58:26 GMT-0600 (Central Standard Time),558295.0,A,letter,I,r,56,3,1282.4000000059605,557012.599999994,8051,WL,C,8.0
5,16.062000036239624,learn,60000.0,Fri Jan 30 2026 10:58:26 GMT-0600 (Central Standard Time),558461.599999994,A,letterenter,I,enter,149,3,1449.0,557012.599999994,8051,WL,C,8.0
5,16.994999885559082,learn,60000.0,Fri Jan 30 2026 10:58:26 GMT-0600 (Central Standard Time),559394.7999999821,A,t,I,t,919,3,932.9000000059605,558461.8999999762,8051,WL,C,9.0
5,17.244999885559082,learn,60000.0,Fri Jan 30 2026 10:58:26 GMT-0600 (Central Standard Time),559645.099999994,A,to,I,o,233,3,1183.2000000178814,558461.8999999762,8051,WL,C,9.0
5,17.394999980926514,learn,60000.0,Fri Jan 30 2026 10:58:26 GMT-0600 (Central Standard Time),559794.6999999881,A,tow,I,w,144,3,1332.800000011921,558461.8999999762,8051,WL,C,9.0
5,17.59599995613098,learn,60000.0,Fri Jan 30 2026 10:58:26 GMT-0600 (Central Standard Time),559995.6999999881,A,towe,I,e,194,3,1533.800000011921,558461.8999999762,8051,WL,C,9.0
5,17.82799983024597,learn,60000.0,Fri Jan 30 2026 10:58:26 GMT-0600 (Central Standard Time),560227.8999999762,A,tower,I,r,217,3,1766.0,558461.8999999762,8051,WL,C,9.0
5,17.977999925613403,learn,60000.0,Fri Jan 30 2026 10:58:26 GMT-0600 (Central Standard Time),560377.599999994,A,towerenter,I,enter,143,3,1915.7000000178814,558461.8999999762,8051,WL,C,9.0
5,18.677000045776367,learn,60000.0,Fri Jan 30 2026 10:58:26 GMT-0600 (Central Standard Time),561077.2999999821,A,w,I,w,682,3,699.5,560377.7999999821,8051,WL,C,10.0
5,18.91100001335144,learn,60000.0,Fri Jan 30 2026 10:58:26 GMT-0600 (Central Standard Time),561310.6999999881,A,wh,I,h,223,3,932.9000000059605,560377.7999999821,8051,WL,C,10.0
5,19.24399995803833,learn,60000.0,Fri Jan 30 2026 10:58:26 GMT-0600 (Central Standard Time),561644.0,A,whe,I,e,326,3,1266.2000000178814,560377.7999999821,8051,WL,C,10.0
5,19.49399995803833,learn,60000.0,Fri Jan 30 2026 10:58:26 GMT-0600 (Central Standard Time),561894.099999994,A,whea,I,a,241,3,1516.300000011921,560377.7999999821,8051,WL,C,10.0
5,19.611000061035156,learn,60000.0,Fri Jan 30 2026 10:58:26 GMT-0600 (Central Standard Time),562010.6999999881,A,wheat,I,t,101,3,1632.9000000059605,560377.7999999821,8051,WL,C,10.0
5,19.861000061035156,learn,60000.0,Fri Jan 30 2026 10:58:26 GMT-0600 (Central Standard Time),562260.5,A,wheatenter,I,enter,234,3,1882.7000000178814,560377.7999999821,8051,WL,C,10.0
5,20.444000005722046,learn,60000.0,Fri Jan 30 2026 10:58:26 GMT-0600 (Central Standard Time),562844.099999994,A,q,I,q,568,3,583.4000000059605,562260.6999999881,8051,WL,C,11.0
5,20.710000038146973,learn,60000.0,Fri Jan 30 2026 10:58:26 GMT-0600 (Central Standard Time),563110.2999999821,A,qu,I,u,249,3,849.5999999940395,562260.6999999881,8051,WL,C,11.0
5,20.859999895095825,learn,60000.0,Fri Jan 30 2026 10:58:26 GMT-0600 (Central Standard Time),563260.099999994,A,que,I,e,142,3,999.4000000059605,562260.6999999881,8051,WL,C,11.0
5,20.993000030517578,learn,60000.0,Fri Jan 30 2026 10:58:26 GMT-0600 (Central Standard Time),563393.3999999762,A,quee,I,e,128,3,1132.699999988079,562260.6999999881,8051,WL,C,11.0
5,21.177000045776367,learn,60000.0,Fri Jan 30 2026 10:58:26 GMT-0600 (Central Standard Time),563576.599999994,A,queen,I,n,163,3,1315.9000000059605,562260.6999999881,8051,WL,C,11.0
5,21.792999982833862,learn,60000.0,Fri Jan 30 2026 10:58:26 GMT-0600 (Central Standard Time),564193.3999999762,A,queenenter,I,enter,603,3,1932.699999988079,562260.6999999881,8051,WL,C,11.0
5,22.526000022888184,learn,60000.0,Fri Jan 30 2026 10:58:26 GMT-0600 (Central Standard Time),564926.3999999762,A,s,I,s,723,3,732.5999999940395,564193.7999999821,8051,WL,C,12.0
5,22.776000022888184,learn,60000.0,Fri Jan 30 2026 10:58:26 GMT-0600 (Central Standard Time),565176.3999999762,A,su,I,u,229,3,982.5999999940395,564193.7999999821,8051,WL,C,12.0
5,23.009000062942505,learn,60000.0,Fri Jan 30 2026 10:58:26 GMT-0600 (Central Standard Time),565409.599999994,A,sug,I,g,220,3,1215.800000011921,564193.7999999821,8051,WL,C,12.0
5,23.192999839782715,learn,60000.0,Fri Jan 30 2026 10:58:26 GMT-0600 (Central Standard Time),565592.7999999821,A,suga,I,a,171,3,1399.0,564193.7999999821,8051,WL,C,12.0
5,23.325999975204468,learn,60000.0,Fri Jan 30 2026 10:58:26 GMT-0600 (Central Standard Time),565726.2999999821,A,sugar,I,r,116,3,1532.5,564193.7999999821,8051,WL,C,12.0
5,23.493000030517578,learn,60000.0,Fri Jan 30 2026 10:58:26 GMT-0600 (Central Standard Time),565892.6999999881,A,sugarenter,I,enter,158,3,1698.9000000059605,564193.7999999821,8051,WL,C,12.0
5,24.292999982833862,learn,60000.0,Fri Jan 30 2026 10:58:26 GMT-0600 (Central Standard Time),566692.8999999762,A,h,I,h,784,3,799.8999999761581,565893.0,8051,WL,C,13.0
5,24.526000022888184,learn,60000.0,Fri Jan 30 2026 10:58:26 GMT-0600 (Central Standard Time),566925.8999999762,A,ho,I,o,224,3,1032.8999999761581,565893.0,8051,WL,C,13.0
5,24.70899987220764,learn,60000.0,Fri Jan 30 2026 10:58:26 GMT-0600 (Central Standard Time),567109.099999994,A,hom,I,m,167,3,1216.0999999940395,565893.0,8051,WL,C,13.0
5,24.908999919891357,learn,60000.0,Fri Jan 30 2026 10:58:26 GMT-0600 (Central Standard Time),567309.099999994,A,home,I,e,191,3,1416.0999999940395,565893.0,8051,WL,C,13.0
5,25.241999864578247,learn,60000.0,Fri Jan 30 2026 10:58:26 GMT-0600 (Central Standard Time),567642.1999999881,A,homeenter,I,enter,320,3,1749.199999988079,565893.0,8051,WL,C,13.0
5,25.924999952316284,learn,60000.0,Fri Jan 30 2026 10:58:26 GMT-0600 (Central Standard Time),568325.5,A,b,I,b,674,3,682.9000000059605,567642.599999994,8051,WL,C,14.0
5,26.174999952316284,learn,60000.0,Fri Jan 30 2026 10:58:26 GMT-0600 (Central Standard Time),568575.5,A,bo,I,o,231,3,932.9000000059605,567642.599999994,8051,WL,C,14.0
5,26.45799994468689,learn,60000.0,Fri Jan 30 2026 10:58:26 GMT-0600 (Central Standard Time),568858.3999999762,A,boy,I,y,276,3,1215.7999999821186,567642.599999994,8051,WL,C,14.0
5,26.80900001525879,learn,60000.0,Fri Jan 30 2026 10:58:26 GMT-0600 (Central Standard Time),569209.0,A,boyenter,I,enter,330,3,1566.4000000059605,567642.599999994,8051,WL,C,14.0
5,27.641000032424927,learn,60000.0,Fri Jan 30 2026 10:58:26 GMT-0600 (Central Standard Time),570041.5,A,d,I,d,828,3,832.3000000119209,569209.1999999881,8051,WL,C,15.0
5,27.825000047683716,learn,60000.0,Fri Jan 30 2026 10:58:26 GMT-0600 (Central Standard Time),570224.7999999821,A,do,I,o,171,3,1015.5999999940395,569209.1999999881,8051,WL,C,15.0
5,27.907999992370605,learn,60000.0,Fri Jan 30 2026 10:58:26 GMT-0600 (Central Standard Time),570308.099999994,A,doc,I,c,75,3,1098.9000000059605,569209.1999999881,8051,WL,C,15.0
5,28.141000032424927,learn,60000.0,Fri Jan 30 2026 10:58:26 GMT-0600 (Central Standard Time),570541.2999999821,A,doct,I,t,216,3,1332.0999999940395,569209.1999999881,8051,WL,C,15.0
5,28.257999897003174,learn,60000.0,Fri Jan 30 2026 10:58:26 GMT-0600 (Central Standard Time),570657.8999999762,A,docto,I,o,103,3,1448.699999988079,569209.1999999881,8051,WL,C,15.0
5,28.35800004005432,learn,60000.0,Fri Jan 30 2026 10:58:26 GMT-0600 (Central Standard Time),570757.8999999762,A,doctor,I,r,83,3,1548.699999988079,569209.1999999881,8051,WL,C,15.0
5,28.60800004005432,learn,60000.0,Fri Jan 30 2026 10:58:26 GMT-0600 (Central Standard Time),571007.7999999821,A,doctorenter,I,enter,239,3,1798.5999999940395,569209.1999999881,8051,WL,C,15.0
6,0.9160001277923584,distr,59083.99987220764,Fri Jan 30 2026 10:58:26 GMT-0600 (Central Standard Time),652482.5,B,s,I,s,903,3,916.3000000119209,651566.1999999881,8051,WL,C,1.0
6,1.2160000801086426,distr,58783.99991989136,Fri Jan 30 2026 10:58:26 GMT-0600 (Central Standard Time),652782.2999999821,B,sk,I,k,281,3,1216.0999999940395,651566.1999999881,8051,WL,C,1.0
6,1.565999984741211,distr,58434.00001525879,Fri Jan 30 2026 10:58:26 GMT-0600 (Central Standard Time),653132.3999999762,B,sky,I,y,334,3,1566.199999988079,651566.1999999881,8051,WL,C,1.0
6,2.315000057220459,distr,57684.99994277954,Fri Jan 30 2026 10:58:26 GMT-0600 (Central Standard Time),653881.6999999881,B,skyenter,I,enter,744,3,2315.5,651566.1999999881,8051,WL,C,1.0
6,2.565999984741211,distr,57434.00001525879,Fri Jan 30 2026 10:58:26 GMT-0600 (Central Standard Time),654132.099999994,B,d,I,d,234,3,250.2000000178814,653881.8999999762,8051,WL,C,2.0
6,2.7320001125335693,distr,57267.99988746643,Fri Jan 30 2026 10:58:26 GMT-0600 (Central Standard Time),654298.599999994,B,do,I,o,152,3,416.7000000178814,653881.8999999762,8051,WL,C,2.0
6,2.9660000801086426,distr,57033.99991989136,Fri Jan 30 2026 10:58:26 GMT-0600 (Central Standard Time),654531.8999999762,B,dol,I,l,226,3,650.0,653881.8999999762,8051,WL,C,2.0
6,3.115000009536743,distr,56884.99999046326,Fri Jan 30 2026 10:58:26 GMT-0600 (Central Standard Time),654681.5,B,doll,I,l,145,3,799.6000000238419,653881.8999999762,8051,WL,C,2.0
6,3.2320001125335693,distr,56767.99988746643,Fri Jan 30 2026 10:58:26 GMT-0600 (Central Standard Time),654798.1999999881,B,dolla,I,a,99,3,916.3000000119209,653881.8999999762,8051,WL,C,2.0
6,3.3990001678466797,distr,56600.99983215332,Fri Jan 30 2026 10:58:26 GMT-0600 (Central Standard Time),654964.8999999762,B,dollar,I,r,158,3,1083.0,653881.8999999762,8051,WL,C,2.0
6,3.615000009536743,distr,56384.99999046326,Fri Jan 30 2026 10:58:26 GMT-0600 (Central Standard Time),655181.7999999821,B,dollarenter,I,enter,199,3,1299.9000000059605,653881.8999999762,8051,WL,C,2.0
6,4.5980000495910645,distr,55401.999950408936,Fri Jan 30 2026 10:58:26 GMT-0600 (Central Standard Time),656164.599999994,B,v,I,v,974,3,982.5,655182.099999994,8051,WL,C,3.0
6,4.79800009727478,distr,55201.99990272522,Fri Jan 30 2026 10:58:26 GMT-0600 (Central Standard Time),656364.7999999821,B,va,I,a,183,3,1182.699999988079,655182.099999994,8051,WL,C,3.0
6,4.930999994277954,distr,55069.000005722046,Fri Jan 30 2026 10:58:26 GMT-0600 (Central Standard Time),656497.7999999821,B,val,I,l,111,3,1315.699999988079,655182.099999994,8051,WL,C,3.0
6,5.065000057220459,distr,54934.99994277954,Fri Jan 30 2026 10:58:26 GMT-0600 (Central Standard Time),656631.6999999881,B,vall,I,l,114,3,1449.5999999940395,655182.099999994,8051,WL,C,3.0
6,5.63100004196167,distr,54368.99995803833,Fri Jan 30 2026 10:58:26 GMT-0600 (Central Standard Time),657197.599999994,B,valle,I,e,557,3,2015.5,655182.099999994,8051,WL,C,3.0
6,6.015000104904175,distr,53984.999895095825,Fri Jan 30 2026 10:58:26 GMT-0600 (Central Standard Time),657580.7999999821,B,valley,I,y,366,3,2398.699999988079,655182.099999994,8051,WL,C,3.0
6,6.21399998664856,distr,53786.00001335144,Fri Jan 30 2026 10:58:26 GMT-0600 (Central Standard Time),657780.7999999821,B,valleyenter,I,enter,183,3,2598.699999988079,655182.099999994,8051,WL,C,3.0
6,6.864000082015991,distr,53135.99991798401,Fri Jan 30 2026 10:58:26 GMT-0600 (Central Standard Time),658430.2999999821,B,b,I,b,631,3,649.1999999880791,657781.099999994,8051,WL,C,4.0
6,7.114000082015991,distr,52885.99991798401,Fri Jan 30 2026 10:58:26 GMT-0600 (Central Standard Time),658680.6999999881,B,bu,I,u,229,3,899.5999999940395,657781.099999994,8051,WL,C,4.0
6,7.263999938964844,distr,52736.000061035156,Fri Jan 30 2026 10:58:26 GMT-0600 (Central Standard Time),658830.599999994,B,but,I,t,139,3,1049.5,657781.099999994,8051,WL,C,4.0
6,7.414000034332275,distr,52585.999965667725,Fri Jan 30 2026 10:58:26 GMT-0600 (Central Standard Time),658980.2999999821,B,butt,I,t,142,3,1199.199999988079,657781.099999994,8051,WL,C,4.0
6,7.647000074386597,distr,52352.9999256134,Fri Jan 30 2026 10:58:26 GMT-0600 (Central Standard Time),659213.599999994,B,butte,I,e,215,3,1432.5,657781.099999994,8051,WL,C,4.0
6,7.730999946594238,distr,52269.00005340576,Fri Jan 30 2026 10:58:26 GMT-0600 (Central Standard Time),659297.099999994,B,butter,I,r,71,3,1516.0,657781.099999994,8051,WL,C,4.0
6,7.897000074386597,distr,52102.9999256134,Fri Jan 30 2026 10:58:26 GMT-0600 (Central Standard Time),659463.6999999881,B,butterenter,I,enter,147,3,1682.5999999940395,657781.099999994,8051,WL,C,4.0
6,8.847000122070312,distr,51152.99987792969,Fri Jan 30 2026 10:58:26 GMT-0600 (Central Standard Time),660413.2999999821,B,h,I,h,933,3,949.1999999880791,659464.099999994,8051,WL,C,5.0
6,8.963000059127808,distr,51036.99994087219,Fri Jan 30 2026 10:58:26 GMT-0600 (Central Standard Time),660529.599999994,B,ha,I,a,110,3,1065.5,659464.099999994,8051,WL,C,5.0
6,9.130000114440918,distr,50869.99988555908,Fri Jan 30 2026 10:58:26 GMT-0600 (Central Standard Time),660696.2999999821,B,hal,I,l,146,3,1232.199999988079,659464.099999994,8051,WL,C,5.0
6,9.263000011444092,distr,50736.99998855591,Fri Jan 30 2026 10:58:26 GMT-0600 (Central Standard Time),660829.599999994,B,hall,I,l,115,3,1365.5,659464.099999994,8051,WL,C,5.0
6,9.463000059127808,distr,50536.99994087219,Fri Jan 30 2026 10:58:26 GMT-0600 (Central Standard Time),661029.5,B,hallenter,I,enter,183,3,1565.4000000059605,659464.099999994,8051,WL,C,5.0
6,10.213000059127808,distr,49786.99994087219,Fri Jan 30 2026 10:58:26 GMT-0600 (Central Standard Time),661779.599999994,B,d,I,d,743,3,749.7000000178814,661029.8999999762,8051,WL,C,6.0
6,10.446000099182129,distr,49553.99990081787,Fri Jan 30 2026 10:58:26 GMT-0600 (Central Standard Time),662012.6999999881,B,di,I,i,224,3,982.8000000119209,661029.8999999762,8051,WL,C,6.0
6,10.61300015449524,distr,49386.99984550476,Fri Jan 30 2026 10:58:26 GMT-0600 (Central Standard Time),662179.2999999821,B,dia,I,a,152,3,1149.4000000059605,661029.8999999762,8051,WL,C,6.0
6,10.797000169754028,distr,49202.99983024597,Fri Jan 30 2026 10:58:26 GMT-0600 (Central Standard Time),662362.8999999762,B,dian,I,n,169,3,1333.0,661029.8999999762,8051,WL,C,6.0
6,11.146000146865845,distr,48853.999853134155,Fri Jan 30 2026 10:58:26 GMT-0600 (Central Standard Time),662712.6999999881,B,dia,I,backspace,338,3,1682.800000011921,661029.8999999762,8051,WL,C,6.0
6,11.396000146865845,distr,48603.999853134155,Fri Jan 30 2026 10:58:26 GMT-0600 (Central Standard Time),662962.3999999762,B,diam,I,m,244,3,1932.5,661029.8999999762,8051,WL,C,6.0
6,11.61300015449524,distr,48386.99984550476,Fri Jan 30 2026 10:58:26 GMT-0600 (Central Standard Time),663179.099999994,B,diamo,I,o,202,3,2149.2000000178814,661029.8999999762,8051,WL,C,6.0
6,11.76200008392334,distr,48237.99991607666,Fri Jan 30 2026 10:58:26 GMT-0600 (Central Standard Time),663328.6999999881,B,diamon,I,n,145,3,2298.800000011921,661029.8999999762,8051,WL,C,6.0
6,11.92900013923645,distr,48070.99986076355,Fri Jan 30 2026 10:58:26 GMT-0600 (Central Standard Time),663495.5,B,diamond,I,d,148,3,2465.600000023842,661029.8999999762,8051,WL,C,6.0
6,12.130000114440918,distr,47869.99988555908,Fri Jan 30 2026 10:58:26 GMT-0600 (Central Standard Time),663695.8999999762,B,diamondenter,I,enter,181,3,2666.0,661029.8999999762,8051,WL,C,6.0
6,12.812000036239624,distr,47187.999963760376,Fri Jan 30 2026 10:58:26 GMT-0600 (Central Standard Time),664378.6999999881,B,w,I,w,668,3,682.5999999940395,663696.099999994,8051,WL,C,7.0
6,13.062000036239624,distr,46937.999963760376,Fri Jan 30 2026 10:58:26 GMT-0600 (Central Standard Time),664628.599999994,B,wi,I,i,234,3,932.5,663696.099999994,8051,WL,C,7.0
6,13.212000131607056,distr,46787.999868392944,Fri Jan 30 2026 10:58:26 GMT-0600 (Central Standard Time),664778.5,B,win,I,n,144,3,1082.4000000059605,663696.099999994,8051,WL,C,7.0
6,13.396000146865845,distr,46603.999853134155,Fri Jan 30 2026 10:58:26 GMT-0600 (Central Standard Time),664961.8999999762,B,wint,I,t,170,3,1265.7999999821186,663696.099999994,8051,WL,C,7.0
6,13.546000003814697,distr,46453.9999961853,Fri Jan 30 2026 10:58:26 GMT-0600 (Central Standard Time),665111.7999999821,B,winte,I,e,138,3,1415.699999988079,663696.099999994,8051,WL,C,7.0
6,13.628999948501587,distr,46371.00005149841,Fri Jan 30 2026 10:58:26 GMT-0600 (Central Standard Time),665195.1999999881,B,winter,I,r,69,3,1499.0999999940395,663696.099999994,8051,WL,C,7.0
6,13.861999988555908,distr,46138.00001144409,Fri Jan 30 2026 10:58:26 GMT-0600 (Central Standard Time),665428.599999994,B,winterenter,I,enter,225,3,1732.5,663696.099999994,8051,WL,C,7.0
6,15.811000108718872,distr,44188.99989128113,Fri Jan 30 2026 10:58:26 GMT-0600 (Central Standard Time),667377.599999994,B,enter,I,enter,1944,3,1948.800000011921,665428.7999999821,8051,WL,C,8.0
6,16.09500002861023,distr,43904.99997138977,Fri Jan 30 2026 10:58:26 GMT-0600 (Central Standard Time),667661.099999994,B,enter,I,enter,274,3,283.2000000178814,667377.8999999762,8051,WL,C,9.0
6,16.34500002861023,distr,43654.99997138977,Fri Jan 30 2026 10:58:26 GMT-0600 (Central Standard Time),667911.099999994,B,enter,I,enter,240,3,249.7000000178814,667661.3999999762,8051,WL,C,10.0
6,16.545000076293945,distr,43454.999923706055,Fri Jan 30 2026 10:58:26 GMT-0600 (Central Standard Time),668110.7999999821,B,enter,I,enter,182,3,199.40000000596046,667911.3999999762,8051,WL,C,11.0
6,16.710999965667725,distr,43289.000034332275,Fri Jan 30 2026 10:58:26 GMT-0600 (Central Standard Time),668277.5,B,enter,I,enter,157,3,166.30000001192093,668111.1999999881,8051,WL,C,12.0
6,16.89400005340576,distr,43105.99994659424,Fri Jan 30 2026 10:58:26 GMT-0600 (Central Standard Time),668460.599999994,B,enter,I,enter,166,3,182.7000000178814,668277.8999999762,8051,WL,C,13.0
6,17.044000148773193,distr,42955.99985122681,Fri Jan 30 2026 10:58:26 GMT-0600 (Central Standard Time),668610.7999999821,B,enter,I,enter,136,3,149.90000000596046,668460.8999999762,8051,WL,C,14.0
6,17.460999965667725,distr,42539.000034332275,Fri Jan 30 2026 10:58:26 GMT-0600 (Central Standard Time),669027.2999999821,B,enter,I,enter,402,3,416.09999999403954,668611.1999999881,8051,WL,C,15.0
7,6.88100004196167,immed,53118.99995803833,Fri Jan 30 2026 10:58:26 GMT-0600 (Central Standard Time),690937.0,A,c,I,c,6861,3,6880.9000000059605,684056.099999994,8051,WL,C,1.0
7,7.13100004196167,immed,52868.99995803833,Fri Jan 30 2026 10:58:26 GMT-0600 (Central Standard Time),691186.8999999762,A,co,I,o,234,3,7130.799999982119,684056.099999994,8051,WL,C,1.0
7,7.414999961853027,immed,52585.00003814697,Fri Jan 30 2026 10:58:26 GMT-0600 (Central Standard Time),691470.2999999821,A,cor,I,r,266,3,7414.199999988079,684056.099999994,8051,WL,C,1.0
7,7.581000089645386,immed,52418.999910354614,Fri Jan 30 2026 10:58:26 GMT-0600 (Central Standard Time),691636.7999999821,A,corn,I,n,151,3,7580.699999988079,684056.099999994,8051,WL,C,1.0
7,8.398000001907349,immed,51601.99999809265,Fri Jan 30 2026 10:58:26 GMT-0600 (Central Standard Time),692453.1999999881,A,cornenter,I,enter,808,3,8397.09999999404,684056.099999994,8051,WL,C,1.0
7,9.346999883651733,immed,50653.00011634827,Fri Jan 30 2026 10:58:26 GMT-0600 (Central Standard Time),693402.7999999821,A,n,I,n,942,3,949.4000000059605,692453.3999999762,8051,WL,C,2.0
7,9.496999979019165,immed,50503.000020980835,Fri Jan 30 2026 10:58:26 GMT-0600 (Central Standard Time),693552.7999999821,A,na,I,a,138,3,1099.4000000059605,692453.3999999762,8051,WL,C,2.0
7,9.69700002670288,immed,50302.99997329712,Fri Jan 30 2026 10:58:26 GMT-0600 (Central Standard Time),693752.8999999762,A,nai,I,i,179,3,1299.5,692453.3999999762,8051,WL,C,2.0
7,9.914000034332275,immed,50085.999965667725,Fri Jan 30 2026 10:58:26 GMT-0600 (Central Standard Time),693969.5,A,nail,I,l,196,3,1516.1000000238419,692453.3999999762,8051,WL,C,2.0
7,10.513999938964844,immed,49486.000061035156,Fri Jan 30 2026 10:58:26 GMT-0600 (Central Standard Time),694569.6999999881,A,nailenter,I,enter,587,3,2116.300000011921,692453.3999999762,8051,WL,C,2.0
7,11.346999883651733,immed,48653.00011634827,Fri Jan 30 2026 10:58:26 GMT-0600 (Central Standard Time),695402.099999994,A,c,I,c,827,3,832.2000000178814,694569.8999999762,8051,WL,C,3.0
7,11.562999963760376,immed,48437.000036239624,Fri Jan 30 2026 10:58:26 GMT-0600 (Central Standard Time),695619.0,A,ca,I,a,211,3,1049.1000000238419,694569.8999999762,8051,WL,C,3.0
7,11.77999997138977,immed,48220.00002861023,Fri Jan 30 2026 10:58:26 GMT-0600 (Central Standard Time),695835.5,A,cat,I,t,209,3,1265.6000000238419,694569.8999999762,8051,WL,C,3.0
7,11.94700002670288,immed,48052.99997329712,Fri Jan 30 2026 10:58:26 GMT-0600 (Central Standard Time),696002.1999999881,A,catt,I,t,153,3,1432.300000011921,694569.8999999762,8051,WL,C,3.0
7,12.095999956130981,immed,47904.00004386902,Fri Jan 30 2026 10:58:26 GMT-0600 (Central Standard Time),696151.7999999821,A,cattl,I,l,129,3,1581.9000000059605,694569.8999999762,8051,WL,C,3.0
7,12.230000019073486,immed,47769.999980926514,Fri Jan 30 2026 10:58:26 GMT-0600 (Central Standard Time),696285.2999999821,A,cattle,I,e,125,3,1715.4000000059605,694569.8999999762,8051,WL,C,3.0
7,12.657999992370605,immed,47342.000007629395,Fri Jan 30 2026 10:58:26 GMT-0600 (Central Standard Time),696713.7999999821,A,cattleenter,I,enter,423,3,2143.9000000059605,694569.8999999762,8051,WL,C,3.0
7,17.227999925613403,immed,42772.0000743866,Fri Jan 30 2026 10:58:26 GMT-0600 (Central Standard Time),701283.5,A,s,I,s,4563,3,4569.300000011921,696714.1999999881,8051,WL,C,4.0
7,17.477999925613403,immed,42522.0000743866,Fri Jan 30 2026 10:58:26 GMT-0600 (Central Standard Time),701533.599999994,A,sh,I,h,232,3,4819.4000000059605,696714.1999999881,8051,WL,C,4.0
7,17.644999980926514,immed,42355.000019073486,Fri Jan 30 2026 10:58:26 GMT-0600 (Central Standard Time),701700.2999999821,A,sho,I,o,151,3,4986.0999999940395,696714.1999999881,8051,WL,C,4.0
7,17.796000003814697,immed,42203.9999961853,Fri Jan 30 2026 10:58:26 GMT-0600 (Central Standard Time),701851.2999999821,A,shor,I,r,144,3,5137.0999999940395,696714.1999999881,8051,WL,C,4.0
7,17.878000020980835,immed,42121.999979019165,Fri Jan 30 2026 10:58:26 GMT-0600 (Central Standard Time),701933.6999999881,A,shore,I,e,65,3,5219.5,696714.1999999881,8051,WL,C,4.0
7,18.045000076293945,immed,41954.999923706055,Fri Jan 30 2026 10:58:26 GMT-0600 (Central Standard Time),702100.2999999821,A,shoreenter,I,enter,159,3,5386.0999999940395,696714.1999999881,8051,WL,C,4.0
7,18.793999910354614,immed,41206.000089645386,Fri Jan 30 2026 10:58:26 GMT-0600 (Central Standard Time),702849.8999999762,A,b,I,b,745,3,749.2999999821186,702100.599999994,8051,WL,C,5.0
7,19.027999877929688,immed,40972.00012207031,Fri Jan 30 2026 10:58:26 GMT-0600 (Central Standard Time),703083.5,A,bo,I,o,226,3,982.9000000059605,702100.599999994,8051,WL,C,5.0
7,19.89400005340576,immed,40105.99994659424,Fri Jan 30 2026 10:58:26 GMT-0600 (Central Standard Time),703949.5,A,bod,I,d,848,3,1848.9000000059605,702100.599999994,8051,WL,C,5.0
7,20.043999910354614,immed,39956.000089645386,Fri Jan 30 2026 10:58:26 GMT-0600 (Central Standard Time),704099.6999999881,A,body,I,y,135,3,1999.0999999940395,702100.599999994,8051,WL,C,5.0
7,20.39400005340576,immed,39605.99994659424,Fri Jan 30 2026 10:58:26 GMT-0600 (Central Standard Time),704449.3999999762,A,bodyenter,I,enter,337,3,2348.7999999821186,702100.599999994,8051,WL,C,5.0
7,23.4760000705719,immed,36523.9999294281,Fri Jan 30 2026 10:58:26 GMT-0600 (Central Standard Time),707531.8999999762,A,c,I,c,3075,3,3082.199999988079,704449.6999999881,8051,WL,C,6.0
7,23.776000022888184,immed,36223.99997711182,Fri Jan 30 2026 10:58:26 GMT-0600 (Central Standard Time),707831.6999999881,A,ca,I,a,280,3,3382.0,704449.6999999881,8051,WL,C,6.0
7,23.993000030517578,immed,36006.99996948242,Fri Jan 30 2026 10:58:26 GMT-0600 (Central Standard Time),708048.5,A,cam,I,m,204,3,3598.800000011921,704449.6999999881,8051,WL,C,6.0
7,24.20899987220764,immed,35791.00012779236,Fri Jan 30 2026 10:58:26 GMT-0600 (Central Standard Time),708264.7999999821,A,camp,I,p,204,3,3815.0999999940395,704449.6999999881,8051,WL,C,6.0
7,24.441999912261963,immed,35558.00008773804,Fri Jan 30 2026 10:58:26 GMT-0600 (Central Standard Time),708497.8999999762,A,campenter,I,enter,228,3,4048.199999988079,704449.6999999881,8051,WL,C,6.0
7,24.89199995994568,immed,35108.00004005432,Fri Jan 30 2026 10:58:26 GMT-0600 (Central Standard Time),708947.7999999821,A,f,I,f,435,3,449.59999999403954,708498.1999999881,8051,WL,C,7.0
7,25.05900001525879,immed,34940.99998474121,Fri Jan 30 2026 10:58:26 GMT-0600 (Central Standard Time),709114.6999999881,A,fl,I,l,161,3,616.5,708498.1999999881,8051,WL,C,7.0
7,25.175999879837036,immed,34824.000120162964,Fri Jan 30 2026 10:58:26 GMT-0600 (Central Standard Time),709231.5,A,fla,I,a,98,3,733.3000000119209,708498.1999999881,8051,WL,C,7.0
7,25.425999879837036,immed,34574.000120162964,Fri Jan 30 2026 10:58:26 GMT-0600 (Central Standard Time),709481.2999999821,A,flag,I,g,229,3,983.0999999940395,708498.1999999881,8051,WL,C,7.0
7,25.575999975204468,immed,34424.00002479553,Fri Jan 30 2026 10:58:26 GMT-0600 (Central Standard Time),709631.3999999762,A,flagenter,I,enter,131,3,1133.199999988079,708498.1999999881,8051,WL,C,7.0
7,25.9760000705719,immed,34023.9999294281,Fri Jan 30 2026 10:58:26 GMT-0600 (Central Standard Time),710031.6999999881,A,l,I,l,388,3,399.90000000596046,709631.7999999821,8051,WL,C,8.0
7,26.14199995994568,immed,33858.00004005432,Fri Jan 30 2026 10:58:26 GMT-0600 (Central Standard Time),710197.8999999762,A,le,I,e,149,3,566.0999999940395,709631.7999999821,8051,WL,C,8.0
7,26.342000007629395,immed,33657.999992370605,Fri Jan 30 2026 10:58:26 GMT-0600 (Central Standard Time),710397.8999999762,A,let,I,t,182,3,766.0999999940395,709631.7999999821,8051,WL,C,8.0
7,26.509000062942505,immed,33490.999937057495,Fri Jan 30 2026 10:58:26 GMT-0600 (Central Standard Time),710564.599999994,A,lett,I,t,151,3,932.8000000119209,709631.7999999821,8051,WL,C,8.0
7,26.674999952316284,immed,33325.000047683716,Fri Jan 30 2026 10:58:26 GMT-0600 (Central Standard Time),710730.7999999821,A,lette,I,e,152,3,1099.0,709631.7999999821,8051,WL,C,8.0
7,26.759000062942505,immed,33240.999937057495,Fri Jan 30 2026 10:58:26 GMT-0600 (Central Standard Time),710814.1999999881,A,letter,I,r,64,3,1182.4000000059605,709631.7999999821,8051,WL,C,8.0
7,26.89199995994568,immed,33108.00004005432,Fri Jan 30 2026 10:58:26 GMT-0600 (Central Standard Time),710947.3999999762,A,letterenter,I,enter,118,3,1315.5999999940395,709631.7999999821,8051,WL,C,8.0
7,28.241999864578247,immed,31758.000135421753,Fri Jan 30 2026 10:58:26 GMT-0600 (Central Standard Time),712297.1999999881,A,t,I,t,1329,3,1349.5,710947.6999999881,8051,WL,C,9.0
7,28.407999992370605,immed,31592.000007629395,Fri Jan 30 2026 10:58:26 GMT-0600 (Central Standard Time),712463.7999999821,A,to,I,o,155,3,1516.0999999940395,710947.6999999881,8051,WL,C,9.0
7,28.54099988937378,immed,31459.00011062622,Fri Jan 30 2026 10:58:26 GMT-0600 (Central Standard Time),712596.8999999762,A,tow,I,w,116,3,1649.199999988079,710947.6999999881,8051,WL,C,9.0
7,28.70799994468689,immed,31292.00005531311,Fri Jan 30 2026 10:58:26 GMT-0600 (Central Standard Time),712763.6999999881,A,towe,I,e,151,3,1816.0,710947.6999999881,8051,WL,C,9.0
7,28.907999992370605,immed,31092.000007629395,Fri Jan 30 2026 10:58:26 GMT-0600 (Central Standard Time),712963.3999999762,A,tower,I,r,193,3,2015.699999988079,710947.6999999881,8051,WL,C,9.0
7,29.058000087738037,immed,30941.999912261963,Fri Jan 30 2026 10:58:26 GMT-0600 (Central Standard Time),713113.2999999821,A,towerenter,I,enter,137,3,2165.5999999940395,710947.6999999881,8051,WL,C,9.0
7,31.256999969482422,immed,28743.000030517578,Fri Jan 30 2026 10:58:26 GMT-0600 (Central Standard Time),715312.7999999821,A,w,I,w,2179,3,2199.199999988079,713113.599999994,8051,WL,C,10.0
7,31.624000072479248,immed,28375.999927520752,Fri Jan 30 2026 10:58:26 GMT-0600 (Central Standard Time),715679.1999999881,A,wh,I,h,348,3,2565.5999999940395,713113.599999994,8051,WL,C,10.0
7,31.707000017166138,immed,28292.999982833862,Fri Jan 30 2026 10:58:26 GMT-0600 (Central Standard Time),715762.6999999881,A,whe,I,e,77,3,2649.0999999940395,713113.599999994,8051,WL,C,10.0
7,31.924000024795532,immed,28075.999975204468,Fri Jan 30 2026 10:58:26 GMT-0600 (Central Standard Time),715979.2999999821,A,wheq,I,q,202,3,2865.699999988079,713113.599999994,8051,WL,C,10.0
7,32.08999991416931,immed,27910.00008583069,Fri Jan 30 2026 10:58:26 GMT-0600 (Central Standard Time),716145.599999994,A,wheqt,I,t,160,3,3032.0,713113.599999994,8051,WL,C,10.0
7,32.83999991416931,immed,27160.00008583069,Fri Jan 30 2026 10:58:26 GMT-0600 (Central Standard Time),716895.6999999881,A,wheq,I,backspace,739,3,3782.0999999940395,713113.599999994,8051,WL,C,10.0
7,32.99000000953674,immed,27009.999990463257,Fri Jan 30 2026 10:58:26 GMT-0600 (Central Standard Time),717045.2999999821,A,whe,I,backspace,140,3,3931.699999988079,713113.599999994,8051,WL,C,10.0
7,33.139999866485596,immed,26860.000133514404,Fri Jan 30 2026 10:58:26 GMT-0600 (Central Standard Time),717195.599999994,A,whea,I,a,143,3,4082.0,713113.599999994,8051,WL,C,10.0
7,33.52300000190735,immed,26476.99999809265,Fri Jan 30 2026 10:58:26 GMT-0600 (Central Standard Time),717578.8999999762,A,wheat,I,t,369,3,4465.299999982119,713113.599999994,8051,WL,C,10.0
7,33.85699987411499,immed,26143.00012588501,Fri Jan 30 2026 10:58:26 GMT-0600 (Central Standard Time),717912.0,A,wheatenter,I,enter,312,3,4798.4000000059605,713113.599999994,8051,WL,C,10.0
7,34.24000000953674,immed,25759.999990463257,Fri Jan 30 2026 10:58:26 GMT-0600 (Central Standard Time),718295.2999999821,A,q,I,q,373,3,382.90000000596046,717912.3999999762,8051,WL,C,11.0
7,34.50600004196167,immed,25493.99995803833,Fri Jan 30 2026 10:58:26 GMT-0600 (Central Standard Time),718561.3999999762,A,qu,I,u,261,3,649.0,717912.3999999762,8051,WL,C,11.0
7,34.639999866485596,immed,25360.000133514404,Fri Jan 30 2026 10:58:26 GMT-0600 (Central Standard Time),718695.0,A,que,I,e,115,3,782.6000000238419,717912.3999999762,8051,WL,C,11.0
7,34.789000034332275,immed,25210.999965667725,Fri Jan 30 2026 10:58:26 GMT-0600 (Central Standard Time),718844.8999999762,A,quee,I,e,142,3,932.5,717912.3999999762,8051,WL,C,11.0
7,34.94000005722046,immed,25059.99994277954,Fri Jan 30 2026 10:58:26 GMT-0600 (Central Standard Time),718996.0,A,queen,I,n,144,3,1083.6000000238419,717912.3999999762,8051,WL,C,11.0
7,35.40700006484985,immed,24592.999935150146,Fri Jan 30 2026 10:58:26 GMT-0600 (Central Standard Time),719462.7999999821,A,queenenter,I,enter,447,3,1550.4000000059605,717912.3999999762,8051,WL,C,11.0
7,35.90599989891052,immed,24094.000101089478,Fri Jan 30 2026 10:58:26 GMT-0600 (Central Standard Time),719961.2999999821,A,s,I,s,478,3,498.2999999821186,719463.0,8051,WL,C,12.0
7,36.20300006866455,immed,23796.99993133545,Fri Jan 30 2026 10:58:26 GMT-0600 (Central Standard Time),720258.6999999881,A,su,I,u,292,3,795.6999999880791,719463.0,8051,WL,C,12.0
7,36.407999992370605,immed,23592.000007629395,Fri Jan 30 2026 10:58:26 GMT-0600 (Central Standard Time),720463.099999994,A,sug,I,g,184,3,1000.0999999940395,719463.0,8051,WL,C,12.0
7,36.621999979019165,immed,23378.000020980835,Fri Jan 30 2026 10:58:26 GMT-0600 (Central Standard Time),720677.8999999762,A,suga,I,a,195,3,1214.8999999761581,719463.0,8051,WL,C,12.0
7,36.73900008201599,immed,23260.99991798401,Fri Jan 30 2026 10:58:26 GMT-0600 (Central Standard Time),720794.2999999821,A,sugar,I,r,110,3,1331.2999999821186,719463.0,8051,WL,C,12.0
7,36.90599989891052,immed,23094.000101089478,Fri Jan 30 2026 10:58:26 GMT-0600 (Central Standard Time),720961.1999999881,A,sugarenter,I,enter,154,3,1498.199999988079,719463.0,8051,WL,C,12.0
7,38.08899998664856,immed,21911.00001335144,Fri Jan 30 2026 10:58:26 GMT-0600 (Central Standard Time),722144.1999999881,A,h,I,h,1171,3,1182.5999999940395,720961.599999994,8051,WL,C,13.0
7,38.371999979019165,immed,21628.000020980835,Fri Jan 30 2026 10:58:26 GMT-0600 (Central Standard Time),722427.0,A,ho,I,o,268,3,1465.4000000059605,720961.599999994,8051,WL,C,13.0
7,38.57099986076355,immed,21429.00013923645,Fri Jan 30 2026 10:58:26 GMT-0600 (Central Standard Time),722626.8999999762,A,hon,I,n,194,3,1665.2999999821186,720961.599999994,8051,WL,C,13.0
7,38.687999963760376,immed,21312.000036239624,Fri Jan 30 2026 10:58:26 GMT-0600 (Central Standard Time),722743.7999999821,A,hone,I,e,96,3,1782.199999988079,720961.599999994,8051,WL,C,13.0
