acc_sum,block_c,block_dur,condition,correct,correct_response,countdown,datetime,endtime,project,response,response_time,response_time_test1_response,response_time_test2_response,row_sel,same,session_number,start_end,starttime,stim1,stim2,subject_id,task,task_vers,time_test1,time_test2,trial
1,1,0.0,prac,1,z,30000.0,Wed Sep 24 2025 15:10:28 GMT-0500 (Central Daylight Time),45949.90000000596,I,z,1353,,,1,yes,2,2879.2000000029802,43070.70000000298,practrial1.png,practrial1.png,8056,PC,C,,,1
2,1,0.0,prac,1,m,30000.0,Wed Sep 24 2025 15:10:28 GMT-0500 (Central Daylight Time),48281.90000000596,I,m,805,,,2,no,2,2326.9000000059605,45955.0,practrial2.png,practrial2b.png,8056,PC,C,,,2
3,1,0.0,prac,1,m,30000.0,Wed Sep 24 2025 15:10:28 GMT-0500 (Central Daylight Time),51481.29999999702,I,m,1667,,,6,no,2,3195.7999999970198,48285.5,practrial6.png,practrial6b.png,8056,PC,C,,,3
4,1,0.0,prac,1,z,30000.0,Wed Sep 24 2025 15:10:28 GMT-0500 (Central Daylight Time),54264.79999999702,I,z,1276,,,5,yes,2,2779.5999999940395,51485.20000000298,practrial5.png,practrial5.png,8056,PC,C,,,4
5,1,0.0,prac,1,z,30000.0,Wed Sep 24 2025 15:10:28 GMT-0500 (Central Daylight Time),57196.10000000894,I,z,1404,,,3,yes,2,2927.6000000089407,54268.5,practrial3.png,practrial3.png,8056,PC,C,,,5
6,1,0.0,prac,1,m,30000.0,Wed Sep 24 2025 15:10:28 GMT-0500 (Central Daylight Time),59912.0,I,m,1192,,,4,no,2,2711.7999999970198,57200.20000000298,practrial4.png,practrial4b.png,8056,PC,C,,,6
1,1,1.2999999523162842,test,1,z,28700.000047683716,Wed Sep 24 2025 15:10:28 GMT-0500 (Central Daylight Time),69425.79999999702,I,z,1296,1296,,1,yes,2,1297.5999999940395,68128.20000000298,test1trial1.png,test1trial1.png,8056,PC,C,65766,,1
2,1,2.2330000400543213,test,1,m,27766.99995994568,Wed Sep 24 2025 15:10:28 GMT-0500 (Central Daylight Time),70358.60000000894,I,m,923,923,,2,no,2,929.8000000119209,69428.79999999702,test1trial2.png,test1trial2b.png,8056,PC,C,67067,,2
2,1,3.4489998817443848,test,0,z,26551.000118255615,Wed Sep 24 2025 15:10:28 GMT-0500 (Central Daylight Time),71574.90000000596,I,m,1207,1207,,3,yes,2,1213.2000000029802,70361.70000000298,test1trial3.png,test1trial3.png,8056,PC,C,67999,,3
3,1,4.431999921798706,test,1,m,25568.000078201294,Wed Sep 24 2025 15:10:28 GMT-0500 (Central Daylight Time),72558.0,I,m,974,974,,4,no,2,980.2999999970198,71577.70000000298,test1trial4.png,test1trial4b.png,8056,PC,C,69216,,4
4,1,5.615000009536743,test,1,z,24384.999990463257,Wed Sep 24 2025 15:10:28 GMT-0500 (Central Daylight Time),73740.79999999702,I,z,1168,1168,,5,yes,2,1180.2999999970198,72560.5,test1trial5.png,test1trial5.png,8056,PC,C,70198,,5
5,1,6.582000017166138,test,1,m,23417.999982833862,Wed Sep 24 2025 15:10:28 GMT-0500 (Central Daylight Time),74707.29999999702,I,m,960,960,,6,no,2,963.5,73743.79999999702,test1trial6.png,test1trial6b.png,8056,PC,C,71382,,6
6,1,7.497999906539917,test,1,z,22502.000093460083,Wed Sep 24 2025 15:10:28 GMT-0500 (Central Daylight Time),75623.70000000298,I,z,906,906,,7,yes,2,913.5,74710.20000000298,test1trial7.png,test1trial7.png,8056,PC,C,72348,,7
7,1,8.747999906539917,test,1,m,21252.000093460083,Wed Sep 24 2025 15:10:28 GMT-0500 (Central Daylight Time),76873.20000000298,I,m,1238,1238,,8,no,2,1247.0,75626.20000000298,test1trial8.png,test1trial8b.png,8056,PC,C,73264,,8
8,1,9.69700002670288,test,1,z,20302.99997329712,Wed Sep 24 2025 15:10:28 GMT-0500 (Central Daylight Time),77822.90000000596,I,z,932,932,,9,yes,2,947.0,76875.90000000596,test1trial9.png,test1trial9.png,8056,PC,C,74514,,9
9,1,10.61299991607666,test,1,m,19387.00008392334,Wed Sep 24 2025 15:10:28 GMT-0500 (Central Daylight Time),78739.0,I,m,912,912,,10,no,2,913.5,77825.5,test1trial10.png,test1trial10b.png,8056,PC,C,75463,,10
10,1,11.513000011444092,test,1,z,18486.99998855591,Wed Sep 24 2025 15:10:28 GMT-0500 (Central Daylight Time),79638.90000000596,I,z,891,891,,11,yes,2,897.2999999970198,78741.60000000894,test1trial11.png,test1trial11.png,8056,PC,C,76379,,11
11,1,12.879999876022339,test,1,m,17120.00012397766,Wed Sep 24 2025 15:10:28 GMT-0500 (Central Daylight Time),81005.40000000596,I,m,1350,1350,,12,no,2,1363.7999999970198,79641.60000000894,test1trial12.png,test1trial12b.png,8056,PC,C,77280,,12
12,1,13.978999853134155,test,1,m,16021.000146865845,Wed Sep 24 2025 15:10:28 GMT-0500 (Central Daylight Time),82105.0,I,m,1096,1096,,13,no,2,1096.8999999910593,81008.10000000894,test1trial13.png,test1trial13b.png,8056,PC,C,78646,,13
13,1,15.279000043869019,test,1,m,14720.999956130981,Wed Sep 24 2025 15:10:28 GMT-0500 (Central Daylight Time),83404.5,I,m,1284,1284,,14,no,2,1296.7000000029802,82107.79999999702,test1trial14.png,test1trial14b.png,8056,PC,C,79746,,14
14,1,16.227999925613403,test,1,z,13772.000074386597,Wed Sep 24 2025 15:10:28 GMT-0500 (Central Daylight Time),84354.0,I,z,937,937,,15,yes,2,946.7999999970198,83407.20000000298,test1trial15.png,test1trial15.png,8056,PC,C,81045,,15
15,1,17.26099991798401,test,1,m,12739.000082015991,Wed Sep 24 2025 15:10:28 GMT-0500 (Central Daylight Time),85387.0,I,m,1027,1027,,16,no,2,1030.0999999940395,84356.90000000596,test1trial16.png,test1trial16b.png,8056,PC,C,81995,,16
16,1,18.310999870300293,test,1,z,11689.000129699707,Wed Sep 24 2025 15:10:28 GMT-0500 (Central Daylight Time),86437.0,I,z,1044,1044,,17,yes,2,1047.3999999910593,85389.60000000894,test1trial17.png,test1trial17.png,8056,PC,C,83027,,17
17,1,19.710999965667725,test,1,m,10289.000034332275,Wed Sep 24 2025 15:10:28 GMT-0500 (Central Daylight Time),87836.60000000894,I,m,1394,1394,,18,no,2,1397.1000000089407,86439.5,test1trial18.png,test1trial18b.png,8056,PC,C,84077,,18
18,1,20.99399995803833,test,1,m,9006.00004196167,Wed Sep 24 2025 15:10:28 GMT-0500 (Central Daylight Time),89119.20000000298,I,m,1264,1264,,19,no,2,1280.0,87839.20000000298,test1trial19.png,test1trial19b.png,8056,PC,C,85478,,19
19,1,22.109999895095825,test,1,z,7890.000104904175,Wed Sep 24 2025 15:10:28 GMT-0500 (Central Daylight Time),90235.79999999702,I,z,1102,1102,,20,yes,2,1114.0,89121.79999999702,test1trial20.png,test1trial20.png,8056,PC,C,86760,,20
20,1,23.07699990272522,test,1,z,6923.00009727478,Wed Sep 24 2025 15:10:28 GMT-0500 (Central Daylight Time),91202.20000000298,I,z,946,946,,21,yes,2,963.2999999970198,90238.90000000596,test1trial21.png,test1trial21.png,8056,PC,C,87876,,21
21,1,24.175999879837036,test,1,z,5824.000120162964,Wed Sep 24 2025 15:10:28 GMT-0500 (Central Daylight Time),92301.79999999702,I,z,1084,1084,,22,yes,2,1097.199999988079,91204.60000000894,test1trial22.png,test1trial22.png,8056,PC,C,88842,,22
22,1,25.075999975204468,test,1,z,4924.000024795532,Wed Sep 24 2025 15:10:28 GMT-0500 (Central Daylight Time),93201.29999999702,I,z,879,879,,23,yes,2,896.0,92305.29999999702,test1trial23.png,test1trial23.png,8056,PC,C,89943,,23
23,1,25.991999864578247,test,1,z,4008.000135421753,Wed Sep 24 2025 15:10:28 GMT-0500 (Central Daylight Time),94117.90000000596,I,z,909,909,,24,yes,2,914.1000000089407,93203.79999999702,test1trial24.png,test1trial24.png,8056,PC,C,90841,,24
24,1,26.991999864578247,test,1,m,3008.000135421753,Wed Sep 24 2025 15:10:28 GMT-0500 (Central Daylight Time),95117.5,I,m,984,984,,25,no,2,996.7999999970198,94120.70000000298,test1trial25.png,test1trial25b.png,8056,PC,C,91758,,25
25,1,28.04099988937378,test,1,m,1959.0001106262207,Wed Sep 24 2025 15:10:28 GMT-0500 (Central Daylight Time),96167.0,I,m,1031,1031,,26,no,2,1046.7000000029802,95120.29999999702,test1trial26.png,test1trial26b.png,8056,PC,C,92758,,26
26,1,29.325000047683716,test,1,m,674.9999523162842,Wed Sep 24 2025 15:10:28 GMT-0500 (Central Daylight Time),97450.10000000894,I,m,1263,1263,,27,no,2,1280.6000000089407,96169.5,practrial6.png,practrial6b.png,8056,PC,C,93808,,27
26,1,30.007999897003174,test,0,z,-7.999897003173828,Wed Sep 24 2025 15:10:28 GMT-0500 (Central Daylight Time),98133.20000000298,I,None,680,680,,28,yes,2,680.4000000059605,97452.79999999702,practrial1.png,practrial1.png,8056,PC,C,95090,,28
1,2,0.999000072479248,test,1,m,29000.999927520752,Wed Sep 24 2025 15:10:28 GMT-0500 (Central Daylight Time),101748.90000000596,I,m,993,,993.0,1,no,2,4296.100000008941,97452.79999999702,test2trial1.png,test2trial1b.png,8056,PC,C,,98389.0,1
2,2,2.133000135421753,test,1,m,27866.999864578247,Wed Sep 24 2025 15:10:28 GMT-0500 (Central Daylight Time),102882.79999999702,I,m,1128,,1128.0,2,no,2,5430.0,97452.79999999702,test2trial2.png,test2trial2b.png,8056,PC,C,,99390.0,2
3,2,3.365000009536743,test,1,z,26634.999990463257,Wed Sep 24 2025 15:10:28 GMT-0500 (Central Daylight Time),104114.29999999702,I,z,1227,,1227.0,3,yes,2,6661.5,97452.79999999702,test2trial3.png,test2trial3.png,8056,PC,C,,100523.0,3
4,2,4.215000152587891,test,1,z,25784.99984741211,Wed Sep 24 2025 15:10:28 GMT-0500 (Central Daylight Time),104964.60000000894,I,z,843,,843.0,4,yes,2,7511.800000011921,97452.79999999702,test2trial4.png,test2trial4.png,8056,PC,C,,101755.0,4
5,2,5.54800009727478,test,1,z,24451.99990272522,Wed Sep 24 2025 15:10:28 GMT-0500 (Central Daylight Time),106297.40000000596,I,z,1322,,1322.0,5,yes,2,8844.60000000894,97452.79999999702,test2trial5.png,test2trial5.png,8056,PC,C,,102605.0,5
6,2,6.697000026702881,test,1,z,23302.99997329712,Wed Sep 24 2025 15:10:28 GMT-0500 (Central Daylight Time),107447.10000000894,I,z,1141,,1141.0,6,yes,2,9994.300000011921,97452.79999999702,test2trial6.png,test2trial6.png,8056,PC,C,,103938.0,6
7,2,7.69100022315979,test,1,m,22308.99977684021,Wed Sep 24 2025 15:10:28 GMT-0500 (Central Daylight Time),108440.20000000298,I,m,990,,990.0,7,no,2,10987.40000000596,97452.79999999702,test2trial7.png,test2trial7b.png,8056,PC,C,,105087.0,7
8,2,8.897000074386597,test,1,m,21102.999925613403,Wed Sep 24 2025 15:10:28 GMT-0500 (Central Daylight Time),109646.20000000298,I,m,1198,,1198.0,8,no,2,12193.40000000596,97452.79999999702,test2trial8.png,test2trial8b.png,8056,PC,C,,106081.0,8
9,2,10.563000202178955,test,1,z,19436.999797821045,Wed Sep 24 2025 15:10:28 GMT-0500 (Central Daylight Time),111313.0,I,z,1664,,1664.0,9,yes,2,13860.20000000298,97452.79999999702,test2trial9.png,test2trial9.png,8056,PC,C,,107286.0,9
10,2,11.578999996185303,test,1,z,18421.000003814697,Wed Sep 24 2025 15:10:28 GMT-0500 (Central Daylight Time),112328.60000000894,I,z,1005,,1005.0,10,yes,2,14875.800000011921,97452.79999999702,test2trial10.png,test2trial10.png,8056,PC,C,,108953.0,10
11,2,12.695000171661377,test,1,m,17304.999828338623,Wed Sep 24 2025 15:10:28 GMT-0500 (Central Daylight Time),113444.79999999702,I,m,1101,,1101.0,11,no,2,15992.0,97452.79999999702,test2trial11.png,test2trial11b.png,8056,PC,C,,109969.0,11
12,2,13.979000091552734,test,1,m,16020.999908447266,Wed Sep 24 2025 15:10:28 GMT-0500 (Central Daylight Time),114728.5,I,m,1265,,1265.0,12,no,2,17275.70000000298,97452.79999999702,test2trial12.png,test2trial12b.png,8056,PC,C,,111085.0,12
13,2,14.99400019645691,test,1,z,15005.99980354309,Wed Sep 24 2025 15:10:28 GMT-0500 (Central Daylight Time),115744.40000000596,I,z,997,,997.0,13,yes,2,18291.60000000894,97452.79999999702,test2trial13.png,test2trial13.png,8056,PC,C,,112369.0,13
14,2,16.128000020980835,test,1,m,13871.999979019165,Wed Sep 24 2025 15:10:28 GMT-0500 (Central Daylight Time),116877.5,I,m,1125,,1125.0,14,no,2,19424.70000000298,97452.79999999702,test2trial14.png,test2trial14b.png,8056,PC,C,,113385.0,14
15,2,17.093000173568726,test,1,m,12906.999826431274,Wed Sep 24 2025 15:10:28 GMT-0500 (Central Daylight Time),117843.29999999702,I,m,960,,960.0,15,no,2,20390.5,97452.79999999702,test2trial15.png,test2trial15b.png,8056,PC,C,,114518.0,15
16,2,18.611000061035156,test,1,m,11388.999938964844,Wed Sep 24 2025 15:10:28 GMT-0500 (Central Daylight Time),119361.10000000894,I,m,1514,,1514.0,16,no,2,21908.30000001192,97452.79999999702,test2trial16.png,test2trial16b.png,8056,PC,C,,115484.0,16
17,2,19.659000158309937,test,1,z,10340.999841690063,Wed Sep 24 2025 15:10:28 GMT-0500 (Central Daylight Time),120409.40000000596,I,z,1045,,1045.0,17,yes,2,22956.60000000894,97452.79999999702,test2trial17.png,test2trial17.png,8056,PC,C,,117001.0,17
18,2,20.576000213623047,test,1,z,9423.999786376953,Wed Sep 24 2025 15:10:28 GMT-0500 (Central Daylight Time),121325.90000000596,I,z,900,,900.0,18,yes,2,23873.10000000894,97452.79999999702,test2trial18.png,test2trial18.png,8056,PC,C,,118050.0,18
19,2,21.842000007629395,test,1,z,8157.9999923706055,Wed Sep 24 2025 15:10:28 GMT-0500 (Central Daylight Time),122592.0,I,z,1256,,1256.0,19,yes,2,25139.20000000298,97452.79999999702,test2trial19.png,test2trial19.png,8056,PC,C,,118966.0,19
20,2,22.80900001525879,test,1,z,7190.999984741211,Wed Sep 24 2025 15:10:28 GMT-0500 (Central Daylight Time),123558.60000000894,I,z,958,,958.0,20,yes,2,26105.80000001192,97452.79999999702,test2trial20.png,test2trial20.png,8056,PC,C,,120232.0,20
21,2,24.308000087738037,test,1,z,5691.999912261963,Wed Sep 24 2025 15:10:28 GMT-0500 (Central Daylight Time),125058.10000000894,I,z,1487,,1487.0,21,yes,2,27605.30000001192,97452.79999999702,test2trial21.png,test2trial21.png,8056,PC,C,,121199.0,21
22,2,25.874000072479248,test,1,m,4125.999927520752,Wed Sep 24 2025 15:10:28 GMT-0500 (Central Daylight Time),126624.20000000298,I,m,1547,,1547.0,22,no,2,29171.40000000596,97452.79999999702,test2trial22.png,test2trial22b.png,8056,PC,C,,122699.0,22
23,2,27.79100012779236,test,1,m,2208.9998722076416,Wed Sep 24 2025 15:10:28 GMT-0500 (Central Daylight Time),128540.5,I,m,1902,,1902.0,23,no,2,31087.70000000298,97452.79999999702,test2trial23.png,test2trial23b.png,8056,PC,C,,124264.0,23
24,2,28.890000104904175,test,1,m,1109.9998950958252,Wed Sep 24 2025 15:10:28 GMT-0500 (Central Daylight Time),129640.0,I,m,1080,,1080.0,24,no,2,32187.20000000298,97452.79999999702,test2trial24.png,test2trial24b.png,8056,PC,C,,126181.0,24
24,2,30.00600004196167,test,0,z,-6.000041961669922,Wed Sep 24 2025 15:10:28 GMT-0500 (Central Daylight Time),130755.90000000596,I,None,1113,,1113.0,25,yes,2,33303.10000000894,97452.79999999702,test2trial25.png,test2trial25.png,8056,PC,C,,127280.0,25
