acc_sum,block,block_c,change,condition,correct,correct_response,datetime,endtime,face,project,response,response_time,row_sel,session_number,start_end,starttime,subject_id,task,task_vers,trial
0,prac,1,,1-Back,,,Thu Jun 04 2026 13:15:26 GMT-0500 (Central Daylight Time),,012_o_f_d_a.png,O,space,2880,1,1,,,7752,VNB,C,0
1,prac,1,0.0,1-Back,1.0,m,Thu Jun 04 2026 13:15:26 GMT-0500 (Central Daylight Time),202334.0,022_y_f_n_a.png,O,m,1697,2,1,2542.100000023842,199791.89999997616,7752,VNB,C,1
2,prac,1,0.0,1-Back,1.0,m,Thu Jun 04 2026 13:15:26 GMT-0500 (Central Daylight Time),204867.0,014_m_m_h_a.png,O,m,1655,3,1,2520.800000011921,202346.19999998808,7752,VNB,C,2
2,prac,1,0.0,1-Back,0.0,m,Thu Jun 04 2026 13:15:26 GMT-0500 (Central Daylight Time),207248.39999997616,025_y_m_d_a.png,O,z,1523,4,1,2374.399999976158,204874.0,7752,VNB,C,3
2,prac,1,0.0,1-Back,0.0,m,Thu Jun 04 2026 13:15:26 GMT-0500 (Central Daylight Time),210114.30000001192,012_o_f_n_a.png,O,None,2008,5,1,2860.300000011921,207254.0,7752,VNB,C,4
2,prac,1,1.0,1-Back,0.0,z,Thu Jun 04 2026 13:15:26 GMT-0500 (Central Daylight Time),212961.30000001192,025_y_m_n_a.png,O,None,2003,6,1,2841.600000023842,210119.69999998808,7752,VNB,C,5
3,prac,1,0.0,1-Back,1.0,m,Thu Jun 04 2026 13:15:26 GMT-0500 (Central Daylight Time),215445.60000002384,015_o_m_h_a.png,O,m,1599,7,1,2478.0,212967.60000002384,7752,VNB,C,6
4,prac,1,0.0,1-Back,1.0,m,Thu Jun 04 2026 13:15:26 GMT-0500 (Central Daylight Time),217812.89999997616,019_m_f_d_a.png,O,m,1510,8,1,2361.2999999523163,215451.60000002384,7752,VNB,C,7
5,prac,1,1.0,1-Back,1.0,z,Thu Jun 04 2026 13:15:26 GMT-0500 (Central Daylight Time),220045.0,022_y_f_d_a.png,O,z,1357,9,1,2226.600000023842,217818.39999997616,7752,VNB,C,8
5,prac,1,0.0,1-Back,0.0,m,Thu Jun 04 2026 13:15:26 GMT-0500 (Central Daylight Time),222893.80000001192,014_m_m_n_a.png,O,None,2006,10,1,2842.600000023842,220051.19999998808,7752,VNB,C,9
5,prac,1,0.0,1-Back,0.0,m,Thu Jun 04 2026 13:15:26 GMT-0500 (Central Daylight Time),225759.60000002384,012_o_f_h_a.png,O,None,2001,11,1,2852.5,222907.10000002384,7752,VNB,C,10
6,prac,1,0.0,1-Back,1.0,m,Thu Jun 04 2026 13:15:26 GMT-0500 (Central Daylight Time),227624.10000002384,025_y_m_d_a.png,O,m,1018,12,1,1859.9000000357628,225764.19999998808,7752,VNB,C,11
0,test,1,0.0,1-Back,,,Thu Jun 04 2026 13:15:26 GMT-0500 (Central Daylight Time),227624.10000002384,022_y_f_d_a.png,O,space,4817,1,1,1859.9000000357628,225764.19999998808,7752,VNB,C,0
1,test,1,0.0,1-Back,1.0,m,Thu Jun 04 2026 13:15:26 GMT-0500 (Central Daylight Time),248068.39999997616,019_m_f_n_a.png,O,m,1774,2,1,2795.2999999523163,245273.10000002384,7752,VNB,C,1
2,test,1,0.0,1-Back,1.0,m,Thu Jun 04 2026 13:15:26 GMT-0500 (Central Daylight Time),250550.5,015_o_m_h_a.png,O,m,1463,3,1,2478.600000023842,248071.89999997616,7752,VNB,C,2
3,test,1,1.0,1-Back,1.0,z,Thu Jun 04 2026 13:15:26 GMT-0500 (Central Daylight Time),252715.80000001192,014_m_m_h_a.png,O,z,1140,4,1,2159.800000011921,250556.0,7752,VNB,C,3
4,test,1,0.0,1-Back,1.0,m,Thu Jun 04 2026 13:15:26 GMT-0500 (Central Daylight Time),255249.5,012_o_f_n_a.png,O,m,1503,5,1,2531.199999988079,252718.30000001192,7752,VNB,C,4
5,test,1,0.0,1-Back,1.0,m,Thu Jun 04 2026 13:15:26 GMT-0500 (Central Daylight Time),258198.5,025_y_m_d_a.png,O,m,1916,6,1,2944.899999976158,255253.60000002384,7752,VNB,C,5
6,test,1,1.0,1-Back,1.0,z,Thu Jun 04 2026 13:15:26 GMT-0500 (Central Daylight Time),260381.60000002384,019_m_f_d_a.png,O,z,1152,7,1,2180.400000035763,258201.19999998808,7752,VNB,C,6
7,test,1,0.0,1-Back,1.0,m,Thu Jun 04 2026 13:15:26 GMT-0500 (Central Daylight Time),262863.1999999881,022_y_f_h_a.png,O,m,1462,8,1,2476.699999988079,260386.5,7752,VNB,C,7
8,test,1,0.0,1-Back,1.0,m,Thu Jun 04 2026 13:15:26 GMT-0500 (Central Daylight Time),265396.8000000119,015_o_m_n_a.png,O,m,1499,9,1,2529.100000023842,262867.6999999881,7752,VNB,C,8
9,test,1,0.0,1-Back,1.0,m,Thu Jun 04 2026 13:15:26 GMT-0500 (Central Daylight Time),267712.10000002384,025_y_m_h_a.png,O,m,1294,10,1,2311.900000035763,265400.1999999881,7752,VNB,C,9
10,test,1,0.0,1-Back,1.0,m,Thu Jun 04 2026 13:15:26 GMT-0500 (Central Daylight Time),270176.39999997616,015_o_m_d_a.png,O,m,1443,11,1,2461.5,267714.89999997616,7752,VNB,C,10
11,test,1,1.0,1-Back,1.0,z,Thu Jun 04 2026 13:15:26 GMT-0500 (Central Daylight Time),272309.8000000119,012_o_f_d_a.png,O,z,1113,12,1,2131.5,270178.3000000119,7752,VNB,C,11
12,test,1,0.0,1-Back,1.0,m,Thu Jun 04 2026 13:15:26 GMT-0500 (Central Daylight Time),274992.3000000119,014_m_m_n_a.png,O,m,1654,13,1,2678.699999988079,272313.60000002384,7752,VNB,C,12
13,test,1,1.0,1-Back,1.0,z,Thu Jun 04 2026 13:15:26 GMT-0500 (Central Daylight Time),277192.5,022_y_f_n_a.png,O,z,1181,14,1,2196.199999988079,274996.3000000119,7752,VNB,C,13
14,test,1,0.0,1-Back,1.0,m,Thu Jun 04 2026 13:15:26 GMT-0500 (Central Daylight Time),280025.1999999881,019_m_f_h_a.png,O,m,1801,15,1,2829.5,277195.6999999881,7752,VNB,C,14
15,test,1,0.0,1-Back,1.0,m,Thu Jun 04 2026 13:15:26 GMT-0500 (Central Daylight Time),282507.60000002384,014_m_m_d_a.png,O,m,1458,16,1,2479.7000000476837,280027.89999997616,7752,VNB,C,15
16,test,1,0.0,1-Back,1.0,m,Thu Jun 04 2026 13:15:26 GMT-0500 (Central Daylight Time),285524.6999999881,025_y_m_n_a.png,O,m,1983,17,1,3014.099999964237,282510.60000002384,7752,VNB,C,16
17,test,1,0.0,1-Back,1.0,m,Thu Jun 04 2026 13:15:26 GMT-0500 (Central Daylight Time),287689.6999999881,012_o_f_h_a.png,O,m,1136,18,1,2162.5,285527.1999999881,7752,VNB,C,17
0,test,2,0.0,1-Back,,,Thu Jun 04 2026 13:15:26 GMT-0500 (Central Daylight Time),287689.6999999881,025_y_m_n_a.png,O,space,1970,1,1,2162.5,285527.1999999881,7752,VNB,C,0
1,test,2,0.0,1-Back,1.0,m,Thu Jun 04 2026 13:15:26 GMT-0500 (Central Daylight Time),293903.3000000119,022_y_f_h_a.png,O,m,1198,2,1,2212.400000035763,291690.89999997616,7752,VNB,C,1
2,test,2,1.0,1-Back,1.0,m,Thu Jun 04 2026 13:15:26 GMT-0500 (Central Daylight Time),295985.1999999881,015_o_m_n_a.png,O,m,1052,3,1,2078.399999976158,293906.8000000119,7752,VNB,C,2
3,test,2,0.0,1-Back,1.0,m,Thu Jun 04 2026 13:15:26 GMT-0500 (Central Daylight Time),298518.6999999881,019_m_f_d_a.png,O,m,1502,4,1,2530.599999964237,295988.10000002384,7752,VNB,C,3
4,test,2,0.0,1-Back,1.0,z,Thu Jun 04 2026 13:15:26 GMT-0500 (Central Daylight Time),300750.6999999881,014_m_m_d_a.png,O,z,1211,5,1,2228.899999976158,298521.8000000119,7752,VNB,C,4
5,test,2,0.0,1-Back,1.0,m,Thu Jun 04 2026 13:15:26 GMT-0500 (Central Daylight Time),302833.8000000119,025_y_m_h_a.png,O,m,1060,6,1,2080.900000035763,300752.89999997616,7752,VNB,C,5
6,test,2,1.0,1-Back,1.0,z,Thu Jun 04 2026 13:15:26 GMT-0500 (Central Daylight Time),304966.89999997616,012_o_f_h_a.png,O,z,1115,7,1,2129.699999988079,302837.1999999881,7752,VNB,C,6
7,test,2,0.0,1-Back,1.0,m,Thu Jun 04 2026 13:15:26 GMT-0500 (Central Daylight Time),307249.10000002384,019_m_f_n_a.png,O,m,1253,8,1,2279.2000000476837,304969.89999997616,7752,VNB,C,7
8,test,2,0.0,1-Back,1.0,m,Thu Jun 04 2026 13:15:26 GMT-0500 (Central Daylight Time),310183.0,022_y_f_d_a.png,O,m,1900,9,1,2930.5,307252.5,7752,VNB,C,8
9,test,2,0.0,1-Back,1.0,m,Thu Jun 04 2026 13:15:26 GMT-0500 (Central Daylight Time),312615.5,014_m_m_n_a.png,O,m,1406,10,1,2428.899999976158,310186.60000002384,7752,VNB,C,9
10,test,2,1.0,1-Back,1.0,m,Thu Jun 04 2026 13:15:26 GMT-0500 (Central Daylight Time),314731.8000000119,019_m_f_h_a.png,O,m,1085,11,1,2113.5,312618.3000000119,7752,VNB,C,10
11,test,2,0.0,1-Back,1.0,z,Thu Jun 04 2026 13:15:26 GMT-0500 (Central Daylight Time),316878.10000002384,015_o_m_h_a.png,O,z,1115,12,1,2144.100000023842,314734.0,7752,VNB,C,11
12,test,2,0.0,1-Back,1.0,m,Thu Jun 04 2026 13:15:26 GMT-0500 (Central Daylight Time),318862.39999997616,025_y_m_d_a.png,O,m,950,13,1,1982.199999988079,316880.1999999881,7752,VNB,C,12
12,test,2,0.0,1-Back,0.0,m,Thu Jun 04 2026 13:15:26 GMT-0500 (Central Daylight Time),321879.39999997616,012_o_f_n_a.png,O,None,2001,14,1,3014.7999999523163,318864.60000002384,7752,VNB,C,13
13,test,2,0.0,1-Back,1.0,z,Thu Jun 04 2026 13:15:26 GMT-0500 (Central Daylight Time),324095.60000002384,022_y_f_n_a.png,O,z,1186,15,1,2212.0,321883.60000002384,7752,VNB,C,14
14,test,2,1.0,1-Back,1.0,m,Thu Jun 04 2026 13:15:26 GMT-0500 (Central Daylight Time),326061.0,014_m_m_h_a.png,O,m,934,16,1,1962.0,324099.0,7752,VNB,C,15
15,test,2,0.0,1-Back,1.0,m,Thu Jun 04 2026 13:15:26 GMT-0500 (Central Daylight Time),328359.8000000119,012_o_f_d_a.png,O,m,1279,17,1,2295.300000011921,326064.5,7752,VNB,C,16
16,test,2,1.0,1-Back,1.0,z,Thu Jun 04 2026 13:15:26 GMT-0500 (Central Daylight Time),330607.1999999881,015_o_m_d_a.png,O,z,1228,18,1,2245.399999976158,328361.8000000119,7752,VNB,C,17
0,test,3,1.0,1-Back,,,Thu Jun 04 2026 13:15:26 GMT-0500 (Central Daylight Time),330607.1999999881,012_o_f_h_a.png,O,space,1462,1,1,2245.399999976158,328361.8000000119,7752,VNB,C,0
1,test,3,0.0,1-Back,1.0,m,Thu Jun 04 2026 13:15:26 GMT-0500 (Central Daylight Time),336358.6999999881,019_m_f_d_a.png,O,m,1158,2,1,2176.300000011921,334182.39999997616,7752,VNB,C,1
2,test,3,1.0,1-Back,1.0,m,Thu Jun 04 2026 13:15:26 GMT-0500 (Central Daylight Time),338789.39999997616,014_m_m_n_a.png,O,m,1408,3,1,2428.7999999523163,336360.60000002384,7752,VNB,C,2
3,test,3,0.0,1-Back,1.0,z,Thu Jun 04 2026 13:15:26 GMT-0500 (Central Daylight Time),340921.5,012_o_f_n_a.png,O,z,1110,4,1,2129.199999988079,338792.3000000119,7752,VNB,C,3
4,test,3,1.0,1-Back,1.0,m,Thu Jun 04 2026 13:15:26 GMT-0500 (Central Daylight Time),343004.0,015_o_m_d_a.png,O,m,1051,5,1,2075.800000011921,340928.1999999881,7752,VNB,C,4
5,test,3,0.0,1-Back,1.0,m,Thu Jun 04 2026 13:15:26 GMT-0500 (Central Daylight Time),345104.0,022_y_f_h_a.png,O,m,1079,6,1,2092.699999988079,343011.3000000119,7752,VNB,C,5
6,test,3,0.0,1-Back,1.0,z,Thu Jun 04 2026 13:15:26 GMT-0500 (Central Daylight Time),347054.10000002384,025_y_m_h_a.png,O,z,924,7,1,1946.9000000357628,345107.1999999881,7752,VNB,C,6
7,test,3,0.0,1-Back,1.0,m,Thu Jun 04 2026 13:15:26 GMT-0500 (Central Daylight Time),349168.89999997616,019_m_f_n_a.png,O,m,1085,8,1,2110.0,347058.89999997616,7752,VNB,C,7
8,test,3,0.0,1-Back,1.0,m,Thu Jun 04 2026 13:15:26 GMT-0500 (Central Daylight Time),351268.8000000119,022_y_f_d_a.png,O,m,1069,9,1,2094.5,349174.3000000119,7752,VNB,C,8
9,test,3,1.0,1-Back,1.0,m,Thu Jun 04 2026 13:15:26 GMT-0500 (Central Daylight Time),353533.1999999881,015_o_m_n_a.png,O,m,1247,10,1,2259.0,351274.1999999881,7752,VNB,C,9
10,test,3,0.0,1-Back,1.0,m,Thu Jun 04 2026 13:15:26 GMT-0500 (Central Daylight Time),355850.8000000119,014_m_m_h_a.png,O,m,1285,11,1,2315.300000011921,353535.5,7752,VNB,C,10
11,test,3,0.0,1-Back,1.0,z,Thu Jun 04 2026 13:15:26 GMT-0500 (Central Daylight Time),357933.39999997616,019_m_f_h_a.png,O,z,1052,12,1,2079.699999988079,355853.6999999881,7752,VNB,C,11
12,test,3,1.0,1-Back,1.0,m,Thu Jun 04 2026 13:15:26 GMT-0500 (Central Daylight Time),359965.5,012_o_f_d_a.png,O,m,1002,13,1,2029.3999999761581,357936.10000002384,7752,VNB,C,12
13,test,3,0.0,1-Back,1.0,z,Thu Jun 04 2026 13:15:26 GMT-0500 (Central Daylight Time),362781.39999997616,014_m_m_d_a.png,O,z,1791,14,1,2812.199999988079,359969.1999999881,7752,VNB,C,13
13,test,3,0.0,1-Back,0.0,m,Thu Jun 04 2026 13:15:26 GMT-0500 (Central Daylight Time),365814.0,025_y_m_n_a.png,O,None,2016,15,1,3029.699999988079,362784.3000000119,7752,VNB,C,14
14,test,3,1.0,1-Back,1.0,m,Thu Jun 04 2026 13:15:26 GMT-0500 (Central Daylight Time),367929.39999997616,015_o_m_h_a.png,O,m,1085,16,1,2109.899999976158,365819.5,7752,VNB,C,15
15,test,3,0.0,1-Back,1.0,m,Thu Jun 04 2026 13:15:26 GMT-0500 (Central Daylight Time),370079.1999999881,025_y_m_d_a.png,O,m,1121,17,1,2145.099999964237,367934.10000002384,7752,VNB,C,16
16,test,3,1.0,1-Back,1.0,m,Thu Jun 04 2026 13:15:26 GMT-0500 (Central Daylight Time),372028.89999997616,022_y_f_n_a.png,O,m,925,18,1,1946.8999999761581,370082.0,7752,VNB,C,17
0,test,4,1.0,1-Back,,,Thu Jun 04 2026 13:15:26 GMT-0500 (Central Daylight Time),372028.89999997616,014_m_m_d_a.png,O,space,1359,1,1,1946.8999999761581,370082.0,7752,VNB,C,0
1,test,4,0.0,1-Back,1.0,z,Thu Jun 04 2026 13:15:26 GMT-0500 (Central Daylight Time),378009.89999997616,015_o_m_d_a.png,O,z,1569,2,1,2595.2999999523163,375414.60000002384,7752,VNB,C,1
2,test,4,0.0,1-Back,1.0,m,Thu Jun 04 2026 13:15:26 GMT-0500 (Central Daylight Time),380059.0,025_y_m_h_a.png,O,m,1025,3,1,2046.300000011921,378012.6999999881,7752,VNB,C,2
3,test,4,0.0,1-Back,1.0,m,Thu Jun 04 2026 13:15:26 GMT-0500 (Central Daylight Time),381941.3000000119,019_m_f_n_a.png,O,m,856,4,1,1879.5,380061.8000000119,7752,VNB,C,3
4,test,4,1.0,1-Back,1.0,m,Thu Jun 04 2026 13:15:26 GMT-0500 (Central Daylight Time),384224.6999999881,012_o_f_h_a.png,O,m,1255,5,1,2280.699999988079,381944.0,7752,VNB,C,4
5,test,4,0.0,1-Back,1.0,m,Thu Jun 04 2026 13:15:26 GMT-0500 (Central Daylight Time),386307.1999999881,014_m_m_n_a.png,O,m,1058,6,1,2079.699999988079,384227.5,7752,VNB,C,5
6,test,4,0.0,1-Back,1.0,m,Thu Jun 04 2026 13:15:26 GMT-0500 (Central Daylight Time),388223.6999999881,025_y_m_d_a.png,O,m,889,7,1,1914.0999999642372,386309.60000002384,7752,VNB,C,6
6,test,4,1.0,1-Back,0.0,z,Thu Jun 04 2026 13:15:26 GMT-0500 (Central Daylight Time),390590.8000000119,022_y_f_d_a.png,O,m,1339,8,1,2364.400000035763,388226.39999997616,7752,VNB,C,7
7,test,4,0.0,1-Back,1.0,m,Thu Jun 04 2026 13:15:26 GMT-0500 (Central Daylight Time),392705.3000000119,019_m_f_h_a.png,O,m,1092,9,1,2106.300000011921,390599.0,7752,VNB,C,8
8,test,4,0.0,1-Back,1.0,z,Thu Jun 04 2026 13:15:26 GMT-0500 (Central Daylight Time),394354.10000002384,015_o_m_h_a.png,O,z,619,10,1,1643.1000000238419,392711.0,7752,VNB,C,9
9,test,4,1.0,1-Back,1.0,m,Thu Jun 04 2026 13:15:26 GMT-0500 (Central Daylight Time),396687.10000002384,012_o_f_n_a.png,O,m,1312,11,1,2330.100000023842,394357.0,7752,VNB,C,10
10,test,4,0.0,1-Back,1.0,m,Thu Jun 04 2026 13:15:26 GMT-0500 (Central Daylight Time),399202.39999997616,019_m_f_d_a.png,O,m,1491,12,1,2512.099999964237,396690.3000000119,7752,VNB,C,11
11,test,4,0.0,1-Back,1.0,m,Thu Jun 04 2026 13:15:26 GMT-0500 (Central Daylight Time),401436.3000000119,022_y_f_n_a.png,O,m,1202,13,1,2232.0,399204.3000000119,7752,VNB,C,12
12,test,4,0.0,1-Back,1.0,m,Thu Jun 04 2026 13:15:26 GMT-0500 (Central Daylight Time),403634.8000000119,012_o_f_d_a.png,O,m,1166,14,1,2189.5,401445.3000000119,7752,VNB,C,13
13,test,4,0.0,1-Back,1.0,m,Thu Jun 04 2026 13:15:26 GMT-0500 (Central Daylight Time),405652.89999997616,022_y_f_h_a.png,O,m,993,15,1,2016.2999999523163,403636.60000002384,7752,VNB,C,14
14,test,4,1.0,1-Back,1.0,z,Thu Jun 04 2026 13:15:26 GMT-0500 (Central Daylight Time),407666.39999997616,014_m_m_h_a.png,O,z,995,16,1,2011.5999999642372,405654.8000000119,7752,VNB,C,15
15,test,4,0.0,1-Back,1.0,m,Thu Jun 04 2026 13:15:26 GMT-0500 (Central Daylight Time),409632.5,015_o_m_n_a.png,O,m,936,17,1,1964.0,407668.5,7752,VNB,C,16
16,test,4,1.0,1-Back,1.0,z,Thu Jun 04 2026 13:15:26 GMT-0500 (Central Daylight Time),411684.0,025_y_m_n_a.png,O,z,1034,18,1,2047.1000000238419,409636.89999997616,7752,VNB,C,17
0,test,5,1.0,1-Back,,,Thu Jun 04 2026 13:15:26 GMT-0500 (Central Daylight Time),411684.0,015_o_m_n_a.png,O,space,1472,1,1,2047.1000000238419,409636.89999997616,7752,VNB,C,0
1,test,5,1.0,1-Back,1.0,m,Thu Jun 04 2026 13:15:26 GMT-0500 (Central Daylight Time),417148.10000002384,012_o_f_h_a.png,O,m,933,2,1,1962.300000011921,415185.8000000119,7752,VNB,C,1
2,test,5,0.0,1-Back,1.0,m,Thu Jun 04 2026 13:15:26 GMT-0500 (Central Daylight Time),419247.1999999881,025_y_m_d_a.png,O,m,1066,3,1,2096.099999964237,417151.10000002384,7752,VNB,C,2
3,test,5,0.0,1-Back,1.0,z,Thu Jun 04 2026 13:15:26 GMT-0500 (Central Daylight Time),421397.3000000119,015_o_m_d_a.png,O,z,1114,4,1,2148.199999988079,419249.10000002384,7752,VNB,C,3
4,test,5,0.0,1-Back,1.0,m,Thu Jun 04 2026 13:15:26 GMT-0500 (Central Daylight Time),423413.39999997616,019_m_f_h_a.png,O,m,991,5,1,2012.0,421401.39999997616,7752,VNB,C,4
5,test,5,0.0,1-Back,1.0,m,Thu Jun 04 2026 13:15:26 GMT-0500 (Central Daylight Time),425377.89999997616,022_y_f_n_a.png,O,m,942,6,1,1956.2999999523163,423421.60000002384,7752,VNB,C,5
6,test,5,1.0,1-Back,1.0,z,Thu Jun 04 2026 13:15:26 GMT-0500 (Central Daylight Time),427596.5,012_o_f_n_a.png,O,z,1183,7,1,2215.399999976158,425381.10000002384,7752,VNB,C,6
7,test,5,0.0,1-Back,1.0,m,Thu Jun 04 2026 13:15:26 GMT-0500 (Central Daylight Time),429827.89999997616,019_m_f_d_a.png,O,m,1200,8,1,2227.899999976158,427600.0,7752,VNB,C,7
8,test,5,0.0,1-Back,1.0,m,Thu Jun 04 2026 13:15:26 GMT-0500 (Central Daylight Time),431709.10000002384,025_y_m_h_a.png,O,m,848,9,1,1878.4000000357628,429830.6999999881,7752,VNB,C,8
9,test,5,0.0,1-Back,1.0,m,Thu Jun 04 2026 13:15:26 GMT-0500 (Central Daylight Time),433658.89999997616,022_y_f_d_a.png,O,m,926,10,1,1948.0,431710.89999997616,7752,VNB,C,9
10,test,5,0.0,1-Back,1.0,m,Thu Jun 04 2026 13:15:26 GMT-0500 (Central Daylight Time),436258.1999999881,014_m_m_n_a.png,O,m,1576,11,1,2597.399999976158,433660.8000000119,7752,VNB,C,10
11,test,5,1.0,1-Back,1.0,z,Thu Jun 04 2026 13:15:26 GMT-0500 (Central Daylight Time),438241.89999997616,019_m_f_n_a.png,O,z,961,12,1,1980.699999988079,436261.1999999881,7752,VNB,C,11
12,test,5,0.0,1-Back,1.0,m,Thu Jun 04 2026 13:15:26 GMT-0500 (Central Daylight Time),440056.8000000119,015_o_m_h_a.png,O,m,786,13,1,1812.0,438244.8000000119,7752,VNB,C,12
13,test,5,0.0,1-Back,1.0,z,Thu Jun 04 2026 13:15:26 GMT-0500 (Central Daylight Time),441973.5,014_m_m_h_a.png,O,z,890,14,1,1914.199999988079,440059.3000000119,7752,VNB,C,13
14,test,5,1.0,1-Back,1.0,m,Thu Jun 04 2026 13:15:26 GMT-0500 (Central Daylight Time),443772.6999999881,012_o_f_d_a.png,O,m,773,15,1,1796.5999999642372,441976.10000002384,7752,VNB,C,14
15,test,5,0.0,1-Back,1.0,m,Thu Jun 04 2026 13:15:26 GMT-0500 (Central Daylight Time),445937.8000000119,025_y_m_n_a.png,O,m,1135,16,1,2162.0,443775.8000000119,7752,VNB,C,15
16,test,5,0.0,1-Back,1.0,m,Thu Jun 04 2026 13:15:26 GMT-0500 (Central Daylight Time),447887.8000000119,022_y_f_h_a.png,O,m,930,17,1,1948.300000011921,445939.5,7752,VNB,C,16
17,test,5,0.0,1-Back,1.0,m,Thu Jun 04 2026 13:15:26 GMT-0500 (Central Daylight Time),450453.89999997616,014_m_m_d_a.png,O,m,1539,18,1,2562.5,447891.39999997616,7752,VNB,C,17
0,prac,1,0.0,2-Back,,,Thu Jun 04 2026 13:15:26 GMT-0500 (Central Daylight Time),450453.89999997616,019_m_f_n_a.png,O,space,3082,1,1,2562.5,447891.39999997616,7752,VNB,C,0
0,prac,1,0.0,2-Back,,,Thu Jun 04 2026 13:15:26 GMT-0500 (Central Daylight Time),450453.89999997616,012_o_f_h_a.png,O,space,3082,2,1,2562.5,447891.39999997616,7752,VNB,C,0
1,prac,1,0.0,2-Back,1.0,m,Thu Jun 04 2026 13:15:26 GMT-0500 (Central Daylight Time),550505.8999999762,015_o_m_d_a.png,O,m,1806,3,1,2676.599999964237,547829.3000000119,7752,VNB,C,1
1,prac,1,1.0,2-Back,0.0,z,Thu Jun 04 2026 13:15:26 GMT-0500 (Central Daylight Time),553373.1000000238,014_m_m_h_a.png,O,None,2018,4,1,2860.0,550513.1000000238,7752,VNB,C,2
1,prac,1,0.0,2-Back,0.0,m,Thu Jun 04 2026 13:15:26 GMT-0500 (Central Daylight Time),556237.5,022_y_f_n_a.png,O,None,2004,5,1,2859.199999988079,553378.3000000119,7752,VNB,C,3
2,prac,1,1.0,2-Back,1.0,z,Thu Jun 04 2026 13:15:26 GMT-0500 (Central Daylight Time),558453.3000000119,015_o_m_h_a.png,O,z,1436,6,1,2202.800000011921,556250.5,7752,VNB,C,4
2,prac,1,1.0,2-Back,0.0,z,Thu Jun 04 2026 13:15:26 GMT-0500 (Central Daylight Time),561301.6000000238,025_y_m_n_a.png,O,None,2011,7,1,2845.600000023842,558456.0,7752,VNB,C,5
2,prac,1,0.0,2-Back,0.0,m,Thu Jun 04 2026 13:15:26 GMT-0500 (Central Daylight Time),564167.1999999881,019_m_f_d_a.png,O,None,2006,8,1,2861.899999976158,561305.3000000119,7752,VNB,C,6
2,prac,1,0.0,2-Back,0.0,m,Thu Jun 04 2026 13:15:26 GMT-0500 (Central Daylight Time),567032.3000000119,012_o_f_d_a.png,O,None,2009,9,1,2858.800000011921,564173.5,7752,VNB,C,7
3,prac,1,0.0,2-Back,1.0,m,Thu Jun 04 2026 13:15:26 GMT-0500 (Central Daylight Time),568667.3999999762,014_m_m_h_a.png,O,m,869,10,1,1629.8999999761581,567037.5,7752,VNB,C,8
3,prac,1,1.0,2-Back,0.0,z,Thu Jun 04 2026 13:15:26 GMT-0500 (Central Daylight Time),571547.3999999762,022_y_f_d_a.png,O,None,2013,11,1,2875.599999964237,568671.8000000119,7752,VNB,C,9
4,prac,1,0.0,2-Back,1.0,m,Thu Jun 04 2026 13:15:26 GMT-0500 (Central Daylight Time),573416.6000000238,015_o_m_n_a.png,O,m,1016,12,1,1862.300000011921,571554.3000000119,7752,VNB,C,10
0,test,1,0.0,2-Back,,,Thu Jun 04 2026 13:15:26 GMT-0500 (Central Daylight Time),573416.6000000238,025_y_m_h_a.png,O,space,1937,1,1,1862.300000011921,571554.3000000119,7752,VNB,C,0
0,test,1,0.0,2-Back,,,Thu Jun 04 2026 13:15:26 GMT-0500 (Central Daylight Time),573416.6000000238,012_o_f_n_a.png,O,space,1937,2,1,1862.300000011921,571554.3000000119,7752,VNB,C,0
1,test,1,0.0,2-Back,1.0,z,Thu Jun 04 2026 13:15:26 GMT-0500 (Central Daylight Time),600789.3000000119,015_o_m_h_a.png,O,z,1199,3,1,2229.400000035763,598559.8999999762,7752,VNB,C,1
1,test,1,0.0,2-Back,0.0,m,Thu Jun 04 2026 13:15:26 GMT-0500 (Central Daylight Time),603822.6999999881,019_m_f_d_a.png,O,None,2017,4,1,3030.5,600792.1999999881,7752,VNB,C,2
1,test,1,1.0,2-Back,0.0,m,Thu Jun 04 2026 13:15:26 GMT-0500 (Central Daylight Time),606853.5,025_y_m_n_a.png,O,None,2014,5,1,3028.0,603825.5,7752,VNB,C,3
1,test,1,0.0,2-Back,0.0,z,Thu Jun 04 2026 13:15:26 GMT-0500 (Central Daylight Time),609402.3000000119,022_y_f_d_a.png,O,m,1517,6,1,2538.400000035763,606863.8999999762,7752,VNB,C,4
1,test,1,0.0,2-Back,0.0,m,Thu Jun 04 2026 13:15:26 GMT-0500 (Central Daylight Time),612036.3000000119,014_m_m_h_a.png,O,z,1602,7,1,2629.300000011921,609407.0,7752,VNB,C,5
2,test,1,1.0,2-Back,1.0,m,Thu Jun 04 2026 13:15:26 GMT-0500 (Central Daylight Time),614417.6999999881,022_y_f_n_a.png,O,m,1359,8,1,2375.5,612042.1999999881,7752,VNB,C,6
3,test,1,0.0,2-Back,1.0,z,Thu Jun 04 2026 13:15:26 GMT-0500 (Central Daylight Time),616467.8000000119,012_o_f_h_a.png,O,z,1017,9,1,2046.5,614421.3000000119,7752,VNB,C,7
3,test,1,0.0,2-Back,0.0,m,Thu Jun 04 2026 13:15:26 GMT-0500 (Central Daylight Time),619500.6999999881,015_o_m_d_a.png,O,None,2016,10,1,3028.800000011921,616471.8999999762,7752,VNB,C,8
3,test,1,1.0,2-Back,0.0,m,Thu Jun 04 2026 13:15:26 GMT-0500 (Central Daylight Time),622531.5,014_m_m_d_a.png,O,None,2014,11,1,3027.300000011921,619504.1999999881,7752,VNB,C,9
3,test,1,0.0,2-Back,0.0,m,Thu Jun 04 2026 13:15:26 GMT-0500 (Central Daylight Time),625564.8000000119,019_m_f_n_a.png,O,None,2016,12,1,3030.0,622534.8000000119,7752,VNB,C,10
3,test,1,0.0,2-Back,0.0,m,Thu Jun 04 2026 13:15:26 GMT-0500 (Central Daylight Time),628014.5,022_y_f_h_a.png,O,z,1423,13,1,2447.899999976158,625566.6000000238,7752,VNB,C,11
3,test,1,0.0,2-Back,0.0,z,Thu Jun 04 2026 13:15:26 GMT-0500 (Central Daylight Time),630462.5,014_m_m_n_a.png,O,m,1422,14,1,2445.0,628017.5,7752,VNB,C,12
3,test,1,0.0,2-Back,0.0,m,Thu Jun 04 2026 13:15:26 GMT-0500 (Central Daylight Time),633494.8000000119,025_y_m_d_a.png,O,None,2016,15,1,3028.800000011921,630466.0,7752,VNB,C,13
3,test,1,1.0,2-Back,0.0,m,Thu Jun 04 2026 13:15:26 GMT-0500 (Central Daylight Time),635844.3999999762,019_m_f_h_a.png,O,z,1325,16,1,2336.7999999523163,633507.6000000238,7752,VNB,C,14
3,test,1,0.0,2-Back,0.0,z,Thu Jun 04 2026 13:15:26 GMT-0500 (Central Daylight Time),638294.3999999762,012_o_f_d_a.png,O,m,1416,17,1,2447.5,635846.8999999762,7752,VNB,C,15
3,test,1,0.0,2-Back,0.0,m,Thu Jun 04 2026 13:15:26 GMT-0500 (Central Daylight Time),641325.8999999762,015_o_m_n_a.png,O,None,2015,18,1,3027.899999976158,638298.0,7752,VNB,C,16
0,test,2,0.0,2-Back,,,Thu Jun 04 2026 13:15:26 GMT-0500 (Central Daylight Time),641325.8999999762,014_m_m_h_a.png,O,space,2893,1,1,3027.899999976158,638298.0,7752,VNB,C,0
0,test,2,0.0,2-Back,,,Thu Jun 04 2026 13:15:26 GMT-0500 (Central Daylight Time),641325.8999999762,022_y_f_n_a.png,O,space,2893,2,1,3027.899999976158,638298.0,7752,VNB,C,0
1,test,2,1.0,2-Back,1.0,z,Thu Jun 04 2026 13:15:26 GMT-0500 (Central Daylight Time),651208.1000000238,012_o_f_h_a.png,O,z,752,3,1,1780.5,649427.6000000238,7752,VNB,C,1
1,test,2,0.0,2-Back,0.0,m,Thu Jun 04 2026 13:15:26 GMT-0500 (Central Daylight Time),654237.6000000238,015_o_m_d_a.png,O,None,2015,4,1,3026.5,651211.1000000238,7752,VNB,C,2
1,test,2,0.0,2-Back,0.0,m,Thu Jun 04 2026 13:15:26 GMT-0500 (Central Daylight Time),657272.5,019_m_f_d_a.png,O,None,2015,5,1,3030.399999976158,654242.1000000238,7752,VNB,C,3
1,test,2,0.0,2-Back,0.0,m,Thu Jun 04 2026 13:15:26 GMT-0500 (Central Daylight Time),660136.8999999762,025_y_m_h_a.png,O,z,1846,6,1,2860.5,657276.3999999762,7752,VNB,C,4
2,test,2,0.0,2-Back,1.0,m,Thu Jun 04 2026 13:15:26 GMT-0500 (Central Daylight Time),662302.5,012_o_f_n_a.png,O,m,1139,7,1,2163.5,660139.0,7752,VNB,C,5
3,test,2,1.0,2-Back,1.0,z,Thu Jun 04 2026 13:15:26 GMT-0500 (Central Daylight Time),664968.3000000119,015_o_m_h_a.png,O,z,1644,8,1,2663.800000011921,662304.5,7752,VNB,C,6
3,test,2,0.0,2-Back,0.0,m,Thu Jun 04 2026 13:15:26 GMT-0500 (Central Daylight Time),668000.5,022_y_f_d_a.png,O,None,2014,9,1,3029.100000023842,664971.3999999762,7752,VNB,C,7
4,test,2,0.0,2-Back,1.0,m,Thu Jun 04 2026 13:15:26 GMT-0500 (Central Daylight Time),669983.3999999762,025_y_m_d_a.png,O,m,961,10,1,1978.0999999642372,668005.3000000119,7752,VNB,C,8
4,test,2,0.0,2-Back,0.0,m,Thu Jun 04 2026 13:15:26 GMT-0500 (Central Daylight Time),672632.1999999881,014_m_m_n_a.png,O,z,1628,11,1,2645.099999964237,669987.1000000238,7752,VNB,C,9
4,test,2,0.0,2-Back,0.0,m,Thu Jun 04 2026 13:15:26 GMT-0500 (Central Daylight Time),675167.0,019_m_f_h_a.png,O,z,1509,12,1,2531.800000011921,672635.1999999881,7752,VNB,C,10
4,test,2,1.0,2-Back,0.0,z,Thu Jun 04 2026 13:15:26 GMT-0500 (Central Daylight Time),677381.8999999762,015_o_m_n_a.png,O,m,1182,13,1,2212.0,675169.8999999762,7752,VNB,C,11
4,test,2,0.0,2-Back,0.0,m,Thu Jun 04 2026 13:15:26 GMT-0500 (Central Daylight Time),680398.8000000119,012_o_f_d_a.png,O,None,2001,14,1,3013.800000011921,677385.0,7752,VNB,C,12
4,test,2,0.0,2-Back,0.0,m,Thu Jun 04 2026 13:15:26 GMT-0500 (Central Daylight Time),682712.3999999762,022_y_f_h_a.png,O,z,1287,15,1,2310.899999976158,680401.5,7752,VNB,C,13
4,test,2,0.0,2-Back,0.0,z,Thu Jun 04 2026 13:15:26 GMT-0500 (Central Daylight Time),685744.5,014_m_m_d_a.png,O,None,2014,16,1,3030.0,682714.5,7752,VNB,C,14
4,test,2,0.0,2-Back,0.0,m,Thu Jun 04 2026 13:15:26 GMT-0500 (Central Daylight Time),687894.0,025_y_m_n_a.png,O,z,1124,17,1,2147.300000011921,685746.6999999881,7752,VNB,C,15
4,test,2,1.0,2-Back,0.0,m,Thu Jun 04 2026 13:15:26 GMT-0500 (Central Daylight Time),690062.1000000238,019_m_f_n_a.png,O,z,1141,18,1,2165.2000000476837,687896.8999999762,7752,VNB,C,16
0,test,3,1.0,2-Back,,,Thu Jun 04 2026 13:15:26 GMT-0500 (Central Daylight Time),690062.1000000238,015_o_m_n_a.png,O,space,3157,1,1,2165.2000000476837,687896.8999999762,7752,VNB,C,0
0,test,3,1.0,2-Back,,,Thu Jun 04 2026 13:15:26 GMT-0500 (Central Daylight Time),690062.1000000238,012_o_f_d_a.png,O,space,3157,2,1,2165.2000000476837,687896.8999999762,7752,VNB,C,0
1,test,3,0.0,2-Back,1.0,m,Thu Jun 04 2026 13:15:26 GMT-0500 (Central Daylight Time),701089.6999999881,022_y_f_h_a.png,O,m,1792,3,1,2813.300000011921,698276.3999999762,7752,VNB,C,1
2,test,3,0.0,2-Back,1.0,z,Thu Jun 04 2026 13:15:26 GMT-0500 (Central Daylight Time),703522.6999999881,019_m_f_d_a.png,O,z,1410,4,1,2428.5,701094.1999999881,7752,VNB,C,2
3,test,3,1.0,2-Back,1.0,m,Thu Jun 04 2026 13:15:26 GMT-0500 (Central Daylight Time),706137.1999999881,025_y_m_n_a.png,O,m,1591,5,1,2609.099999964237,703528.1000000238,7752,VNB,C,3
3,test,3,0.0,2-Back,0.0,m,Thu Jun 04 2026 13:15:26 GMT-0500 (Central Daylight Time),708170.1999999881,015_o_m_h_a.png,O,z,1001,6,1,2030.0999999642372,706140.1000000238,7752,VNB,C,4
4,test,3,0.0,2-Back,1.0,z,Thu Jun 04 2026 13:15:26 GMT-0500 (Central Daylight Time),710936.8999999762,022_y_f_n_a.png,O,z,1737,7,1,2765.0,708171.8999999762,7752,VNB,C,5
5,test,3,1.0,2-Back,1.0,m,Thu Jun 04 2026 13:15:26 GMT-0500 (Central Daylight Time),713435.3000000119,014_m_m_d_a.png,O,m,1475,8,1,2492.100000023842,710943.1999999881,7752,VNB,C,6
5,test,3,0.0,2-Back,0.0,m,Thu Jun 04 2026 13:15:26 GMT-0500 (Central Daylight Time),715801.6999999881,025_y_m_d_a.png,O,z,1344,9,1,2362.599999964237,713439.1000000238,7752,VNB,C,7
5,test,3,0.0,2-Back,0.0,m,Thu Jun 04 2026 13:15:26 GMT-0500 (Central Daylight Time),718284.3999999762,012_o_f_h_a.png,O,z,1451,10,1,2479.699999988079,715804.6999999881,7752,VNB,C,8
6,test,3,1.0,2-Back,1.0,m,Thu Jun 04 2026 13:15:26 GMT-0500 (Central Daylight Time),721033.3999999762,019_m_f_n_a.png,O,m,1727,11,1,2743.399999976158,718290.0,7752,VNB,C,9
7,test,3,1.0,2-Back,1.0,z,Thu Jun 04 2026 13:15:26 GMT-0500 (Central Daylight Time),723398.6000000238,014_m_m_h_a.png,O,z,1337,12,1,2360.2000000476837,721038.3999999762,7752,VNB,C,10
7,test,3,0.0,2-Back,0.0,m,Thu Jun 04 2026 13:15:26 GMT-0500 (Central Daylight Time),726417.0,022_y_f_d_a.png,O,None,2001,13,1,3015.699999988079,723401.3000000119,7752,VNB,C,11
7,test,3,0.0,2-Back,0.0,m,Thu Jun 04 2026 13:15:26 GMT-0500 (Central Daylight Time),728797.3999999762,012_o_f_n_a.png,O,z,1356,14,1,2374.7999999523163,726422.6000000238,7752,VNB,C,12
7,test,3,0.0,2-Back,0.0,z,Thu Jun 04 2026 13:15:26 GMT-0500 (Central Daylight Time),731231.1000000238,015_o_m_d_a.png,O,m,1414,15,1,2427.0,728804.1000000238,7752,VNB,C,13
8,test,3,1.0,2-Back,1.0,m,Thu Jun 04 2026 13:15:26 GMT-0500 (Central Daylight Time),733030.5,019_m_f_h_a.png,O,m,783,16,1,1796.5,731234.0,7752,VNB,C,14
8,test,3,0.0,2-Back,0.0,m,Thu Jun 04 2026 13:15:26 GMT-0500 (Central Daylight Time),735245.3999999762,014_m_m_n_a.png,O,z,1187,17,1,2211.899999976158,733033.5,7752,VNB,C,15
8,test,3,0.0,2-Back,0.0,z,Thu Jun 04 2026 13:15:26 GMT-0500 (Central Daylight Time),738279.5,025_y_m_h_a.png,O,None,2016,18,1,3031.0,735248.5,7752,VNB,C,16
0,test,4,0.0,2-Back,,,Thu Jun 04 2026 13:15:26 GMT-0500 (Central Daylight Time),738279.5,019_m_f_n_a.png,O,space,1950,1,1,3031.0,735248.5,7752,VNB,C,0
0,test,4,0.0,2-Back,,,Thu Jun 04 2026 13:15:26 GMT-0500 (Central Daylight Time),738279.5,015_o_m_n_a.png,O,space,1950,2,1,3031.0,735248.5,7752,VNB,C,0
0,test,4,1.0,2-Back,0.0,m,Thu Jun 04 2026 13:15:26 GMT-0500 (Central Daylight Time),748490.1000000238,025_y_m_h_a.png,O,None,2015,3,1,3029.800000011921,745460.3000000119,7752,VNB,C,1
0,test,4,1.0,2-Back,0.0,m,Thu Jun 04 2026 13:15:26 GMT-0500 (Central Daylight Time),751523.8999999762,012_o_f_d_a.png,O,None,2016,4,1,3025.399999976158,748498.5,7752,VNB,C,2
1,test,4,0.0,2-Back,1.0,z,Thu Jun 04 2026 13:15:26 GMT-0500 (Central Daylight Time),753889.3000000119,015_o_m_h_a.png,O,z,1344,5,1,2360.699999988079,751528.6000000238,7752,VNB,C,3
2,test,4,0.0,2-Back,1.0,m,Thu Jun 04 2026 13:15:26 GMT-0500 (Central Daylight Time),755822.3999999762,014_m_m_n_a.png,O,m,905,6,1,1929.3999999761581,753893.0,7752,VNB,C,4
2,test,4,0.0,2-Back,0.0,m,Thu Jun 04 2026 13:15:26 GMT-0500 (Central Daylight Time),758338.5,019_m_f_d_a.png,O,z,1484,7,1,2512.100000023842,755826.3999999762,7752,VNB,C,5
2,test,4,0.0,2-Back,0.0,z,Thu Jun 04 2026 13:15:26 GMT-0500 (Central Daylight Time),760887.5,022_y_f_n_a.png,O,m,1520,8,1,2545.100000023842,758342.3999999762,7752,VNB,C,6
2,test,4,1.0,2-Back,0.0,m,Thu Jun 04 2026 13:15:26 GMT-0500 (Central Daylight Time),763187.1000000238,012_o_f_h_a.png,O,z,1275,9,1,2296.300000011921,760890.8000000119,7752,VNB,C,7
2,test,4,0.0,2-Back,0.0,m,Thu Jun 04 2026 13:15:26 GMT-0500 (Central Daylight Time),765253.1999999881,014_m_m_h_a.png,O,z,1039,10,1,2063.0,763190.1999999881,7752,VNB,C,8
2,test,4,0.0,2-Back,0.0,m,Thu Jun 04 2026 13:15:26 GMT-0500 (Central Daylight Time),768286.1000000238,022_y_f_d_a.png,O,None,2016,11,1,3030.100000023842,765256.0,7752,VNB,C,9
2,test,4,0.0,2-Back,0.0,m,Thu Jun 04 2026 13:15:26 GMT-0500 (Central Daylight Time),771319.8000000119,025_y_m_n_a.png,O,None,2016,12,1,3030.5,768289.3000000119,7752,VNB,C,10
2,test,4,0.0,2-Back,0.0,z,Thu Jun 04 2026 13:15:26 GMT-0500 (Central Daylight Time),774350.8999999762,015_o_m_d_a.png,O,None,2016,13,1,3028.399999976158,771322.5,7752,VNB,C,11
2,test,4,1.0,2-Back,0.0,m,Thu Jun 04 2026 13:15:26 GMT-0500 (Central Daylight Time),776781.8999999762,019_m_f_h_a.png,O,z,1406,14,1,2422.599999964237,774359.3000000119,7752,VNB,C,12
2,test,4,1.0,2-Back,0.0,m,Thu Jun 04 2026 13:15:26 GMT-0500 (Central Daylight Time),778865.3000000119,022_y_f_h_a.png,O,z,1061,15,1,2079.5,776785.8000000119,7752,VNB,C,13
3,test,4,0.0,2-Back,1.0,m,Thu Jun 04 2026 13:15:26 GMT-0500 (Central Daylight Time),781465.8000000119,012_o_f_n_a.png,O,m,1569,16,1,2597.900000035763,778867.8999999762,7752,VNB,C,14
3,test,4,0.0,2-Back,0.0,m,Thu Jun 04 2026 13:15:26 GMT-0500 (Central Daylight Time),784496.1999999881,025_y_m_d_a.png,O,None,2014,17,1,3025.899999976158,781470.3000000119,7752,VNB,C,15
4,test,4,1.0,2-Back,1.0,m,Thu Jun 04 2026 13:15:26 GMT-0500 (Central Daylight Time),786447.3999999762,014_m_m_d_a.png,O,m,933,18,1,1948.199999988079,784499.1999999881,7752,VNB,C,16
0,test,5,1.0,2-Back,,,Thu Jun 04 2026 13:15:26 GMT-0500 (Central Daylight Time),786447.3999999762,022_y_f_d_a.png,O,space,1693,1,1,1948.199999988079,784499.1999999881,7752,VNB,C,0
0,test,5,1.0,2-Back,,,Thu Jun 04 2026 13:15:26 GMT-0500 (Central Daylight Time),786447.3999999762,012_o_f_h_a.png,O,space,1693,2,1,1948.199999988079,784499.1999999881,7752,VNB,C,0
1,test,5,1.0,2-Back,1.0,z,Thu Jun 04 2026 13:15:26 GMT-0500 (Central Daylight Time),795877.6000000238,015_o_m_d_a.png,O,z,1489,3,1,2509.100000023842,793368.5,7752,VNB,C,1
2,test,5,1.0,2-Back,1.0,m,Thu Jun 04 2026 13:15:26 GMT-0500 (Central Daylight Time),798392.5,019_m_f_n_a.png,O,m,1488,4,1,2512.199999988079,795880.3000000119,7752,VNB,C,2
2,test,5,0.0,2-Back,0.0,m,Thu Jun 04 2026 13:15:26 GMT-0500 (Central Daylight Time),801424.3999999762,014_m_m_h_a.png,O,None,2015,5,1,3029.0,798395.3999999762,7752,VNB,C,3
3,test,5,0.0,2-Back,1.0,z,Thu Jun 04 2026 13:15:26 GMT-0500 (Central Daylight Time),804191.5,022_y_f_n_a.png,O,z,1734,6,1,2765.300000011921,801426.1999999881,7752,VNB,C,4
3,test,5,0.0,2-Back,0.0,m,Thu Jun 04 2026 13:15:26 GMT-0500 (Central Daylight Time),807141.1999999881,012_o_f_d_a.png,O,z,1918,7,1,2947.199999988079,804194.0,7752,VNB,C,5
3,test,5,0.0,2-Back,0.0,m,Thu Jun 04 2026 13:15:26 GMT-0500 (Central Daylight Time),809488.3999999762,015_o_m_h_a.png,O,z,1329,8,1,2343.699999988079,807144.6999999881,7752,VNB,C,6
3,test,5,1.0,2-Back,0.0,z,Thu Jun 04 2026 13:15:26 GMT-0500 (Central Daylight Time),811706.3000000119,019_m_f_d_a.png,O,m,1184,9,1,2215.699999988079,809490.6000000238,7752,VNB,C,7
3,test,5,0.0,2-Back,0.0,m,Thu Jun 04 2026 13:15:26 GMT-0500 (Central Daylight Time),814735.5,025_y_m_n_a.png,O,None,2015,10,1,3026.699999988079,811708.8000000119,7752,VNB,C,8
3,test,5,0.0,2-Back,0.0,m,Thu Jun 04 2026 13:15:26 GMT-0500 (Central Daylight Time),817118.1000000238,014_m_m_n_a.png,O,z,1362,11,1,2378.600000023842,814739.5,7752,VNB,C,9
4,test,5,0.0,2-Back,1.0,m,Thu Jun 04 2026 13:15:26 GMT-0500 (Central Daylight Time),819901.8999999762,022_y_f_h_a.png,O,m,1755,12,1,2781.399999976158,817120.5,7752,VNB,C,10
5,test,5,0.0,2-Back,1.0,m,Thu Jun 04 2026 13:15:26 GMT-0500 (Central Daylight Time),822850.5,025_y_m_d_a.png,O,m,1918,13,1,2946.899999976158,819903.6000000238,7752,VNB,C,11
6,test,5,1.0,2-Back,1.0,z,Thu Jun 04 2026 13:15:26 GMT-0500 (Central Daylight Time),824900.1999999881,019_m_f_h_a.png,O,z,1018,14,1,2046.0,822854.1999999881,7752,VNB,C,12
6,test,5,0.0,2-Back,0.0,m,Thu Jun 04 2026 13:15:26 GMT-0500 (Central Daylight Time),827932.8000000119,015_o_m_n_a.png,O,None,2016,15,1,3028.800000011921,824904.0,7752,VNB,C,13
6,test,5,0.0,2-Back,0.0,m,Thu Jun 04 2026 13:15:26 GMT-0500 (Central Daylight Time),830964.8999999762,014_m_m_d_a.png,O,None,2015,16,1,3025.5,827939.3999999762,7752,VNB,C,14
6,test,5,0.0,2-Back,0.0,z,Thu Jun 04 2026 13:15:26 GMT-0500 (Central Daylight Time),833998.1999999881,012_o_f_n_a.png,O,None,2016,17,1,3029.399999976158,830968.8000000119,7752,VNB,C,15
6,test,5,1.0,2-Back,0.0,m,Thu Jun 04 2026 13:15:26 GMT-0500 (Central Daylight Time),835813.3999999762,025_y_m_h_a.png,O,z,790,18,1,1811.0,834002.3999999762,7752,VNB,C,16
