Number,acc_sum,block,block_c,block_cond,con_img,correct,correct_response,datetime,endtime,jitter,project,response,response_time,row_sel,session_number,start_end,starttime,subject_id,task,task_vers,trial
2,0,prac,1,A,circle.png,0,z,Mon Nov 24 2025 15:13:02 GMT-0600 (Central Standard Time),108772.39999997616,2000,O,None,1503,2,1,4276.0,104496.39999997616,7709,NTS,B,1
3,1,prac,1,A,circle.png,1,z,Mon Nov 24 2025 15:13:02 GMT-0600 (Central Standard Time),111569.89999997616,1200,O,z,809,3,1,2790.2999999821186,108779.59999999404,7709,NTS,B,2
1,2,prac,1,A,circle.png,1,z,Mon Nov 24 2025 15:13:02 GMT-0600 (Central Standard Time),114254.5,1000,O,z,908,1,1,2674.4000000059605,111580.09999999404,7709,NTS,B,3
3,3,prac,1,A,circle.png,1,z,Mon Nov 24 2025 15:13:02 GMT-0600 (Central Standard Time),116821.09999999404,1200,O,z,576,3,1,2558.2000000178814,114262.89999997616,7709,NTS,B,4
7,4,prac,1,A,circle.png,1,m,Mon Nov 24 2025 15:13:02 GMT-0600 (Central Standard Time),119870.19999998808,1700,O,m,580,6,1,3042.800000011921,116827.39999997616,7709,NTS,B,5
2,5,prac,1,A,circle.png,1,z,Mon Nov 24 2025 15:13:02 GMT-0600 (Central Standard Time),123200.69999998808,2000,O,z,537,2,1,3324.300000011921,119876.39999997616,7709,NTS,B,6
4,6,prac,1,A,circle.png,1,z,Mon Nov 24 2025 15:13:02 GMT-0600 (Central Standard Time),125984.79999998212,1400,O,z,604,4,1,2779.0999999940395,123205.69999998808,7709,NTS,B,7
4,7,prac,1,A,circle.png,1,z,Mon Nov 24 2025 15:13:02 GMT-0600 (Central Standard Time),128883.5,1400,O,z,701,4,1,2893.4000000059605,125990.09999999404,7709,NTS,B,8
9,8,prac,1,A,circle.png,1,m,Mon Nov 24 2025 15:13:02 GMT-0600 (Central Standard Time),131766.09999999404,1500,O,m,590,8,1,2876.7000000178814,128889.39999997616,7709,NTS,B,9
6,9,prac,1,A,circle.png,1,m,Mon Nov 24 2025 15:13:02 GMT-0600 (Central Standard Time),135497.29999998212,1900,O,m,1036,5,1,3724.699999988079,131772.59999999404,7709,NTS,B,10
1,10,prac,1,A,circle.png,1,z,Mon Nov 24 2025 15:13:02 GMT-0600 (Central Standard Time),137963.59999999404,1000,O,z,668,1,1,2458.4000000059605,135505.19999998808,7709,NTS,B,11
8,11,prac,1,A,circle.png,1,m,Mon Nov 24 2025 15:13:02 GMT-0600 (Central Standard Time),140962.09999999404,1600,O,m,603,7,1,2990.7000000178814,137971.39999997616,7709,NTS,B,12
1,0,prac,1,B,triangle.png,0,z,Mon Nov 24 2025 15:13:02 GMT-0600 (Central Standard Time),182482.19999998808,1900,O,None,1513,1,1,4176.699999988079,178305.5,7709,NTS,B,1
3,1,prac,1,B,triangle.png,1,z,Mon Nov 24 2025 15:13:02 GMT-0600 (Central Standard Time),184964.79999998212,1600,O,z,92,3,1,2476.4000000059605,182488.39999997616,7709,NTS,B,2
9,2,prac,1,B,triangle.png,1,z,Mon Nov 24 2025 15:13:02 GMT-0600 (Central Standard Time),187914.39999997616,1400,O,z,762,8,1,2942.0,184972.39999997616,7709,NTS,B,3
3,3,prac,1,B,triangle.png,1,z,Mon Nov 24 2025 15:13:02 GMT-0600 (Central Standard Time),190846.69999998808,1600,O,z,541,3,1,2923.4000000059605,187923.29999998212,7709,NTS,B,4
7,4,prac,1,B,triangle.png,1,z,Mon Nov 24 2025 15:13:02 GMT-0600 (Central Standard Time),194479.19999998808,2000,O,z,841,6,1,3626.0999999940395,190853.09999999404,7709,NTS,B,5
8,5,prac,1,B,triangle.png,1,m,Mon Nov 24 2025 15:13:02 GMT-0600 (Central Standard Time),196878.0,1200,O,m,400,7,1,2392.600000023842,194485.39999997616,7709,NTS,B,6
1,6,prac,1,B,triangle.png,1,z,Mon Nov 24 2025 15:13:02 GMT-0600 (Central Standard Time),200144.19999998808,1900,O,z,575,1,1,3260.0,196884.19999998808,7709,NTS,B,7
2,7,prac,1,B,triangle.png,1,m,Mon Nov 24 2025 15:13:02 GMT-0600 (Central Standard Time),203809.89999997616,1700,O,m,1171,2,1,3659.199999988079,200150.69999998808,7709,NTS,B,8
8,8,prac,1,B,triangle.png,1,m,Mon Nov 24 2025 15:13:02 GMT-0600 (Central Standard Time),206375.59999999404,1200,O,m,590,7,1,2559.0999999940395,203816.5,7709,NTS,B,9
4,9,prac,1,B,triangle.png,1,m,Mon Nov 24 2025 15:13:02 GMT-0600 (Central Standard Time),209275.09999999404,1500,O,m,628,4,1,2892.5999999940395,206382.5,7709,NTS,B,10
6,10,prac,1,B,triangle.png,1,m,Mon Nov 24 2025 15:13:02 GMT-0600 (Central Standard Time),211789.39999997616,1000,O,m,726,5,1,2509.0,209280.39999997616,7709,NTS,B,11
7,11,prac,1,B,triangle.png,1,z,Mon Nov 24 2025 15:13:02 GMT-0600 (Central Standard Time),215155.29999998212,2000,O,z,569,6,1,3359.7999999821186,211795.5,7709,NTS,B,12
1,0,test,1,A,circle.png,0,z,Mon Nov 24 2025 15:13:02 GMT-0600 (Central Standard Time),245546.59999999404,1000,O,None,1515,1,1,2528.300000011921,243018.29999998212,7709,NTS,B,1
2,1,test,1,A,circle.png,1,z,Mon Nov 24 2025 15:13:02 GMT-0600 (Central Standard Time),248594.59999999404,2000,O,z,1029,2,1,3041.800000011921,245552.79999998212,7709,NTS,B,2
4,2,test,1,A,circle.png,1,z,Mon Nov 24 2025 15:13:02 GMT-0600 (Central Standard Time),250660.0,1400,O,z,634,4,1,2058.600000023842,248601.39999997616,7709,NTS,B,3
9,3,test,1,A,circle.png,1,m,Mon Nov 24 2025 15:13:02 GMT-0600 (Central Standard Time),252893.69999998808,1500,O,m,697,8,1,2228.4000000059605,250665.29999998212,7709,NTS,B,4
8,4,test,1,A,circle.png,1,m,Mon Nov 24 2025 15:13:02 GMT-0600 (Central Standard Time),255842.39999997616,1600,O,m,1321,7,1,2945.699999988079,252896.69999998808,7709,NTS,B,5
7,5,test,1,A,circle.png,1,m,Mon Nov 24 2025 15:13:02 GMT-0600 (Central Standard Time),258126.29999998212,1700,O,m,549,6,1,2280.4000000059605,255845.89999997616,7709,NTS,B,6
8,6,test,1,A,circle.png,1,m,Mon Nov 24 2025 15:13:02 GMT-0600 (Central Standard Time),260357.19999998808,1600,O,m,600,7,1,2225.0,258132.19999998808,7709,NTS,B,7
6,7,test,1,A,circle.png,1,m,Mon Nov 24 2025 15:13:02 GMT-0600 (Central Standard Time),263256.2999999821,1900,O,m,982,5,1,2895.5999999940395,260360.69999998808,7709,NTS,B,8
2,8,test,1,A,circle.png,1,z,Mon Nov 24 2025 15:13:02 GMT-0600 (Central Standard Time),265939.2999999821,2000,O,z,661,2,1,2679.699999988079,263259.59999999404,7709,NTS,B,9
6,9,test,1,A,circle.png,1,m,Mon Nov 24 2025 15:13:02 GMT-0600 (Central Standard Time),268554.09999999404,1900,O,m,687,5,1,2611.4000000059605,265942.6999999881,7709,NTS,B,10
7,10,test,1,A,circle.png,1,m,Mon Nov 24 2025 15:13:02 GMT-0600 (Central Standard Time),271088.5,1700,O,m,803,6,1,2530.9000000059605,268557.59999999404,7709,NTS,B,11
8,11,test,1,A,circle.png,1,m,Mon Nov 24 2025 15:13:02 GMT-0600 (Central Standard Time),273504.7999999821,1600,O,m,784,7,1,2413.0999999940395,271091.6999999881,7709,NTS,B,12
9,12,test,1,A,circle.png,1,m,Mon Nov 24 2025 15:13:02 GMT-0600 (Central Standard Time),275702.89999997616,1500,O,m,673,8,1,2191.5999999940395,273511.2999999821,7709,NTS,B,13
4,13,test,1,A,circle.png,1,z,Mon Nov 24 2025 15:13:02 GMT-0600 (Central Standard Time),278052.39999997616,1400,O,z,917,4,1,2343.2999999821186,275709.09999999404,7709,NTS,B,14
4,14,test,1,A,circle.png,1,z,Mon Nov 24 2025 15:13:02 GMT-0600 (Central Standard Time),280017.89999997616,1400,O,z,537,4,1,1960.2999999821186,278057.59999999404,7709,NTS,B,15
9,15,test,1,A,circle.png,1,m,Mon Nov 24 2025 15:13:02 GMT-0600 (Central Standard Time),282084.2999999821,1500,O,m,535,8,1,2060.699999988079,280023.59999999404,7709,NTS,B,16
2,16,test,1,A,circle.png,1,z,Mon Nov 24 2025 15:13:02 GMT-0600 (Central Standard Time),284816.09999999404,2000,O,z,697,2,1,2726.7000000178814,282089.39999997616,7709,NTS,B,17
3,17,test,1,A,circle.png,1,z,Mon Nov 24 2025 15:13:02 GMT-0600 (Central Standard Time),287131.89999997616,1200,O,z,1085,3,1,2309.899999976158,284822.0,7709,NTS,B,18
3,18,test,1,A,circle.png,1,z,Mon Nov 24 2025 15:13:02 GMT-0600 (Central Standard Time),288849.0,1200,O,z,492,3,1,1712.5,287136.5,7709,NTS,B,19
2,19,test,1,A,circle.png,1,z,Mon Nov 24 2025 15:13:02 GMT-0600 (Central Standard Time),291431.09999999404,2000,O,z,549,2,1,2579.5,288851.59999999404,7709,NTS,B,20
8,20,test,1,A,circle.png,1,m,Mon Nov 24 2025 15:13:02 GMT-0600 (Central Standard Time),293580.0,1600,O,m,527,7,1,2144.300000011921,291435.6999999881,7709,NTS,B,21
6,21,test,1,A,circle.png,1,m,Mon Nov 24 2025 15:13:02 GMT-0600 (Central Standard Time),296080.1999999881,1900,O,m,574,5,1,2497.0999999940395,293583.09999999404,7709,NTS,B,22
3,22,test,1,A,circle.png,1,z,Mon Nov 24 2025 15:13:02 GMT-0600 (Central Standard Time),298145.0,1200,O,z,846,3,1,2059.7000000178814,296085.2999999821,7709,NTS,B,23
1,23,test,1,A,circle.png,1,z,Mon Nov 24 2025 15:13:02 GMT-0600 (Central Standard Time),299811.0,1000,O,z,638,1,1,1662.1000000238419,298148.89999997616,7709,NTS,B,24
9,0,test,1,B,triangle.png,0,z,Mon Nov 24 2025 15:13:02 GMT-0600 (Central Standard Time),323620.59999999404,1400,O,m,637,8,1,2060.800000011921,321559.7999999821,7709,NTS,B,1
7,1,test,1,B,triangle.png,1,z,Mon Nov 24 2025 15:13:02 GMT-0600 (Central Standard Time),326453.1999999881,2000,O,z,810,6,1,2827.4000000059605,323625.7999999821,7709,NTS,B,2
3,2,test,1,B,triangle.png,1,z,Mon Nov 24 2025 15:13:02 GMT-0600 (Central Standard Time),328852.7999999821,1600,O,z,769,3,1,2396.5,326456.2999999821,7709,NTS,B,3
4,3,test,1,B,triangle.png,1,m,Mon Nov 24 2025 15:13:02 GMT-0600 (Central Standard Time),330869.59999999404,1500,O,m,485,4,1,2013.0999999940395,328856.5,7709,NTS,B,4
8,4,test,1,B,triangle.png,1,m,Mon Nov 24 2025 15:13:02 GMT-0600 (Central Standard Time),333333.89999997616,1700,O,m,743,15,1,2460.0,330873.89999997616,7709,NTS,B,5
3,5,test,1,B,triangle.png,1,z,Mon Nov 24 2025 15:13:02 GMT-0600 (Central Standard Time),335684.09999999404,1600,O,z,729,3,1,2344.7000000178814,333339.39999997616,7709,NTS,B,6
8,6,test,1,B,triangle.png,1,m,Mon Nov 24 2025 15:13:02 GMT-0600 (Central Standard Time),337783.59999999404,1200,O,m,867,7,1,2095.9000000059605,335687.6999999881,7709,NTS,B,7
1,7,test,1,B,triangle.png,1,z,Mon Nov 24 2025 15:13:02 GMT-0600 (Central Standard Time),340583.7999999821,1900,O,z,869,1,1,2796.2999999821186,337787.5,7709,NTS,B,8
4,8,test,1,B,triangle.png,1,m,Mon Nov 24 2025 15:13:02 GMT-0600 (Central Standard Time),342798.0,1000,O,m,1193,12,1,2209.100000023842,340588.89999997616,7709,NTS,B,9
7,9,test,1,B,triangle.png,1,z,Mon Nov 24 2025 15:13:02 GMT-0600 (Central Standard Time),345197.89999997616,1600,O,z,768,14,1,2395.699999988079,342802.1999999881,7709,NTS,B,10
6,10,test,1,B,triangle.png,1,m,Mon Nov 24 2025 15:13:02 GMT-0600 (Central Standard Time),347147.7999999821,1000,O,m,928,5,1,1945.5,345202.2999999821,7709,NTS,B,11
6,10,test,1,B,triangle.png,0,m,Mon Nov 24 2025 15:13:02 GMT-0600 (Central Standard Time),349679.6999999881,1000,O,None,1514,5,1,2529.4000000059605,347150.2999999821,7709,NTS,B,12
4,11,test,1,B,triangle.png,1,m,Mon Nov 24 2025 15:13:02 GMT-0600 (Central Standard Time),352544.5,1500,O,m,1348,4,1,2862.100000023842,349682.39999997616,7709,NTS,B,13
3,12,test,1,B,triangle.png,1,z,Mon Nov 24 2025 15:13:02 GMT-0600 (Central Standard Time),355195.89999997616,2000,O,z,622,11,1,2648.0,352547.89999997616,7709,NTS,B,14
7,13,test,1,B,triangle.png,1,z,Mon Nov 24 2025 15:13:02 GMT-0600 (Central Standard Time),358377.0,2000,O,z,1166,6,1,3176.7000000178814,355200.2999999821,7709,NTS,B,15
2,14,test,1,B,triangle.png,1,m,Mon Nov 24 2025 15:13:02 GMT-0600 (Central Standard Time),361025.1999999881,1700,O,m,932,2,1,2645.0,358380.1999999881,7709,NTS,B,16
6,15,test,1,B,triangle.png,1,m,Mon Nov 24 2025 15:13:02 GMT-0600 (Central Standard Time),363308.2999999821,1500,O,m,752,13,1,2279.5999999940395,361028.6999999881,7709,NTS,B,17
8,16,test,1,B,triangle.png,1,m,Mon Nov 24 2025 15:13:02 GMT-0600 (Central Standard Time),365792.5,1700,O,m,757,15,1,2478.9000000059605,363313.59999999404,7709,NTS,B,18
1,17,test,1,B,triangle.png,1,z,Mon Nov 24 2025 15:13:02 GMT-0600 (Central Standard Time),368423.09999999404,1900,O,z,709,1,1,2626.800000011921,365796.2999999821,7709,NTS,B,19
9,17,test,1,B,triangle.png,0,z,Mon Nov 24 2025 15:13:02 GMT-0600 (Central Standard Time),371372.39999997616,1900,O,m,1037,16,1,2946.0,368426.39999997616,7709,NTS,B,20
1,18,test,1,B,triangle.png,1,z,Mon Nov 24 2025 15:13:02 GMT-0600 (Central Standard Time),373505.09999999404,1400,O,z,713,9,1,2128.9000000059605,371376.1999999881,7709,NTS,B,21
2,19,test,1,B,triangle.png,1,m,Mon Nov 24 2025 15:13:02 GMT-0600 (Central Standard Time),375454.6999999881,1200,O,m,727,10,1,1941.9000000059605,373512.7999999821,7709,NTS,B,22
9,20,test,1,B,triangle.png,1,z,Mon Nov 24 2025 15:13:02 GMT-0600 (Central Standard Time),377603.89999997616,1400,O,z,721,8,1,2145.399999976158,375458.5,7709,NTS,B,23
2,21,test,1,B,triangle.png,1,m,Mon Nov 24 2025 15:13:02 GMT-0600 (Central Standard Time),379785.59999999404,1200,O,m,956,10,1,2171.9000000059605,377613.6999999881,7709,NTS,B,24
4,0,prac,1,C,circle.png,0,z,Mon Nov 24 2025 15:13:02 GMT-0600 (Central Standard Time),426938.39999997616,1000,O,None,1516,4,1,3291.2999999821186,423647.09999999404,7709,NTS,B,1
2,0,prac,1,C,triangle.png,0,m,Mon Nov 24 2025 15:13:02 GMT-0600 (Central Standard Time),430653.59999999404,1600,O,z,1317,2,1,3708.4000000059605,426945.1999999881,7709,NTS,B,2
3,0,prac,1,C,triangle.png,0,z,Mon Nov 24 2025 15:13:02 GMT-0600 (Central Standard Time),434451.7999999821,1500,O,None,1515,3,1,3792.4000000059605,430659.39999997616,7709,NTS,B,3
2,0,prac,1,C,triangle.png,0,m,Mon Nov 24 2025 15:13:02 GMT-0600 (Central Standard Time),437853.5,1600,O,z,1011,2,1,3396.7000000178814,434456.7999999821,7709,NTS,B,4
1,1,prac,1,C,circle.png,1,z,Mon Nov 24 2025 15:13:02 GMT-0600 (Central Standard Time),441683.5,1700,O,z,1356,1,1,3823.800000011921,437859.6999999881,7709,NTS,B,5
8,2,prac,1,C,triangle.png,1,m,Mon Nov 24 2025 15:13:02 GMT-0600 (Central Standard Time),444567.09999999404,1400,O,m,698,7,1,2876.4000000059605,441690.6999999881,7709,NTS,B,6
6,2,prac,1,C,circle.png,0,m,Mon Nov 24 2025 15:13:02 GMT-0600 (Central Standard Time),448167.6999999881,2000,O,z,828,5,1,3593.699999988079,444574.0,7709,NTS,B,7
8,2,prac,1,C,triangle.png,0,m,Mon Nov 24 2025 15:13:02 GMT-0600 (Central Standard Time),451863.5,1400,O,None,1514,7,1,3688.5,448175.0,7709,NTS,B,8
9,2,prac,1,C,circle.png,0,m,Mon Nov 24 2025 15:13:02 GMT-0600 (Central Standard Time),455445.5,1900,O,z,891,8,1,3577.300000011921,451868.1999999881,7709,NTS,B,9
7,3,prac,1,C,triangle.png,1,z,Mon Nov 24 2025 15:13:02 GMT-0600 (Central Standard Time),458745.7999999821,1200,O,z,1307,6,1,3293.5999999940395,455452.1999999881,7709,NTS,B,10
9,4,prac,1,C,circle.png,1,m,Mon Nov 24 2025 15:13:02 GMT-0600 (Central Standard Time),462327.1999999881,1900,O,m,899,8,1,3576.699999988079,458750.5,7709,NTS,B,11
6,4,prac,1,C,circle.png,0,m,Mon Nov 24 2025 15:13:02 GMT-0600 (Central Standard Time),466276.7999999821,2000,O,z,1153,5,1,3943.4000000059605,462333.39999997616,7709,NTS,B,12
4,0,prac,2,C,circle.png,0,z,Mon Nov 24 2025 15:13:02 GMT-0600 (Central Standard Time),500749.59999999404,1000,O,None,1516,4,1,3291.5999999940395,497458.0,7709,NTS,B,1
4,1,prac,2,C,circle.png,1,z,Mon Nov 24 2025 15:13:02 GMT-0600 (Central Standard Time),503263.6999999881,1000,O,z,723,4,1,2504.5,500759.1999999881,7709,NTS,B,2
1,2,prac,2,C,circle.png,1,z,Mon Nov 24 2025 15:13:02 GMT-0600 (Central Standard Time),506829.89999997616,1700,O,z,1083,1,1,3560.0,503269.89999997616,7709,NTS,B,3
1,3,prac,2,C,circle.png,1,z,Mon Nov 24 2025 15:13:02 GMT-0600 (Central Standard Time),509830.39999997616,1700,O,z,510,1,1,2993.199999988079,506837.1999999881,7709,NTS,B,4
7,3,prac,2,C,triangle.png,0,z,Mon Nov 24 2025 15:13:02 GMT-0600 (Central Standard Time),512462.0,1200,O,m,646,6,1,2625.2000000178814,509836.7999999821,7709,NTS,B,5
7,4,prac,2,C,triangle.png,1,z,Mon Nov 24 2025 15:13:02 GMT-0600 (Central Standard Time),515143.5,1200,O,z,691,6,1,2677.4000000059605,512466.09999999404,7709,NTS,B,6
8,5,prac,2,C,triangle.png,1,m,Mon Nov 24 2025 15:13:02 GMT-0600 (Central Standard Time),518576.0,1400,O,m,1249,7,1,3424.7000000178814,515151.2999999821,7709,NTS,B,7
9,6,prac,2,C,circle.png,1,m,Mon Nov 24 2025 15:13:02 GMT-0600 (Central Standard Time),522590.6999999881,1900,O,m,1315,8,1,4010.699999988079,518580.0,7709,NTS,B,8
6,6,prac,2,C,circle.png,0,m,Mon Nov 24 2025 15:13:02 GMT-0600 (Central Standard Time),526372.6999999881,2000,O,z,991,5,1,3775.199999988079,522597.5,7709,NTS,B,9
9,7,prac,2,C,circle.png,1,m,Mon Nov 24 2025 15:13:02 GMT-0600 (Central Standard Time),530155.599999994,1900,O,m,1095,8,1,3775.9000000059605,526379.6999999881,7709,NTS,B,10
3,8,prac,2,C,triangle.png,1,z,Mon Nov 24 2025 15:13:02 GMT-0600 (Central Standard Time),533820.8999999762,1500,O,z,1368,3,1,3658.2999999821186,530162.599999994,7709,NTS,B,11
2,9,prac,2,C,triangle.png,1,m,Mon Nov 24 2025 15:13:02 GMT-0600 (Central Standard Time),537220.1999999881,1600,O,m,1012,2,1,3395.800000011921,533824.3999999762,7709,NTS,B,12
8,0,test,1,C,circle.png,0,m,Mon Nov 24 2025 15:13:02 GMT-0600 (Central Standard Time),560095.6999999881,1200,O,None,1516,15,1,2727.5999999940395,557368.099999994,7709,NTS,B,1
6,0,test,1,C,triangle.png,0,m,Mon Nov 24 2025 15:13:02 GMT-0600 (Central Standard Time),562629.599999994,1000,O,None,1518,13,1,2530.9000000059605,560098.6999999881,7709,NTS,B,2
7,0,test,1,C,triangle.png,0,z,Mon Nov 24 2025 15:13:02 GMT-0600 (Central Standard Time),565594.099999994,1700,O,m,1250,22,1,2957.800000011921,562636.2999999821,7709,NTS,B,3
6,0,test,1,C,circle.png,0,m,Mon Nov 24 2025 15:13:02 GMT-0600 (Central Standard Time),568144.8999999762,1900,O,z,618,21,1,2547.5999999940395,565597.2999999821,7709,NTS,B,4
1,0,test,1,C,triangle.png,0,z,Mon Nov 24 2025 15:13:02 GMT-0600 (Central Standard Time),571291.3999999762,1900,O,m,1219,17,1,3141.2999999821186,568150.099999994,7709,NTS,B,5
7,0,test,1,C,circle.png,0,m,Mon Nov 24 2025 15:13:02 GMT-0600 (Central Standard Time),574824.099999994,2000,O,None,1515,14,1,3529.4000000059605,571294.6999999881,7709,NTS,B,6
3,0,test,1,C,triangle.png,0,z,Mon Nov 24 2025 15:13:02 GMT-0600 (Central Standard Time),577555.3999999762,1200,O,None,1513,3,1,2727.399999976158,574828.0,7709,NTS,B,7
4,0,test,1,C,triangle.png,0,m,Mon Nov 24 2025 15:13:02 GMT-0600 (Central Standard Time),580588.7999999821,1500,O,None,1513,12,1,3030.9000000059605,577557.8999999762,7709,NTS,B,8
3,1,test,1,C,circle.png,1,z,Mon Nov 24 2025 15:13:02 GMT-0600 (Central Standard Time),582888.5,1600,O,z,670,11,1,2297.300000011921,580591.1999999881,7709,NTS,B,9
2,2,test,1,C,triangle.png,1,m,Mon Nov 24 2025 15:13:02 GMT-0600 (Central Standard Time),586321.599999994,2000,O,m,1407,2,1,3429.0,582892.599999994,7709,NTS,B,10
9,2,test,1,C,circle.png,0,m,Mon Nov 24 2025 15:13:02 GMT-0600 (Central Standard Time),589339.2999999821,1500,O,None,1502,8,1,3012.4000000059605,586326.8999999762,7709,NTS,B,11
8,3,test,1,C,triangle.png,1,m,Mon Nov 24 2025 15:13:02 GMT-0600 (Central Standard Time),591119.5,1600,O,m,165,23,1,1776.300000011921,589343.1999999881,7709,NTS,B,12
7,4,test,1,C,triangle.png,1,z,Mon Nov 24 2025 15:13:02 GMT-0600 (Central Standard Time),593101.599999994,1700,O,z,261,6,1,1978.4000000059605,591123.1999999881,7709,NTS,B,13
9,5,test,1,C,circle.png,1,m,Mon Nov 24 2025 15:13:02 GMT-0600 (Central Standard Time),595866.8999999762,1500,O,m,1245,24,1,2757.399999976158,593109.5,7709,NTS,B,14
4,5,test,1,C,triangle.png,0,m,Mon Nov 24 2025 15:13:02 GMT-0600 (Central Standard Time),598683.599999994,1500,O,z,1295,20,1,2811.5,595872.099999994,7709,NTS,B,15
2,6,test,1,C,circle.png,1,z,Mon Nov 24 2025 15:13:02 GMT-0600 (Central Standard Time),601600.0,1700,O,z,1183,18,1,2912.300000011921,598687.6999999881,7709,NTS,B,16
8,7,test,1,C,triangle.png,1,m,Mon Nov 24 2025 15:13:02 GMT-0600 (Central Standard Time),604581.6999999881,1600,O,m,1352,7,1,2976.9000000059605,601604.7999999821,7709,NTS,B,17
1,8,test,1,C,circle.png,1,z,Mon Nov 24 2025 15:13:02 GMT-0600 (Central Standard Time),606781.0,1000,O,z,1179,1,1,2195.2000000178814,604585.7999999821,7709,NTS,B,18
2,9,test,1,C,circle.png,1,z,Mon Nov 24 2025 15:13:02 GMT-0600 (Central Standard Time),609682.0,1700,O,z,1185,10,1,2897.300000011921,606784.6999999881,7709,NTS,B,19
3,10,test,1,C,circle.png,1,z,Mon Nov 24 2025 15:13:02 GMT-0600 (Central Standard Time),612146.8999999762,1600,O,z,838,19,1,2460.5999999940395,609686.2999999821,7709,NTS,B,20
9,10,test,1,C,triangle.png,0,z,Mon Nov 24 2025 15:13:02 GMT-0600 (Central Standard Time),614880.5,1400,O,m,1302,16,1,2729.5,612151.0,7709,NTS,B,21
4,11,test,1,C,circle.png,1,z,Mon Nov 24 2025 15:13:02 GMT-0600 (Central Standard Time),617611.3999999762,1400,O,z,1305,4,1,2723.5999999940395,614887.7999999821,7709,NTS,B,22
6,12,test,1,C,circle.png,1,m,Mon Nov 24 2025 15:13:02 GMT-0600 (Central Standard Time),620194.1999999881,1900,O,m,664,5,1,2579.0,617615.1999999881,7709,NTS,B,23
1,13,test,1,C,triangle.png,1,z,Mon Nov 24 2025 15:13:02 GMT-0600 (Central Standard Time),623394.1999999881,1900,O,z,1280,9,1,3196.0999999940395,620198.099999994,7709,NTS,B,24
3,1,test,2,C,circle.png,1,z,Mon Nov 24 2025 15:13:02 GMT-0600 (Central Standard Time),656214.3999999762,1600,O,z,667,19,1,2291.199999988079,653923.1999999881,7709,NTS,B,1
6,2,test,2,C,triangle.png,1,m,Mon Nov 24 2025 15:13:02 GMT-0600 (Central Standard Time),658548.2999999821,1000,O,m,1304,21,1,2328.699999988079,656219.599999994,7709,NTS,B,2
1,2,test,2,C,triangle.png,0,z,Mon Nov 24 2025 15:13:02 GMT-0600 (Central Standard Time),661479.6999999881,1900,O,m,1008,9,1,2926.4000000059605,658553.2999999821,7709,NTS,B,3
9,2,test,2,C,triangle.png,0,z,Mon Nov 24 2025 15:13:02 GMT-0600 (Central Standard Time),664180.3999999762,1400,O,m,1271,24,1,2695.0999999940395,661485.2999999821,7709,NTS,B,4
9,2,test,2,C,triangle.png,0,z,Mon Nov 24 2025 15:13:02 GMT-0600 (Central Standard Time),666812.0,1400,O,m,1212,16,1,2627.5,664184.5,7709,NTS,B,5
3,3,test,2,C,circle.png,1,z,Mon Nov 24 2025 15:13:02 GMT-0600 (Central Standard Time),669277.0,1600,O,z,843,11,1,2459.800000011921,666817.1999999881,7709,NTS,B,6
2,4,test,2,C,circle.png,1,z,Mon Nov 24 2025 15:13:02 GMT-0600 (Central Standard Time),671676.3999999762,1700,O,z,668,18,1,2394.0,669282.3999999762,7709,NTS,B,7
4,5,test,2,C,circle.png,1,z,Mon Nov 24 2025 15:13:02 GMT-0600 (Central Standard Time),674008.8999999762,1400,O,z,916,4,1,2327.5,671681.3999999762,7709,NTS,B,8
2,5,test,2,C,circle.png,0,z,Mon Nov 24 2025 15:13:02 GMT-0600 (Central Standard Time),677225.6999999881,1700,O,None,1501,10,1,3213.300000011921,674012.3999999762,7709,NTS,B,9
2,6,test,2,C,triangle.png,1,m,Mon Nov 24 2025 15:13:02 GMT-0600 (Central Standard Time),680523.0,2000,O,m,1270,2,1,3292.300000011921,677230.6999999881,7709,NTS,B,10
4,6,test,2,C,triangle.png,0,m,Mon Nov 24 2025 15:13:02 GMT-0600 (Central Standard Time),683555.6999999881,1500,O,None,1515,20,1,3029.199999988079,680526.5,7709,NTS,B,11
7,7,test,2,C,triangle.png,1,z,Mon Nov 24 2025 15:13:02 GMT-0600 (Central Standard Time),685990.5,1700,O,z,712,6,1,2430.600000023842,683559.8999999762,7709,NTS,B,12
6,7,test,2,C,circle.png,0,m,Mon Nov 24 2025 15:13:02 GMT-0600 (Central Standard Time),688721.6999999881,1900,O,z,816,5,1,2727.199999988079,685994.5,7709,NTS,B,13
3,7,test,2,C,triangle.png,0,z,Mon Nov 24 2025 15:13:02 GMT-0600 (Central Standard Time),691339.5,1200,O,m,1397,3,1,2614.2000000178814,688725.2999999821,7709,NTS,B,14
7,7,test,2,C,circle.png,0,m,Mon Nov 24 2025 15:13:02 GMT-0600 (Central Standard Time),694786.0,2000,O,z,1420,14,1,3443.9000000059605,691342.099999994,7709,NTS,B,15
8,7,test,2,C,circle.png,0,m,Mon Nov 24 2025 15:13:02 GMT-0600 (Central Standard Time),697517.599999994,1200,O,None,1515,23,1,2726.9000000059605,694790.6999999881,7709,NTS,B,16
4,8,test,2,C,triangle.png,1,m,Mon Nov 24 2025 15:13:02 GMT-0600 (Central Standard Time),700050.8999999762,1500,O,m,1011,12,1,2530.199999988079,697520.6999999881,7709,NTS,B,17
8,9,test,2,C,circle.png,1,m,Mon Nov 24 2025 15:13:02 GMT-0600 (Central Standard Time),702067.1999999881,1200,O,m,787,15,1,2013.300000011921,700053.8999999762,7709,NTS,B,18
6,9,test,2,C,triangle.png,0,m,Mon Nov 24 2025 15:13:02 GMT-0600 (Central Standard Time),704516.7999999821,1000,O,z,1429,13,1,2446.0999999940395,702070.6999999881,7709,NTS,B,19
8,10,test,2,C,triangle.png,1,m,Mon Nov 24 2025 15:13:02 GMT-0600 (Central Standard Time),707299.8999999762,1600,O,m,1155,7,1,2777.2999999821186,704522.599999994,7709,NTS,B,20
1,11,test,2,C,triangle.png,1,z,Mon Nov 24 2025 15:13:02 GMT-0600 (Central Standard Time),710230.1999999881,1900,O,z,1008,17,1,2926.199999988079,707304.0,7709,NTS,B,21
9,12,test,2,C,circle.png,1,m,Mon Nov 24 2025 15:13:02 GMT-0600 (Central Standard Time),712712.7999999821,1500,O,m,965,8,1,2479.0999999940395,710233.6999999881,7709,NTS,B,22
7,13,test,2,C,circle.png,1,m,Mon Nov 24 2025 15:13:02 GMT-0600 (Central Standard Time),715913.0,2000,O,m,1183,22,1,3197.5,712715.5,7709,NTS,B,23
1,14,test,2,C,circle.png,1,z,Mon Nov 24 2025 15:13:02 GMT-0600 (Central Standard Time),718295.6999999881,1000,O,z,1364,1,1,2378.9000000059605,715916.7999999821,7709,NTS,B,24
4,1,test,3,C,triangle.png,1,m,Mon Nov 24 2025 15:13:02 GMT-0600 (Central Standard Time),727993.8999999762,1500,O,m,1115,12,1,2645.899999976158,725348.0,7709,NTS,B,1
7,1,test,3,C,circle.png,0,m,Mon Nov 24 2025 15:13:02 GMT-0600 (Central Standard Time),731524.6999999881,2000,O,None,1516,14,1,3526.0,727998.6999999881,7709,NTS,B,2
4,2,test,3,C,circle.png,1,z,Mon Nov 24 2025 15:13:02 GMT-0600 (Central Standard Time),734223.1999999881,1400,O,z,1274,4,1,2694.0,731529.1999999881,7709,NTS,B,3
6,3,test,3,C,circle.png,1,m,Mon Nov 24 2025 15:13:02 GMT-0600 (Central Standard Time),737373.599999994,1900,O,m,1228,21,1,3147.2000000178814,734226.3999999762,7709,NTS,B,4
1,3,test,3,C,triangle.png,0,z,Mon Nov 24 2025 15:13:02 GMT-0600 (Central Standard Time),740621.2999999821,1900,O,m,1328,9,1,3240.699999988079,737380.599999994,7709,NTS,B,5
7,4,test,3,C,triangle.png,1,z,Mon Nov 24 2025 15:13:02 GMT-0600 (Central Standard Time),743803.099999994,1700,O,z,1461,22,1,3175.0,740628.099999994,7709,NTS,B,6
9,4,test,3,C,circle.png,0,m,Mon Nov 24 2025 15:13:02 GMT-0600 (Central Standard Time),746837.0,1500,O,None,1517,24,1,3028.800000011921,743808.1999999881,7709,NTS,B,7
3,5,test,3,C,triangle.png,1,z,Mon Nov 24 2025 15:13:02 GMT-0600 (Central Standard Time),749535.1999999881,1200,O,z,1475,19,1,2689.800000011921,746845.3999999762,7709,NTS,B,8
8,6,test,3,C,circle.png,1,m,Mon Nov 24 2025 15:13:02 GMT-0600 (Central Standard Time),752184.7999999821,1200,O,m,1423,15,1,2645.0,749539.7999999821,7709,NTS,B,9
4,7,test,3,C,circle.png,1,z,Mon Nov 24 2025 15:13:02 GMT-0600 (Central Standard Time),754333.2999999821,1400,O,z,719,20,1,2144.5999999940395,752188.6999999881,7709,NTS,B,10
2,8,test,3,C,triangle.png,1,m,Mon Nov 24 2025 15:13:02 GMT-0600 (Central Standard Time),757599.2999999821,2000,O,m,1230,18,1,3257.0999999940395,754342.1999999881,7709,NTS,B,11
1,9,test,3,C,circle.png,1,z,Mon Nov 24 2025 15:13:02 GMT-0600 (Central Standard Time),759835.5,1000,O,z,1207,1,1,2233.2000000178814,757602.2999999821,7709,NTS,B,12
9,10,test,3,C,circle.png,1,m,Mon Nov 24 2025 15:13:02 GMT-0600 (Central Standard Time),762581.5,1500,O,m,1227,8,1,2738.2000000178814,759843.2999999821,7709,NTS,B,13
1,11,test,3,C,circle.png,1,z,Mon Nov 24 2025 15:13:02 GMT-0600 (Central Standard Time),764814.0,1000,O,z,1206,17,1,2224.7000000178814,762589.2999999821,7709,NTS,B,14
9,11,test,3,C,triangle.png,0,z,Mon Nov 24 2025 15:13:02 GMT-0600 (Central Standard Time),767662.8999999762,1400,O,m,1426,16,1,2844.899999976158,764818.0,7709,NTS,B,15
8,11,test,3,C,triangle.png,0,m,Mon Nov 24 2025 15:13:02 GMT-0600 (Central Standard Time),770712.1999999881,1600,O,z,1424,7,1,3043.699999988079,767668.5,7709,NTS,B,16
6,12,test,3,C,triangle.png,1,m,Mon Nov 24 2025 15:13:02 GMT-0600 (Central Standard Time),772594.1999999881,1000,O,m,865,13,1,1875.0,770719.1999999881,7709,NTS,B,17
6,13,test,3,C,circle.png,1,m,Mon Nov 24 2025 15:13:02 GMT-0600 (Central Standard Time),775178.5,1900,O,m,666,5,1,2577.800000011921,772600.6999999881,7709,NTS,B,18
3,13,test,3,C,triangle.png,0,z,Mon Nov 24 2025 15:13:02 GMT-0600 (Central Standard Time),777910.0,1200,O,None,1516,3,1,2725.7000000178814,775184.2999999821,7709,NTS,B,19
7,13,test,3,C,triangle.png,0,z,Mon Nov 24 2025 15:13:02 GMT-0600 (Central Standard Time),780973.6999999881,1700,O,m,1338,6,1,3059.5,777914.1999999881,7709,NTS,B,20
2,13,test,3,C,triangle.png,0,m,Mon Nov 24 2025 15:13:02 GMT-0600 (Central Standard Time),784507.3999999762,2000,O,None,1515,2,1,3530.199999988079,780977.1999999881,7709,NTS,B,21
2,14,test,3,C,circle.png,1,z,Mon Nov 24 2025 15:13:02 GMT-0600 (Central Standard Time),787340.0,1700,O,z,1111,10,1,2826.5,784513.5,7709,NTS,B,22
3,15,test,3,C,circle.png,1,z,Mon Nov 24 2025 15:13:02 GMT-0600 (Central Standard Time),790056.1999999881,1600,O,z,1084,11,1,2712.699999988079,787343.5,7709,NTS,B,23
8,16,test,3,C,triangle.png,1,m,Mon Nov 24 2025 15:13:02 GMT-0600 (Central Standard Time),793138.599999994,1600,O,m,1456,23,1,3076.5999999940395,790062.0,7709,NTS,B,24
3,0,test,4,C,triangle.png,0,z,Mon Nov 24 2025 15:13:02 GMT-0600 (Central Standard Time),806450.8999999762,1200,O,None,1516,19,1,2729.399999976158,803721.5,7709,NTS,B,1
9,1,test,4,C,circle.png,1,m,Mon Nov 24 2025 15:13:02 GMT-0600 (Central Standard Time),808916.0,1500,O,m,946,8,1,2461.9000000059605,806454.099999994,7709,NTS,B,2
1,2,test,4,C,circle.png,1,z,Mon Nov 24 2025 15:13:02 GMT-0600 (Central Standard Time),810715.1999999881,1000,O,z,770,1,1,1796.0,808919.1999999881,7709,NTS,B,3
9,3,test,4,C,circle.png,1,m,Mon Nov 24 2025 15:13:02 GMT-0600 (Central Standard Time),813266.599999994,1500,O,m,1023,24,1,2546.2000000178814,810720.3999999762,7709,NTS,B,4
3,4,test,4,C,circle.png,1,z,Mon Nov 24 2025 15:13:02 GMT-0600 (Central Standard Time),816046.6999999881,1600,O,z,1150,11,1,2776.4000000059605,813270.2999999821,7709,NTS,B,5
7,4,test,4,C,triangle.png,0,z,Mon Nov 24 2025 15:13:02 GMT-0600 (Central Standard Time),818498.1999999881,1700,O,m,733,6,1,2448.699999988079,816049.5,7709,NTS,B,6
7,5,test,4,C,circle.png,1,m,Mon Nov 24 2025 15:13:02 GMT-0600 (Central Standard Time),821828.8999999762,2000,O,m,1302,14,1,3326.399999976158,818502.5,7709,NTS,B,7
8,5,test,4,C,triangle.png,0,m,Mon Nov 24 2025 15:13:02 GMT-0600 (Central Standard Time),824962.599999994,1600,O,None,1516,7,1,3129.800000011921,821832.7999999821,7709,NTS,B,8
6,6,test,4,C,triangle.png,1,m,Mon Nov 24 2025 15:13:02 GMT-0600 (Central Standard Time),826894.2999999821,1000,O,m,910,13,1,1926.4000000059605,824967.8999999762,7709,NTS,B,9
2,6,test,4,C,triangle.png,0,m,Mon Nov 24 2025 15:13:02 GMT-0600 (Central Standard Time),829994.1999999881,2000,O,z,1073,2,1,3096.4000000059605,826897.7999999821,7709,NTS,B,10
9,6,test,4,C,triangle.png,0,z,Mon Nov 24 2025 15:13:02 GMT-0600 (Central Standard Time),832925.6999999881,1400,O,None,1514,16,1,2926.800000011921,829998.8999999762,7709,NTS,B,11
4,7,test,4,C,triangle.png,1,m,Mon Nov 24 2025 15:13:02 GMT-0600 (Central Standard Time),835675.0,1500,O,m,1221,12,1,2744.9000000059605,832930.099999994,7709,NTS,B,12
8,7,test,4,C,circle.png,0,m,Mon Nov 24 2025 15:13:02 GMT-0600 (Central Standard Time),838240.7999999821,1200,O,z,1340,15,1,2563.4000000059605,835677.3999999762,7709,NTS,B,13
1,7,test,4,C,triangle.png,0,z,Mon Nov 24 2025 15:13:02 GMT-0600 (Central Standard Time),841660.7999999821,1900,O,None,1503,9,1,3413.5999999940395,838247.1999999881,7709,NTS,B,14
4,7,test,4,C,circle.png,0,z,Mon Nov 24 2025 15:13:02 GMT-0600 (Central Standard Time),844589.2999999821,1400,O,None,1515,4,1,2922.9000000059605,841666.3999999762,7709,NTS,B,15
4,7,test,4,C,circle.png,0,z,Mon Nov 24 2025 15:13:02 GMT-0600 (Central Standard Time),847521.2999999821,1400,O,None,1516,20,1,2926.0,844595.2999999821,7709,NTS,B,16
6,8,test,4,C,circle.png,1,m,Mon Nov 24 2025 15:13:02 GMT-0600 (Central Standard Time),850402.2999999821,1900,O,m,955,21,1,2876.0,847526.2999999821,7709,NTS,B,17
1,9,test,4,C,circle.png,1,z,Mon Nov 24 2025 15:13:02 GMT-0600 (Central Standard Time),852269.099999994,1000,O,z,843,17,1,1862.7000000178814,850406.3999999762,7709,NTS,B,18
8,10,test,4,C,triangle.png,1,m,Mon Nov 24 2025 15:13:02 GMT-0600 (Central Standard Time),854801.3999999762,1600,O,m,907,23,1,2528.2999999821186,852273.099999994,7709,NTS,B,19
3,11,test,4,C,triangle.png,1,z,Mon Nov 24 2025 15:13:02 GMT-0600 (Central Standard Time),857434.0,1200,O,z,1405,3,1,2625.2000000178814,854808.7999999821,7709,NTS,B,20
2,12,test,4,C,triangle.png,1,m,Mon Nov 24 2025 15:13:02 GMT-0600 (Central Standard Time),860401.5,2000,O,m,942,18,1,2961.300000011921,857440.1999999881,7709,NTS,B,21
7,13,test,4,C,triangle.png,1,z,Mon Nov 24 2025 15:13:02 GMT-0600 (Central Standard Time),863032.2999999821,1700,O,z,900,22,1,2624.7999999821186,860407.5,7709,NTS,B,22
2,14,test,4,C,circle.png,1,z,Mon Nov 24 2025 15:13:02 GMT-0600 (Central Standard Time),865430.8999999762,1700,O,z,674,10,1,2393.0,863037.8999999762,7709,NTS,B,23
6,15,test,4,C,circle.png,1,m,Mon Nov 24 2025 15:13:02 GMT-0600 (Central Standard Time),868297.3999999762,1900,O,m,941,5,1,2863.0,865434.3999999762,7709,NTS,B,24
