Number,acc_sum,block,block_c,block_cond,con_img,correct,correct_response,datetime,endtime,jitter,project,response,response_time,row_sel,session_number,start_end,starttime,subject_id,task,task_vers,trial
2,1,prac,1,A,circle.png,1,z,Tue Feb 10 2026 16:01:07 GMT-0600 (Central Standard Time),33268.5,2000,I,z,792,2,3,3573.199999988079,29695.30000001192,8048,NTS,C,1
7,2,prac,1,A,circle.png,1,m,Tue Feb 10 2026 16:01:07 GMT-0600 (Central Standard Time),36483.69999998808,1700,I,m,717,6,3,3208.399999976158,33275.30000001192,8048,NTS,C,2
1,3,prac,1,A,circle.png,1,z,Tue Feb 10 2026 16:01:07 GMT-0600 (Central Standard Time),38731.80000001192,1000,I,z,454,1,3,2244.0,36487.80000001192,8048,NTS,C,3
9,4,prac,1,A,circle.png,1,m,Tue Feb 10 2026 16:01:07 GMT-0600 (Central Standard Time),41498.69999998808,1500,I,m,487,8,3,2759.399999976158,38739.30000001192,8048,NTS,C,4
2,5,prac,1,A,circle.png,1,z,Tue Feb 10 2026 16:01:07 GMT-0600 (Central Standard Time),44797.69999998808,2000,I,z,510,2,3,3292.699999988079,41505.0,8048,NTS,C,5
9,6,prac,1,A,circle.png,1,m,Tue Feb 10 2026 16:01:07 GMT-0600 (Central Standard Time),47729.60000002384,1500,I,m,638,8,3,2926.699999988079,44802.90000003576,8048,NTS,C,6
7,7,prac,1,A,circle.png,1,m,Tue Feb 10 2026 16:01:07 GMT-0600 (Central Standard Time),50729.0,1700,I,m,507,6,3,2994.099999964237,47734.90000003576,8048,NTS,C,7
8,8,prac,1,A,circle.png,1,m,Tue Feb 10 2026 16:01:07 GMT-0600 (Central Standard Time),53565.90000003576,1600,I,m,455,7,3,2830.600000023842,50735.30000001192,8048,NTS,C,8
4,9,prac,1,A,circle.png,1,z,Tue Feb 10 2026 16:01:07 GMT-0600 (Central Standard Time),56259.80000001192,1400,I,z,505,4,3,2689.899999976158,53569.90000003576,8048,NTS,C,9
3,10,prac,1,A,circle.png,1,z,Tue Feb 10 2026 16:01:07 GMT-0600 (Central Standard Time),58676.19999998808,1200,I,z,420,3,3,2410.7999999523163,56265.40000003576,8048,NTS,C,10
6,11,prac,1,A,circle.png,1,m,Tue Feb 10 2026 16:01:07 GMT-0600 (Central Standard Time),61844.90000003576,1900,I,m,487,5,3,3163.400000035763,58681.5,8048,NTS,C,11
1,12,prac,1,A,circle.png,1,z,Tue Feb 10 2026 16:01:07 GMT-0600 (Central Standard Time),64190.69999998808,1000,I,z,569,1,3,2340.0,61850.69999998808,8048,NTS,C,12
2,1,prac,1,B,triangle.png,1,m,Tue Feb 10 2026 16:01:07 GMT-0600 (Central Standard Time),78853.5,1700,I,m,877,2,3,3361.0,75492.5,8048,NTS,C,1
9,2,prac,1,B,triangle.png,1,z,Tue Feb 10 2026 16:01:07 GMT-0600 (Central Standard Time),81738.90000003576,1400,I,z,682,8,3,2878.400000035763,78860.5,8048,NTS,C,2
6,3,prac,1,B,triangle.png,1,m,Tue Feb 10 2026 16:01:07 GMT-0600 (Central Standard Time),84252.10000002384,1000,I,m,746,5,3,2507.600000023842,81744.5,8048,NTS,C,3
1,4,prac,1,B,triangle.png,1,z,Tue Feb 10 2026 16:01:07 GMT-0600 (Central Standard Time),87400.69999998808,1900,I,z,474,1,3,3144.699999988079,84256.0,8048,NTS,C,4
4,5,prac,1,B,triangle.png,1,m,Tue Feb 10 2026 16:01:07 GMT-0600 (Central Standard Time),90532.90000003576,1500,I,m,837,4,3,3124.300000011921,87408.60000002384,8048,NTS,C,5
3,6,prac,1,B,triangle.png,1,z,Tue Feb 10 2026 16:01:07 GMT-0600 (Central Standard Time),93581.5,1600,I,z,661,3,3,3043.5,90538.0,8048,NTS,C,6
4,7,prac,1,B,triangle.png,1,m,Tue Feb 10 2026 16:01:07 GMT-0600 (Central Standard Time),96714.0,1500,I,m,838,4,3,3126.099999964237,93587.90000003576,8048,NTS,C,7
8,8,prac,1,B,triangle.png,1,m,Tue Feb 10 2026 16:01:07 GMT-0600 (Central Standard Time),99329.60000002384,1200,I,m,623,7,3,2606.699999988079,96722.90000003576,8048,NTS,C,8
3,9,prac,1,B,triangle.png,1,z,Tue Feb 10 2026 16:01:07 GMT-0600 (Central Standard Time),102145.60000002384,1600,I,z,423,3,3,2807.199999988079,99338.40000003576,8048,NTS,C,9
7,9,prac,1,B,triangle.png,0,z,Tue Feb 10 2026 16:01:07 GMT-0600 (Central Standard Time),106010.40000003576,2000,I,m,1082,6,3,3855.7000000476837,102154.69999998808,8048,NTS,C,10
6,10,prac,1,B,triangle.png,1,m,Tue Feb 10 2026 16:01:07 GMT-0600 (Central Standard Time),108626.69999998808,1000,I,m,823,5,3,2610.399999976158,106016.30000001192,8048,NTS,C,11
9,11,prac,1,B,triangle.png,1,z,Tue Feb 10 2026 16:01:07 GMT-0600 (Central Standard Time),111443.90000003576,1400,I,z,621,8,3,2808.5,108635.40000003576,8048,NTS,C,12
3,0,test,1,A,circle.png,0,z,Tue Feb 10 2026 16:01:07 GMT-0600 (Central Standard Time),124938.60000002384,1200,I,None,1516,3,3,2729.0,122209.60000002384,8048,NTS,C,1
9,1,test,1,A,circle.png,1,m,Tue Feb 10 2026 16:01:07 GMT-0600 (Central Standard Time),127004.19999998808,1500,I,m,547,8,3,2059.399999976158,124944.80000001192,8048,NTS,C,2
6,2,test,1,A,circle.png,1,m,Tue Feb 10 2026 16:01:07 GMT-0600 (Central Standard Time),129804.19999998808,1900,I,m,873,5,3,2794.899999976158,127009.30000001192,8048,NTS,C,3
1,3,test,1,A,circle.png,1,z,Tue Feb 10 2026 16:01:07 GMT-0600 (Central Standard Time),131535.69999998808,1000,I,z,700,1,3,1728.699999988079,129807.0,8048,NTS,C,4
1,4,test,1,A,circle.png,1,z,Tue Feb 10 2026 16:01:07 GMT-0600 (Central Standard Time),133170.80000001192,1000,I,z,601,1,3,1632.1000000238419,131538.69999998808,8048,NTS,C,5
1,5,test,1,A,circle.png,1,z,Tue Feb 10 2026 16:01:07 GMT-0600 (Central Standard Time),134618.90000003576,1000,I,z,422,1,3,1444.5,133174.40000003576,8048,NTS,C,6
7,6,test,1,A,circle.png,1,m,Tue Feb 10 2026 16:01:07 GMT-0600 (Central Standard Time),137151.60000002384,1700,I,m,810,6,3,2529.400000035763,134622.19999998808,8048,NTS,C,7
4,7,test,1,A,circle.png,1,z,Tue Feb 10 2026 16:01:07 GMT-0600 (Central Standard Time),139683.60000002384,1400,I,z,1107,4,3,2525.199999988079,137158.40000003576,8048,NTS,C,8
4,8,test,1,A,circle.png,1,z,Tue Feb 10 2026 16:01:07 GMT-0600 (Central Standard Time),141533.5,1400,I,z,429,4,3,1845.199999988079,139688.30000001192,8048,NTS,C,9
8,9,test,1,A,circle.png,1,m,Tue Feb 10 2026 16:01:07 GMT-0600 (Central Standard Time),143948.80000001192,1600,I,m,795,7,3,2410.600000023842,141538.19999998808,8048,NTS,C,10
3,10,test,1,A,circle.png,1,z,Tue Feb 10 2026 16:01:07 GMT-0600 (Central Standard Time),145682.60000002384,1200,I,z,507,3,3,1729.699999988079,143952.90000003576,8048,NTS,C,11
3,11,test,1,A,circle.png,1,z,Tue Feb 10 2026 16:01:07 GMT-0600 (Central Standard Time),147332.19999998808,1200,I,z,432,3,3,1646.2999999523163,145685.90000003576,8048,NTS,C,12
4,12,test,1,A,circle.png,1,z,Tue Feb 10 2026 16:01:07 GMT-0600 (Central Standard Time),149198.0,1400,I,z,446,4,3,1862.5,147335.5,8048,NTS,C,13
4,13,test,1,A,circle.png,1,z,Tue Feb 10 2026 16:01:07 GMT-0600 (Central Standard Time),151264.30000001192,1400,I,z,633,4,3,2061.600000023842,149202.69999998808,8048,NTS,C,14
2,14,test,1,A,circle.png,1,z,Tue Feb 10 2026 16:01:07 GMT-0600 (Central Standard Time),153728.90000003576,2000,I,z,440,2,3,2459.600000023842,151269.30000001192,8048,NTS,C,15
8,15,test,1,A,circle.png,1,m,Tue Feb 10 2026 16:01:07 GMT-0600 (Central Standard Time),155861.69999998808,1600,I,m,511,7,3,2128.699999988079,153733.0,8048,NTS,C,16
7,16,test,1,A,circle.png,1,m,Tue Feb 10 2026 16:01:07 GMT-0600 (Central Standard Time),158410.90000003576,1700,I,m,823,6,3,2546.0,155864.90000003576,8048,NTS,C,17
6,17,test,1,A,circle.png,1,m,Tue Feb 10 2026 16:01:07 GMT-0600 (Central Standard Time),160860.10000002384,1900,I,m,521,5,3,2446.100000023842,158414.0,8048,NTS,C,18
8,18,test,1,A,circle.png,1,m,Tue Feb 10 2026 16:01:07 GMT-0600 (Central Standard Time),162893.30000001192,1600,I,m,406,7,3,2030.3999999761581,160862.90000003576,8048,NTS,C,19
2,19,test,1,A,circle.png,1,z,Tue Feb 10 2026 16:01:07 GMT-0600 (Central Standard Time),165408.69999998808,2000,I,z,492,2,3,2512.099999964237,162896.60000002384,8048,NTS,C,20
2,20,test,1,A,circle.png,1,z,Tue Feb 10 2026 16:01:07 GMT-0600 (Central Standard Time),167909.0,2000,I,z,473,2,3,2496.599999964237,165412.40000003576,8048,NTS,C,21
2,21,test,1,A,circle.png,1,z,Tue Feb 10 2026 16:01:07 GMT-0600 (Central Standard Time),170258.69999998808,2000,I,z,317,2,3,2346.7999999523163,167911.90000003576,8048,NTS,C,22
9,22,test,1,A,circle.png,1,m,Tue Feb 10 2026 16:01:07 GMT-0600 (Central Standard Time),172272.30000001192,1500,I,m,491,8,3,2009.1000000238419,170263.19999998808,8048,NTS,C,23
3,23,test,1,A,circle.png,1,z,Tue Feb 10 2026 16:01:07 GMT-0600 (Central Standard Time),174072.5,1200,I,z,566,3,3,1796.0999999642372,172276.40000003576,8048,NTS,C,24
1,1,test,1,B,triangle.png,1,z,Tue Feb 10 2026 16:01:07 GMT-0600 (Central Standard Time),186503.10000002384,1900,I,z,560,1,3,2479.5,184023.60000002384,8048,NTS,C,1
8,2,test,1,B,triangle.png,1,m,Tue Feb 10 2026 16:01:07 GMT-0600 (Central Standard Time),188267.5,1200,I,m,547,7,3,1760.5,186507.0,8048,NTS,C,2
4,3,test,1,B,triangle.png,1,m,Tue Feb 10 2026 16:01:07 GMT-0600 (Central Standard Time),190284.5,1500,I,m,498,4,3,2013.800000011921,188270.69999998808,8048,NTS,C,3
7,4,test,1,B,triangle.png,1,z,Tue Feb 10 2026 16:01:07 GMT-0600 (Central Standard Time),192517.40000003576,1600,I,z,613,14,3,2228.600000023842,190288.80000001192,8048,NTS,C,4
4,5,test,1,B,triangle.png,1,m,Tue Feb 10 2026 16:01:07 GMT-0600 (Central Standard Time),194151.30000001192,1000,I,m,613,12,3,1631.6000000238419,192519.69999998808,8048,NTS,C,5
6,6,test,1,B,triangle.png,1,m,Tue Feb 10 2026 16:01:07 GMT-0600 (Central Standard Time),195732.80000001192,1000,I,m,565,5,3,1578.3999999761581,194154.40000003576,8048,NTS,C,6
8,7,test,1,B,triangle.png,1,m,Tue Feb 10 2026 16:01:07 GMT-0600 (Central Standard Time),198097.69999998808,1700,I,m,640,15,3,2361.399999976158,195736.30000001192,8048,NTS,C,7
8,8,test,1,B,triangle.png,1,m,Tue Feb 10 2026 16:01:07 GMT-0600 (Central Standard Time),199731.69999998808,1200,I,m,401,7,3,1631.5999999642372,198100.10000002384,8048,NTS,C,8
7,9,test,1,B,triangle.png,1,z,Tue Feb 10 2026 16:01:07 GMT-0600 (Central Standard Time),201898.5,1600,I,z,535,14,3,2161.0,199737.5,8048,NTS,C,9
3,10,test,1,B,triangle.png,1,z,Tue Feb 10 2026 16:01:07 GMT-0600 (Central Standard Time),204462.40000003576,2000,I,z,544,11,3,2558.7000000476837,201903.69999998808,8048,NTS,C,10
1,11,test,1,B,triangle.png,1,z,Tue Feb 10 2026 16:01:07 GMT-0600 (Central Standard Time),206979.40000003576,1900,I,z,591,1,3,2511.2000000476837,204468.19999998808,8048,NTS,C,11
2,12,test,1,B,triangle.png,1,m,Tue Feb 10 2026 16:01:07 GMT-0600 (Central Standard Time),209544.40000003576,1700,I,m,834,2,3,2559.400000035763,206985.0,8048,NTS,C,12
2,13,test,1,B,triangle.png,1,m,Tue Feb 10 2026 16:01:07 GMT-0600 (Central Standard Time),211210.5,1200,I,m,448,10,3,1660.0,209550.5,8048,NTS,C,13
9,14,test,1,B,triangle.png,1,z,Tue Feb 10 2026 16:01:07 GMT-0600 (Central Standard Time),213876.5,1900,I,z,746,16,3,2658.800000011921,211217.69999998808,8048,NTS,C,14
6,15,test,1,B,triangle.png,1,m,Tue Feb 10 2026 16:01:07 GMT-0600 (Central Standard Time),216060.19999998808,1500,I,m,652,13,3,2179.2999999523163,213880.90000003576,8048,NTS,C,15
3,16,test,1,B,triangle.png,1,z,Tue Feb 10 2026 16:01:07 GMT-0600 (Central Standard Time),218691.90000003576,2000,I,z,614,11,3,2627.7000000476837,216064.19999998808,8048,NTS,C,16
1,17,test,1,B,triangle.png,1,z,Tue Feb 10 2026 16:01:07 GMT-0600 (Central Standard Time),220490.69999998808,1400,I,z,381,9,3,1795.5,218695.19999998808,8048,NTS,C,17
2,18,test,1,B,triangle.png,1,m,Tue Feb 10 2026 16:01:07 GMT-0600 (Central Standard Time),222211.0,1200,I,m,503,10,3,1712.800000011921,220498.19999998808,8048,NTS,C,18
7,19,test,1,B,triangle.png,1,z,Tue Feb 10 2026 16:01:07 GMT-0600 (Central Standard Time),224907.19999998808,2000,I,z,665,6,3,2690.599999964237,222216.60000002384,8048,NTS,C,19
3,20,test,1,B,triangle.png,1,z,Tue Feb 10 2026 16:01:07 GMT-0600 (Central Standard Time),227238.60000002384,1600,I,z,703,3,3,2325.400000035763,224913.19999998808,8048,NTS,C,20
9,21,test,1,B,triangle.png,1,z,Tue Feb 10 2026 16:01:07 GMT-0600 (Central Standard Time),229405.0,1400,I,z,736,8,3,2159.099999964237,227245.90000003576,8048,NTS,C,21
6,22,test,1,B,triangle.png,1,m,Tue Feb 10 2026 16:01:07 GMT-0600 (Central Standard Time),231204.60000002384,1000,I,m,766,5,3,1794.300000011921,229410.30000001192,8048,NTS,C,22
6,23,test,1,B,triangle.png,1,m,Tue Feb 10 2026 16:01:07 GMT-0600 (Central Standard Time),233137.5,1500,I,m,409,13,3,1928.199999988079,231209.30000001192,8048,NTS,C,23
9,24,test,1,B,triangle.png,1,z,Tue Feb 10 2026 16:01:07 GMT-0600 (Central Standard Time),235070.0,1400,I,z,503,8,3,1929.199999988079,233140.80000001192,8048,NTS,C,24
6,1,prac,1,C,circle.png,1,m,Tue Feb 10 2026 16:01:07 GMT-0600 (Central Standard Time),255198.0,2000,I,m,744,5,3,3525.399999976158,251672.60000002384,8048,NTS,C,1
1,2,prac,1,C,circle.png,1,z,Tue Feb 10 2026 16:01:07 GMT-0600 (Central Standard Time),258461.69999998808,1700,I,z,768,1,3,3255.899999976158,255205.80000001192,8048,NTS,C,2
4,2,prac,1,C,circle.png,0,z,Tue Feb 10 2026 16:01:07 GMT-0600 (Central Standard Time),260913.10000002384,1000,I,m,651,4,3,2447.699999988079,258465.40000003576,8048,NTS,C,3
8,3,prac,1,C,triangle.png,1,m,Tue Feb 10 2026 16:01:07 GMT-0600 (Central Standard Time),263844.10000002384,1400,I,m,737,7,3,2925.400000035763,260918.69999998808,8048,NTS,C,4
2,4,prac,1,C,triangle.png,1,m,Tue Feb 10 2026 16:01:07 GMT-0600 (Central Standard Time),266894.8000000119,1600,I,m,656,2,3,3046.399999976158,263848.40000003576,8048,NTS,C,5
7,4,prac,1,C,triangle.png,0,z,Tue Feb 10 2026 16:01:07 GMT-0600 (Central Standard Time),269642.10000002384,1200,I,m,758,6,3,2741.300000011921,266900.8000000119,8048,NTS,C,6
9,4,prac,1,C,circle.png,0,m,Tue Feb 10 2026 16:01:07 GMT-0600 (Central Standard Time),273375.40000003576,1900,I,z,1034,8,3,3725.100000023842,269650.3000000119,8048,NTS,C,7
4,5,prac,1,C,circle.png,1,z,Tue Feb 10 2026 16:01:07 GMT-0600 (Central Standard Time),276290.6999999881,1000,I,z,1146,4,3,2910.5,273380.1999999881,8048,NTS,C,8
2,6,prac,1,C,triangle.png,1,m,Tue Feb 10 2026 16:01:07 GMT-0600 (Central Standard Time),279706.3000000119,1600,I,m,1033,2,3,3410.0,276296.3000000119,8048,NTS,C,9
1,7,prac,1,C,circle.png,1,z,Tue Feb 10 2026 16:01:07 GMT-0600 (Central Standard Time),282805.0,1700,I,z,612,1,3,3092.099999964237,279712.90000003576,8048,NTS,C,10
3,7,prac,1,C,triangle.png,0,z,Tue Feb 10 2026 16:01:07 GMT-0600 (Central Standard Time),286120.5,1500,I,m,1032,3,3,3309.300000011921,282811.1999999881,8048,NTS,C,11
9,8,prac,1,C,circle.png,1,m,Tue Feb 10 2026 16:01:07 GMT-0600 (Central Standard Time),289769.1999999881,1900,I,m,947,8,3,3642.599999964237,286126.60000002384,8048,NTS,C,12
2,1,test,1,C,circle.png,1,z,Tue Feb 10 2026 16:01:07 GMT-0600 (Central Standard Time),299331.40000003576,1700,I,z,655,18,3,2376.900000035763,296954.5,8048,NTS,C,1
7,1,test,1,C,triangle.png,0,z,Tue Feb 10 2026 16:01:07 GMT-0600 (Central Standard Time),302565.10000002384,1700,I,None,1516,6,3,3226.600000023842,299338.5,8048,NTS,C,2
1,2,test,1,C,triangle.png,1,z,Tue Feb 10 2026 16:01:07 GMT-0600 (Central Standard Time),305114.6999999881,1900,I,z,617,9,3,2545.899999976158,302568.8000000119,8048,NTS,C,3
3,3,test,1,C,circle.png,1,z,Tue Feb 10 2026 16:01:07 GMT-0600 (Central Standard Time),307179.8000000119,1600,I,z,446,11,3,2062.100000023842,305117.6999999881,8048,NTS,C,4
7,4,test,1,C,triangle.png,1,z,Tue Feb 10 2026 16:01:07 GMT-0600 (Central Standard Time),309379.90000003576,1700,I,z,472,22,3,2196.800000011921,307183.10000002384,8048,NTS,C,5
6,5,test,1,C,circle.png,1,m,Tue Feb 10 2026 16:01:07 GMT-0600 (Central Standard Time),311930.6999999881,1900,I,m,618,21,3,2546.199999988079,309384.5,8048,NTS,C,6
2,5,test,1,C,triangle.png,0,m,Tue Feb 10 2026 16:01:07 GMT-0600 (Central Standard Time),314577.40000003576,2000,I,z,632,2,3,2642.400000035763,311935.0,8048,NTS,C,7
3,5,test,1,C,triangle.png,0,z,Tue Feb 10 2026 16:01:07 GMT-0600 (Central Standard Time),317310.0,1200,I,None,1516,3,3,2729.699999988079,314580.3000000119,8048,NTS,C,8
8,6,test,1,C,circle.png,1,m,Tue Feb 10 2026 16:01:07 GMT-0600 (Central Standard Time),319244.8000000119,1200,I,m,707,15,3,1930.0,317314.8000000119,8048,NTS,C,9
6,7,test,1,C,triangle.png,1,m,Tue Feb 10 2026 16:01:07 GMT-0600 (Central Standard Time),321393.10000002384,1000,I,m,1119,13,3,2143.800000011921,319249.3000000119,8048,NTS,C,10
8,8,test,1,C,triangle.png,1,m,Tue Feb 10 2026 16:01:07 GMT-0600 (Central Standard Time),323728.6999999881,1600,I,m,702,7,3,2329.5,321399.1999999881,8048,NTS,C,11
9,9,test,1,C,triangle.png,1,z,Tue Feb 10 2026 16:01:07 GMT-0600 (Central Standard Time),325740.5,1400,I,z,588,16,3,2007.699999988079,323732.8000000119,8048,NTS,C,12
3,10,test,1,C,circle.png,1,z,Tue Feb 10 2026 16:01:07 GMT-0600 (Central Standard Time),328139.5,1600,I,z,773,19,3,2394.300000011921,325745.1999999881,8048,NTS,C,13
2,11,test,1,C,circle.png,1,z,Tue Feb 10 2026 16:01:07 GMT-0600 (Central Standard Time),330923.90000003576,1700,I,z,1049,10,3,2779.0,328144.90000003576,8048,NTS,C,14
7,12,test,1,C,circle.png,1,m,Tue Feb 10 2026 16:01:07 GMT-0600 (Central Standard Time),333639.10000002384,2000,I,m,686,14,3,2711.900000035763,330927.1999999881,8048,NTS,C,15
6,13,test,1,C,circle.png,1,m,Tue Feb 10 2026 16:01:07 GMT-0600 (Central Standard Time),336292.6999999881,1900,I,m,737,5,3,2649.0,333643.6999999881,8048,NTS,C,16
8,14,test,1,C,triangle.png,1,m,Tue Feb 10 2026 16:01:07 GMT-0600 (Central Standard Time),339119.60000002384,1600,I,m,1210,23,3,2824.199999988079,336295.40000003576,8048,NTS,C,17
1,15,test,1,C,circle.png,1,z,Tue Feb 10 2026 16:01:07 GMT-0600 (Central Standard Time),340819.40000003576,1000,I,z,673,1,3,1694.6000000238419,339124.8000000119,8048,NTS,C,18
4,16,test,1,C,triangle.png,1,m,Tue Feb 10 2026 16:01:07 GMT-0600 (Central Standard Time),343118.90000003576,1500,I,m,774,20,3,2293.5,340825.40000003576,8048,NTS,C,19
4,17,test,1,C,triangle.png,1,m,Tue Feb 10 2026 16:01:07 GMT-0600 (Central Standard Time),345150.90000003576,1500,I,m,510,12,3,2026.5,343124.40000003576,8048,NTS,C,20
9,18,test,1,C,circle.png,1,m,Tue Feb 10 2026 16:01:07 GMT-0600 (Central Standard Time),347569.3000000119,1500,I,m,893,24,3,2412.300000011921,345157.0,8048,NTS,C,21
9,19,test,1,C,circle.png,1,m,Tue Feb 10 2026 16:01:07 GMT-0600 (Central Standard Time),349549.8000000119,1500,I,m,462,8,3,1974.5,347575.3000000119,8048,NTS,C,22
1,20,test,1,C,triangle.png,1,z,Tue Feb 10 2026 16:01:07 GMT-0600 (Central Standard Time),352398.40000003576,1900,I,z,919,17,3,2842.7000000476837,349555.6999999881,8048,NTS,C,23
4,21,test,1,C,circle.png,1,z,Tue Feb 10 2026 16:01:07 GMT-0600 (Central Standard Time),354815.0,1400,I,z,986,4,3,2412.199999988079,352402.8000000119,8048,NTS,C,24
2,1,test,2,C,circle.png,1,z,Tue Feb 10 2026 16:01:07 GMT-0600 (Central Standard Time),362112.6999999881,1700,I,z,742,18,3,2461.0,359651.6999999881,8048,NTS,C,1
2,2,test,2,C,circle.png,1,z,Tue Feb 10 2026 16:01:07 GMT-0600 (Central Standard Time),364262.40000003576,1700,I,z,420,10,3,2145.300000011921,362117.10000002384,8048,NTS,C,2
9,3,test,2,C,triangle.png,1,z,Tue Feb 10 2026 16:01:07 GMT-0600 (Central Standard Time),366694.6999999881,1400,I,z,1012,16,3,2428.399999976158,364266.3000000119,8048,NTS,C,3
3,4,test,2,C,circle.png,1,z,Tue Feb 10 2026 16:01:07 GMT-0600 (Central Standard Time),369176.90000003576,1600,I,z,858,19,3,2477.300000011921,366699.60000002384,8048,NTS,C,4
4,5,test,2,C,triangle.png,1,m,Tue Feb 10 2026 16:01:07 GMT-0600 (Central Standard Time),371442.60000002384,1500,I,m,747,12,3,2260.0,369182.60000002384,8048,NTS,C,5
7,6,test,2,C,circle.png,1,m,Tue Feb 10 2026 16:01:07 GMT-0600 (Central Standard Time),374257.1999999881,2000,I,m,790,22,3,2810.899999976158,371446.3000000119,8048,NTS,C,6
7,7,test,2,C,triangle.png,1,z,Tue Feb 10 2026 16:01:07 GMT-0600 (Central Standard Time),376858.90000003576,1700,I,z,868,6,3,2598.900000035763,374260.0,8048,NTS,C,7
1,8,test,2,C,triangle.png,1,z,Tue Feb 10 2026 16:01:07 GMT-0600 (Central Standard Time),379373.5,1900,I,z,596,9,3,2508.800000011921,376864.6999999881,8048,NTS,C,8
7,9,test,2,C,circle.png,1,m,Tue Feb 10 2026 16:01:07 GMT-0600 (Central Standard Time),382089.6999999881,2000,I,m,691,14,3,2710.599999964237,379379.10000002384,8048,NTS,C,9
8,10,test,2,C,circle.png,1,m,Tue Feb 10 2026 16:01:07 GMT-0600 (Central Standard Time),383873.40000003576,1200,I,m,551,23,3,1779.9000000357628,382093.5,8048,NTS,C,10
6,10,test,2,C,triangle.png,0,m,Tue Feb 10 2026 16:01:07 GMT-0600 (Central Standard Time),386022.3000000119,1000,I,z,1127,21,3,2144.300000011921,383878.0,8048,NTS,C,11
9,11,test,2,C,triangle.png,1,z,Tue Feb 10 2026 16:01:07 GMT-0600 (Central Standard Time),388671.3000000119,1400,I,z,1219,24,3,2644.899999976158,386026.40000003576,8048,NTS,C,12
3,12,test,2,C,triangle.png,1,z,Tue Feb 10 2026 16:01:07 GMT-0600 (Central Standard Time),390588.40000003576,1200,I,z,685,3,3,1912.300000011921,388676.10000002384,8048,NTS,C,13
1,13,test,2,C,triangle.png,1,z,Tue Feb 10 2026 16:01:07 GMT-0600 (Central Standard Time),393119.8000000119,1900,I,z,600,17,3,2527.5,390592.3000000119,8048,NTS,C,14
9,14,test,2,C,circle.png,1,m,Tue Feb 10 2026 16:01:07 GMT-0600 (Central Standard Time),395235.8000000119,1500,I,m,588,8,3,2110.699999988079,393125.10000002384,8048,NTS,C,15
4,15,test,2,C,circle.png,1,z,Tue Feb 10 2026 16:01:07 GMT-0600 (Central Standard Time),397301.10000002384,1400,I,z,645,4,3,2062.199999988079,395238.90000003576,8048,NTS,C,16
4,15,test,2,C,triangle.png,0,m,Tue Feb 10 2026 16:01:07 GMT-0600 (Central Standard Time),399850.8000000119,1500,I,z,1022,20,3,2546.899999976158,397303.90000003576,8048,NTS,C,17
1,16,test,2,C,circle.png,1,z,Tue Feb 10 2026 16:01:07 GMT-0600 (Central Standard Time),401885.6999999881,1000,I,z,1005,1,3,2028.3999999761581,399857.3000000119,8048,NTS,C,18
6,17,test,2,C,circle.png,1,m,Tue Feb 10 2026 16:01:07 GMT-0600 (Central Standard Time),404932.1999999881,1900,I,m,1122,5,3,3041.899999976158,401890.3000000119,8048,NTS,C,19
8,17,test,2,C,triangle.png,0,m,Tue Feb 10 2026 16:01:07 GMT-0600 (Central Standard Time),407582.8000000119,1600,I,z,1029,7,3,2643.5,404939.3000000119,8048,NTS,C,20
2,18,test,2,C,triangle.png,1,m,Tue Feb 10 2026 16:01:07 GMT-0600 (Central Standard Time),410514.40000003576,2000,I,m,915,2,3,2927.0,407587.40000003576,8048,NTS,C,21
6,19,test,2,C,triangle.png,1,m,Tue Feb 10 2026 16:01:07 GMT-0600 (Central Standard Time),412097.90000003576,1000,I,m,567,13,3,1580.9000000357628,410517.0,8048,NTS,C,22
8,20,test,2,C,circle.png,1,m,Tue Feb 10 2026 16:01:07 GMT-0600 (Central Standard Time),413882.3000000119,1200,I,m,551,15,3,1780.0,412102.3000000119,8048,NTS,C,23
3,20,test,2,C,circle.png,0,z,Tue Feb 10 2026 16:01:07 GMT-0600 (Central Standard Time),416180.60000002384,1600,I,m,683,11,3,2294.199999988079,413886.40000003576,8048,NTS,C,24
1,1,test,3,C,circle.png,1,z,Tue Feb 10 2026 16:01:07 GMT-0600 (Central Standard Time),419427.5,1000,I,z,806,17,3,1827.5999999642372,417599.90000003576,8048,NTS,C,1
6,2,test,3,C,circle.png,1,m,Tue Feb 10 2026 16:01:07 GMT-0600 (Central Standard Time),421944.0,1900,I,m,586,5,3,2512.899999976158,419431.10000002384,8048,NTS,C,2
3,3,test,3,C,triangle.png,1,z,Tue Feb 10 2026 16:01:07 GMT-0600 (Central Standard Time),424195.3000000119,1200,I,z,1034,3,3,2247.0,421948.3000000119,8048,NTS,C,3
1,4,test,3,C,circle.png,1,z,Tue Feb 10 2026 16:01:07 GMT-0600 (Central Standard Time),425925.40000003576,1000,I,z,710,1,3,1726.2000000476837,424199.1999999881,8048,NTS,C,4
6,5,test,3,C,circle.png,1,m,Tue Feb 10 2026 16:01:07 GMT-0600 (Central Standard Time),428624.6999999881,1900,I,m,775,21,3,2696.5,425928.1999999881,8048,NTS,C,5
4,6,test,3,C,triangle.png,1,m,Tue Feb 10 2026 16:01:07 GMT-0600 (Central Standard Time),430990.8000000119,1500,I,m,844,12,3,2361.800000011921,428629.0,8048,NTS,C,6
2,7,test,3,C,triangle.png,1,m,Tue Feb 10 2026 16:01:07 GMT-0600 (Central Standard Time),433657.5,2000,I,m,643,2,3,2663.599999964237,430993.90000003576,8048,NTS,C,7
7,8,test,3,C,circle.png,1,m,Tue Feb 10 2026 16:01:07 GMT-0600 (Central Standard Time),436372.1999999881,2000,I,m,683,14,3,2712.099999964237,433660.10000002384,8048,NTS,C,8
8,9,test,3,C,triangle.png,1,m,Tue Feb 10 2026 16:01:07 GMT-0600 (Central Standard Time),438589.0,1600,I,m,598,23,3,2211.699999988079,436377.3000000119,8048,NTS,C,9
8,10,test,3,C,triangle.png,1,m,Tue Feb 10 2026 16:01:07 GMT-0600 (Central Standard Time),440803.6999999881,1600,I,m,586,7,3,2210.899999976158,438592.8000000119,8048,NTS,C,10
9,11,test,3,C,circle.png,1,m,Tue Feb 10 2026 16:01:07 GMT-0600 (Central Standard Time),442870.3000000119,1500,I,m,545,24,3,2064.0,440806.3000000119,8048,NTS,C,11
6,12,test,3,C,triangle.png,1,m,Tue Feb 10 2026 16:01:07 GMT-0600 (Central Standard Time),444469.6999999881,1000,I,m,570,13,3,1595.8999999761581,442873.8000000119,8048,NTS,C,12
1,13,test,3,C,triangle.png,1,z,Tue Feb 10 2026 16:01:07 GMT-0600 (Central Standard Time),446968.10000002384,1900,I,z,576,9,3,2492.199999988079,444475.90000003576,8048,NTS,C,13
9,14,test,3,C,triangle.png,1,z,Tue Feb 10 2026 16:01:07 GMT-0600 (Central Standard Time),449268.90000003576,1400,I,z,881,16,3,2296.0,446972.90000003576,8048,NTS,C,14
3,15,test,3,C,triangle.png,1,z,Tue Feb 10 2026 16:01:07 GMT-0600 (Central Standard Time),450950.90000003576,1200,I,z,453,19,3,1673.1000000238419,449277.8000000119,8048,NTS,C,15
2,16,test,3,C,triangle.png,1,m,Tue Feb 10 2026 16:01:07 GMT-0600 (Central Standard Time),453699.5,2000,I,m,721,18,3,2741.300000011921,450958.1999999881,8048,NTS,C,16
4,16,test,3,C,circle.png,0,z,Tue Feb 10 2026 16:01:07 GMT-0600 (Central Standard Time),455816.0,1400,I,m,686,4,3,2113.800000011921,453702.1999999881,8048,NTS,C,17
7,16,test,3,C,triangle.png,0,z,Tue Feb 10 2026 16:01:07 GMT-0600 (Central Standard Time),458166.3000000119,1700,I,m,621,22,3,2343.300000011921,455823.0,8048,NTS,C,18
2,17,test,3,C,circle.png,1,z,Tue Feb 10 2026 16:01:07 GMT-0600 (Central Standard Time),460618.40000003576,1700,I,z,728,10,3,2447.5,458170.90000003576,8048,NTS,C,19
3,18,test,3,C,circle.png,1,z,Tue Feb 10 2026 16:01:07 GMT-0600 (Central Standard Time),462830.3000000119,1600,I,z,588,11,3,2208.699999988079,460621.60000002384,8048,NTS,C,20
4,19,test,3,C,circle.png,1,z,Tue Feb 10 2026 16:01:07 GMT-0600 (Central Standard Time),465096.10000002384,1400,I,z,843,20,3,2258.100000023842,462838.0,8048,NTS,C,21
8,20,test,3,C,circle.png,1,m,Tue Feb 10 2026 16:01:07 GMT-0600 (Central Standard Time),467229.1999999881,1200,I,m,912,15,3,2128.199999988079,465101.0,8048,NTS,C,22
9,21,test,3,C,circle.png,1,m,Tue Feb 10 2026 16:01:07 GMT-0600 (Central Standard Time),469378.3000000119,1500,I,m,632,8,3,2145.5,467232.8000000119,8048,NTS,C,23
7,22,test,3,C,triangle.png,1,z,Tue Feb 10 2026 16:01:07 GMT-0600 (Central Standard Time),472210.60000002384,1700,I,z,1114,6,3,2823.199999988079,469387.40000003576,8048,NTS,C,24
4,1,test,4,C,circle.png,1,z,Tue Feb 10 2026 16:01:07 GMT-0600 (Central Standard Time),475860.60000002384,1400,I,z,773,20,3,2193.100000023842,473667.5,8048,NTS,C,1
4,2,test,4,C,triangle.png,1,m,Tue Feb 10 2026 16:01:07 GMT-0600 (Central Standard Time),478175.8000000119,1500,I,m,783,12,3,2310.899999976158,475864.90000003576,8048,NTS,C,2
8,3,test,4,C,triangle.png,1,m,Tue Feb 10 2026 16:01:07 GMT-0600 (Central Standard Time),480409.3000000119,1600,I,m,600,23,3,2229.399999976158,478179.90000003576,8048,NTS,C,3
6,4,test,4,C,circle.png,1,m,Tue Feb 10 2026 16:01:07 GMT-0600 (Central Standard Time),483140.60000002384,1900,I,m,803,5,3,2725.900000035763,480414.6999999881,8048,NTS,C,4
8,5,test,4,C,triangle.png,1,m,Tue Feb 10 2026 16:01:07 GMT-0600 (Central Standard Time),485389.3000000119,1600,I,m,628,7,3,2244.100000023842,483145.1999999881,8048,NTS,C,5
7,6,test,4,C,triangle.png,1,z,Tue Feb 10 2026 16:01:07 GMT-0600 (Central Standard Time),487889.8000000119,1700,I,z,783,22,3,2496.0,485393.8000000119,8048,NTS,C,6
9,7,test,4,C,circle.png,1,m,Tue Feb 10 2026 16:01:07 GMT-0600 (Central Standard Time),490072.40000003576,1500,I,m,651,24,3,2179.2000000476837,487893.1999999881,8048,NTS,C,7
7,8,test,4,C,circle.png,1,m,Tue Feb 10 2026 16:01:07 GMT-0600 (Central Standard Time),492887.6999999881,2000,I,m,793,14,3,2811.899999976158,490075.8000000119,8048,NTS,C,8
2,9,test,4,C,triangle.png,1,m,Tue Feb 10 2026 16:01:07 GMT-0600 (Central Standard Time),495753.90000003576,2000,I,m,843,2,3,2860.300000011921,492893.60000002384,8048,NTS,C,9
7,10,test,4,C,triangle.png,1,z,Tue Feb 10 2026 16:01:07 GMT-0600 (Central Standard Time),498219.3000000119,1700,I,z,740,6,3,2462.199999988079,495757.10000002384,8048,NTS,C,10
6,11,test,4,C,triangle.png,1,m,Tue Feb 10 2026 16:01:07 GMT-0600 (Central Standard Time),499969.6999999881,1000,I,m,734,13,3,1745.7999999523163,498223.90000003576,8048,NTS,C,11
3,12,test,4,C,circle.png,1,z,Tue Feb 10 2026 16:01:07 GMT-0600 (Central Standard Time),502317.1999999881,1600,I,z,729,11,3,2343.5,499973.6999999881,8048,NTS,C,12
6,13,test,4,C,circle.png,1,m,Tue Feb 10 2026 16:01:07 GMT-0600 (Central Standard Time),504817.10000002384,1900,I,m,575,21,3,2495.400000035763,502321.6999999881,8048,NTS,C,13
1,14,test,4,C,circle.png,1,z,Tue Feb 10 2026 16:01:07 GMT-0600 (Central Standard Time),506499.6999999881,1000,I,z,656,1,3,1679.0,504820.6999999881,8048,NTS,C,14
9,15,test,4,C,circle.png,1,m,Tue Feb 10 2026 16:01:07 GMT-0600 (Central Standard Time),508549.60000002384,1500,I,m,519,8,3,2047.199999988079,506502.40000003576,8048,NTS,C,15
1,16,test,4,C,circle.png,1,z,Tue Feb 10 2026 16:01:07 GMT-0600 (Central Standard Time),510115.6999999881,1000,I,z,539,17,3,1562.5999999642372,508553.10000002384,8048,NTS,C,16
3,17,test,4,C,triangle.png,1,z,Tue Feb 10 2026 16:01:07 GMT-0600 (Central Standard Time),512282.0,1200,I,z,949,19,3,2163.099999964237,510118.90000003576,8048,NTS,C,17
2,18,test,4,C,circle.png,1,z,Tue Feb 10 2026 16:01:07 GMT-0600 (Central Standard Time),514713.90000003576,1700,I,z,709,10,3,2427.900000035763,512286.0,8048,NTS,C,18
2,18,test,4,C,triangle.png,0,m,Tue Feb 10 2026 16:01:07 GMT-0600 (Central Standard Time),517630.6999999881,2000,I,z,895,18,3,2914.0,514716.6999999881,8048,NTS,C,19
1,19,test,4,C,triangle.png,1,z,Tue Feb 10 2026 16:01:07 GMT-0600 (Central Standard Time),520061.60000002384,1900,I,z,503,9,3,2427.400000035763,517634.1999999881,8048,NTS,C,20
3,20,test,4,C,triangle.png,1,z,Tue Feb 10 2026 16:01:07 GMT-0600 (Central Standard Time),521895.1999999881,1200,I,z,603,3,3,1829.2999999523163,520065.90000003576,8048,NTS,C,21
8,21,test,4,C,circle.png,1,m,Tue Feb 10 2026 16:01:07 GMT-0600 (Central Standard Time),523793.40000003576,1200,I,m,664,15,3,1892.6000000238419,521900.8000000119,8048,NTS,C,22
4,22,test,4,C,circle.png,1,z,Tue Feb 10 2026 16:01:07 GMT-0600 (Central Standard Time),526077.4000000358,1400,I,z,854,4,3,2281.2000000476837,523796.1999999881,8048,NTS,C,23
9,22,test,4,C,triangle.png,0,z,Tue Feb 10 2026 16:01:07 GMT-0600 (Central Standard Time),528076.5,1400,I,m,572,16,3,1996.0,526080.5,8048,NTS,C,24
