Number,acc_sum,block,block_c,block_cond,con_img,correct,correct_response,datetime,endtime,jitter,project,response,response_time,row_sel,session_number,start_end,starttime,subject_id,task,task_vers,trial
3,0,prac,1,A,circle.png,0,z,Fri Sep 19 2025 15:25:00 GMT-0500 (Central Daylight Time),43906.39999985695,1200,I,None,1515,3,2,3492.5,40413.89999985695,8048,NTS,B,1
4,1,prac,1,A,circle.png,1,z,Fri Sep 19 2025 15:25:00 GMT-0500 (Central Daylight Time),46722.09999990463,1400,I,z,631,4,2,2807.0999999046326,43915.0,8048,NTS,B,2
1,2,prac,1,A,circle.png,1,z,Fri Sep 19 2025 15:25:00 GMT-0500 (Central Daylight Time),49338.09999990463,1000,I,z,830,1,2,2609.5999999046326,46728.5,8048,NTS,B,3
8,3,prac,1,A,circle.png,1,m,Fri Sep 19 2025 15:25:00 GMT-0500 (Central Daylight Time),52320.5,1600,I,m,583,7,2,2976.2000000476837,49344.299999952316,8048,NTS,B,4
9,4,prac,1,A,circle.png,1,m,Fri Sep 19 2025 15:25:00 GMT-0500 (Central Daylight Time),55036.39999985695,1500,I,m,429,8,2,2710.2999999523163,52326.09999990463,8048,NTS,B,5
9,5,prac,1,A,circle.png,1,m,Fri Sep 19 2025 15:25:00 GMT-0500 (Central Daylight Time),57718.700000047684,1500,I,m,385,8,2,2675.4000000953674,55043.299999952316,8048,NTS,B,6
4,6,prac,1,A,circle.png,1,z,Fri Sep 19 2025 15:25:00 GMT-0500 (Central Daylight Time),60484.39999985695,1400,I,z,503,4,2,2760.199999809265,57724.200000047684,8048,NTS,B,7
8,7,prac,1,A,circle.png,1,m,Fri Sep 19 2025 15:25:00 GMT-0500 (Central Daylight Time),63350.299999952316,1600,I,m,469,7,2,2859.0999999046326,60491.200000047684,8048,NTS,B,8
1,8,prac,1,A,circle.png,1,z,Fri Sep 19 2025 15:25:00 GMT-0500 (Central Daylight Time),65582.89999985695,1000,I,z,442,1,2,2226.699999809265,63356.200000047684,8048,NTS,B,9
6,9,prac,1,A,circle.png,1,m,Fri Sep 19 2025 15:25:00 GMT-0500 (Central Daylight Time),68898.5,1900,I,m,630,5,2,3309.7000000476837,65588.79999995232,8048,NTS,B,10
7,10,prac,1,A,circle.png,1,m,Fri Sep 19 2025 15:25:00 GMT-0500 (Central Daylight Time),71797.70000004768,1700,I,m,411,6,2,2893.9000000953674,68903.79999995232,8048,NTS,B,11
2,11,prac,1,A,circle.png,1,z,Fri Sep 19 2025 15:25:00 GMT-0500 (Central Daylight Time),75079.89999985695,2000,I,z,492,2,2,3276.0999999046326,71803.79999995232,8048,NTS,B,12
2,1,prac,1,B,triangle.png,1,m,Fri Sep 19 2025 15:25:00 GMT-0500 (Central Daylight Time),99888.89999985695,1700,I,m,1033,2,2,3528.0,96360.89999985695,8048,NTS,B,1
9,2,prac,1,B,triangle.png,1,z,Fri Sep 19 2025 15:25:00 GMT-0500 (Central Daylight Time),102721.29999995232,1400,I,z,649,8,2,2826.5,99894.79999995232,8048,NTS,B,2
6,3,prac,1,B,triangle.png,1,m,Fri Sep 19 2025 15:25:00 GMT-0500 (Central Daylight Time),105453.79999995232,1000,I,m,944,5,2,2727.2999999523163,102726.5,8048,NTS,B,3
1,4,prac,1,B,triangle.png,1,z,Fri Sep 19 2025 15:25:00 GMT-0500 (Central Daylight Time),108819.39999985695,1900,I,z,672,1,2,3360.199999809265,105459.20000004768,8048,NTS,B,4
3,4,prac,1,B,triangle.png,0,z,Fri Sep 19 2025 15:25:00 GMT-0500 (Central Daylight Time),112018.5,1600,I,m,814,3,2,3193.5,108825.0,8048,NTS,B,5
7,5,prac,1,B,triangle.png,1,z,Fri Sep 19 2025 15:25:00 GMT-0500 (Central Daylight Time),115850.39999985695,2000,I,z,1047,6,2,3826.0,112024.39999985695,8048,NTS,B,6
2,6,prac,1,B,triangle.png,1,m,Fri Sep 19 2025 15:25:00 GMT-0500 (Central Daylight Time),119266.09999990463,1700,I,m,931,2,2,3410.2000000476837,115855.89999985695,8048,NTS,B,7
4,7,prac,1,B,triangle.png,1,m,Fri Sep 19 2025 15:25:00 GMT-0500 (Central Daylight Time),122748.39999985695,1500,I,m,1195,4,2,3477.199999809265,119271.20000004768,8048,NTS,B,8
4,8,prac,1,B,triangle.png,1,m,Fri Sep 19 2025 15:25:00 GMT-0500 (Central Daylight Time),126497.29999995232,1500,I,m,1465,4,2,3743.4000000953674,122753.89999985695,8048,NTS,B,9
8,9,prac,1,B,triangle.png,1,m,Fri Sep 19 2025 15:25:00 GMT-0500 (Central Daylight Time),130005.89999985695,1200,I,m,1408,7,2,3503.199999809265,126502.70000004768,8048,NTS,B,10
6,10,prac,1,B,triangle.png,1,m,Fri Sep 19 2025 15:25:00 GMT-0500 (Central Daylight Time),132328.5,1000,I,m,533,5,2,2316.7000000476837,130011.79999995232,8048,NTS,B,11
1,11,prac,1,B,triangle.png,1,z,Fri Sep 19 2025 15:25:00 GMT-0500 (Central Daylight Time),135494.20000004768,1900,I,z,469,1,2,3160.100000143051,132334.09999990463,8048,NTS,B,12
8,1,test,1,A,circle.png,1,m,Fri Sep 19 2025 15:25:00 GMT-0500 (Central Daylight Time),153547.79999995232,1600,I,m,1037,7,2,2787.5,150760.29999995232,8048,NTS,B,1
7,2,test,1,A,circle.png,1,m,Fri Sep 19 2025 15:25:00 GMT-0500 (Central Daylight Time),156138.09999990463,1700,I,m,883,6,2,2584.7000000476837,153553.39999985695,8048,NTS,B,2
1,3,test,1,A,circle.png,1,z,Fri Sep 19 2025 15:25:00 GMT-0500 (Central Daylight Time),157987.0,1000,I,z,823,1,2,1844.9000000953674,156142.09999990463,8048,NTS,B,3
4,4,test,1,A,circle.png,1,z,Fri Sep 19 2025 15:25:00 GMT-0500 (Central Daylight Time),160419.70000004768,1400,I,z,1014,4,2,2429.100000143051,157990.59999990463,8048,NTS,B,4
4,5,test,1,A,circle.png,1,z,Fri Sep 19 2025 15:25:00 GMT-0500 (Central Daylight Time),162619.20000004768,1400,I,z,773,4,2,2195.300000190735,160423.89999985695,8048,NTS,B,5
2,6,test,1,A,circle.png,1,z,Fri Sep 19 2025 15:25:00 GMT-0500 (Central Daylight Time),165201.5,2000,I,z,550,2,2,2578.600000143051,162622.89999985695,8048,NTS,B,6
7,7,test,1,A,circle.png,1,m,Fri Sep 19 2025 15:25:00 GMT-0500 (Central Daylight Time),167367.59999990463,1700,I,m,436,6,2,2161.899999856949,165205.70000004768,8048,NTS,B,7
8,8,test,1,A,circle.png,1,m,Fri Sep 19 2025 15:25:00 GMT-0500 (Central Daylight Time),169866.79999995232,1600,I,m,881,7,2,2495.7000000476837,167371.09999990463,8048,NTS,B,8
2,9,test,1,A,circle.png,1,z,Fri Sep 19 2025 15:25:00 GMT-0500 (Central Daylight Time),172415.89999985695,2000,I,z,527,2,2,2545.5,169870.39999985695,8048,NTS,B,9
9,10,test,1,A,circle.png,1,m,Fri Sep 19 2025 15:25:00 GMT-0500 (Central Daylight Time),174498.59999990463,1500,I,m,557,8,2,2078.899999856949,172419.70000004768,8048,NTS,B,10
3,10,test,1,A,circle.png,0,z,Fri Sep 19 2025 15:25:00 GMT-0500 (Central Daylight Time),177217.29999995232,1200,I,None,1502,3,2,2714.0999999046326,174503.20000004768,8048,NTS,B,11
6,11,test,1,A,circle.png,1,m,Fri Sep 19 2025 15:25:00 GMT-0500 (Central Daylight Time),179547.09999990463,1900,I,m,415,5,2,2325.2000000476837,177221.89999985695,8048,NTS,B,12
4,12,test,1,A,circle.png,1,z,Fri Sep 19 2025 15:25:00 GMT-0500 (Central Daylight Time),181663.09999990463,1400,I,z,694,4,2,2112.2000000476837,179550.89999985695,8048,NTS,B,13
3,13,test,1,A,circle.png,1,z,Fri Sep 19 2025 15:25:00 GMT-0500 (Central Daylight Time),183346.0,1200,I,z,466,3,2,1678.5,181667.5,8048,NTS,B,14
7,14,test,1,A,circle.png,1,m,Fri Sep 19 2025 15:25:00 GMT-0500 (Central Daylight Time),185562.29999995232,1700,I,m,499,6,2,2212.5,183349.79999995232,8048,NTS,B,15
1,15,test,1,A,circle.png,1,z,Fri Sep 19 2025 15:25:00 GMT-0500 (Central Daylight Time),187094.79999995232,1000,I,z,511,1,2,1528.5,185566.29999995232,8048,NTS,B,16
6,16,test,1,A,circle.png,1,m,Fri Sep 19 2025 15:25:00 GMT-0500 (Central Daylight Time),189560.59999990463,1900,I,m,535,5,2,2461.5999999046326,187099.0,8048,NTS,B,17
8,17,test,1,A,circle.png,1,m,Fri Sep 19 2025 15:25:00 GMT-0500 (Central Daylight Time),191693.09999990463,1600,I,m,512,7,2,2128.5999999046326,189564.5,8048,NTS,B,18
9,18,test,1,A,circle.png,1,m,Fri Sep 19 2025 15:25:00 GMT-0500 (Central Daylight Time),193642.59999990463,1500,I,m,432,8,2,1945.7999999523163,191696.79999995232,8048,NTS,B,19
3,19,test,1,A,circle.png,1,z,Fri Sep 19 2025 15:25:00 GMT-0500 (Central Daylight Time),195292.20000004768,1200,I,z,422,3,2,1646.1000001430511,193646.09999990463,8048,NTS,B,20
3,20,test,1,A,circle.png,1,z,Fri Sep 19 2025 15:25:00 GMT-0500 (Central Daylight Time),196975.09999990463,1200,I,z,453,3,2,1679.2000000476837,195295.89999985695,8048,NTS,B,21
9,21,test,1,A,circle.png,1,m,Fri Sep 19 2025 15:25:00 GMT-0500 (Central Daylight Time),198957.59999990463,1500,I,m,462,8,2,1978.8999998569489,196978.70000004768,8048,NTS,B,22
6,22,test,1,A,circle.png,1,m,Fri Sep 19 2025 15:25:00 GMT-0500 (Central Daylight Time),201440.09999990463,1900,I,m,559,5,2,2478.7000000476837,198961.39999985695,8048,NTS,B,23
4,23,test,1,A,circle.png,1,z,Fri Sep 19 2025 15:25:00 GMT-0500 (Central Daylight Time),203356.29999995232,1400,I,z,496,4,2,1912.4000000953674,201443.89999985695,8048,NTS,B,24
2,1,test,1,B,triangle.png,1,m,Fri Sep 19 2025 15:25:00 GMT-0500 (Central Daylight Time),213719.79999995232,1200,I,m,927,10,2,2146.4000000953674,211573.39999985695,8048,NTS,B,1
8,2,test,1,B,triangle.png,1,m,Fri Sep 19 2025 15:25:00 GMT-0500 (Central Daylight Time),215402.5,1200,I,m,458,7,2,1678.6000001430511,213723.89999985695,8048,NTS,B,2
4,3,test,1,B,triangle.png,1,m,Fri Sep 19 2025 15:25:00 GMT-0500 (Central Daylight Time),216951.89999985695,1000,I,m,527,12,2,1545.6999998092651,215406.20000004768,8048,NTS,B,3
8,4,test,1,B,triangle.png,1,m,Fri Sep 19 2025 15:25:00 GMT-0500 (Central Daylight Time),219084.70000004768,1700,I,m,406,15,2,2128.800000190735,216955.89999985695,8048,NTS,B,4
1,5,test,1,B,triangle.png,1,z,Fri Sep 19 2025 15:25:00 GMT-0500 (Central Daylight Time),221467.29999995232,1900,I,z,465,1,2,2379.0999999046326,219088.20000004768,8048,NTS,B,5
8,6,test,1,B,triangle.png,1,m,Fri Sep 19 2025 15:25:00 GMT-0500 (Central Daylight Time),223783.20000004768,1700,I,m,586,15,2,2311.7000000476837,221471.5,8048,NTS,B,6
3,7,test,1,B,triangle.png,1,z,Fri Sep 19 2025 15:25:00 GMT-0500 (Central Daylight Time),226315.70000004768,2000,I,z,514,11,2,2528.5,223787.20000004768,8048,NTS,B,7
9,7,test,1,B,triangle.png,0,z,Fri Sep 19 2025 15:25:00 GMT-0500 (Central Daylight Time),229431.29999995232,1900,I,m,1194,16,2,3111.7000000476837,226319.59999990463,8048,NTS,B,8
8,8,test,1,B,triangle.png,1,m,Fri Sep 19 2025 15:25:00 GMT-0500 (Central Daylight Time),231180.89999985695,1200,I,m,530,7,2,1745.6999998092651,229435.20000004768,8048,NTS,B,9
7,9,test,1,B,triangle.png,1,z,Fri Sep 19 2025 15:25:00 GMT-0500 (Central Daylight Time),233863.29999995232,2000,I,z,661,6,2,2679.0,231184.29999995232,8048,NTS,B,10
9,9,test,1,B,triangle.png,0,z,Fri Sep 19 2025 15:25:00 GMT-0500 (Central Daylight Time),236429.20000004768,1900,I,m,646,16,2,2561.5,233867.70000004768,8048,NTS,B,11
1,10,test,1,B,triangle.png,1,z,Fri Sep 19 2025 15:25:00 GMT-0500 (Central Daylight Time),238495.29999995232,1400,I,z,636,9,2,2062.4000000953674,236432.89999985695,8048,NTS,B,12
4,11,test,1,B,triangle.png,1,m,Fri Sep 19 2025 15:25:00 GMT-0500 (Central Daylight Time),240694.5,1000,I,m,1170,12,2,2195.4000000953674,238499.09999990463,8048,NTS,B,13
2,11,test,1,B,triangle.png,0,m,Fri Sep 19 2025 15:25:00 GMT-0500 (Central Daylight Time),243377.0,1700,I,z,951,2,2,2678.7999999523163,240698.20000004768,8048,NTS,B,14
2,12,test,1,B,triangle.png,1,m,Fri Sep 19 2025 15:25:00 GMT-0500 (Central Daylight Time),246342.79999995232,1700,I,m,1236,2,2,2961.2000000476837,243381.59999990463,8048,NTS,B,15
6,13,test,1,B,triangle.png,1,m,Fri Sep 19 2025 15:25:00 GMT-0500 (Central Daylight Time),248442.0,1500,I,m,542,13,2,2094.4000000953674,246347.59999990463,8048,NTS,B,16
1,14,test,1,B,triangle.png,1,z,Fri Sep 19 2025 15:25:00 GMT-0500 (Central Daylight Time),250958.20000004768,1900,I,z,588,1,2,2512.4000000953674,248445.79999995232,8048,NTS,B,17
9,15,test,1,B,triangle.png,1,z,Fri Sep 19 2025 15:25:00 GMT-0500 (Central Daylight Time),253140.70000004768,1400,I,z,755,8,2,2178.2000000476837,250962.5,8048,NTS,B,18
6,16,test,1,B,triangle.png,1,m,Fri Sep 19 2025 15:25:00 GMT-0500 (Central Daylight Time),254824.5,1000,I,m,661,5,2,1680.4000000953674,253144.09999990463,8048,NTS,B,19
3,17,test,1,B,triangle.png,1,z,Fri Sep 19 2025 15:25:00 GMT-0500 (Central Daylight Time),257406.09999990463,2000,I,z,562,11,2,2577.399999856949,254828.70000004768,8048,NTS,B,20
2,18,test,1,B,triangle.png,1,m,Fri Sep 19 2025 15:25:00 GMT-0500 (Central Daylight Time),259405.29999995232,1200,I,m,771,10,2,1995.4000000953674,257409.89999985695,8048,NTS,B,21
4,19,test,1,B,triangle.png,1,m,Fri Sep 19 2025 15:25:00 GMT-0500 (Central Daylight Time),262304.39999985695,1500,I,m,1368,4,2,2895.5,259408.89999985695,8048,NTS,B,22
3,20,test,1,B,triangle.png,1,z,Fri Sep 19 2025 15:25:00 GMT-0500 (Central Daylight Time),264370.39999985695,1600,I,z,449,3,2,2062.399999856949,262308.0,8048,NTS,B,23
7,21,test,1,B,triangle.png,1,z,Fri Sep 19 2025 15:25:00 GMT-0500 (Central Daylight Time),267469.7999999523,1600,I,z,1471,14,2,3095.7999999523163,264374.0,8048,NTS,B,24
2,0,prac,1,C,triangle.png,0,m,Fri Sep 19 2025 15:25:00 GMT-0500 (Central Daylight Time),288496.2999999523,1600,I,None,1516,2,2,3893.7000000476837,284602.59999990463,8048,NTS,B,1
6,1,prac,1,C,circle.png,1,m,Fri Sep 19 2025 15:25:00 GMT-0500 (Central Daylight Time),292411.7999999523,2000,I,m,1121,5,2,3909.7000000476837,288502.09999990463,8048,NTS,B,2
4,2,prac,1,C,circle.png,1,z,Fri Sep 19 2025 15:25:00 GMT-0500 (Central Daylight Time),295069.7999999523,1000,I,z,782,4,2,2653.2999999523163,292416.5,8048,NTS,B,3
3,3,prac,1,C,triangle.png,1,z,Fri Sep 19 2025 15:25:00 GMT-0500 (Central Daylight Time),298526.59999990463,1500,I,z,1160,3,2,3449.399999856949,295077.2000000477,8048,NTS,B,4
4,4,prac,1,C,circle.png,1,z,Fri Sep 19 2025 15:25:00 GMT-0500 (Central Daylight Time),301159.0,1000,I,z,843,4,2,2627.4000000953674,298531.59999990463,8048,NTS,B,5
7,5,prac,1,C,triangle.png,1,z,Fri Sep 19 2025 15:25:00 GMT-0500 (Central Daylight Time),303841.59999990463,1200,I,z,691,6,2,2677.5,301164.09999990463,8048,NTS,B,6
7,6,prac,1,C,triangle.png,1,z,Fri Sep 19 2025 15:25:00 GMT-0500 (Central Daylight Time),306574.0,1200,I,z,744,6,2,2726.4000000953674,303847.59999990463,8048,NTS,B,7
1,7,prac,1,C,circle.png,1,z,Fri Sep 19 2025 15:25:00 GMT-0500 (Central Daylight Time),309956.2999999523,1700,I,z,888,1,2,3377.5999999046326,306578.7000000477,8048,NTS,B,8
8,8,prac,1,C,triangle.png,1,m,Fri Sep 19 2025 15:25:00 GMT-0500 (Central Daylight Time),313138.39999985695,1400,I,m,989,7,2,3176.7999999523163,309961.59999990463,8048,NTS,B,9
9,9,prac,1,C,circle.png,1,m,Fri Sep 19 2025 15:25:00 GMT-0500 (Central Daylight Time),316587.59999990463,1900,I,m,763,8,2,3443.7999999523163,313143.7999999523,8048,NTS,B,10
2,10,prac,1,C,triangle.png,1,m,Fri Sep 19 2025 15:25:00 GMT-0500 (Central Daylight Time),320003.0,1600,I,m,1022,2,2,3410.7000000476837,316592.2999999523,8048,NTS,B,11
3,11,prac,1,C,triangle.png,1,z,Fri Sep 19 2025 15:25:00 GMT-0500 (Central Daylight Time),323002.2000000477,1500,I,z,707,3,2,2993.5,320008.7000000477,8048,NTS,B,12
8,1,test,1,C,triangle.png,1,m,Fri Sep 19 2025 15:25:00 GMT-0500 (Central Daylight Time),333915.39999985695,1600,I,m,1240,7,2,2863.0,331052.39999985695,8048,NTS,B,1
7,2,test,1,C,triangle.png,1,z,Fri Sep 19 2025 15:25:00 GMT-0500 (Central Daylight Time),336564.39999985695,1700,I,z,923,22,2,2644.5,333919.89999985695,8048,NTS,B,2
4,3,test,1,C,triangle.png,1,m,Fri Sep 19 2025 15:25:00 GMT-0500 (Central Daylight Time),338930.2999999523,1500,I,m,841,12,2,2362.2000000476837,336568.09999990463,8048,NTS,B,3
3,4,test,1,C,circle.png,1,z,Fri Sep 19 2025 15:25:00 GMT-0500 (Central Daylight Time),341163.0,1600,I,z,615,19,2,2228.600000143051,338934.39999985695,8048,NTS,B,4
2,5,test,1,C,circle.png,1,z,Fri Sep 19 2025 15:25:00 GMT-0500 (Central Daylight Time),343578.7999999523,1700,I,z,698,18,2,2411.7000000476837,341167.09999990463,8048,NTS,B,5
3,6,test,1,C,triangle.png,1,z,Fri Sep 19 2025 15:25:00 GMT-0500 (Central Daylight Time),346094.7999999523,1200,I,z,1287,3,2,2511.9000000953674,343582.89999985695,8048,NTS,B,6
4,7,test,1,C,circle.png,1,z,Fri Sep 19 2025 15:25:00 GMT-0500 (Central Daylight Time),348660.59999990463,1400,I,z,1139,4,2,2561.7999999523163,346098.7999999523,8048,NTS,B,7
8,8,test,1,C,triangle.png,1,m,Fri Sep 19 2025 15:25:00 GMT-0500 (Central Daylight Time),351360.0,1600,I,m,1069,23,2,2695.7999999523163,348664.2000000477,8048,NTS,B,8
2,9,test,1,C,circle.png,1,z,Fri Sep 19 2025 15:25:00 GMT-0500 (Central Daylight Time),353792.39999985695,1700,I,z,710,10,2,2427.7999999523163,351364.59999990463,8048,NTS,B,9
9,10,test,1,C,circle.png,1,m,Fri Sep 19 2025 15:25:00 GMT-0500 (Central Daylight Time),356124.89999985695,1500,I,m,813,24,2,2328.699999809265,353796.2000000477,8048,NTS,B,10
7,11,test,1,C,triangle.png,1,z,Fri Sep 19 2025 15:25:00 GMT-0500 (Central Daylight Time),358840.7000000477,1700,I,z,993,6,2,2711.800000190735,356128.89999985695,8048,NTS,B,11
9,12,test,1,C,triangle.png,1,z,Fri Sep 19 2025 15:25:00 GMT-0500 (Central Daylight Time),361123.39999985695,1400,I,z,865,16,2,2279.0999999046326,358844.2999999523,8048,NTS,B,12
1,13,test,1,C,triangle.png,1,z,Fri Sep 19 2025 15:25:00 GMT-0500 (Central Daylight Time),363672.59999990463,1900,I,z,626,9,2,2545.0,361127.59999990463,8048,NTS,B,13
3,14,test,1,C,circle.png,1,z,Fri Sep 19 2025 15:25:00 GMT-0500 (Central Daylight Time),366205.09999990463,1600,I,z,913,11,2,2528.399999856949,363676.7000000477,8048,NTS,B,14
6,15,test,1,C,triangle.png,1,m,Fri Sep 19 2025 15:25:00 GMT-0500 (Central Daylight Time),368304.5,1000,I,m,1076,13,2,2095.100000143051,366209.39999985695,8048,NTS,B,15
9,16,test,1,C,circle.png,1,m,Fri Sep 19 2025 15:25:00 GMT-0500 (Central Daylight Time),370503.89999985695,1500,I,m,677,8,2,2195.2999999523163,368308.59999990463,8048,NTS,B,16
7,17,test,1,C,circle.png,1,m,Fri Sep 19 2025 15:25:00 GMT-0500 (Central Daylight Time),373886.2000000477,2000,I,m,1354,14,2,3378.2000000476837,370508.0,8048,NTS,B,17
6,18,test,1,C,circle.png,1,m,Fri Sep 19 2025 15:25:00 GMT-0500 (Central Daylight Time),376735.2000000477,1900,I,m,927,21,2,2845.100000143051,373890.09999990463,8048,NTS,B,18
1,19,test,1,C,circle.png,1,z,Fri Sep 19 2025 15:25:00 GMT-0500 (Central Daylight Time),378384.59999990463,1000,I,z,618,1,2,1645.2000000476837,376739.39999985695,8048,NTS,B,19
4,20,test,1,C,triangle.png,1,m,Fri Sep 19 2025 15:25:00 GMT-0500 (Central Daylight Time),380817.2000000477,1500,I,m,909,20,2,2428.600000143051,378388.59999990463,8048,NTS,B,20
6,21,test,1,C,circle.png,1,m,Fri Sep 19 2025 15:25:00 GMT-0500 (Central Daylight Time),383533.09999990463,1900,I,m,796,5,2,2712.399999856949,380820.7000000477,8048,NTS,B,21
2,22,test,1,C,triangle.png,1,m,Fri Sep 19 2025 15:25:00 GMT-0500 (Central Daylight Time),386782.2000000477,2000,I,m,1229,2,2,3245.300000190735,383536.89999985695,8048,NTS,B,22
8,23,test,1,C,circle.png,1,m,Fri Sep 19 2025 15:25:00 GMT-0500 (Central Daylight Time),388614.89999985695,1200,I,m,603,15,2,1828.7999999523163,386786.09999990463,8048,NTS,B,23
1,24,test,1,C,triangle.png,1,z,Fri Sep 19 2025 15:25:00 GMT-0500 (Central Daylight Time),391280.5,1900,I,z,735,17,2,2661.4000000953674,388619.09999990463,8048,NTS,B,24
7,1,test,2,C,circle.png,1,m,Fri Sep 19 2025 15:25:00 GMT-0500 (Central Daylight Time),395996.0,2000,I,m,698,22,2,2713.100000143051,393282.89999985695,8048,NTS,B,1
6,2,test,2,C,circle.png,1,m,Fri Sep 19 2025 15:25:00 GMT-0500 (Central Daylight Time),398495.0,1900,I,m,570,5,2,2492.5,396002.5,8048,NTS,B,2
3,3,test,2,C,triangle.png,1,z,Fri Sep 19 2025 15:25:00 GMT-0500 (Central Daylight Time),400627.59999990463,1200,I,z,914,3,2,2128.399999856949,398499.2000000477,8048,NTS,B,3
6,4,test,2,C,triangle.png,1,m,Fri Sep 19 2025 15:25:00 GMT-0500 (Central Daylight Time),402560.2999999523,1000,I,m,910,13,2,1928.9000000953674,400631.39999985695,8048,NTS,B,4
7,4,test,2,C,triangle.png,0,z,Fri Sep 19 2025 15:25:00 GMT-0500 (Central Daylight Time),404993.09999990463,1700,I,m,709,6,2,2428.7999999523163,402564.2999999523,8048,NTS,B,5
7,5,test,2,C,circle.png,1,m,Fri Sep 19 2025 15:25:00 GMT-0500 (Central Daylight Time),407842.09999990463,2000,I,m,825,14,2,2845.2999999523163,404996.7999999523,8048,NTS,B,6
4,6,test,2,C,triangle.png,1,m,Fri Sep 19 2025 15:25:00 GMT-0500 (Central Daylight Time),410424.59999990463,1500,I,m,1059,20,2,2578.7999999523163,407845.7999999523,8048,NTS,B,7
1,7,test,2,C,triangle.png,1,z,Fri Sep 19 2025 15:25:00 GMT-0500 (Central Daylight Time),413049.5,1900,I,z,708,9,2,2621.2000000476837,410428.2999999523,8048,NTS,B,8
1,8,test,2,C,circle.png,1,z,Fri Sep 19 2025 15:25:00 GMT-0500 (Central Daylight Time),414939.7999999523,1000,I,z,880,1,2,1885.5999999046326,413054.2000000477,8048,NTS,B,9
3,9,test,2,C,circle.png,1,z,Fri Sep 19 2025 15:25:00 GMT-0500 (Central Daylight Time),417539.09999990463,1600,I,z,974,19,2,2595.7000000476837,414943.39999985695,8048,NTS,B,10
6,10,test,2,C,triangle.png,1,m,Fri Sep 19 2025 15:25:00 GMT-0500 (Central Daylight Time),419655.09999990463,1000,I,m,1094,21,2,2112.2999999523163,417542.7999999523,8048,NTS,B,11
2,10,test,2,C,circle.png,0,z,Fri Sep 19 2025 15:25:00 GMT-0500 (Central Daylight Time),422271.0,1700,I,m,895,10,2,2612.100000143051,419658.89999985695,8048,NTS,B,12
9,11,test,2,C,triangle.png,1,z,Fri Sep 19 2025 15:25:00 GMT-0500 (Central Daylight Time),424770.2999999523,1400,I,z,1083,16,2,2495.5,422274.7999999523,8048,NTS,B,13
4,12,test,2,C,triangle.png,1,m,Fri Sep 19 2025 15:25:00 GMT-0500 (Central Daylight Time),427385.89999985695,1500,I,m,1092,12,2,2611.2999999523163,424774.59999990463,8048,NTS,B,14
8,13,test,2,C,circle.png,1,m,Fri Sep 19 2025 15:25:00 GMT-0500 (Central Daylight Time),429318.59999990463,1200,I,m,711,23,2,1928.0,427390.59999990463,8048,NTS,B,15
8,14,test,2,C,circle.png,1,m,Fri Sep 19 2025 15:25:00 GMT-0500 (Central Daylight Time),431184.89999985695,1200,I,m,635,15,2,1862.0999999046326,429322.7999999523,8048,NTS,B,16
4,15,test,2,C,circle.png,1,z,Fri Sep 19 2025 15:25:00 GMT-0500 (Central Daylight Time),433667.5,1400,I,z,1057,4,2,2478.600000143051,431188.89999985695,8048,NTS,B,17
2,16,test,2,C,triangle.png,1,m,Fri Sep 19 2025 15:25:00 GMT-0500 (Central Daylight Time),436733.09999990463,2000,I,m,1046,2,2,3061.5999999046326,433671.5,8048,NTS,B,18
2,17,test,2,C,circle.png,1,z,Fri Sep 19 2025 15:25:00 GMT-0500 (Central Daylight Time),439332.09999990463,1700,I,z,880,18,2,2595.0999999046326,436737.0,8048,NTS,B,19
9,18,test,2,C,circle.png,1,m,Fri Sep 19 2025 15:25:00 GMT-0500 (Central Daylight Time),441648.09999990463,1500,I,m,785,8,2,2312.0999999046326,439336.0,8048,NTS,B,20
3,19,test,2,C,circle.png,1,z,Fri Sep 19 2025 15:25:00 GMT-0500 (Central Daylight Time),444097.39999985695,1600,I,z,825,11,2,2445.2999999523163,441652.09999990463,8048,NTS,B,21
1,20,test,2,C,triangle.png,1,z,Fri Sep 19 2025 15:25:00 GMT-0500 (Central Daylight Time),447279.59999990463,1900,I,z,1260,17,2,3178.0999999046326,444101.5,8048,NTS,B,22
9,21,test,2,C,triangle.png,1,z,Fri Sep 19 2025 15:25:00 GMT-0500 (Central Daylight Time),449445.7000000477,1400,I,z,738,24,2,2162.300000190735,447283.39999985695,8048,NTS,B,23
8,22,test,2,C,triangle.png,1,m,Fri Sep 19 2025 15:25:00 GMT-0500 (Central Daylight Time),451961.39999985695,1600,I,m,892,7,2,2511.899999856949,449449.5,8048,NTS,B,24
3,1,test,3,C,circle.png,1,z,Fri Sep 19 2025 15:25:00 GMT-0500 (Central Daylight Time),456210.2999999523,1600,I,z,991,11,2,2612.9000000953674,453597.39999985695,8048,NTS,B,1
7,2,test,3,C,circle.png,1,m,Fri Sep 19 2025 15:25:00 GMT-0500 (Central Daylight Time),458909.2999999523,2000,I,m,671,14,2,2694.5999999046326,456214.7000000477,8048,NTS,B,2
6,3,test,3,C,circle.png,1,m,Fri Sep 19 2025 15:25:00 GMT-0500 (Central Daylight Time),461875.0,1900,I,m,1048,5,2,2962.100000143051,458912.89999985695,8048,NTS,B,3
4,4,test,3,C,triangle.png,1,m,Fri Sep 19 2025 15:25:00 GMT-0500 (Central Daylight Time),464441.09999990463,1500,I,m,1042,12,2,2559.2999999523163,461881.7999999523,8048,NTS,B,4
9,5,test,3,C,circle.png,1,m,Fri Sep 19 2025 15:25:00 GMT-0500 (Central Daylight Time),466523.7000000477,1500,I,m,557,8,2,2078.100000143051,464445.59999990463,8048,NTS,B,5
7,6,test,3,C,triangle.png,1,z,Fri Sep 19 2025 15:25:00 GMT-0500 (Central Daylight Time),469122.7999999523,1700,I,z,882,6,2,2595.2000000476837,466527.59999990463,8048,NTS,B,6
4,7,test,3,C,circle.png,1,z,Fri Sep 19 2025 15:25:00 GMT-0500 (Central Daylight Time),471338.7999999523,1400,I,z,799,4,2,2212.2999999523163,469126.5,8048,NTS,B,7
9,7,test,3,C,triangle.png,0,z,Fri Sep 19 2025 15:25:00 GMT-0500 (Central Daylight Time),473654.7999999523,1400,I,m,887,16,2,2312.2999999523163,471342.5,8048,NTS,B,8
1,8,test,3,C,circle.png,1,z,Fri Sep 19 2025 15:25:00 GMT-0500 (Central Daylight Time),475454.09999990463,1000,I,z,771,17,2,1795.5,473658.59999990463,8048,NTS,B,9
8,9,test,3,C,triangle.png,1,m,Fri Sep 19 2025 15:25:00 GMT-0500 (Central Daylight Time),477903.39999985695,1600,I,m,819,7,2,2445.5999999046326,475457.7999999523,8048,NTS,B,10
1,10,test,3,C,triangle.png,1,z,Fri Sep 19 2025 15:25:00 GMT-0500 (Central Daylight Time),480452.59999990463,1900,I,z,622,9,2,2545.2000000476837,477907.39999985695,8048,NTS,B,11
2,11,test,3,C,triangle.png,1,m,Fri Sep 19 2025 15:25:00 GMT-0500 (Central Daylight Time),483501.7000000477,2000,I,m,1021,2,2,3045.300000190735,480456.39999985695,8048,NTS,B,12
6,12,test,3,C,circle.png,1,m,Fri Sep 19 2025 15:25:00 GMT-0500 (Central Daylight Time),486200.89999985695,1900,I,m,768,21,2,2694.5999999046326,483506.2999999523,8048,NTS,B,13
6,12,test,3,C,triangle.png,0,m,Fri Sep 19 2025 15:25:00 GMT-0500 (Central Daylight Time),487850.2999999523,1000,I,z,625,13,2,1645.4000000953674,486204.89999985695,8048,NTS,B,14
8,13,test,3,C,triangle.png,1,m,Fri Sep 19 2025 15:25:00 GMT-0500 (Central Daylight Time),490416.2000000477,1600,I,m,943,23,2,2561.7000000476837,487854.5,8048,NTS,B,15
4,14,test,3,C,circle.png,1,z,Fri Sep 19 2025 15:25:00 GMT-0500 (Central Daylight Time),492665.59999990463,1400,I,z,817,20,2,2245.5,490420.09999990463,8048,NTS,B,16
3,15,test,3,C,triangle.png,1,z,Fri Sep 19 2025 15:25:00 GMT-0500 (Central Daylight Time),494931.2999999523,1200,I,z,1048,19,2,2261.7000000476837,492669.59999990463,8048,NTS,B,17
9,16,test,3,C,circle.png,1,m,Fri Sep 19 2025 15:25:00 GMT-0500 (Central Daylight Time),497030.7000000477,1500,I,m,578,24,2,2095.5,494935.2000000477,8048,NTS,B,18
1,17,test,3,C,circle.png,1,z,Fri Sep 19 2025 15:25:00 GMT-0500 (Central Daylight Time),498963.39999985695,1000,I,z,907,1,2,1928.5999999046326,497034.7999999523,8048,NTS,B,19
8,18,test,3,C,circle.png,1,m,Fri Sep 19 2025 15:25:00 GMT-0500 (Central Daylight Time),500762.89999985695,1200,I,m,574,15,2,1795.6999998092651,498967.2000000477,8048,NTS,B,20
2,18,test,3,C,circle.png,0,z,Fri Sep 19 2025 15:25:00 GMT-0500 (Central Daylight Time),503728.7000000477,1700,I,m,1243,10,2,2961.600000143051,500767.09999990463,8048,NTS,B,21
3,18,test,3,C,triangle.png,0,z,Fri Sep 19 2025 15:25:00 GMT-0500 (Central Daylight Time),506461.2000000477,1200,I,None,1516,3,2,2728.600000143051,503732.59999990463,8048,NTS,B,22
7,19,test,3,C,triangle.png,1,z,Fri Sep 19 2025 15:25:00 GMT-0500 (Central Daylight Time),509127.0,1700,I,z,944,22,2,2661.9000000953674,506465.09999990463,8048,NTS,B,23
2,20,test,3,C,triangle.png,1,m,Fri Sep 19 2025 15:25:00 GMT-0500 (Central Daylight Time),512225.7999999523,2000,I,m,1067,18,2,3094.9000000953674,509130.89999985695,8048,NTS,B,24
1,1,test,4,C,triangle.png,1,z,Fri Sep 19 2025 15:25:00 GMT-0500 (Central Daylight Time),516408.0,1900,I,z,1019,9,2,2945.9000000953674,513462.09999990463,8048,NTS,B,1
7,2,test,4,C,circle.png,1,m,Fri Sep 19 2025 15:25:00 GMT-0500 (Central Daylight Time),519223.89999985695,2000,I,m,794,14,2,2812.2999999523163,516411.59999990463,8048,NTS,B,2
2,3,test,4,C,circle.png,1,z,Fri Sep 19 2025 15:25:00 GMT-0500 (Central Daylight Time),521639.59999990463,1700,I,z,686,10,2,2412.0,519227.59999990463,8048,NTS,B,3
2,4,test,4,C,triangle.png,1,m,Fri Sep 19 2025 15:25:00 GMT-0500 (Central Daylight Time),524688.5999999046,2000,I,m,1018,2,2,3044.7999999523163,521643.7999999523,8048,NTS,B,4
6,5,test,4,C,circle.png,1,m,Fri Sep 19 2025 15:25:00 GMT-0500 (Central Daylight Time),527287.899999857,1900,I,m,677,5,2,2595.2999999523163,524692.5999999046,8048,NTS,B,5
8,6,test,4,C,circle.png,1,m,Fri Sep 19 2025 15:25:00 GMT-0500 (Central Daylight Time),529470.5999999046,1200,I,m,954,15,2,2178.5,527292.0999999046,8048,NTS,B,6
4,7,test,4,C,triangle.png,1,m,Fri Sep 19 2025 15:25:00 GMT-0500 (Central Daylight Time),531953.0999999046,1500,I,m,959,12,2,2478.5999999046326,529474.5,8048,NTS,B,7
9,8,test,4,C,triangle.png,1,z,Fri Sep 19 2025 15:25:00 GMT-0500 (Central Daylight Time),534069.0999999046,1400,I,z,688,16,2,2112.2999999523163,531956.7999999523,8048,NTS,B,8
8,8,test,4,C,triangle.png,0,m,Fri Sep 19 2025 15:25:00 GMT-0500 (Central Daylight Time),537018.2000000477,1600,I,z,1318,7,2,2945.4000000953674,534072.7999999523,8048,NTS,B,9
7,9,test,4,C,triangle.png,1,z,Fri Sep 19 2025 15:25:00 GMT-0500 (Central Daylight Time),539767.2000000477,1700,I,z,1027,6,2,2745.300000190735,537021.899999857,8048,NTS,B,10
9,10,test,4,C,circle.png,1,m,Fri Sep 19 2025 15:25:00 GMT-0500 (Central Daylight Time),542050.0,1500,I,m,750,24,2,2278.7999999523163,539771.2000000477,8048,NTS,B,11
2,11,test,4,C,triangle.png,1,m,Fri Sep 19 2025 15:25:00 GMT-0500 (Central Daylight Time),545215.5999999046,2000,I,m,1136,18,2,3161.5,542054.0999999046,8048,NTS,B,12
6,12,test,4,C,circle.png,1,m,Fri Sep 19 2025 15:25:00 GMT-0500 (Central Daylight Time),548114.5999999046,1900,I,m,974,21,2,2894.899999856949,545219.7000000477,8048,NTS,B,13
3,13,test,4,C,triangle.png,1,z,Fri Sep 19 2025 15:25:00 GMT-0500 (Central Daylight Time),550314.0999999046,1200,I,z,975,3,2,2194.399999856949,548119.7000000477,8048,NTS,B,14
8,14,test,4,C,triangle.png,1,m,Fri Sep 19 2025 15:25:00 GMT-0500 (Central Daylight Time),552880.0999999046,1600,I,m,936,23,2,2562.2000000476837,550317.899999857,8048,NTS,B,15
3,15,test,4,C,circle.png,1,z,Fri Sep 19 2025 15:25:00 GMT-0500 (Central Daylight Time),555195.899999857,1600,I,z,607,11,2,2311.7999999523163,552884.0999999046,8048,NTS,B,16
3,16,test,4,C,triangle.png,1,z,Fri Sep 19 2025 15:25:00 GMT-0500 (Central Daylight Time),557528.2999999523,1200,I,z,1102,19,2,2328.5999999046326,555199.7000000477,8048,NTS,B,17
1,16,test,4,C,circle.png,0,z,Fri Sep 19 2025 15:25:00 GMT-0500 (Central Daylight Time),559661.2000000477,1000,I,m,1113,1,2,2129.0,557532.2000000477,8048,NTS,B,18
6,17,test,4,C,triangle.png,1,m,Fri Sep 19 2025 15:25:00 GMT-0500 (Central Daylight Time),562077.0,1000,I,m,1396,13,2,2411.5,559665.5,8048,NTS,B,19
4,18,test,4,C,circle.png,1,z,Fri Sep 19 2025 15:25:00 GMT-0500 (Central Daylight Time),564226.399999857,1400,I,z,732,20,2,2145.5,562080.899999857,8048,NTS,B,20
4,19,test,4,C,circle.png,1,z,Fri Sep 19 2025 15:25:00 GMT-0500 (Central Daylight Time),566825.399999857,1400,I,z,1175,4,2,2595.0999999046326,564230.2999999523,8048,NTS,B,21
9,20,test,4,C,circle.png,1,m,Fri Sep 19 2025 15:25:00 GMT-0500 (Central Daylight Time),569091.5,1500,I,m,740,8,2,2261.9000000953674,566829.5999999046,8048,NTS,B,22
1,21,test,4,C,circle.png,1,z,Fri Sep 19 2025 15:25:00 GMT-0500 (Central Daylight Time),571007.399999857,1000,I,z,885,17,2,1911.7999999523163,569095.5999999046,8048,NTS,B,23
7,22,test,4,C,triangle.png,1,z,Fri Sep 19 2025 15:25:00 GMT-0500 (Central Daylight Time),573873.2000000477,1700,I,z,1134,22,2,2861.9000000953674,571011.2999999523,8048,NTS,B,24
