Number,acc_sum,block,block_c,block_cond,con_img,correct,correct_response,datetime,endtime,jitter,project,response,response_time,row_sel,session_number,start_end,starttime,subject_id,task,task_vers,trial
6,1,prac,1,A,circle.png,1,m,Wed May 13 2026 16:41:50 GMT-0500 (Central Daylight Time),78887.5,1900,I,m,1411,5,1,4135.800000011921,74751.69999998808,8111,NTS,A,1
4,2,prac,1,A,circle.png,1,z,Wed May 13 2026 16:41:50 GMT-0500 (Central Daylight Time),81676.19999998808,1400,I,z,586,4,1,2781.7999999970198,78894.39999999106,8111,NTS,A,2
2,3,prac,1,A,circle.png,1,z,Wed May 13 2026 16:41:50 GMT-0500 (Central Daylight Time),85125.19999998808,2000,I,z,650,2,1,3443.5999999940395,81681.59999999404,8111,NTS,A,3
7,4,prac,1,A,circle.png,1,m,Wed May 13 2026 16:41:50 GMT-0500 (Central Daylight Time),88491.0,1700,I,m,871,6,1,3360.1000000089407,85130.89999999106,8111,NTS,A,4
3,5,prac,1,A,circle.png,1,z,Wed May 13 2026 16:41:50 GMT-0500 (Central Daylight Time),91239.89999999106,1200,I,z,764,3,1,2743.2000000029802,88496.69999998808,8111,NTS,A,5
6,6,prac,1,A,circle.png,1,m,Wed May 13 2026 16:41:50 GMT-0500 (Central Daylight Time),94755.5,1900,I,m,820,5,1,3510.2000000029802,91245.29999999702,8111,NTS,A,6
7,7,prac,1,A,circle.png,1,m,Wed May 13 2026 16:41:50 GMT-0500 (Central Daylight Time),98137.69999998808,1700,I,m,889,6,1,3377.0999999940395,94760.59999999404,8111,NTS,A,7
8,8,prac,1,A,circle.png,1,m,Wed May 13 2026 16:41:50 GMT-0500 (Central Daylight Time),101153.5,1600,I,m,622,7,1,3010.2000000029802,98143.29999999702,8111,NTS,A,8
1,9,prac,1,A,circle.png,1,z,Wed May 13 2026 16:41:50 GMT-0500 (Central Daylight Time),103552.79999999702,1000,I,z,607,1,1,2394.4000000059605,101158.39999999106,8111,NTS,A,9
1,10,prac,1,A,circle.png,1,z,Wed May 13 2026 16:41:50 GMT-0500 (Central Daylight Time),105985.29999999702,1000,I,z,640,1,1,2427.1000000089407,103558.19999998808,8111,NTS,A,10
9,11,prac,1,A,circle.png,1,m,Wed May 13 2026 16:41:50 GMT-0500 (Central Daylight Time),108902.09999999404,1500,I,m,643,8,1,2911.5999999940395,105990.5,8111,NTS,A,11
8,12,prac,1,A,circle.png,1,m,Wed May 13 2026 16:41:50 GMT-0500 (Central Daylight Time),111916.5,1600,I,m,627,7,1,3008.800000011921,108907.69999998808,8111,NTS,A,12
8,0,prac,1,B,triangle.png,0,m,Wed May 13 2026 16:41:50 GMT-0500 (Central Daylight Time),163267.09999999404,1200,I,None,1516,7,1,3494.4000000059605,159772.69999998808,8111,NTS,A,1
4,0,prac,1,B,triangle.png,0,m,Wed May 13 2026 16:41:50 GMT-0500 (Central Daylight Time),167066.09999999404,1500,I,None,1515,4,1,3792.7000000029802,163273.39999999106,8111,NTS,A,2
1,0,prac,1,B,triangle.png,0,z,Wed May 13 2026 16:41:50 GMT-0500 (Central Daylight Time),171264.59999999404,1900,I,None,1515,1,1,4193.29999999702,167071.29999999702,8111,NTS,A,3
4,1,prac,1,B,triangle.png,1,m,Wed May 13 2026 16:41:50 GMT-0500 (Central Daylight Time),174080.59999999404,1500,I,m,532,4,1,2810.7999999970198,171269.79999999702,8111,NTS,A,4
1,2,prac,1,B,triangle.png,1,z,Wed May 13 2026 16:41:50 GMT-0500 (Central Daylight Time),177479.09999999404,1900,I,z,700,1,1,3393.2999999970198,174085.79999999702,8111,NTS,A,5
7,2,prac,1,B,triangle.png,0,z,Wed May 13 2026 16:41:50 GMT-0500 (Central Daylight Time),181778.09999999404,2000,I,None,1516,6,1,4291.4000000059605,177486.69999998808,8111,NTS,A,6
3,3,prac,1,B,triangle.png,1,z,Wed May 13 2026 16:41:50 GMT-0500 (Central Daylight Time),185010.39999999106,1600,I,z,838,3,1,3227.2999999970198,181783.09999999404,8111,NTS,A,7
6,4,prac,1,B,triangle.png,1,m,Wed May 13 2026 16:41:50 GMT-0500 (Central Daylight Time),187559.79999999702,1000,I,m,766,5,1,2544.1000000089407,185015.69999998808,8111,NTS,A,8
9,5,prac,1,B,triangle.png,1,z,Wed May 13 2026 16:41:50 GMT-0500 (Central Daylight Time),190975.39999999106,1400,I,z,1225,8,1,3410.5999999940395,187564.79999999702,8111,NTS,A,9
2,6,prac,1,B,triangle.png,1,m,Wed May 13 2026 16:41:50 GMT-0500 (Central Daylight Time),194207.29999999702,1700,I,m,741,2,1,3227.0,190980.29999999702,8111,NTS,A,10
9,7,prac,1,B,triangle.png,1,z,Wed May 13 2026 16:41:50 GMT-0500 (Central Daylight Time),197306.79999999702,1400,I,z,912,8,1,3093.5,194213.29999999702,8111,NTS,A,11
7,8,prac,1,B,triangle.png,1,z,Wed May 13 2026 16:41:50 GMT-0500 (Central Daylight Time),201055.59999999404,2000,I,z,958,6,1,3743.5999999940395,197312.0,8111,NTS,A,12
7,1,prac,2,B,triangle.png,1,z,Wed May 13 2026 16:41:50 GMT-0500 (Central Daylight Time),210269.0,2000,I,z,893,6,1,3676.1000000089407,206592.89999999106,8111,NTS,A,1
9,2,prac,2,B,triangle.png,1,z,Wed May 13 2026 16:41:50 GMT-0500 (Central Daylight Time),213118.39999999106,1400,I,z,650,8,1,2842.8999999910593,210275.5,8111,NTS,A,2
3,3,prac,2,B,triangle.png,1,z,Wed May 13 2026 16:41:50 GMT-0500 (Central Daylight Time),216233.89999999106,1600,I,z,721,3,1,3110.3999999910593,213123.5,8111,NTS,A,3
9,4,prac,2,B,triangle.png,1,z,Wed May 13 2026 16:41:50 GMT-0500 (Central Daylight Time),219482.89999999106,1400,I,z,1062,8,1,3244.0999999940395,216238.79999999702,8111,NTS,A,4
1,4,prac,2,B,triangle.png,0,z,Wed May 13 2026 16:41:50 GMT-0500 (Central Daylight Time),222898.59999999404,1900,I,m,722,1,1,3410.7000000029802,219487.89999999106,8111,NTS,A,5
6,5,prac,2,B,triangle.png,1,m,Wed May 13 2026 16:41:50 GMT-0500 (Central Daylight Time),225864.29999999702,1000,I,m,1173,5,1,2960.9000000059605,222903.39999999106,8111,NTS,A,6
2,6,prac,2,B,triangle.png,1,m,Wed May 13 2026 16:41:50 GMT-0500 (Central Daylight Time),229263.29999999702,1700,I,m,908,2,1,3393.4000000059605,225869.89999999106,8111,NTS,A,7
8,7,prac,2,B,triangle.png,1,m,Wed May 13 2026 16:41:50 GMT-0500 (Central Daylight Time),231962.39999999106,1200,I,m,705,7,1,2694.3999999910593,229268.0,8111,NTS,A,8
2,8,prac,2,B,triangle.png,1,m,Wed May 13 2026 16:41:50 GMT-0500 (Central Daylight Time),235361.19999998808,1700,I,m,906,2,1,3393.7999999970198,231967.39999999106,8111,NTS,A,9
4,9,prac,2,B,triangle.png,1,m,Wed May 13 2026 16:41:50 GMT-0500 (Central Daylight Time),238527.0,1500,I,m,882,4,1,3161.1000000089407,235365.89999999106,8111,NTS,A,10
4,10,prac,2,B,triangle.png,1,m,Wed May 13 2026 16:41:50 GMT-0500 (Central Daylight Time),241542.69999998808,1500,I,m,725,4,1,3011.0999999940395,238531.59999999404,8111,NTS,A,11
6,11,prac,2,B,triangle.png,1,m,Wed May 13 2026 16:41:50 GMT-0500 (Central Daylight Time),244125.5,1000,I,m,794,5,1,2578.6000000089407,241546.89999999106,8111,NTS,A,12
1,1,test,1,A,circle.png,1,z,Wed May 13 2026 16:41:50 GMT-0500 (Central Daylight Time),266385.0,1000,I,z,723,1,1,1746.2000000029802,264638.799999997,8111,NTS,A,1
2,2,test,1,A,circle.png,1,z,Wed May 13 2026 16:41:50 GMT-0500 (Central Daylight Time),269033.799999997,2000,I,z,631,2,1,2644.0,266389.799999997,8111,NTS,A,2
4,3,test,1,A,circle.png,1,z,Wed May 13 2026 16:41:50 GMT-0500 (Central Daylight Time),271866.5,1400,I,z,1405,4,1,2829.300000011921,269037.1999999881,8111,NTS,A,3
9,4,test,1,A,circle.png,1,m,Wed May 13 2026 16:41:50 GMT-0500 (Central Daylight Time),274399.1999999881,1500,I,m,1001,8,1,2529.2999999970198,271869.89999999106,8111,NTS,A,4
1,5,test,1,A,circle.png,1,z,Wed May 13 2026 16:41:50 GMT-0500 (Central Daylight Time),276181.89999999106,1000,I,z,761,1,1,1779.0,274402.89999999106,8111,NTS,A,5
3,6,test,1,A,circle.png,1,z,Wed May 13 2026 16:41:50 GMT-0500 (Central Daylight Time),278448.0,1200,I,z,1033,3,1,2262.300000011921,276185.6999999881,8111,NTS,A,6
4,6,test,1,A,circle.png,0,z,Wed May 13 2026 16:41:50 GMT-0500 (Central Daylight Time),281380.5,1400,I,None,1515,4,1,2928.800000011921,278451.6999999881,8111,NTS,A,7
2,7,test,1,A,circle.png,1,z,Wed May 13 2026 16:41:50 GMT-0500 (Central Daylight Time),284129.39999999106,2000,I,z,716,2,1,2745.0999999940395,281384.299999997,8111,NTS,A,8
7,8,test,1,A,circle.png,1,m,Wed May 13 2026 16:41:50 GMT-0500 (Central Daylight Time),286928.59999999404,1700,I,m,1066,6,1,2795.2999999970198,284133.299999997,8111,NTS,A,9
2,9,test,1,A,circle.png,1,z,Wed May 13 2026 16:41:50 GMT-0500 (Central Daylight Time),289611.1999999881,2000,I,z,656,2,1,2678.0,286933.1999999881,8111,NTS,A,10
7,10,test,1,A,circle.png,1,m,Wed May 13 2026 16:41:50 GMT-0500 (Central Daylight Time),292210.1999999881,1700,I,m,882,6,1,2595.3999999910593,289614.799999997,8111,NTS,A,11
4,11,test,1,A,circle.png,1,z,Wed May 13 2026 16:41:50 GMT-0500 (Central Daylight Time),294592.6999999881,1400,I,z,965,4,1,2379.0999999940395,292213.59999999404,8111,NTS,A,12
8,12,test,1,A,circle.png,1,m,Wed May 13 2026 16:41:50 GMT-0500 (Central Daylight Time),296759.0,1600,I,m,544,7,1,2163.1000000089407,294595.89999999106,8111,NTS,A,13
6,13,test,1,A,circle.png,1,m,Wed May 13 2026 16:41:50 GMT-0500 (Central Daylight Time),299774.59999999404,1900,I,m,1093,5,1,3012.0999999940395,296762.5,8111,NTS,A,14
2,14,test,1,A,circle.png,1,z,Wed May 13 2026 16:41:50 GMT-0500 (Central Daylight Time),302457.0,2000,I,z,657,2,1,2678.2000000029802,299778.799999997,8111,NTS,A,15
7,15,test,1,A,circle.png,1,m,Wed May 13 2026 16:41:50 GMT-0500 (Central Daylight Time),304922.89999999106,1700,I,m,739,6,1,2462.0999999940395,302460.799999997,8111,NTS,A,16
8,16,test,1,A,circle.png,1,m,Wed May 13 2026 16:41:50 GMT-0500 (Central Daylight Time),307188.799999997,1600,I,m,645,7,1,2261.9000000059605,304926.89999999106,8111,NTS,A,17
9,17,test,1,A,circle.png,1,m,Wed May 13 2026 16:41:50 GMT-0500 (Central Daylight Time),309321.5,1500,I,m,607,8,1,2129.1000000089407,307192.39999999106,8111,NTS,A,18
8,18,test,1,A,circle.png,1,m,Wed May 13 2026 16:41:50 GMT-0500 (Central Daylight Time),311554.0,1600,I,m,607,7,1,2228.9000000059605,309325.09999999404,8111,NTS,A,19
3,19,test,1,A,circle.png,1,z,Wed May 13 2026 16:41:50 GMT-0500 (Central Daylight Time),313503.39999999106,1200,I,z,725,3,1,1945.2999999970198,311558.09999999404,8111,NTS,A,20
3,20,test,1,A,circle.png,1,z,Wed May 13 2026 16:41:50 GMT-0500 (Central Daylight Time),315752.89999999106,1200,I,z,1016,3,1,2246.0,313506.89999999106,8111,NTS,A,21
6,21,test,1,A,circle.png,1,m,Wed May 13 2026 16:41:50 GMT-0500 (Central Daylight Time),318551.799999997,1900,I,m,867,5,1,2795.5,315756.299999997,8111,NTS,A,22
4,22,test,1,A,circle.png,1,z,Wed May 13 2026 16:41:50 GMT-0500 (Central Daylight Time),320851.1999999881,1400,I,z,872,4,1,2296.0999999940395,318555.09999999404,8111,NTS,A,23
9,23,test,1,A,circle.png,1,m,Wed May 13 2026 16:41:50 GMT-0500 (Central Daylight Time),323000.5,1500,I,m,616,8,1,2145.7000000029802,320854.799999997,8111,NTS,A,24
3,1,test,1,B,triangle.png,1,z,Wed May 13 2026 16:41:50 GMT-0500 (Central Daylight Time),339428.6999999881,1600,I,z,1196,3,1,2812.2999999970198,336616.39999999106,8111,NTS,A,1
6,2,test,1,B,triangle.png,1,m,Wed May 13 2026 16:41:50 GMT-0500 (Central Daylight Time),341361.39999999106,1000,I,m,915,5,1,1928.5999999940395,339432.799999997,8111,NTS,A,2
7,3,test,1,B,triangle.png,1,z,Wed May 13 2026 16:41:50 GMT-0500 (Central Daylight Time),344394.89999999106,2000,I,z,1015,6,1,3030.0,341364.89999999106,8111,NTS,A,3
1,4,test,1,B,triangle.png,1,z,Wed May 13 2026 16:41:50 GMT-0500 (Central Daylight Time),346993.09999999404,1900,I,z,683,1,1,2594.4000000059605,344398.6999999881,8111,NTS,A,4
9,5,test,1,B,triangle.png,1,z,Wed May 13 2026 16:41:50 GMT-0500 (Central Daylight Time),349925.5,1900,I,z,1012,16,1,2928.300000011921,346997.1999999881,8111,NTS,A,5
2,6,test,1,B,triangle.png,1,m,Wed May 13 2026 16:41:50 GMT-0500 (Central Daylight Time),352024.799999997,1200,I,m,882,10,1,2095.7000000029802,349929.09999999404,8111,NTS,A,6
6,7,test,1,B,triangle.png,1,m,Wed May 13 2026 16:41:50 GMT-0500 (Central Daylight Time),354074.1999999881,1000,I,m,1023,5,1,2046.0,352028.1999999881,8111,NTS,A,7
9,8,test,1,B,triangle.png,1,z,Wed May 13 2026 16:41:50 GMT-0500 (Central Daylight Time),356923.799999997,1400,I,z,1422,8,1,2845.6000000089407,354078.1999999881,8111,NTS,A,8
4,9,test,1,B,triangle.png,1,m,Wed May 13 2026 16:41:50 GMT-0500 (Central Daylight Time),359489.299999997,1500,I,m,1041,4,1,2561.7000000029802,356927.59999999404,8111,NTS,A,9
2,10,test,1,B,triangle.png,1,m,Wed May 13 2026 16:41:50 GMT-0500 (Central Daylight Time),362321.6999999881,1700,I,m,1099,2,1,2828.699999988079,359493.0,8111,NTS,A,10
6,11,test,1,B,triangle.png,1,m,Wed May 13 2026 16:41:50 GMT-0500 (Central Daylight Time),365270.59999999404,1500,I,m,1418,13,1,2945.5,362325.09999999404,8111,NTS,A,11
9,12,test,1,B,triangle.png,1,z,Wed May 13 2026 16:41:50 GMT-0500 (Central Daylight Time),367519.89999999106,1400,I,z,818,8,1,2245.2000000029802,365274.6999999881,8111,NTS,A,12
2,13,test,1,B,triangle.png,1,m,Wed May 13 2026 16:41:50 GMT-0500 (Central Daylight Time),369852.59999999404,1200,I,m,1113,10,1,2329.2000000029802,367523.39999999106,8111,NTS,A,13
4,14,test,1,B,triangle.png,1,m,Wed May 13 2026 16:41:50 GMT-0500 (Central Daylight Time),371818.59999999404,1000,I,m,940,12,1,1962.5,369856.09999999404,8111,NTS,A,14
3,15,test,1,B,triangle.png,1,z,Wed May 13 2026 16:41:50 GMT-0500 (Central Daylight Time),374717.799999997,2000,I,z,869,11,1,2895.4000000059605,371822.39999999106,8111,NTS,A,15
8,16,test,1,B,triangle.png,1,m,Wed May 13 2026 16:41:50 GMT-0500 (Central Daylight Time),376767.09999999404,1200,I,m,827,7,1,2045.7000000029802,374721.39999999106,8111,NTS,A,16
1,17,test,1,B,triangle.png,1,z,Wed May 13 2026 16:41:50 GMT-0500 (Central Daylight Time),379199.6999999881,1400,I,z,1009,9,1,2428.8999999910593,376770.799999997,8111,NTS,A,17
4,18,test,1,B,triangle.png,1,m,Wed May 13 2026 16:41:50 GMT-0500 (Central Daylight Time),381215.5,1000,I,m,993,12,1,2010.9000000059605,379204.59999999404,8111,NTS,A,18
8,19,test,1,B,triangle.png,1,m,Wed May 13 2026 16:41:50 GMT-0500 (Central Daylight Time),384131.39999999106,1700,I,m,1196,15,1,2912.0999999940395,381219.299999997,8111,NTS,A,19
6,20,test,1,B,triangle.png,1,m,Wed May 13 2026 16:41:50 GMT-0500 (Central Daylight Time),386647.09999999404,1500,I,m,985,13,1,2511.7000000029802,384135.39999999106,8111,NTS,A,20
3,21,test,1,B,triangle.png,1,z,Wed May 13 2026 16:41:50 GMT-0500 (Central Daylight Time),389479.799999997,2000,I,z,809,11,1,2829.0,386650.799999997,8111,NTS,A,21
4,22,test,1,B,triangle.png,1,m,Wed May 13 2026 16:41:50 GMT-0500 (Central Daylight Time),391912.59999999404,1500,I,m,900,4,1,2429.0999999940395,389483.5,8111,NTS,A,22
7,23,test,1,B,triangle.png,1,z,Wed May 13 2026 16:41:50 GMT-0500 (Central Daylight Time),394744.6999999881,1600,I,z,1207,14,1,2828.699999988079,391916.0,8111,NTS,A,23
2,24,test,1,B,triangle.png,1,m,Wed May 13 2026 16:41:50 GMT-0500 (Central Daylight Time),397377.1999999881,1700,I,m,916,2,1,2628.7999999970198,394748.39999999106,8111,NTS,A,24
9,1,prac,1,C,circle.png,1,m,Wed May 13 2026 16:41:50 GMT-0500 (Central Daylight Time),449011.1999999881,1900,I,m,970,8,1,3661.2999999970198,445349.89999999106,8111,NTS,A,1
6,2,prac,1,C,circle.png,1,m,Wed May 13 2026 16:41:50 GMT-0500 (Central Daylight Time),453226.59999999404,2000,I,m,1421,5,1,4209.0,449017.59999999404,8111,NTS,A,2
3,2,prac,1,C,triangle.png,0,z,Wed May 13 2026 16:41:50 GMT-0500 (Central Daylight Time),457025.09999999404,1500,I,None,1516,3,1,3793.7999999970198,453231.299999997,8111,NTS,A,3
4,2,prac,1,C,circle.png,0,z,Wed May 13 2026 16:41:50 GMT-0500 (Central Daylight Time),460324.39999999106,1000,I,None,1516,4,1,3294.2000000029802,457030.1999999881,8111,NTS,A,4
3,2,prac,1,C,triangle.png,0,z,Wed May 13 2026 16:41:50 GMT-0500 (Central Daylight Time),464123.0,1500,I,None,1516,3,1,3793.6000000089407,460329.39999999106,8111,NTS,A,5
6,3,prac,1,C,circle.png,1,m,Wed May 13 2026 16:41:50 GMT-0500 (Central Daylight Time),467871.799999997,2000,I,m,966,5,1,3743.9000000059605,464127.89999999106,8111,NTS,A,6
1,4,prac,1,C,circle.png,1,z,Wed May 13 2026 16:41:50 GMT-0500 (Central Daylight Time),470937.59999999404,1700,I,z,581,1,1,3061.0,467876.59999999404,8111,NTS,A,7
9,5,prac,1,C,circle.png,1,m,Wed May 13 2026 16:41:50 GMT-0500 (Central Daylight Time),475019.799999997,1900,I,m,1395,8,1,4077.0,470942.799999997,8111,NTS,A,8
2,6,prac,1,C,triangle.png,1,m,Wed May 13 2026 16:41:50 GMT-0500 (Central Daylight Time),478835.1999999881,1600,I,m,1428,2,1,3810.5,475024.6999999881,8111,NTS,A,9
7,7,prac,1,C,triangle.png,1,z,Wed May 13 2026 16:41:50 GMT-0500 (Central Daylight Time),481700.89999999106,1200,I,z,877,6,1,2860.3999999910593,478840.5,8111,NTS,A,10
8,8,prac,1,C,triangle.png,1,m,Wed May 13 2026 16:41:50 GMT-0500 (Central Daylight Time),485349.799999997,1400,I,m,1459,7,1,3643.9000000059605,481705.89999999106,8111,NTS,A,11
7,9,prac,1,C,triangle.png,1,z,Wed May 13 2026 16:41:50 GMT-0500 (Central Daylight Time),488165.799999997,1200,I,z,827,6,1,2811.2999999970198,485354.5,8111,NTS,A,12
8,0,test,1,C,triangle.png,0,m,Wed May 13 2026 16:41:50 GMT-0500 (Central Daylight Time),529569.299999997,1600,I,None,1516,7,1,3119.5,526449.799999997,8111,NTS,A,1
7,0,test,1,C,triangle.png,0,z,Wed May 13 2026 16:41:50 GMT-0500 (Central Daylight Time),532801.3999999911,1700,I,None,1515,6,1,3227.8999999910593,529573.5,8111,NTS,A,2
6,1,test,1,C,circle.png,1,m,Wed May 13 2026 16:41:50 GMT-0500 (Central Daylight Time),536117.1999999881,1900,I,m,1395,5,1,3311.7999999970198,532805.3999999911,8111,NTS,A,3
6,2,test,1,C,triangle.png,1,m,Wed May 13 2026 16:41:50 GMT-0500 (Central Daylight Time),538616.599999994,1000,I,m,1475,13,1,2495.5999999940395,536121.0,8111,NTS,A,4
3,3,test,1,C,triangle.png,1,z,Wed May 13 2026 16:41:50 GMT-0500 (Central Daylight Time),540949.0,1200,I,z,1112,3,1,2328.6000000089407,538620.3999999911,8111,NTS,A,5
9,4,test,1,C,circle.png,1,m,Wed May 13 2026 16:41:50 GMT-0500 (Central Daylight Time),543781.5,1500,I,m,1303,8,1,2828.800000011921,540952.6999999881,8111,NTS,A,6
1,5,test,1,C,circle.png,1,z,Wed May 13 2026 16:41:50 GMT-0500 (Central Daylight Time),545647.599999994,1000,I,z,843,1,1,1862.2999999970198,543785.299999997,8111,NTS,A,7
6,6,test,1,C,circle.png,1,m,Wed May 13 2026 16:41:50 GMT-0500 (Central Daylight Time),548446.599999994,1900,I,m,869,21,1,2795.0999999940395,545651.5,8111,NTS,A,8
1,7,test,1,C,triangle.png,1,z,Wed May 13 2026 16:41:50 GMT-0500 (Central Daylight Time),551595.799999997,1900,I,z,1230,9,1,3145.2999999970198,548450.5,8111,NTS,A,9
1,8,test,1,C,triangle.png,1,z,Wed May 13 2026 16:41:50 GMT-0500 (Central Daylight Time),554844.6999999881,1900,I,z,1321,17,1,3245.199999988079,551599.5,8111,NTS,A,10
3,9,test,1,C,circle.png,1,z,Wed May 13 2026 16:41:50 GMT-0500 (Central Daylight Time),557477.1999999881,1600,I,z,1012,19,1,2628.5,554848.6999999881,8111,NTS,A,11
4,10,test,1,C,circle.png,1,z,Wed May 13 2026 16:41:50 GMT-0500 (Central Daylight Time),559776.5,1400,I,z,875,4,1,2295.6000000089407,557480.8999999911,8111,NTS,A,12
4,10,test,1,C,triangle.png,0,m,Wed May 13 2026 16:41:50 GMT-0500 (Central Daylight Time),562808.799999997,1500,I,None,1516,12,1,3028.5,559780.299999997,8111,NTS,A,13
4,11,test,1,C,triangle.png,1,m,Wed May 13 2026 16:41:50 GMT-0500 (Central Daylight Time),565141.5,1500,I,m,812,20,1,2328.800000011921,562812.6999999881,8111,NTS,A,14
2,12,test,1,C,circle.png,1,z,Wed May 13 2026 16:41:50 GMT-0500 (Central Daylight Time),567590.5,1700,I,z,718,10,1,2445.300000011921,565145.1999999881,8111,NTS,A,15
8,12,test,1,C,circle.png,0,m,Wed May 13 2026 16:41:50 GMT-0500 (Central Daylight Time),570206.3999999911,1200,I,z,1386,15,1,2612.2999999970198,567594.099999994,8111,NTS,A,16
9,12,test,1,C,circle.png,0,m,Wed May 13 2026 16:41:50 GMT-0500 (Central Daylight Time),573238.6999999881,1500,I,None,1516,24,1,3028.2999999970198,570210.3999999911,8111,NTS,A,17
8,12,test,1,C,triangle.png,0,m,Wed May 13 2026 16:41:50 GMT-0500 (Central Daylight Time),576371.5,1600,I,None,1516,23,1,3128.9000000059605,573242.599999994,8111,NTS,A,18
2,12,test,1,C,triangle.png,0,m,Wed May 13 2026 16:41:50 GMT-0500 (Central Daylight Time),579636.8999999911,2000,I,z,1245,2,1,3261.5999999940395,576375.299999997,8111,NTS,A,19
7,12,test,1,C,triangle.png,0,z,Wed May 13 2026 16:41:50 GMT-0500 (Central Daylight Time),582869.299999997,1700,I,None,1516,22,1,3228.6000000089407,579640.6999999881,8111,NTS,A,20
3,13,test,1,C,circle.png,1,z,Wed May 13 2026 16:41:50 GMT-0500 (Central Daylight Time),585934.799999997,1600,I,z,1443,11,1,3061.6000000089407,582873.1999999881,8111,NTS,A,21
9,13,test,1,C,triangle.png,0,z,Wed May 13 2026 16:41:50 GMT-0500 (Central Daylight Time),588867.6999999881,1400,I,None,1517,16,1,2929.0999999940395,585938.599999994,8111,NTS,A,22
7,13,test,1,C,circle.png,0,m,Wed May 13 2026 16:41:50 GMT-0500 (Central Daylight Time),592399.3999999911,2000,I,None,1516,14,1,3527.5999999940395,588871.799999997,8111,NTS,A,23
2,14,test,1,C,circle.png,1,z,Wed May 13 2026 16:41:50 GMT-0500 (Central Daylight Time),595398.599999994,1700,I,z,1277,18,1,2994.9000000059605,592403.6999999881,8111,NTS,A,24
8,1,test,2,C,circle.png,1,m,Wed May 13 2026 16:41:50 GMT-0500 (Central Daylight Time),605745.0,1200,I,m,874,23,1,2095.800000011921,603649.1999999881,8111,NTS,A,1
1,2,test,2,C,circle.png,1,z,Wed May 13 2026 16:41:50 GMT-0500 (Central Daylight Time),607744.1999999881,1000,I,z,974,1,1,1994.7999999970198,605749.3999999911,8111,NTS,A,2
2,3,test,2,C,circle.png,1,z,Wed May 13 2026 16:41:50 GMT-0500 (Central Daylight Time),610326.8999999911,1700,I,z,851,10,1,2578.8999999910593,607748.0,8111,NTS,A,3
2,4,test,2,C,circle.png,1,z,Wed May 13 2026 16:41:50 GMT-0500 (Central Daylight Time),612609.299999997,1700,I,z,557,18,1,2277.7999999970198,610331.5,8111,NTS,A,4
8,5,test,2,C,circle.png,1,m,Wed May 13 2026 16:41:50 GMT-0500 (Central Daylight Time),614642.5,1200,I,m,807,15,1,2028.5,612614.0,8111,NTS,A,5
4,6,test,2,C,triangle.png,1,m,Wed May 13 2026 16:41:50 GMT-0500 (Central Daylight Time),617524.799999997,1500,I,m,1361,12,1,2878.6000000089407,614646.1999999881,8111,NTS,A,6
7,7,test,2,C,triangle.png,1,z,Wed May 13 2026 16:41:50 GMT-0500 (Central Daylight Time),620392.0,1700,I,z,1143,6,1,2863.1000000089407,617528.8999999911,8111,NTS,A,7
3,8,test,2,C,circle.png,1,z,Wed May 13 2026 16:41:50 GMT-0500 (Central Daylight Time),622939.799999997,1600,I,z,930,19,1,2543.7999999970198,620396.0,8111,NTS,A,8
3,8,test,2,C,circle.png,0,z,Wed May 13 2026 16:41:50 GMT-0500 (Central Daylight Time),626073.299999997,1600,I,None,1517,11,1,3129.6000000089407,622943.6999999881,8111,NTS,A,9
3,8,test,2,C,triangle.png,0,z,Wed May 13 2026 16:41:50 GMT-0500 (Central Daylight Time),628804.799999997,1200,I,None,1516,3,1,2727.1000000089407,626077.6999999881,8111,NTS,A,10
7,9,test,2,C,circle.png,1,m,Wed May 13 2026 16:41:50 GMT-0500 (Central Daylight Time),632003.6999999881,2000,I,m,1180,14,1,3195.2999999970198,628808.3999999911,8111,NTS,A,11
4,10,test,2,C,circle.png,1,z,Wed May 13 2026 16:41:50 GMT-0500 (Central Daylight Time),634319.5,1400,I,z,884,4,1,2312.1000000089407,632007.3999999911,8111,NTS,A,12
1,11,test,2,C,triangle.png,1,z,Wed May 13 2026 16:41:50 GMT-0500 (Central Daylight Time),637068.799999997,1900,I,z,821,17,1,2745.4000000059605,634323.3999999911,8111,NTS,A,13
9,12,test,2,C,circle.png,1,m,Wed May 13 2026 16:41:50 GMT-0500 (Central Daylight Time),639584.599999994,1500,I,m,992,8,1,2512.0,637072.599999994,8111,NTS,A,14
9,13,test,2,C,triangle.png,1,z,Wed May 13 2026 16:41:50 GMT-0500 (Central Daylight Time),642250.3999999911,1400,I,z,1248,24,1,2662.0999999940395,639588.299999997,8111,NTS,A,15
2,13,test,2,C,triangle.png,0,m,Wed May 13 2026 16:41:50 GMT-0500 (Central Daylight Time),645500.6999999881,2000,I,z,1203,2,1,3246.5999999940395,642254.099999994,8111,NTS,A,16
1,14,test,2,C,triangle.png,1,z,Wed May 13 2026 16:41:50 GMT-0500 (Central Daylight Time),648482.099999994,1900,I,z,1056,9,1,2977.4000000059605,645504.6999999881,8111,NTS,A,17
6,15,test,2,C,triangle.png,1,m,Wed May 13 2026 16:41:50 GMT-0500 (Central Daylight Time),650431.3999999911,1000,I,m,927,13,1,1945.5999999940395,648485.799999997,8111,NTS,A,18
4,15,test,2,C,triangle.png,0,m,Wed May 13 2026 16:41:50 GMT-0500 (Central Daylight Time),653464.8999999911,1500,I,None,1517,20,1,3029.7000000029802,650435.1999999881,8111,NTS,A,19
9,15,test,2,C,triangle.png,0,z,Wed May 13 2026 16:41:50 GMT-0500 (Central Daylight Time),656396.1999999881,1400,I,None,1516,16,1,2926.8999999910593,653469.299999997,8111,NTS,A,20
7,16,test,2,C,circle.png,1,m,Wed May 13 2026 16:41:50 GMT-0500 (Central Daylight Time),659696.1999999881,2000,I,m,1269,22,1,3296.3999999910593,656399.799999997,8111,NTS,A,21
6,17,test,2,C,circle.png,1,m,Wed May 13 2026 16:41:50 GMT-0500 (Central Daylight Time),662927.3999999911,1900,I,m,1302,5,1,3227.2000000029802,659700.1999999881,8111,NTS,A,22
8,17,test,2,C,triangle.png,0,m,Wed May 13 2026 16:41:50 GMT-0500 (Central Daylight Time),666059.799999997,1600,I,None,1516,7,1,3128.2999999970198,662931.5,8111,NTS,A,23
6,17,test,2,C,triangle.png,0,m,Wed May 13 2026 16:41:50 GMT-0500 (Central Daylight Time),668592.3999999911,1000,I,None,1516,21,1,2528.7000000029802,666063.6999999881,8111,NTS,A,24
1,1,test,3,C,circle.png,1,z,Wed May 13 2026 16:41:50 GMT-0500 (Central Daylight Time),686153.6999999881,1000,I,z,1457,17,1,2479.5999999940395,683674.099999994,8111,NTS,A,1
6,2,test,3,C,circle.png,1,m,Wed May 13 2026 16:41:50 GMT-0500 (Central Daylight Time),688802.299999997,1900,I,m,731,5,1,2644.5,686157.799999997,8111,NTS,A,2
6,3,test,3,C,circle.png,1,m,Wed May 13 2026 16:41:50 GMT-0500 (Central Daylight Time),691578.599999994,1900,I,m,859,21,1,2772.2999999970198,688806.299999997,8111,NTS,A,3
2,4,test,3,C,circle.png,1,z,Wed May 13 2026 16:41:50 GMT-0500 (Central Daylight Time),694784.0,1700,I,z,1483,10,1,3201.2000000029802,691582.799999997,8111,NTS,A,4
6,5,test,3,C,triangle.png,1,m,Wed May 13 2026 16:41:50 GMT-0500 (Central Daylight Time),697301.0,1000,I,m,1496,13,1,2513.2000000029802,694787.799999997,8111,NTS,A,5
4,5,test,3,C,circle.png,0,z,Wed May 13 2026 16:41:50 GMT-0500 (Central Daylight Time),699932.3999999911,1400,I,m,1211,4,1,2627.2000000029802,697305.1999999881,8111,NTS,A,6
3,5,test,3,C,circle.png,0,z,Wed May 13 2026 16:41:50 GMT-0500 (Central Daylight Time),703065.0,1600,I,None,1516,11,1,3128.6000000089407,699936.3999999911,8111,NTS,A,7
7,6,test,3,C,triangle.png,1,z,Wed May 13 2026 16:41:50 GMT-0500 (Central Daylight Time),706197.299999997,1700,I,z,1412,22,1,3128.5,703068.799999997,8111,NTS,A,8
2,7,test,3,C,triangle.png,1,m,Wed May 13 2026 16:41:50 GMT-0500 (Central Daylight Time),709229.599999994,2000,I,m,1012,2,1,3028.5,706201.099999994,8111,NTS,A,9
3,7,test,3,C,triangle.png,0,z,Wed May 13 2026 16:41:50 GMT-0500 (Central Daylight Time),711962.0,1200,I,None,1516,19,1,2727.800000011921,709234.1999999881,8111,NTS,A,10
8,8,test,3,C,triangle.png,1,m,Wed May 13 2026 16:41:50 GMT-0500 (Central Daylight Time),714990.3999999911,1600,I,m,1357,23,1,3024.5,711965.8999999911,8111,NTS,A,11
3,8,test,3,C,triangle.png,0,z,Wed May 13 2026 16:41:50 GMT-0500 (Central Daylight Time),717726.8999999911,1200,I,None,1516,3,1,2732.0,714994.8999999911,8111,NTS,A,12
9,9,test,3,C,circle.png,1,m,Wed May 13 2026 16:41:50 GMT-0500 (Central Daylight Time),720542.799999997,1500,I,m,1294,8,1,2812.1000000089407,717730.6999999881,8111,NTS,A,13
1,10,test,3,C,triangle.png,1,z,Wed May 13 2026 16:41:50 GMT-0500 (Central Daylight Time),723741.6999999881,1900,I,z,1270,9,1,3194.7999999970198,720546.8999999911,8111,NTS,A,14
2,11,test,3,C,triangle.png,1,m,Wed May 13 2026 16:41:50 GMT-0500 (Central Daylight Time),726824.1999999881,2000,I,m,1059,18,1,3078.5999999940395,723745.599999994,8111,NTS,A,15
7,12,test,3,C,circle.png,1,m,Wed May 13 2026 16:41:50 GMT-0500 (Central Daylight Time),729839.8999999911,2000,I,m,984,14,1,3011.7000000029802,726828.1999999881,8111,NTS,A,16
4,13,test,3,C,triangle.png,1,m,Wed May 13 2026 16:41:50 GMT-0500 (Central Daylight Time),732472.3999999911,1500,I,m,1100,12,1,2628.5999999940395,729843.799999997,8111,NTS,A,17
8,14,test,3,C,circle.png,1,m,Wed May 13 2026 16:41:50 GMT-0500 (Central Daylight Time),734888.299999997,1200,I,m,1183,15,1,2411.7000000029802,732476.599999994,8111,NTS,A,18
9,14,test,3,C,circle.png,0,m,Wed May 13 2026 16:41:50 GMT-0500 (Central Daylight Time),737920.6999999881,1500,I,None,1516,24,1,3028.5999999940395,734892.099999994,8111,NTS,A,19
7,14,test,3,C,triangle.png,0,z,Wed May 13 2026 16:41:50 GMT-0500 (Central Daylight Time),741152.8999999911,1700,I,None,1516,6,1,3228.2999999970198,737924.599999994,8111,NTS,A,20
4,14,test,3,C,circle.png,0,z,Wed May 13 2026 16:41:50 GMT-0500 (Central Daylight Time),744070.0,1400,I,None,1501,20,1,2913.2000000029802,741156.799999997,8111,NTS,A,21
9,14,test,3,C,triangle.png,0,z,Wed May 13 2026 16:41:50 GMT-0500 (Central Daylight Time),747001.299999997,1400,I,None,1516,16,1,2927.2999999970198,744074.0,8111,NTS,A,22
8,14,test,3,C,triangle.png,0,m,Wed May 13 2026 16:41:50 GMT-0500 (Central Daylight Time),750117.6999999881,1600,I,None,1501,7,1,3112.7999999970198,747004.8999999911,8111,NTS,A,23
1,15,test,3,C,circle.png,1,z,Wed May 13 2026 16:41:50 GMT-0500 (Central Daylight Time),752349.3999999911,1000,I,z,1204,1,1,2228.2999999970198,750121.099999994,8111,NTS,A,24
9,1,test,4,C,circle.png,1,m,Wed May 13 2026 16:41:50 GMT-0500 (Central Daylight Time),771993.5,1500,I,m,883,8,1,2412.6000000089407,769580.8999999911,8111,NTS,A,1
2,2,test,4,C,triangle.png,1,m,Wed May 13 2026 16:41:50 GMT-0500 (Central Daylight Time),775458.799999997,2000,I,m,1438,18,1,3460.7000000029802,771998.099999994,8111,NTS,A,2
7,2,test,4,C,circle.png,0,m,Wed May 13 2026 16:41:50 GMT-0500 (Central Daylight Time),778991.0,2000,I,None,1516,14,1,3528.1000000089407,775462.8999999911,8111,NTS,A,3
6,2,test,4,C,triangle.png,0,m,Wed May 13 2026 16:41:50 GMT-0500 (Central Daylight Time),781523.599999994,1000,I,None,1515,13,1,2529.0,778994.599999994,8111,NTS,A,4
3,3,test,4,C,circle.png,1,z,Wed May 13 2026 16:41:50 GMT-0500 (Central Daylight Time),783906.1999999881,1600,I,z,764,11,1,2378.5,781527.6999999881,8111,NTS,A,5
3,3,test,4,C,triangle.png,0,z,Wed May 13 2026 16:41:50 GMT-0500 (Central Daylight Time),786638.6999999881,1200,I,None,1516,19,1,2728.2999999970198,783910.3999999911,8111,NTS,A,6
7,4,test,4,C,triangle.png,1,z,Wed May 13 2026 16:41:50 GMT-0500 (Central Daylight Time),789687.599999994,1700,I,z,1317,6,1,3045.2000000029802,786642.3999999911,8111,NTS,A,7
2,5,test,4,C,triangle.png,1,m,Wed May 13 2026 16:41:50 GMT-0500 (Central Daylight Time),793020.0,2000,I,m,1304,2,1,3328.5,789691.5,8111,NTS,A,8
4,6,test,4,C,circle.png,1,z,Wed May 13 2026 16:41:50 GMT-0500 (Central Daylight Time),795435.799999997,1400,I,z,989,4,1,2412.2000000029802,793023.599999994,8111,NTS,A,9
9,7,test,4,C,triangle.png,1,z,Wed May 13 2026 16:41:50 GMT-0500 (Central Daylight Time),798101.6999999881,1400,I,z,1245,16,1,2661.699999988079,795440.0,8111,NTS,A,10
2,8,test,4,C,circle.png,1,z,Wed May 13 2026 16:41:50 GMT-0500 (Central Daylight Time),800667.599999994,1700,I,z,847,10,1,2562.0,798105.599999994,8111,NTS,A,11
4,9,test,4,C,circle.png,1,z,Wed May 13 2026 16:41:50 GMT-0500 (Central Daylight Time),803416.5,1400,I,z,1325,20,1,2744.6000000089407,800671.8999999911,8111,NTS,A,12
1,9,test,4,C,circle.png,0,z,Wed May 13 2026 16:41:50 GMT-0500 (Central Daylight Time),805949.299999997,1000,I,None,1516,17,1,2529.1000000089407,803420.1999999881,8111,NTS,A,13
9,10,test,4,C,circle.png,1,m,Wed May 13 2026 16:41:50 GMT-0500 (Central Daylight Time),808531.799999997,1500,I,m,1063,24,1,2578.9000000059605,805952.8999999911,8111,NTS,A,14
8,11,test,4,C,circle.png,1,m,Wed May 13 2026 16:41:50 GMT-0500 (Central Daylight Time),810581.099999994,1200,I,m,820,15,1,2045.5999999940395,808535.5,8111,NTS,A,15
6,12,test,4,C,circle.png,1,m,Wed May 13 2026 16:41:50 GMT-0500 (Central Daylight Time),813563.6999999881,1900,I,m,1056,5,1,2978.7999999970198,810584.8999999911,8111,NTS,A,16
1,12,test,4,C,circle.png,0,z,Wed May 13 2026 16:41:50 GMT-0500 (Central Daylight Time),815745.8999999911,1000,I,m,1165,1,1,2178.2000000029802,813567.6999999881,8111,NTS,A,17
4,12,test,4,C,triangle.png,0,m,Wed May 13 2026 16:41:50 GMT-0500 (Central Daylight Time),818778.6999999881,1500,I,None,1515,12,1,3029.0999999940395,815749.599999994,8111,NTS,A,18
1,13,test,4,C,triangle.png,1,z,Wed May 13 2026 16:41:50 GMT-0500 (Central Daylight Time),821961.0,1900,I,z,1258,9,1,3178.5,818782.5,8111,NTS,A,19
8,14,test,4,C,triangle.png,1,m,Wed May 13 2026 16:41:50 GMT-0500 (Central Daylight Time),824360.299999997,1600,I,m,768,23,1,2395.4000000059605,821964.8999999911,8111,NTS,A,20
7,15,test,4,C,triangle.png,1,z,Wed May 13 2026 16:41:50 GMT-0500 (Central Daylight Time),827325.799999997,1700,I,z,1235,22,1,2961.6000000089407,824364.1999999881,8111,NTS,A,21
8,16,test,4,C,triangle.png,1,m,Wed May 13 2026 16:41:50 GMT-0500 (Central Daylight Time),829641.599999994,1600,I,m,691,7,1,2312.2000000029802,827329.3999999911,8111,NTS,A,22
3,17,test,4,C,triangle.png,1,z,Wed May 13 2026 16:41:50 GMT-0500 (Central Daylight Time),831657.6999999881,1200,I,z,798,3,1,2012.0,829645.6999999881,8111,NTS,A,23
6,18,test,4,C,circle.png,1,m,Wed May 13 2026 16:41:50 GMT-0500 (Central Daylight Time),834973.599999994,1900,I,m,1387,21,1,3312.4000000059605,831661.1999999881,8111,NTS,A,24
