acc_sum,block,block_c,condition,correct,correct_response,datetime,endtime,flanker,jitter,project,response,response_test_buffer_response,response_test_target_response,response_time,response_time_test_buffer_response,response_time_test_target_response,row_sel,session_number,start_end,starttime,subject_id,target,task,task_vers,time_test_buffer,time_test_buffer_response,time_test_constants,time_test_flanker,time_test_jitter,time_test_logger,time_test_target,time_test_target_response,time_test_variables,trial
0,prac,1,con,0,m,Mon May 05 2025 17:57:06 GMT-0500 (Central Daylight Time),164026.5,gold,800,I,None,,,1799,,,13,1,4860.900000035763,159165.59999996424,7137,gold,NF,C,,,,,,,,,,1
0,prac,1,inc,0,m,Mon May 05 2025 17:57:06 GMT-0500 (Central Daylight Time),168991.39999997616,pear,900,I,None,,,1799,,,14,1,4959.899999976158,164031.5,7137,iron,NF,C,,,,,,,,,,2
0,prac,1,inc,0,m,Mon May 05 2025 17:57:06 GMT-0500 (Central Daylight Time),174156.39999997616,raisin,1100,I,None,,,1799,,,12,1,5160.800000011921,168995.59999996424,7137,cobalt,NF,C,,,,,,,,,,3
0,prac,1,con,0,z,Mon May 05 2025 17:57:06 GMT-0500 (Central Daylight Time),179221.30000001192,kiwi,1000,I,None,,,1799,,,7,1,5059.700000047684,174161.59999996424,7137,kiwi,NF,C,,,,,,,,,,4
0,prac,1,inc,0,m,Mon May 05 2025 17:57:06 GMT-0500 (Central Daylight Time),184186.59999996424,cherry,900,I,None,,,1799,,,10,1,4960.899999976158,179225.69999998808,7137,copper,NF,C,,,,,,,,,,5
0,prac,1,con,0,z,Mon May 05 2025 17:57:06 GMT-0500 (Central Daylight Time),189051.89999997616,lime,800,I,None,,,1799,,,5,1,4860.800000011921,184191.09999996424,7137,lime,NF,C,,,,,,,,,,6
0,prac,1,con,0,m,Mon May 05 2025 17:57:06 GMT-0500 (Central Daylight Time),194116.89999997616,zinc,1000,I,None,,,1800,,,15,1,5060.699999988079,189056.19999998808,7137,zinc,NF,C,,,,,,,,,,7
0,prac,1,inc,0,z,Mon May 05 2025 17:57:06 GMT-0500 (Central Daylight Time),199081.80000001192,copper,900,I,None,,,1799,,,2,1,4960.5,194121.30000001192,7137,cherry,NF,C,,,,,,,,,,8
0,prac,1,inc,0,m,Mon May 05 2025 17:57:06 GMT-0500 (Central Daylight Time),204246.69999998808,plum,1100,I,None,,,1799,,,16,1,5160.0,199086.69999998808,7137,lead,NF,C,,,,,,,,,,9
0,prac,1,con,0,m,Mon May 05 2025 17:57:06 GMT-0500 (Central Daylight Time),209112.0,bronze,800,I,None,,,1799,,,9,1,4860.0,204252.0,7137,bronze,NF,C,,,,,,,,,,10
1,prac,1,con,1,m,Mon May 05 2025 17:57:06 GMT-0500 (Central Daylight Time),212244.5,silver,1000,I,m,,,790,,,11,1,3128.0,209116.5,7137,silver,NF,C,,,,,,,,,,11
2,prac,1,con,1,z,Mon May 05 2025 17:57:06 GMT-0500 (Central Daylight Time),215176.80000001192,orange,1000,I,z,,,630,,,3,1,2928.0,212248.80000001192,7137,orange,NF,C,,,,,,,,,,12
3,prac,1,inc,1,z,Mon May 05 2025 17:57:06 GMT-0500 (Central Daylight Time),218092.69999998808,lead,1100,I,z,,,511,,,8,1,2911.600000023842,215181.09999996424,7137,plum,NF,C,,,,,,,,,,13
3,prac,1,inc,0,z,Mon May 05 2025 17:57:06 GMT-0500 (Central Daylight Time),220775.19999998808,iron,900,I,m,,,466,,,6,1,2678.399999976158,218096.80000001192,7137,pear,NF,C,,,,,,,,,,14
4,prac,1,con,1,z,Mon May 05 2025 17:57:06 GMT-0500 (Central Daylight Time),223241.09999996424,banana,800,I,z,,,357,,,1,1,2461.399999976158,220779.69999998808,7137,banana,NF,C,,,,,,,,,,15
5,prac,1,inc,1,z,Mon May 05 2025 17:57:06 GMT-0500 (Central Daylight Time),226140.0,cobalt,1100,I,z,,,487,,,4,1,2894.699999988079,223245.30000001192,7137,raisin,NF,C,,,,,,,,,,16
0,prac,2,con,0,z,Mon May 05 2025 17:57:06 GMT-0500 (Central Daylight Time),241202.19999998808,kiwi,1000,I,None,,,1799,,,7,1,5061.399999976158,236140.80000001192,7137,kiwi,NF,C,,,,,,,,,,1
0,prac,2,con,0,m,Mon May 05 2025 17:57:06 GMT-0500 (Central Daylight Time),246067.09999996424,bronze,800,I,None,,,1800,,,9,1,4860.899999976158,241206.19999998808,7137,bronze,NF,C,,,,,,,,,,2
0,prac,2,inc,0,m,Mon May 05 2025 17:57:06 GMT-0500 (Central Daylight Time),248666.39999997616,pear,900,I,z,,,396,,,14,1,2595.199999988079,246071.19999998808,7137,iron,NF,C,,,,,,,,,,3
1,prac,2,con,1,z,Mon May 05 2025 17:57:06 GMT-0500 (Central Daylight Time),251115.30000001192,banana,800,I,z,,,345,,,1,1,2445.0,248670.30000001192,7137,banana,NF,C,,,,,,,,,,4
2,prac,2,inc,1,z,Mon May 05 2025 17:57:06 GMT-0500 (Central Daylight Time),253781.5,copper,900,I,z,,,459,,,2,1,2661.699999988079,251119.80000001192,7137,cherry,NF,C,,,,,,,,,,5
2,prac,2,con,0,m,Mon May 05 2025 17:57:06 GMT-0500 (Central Daylight Time),256280.59999996424,gold,800,I,z,,,389,,,13,1,2495.0,253785.59999996424,7137,gold,NF,C,,,,,,,,,,6
2,prac,2,inc,0,m,Mon May 05 2025 17:57:06 GMT-0500 (Central Daylight Time),259079.80000001192,plum,1100,I,z,,,397,,,16,1,2795.5,256284.30000001192,7137,lead,NF,C,,,,,,,,,,7
2,prac,2,con,0,z,Mon May 05 2025 17:57:06 GMT-0500 (Central Daylight Time),263944.8000000119,lime,800,I,None,,,1799,,,5,1,4861.0,259083.80000001192,7137,lime,NF,C,,,,,,,,,,8
2,prac,2,inc,0,z,Mon May 05 2025 17:57:06 GMT-0500 (Central Daylight Time),268909.89999997616,iron,900,I,None,,,1799,,,6,1,4960.199999988079,263949.6999999881,7137,pear,NF,C,,,,,,,,,,9
2,prac,2,inc,0,m,Mon May 05 2025 17:57:06 GMT-0500 (Central Daylight Time),274075.1999999881,raisin,1100,I,None,,,1799,,,12,1,5161.399999976158,268913.8000000119,7137,cobalt,NF,C,,,,,,,,,,10
2,prac,2,con,0,m,Mon May 05 2025 17:57:06 GMT-0500 (Central Daylight Time),279140.09999996424,silver,1000,I,None,,,1799,,,11,1,5060.299999952316,274079.8000000119,7137,silver,NF,C,,,,,,,,,,11
2,prac,2,inc,0,z,Mon May 05 2025 17:57:06 GMT-0500 (Central Daylight Time),284305.09999996424,lead,1100,I,None,,,1799,,,8,1,5161.0,279144.09999996424,7137,plum,NF,C,,,,,,,,,,12
2,prac,2,con,0,z,Mon May 05 2025 17:57:06 GMT-0500 (Central Daylight Time),289387.3000000119,orange,1000,I,None,,,1815,,,3,1,5077.800000011921,284309.5,7137,orange,NF,C,,,,,,,,,,13
2,prac,2,con,0,m,Mon May 05 2025 17:57:06 GMT-0500 (Central Daylight Time),294452.1999999881,zinc,1000,I,None,,,1799,,,15,1,5061.0,289391.1999999881,7137,zinc,NF,C,,,,,,,,,,14
2,prac,2,inc,0,z,Mon May 05 2025 17:57:06 GMT-0500 (Central Daylight Time),299617.0,cobalt,1100,I,None,,,1799,,,4,1,5160.600000023842,294456.39999997616,7137,raisin,NF,C,,,,,,,,,,15
2,prac,2,inc,0,m,Mon May 05 2025 17:57:06 GMT-0500 (Central Daylight Time),304582.1999999881,cherry,900,I,None,,,1799,,,10,1,4961.100000023842,299621.09999996424,7137,copper,NF,C,,,,,,,,,,16
0,prac,3,inc,0,m,Mon May 05 2025 17:57:06 GMT-0500 (Central Daylight Time),370494.8000000119,pear,900,I,None,,,1799,,,14,1,4960.100000023842,365534.6999999881,7137,iron,NF,C,,,,,,,,,,1
1,prac,3,inc,1,z,Mon May 05 2025 17:57:06 GMT-0500 (Central Daylight Time),373360.6999999881,lead,1100,I,z,,,457,,,8,1,2861.699999988079,370499.0,7137,plum,NF,C,,,,,,,,,,2
2,prac,3,con,1,z,Mon May 05 2025 17:57:06 GMT-0500 (Central Daylight Time),376026.09999996424,kiwi,1000,I,z,,,355,,,7,1,2661.2999999523163,373364.8000000119,7137,kiwi,NF,C,,,,,,,,,,3
3,prac,3,con,1,m,Mon May 05 2025 17:57:06 GMT-0500 (Central Daylight Time),378509.1999999881,bronze,800,I,m,,,376,,,9,1,2478.100000023842,376031.09999996424,7137,bronze,NF,C,,,,,,,,,,4
3,prac,3,inc,0,m,Mon May 05 2025 17:57:06 GMT-0500 (Central Daylight Time),381408.0,plum,1100,I,z,,,499,,,16,1,2894.900000035763,378513.09999996424,7137,lead,NF,C,,,,,,,,,,5
3,prac,3,con,0,m,Mon May 05 2025 17:57:06 GMT-0500 (Central Daylight Time),384090.6999999881,silver,1000,I,z,,,372,,,11,1,2678.699999988079,381412.0,7137,silver,NF,C,,,,,,,,,,6
4,prac,3,inc,1,z,Mon May 05 2025 17:57:06 GMT-0500 (Central Daylight Time),386739.8000000119,iron,900,I,z,,,444,,,6,1,2645.100000023842,384094.6999999881,7137,pear,NF,C,,,,,,,,,,7
4,prac,3,inc,0,m,Mon May 05 2025 17:57:06 GMT-0500 (Central Daylight Time),389455.59999996424,cherry,900,I,z,,,515,,,10,1,2712.099999964237,386743.5,7137,copper,NF,C,,,,,,,,,,8
5,prac,3,inc,1,z,Mon May 05 2025 17:57:06 GMT-0500 (Central Daylight Time),392188.1999999881,copper,900,I,z,,,527,,,2,1,2728.899999976158,389459.3000000119,7137,cherry,NF,C,,,,,,,,,,9
6,prac,3,con,1,m,Mon May 05 2025 17:57:06 GMT-0500 (Central Daylight Time),394820.6999999881,zinc,1000,I,m,,,328,,,15,1,2628.800000011921,392191.89999997616,7137,zinc,NF,C,,,,,,,,,,10
7,prac,3,con,1,z,Mon May 05 2025 17:57:06 GMT-0500 (Central Daylight Time),397569.6999999881,lime,800,I,z,,,638,,,5,1,2745.0,394824.6999999881,7137,lime,NF,C,,,,,,,,,,11
8,prac,3,con,1,m,Mon May 05 2025 17:57:06 GMT-0500 (Central Daylight Time),400018.89999997616,gold,800,I,m,,,346,,,13,1,2445.099999964237,397573.8000000119,7137,gold,NF,C,,,,,,,,,,12
9,prac,3,con,1,z,Mon May 05 2025 17:57:06 GMT-0500 (Central Daylight Time),402434.89999997616,banana,800,I,z,,,305,,,1,1,2412.099999964237,400022.8000000119,7137,banana,NF,C,,,,,,,,,,13
10,prac,3,inc,1,m,Mon May 05 2025 17:57:06 GMT-0500 (Central Daylight Time),405400.3000000119,raisin,1100,I,m,,,565,,,12,1,2961.400000035763,402438.89999997616,7137,cobalt,NF,C,,,,,,,,,,14
10,prac,3,inc,0,z,Mon May 05 2025 17:57:06 GMT-0500 (Central Daylight Time),408199.6999999881,cobalt,1100,I,m,,,398,,,4,1,2795.199999988079,405404.5,7137,raisin,NF,C,,,,,,,,,,15
11,prac,3,con,1,z,Mon May 05 2025 17:57:06 GMT-0500 (Central Daylight Time),410882.09999996424,orange,1000,I,z,,,379,,,3,1,2678.099999964237,408204.0,7137,orange,NF,C,,,,,,,,,,16
1,test,1,con,1,z,Mon May 05 2025 17:57:06 GMT-0500 (Central Daylight Time),451869.3000000119,orange,900,I,z,z,None,421,221.0,200.0,18,1,1863.2000000476837,450006.09999996424,7137,orange,NF,C,443898,443898,442268,443182,442269,444131,443698,443698,444131,1
2,test,1,inc,1,z,Mon May 05 2025 17:57:06 GMT-0500 (Central Daylight Time),453835.5,bronze,800,I,z,z,None,623,423.0,200.0,29,1,1961.800000011921,451873.6999999881,7137,raisin,NF,C,445664,445664,444136,444948,444136,446098,445464,445464,446097,2
3,test,1,inc,1,z,Mon May 05 2025 17:57:06 GMT-0500 (Central Daylight Time),455901.3000000119,zinc,1000,I,z,z,None,521,321.0,200.0,63,1,2061.7000000476837,453839.59999996424,7137,plum,NF,C,447830,447830,446102,447114,446102,448163,447630,447630,448163,3
4,test,1,con,1,z,Mon May 05 2025 17:57:06 GMT-0500 (Central Daylight Time),457934.0,cherry,1100,I,z,z,None,386,187.0,199.0,12,1,2028.800000011921,455905.1999999881,7137,cherry,NF,C,449996,449996,448167,449280,448168,450196,449797,449797,450196,4
5,test,1,con,1,m,Mon May 05 2025 17:57:06 GMT-0500 (Central Daylight Time),459950.09999996424,cobalt,1100,I,m,m,None,369,169.0,200.0,92,1,2012.5,457937.59999996424,7137,cobalt,NF,C,452029,452029,450200,451312,450200,452212,451829,451829,452212,5
6,test,1,inc,1,z,Mon May 05 2025 17:57:06 GMT-0500 (Central Daylight Time),461799.5,gold,800,I,z,z,None,510,310.0,200.0,53,1,1845.699999988079,459953.8000000119,7137,kiwi,NF,C,453745,453745,452216,453029,452216,454062,453545,453545,454061,6
6,test,1,inc,0,m,Mon May 05 2025 17:57:06 GMT-0500 (Central Daylight Time),463949.0,plum,1100,I,z,z,None,511,312.0,199.0,128,1,2145.300000011921,461803.6999999881,7137,lead,NF,C,455894,455895,454066,455178,454066,456211,455695,455695,456211,7
7,test,1,inc,1,m,Mon May 05 2025 17:57:06 GMT-0500 (Central Daylight Time),466131.5,raisin,1100,I,m,m,None,538,339.0,199.0,88,1,2178.699999988079,463952.8000000119,7137,silver,NF,C,458044,458044,456215,457327,456215,458394,457844,457844,458394,8
8,test,1,con,1,z,Mon May 05 2025 17:57:06 GMT-0500 (Central Daylight Time),468081.0,lime,800,I,z,z,None,599,400.0,199.0,33,1,1945.800000011921,466135.1999999881,7137,lime,NF,C,459927,459927,458397,459210,458398,460343,459727,459727,460343,9
9,test,1,con,1,m,Mon May 05 2025 17:57:06 GMT-0500 (Central Daylight Time),469812.09999996424,gold,800,I,m,m,None,398,198.0,200.0,97,1,1727.3999999761581,468084.6999999881,7137,gold,NF,C,461876,461876,460347,461160,460347,462074,461676,461676,462074,10
10,test,1,inc,1,z,Mon May 05 2025 17:57:06 GMT-0500 (Central Daylight Time),471746.3000000119,iron,900,I,z,z,None,489,290.0,199.0,62,1,1930.2000000476837,469816.09999996424,7137,plum,NF,C,463709,463709,462078,462992,462078,464008,463509,463509,464008,11
11,test,1,con,1,z,Mon May 05 2025 17:57:06 GMT-0500 (Central Daylight Time),473712.39999997616,raisin,1000,I,z,z,None,417,218.0,199.0,27,1,1962.3999999761581,471750.0,7137,raisin,NF,C,465741,465741,464012,465025,464012,465975,465542,465542,465974,12
12,test,1,con,1,z,Mon May 05 2025 17:57:06 GMT-0500 (Central Daylight Time),475595.3000000119,kiwi,1000,I,z,z,None,346,147.0,199.0,51,1,1879.0,473716.3000000119,7137,kiwi,NF,C,467708,467708,465978,466992,465979,467857,467508,467508,467857,13
13,test,1,con,1,z,Mon May 05 2025 17:57:06 GMT-0500 (Central Daylight Time),477477.8000000119,plum,900,I,z,z,None,437,237.0,200.0,58,1,1877.9000000357628,475599.89999997616,7137,plum,NF,C,469490,469490,467862,468774,467862,469740,469290,469290,469740,14
14,test,1,con,1,m,Mon May 05 2025 17:57:06 GMT-0500 (Central Daylight Time),479394.0,cobalt,1000,I,m,m,None,374,174.0,200.0,91,1,1912.6000000238419,477481.39999997616,7137,cobalt,NF,C,471473,471473,469743,470756,469744,471656,471273,471273,471656,15
15,test,1,con,1,m,Mon May 05 2025 17:57:06 GMT-0500 (Central Daylight Time),481310.0,zinc,1000,I,m,m,None,378,178.0,200.0,115,1,1912.5,479397.5,7137,zinc,NF,C,473389,473389,471660,472673,471660,473572,473189,473189,473572,16
16,test,1,con,1,z,Mon May 05 2025 17:57:06 GMT-0500 (Central Daylight Time),482992.8000000119,kiwi,800,I,z,z,None,341,142.0,199.0,49,1,1679.1000000238419,481313.6999999881,7137,kiwi,NF,C,475105,475105,473576,474389,473576,475255,474906,474906,475255,17
17,test,1,con,1,m,Mon May 05 2025 17:57:06 GMT-0500 (Central Daylight Time),484892.1999999881,copper,1000,I,m,m,None,355,155.0,200.0,75,1,1895.6000000238419,482996.59999996424,7137,copper,NF,C,476988,476988,475259,476271,475259,477154,476788,476788,477154,18
17,test,1,inc,0,m,Mon May 05 2025 17:57:06 GMT-0500 (Central Daylight Time),486941.59999996424,orange,1000,I,z,z,None,503,304.0,199.0,87,1,2045.5999999642372,484896.0,7137,silver,NF,C,478887,478887,477158,478171,477158,479204,478688,478688,479204,19
17,test,1,con,0,m,Mon May 05 2025 17:57:06 GMT-0500 (Central Daylight Time),488641.3000000119,bronze,800,I,z,z,None,365,166.0,199.0,65,1,1695.4000000357628,486945.89999997616,7137,bronze,NF,C,480737,480737,479208,480020,479208,480903,480537,480537,480903,20
18,test,1,con,1,z,Mon May 05 2025 17:57:06 GMT-0500 (Central Daylight Time),490656.8000000119,banana,1100,I,z,z,None,374,174.0,200.0,4,1,2011.5,488645.3000000119,7137,banana,NF,C,482736,482736,480907,482020,480908,482919,482536,482536,482919,21
19,test,1,con,1,m,Mon May 05 2025 17:57:06 GMT-0500 (Central Daylight Time),492456.6999999881,silver,900,I,m,m,None,359,159.0,200.0,82,1,1795.8999999761581,490660.8000000119,7137,silver,NF,C,484552,484552,482923,483835,482923,484719,484352,484352,484719,22
20,test,1,con,1,m,Mon May 05 2025 17:57:06 GMT-0500 (Central Daylight Time),494289.09999996424,cobalt,800,I,m,m,None,382,183.0,199.0,89,1,1828.2999999523163,492460.8000000119,7137,cobalt,NF,C,486368,486368,484723,485667,484723,486551,486169,486169,486551,23
21,test,1,inc,1,m,Mon May 05 2025 17:57:06 GMT-0500 (Central Daylight Time),496471.6999999881,plum,1100,I,m,m,None,535,335.0,200.0,104,1,2178.899999976158,494292.8000000119,7137,gold,NF,C,488384,488384,486555,487668,486555,488734,488184,488184,488734,24
21,test,1,inc,0,z,Mon May 05 2025 17:57:06 GMT-0500 (Central Daylight Time),498504.6999999881,lead,1100,I,m,m,None,392,192.0,200.0,48,1,2028.800000011921,496475.89999997616,7137,pear,NF,C,490567,490567,488738,489851,488738,490767,490367,490367,490767,25
22,test,1,inc,1,m,Mon May 05 2025 17:57:06 GMT-0500 (Central Daylight Time),500604.09999996424,plum,1100,I,m,m,None,454,255.0,199.0,112,1,2095.5,498508.59999996424,7137,iron,NF,C,492600,492600,490771,491883,490771,492866,492400,492400,492866,26
23,test,1,con,1,z,Mon May 05 2025 17:57:06 GMT-0500 (Central Daylight Time),502686.6999999881,pear,1100,I,z,z,None,444,244.0,200.0,44,1,2079.0,500607.6999999881,7137,pear,NF,C,494699,494699,492870,493983,492870,494949,494499,494499,494949,27
24,test,1,inc,1,z,Mon May 05 2025 17:57:06 GMT-0500 (Central Daylight Time),504602.6999999881,iron,900,I,z,z,None,472,273.0,199.0,46,1,1912.1000000238419,502690.59999996424,7137,pear,NF,C,496582,496582,494953,495865,494953,496865,496382,496382,496865,28
24,test,1,inc,0,m,Mon May 05 2025 17:57:06 GMT-0500 (Central Daylight Time),506518.6999999881,orange,1000,I,z,z,None,369,169.0,200.0,79,1,1912.300000011921,504606.39999997616,7137,copper,NF,C,498598,498598,496868,497881,496869,498781,498398,498398,498781,29
25,test,1,inc,1,m,Mon May 05 2025 17:57:06 GMT-0500 (Central Daylight Time),508601.39999997616,pear,900,I,m,m,None,648,449.0,199.0,110,1,2078.899999976158,506522.5,7137,iron,NF,C,500414,500414,498785,499698,498785,500863,500214,500214,500863,30
26,test,1,inc,1,z,Mon May 05 2025 17:57:06 GMT-0500 (Central Daylight Time),510617.3000000119,copper,900,I,z,z,None,581,382.0,199.0,30,1,2012.4000000357628,508604.89999997616,7137,raisin,NF,C,502497,502497,500867,501780,500867,502879,502297,502297,502879,31
27,test,1,inc,1,m,Mon May 05 2025 17:57:06 GMT-0500 (Central Daylight Time),512833.3000000119,plum,1100,I,m,m,None,581,382.0,199.0,120,1,2212.300000011921,510621.0,7137,zinc,NF,C,504713,504713,502883,503996,502883,505095,504513,504513,505095,32
28,test,1,inc,1,m,Mon May 05 2025 17:57:06 GMT-0500 (Central Daylight Time),514716.3000000119,banana,800,I,m,m,None,545,346.0,199.0,69,1,1879.6000000238419,512836.6999999881,7137,bronze,NF,C,506629,506629,505099,505912,505099,506978,506429,506429,506978,33
29,test,1,con,1,m,Mon May 05 2025 17:57:06 GMT-0500 (Central Daylight Time),516465.39999997616,silver,800,I,m,m,None,416,216.0,200.0,81,1,1745.3999999761581,514720.0,7137,silver,NF,C,508511,508511,506982,507795,506982,508728,508311,508311,508727,34
30,test,1,con,1,m,Mon May 05 2025 17:57:06 GMT-0500 (Central Daylight Time),518315.09999996424,iron,800,I,m,m,None,514,314.0,200.0,105,1,1846.199999988079,516468.89999997616,7137,iron,NF,C,510261,510261,508731,509545,508731,510577,510061,510061,510577,35
30,test,1,inc,0,z,Mon May 05 2025 17:57:06 GMT-0500 (Central Daylight Time),520497.5,cobalt,1100,I,m,m,None,549,349.0,200.0,16,1,2178.600000023842,518318.89999997616,7137,cherry,NF,C,512410,512410,510581,511694,510581,512760,512210,512210,512760,36
31,test,1,con,1,z,Mon May 05 2025 17:57:06 GMT-0500 (Central Daylight Time),522413.89999997616,cherry,800,I,z,z,None,570,370.0,200.0,9,1,1912.800000011921,520501.09999996424,7137,cherry,NF,C,514293,514293,512763,513577,512763,514676,514093,514093,514676,37
32,test,1,con,1,z,Mon May 05 2025 17:57:06 GMT-0500 (Central Daylight Time),524446.5999999642,lime,1100,I,z,z,None,386,186.0,200.0,36,1,2029.199999988079,522417.39999997616,7137,lime,NF,C,516509,516509,514679,515792,514680,516709,516309,516309,516709,38
33,test,1,inc,1,z,Mon May 05 2025 17:57:06 GMT-0500 (Central Daylight Time),526579.0999999642,lead,1100,I,z,z,None,505,306.0,199.0,40,1,2129.0,524450.0999999642,7137,lime,NF,C,518525,518525,516712,517825,516712,518841,518326,518326,518841,39
34,test,1,inc,1,m,Mon May 05 2025 17:57:06 GMT-0500 (Central Daylight Time),528611.8999999762,orange,1000,I,m,m,None,497,297.0,200.0,95,1,2029.199999988079,526582.6999999881,7137,cobalt,NF,C,520574,520574,518845,519858,518845,520874,520374,520374,520874,40
35,test,1,con,1,z,Mon May 05 2025 17:57:06 GMT-0500 (Central Daylight Time),530427.8999999762,raisin,900,I,z,z,None,380,180.0,200.0,26,1,1812.3999999761581,528615.5,7137,raisin,NF,C,522507,522507,520878,521790,520878,522690,522307,522307,522690,41
36,test,1,inc,1,z,Mon May 05 2025 17:57:06 GMT-0500 (Central Daylight Time),532660.6999999881,cobalt,1100,I,z,z,None,588,388.0,200.0,32,1,2229.100000023842,530431.5999999642,7137,raisin,NF,C,524523,524523,522694,523807,522694,524923,524323,524323,524923,42
37,test,1,con,1,m,Mon May 05 2025 17:57:06 GMT-0500 (Central Daylight Time),534693.1999999881,gold,1100,I,m,m,None,395,196.0,199.0,100,1,2028.5,532664.6999999881,7137,gold,NF,C,526755,526755,524927,526039,524927,526955,526556,526556,526955,43
38,test,1,inc,1,m,Mon May 05 2025 17:57:06 GMT-0500 (Central Daylight Time),536559.3999999762,lime,800,I,m,m,None,517,318.0,199.0,125,1,1862.3999999761581,534697.0,7137,lead,NF,C,528489,528489,526959,527772,526959,528822,528289,528289,528821,44
39,test,1,con,1,m,Mon May 05 2025 17:57:06 GMT-0500 (Central Daylight Time),538375.5999999642,copper,900,I,m,m,None,367,168.0,199.0,74,1,1812.5,536563.0999999642,7137,copper,NF,C,530454,530454,528825,529738,528825,530638,530255,530255,530638,45
40,test,1,con,1,m,Mon May 05 2025 17:57:06 GMT-0500 (Central Daylight Time),540650.8000000119,iron,1100,I,m,m,None,641,442.0,199.0,108,1,2271.100000023842,538379.6999999881,7137,iron,NF,C,532470,532471,530642,531754,530642,532913,532271,532271,532913,46
41,test,1,inc,1,m,Mon May 05 2025 17:57:06 GMT-0500 (Central Daylight Time),542574.0999999642,pear,900,I,m,m,None,493,294.0,199.0,102,1,1919.3999999761581,540654.6999999881,7137,gold,NF,C,534537,534537,532917,533820,532917,534836,534337,534337,534836,47
41,test,1,con,0,z,Mon May 05 2025 17:57:06 GMT-0500 (Central Daylight Time),544690.0999999642,plum,1100,I,m,m,None,481,282.0,199.0,60,1,2112.2999999523163,542577.8000000119,7137,plum,NF,C,536669,536669,534840,535953,534840,536952,536470,536470,536952,48
42,test,1,inc,1,m,Mon May 05 2025 17:57:06 GMT-0500 (Central Daylight Time),546839.5999999642,kiwi,1000,I,m,m,None,602,402.0,200.0,127,1,2145.599999964237,544694.0,7137,lead,NF,C,538685,538685,536956,537969,536956,539102,538485,538485,539102,49
43,test,1,inc,1,z,Mon May 05 2025 17:57:06 GMT-0500 (Central Daylight Time),548705.6999999881,bronze,800,I,z,z,None,523,324.0,199.0,5,1,1862.3999999761581,546843.3000000119,7137,banana,NF,C,540634,540635,539105,539918,539106,540968,540435,540435,540968,50
44,test,1,inc,1,z,Mon May 05 2025 17:57:06 GMT-0500 (Central Daylight Time),550604.8000000119,gold,800,I,z,z,None,553,354.0,199.0,37,1,1895.5,548709.3000000119,7137,lime,NF,C,542501,542501,540971,541784,540972,542867,542301,542301,542867,51
45,test,1,con,1,z,Mon May 05 2025 17:57:06 GMT-0500 (Central Daylight Time),552621.0999999642,banana,1000,I,z,z,None,471,271.0,200.0,3,1,2012.5999999642372,550608.5,7137,banana,NF,C,544600,544600,542871,543883,542871,544883,544400,544400,544883,52
46,test,1,inc,1,m,Mon May 05 2025 17:57:06 GMT-0500 (Central Daylight Time),554670.3999999762,cherry,900,I,m,m,None,602,403.0,199.0,86,1,2045.5999999642372,552624.8000000119,7137,silver,NF,C,546516,546516,544887,545800,544887,546932,546317,546317,546932,53
47,test,1,con,1,z,Mon May 05 2025 17:57:06 GMT-0500 (Central Daylight Time),556553.0,banana,800,I,z,z,None,540,341.0,199.0,1,1,1878.800000011921,554674.1999999881,7137,banana,NF,C,548466,548466,546936,547749,546937,548815,548266,548266,548815,54
48,test,1,con,1,z,Mon May 05 2025 17:57:06 GMT-0500 (Central Daylight Time),558469.0999999642,banana,900,I,z,z,None,471,271.0,200.0,2,1,1912.0999999642372,556557.0,7137,banana,NF,C,550448,550448,548819,549732,548819,550731,550248,550248,550731,55
49,test,1,con,1,z,Mon May 05 2025 17:57:06 GMT-0500 (Central Daylight Time),560401.6999999881,cherry,1000,I,z,z,None,399,199.0,200.0,11,1,1928.800000011921,558472.8999999762,7137,cherry,NF,C,552464,552464,550735,551748,550735,552664,552264,552264,552664,56
49,test,1,con,0,m,Mon May 05 2025 17:57:06 GMT-0500 (Central Daylight Time),562201.0999999642,copper,800,I,z,z,None,466,266.0,200.0,73,1,1795.7999999523163,560405.3000000119,7137,copper,NF,C,554197,554197,552667,553481,552668,554463,553997,553997,554463,57
50,test,1,inc,1,z,Mon May 05 2025 17:57:06 GMT-0500 (Central Daylight Time),564500.6999999881,lead,1100,I,z,z,None,653,404.0,249.0,64,1,2296.100000023842,562204.5999999642,7137,plum,NF,C,556346,556347,554467,555580,554467,556763,556096,556097,556763,58
51,test,1,inc,1,m,Mon May 05 2025 17:57:06 GMT-0500 (Central Daylight Time),566449.6999999881,cherry,900,I,m,m,None,514,315.0,199.0,94,1,1945.199999988079,564504.5,7137,cobalt,NF,C,558395,558396,556767,557679,556767,558712,558196,558196,558712,59
52,test,1,con,1,z,Mon May 05 2025 17:57:06 GMT-0500 (Central Daylight Time),568467.1999999881,raisin,1100,I,z,z,None,382,182.0,200.0,28,1,2013.8999999761581,566453.3000000119,7137,raisin,NF,C,560545,560545,558715,559829,558716,560729,560345,560345,560729,60
53,test,1,con,1,m,Mon May 05 2025 17:57:06 GMT-0500 (Central Daylight Time),570615.1999999881,gold,1000,I,m,m,None,602,402.0,200.0,99,1,2143.899999976158,568471.3000000119,7137,gold,NF,C,562461,562461,560733,561745,560734,562877,562261,562261,562877,61
54,test,1,inc,1,z,Mon May 05 2025 17:57:06 GMT-0500 (Central Daylight Time),572747.8999999762,lead,1100,I,z,z,None,487,288.0,199.0,56,1,2129.0,570618.8999999762,7137,kiwi,NF,C,564711,564711,562881,563994,562881,565010,564511,564511,565010,62
55,test,1,con,1,m,Mon May 05 2025 17:57:06 GMT-0500 (Central Daylight Time),574730.6999999881,lead,800,I,m,m,None,640,440.0,200.0,121,1,1979.1000000238419,572751.5999999642,7137,lead,NF,C,566543,566543,565014,565827,565014,566993,566343,566343,566993,63
56,test,1,inc,1,z,Mon May 05 2025 17:57:06 GMT-0500 (Central Daylight Time),576830.0,zinc,1000,I,z,z,None,561,361.0,200.0,39,1,2095.600000023842,574734.3999999762,7137,lime,NF,C,568726,568726,566996,568009,566997,569092,568526,568526,569092,64
57,test,1,inc,1,m,Mon May 05 2025 17:57:06 GMT-0500 (Central Daylight Time),578912.8999999762,kiwi,1000,I,m,m,None,534,334.0,200.0,111,1,2079.099999964237,576833.8000000119,7137,iron,NF,C,570825,570825,569096,570109,569096,571175,570625,570625,571175,65
58,test,1,inc,1,z,Mon May 05 2025 17:57:06 GMT-0500 (Central Daylight Time),580945.3999999762,silver,1000,I,z,z,None,483,283.0,200.0,23,1,2028.800000011921,578916.5999999642,7137,orange,NF,C,572908,572908,571179,572192,571179,573208,572708,572708,573207,66
59,test,1,inc,1,m,Mon May 05 2025 17:57:06 GMT-0500 (Central Daylight Time),582911.5999999642,cherry,900,I,m,m,None,517,318.0,199.0,78,1,1962.2999999523163,580949.3000000119,7137,copper,NF,C,574840,574841,573211,574124,573212,575174,574641,574641,575174,67
60,test,1,inc,1,m,Mon May 05 2025 17:57:06 GMT-0500 (Central Daylight Time),584744.1999999881,lime,800,I,m,m,None,491,292.0,199.0,101,1,1828.8999999761581,582915.3000000119,7137,gold,NF,C,576707,576707,575177,575990,575178,577006,576507,576507,577006,68
61,test,1,inc,1,z,Mon May 05 2025 17:57:06 GMT-0500 (Central Daylight Time),586727.0999999642,iron,900,I,z,z,None,534,335.0,199.0,38,1,1979.2999999523163,584747.8000000119,7137,lime,NF,C,578640,578640,577010,577923,577010,578989,578440,578440,578989,69
62,test,1,inc,1,m,Mon May 05 2025 17:57:06 GMT-0500 (Central Daylight Time),588993.0999999642,raisin,1100,I,m,m,None,617,417.0,200.0,96,1,2262.2999999523163,586730.8000000119,7137,cobalt,NF,C,580822,580822,578993,580107,578993,581255,580622,580622,581255,70
63,test,1,con,1,z,Mon May 05 2025 17:57:06 GMT-0500 (Central Daylight Time),590909.0999999642,pear,800,I,z,z,None,579,379.0,200.0,41,1,1912.199999988079,588996.8999999762,7137,pear,NF,C,582788,582788,581259,582072,581259,583171,582588,582588,583171,71
64,test,1,inc,1,z,Mon May 05 2025 17:57:06 GMT-0500 (Central Daylight Time),592958.6999999881,silver,1000,I,z,z,None,503,303.0,200.0,31,1,2045.8999999761581,590912.8000000119,7137,raisin,NF,C,584904,584904,583175,584188,583175,585221,584704,584704,585221,72
65,test,1,inc,1,z,Mon May 05 2025 17:57:06 GMT-0500 (Central Daylight Time),595157.8000000119,cobalt,1100,I,z,z,None,561,362.0,199.0,24,1,2195.600000023842,592962.1999999881,7137,orange,NF,C,587053,587053,585224,586337,585225,587420,586854,586854,587420,73
66,test,1,inc,1,m,Mon May 05 2025 17:57:06 GMT-0500 (Central Daylight Time),597057.1999999881,banana,800,I,m,m,None,549,350.0,199.0,93,1,1895.800000011921,595161.3999999762,7137,cobalt,NF,C,588953,588953,587423,588236,587424,589319,588753,588753,589319,74
67,test,1,inc,1,m,Mon May 05 2025 17:57:06 GMT-0500 (Central Daylight Time),598989.6999999881,cherry,900,I,m,m,None,495,295.0,200.0,70,1,1928.699999988079,597061.0,7137,bronze,NF,C,590952,590952,589323,590236,589323,591252,590752,590752,591252,75
68,test,1,con,1,m,Mon May 05 2025 17:57:06 GMT-0500 (Central Daylight Time),601172.5,bronze,1100,I,m,m,None,538,338.0,200.0,68,1,2178.900000035763,598993.5999999642,7137,bronze,NF,C,593085,593085,591256,592369,591256,593435,592885,592885,593435,76
68,test,1,con,0,m,Mon May 05 2025 17:57:06 GMT-0500 (Central Daylight Time),603188.6999999881,lead,1000,I,z,z,None,478,279.0,199.0,123,1,2012.199999988079,601176.5,7137,lead,NF,C,595168,595168,593439,594451,593439,595451,594968,594968,595451,77
69,test,1,inc,1,z,Mon May 05 2025 17:57:06 GMT-0500 (Central Daylight Time),605054.6999999881,gold,800,I,z,z,None,527,327.0,200.0,45,1,1861.8999999761581,603192.8000000119,7137,pear,NF,C,596984,596984,595455,596267,595455,597317,596784,596784,597317,78
70,test,1,inc,1,z,Mon May 05 2025 17:57:06 GMT-0500 (Central Daylight Time),606887.3999999762,gold,800,I,z,z,None,492,293.0,199.0,61,1,1828.5999999642372,605058.8000000119,7137,plum,NF,C,598850,598850,597321,598133,597321,599149,598650,598650,599149,79
71,test,1,con,1,z,Mon May 05 2025 17:57:06 GMT-0500 (Central Daylight Time),608820.0,lime,1000,I,z,z,None,388,188.0,200.0,35,1,1929.0,606891.0,7137,lime,NF,C,600883,600883,599153,600166,599153,601082,600682,600682,601082,80
71,test,1,con,0,m,Mon May 05 2025 17:57:06 GMT-0500 (Central Daylight Time),610819.0999999642,silver,1000,I,z,z,None,463,263.0,200.0,83,1,1995.5,608823.5999999642,7137,silver,NF,C,602815,602815,601086,602099,601086,603081,602615,602615,603081,81
72,test,1,con,1,m,Mon May 05 2025 17:57:06 GMT-0500 (Central Daylight Time),612602.1999999881,zinc,800,I,m,m,None,447,248.0,199.0,113,1,1779.199999988079,610823.0,7137,zinc,NF,C,604615,604615,603085,603898,603085,604864,604415,604415,604864,82
73,test,1,con,1,z,Mon May 05 2025 17:57:06 GMT-0500 (Central Daylight Time),614484.8999999762,pear,900,I,z,z,None,445,246.0,199.0,42,1,1878.800000011921,612606.0999999642,7137,pear,NF,C,606497,606497,604868,605781,604868,606747,606298,606298,606747,83
74,test,1,inc,1,m,Mon May 05 2025 17:57:06 GMT-0500 (Central Daylight Time),616667.8000000119,raisin,1100,I,m,m,None,539,339.0,200.0,72,1,2179.300000011921,614488.5,7137,bronze,NF,C,608580,608580,606751,607864,606751,608930,608380,608380,608930,84
75,test,1,inc,1,z,Mon May 05 2025 17:57:06 GMT-0500 (Central Daylight Time),618550.1999999881,bronze,800,I,z,z,None,544,344.0,200.0,13,1,1878.699999988079,616671.5,7137,cherry,NF,C,610463,610463,608934,609747,608934,610812,610263,610263,610812,85
76,test,1,inc,1,m,Mon May 05 2025 17:57:06 GMT-0500 (Central Daylight Time),620499.8000000119,pear,900,I,m,m,None,504,305.0,199.0,118,1,1945.9000000357628,618553.8999999762,7137,zinc,NF,C,612445,612446,610816,611729,610816,612762,612246,612246,612762,86
76,test,1,con,0,m,Mon May 05 2025 17:57:06 GMT-0500 (Central Daylight Time),622615.6999999881,iron,1000,I,z,z,None,566,367.0,199.0,107,1,2112.199999988079,620503.5,7137,iron,NF,C,614495,614495,612766,613778,612766,614878,614295,614295,614878,87
77,test,1,con,1,m,Mon May 05 2025 17:57:06 GMT-0500 (Central Daylight Time),624531.6999999881,bronze,900,I,m,m,None,480,280.0,200.0,66,1,1912.199999988079,622619.5,7137,bronze,NF,C,616511,616511,614882,615795,614882,616794,616311,616311,616794,88
77,test,1,inc,0,z,Mon May 05 2025 17:57:06 GMT-0500 (Central Daylight Time),626331.1999999881,bronze,800,I,m,m,None,463,264.0,199.0,21,1,1795.8999999761581,624535.3000000119,7137,orange,NF,C,618327,618327,616797,617611,616798,618593,618128,618128,618593,89
78,test,1,inc,1,z,Mon May 05 2025 17:57:06 GMT-0500 (Central Daylight Time),628280.6999999881,iron,900,I,z,z,None,501,301.0,200.0,54,1,1945.800000011921,626334.8999999762,7137,kiwi,NF,C,620226,620226,618597,619510,618597,620543,620026,620026,620543,90
79,test,1,con,1,m,Mon May 05 2025 17:57:06 GMT-0500 (Central Daylight Time),630363.3000000119,copper,1100,I,m,m,None,446,247.0,199.0,76,1,2079.0,628284.3000000119,7137,copper,NF,C,622376,622376,620546,621659,620547,622625,622176,622176,622625,91
80,test,1,inc,1,z,Mon May 05 2025 17:57:06 GMT-0500 (Central Daylight Time),632296.0,copper,900,I,z,z,None,483,284.0,199.0,6,1,1929.199999988079,630366.8000000119,7137,banana,NF,C,624258,624258,622629,623542,622629,624558,624059,624059,624558,92
81,test,1,con,1,m,Mon May 05 2025 17:57:06 GMT-0500 (Central Daylight Time),634328.8000000119,zinc,1100,I,m,m,None,384,184.0,200.0,116,1,2029.0,632299.8000000119,7137,zinc,NF,C,626391,626391,624562,625675,624562,626591,626191,626191,626591,93
82,test,1,inc,1,z,Mon May 05 2025 17:57:06 GMT-0500 (Central Daylight Time),636394.8999999762,silver,1000,I,z,z,None,522,323.0,199.0,15,1,2062.399999976158,634332.5,7137,cherry,NF,C,628324,628324,626595,627608,626595,628657,628124,628124,628657,94
83,test,1,inc,1,m,Mon May 05 2025 17:57:06 GMT-0500 (Central Daylight Time),638277.5,lime,800,I,m,m,None,545,345.0,200.0,117,1,1879.1000000238419,636398.3999999762,7137,zinc,NF,C,630190,630190,628660,629473,628661,630540,629990,629990,630540,95
84,test,1,inc,1,m,Mon May 05 2025 17:57:06 GMT-0500 (Central Daylight Time),640276.8000000119,banana,800,I,m,m,None,661,462.0,199.0,77,1,1995.800000011921,638281.0,7137,copper,NF,C,632073,632073,630543,631356,630543,632539,631873,631873,632539,96
85,test,1,inc,1,m,Mon May 05 2025 17:57:06 GMT-0500 (Central Daylight Time),642442.8999999762,kiwi,1000,I,m,m,None,622,423.0,199.0,119,1,2162.199999988079,640280.6999999881,7137,zinc,NF,C,634272,634272,632543,633556,632543,634705,634072,634072,634705,97
86,test,1,con,1,z,Mon May 05 2025 17:57:06 GMT-0500 (Central Daylight Time),644358.8999999762,plum,1000,I,z,z,None,369,169.0,200.0,59,1,1912.3999999761581,642446.5,7137,plum,NF,C,636438,636438,634709,635722,634709,636621,636238,636238,636621,98
87,test,1,inc,1,z,Mon May 05 2025 17:57:06 GMT-0500 (Central Daylight Time),646458.3000000119,silver,1000,I,z,z,None,557,357.0,200.0,7,1,2095.7000000476837,644362.5999999642,7137,banana,NF,C,638354,638354,636625,637637,636625,638720,638154,638154,638720,99
88,test,1,inc,1,m,Mon May 05 2025 17:57:06 GMT-0500 (Central Daylight Time),648440.8999999762,pear,900,I,m,m,None,549,350.0,199.0,126,1,1979.0,646461.8999999762,7137,lead,NF,C,640353,640353,638724,639637,638724,640703,640154,640154,640703,100
89,test,1,con,1,z,Mon May 05 2025 17:57:06 GMT-0500 (Central Daylight Time),650457.0,kiwi,1100,I,z,z,None,383,183.0,200.0,52,1,2012.300000011921,648444.6999999881,7137,kiwi,NF,C,642536,642536,640707,641820,640707,642719,642336,642336,642719,101
90,test,1,con,1,z,Mon May 05 2025 17:57:06 GMT-0500 (Central Daylight Time),652423.0999999642,orange,1000,I,z,z,None,427,227.0,200.0,19,1,1962.5999999642372,650460.5,7137,orange,NF,C,644452,644452,642723,643736,642723,644685,644252,644252,644685,102
91,test,1,inc,1,m,Mon May 05 2025 17:57:06 GMT-0500 (Central Daylight Time),654555.8000000119,orange,1000,I,m,m,None,597,397.0,200.0,71,1,2129.0,652426.8000000119,7137,bronze,NF,C,646418,646418,644689,645702,644689,646818,646218,646218,646818,103
92,test,1,con,1,m,Mon May 05 2025 17:57:06 GMT-0500 (Central Daylight Time),656655.0,gold,900,I,m,m,None,660,460.0,200.0,98,1,2095.199999988079,654559.8000000119,7137,gold,NF,C,648451,648451,646822,647734,646822,648917,648251,648251,648917,104
93,test,1,con,1,z,Mon May 05 2025 17:57:06 GMT-0500 (Central Daylight Time),658670.8000000119,kiwi,900,I,z,z,None,568,288.0,280.0,50,1,2012.2000000476837,656658.5999999642,7137,kiwi,NF,C,650630,650630,648921,649834,648921,650933,650350,650350,650933,105
94,test,1,con,1,z,Mon May 05 2025 17:57:06 GMT-0500 (Central Daylight Time),660787.1999999881,orange,1100,I,z,z,None,481,281.0,200.0,20,1,2112.699999988079,658674.5,7137,orange,NF,C,652766,652766,650937,652050,650937,653049,652566,652566,653049,106
95,test,1,inc,1,z,Mon May 05 2025 17:57:06 GMT-0500 (Central Daylight Time),662686.5999999642,copper,900,I,z,z,None,461,261.0,200.0,14,1,1895.7999999523163,660790.8000000119,7137,cherry,NF,C,654682,654682,653053,653966,653053,654949,654482,654482,654949,107
96,test,1,con,1,z,Mon May 05 2025 17:57:06 GMT-0500 (Central Daylight Time),664536.0,lime,900,I,z,z,None,400,201.0,199.0,34,1,1845.699999988079,662690.3000000119,7137,lime,NF,C,656582,656582,654952,655865,654953,656798,656382,656382,656798,108
97,test,1,inc,1,z,Mon May 05 2025 17:57:06 GMT-0500 (Central Daylight Time),666668.5999999642,zinc,1000,I,z,z,None,596,396.0,200.0,55,1,2128.7999999523163,664539.8000000119,7137,kiwi,NF,C,658531,658531,656802,657816,656802,658931,658331,658331,658931,109
98,test,1,con,1,z,Mon May 05 2025 17:57:06 GMT-0500 (Central Daylight Time),668668.0,pear,1000,I,z,z,None,463,264.0,199.0,43,1,1995.800000011921,666672.1999999881,7137,pear,NF,C,660663,660663,658934,659947,658935,660930,660464,660464,660930,110
99,test,1,inc,1,m,Mon May 05 2025 17:57:06 GMT-0500 (Central Daylight Time),670600.8000000119,banana,800,I,m,m,None,584,383.0,201.0,85,1,1929.1000000238419,668671.6999999881,7137,silver,NF,C,662464,662464,660934,661747,660934,662863,662263,662263,662863,111
100,test,1,con,1,z,Mon May 05 2025 17:57:06 GMT-0500 (Central Daylight Time),672550.0999999642,cherry,900,I,z,z,None,511,310.0,201.0,10,1,1945.3999999761581,670604.6999999881,7137,cherry,NF,C,664497,664497,662867,663779,662867,664812,664296,664296,664812,112
101,test,1,con,1,m,Mon May 05 2025 17:57:06 GMT-0500 (Central Daylight Time),674532.8999999762,cobalt,900,I,m,m,None,546,346.0,200.0,90,1,1979.0999999642372,672553.8000000119,7137,cobalt,NF,C,666445,666445,664816,665729,664816,666795,666245,666245,666795,113
102,test,1,inc,1,z,Mon May 05 2025 17:57:06 GMT-0500 (Central Daylight Time),676449.0,copper,900,I,z,z,None,482,283.0,199.0,22,1,1912.5,674536.5,7137,orange,NF,C,668428,668428,666799,667711,666799,668711,668228,668228,668711,114
103,test,1,inc,1,z,Mon May 05 2025 17:57:06 GMT-0500 (Central Daylight Time),678631.5999999642,cobalt,1100,I,z,z,None,535,335.0,200.0,8,1,2178.899999976158,676452.6999999881,7137,banana,NF,C,670544,670544,668715,669828,668715,670894,670344,670344,670894,115
104,test,1,con,1,m,Mon May 05 2025 17:57:06 GMT-0500 (Central Daylight Time),680864.0999999642,silver,1100,I,m,m,None,591,392.0,199.0,84,1,2228.599999964237,678635.5,7137,silver,NF,C,672727,672727,670898,672010,670898,673126,672527,672527,673126,116
105,test,1,inc,1,m,Mon May 05 2025 17:57:06 GMT-0500 (Central Daylight Time),683080.0,raisin,1100,I,m,m,None,525,325.0,200.0,80,1,2212.300000011921,680867.6999999881,7137,copper,NF,C,675010,675010,673130,674304,673130,675342,674810,674810,675342,117
106,test,1,con,1,z,Mon May 05 2025 17:57:06 GMT-0500 (Central Daylight Time),685112.6999999881,raisin,800,I,z,z,None,683,484.0,199.0,25,1,2028.800000011921,683083.8999999762,7137,raisin,NF,C,676875,676875,675346,676159,675346,677375,676676,676676,677375,118
107,test,1,con,1,m,Mon May 05 2025 17:57:06 GMT-0500 (Central Daylight Time),687212.1999999881,bronze,1000,I,m,m,None,563,363.0,200.0,67,1,2095.600000023842,685116.5999999642,7137,bronze,NF,C,679108,679108,677379,678392,677379,679474,678908,678908,679474,119
107,test,1,con,0,m,Mon May 05 2025 17:57:06 GMT-0500 (Central Daylight Time),689144.8999999762,zinc,900,I,z,z,None,491,292.0,199.0,114,1,1928.8999999761581,687216.0,7137,zinc,NF,C,681107,681107,679478,680391,679478,681407,680908,680908,681407,120
108,test,1,con,1,m,Mon May 05 2025 17:57:06 GMT-0500 (Central Daylight Time),691077.8000000119,iron,900,I,m,m,None,495,295.0,200.0,106,1,1929.1000000238419,689148.6999999881,7137,iron,NF,C,683040,683040,681411,682324,681411,683340,682840,682840,683340,121
109,test,1,inc,1,m,Mon May 05 2025 17:57:06 GMT-0500 (Central Daylight Time),693110.3000000119,kiwi,1000,I,m,m,None,494,294.0,200.0,103,1,2028.6000000238419,691081.6999999881,7137,gold,NF,C,685073,685073,683344,684356,683344,685372,684873,684873,685372,122
110,test,1,con,1,m,Mon May 05 2025 17:57:06 GMT-0500 (Central Daylight Time),695292.8999999762,lead,1100,I,m,m,None,537,337.0,200.0,124,1,2178.899999976158,693114.0,7137,lead,NF,C,687206,687206,685376,686489,685376,687555,687005,687005,687555,123
111,test,1,con,1,m,Mon May 05 2025 17:57:06 GMT-0500 (Central Daylight Time),697142.3000000119,lead,900,I,m,m,None,403,203.0,200.0,122,1,1845.6000000238419,695296.6999999881,7137,lead,NF,C,689188,689188,687559,688472,687559,689405,688988,688988,689404,124
112,test,1,con,1,z,Mon May 05 2025 17:57:06 GMT-0500 (Central Daylight Time),699058.3999999762,plum,800,I,z,z,None,572,373.0,199.0,57,1,1912.300000011921,697146.0999999642,7137,plum,NF,C,690938,690938,689408,690221,689408,691321,690737,690738,691320,125
113,test,1,con,1,z,Mon May 05 2025 17:57:06 GMT-0500 (Central Daylight Time),700807.8000000119,orange,800,I,z,z,None,400,201.0,199.0,17,1,1745.6000000238419,699062.1999999881,7137,orange,NF,C,692854,692854,691324,692137,691325,693070,692654,692654,693070,126
114,test,1,inc,1,m,Mon May 05 2025 17:57:06 GMT-0500 (Central Daylight Time),702723.8999999762,lime,800,I,m,m,None,579,380.0,199.0,109,1,1912.199999988079,700811.6999999881,7137,iron,NF,C,694603,694603,693074,693887,693074,694986,694404,694404,694986,127
115,test,1,inc,1,z,Mon May 05 2025 17:57:06 GMT-0500 (Central Daylight Time),704806.6999999881,zinc,1000,I,z,z,None,536,336.0,200.0,47,1,2079.100000023842,702727.5999999642,7137,pear,NF,C,696719,696719,694990,696003,694990,697069,696519,696519,697069,128
