acc_sum,block,block_c,condition,correct,correct_response,datetime,endtime,flanker,jitter,project,response,response_test_buffer_response,response_test_target_response,response_time,response_time_test_buffer_response,response_time_test_target_response,row_sel,session_number,start_end,starttime,subject_id,target,task,task_vers,time_test_buffer,time_test_buffer_response,time_test_constants,time_test_flanker,time_test_jitter,time_test_logger,time_test_target,time_test_target_response,time_test_variables,trial
1,prac,1,con,1,m,Tue Mar 31 2026 08:31:14 GMT-0500 (Central Daylight Time),66934.0,remote,1000,I,m,,,928,,,7,2,3227.900000002235,63706.099999997765,8087,remote,AF,A,,,,,,,,,,1
2,prac,1,con,1,z,Tue Mar 31 2026 08:31:14 GMT-0500 (Central Daylight Time),69700.5,rage,1000,I,z,,,451,,,15,2,2759.10000000149,66941.39999999851,8087,rage,AF,A,,,,,,,,,,2
3,prac,1,con,1,z,Tue Mar 31 2026 08:31:14 GMT-0500 (Central Daylight Time),72499.80000000075,love,1000,I,z,,,487,,,11,2,2793.800000000745,69706.0,8087,love,AF,A,,,,,,,,,,3
4,prac,1,con,1,m,Tue Mar 31 2026 08:31:14 GMT-0500 (Central Daylight Time),75065.09999999776,step,800,I,m,,,458,,,1,2,2559.2999999970198,72505.80000000075,8087,step,AF,A,,,,,,,,,,4
4,prac,1,inc,0,z,Tue Mar 31 2026 08:31:14 GMT-0500 (Central Daylight Time),77946.5,window,1100,I,m,,,465,,,16,2,2875.300000000745,75071.19999999925,8087,temper,AF,A,,,,,,,,,,5
5,prac,1,inc,1,m,Tue Mar 31 2026 08:31:14 GMT-0500 (Central Daylight Time),81047.30000000075,brutal,1100,I,m,,,685,,,8,2,3097.7000000029802,77949.59999999776,8087,window,AF,A,,,,,,,,,,6
6,prac,1,inc,1,z,Tue Mar 31 2026 08:31:14 GMT-0500 (Central Daylight Time),83745.0,rock,900,I,z,,,499,,,10,2,2691.900000002235,81053.09999999776,8087,kind,AF,A,,,,,,,,,,7
7,prac,1,con,1,m,Tue Mar 31 2026 08:31:14 GMT-0500 (Central Daylight Time),86677.69999999925,bell,1000,I,m,,,625,,,3,2,2929.800000000745,83747.89999999851,8087,bell,AF,A,,,,,,,,,,8
8,prac,1,inc,1,m,Tue Mar 31 2026 08:31:14 GMT-0500 (Central Daylight Time),89509.89999999851,kind,900,I,m,,,633,,,2,2,2827.0,86682.89999999851,8087,rock,AF,A,,,,,,,,,,9
9,prac,1,con,1,m,Tue Mar 31 2026 08:31:14 GMT-0500 (Central Daylight Time),92110.19999999925,jacket,800,I,m,,,494,,,5,2,2595.10000000149,89515.09999999776,8087,jacket,AF,A,,,,,,,,,,10
10,prac,1,inc,1,z,Tue Mar 31 2026 08:31:14 GMT-0500 (Central Daylight Time),94791.30000000075,film,900,I,z,,,483,,,14,2,2674.10000000149,92117.19999999925,8087,hate,AF,A,,,,,,,,,,11
11,prac,1,con,1,z,Tue Mar 31 2026 08:31:14 GMT-0500 (Central Daylight Time),97540.39999999851,elated,800,I,z,,,645,,,9,2,2739.300000000745,94801.09999999776,8087,elated,AF,A,,,,,,,,,,12
12,prac,1,inc,1,m,Tue Mar 31 2026 08:31:14 GMT-0500 (Central Daylight Time),100356.09999999776,elated,900,I,m,,,603,,,6,2,2804.7999999970198,97551.30000000075,8087,napkin,AF,A,,,,,,,,,,13
12,prac,1,con,0,z,Tue Mar 31 2026 08:31:14 GMT-0500 (Central Daylight Time),103205.0,brutal,800,I,m,,,743,,,13,2,2843.60000000149,100361.39999999851,8087,brutal,AF,A,,,,,,,,,,14
13,prac,1,inc,1,z,Tue Mar 31 2026 08:31:14 GMT-0500 (Central Daylight Time),106288.19999999925,napkin,1100,I,z,,,689,,,12,2,3076.300000000745,103211.89999999851,8087,friend,AF,A,,,,,,,,,,15
14,prac,1,inc,1,m,Tue Mar 31 2026 08:31:14 GMT-0500 (Central Daylight Time),109536.5,hate,1100,I,m,,,847,,,4,2,3241.5,106295.0,8087,film,AF,A,,,,,,,,,,16
1,test,1,con,1,m,Tue Mar 31 2026 08:31:14 GMT-0500 (Central Daylight Time),115652.19999999925,remote,800,I,m,m,None,595,380.0,215.0,113,2,1925.8999999985099,113726.30000000075,8087,remote,AF,A,113154,113154,111611,112421,111612,113537,112937,112938,113537,1
2,test,1,inc,1,z,Tue Mar 31 2026 08:31:14 GMT-0500 (Central Daylight Time),117915.30000000075,film,1100,I,z,z,None,633,432.0,201.0,56,2,2254.900000002235,115660.39999999851,8087,rage,AF,A,115368,115368,113545,114654,113546,115800,115166,115166,115800,2
3,test,1,inc,1,m,Tue Mar 31 2026 08:31:14 GMT-0500 (Central Daylight Time),119780.59999999776,rage,800,I,m,m,None,527,328.0,199.0,93,2,1858.5,117922.09999999776,8087,film,AF,A,117334,117334,115807,116618,115807,117666,117134,117134,117666,3
4,test,1,inc,1,z,Tue Mar 31 2026 08:31:14 GMT-0500 (Central Daylight Time),121816.19999999925,napkin,900,I,z,z,None,584,383.0,201.0,30,2,2029.8999999985099,119786.30000000075,8087,friend,AF,A,119302,119303,117671,118585,117672,119701,119101,119101,119701,4
5,test,1,con,1,z,Tue Mar 31 2026 08:31:14 GMT-0500 (Central Daylight Time),123815.5,kind,1000,I,z,z,None,451,252.0,199.0,11,2,1994.1000000014901,121821.39999999851,8087,kind,AF,A,121435,121435,119706,120718,119707,121701,121235,121235,121701,5
6,test,1,con,1,m,Tue Mar 31 2026 08:31:14 GMT-0500 (Central Daylight Time),125700.89999999851,window,900,I,m,m,None,440,241.0,199.0,122,2,1879.8999999985099,123821.0,8087,window,AF,A,123334,123334,121706,122616,121706,123586,123134,123134,123586,6
7,test,1,con,1,z,Tue Mar 31 2026 08:31:14 GMT-0500 (Central Daylight Time),127614.80000000075,friend,1000,I,z,z,None,380,178.0,202.0,27,2,1908.6000000014901,125706.19999999925,8087,friend,AF,A,125318,125318,123591,124601,123591,125500,125115,125115,125500,7
8,test,1,con,1,m,Tue Mar 31 2026 08:31:14 GMT-0500 (Central Daylight Time),129781.09999999776,jacket,1100,I,m,m,None,540,339.0,201.0,100,2,2161.2999999970198,127619.80000000075,8087,jacket,AF,A,127317,127317,125505,126614,125505,127666,127116,127116,127666,8
9,test,1,con,1,z,Tue Mar 31 2026 08:31:14 GMT-0500 (Central Daylight Time),131863.30000000075,rage,1100,I,z,z,None,447,230.0,217.0,52,2,2076.900000002235,129786.39999999851,8087,rage,AF,A,129504,129505,127671,128783,127672,129748,129287,129287,129748,9
10,test,1,con,1,z,Tue Mar 31 2026 08:31:14 GMT-0500 (Central Daylight Time),133730.30000000075,kind,900,I,z,z,None,418,217.0,201.0,10,2,1859.9000000022352,131870.3999999985,8087,kind,AF,A,131383,131383,129755,130665,129756,131615,131181,131181,131615,10
11,test,1,con,1,z,Tue Mar 31 2026 08:31:14 GMT-0500 (Central Daylight Time),135595.0,love,1000,I,z,z,None,332,130.0,202.0,19,2,1860.5,133734.5,8087,love,AF,A,133349,133349,131620,132631,131620,133480,133146,133146,133480,11
12,test,1,inc,1,m,Tue Mar 31 2026 08:31:14 GMT-0500 (Central Daylight Time),137579.0,brutal,900,I,m,m,None,550,350.0,200.0,118,2,1977.6000000014901,135601.3999999985,8087,remote,AF,A,135114,135114,133486,134398,133487,135464,134913,134913,135464,12
13,test,1,con,1,m,Tue Mar 31 2026 08:31:14 GMT-0500 (Central Daylight Time),139544.5,remote,1000,I,m,m,None,442,243.0,199.0,115,2,1959.9000000022352,137584.59999999776,8087,remote,AF,A,137180,137180,135470,136479,135470,137430,136981,136981,137430,13
14,test,1,con,1,m,Tue Mar 31 2026 08:31:14 GMT-0500 (Central Daylight Time),141810.69999999925,film,1000,I,m,m,None,724,525.0,199.0,91,2,2262.300000000745,139548.3999999985,8087,film,AF,A,139162,139162,137433,138446,137434,139696,138963,138963,139696,14
15,test,1,con,1,z,Tue Mar 31 2026 08:31:14 GMT-0500 (Central Daylight Time),143842.80000000075,rage,800,I,z,z,None,699,499.0,200.0,49,2,2026.4000000022352,141816.3999999985,8087,rage,AF,A,141228,141228,139701,140511,139702,141728,141027,141027,141728,15
16,test,1,inc,1,z,Tue Mar 31 2026 08:31:14 GMT-0500 (Central Daylight Time),145859.30000000075,bell,1000,I,z,z,None,480,266.0,214.0,47,2,2010.5,143848.80000000075,8087,hate,AF,A,143477,143477,141734,142745,141734,143744,143262,143262,143744,16
17,test,1,con,1,m,Tue Mar 31 2026 08:31:14 GMT-0500 (Central Daylight Time),147824.30000000075,jacket,900,I,m,m,None,524,324.0,200.0,98,2,1959.1000000014901,145865.19999999925,8087,jacket,AF,A,145379,145379,143750,144661,143750,145709,145177,145178,145709,17
18,test,1,inc,1,m,Tue Mar 31 2026 08:31:14 GMT-0500 (Central Daylight Time),149957.3999999985,hate,1100,I,m,m,None,496,296.0,200.0,88,2,2127.199999999255,147830.19999999925,8087,bell,AF,A,147543,147543,145715,146826,145715,147843,147343,147343,147842,18
19,test,1,con,1,z,Tue Mar 31 2026 08:31:14 GMT-0500 (Central Daylight Time),151806.8999999985,hate,900,I,z,z,None,401,202.0,199.0,42,2,1845.0,149961.8999999985,8087,hate,AF,A,149476,149476,147847,148760,147847,149692,149276,149276,149692,19
20,test,1,inc,1,z,Tue Mar 31 2026 08:31:14 GMT-0500 (Central Daylight Time),153906.0,window,1100,I,z,z,None,457,256.0,201.0,32,2,2094.5,151811.5,8087,friend,AF,A,151527,151527,149697,150810,149697,151791,151326,151326,151791,20
21,test,1,inc,1,m,Tue Mar 31 2026 08:31:14 GMT-0500 (Central Daylight Time),156023.69999999925,friend,1100,I,m,m,None,493,279.0,214.0,104,2,2112.89999999851,153910.80000000075,8087,jacket,AF,A,153624,153624,151796,152897,151796,153909,153409,153409,153909,21
22,test,1,con,1,m,Tue Mar 31 2026 08:31:14 GMT-0500 (Central Daylight Time),157973.0,remote,900,I,m,m,None,517,302.0,215.0,114,2,1945.699999999255,156027.30000000075,8087,remote,AF,A,155556,155556,153912,154825,153913,155858,155341,155341,155858,22
23,test,1,inc,1,m,Tue Mar 31 2026 08:31:14 GMT-0500 (Central Daylight Time),159837.3999999985,elated,800,I,m,m,None,529,329.0,200.0,117,2,1859.5,157977.8999999985,8087,remote,AF,A,157390,157390,155863,156673,155863,157723,157190,157190,157722,23
24,test,1,con,1,z,Tue Mar 31 2026 08:31:14 GMT-0500 (Central Daylight Time),161887.80000000075,hate,1000,I,z,z,None,503,302.0,201.0,43,2,2046.1000000014901,159841.69999999925,8087,hate,AF,A,159457,159457,157727,158740,157727,159773,159255,159255,159773,24
25,test,1,inc,1,z,Tue Mar 31 2026 08:31:14 GMT-0500 (Central Daylight Time),164004.09999999776,window,1100,I,z,z,None,468,267.0,201.0,64,2,2112.599999997765,161891.5,8087,temper,AF,A,161606,161606,159777,160890,159777,161889,161405,161405,161889,25
26,test,1,inc,1,z,Tue Mar 31 2026 08:31:14 GMT-0500 (Central Daylight Time),166135.30000000075,jacket,800,I,z,z,None,785,585.0,200.0,5,2,2125.5,164009.80000000075,8087,elated,AF,A,163421,163421,161895,162706,161895,164020,163221,163221,164020,26
27,test,1,con,1,z,Tue Mar 31 2026 08:31:14 GMT-0500 (Central Daylight Time),168285.0,rage,1000,I,z,z,None,605,404.0,201.0,51,2,2144.60000000149,166140.3999999985,8087,rage,AF,A,165755,165755,164025,165039,164026,166170,165554,165554,166170,27
28,test,1,inc,1,z,Tue Mar 31 2026 08:31:14 GMT-0500 (Central Daylight Time),170183.69999999925,step,800,I,z,z,None,551,349.0,202.0,21,2,1893.699999999255,168290.0,8087,love,AF,A,167705,167705,166175,166987,166175,168069,167503,167503,168069,28
29,test,1,inc,1,m,Tue Mar 31 2026 08:31:14 GMT-0500 (Central Daylight Time),172218.19999999925,kind,900,I,m,m,None,583,384.0,199.0,70,2,2029.1000000014901,170189.09999999776,8087,step,AF,A,169703,169703,168074,168987,168074,170103,169503,169503,170103,29
30,test,1,con,1,z,Tue Mar 31 2026 08:31:14 GMT-0500 (Central Daylight Time),174134.09999999776,brutal,800,I,z,z,None,582,382.0,200.0,33,2,1912.5999999977648,172221.5,8087,brutal,AF,A,171636,171636,170107,170920,170107,172019,171435,171435,172019,30
31,test,1,inc,1,z,Tue Mar 31 2026 08:31:14 GMT-0500 (Central Daylight Time),175966.0,rock,900,I,z,z,None,387,188.0,199.0,46,2,1827.1000000014901,174138.8999999985,8087,hate,AF,A,173651,173651,172024,172936,172024,173851,173452,173452,173851,31
32,test,1,con,1,m,Tue Mar 31 2026 08:31:14 GMT-0500 (Central Daylight Time),177899.69999999925,rock,900,I,m,m,None,500,299.0,201.0,74,2,1928.5,175971.19999999925,8087,rock,AF,A,175485,175485,173856,174768,173857,175785,175284,175284,175785,32
33,test,1,inc,1,m,Tue Mar 31 2026 08:31:14 GMT-0500 (Central Daylight Time),180064.80000000075,friend,1100,I,m,m,None,532,333.0,199.0,120,2,2159.300000000745,177905.5,8087,remote,AF,A,177617,177617,175791,176901,175791,177950,177417,177417,177950,33
34,test,1,inc,1,z,Tue Mar 31 2026 08:31:14 GMT-0500 (Central Daylight Time),182130.59999999776,bell,1000,I,z,z,None,549,349.0,200.0,23,2,2063.099999997765,180067.5,8087,love,AF,A,179666,179666,177953,178965,177953,180016,179466,179466,180016,34
35,test,1,con,1,m,Tue Mar 31 2026 08:31:14 GMT-0500 (Central Daylight Time),184212.69999999925,window,1000,I,m,m,None,548,347.0,201.0,123,2,2076.89999999851,182135.80000000075,8087,window,AF,A,181734,181734,180021,181031,180021,182098,181532,181532,182098,35
36,test,1,con,1,m,Tue Mar 31 2026 08:31:14 GMT-0500 (Central Daylight Time),186429.59999999776,film,900,I,m,m,None,778,579.0,199.0,90,2,2210.7999999970198,184218.80000000075,8087,film,AF,A,183732,183732,182104,183016,182104,184315,183533,183533,184315,36
37,test,1,con,1,z,Tue Mar 31 2026 08:31:14 GMT-0500 (Central Daylight Time),188412.19999999925,brutal,900,I,z,z,None,549,348.0,201.0,34,2,1977.300000000745,186434.8999999985,8087,brutal,AF,A,185949,185949,184320,185231,184320,186297,185747,185747,186297,37
38,test,1,inc,1,z,Tue Mar 31 2026 08:31:14 GMT-0500 (Central Daylight Time),190476.30000000075,napkin,900,I,z,z,None,643,444.0,199.0,6,2,2059.7000000029802,188416.59999999776,8087,elated,AF,A,187914,187914,186302,187212,186302,188361,187714,187714,188361,38
39,test,1,con,1,z,Tue Mar 31 2026 08:31:14 GMT-0500 (Central Daylight Time),192244.80000000075,friend,800,I,z,z,None,449,248.0,201.0,25,2,1764.2000000029802,190480.59999999776,8087,friend,AF,A,189881,189881,188366,189178,188366,190130,189679,189679,190130,39
40,test,1,inc,1,z,Tue Mar 31 2026 08:31:14 GMT-0500 (Central Daylight Time),194093.30000000075,step,800,I,z,z,None,504,304.0,200.0,53,2,1839.4000000022352,192253.8999999985,8087,rage,AF,A,191663,191663,190139,190946,190139,191978,191462,191462,191978,40
41,test,1,inc,1,m,Tue Mar 31 2026 08:31:14 GMT-0500 (Central Daylight Time),196076.59999999776,kind,900,I,m,m,None,538,338.0,200.0,94,2,1979.5999999977648,194097.0,8087,film,AF,A,193613,193613,191982,192895,191982,193962,193412,193412,193962,41
42,test,1,con,1,m,Tue Mar 31 2026 08:31:14 GMT-0500 (Central Daylight Time),198058.5,film,1100,I,m,m,None,340,141.0,199.0,92,2,1978.4000000022352,196080.09999999776,8087,film,AF,A,195793,195793,193965,195079,193965,195944,195594,195594,195943,42
43,test,1,inc,1,z,Tue Mar 31 2026 08:31:14 GMT-0500 (Central Daylight Time),200141.8999999985,remote,1000,I,z,z,None,533,332.0,201.0,7,2,2079.5,198062.3999999985,8087,elated,AF,A,197678,197678,195947,196961,195948,198027,197477,197477,198027,43
44,test,1,con,1,m,Tue Mar 31 2026 08:31:14 GMT-0500 (Central Daylight Time),202143.5,jacket,1000,I,m,m,None,477,277.0,200.0,99,2,1996.699999999255,200146.80000000075,8087,jacket,AF,A,199745,199745,198032,199043,198032,200029,199544,199544,200029,44
45,test,1,inc,1,z,Tue Mar 31 2026 08:31:14 GMT-0500 (Central Daylight Time),204007.8999999985,jacket,800,I,z,z,None,528,327.0,201.0,29,2,1861.800000000745,202146.09999999776,8087,friend,AF,A,201560,201560,200031,200842,200031,201893,201358,201358,201893,45
46,test,1,inc,1,m,Tue Mar 31 2026 08:31:14 GMT-0500 (Central Daylight Time),206073.80000000075,love,1000,I,m,m,None,517,317.0,200.0,87,2,2060.5,204013.30000000075,8087,bell,AF,A,203627,203627,201898,202910,201899,203959,203426,203426,203959,46
47,test,1,con,1,z,Tue Mar 31 2026 08:31:14 GMT-0500 (Central Daylight Time),208122.09999999776,temper,900,I,z,z,None,600,400.0,200.0,58,2,2043.7999999970198,206078.30000000075,8087,temper,AF,A,205591,205591,203963,204875,203964,206007,205391,205391,206007,47
48,test,1,con,1,z,Tue Mar 31 2026 08:31:14 GMT-0500 (Central Daylight Time),209955.3999999985,love,900,I,z,z,None,415,215.0,200.0,18,2,1828.0,208127.3999999985,8087,love,AF,A,207625,207625,206012,206924,206013,207840,207425,207425,207840,48
49,test,1,inc,1,m,Tue Mar 31 2026 08:31:14 GMT-0500 (Central Daylight Time),212054.0,temper,1000,I,m,m,None,561,361.0,200.0,119,2,2094.400000002235,209959.59999999776,8087,remote,AF,A,209574,209574,207845,208858,207845,209939,209373,209373,209939,49
50,test,1,con,1,z,Tue Mar 31 2026 08:31:14 GMT-0500 (Central Daylight Time),214388.80000000075,love,1100,I,z,z,None,690,488.0,202.0,20,2,2330.900000002235,212057.8999999985,8087,love,AF,A,211775,211775,209943,211056,209943,212274,211572,211572,212274,50
51,test,1,con,1,m,Tue Mar 31 2026 08:31:14 GMT-0500 (Central Daylight Time),216502.3999999985,napkin,1100,I,m,m,None,468,269.0,199.0,108,2,2108.099999997765,214394.30000000075,8087,napkin,AF,A,214105,214105,212279,213389,212280,214387,213905,213905,214387,51
52,test,1,con,1,z,Tue Mar 31 2026 08:31:14 GMT-0500 (Central Daylight Time),218670.30000000075,hate,1100,I,z,z,None,545,329.0,216.0,44,2,2161.10000000149,216509.19999999925,8087,hate,AF,A,216222,216222,214394,215504,214395,216555,216006,216006,216555,52
53,test,1,con,1,z,Tue Mar 31 2026 08:31:14 GMT-0500 (Central Daylight Time),220434.8999999985,love,800,I,z,z,None,432,232.0,200.0,17,2,1761.300000000745,218673.59999999776,8087,love,AF,A,218087,218087,216559,217371,216559,218320,217887,217887,218320,53
54,test,1,inc,1,m,Tue Mar 31 2026 08:31:14 GMT-0500 (Central Daylight Time),222483.69999999925,love,1000,I,m,m,None,503,288.0,215.0,71,2,2042.3999999985099,220441.30000000075,8087,step,AF,A,220070,220070,218326,219337,218326,220369,219854,219854,220369,54
55,test,1,con,1,m,Tue Mar 31 2026 08:31:14 GMT-0500 (Central Daylight Time),224433.19999999925,bell,800,I,m,m,None,607,392.0,215.0,81,2,1945.199999999255,222488.0,8087,bell,AF,A,221919,221919,220373,221186,220373,222318,221704,221704,222318,55
56,test,1,con,1,z,Tue Mar 31 2026 08:31:14 GMT-0500 (Central Daylight Time),226582.19999999925,elated,1000,I,z,z,None,602,402.0,200.0,3,2,2143.0,224439.19999999925,8087,elated,AF,A,224053,224053,222324,223335,222324,224467,223852,223852,224467,56
57,test,1,con,1,m,Tue Mar 31 2026 08:31:14 GMT-0500 (Central Daylight Time),228665.0,rock,1000,I,m,m,None,541,342.0,199.0,75,2,2076.699999999255,226588.30000000075,8087,rock,AF,A,226201,226201,224473,225485,224474,226550,226001,226001,226550,57
58,test,1,inc,1,z,Tue Mar 31 2026 08:31:14 GMT-0500 (Central Daylight Time),230914.59999999776,film,1100,I,z,z,None,614,415.0,199.0,48,2,2243.699999999255,228670.8999999985,8087,hate,AF,A,228384,228384,226556,227667,226556,228800,228184,228184,228800,58
59,test,1,inc,1,z,Tue Mar 31 2026 08:31:14 GMT-0500 (Central Daylight Time),232814.0,rock,900,I,z,z,None,461,262.0,199.0,54,2,1894.6000000014901,230919.3999999985,8087,rage,AF,A,230433,230433,228804,229717,228805,230699,230233,230233,230699,59
60,test,1,inc,1,z,Tue Mar 31 2026 08:31:14 GMT-0500 (Central Daylight Time),234614.0,step,800,I,z,z,None,461,245.0,216.0,45,2,1794.9000000022352,232819.09999999776,8087,hate,AF,A,232249,232249,230704,231517,230704,232499,232033,232033,232499,60
61,test,1,inc,1,m,Tue Mar 31 2026 08:31:14 GMT-0500 (Central Daylight Time),236596.19999999925,love,1000,I,m,m,None,438,239.0,199.0,95,2,1977.6000000014901,234618.59999999776,8087,film,AF,A,234232,234232,232504,233515,232504,234481,234032,234032,234481,61
62,test,1,inc,1,z,Tue Mar 31 2026 08:31:14 GMT-0500 (Central Daylight Time),238829.30000000075,remote,1000,I,z,z,None,697,496.0,201.0,63,2,2226.7000000029802,236602.59999999776,8087,temper,AF,A,236215,236215,234488,235498,234488,236714,236014,236014,236714,62
63,test,1,con,1,m,Tue Mar 31 2026 08:31:14 GMT-0500 (Central Daylight Time),240827.8999999985,napkin,900,I,m,m,None,556,356.0,200.0,106,2,1993.699999999255,238834.19999999925,8087,napkin,AF,A,238347,238347,236719,237631,236719,238713,238147,238147,238713,63
64,test,1,inc,1,z,Tue Mar 31 2026 08:31:14 GMT-0500 (Central Daylight Time),243160.80000000075,film,1100,I,z,z,None,683,467.0,216.0,24,2,2328.300000000745,240832.5,8087,love,AF,A,240564,240564,238718,239830,238718,241046,240348,240348,241046,64
65,test,1,con,1,z,Tue Mar 31 2026 08:31:14 GMT-0500 (Central Daylight Time),245309.59999999776,temper,1000,I,z,z,None,602,403.0,199.0,59,2,2142.199999999255,243167.3999999985,8087,temper,AF,A,242780,242780,241052,242062,241053,243195,242581,242581,243195,65
66,test,1,con,1,m,Tue Mar 31 2026 08:31:14 GMT-0500 (Central Daylight Time),247310.19999999925,napkin,1000,I,m,m,None,469,254.0,215.0,107,2,1996.300000000745,245313.8999999985,8087,napkin,AF,A,244929,244929,243199,244212,243199,245195,244714,244714,245195,66
67,test,1,con,1,z,Tue Mar 31 2026 08:31:14 GMT-0500 (Central Daylight Time),249241.09999999776,kind,800,I,z,z,None,589,373.0,216.0,9,2,1924.7999999970198,247316.30000000075,8087,kind,AF,A,246745,246745,245201,246012,245202,247126,246529,246529,247126,67
68,test,1,inc,1,m,Tue Mar 31 2026 08:31:14 GMT-0500 (Central Daylight Time),251308.59999999776,brutal,900,I,m,m,None,623,421.0,202.0,110,2,2064.599999997765,249244.0,8087,napkin,AF,A,248762,248762,247129,248044,247129,249194,248560,248560,249194,68
69,test,1,con,1,m,Tue Mar 31 2026 08:31:14 GMT-0500 (Central Daylight Time),253291.09999999776,step,800,I,m,m,None,648,445.0,203.0,65,2,1978.0999999977648,251313.0,8087,step,AF,A,250730,250730,249198,250011,249198,251176,250526,250527,251176,69
69,test,1,con,0,z,Tue Mar 31 2026 08:31:14 GMT-0500 (Central Daylight Time),255157.09999999776,rage,900,I,m,m,None,422,221.0,201.0,50,2,1859.0,253298.09999999776,8087,rage,AF,A,252810,252810,251183,252093,251183,253042,252609,252609,253042,70
70,test,1,con,1,m,Tue Mar 31 2026 08:31:14 GMT-0500 (Central Daylight Time),257256.0,rock,1100,I,m,m,None,457,258.0,199.0,76,2,2094.300000000745,255161.69999999925,8087,rock,AF,A,254876,254876,253047,254159,253047,255141,254676,254676,255141,71
71,test,1,con,1,z,Tue Mar 31 2026 08:31:14 GMT-0500 (Central Daylight Time),259438.80000000075,temper,1100,I,z,z,None,544,344.0,200.0,60,2,2180.0,257258.80000000075,8087,temper,AF,A,256975,256975,255144,256258,255144,257324,256775,256775,257324,72
72,test,1,con,1,m,Tue Mar 31 2026 08:31:14 GMT-0500 (Central Daylight Time),261454.80000000075,step,900,I,m,m,None,584,368.0,216.0,66,2,2010.6000000014901,259444.19999999925,8087,step,AF,A,258958,258958,257329,258239,257330,259340,258742,258742,259340,73
73,test,1,con,1,m,Tue Mar 31 2026 08:31:14 GMT-0500 (Central Daylight Time),263471.59999999776,bell,900,I,m,m,None,575,361.0,214.0,82,2,2012.0,261459.59999999776,8087,bell,AF,A,260990,260990,259345,260257,259345,261357,260775,260775,261357,74
74,test,1,inc,1,m,Tue Mar 31 2026 08:31:14 GMT-0500 (Central Daylight Time),265371.8999999985,brutal,900,I,m,m,None,465,266.0,199.0,126,2,1897.199999999255,263474.69999999925,8087,window,AF,A,262990,262990,261360,262274,261360,263257,262790,262790,263257,75
75,test,1,inc,1,m,Tue Mar 31 2026 08:31:14 GMT-0500 (Central Daylight Time),267387.19999999925,friend,1100,I,m,m,None,390,175.0,215.0,128,2,2010.800000000745,265376.3999999985,8087,window,AF,A,265089,265089,263261,264371,263262,265272,264873,264873,265272,76
76,test,1,inc,1,m,Tue Mar 31 2026 08:31:14 GMT-0500 (Central Daylight Time),269118.80000000075,elated,800,I,m,m,None,392,193.0,199.0,125,2,1727.9000000022352,267390.8999999985,8087,window,AF,A,266806,266806,265276,266088,265276,267004,266606,266606,267004,77
77,test,1,con,1,m,Tue Mar 31 2026 08:31:14 GMT-0500 (Central Daylight Time),271319.0,remote,1100,I,m,m,None,561,360.0,201.0,116,2,2196.699999999255,269122.30000000075,8087,remote,AF,A,268839,268839,267007,268121,267008,269204,268637,268638,269204,78
78,test,1,inc,1,m,Tue Mar 31 2026 08:31:14 GMT-0500 (Central Daylight Time),273485.30000000075,hate,1100,I,m,m,None,522,306.0,216.0,80,2,2163.0,271322.30000000075,8087,rock,AF,A,271053,271053,269207,270322,269208,271370,270837,270837,271370,79
79,test,1,inc,1,z,Tue Mar 31 2026 08:31:14 GMT-0500 (Central Daylight Time),275635.5,window,1100,I,z,z,None,517,317.0,200.0,8,2,2146.199999999255,273489.30000000075,8087,elated,AF,A,273203,273203,271374,272486,271375,273521,273003,273003,273521,80
80,test,1,inc,1,z,Tue Mar 31 2026 08:31:14 GMT-0500 (Central Daylight Time),277683.8999999985,film,1100,I,z,z,None,430,230.0,200.0,16,2,2043.3999999985099,275640.5,8087,kind,AF,A,275337,275337,273526,274635,273526,275569,275136,275136,275569,81
81,test,1,inc,1,z,Tue Mar 31 2026 08:31:14 GMT-0500 (Central Daylight Time),279868.30000000075,remote,1000,I,z,z,None,653,451.0,202.0,39,2,2178.10000000149,277690.19999999925,8087,brutal,AF,A,277302,277302,275575,276583,275576,277753,277100,277100,277753,82
82,test,1,con,1,z,Tue Mar 31 2026 08:31:14 GMT-0500 (Central Daylight Time),281765.0,elated,900,I,z,z,None,469,253.0,216.0,2,2,1892.9000000022352,279872.09999999776,8087,elated,AF,A,279386,279386,277757,278667,277757,279650,279169,279169,279650,83
83,test,1,inc,1,m,Tue Mar 31 2026 08:31:14 GMT-0500 (Central Daylight Time),283798.19999999925,love,1000,I,m,m,None,481,265.0,216.0,79,2,2028.300000000745,281769.8999999985,8087,rock,AF,A,281401,281402,279655,280667,279655,281683,281185,281185,281683,84
84,test,1,inc,1,m,Tue Mar 31 2026 08:31:14 GMT-0500 (Central Daylight Time),285897.5,friend,1100,I,m,m,None,459,259.0,200.0,112,2,2092.900000002235,283804.59999999776,8087,napkin,AF,A,283516,283516,281690,282801,281690,283783,283316,283316,283783,85
84,test,1,inc,0,z,Tue Mar 31 2026 08:31:14 GMT-0500 (Central Daylight Time),287830.09999999776,remote,1000,I,m,m,None,387,172.0,215.0,31,2,1927.3999999985099,285902.69999999925,8087,friend,AF,A,285531,285531,283788,284800,283788,285715,285316,285316,285715,86
85,test,1,inc,1,m,Tue Mar 31 2026 08:31:14 GMT-0500 (Central Daylight Time),289979.19999999925,hate,1100,I,m,m,None,507,308.0,199.0,96,2,2144.699999999255,287834.5,8087,film,AF,A,287547,287547,285720,286833,285720,287864,287348,287348,287864,87
86,test,1,inc,1,m,Tue Mar 31 2026 08:31:14 GMT-0500 (Central Daylight Time),291846.3999999985,elated,800,I,m,m,None,527,311.0,216.0,109,2,1861.3999999985099,289985.0,8087,napkin,AF,A,289416,289416,287870,288683,287870,289731,289199,289199,289731,88
87,test,1,con,1,z,Tue Mar 31 2026 08:31:14 GMT-0500 (Central Daylight Time),294028.19999999925,kind,1100,I,z,z,None,537,323.0,214.0,12,2,2178.300000000745,291849.8999999985,8087,kind,AF,A,291580,291580,289735,290847,289735,291913,291365,291365,291913,89
88,test,1,inc,1,z,Tue Mar 31 2026 08:31:14 GMT-0500 (Central Daylight Time),295728.80000000075,step,800,I,z,z,None,358,159.0,199.0,13,2,1696.0,294032.80000000075,8087,kind,AF,A,293447,293447,291918,292730,291918,293614,293247,293247,293614,90
89,test,1,inc,1,m,Tue Mar 31 2026 08:31:14 GMT-0500 (Central Daylight Time),297810.69999999925,temper,1000,I,m,m,None,541,341.0,200.0,103,2,2078.60000000149,295732.09999999776,8087,jacket,AF,A,295346,295346,293617,294635,293617,295696,295146,295146,295696,91
90,test,1,inc,1,z,Tue Mar 31 2026 08:31:14 GMT-0500 (Central Daylight Time),299843.0,napkin,900,I,z,z,None,589,390.0,199.0,62,2,2028.300000000745,297814.69999999925,8087,temper,AF,A,297329,297329,295700,296614,295700,297728,297129,297129,297728,92
91,test,1,inc,1,m,Tue Mar 31 2026 08:31:14 GMT-0500 (Central Daylight Time),301742.59999999776,kind,900,I,m,m,None,454,253.0,201.0,78,2,1895.8999999985099,299846.69999999925,8087,rock,AF,A,299362,299362,297732,298645,297732,299628,299161,299161,299628,93
92,test,1,inc,1,m,Tue Mar 31 2026 08:31:14 GMT-0500 (Central Daylight Time),303841.30000000075,hate,1100,I,m,m,None,457,257.0,200.0,72,2,2094.800000000745,301746.5,8087,step,AF,A,301461,301461,299632,300745,299632,301726,301261,301261,301726,94
93,test,1,inc,1,z,Tue Mar 31 2026 08:31:14 GMT-0500 (Central Daylight Time),305823.69999999925,napkin,900,I,z,z,None,536,334.0,202.0,38,2,1976.3999999985099,303847.30000000075,8087,brutal,AF,A,303361,303361,301732,302643,301733,303709,303159,303159,303709,95
93,test,1,con,0,m,Tue Mar 31 2026 08:31:14 GMT-0500 (Central Daylight Time),307573.59999999776,window,800,I,z,z,None,403,203.0,200.0,121,2,1744.8999999985099,305828.69999999925,8087,window,AF,A,305243,305243,303714,304528,303714,305459,305043,305043,305459,96
94,test,1,inc,1,m,Tue Mar 31 2026 08:31:14 GMT-0500 (Central Daylight Time),309591.80000000075,brutal,900,I,m,m,None,578,379.0,199.0,102,2,2013.800000000745,307578.0,8087,jacket,AF,A,307092,307092,305463,306377,305463,307477,306892,306892,307477,97
95,test,1,inc,1,m,Tue Mar 31 2026 08:31:14 GMT-0500 (Central Daylight Time),311472.59999999776,rage,800,I,m,m,None,542,343.0,199.0,77,2,1876.7999999970198,309595.80000000075,8087,rock,AF,A,309008,309008,307481,308293,307481,309358,308809,308809,309358,98
95,test,1,inc,0,z,Tue Mar 31 2026 08:31:14 GMT-0500 (Central Daylight Time),313489.0,bell,1000,I,m,m,None,476,276.0,200.0,55,2,2012.199999999255,311476.80000000075,8087,rage,AF,A,311091,311091,309362,310375,309362,311374,310891,310891,311374,99
96,test,1,con,1,z,Tue Mar 31 2026 08:31:14 GMT-0500 (Central Daylight Time),315788.3999999985,brutal,1100,I,z,z,None,672,472.0,200.0,36,2,2294.300000000745,313494.09999999776,8087,brutal,AF,A,313190,313191,311379,312489,311379,313674,312990,312990,313673,100
97,test,1,con,1,z,Tue Mar 31 2026 08:31:14 GMT-0500 (Central Daylight Time),317970.80000000075,elated,1100,I,z,z,None,540,325.0,215.0,4,2,2177.400000002235,315793.3999999985,8087,elated,AF,A,315522,315522,313678,314790,313679,315856,315307,315307,315856,101
98,test,1,inc,1,z,Tue Mar 31 2026 08:31:14 GMT-0500 (Central Daylight Time),319886.80000000075,rock,900,I,z,z,None,478,278.0,200.0,22,2,1912.4000000022352,317974.3999999985,8087,love,AF,A,317489,317489,315859,316772,315860,317772,317289,317289,317772,102
99,test,1,con,1,m,Tue Mar 31 2026 08:31:14 GMT-0500 (Central Daylight Time),321936.80000000075,window,1100,I,m,m,None,401,201.0,200.0,124,2,2046.300000000745,319890.5,8087,window,AF,A,319606,319606,317776,318889,317776,319822,319405,319405,319822,103
100,test,1,con,1,z,Tue Mar 31 2026 08:31:14 GMT-0500 (Central Daylight Time),323785.30000000075,elated,800,I,z,z,None,508,307.0,201.0,1,2,1843.0,321942.30000000075,8087,elated,AF,A,321355,321355,319827,320639,319828,321670,321154,321154,321670,104
101,test,1,con,1,m,Tue Mar 31 2026 08:31:14 GMT-0500 (Central Daylight Time),325868.0,bell,1000,I,m,m,None,538,338.0,200.0,83,2,2079.300000000745,323788.69999999925,8087,bell,AF,A,323405,323405,321674,322688,321674,323753,323204,323204,323753,105
102,test,1,inc,1,z,Tue Mar 31 2026 08:31:14 GMT-0500 (Central Daylight Time),327818.0,jacket,800,I,z,z,None,609,408.0,201.0,61,2,1946.199999999255,325871.80000000075,8087,temper,AF,A,325287,325287,323757,324570,323757,325703,325086,325086,325703,106
103,test,1,con,1,z,Tue Mar 31 2026 08:31:14 GMT-0500 (Central Daylight Time),329667.09999999776,friend,900,I,z,z,None,430,230.0,200.0,26,2,1844.0,327823.09999999776,8087,friend,AF,A,327320,327320,325708,326618,325708,327552,327120,327120,327552,107
104,test,1,inc,1,m,Tue Mar 31 2026 08:31:14 GMT-0500 (Central Daylight Time),331899.0,temper,1000,I,m,m,None,689,489.0,200.0,111,2,2228.60000000149,329670.3999999985,8087,napkin,AF,A,329286,329286,327555,328569,327556,329784,329086,329086,329784,108
105,test,1,con,1,z,Tue Mar 31 2026 08:31:14 GMT-0500 (Central Daylight Time),334098.3999999985,friend,1100,I,z,z,None,580,366.0,214.0,28,2,2195.599999997765,331902.80000000075,8087,friend,AF,A,331617,331617,329788,330901,329788,331983,331403,331403,331983,109
106,test,1,con,1,m,Tue Mar 31 2026 08:31:14 GMT-0500 (Central Daylight Time),335914.3999999985,jacket,800,I,m,m,None,480,265.0,215.0,97,2,1810.5999999977648,334103.80000000075,8087,jacket,AF,A,333534,333534,331989,332802,331989,333799,333318,333318,333799,110
107,test,1,inc,1,z,Tue Mar 31 2026 08:31:14 GMT-0500 (Central Daylight Time),337963.59999999776,bell,1000,I,z,z,None,506,305.0,201.0,15,2,2043.0999999977648,335920.5,8087,kind,AF,A,335534,335534,333806,334817,333806,335849,335333,335333,335849,111
108,test,1,con,1,m,Tue Mar 31 2026 08:31:14 GMT-0500 (Central Daylight Time),340098.5,bell,1100,I,m,m,None,500,301.0,199.0,84,2,2128.10000000149,337970.3999999985,8087,bell,AF,A,337682,337682,335855,336965,335856,337984,337482,337482,337983,112
109,test,1,inc,1,m,Tue Mar 31 2026 08:31:14 GMT-0500 (Central Daylight Time),342129.80000000075,temper,1000,I,m,m,None,493,292.0,201.0,127,2,2025.0,340104.80000000075,8087,window,AF,A,339715,339715,337990,339001,337990,340015,339514,339514,340015,113
110,test,1,con,1,m,Tue Mar 31 2026 08:31:14 GMT-0500 (Central Daylight Time),344348.0,film,800,I,m,m,None,900,696.0,204.0,89,2,2213.199999999255,342134.80000000075,8087,film,AF,A,341537,341537,340020,340831,340020,342233,341333,341333,342233,114
111,test,1,inc,1,m,Tue Mar 31 2026 08:31:14 GMT-0500 (Central Daylight Time),346211.0,rage,800,I,m,m,None,523,320.0,203.0,69,2,1859.300000000745,344351.69999999925,8087,step,AF,A,343767,343767,342237,343048,342237,344096,343563,343563,344096,115
112,test,1,inc,1,m,Tue Mar 31 2026 08:31:14 GMT-0500 (Central Daylight Time),348160.3999999985,kind,900,I,m,m,None,501,302.0,199.0,86,2,1943.800000000745,346216.59999999776,8087,bell,AF,A,345729,345729,344102,345013,344102,346045,345530,345530,346045,116
113,test,1,inc,1,m,Tue Mar 31 2026 08:31:14 GMT-0500 (Central Daylight Time),350294.09999999776,elated,800,I,m,m,None,794,595.0,199.0,101,2,2128.199999999255,348165.8999999985,8087,jacket,AF,A,347580,347580,346051,346864,346051,348179,347380,347380,348179,117
114,test,1,con,1,m,Tue Mar 31 2026 08:31:14 GMT-0500 (Central Daylight Time),352511.59999999776,step,1100,I,m,m,None,570,371.0,199.0,68,2,2213.0,350298.59999999776,8087,step,AF,A,350011,350012,348184,349295,348184,350397,349812,349812,350397,118
114,test,1,inc,0,z,Tue Mar 31 2026 08:31:14 GMT-0500 (Central Daylight Time),354625.3999999985,window,1100,I,m,m,None,475,275.0,200.0,40,2,2107.39999999851,352518.0,8087,brutal,AF,A,352228,352228,350403,351514,350403,352510,352028,352028,352510,119
115,test,1,con,1,z,Tue Mar 31 2026 08:31:14 GMT-0500 (Central Daylight Time),356807.8999999985,temper,800,I,z,z,None,842,642.0,200.0,57,2,2177.800000000745,354630.09999999776,8087,temper,AF,A,354043,354044,352515,353328,352515,354693,353843,353843,354693,120
116,test,1,con,1,m,Tue Mar 31 2026 08:31:14 GMT-0500 (Central Daylight Time),358641.69999999925,rock,800,I,m,m,None,484,285.0,199.0,73,2,1829.699999999255,356812.0,8087,rock,AF,A,356225,356225,354697,355510,354697,356527,356026,356026,356527,121
117,test,1,inc,1,z,Tue Mar 31 2026 08:31:14 GMT-0500 (Central Daylight Time),360524.0,jacket,800,I,z,z,None,538,323.0,215.0,37,2,1878.1000000014901,358645.8999999985,8087,brutal,AF,A,358076,358076,356531,357343,356531,358409,357860,357860,358409,122
118,test,1,con,1,z,Tue Mar 31 2026 08:31:14 GMT-0500 (Central Daylight Time),362607.80000000075,hate,800,I,z,z,None,751,536.0,215.0,41,2,2079.10000000149,360528.69999999925,8087,hate,AF,A,359942,359942,358414,359225,358414,360493,359726,359726,360493,123
119,test,1,con,1,m,Tue Mar 31 2026 08:31:14 GMT-0500 (Central Daylight Time),364438.69999999925,napkin,800,I,m,m,None,485,286.0,199.0,105,2,1826.199999999255,362612.5,8087,napkin,AF,A,362024,362024,360497,361308,360498,362324,361825,361825,362324,124
120,test,1,con,1,m,Tue Mar 31 2026 08:31:14 GMT-0500 (Central Daylight Time),366472.5,step,1000,I,m,m,None,492,292.0,200.0,67,2,2030.4000000022352,364442.09999999776,8087,step,AF,A,364058,364058,362327,363341,362327,364358,363858,363858,364357,125
121,test,1,inc,1,m,Tue Mar 31 2026 08:31:14 GMT-0500 (Central Daylight Time),368370.30000000075,rage,800,I,m,m,None,555,340.0,215.0,85,2,1894.9000000022352,366475.3999999985,8087,bell,AF,A,365906,365906,364360,365175,364361,366255,365691,365691,366255,126
122,test,1,inc,1,z,Tue Mar 31 2026 08:31:14 GMT-0500 (Central Daylight Time),370368.80000000075,rock,900,I,z,z,None,556,357.0,199.0,14,2,1994.5,368374.30000000075,8087,kind,AF,A,367889,367889,366259,367174,366260,368254,367689,367689,368254,127
123,test,1,con,1,z,Tue Mar 31 2026 08:31:14 GMT-0500 (Central Daylight Time),372454.19999999925,brutal,1000,I,z,z,None,549,334.0,215.0,35,2,2082.800000000745,370371.3999999985,8087,brutal,AF,A,370005,370005,368256,369273,368257,370339,369790,369790,370339,128
