block_c,block_dur,condition,countdown,datetime,endtime,list,multichar_response,project,response,response_time,session_number,start_end,starttime,subject_id,task,task_vers,trial
,,,,Thu Jun 18 2026 14:25:35 GMT-0500 (Central Daylight Time),,,,I,space,563,2,,,8106,WL,B,
prac,,0,,Thu Jun 18 2026 14:25:35 GMT-0500 (Central Daylight Time),,NA,b,I,b,7930,2,,,8106,WL,B,1.0
prac,,0,,Thu Jun 18 2026 14:25:35 GMT-0500 (Central Daylight Time),,NA,bo,I,o,273,2,,,8106,WL,B,1.0
prac,,0,,Thu Jun 18 2026 14:25:35 GMT-0500 (Central Daylight Time),,NA,boo,I,o,135,2,,,8106,WL,B,1.0
prac,,0,,Thu Jun 18 2026 14:25:35 GMT-0500 (Central Daylight Time),,NA,boos,I,s,186,2,,,8106,WL,B,1.0
prac,,0,,Thu Jun 18 2026 14:25:35 GMT-0500 (Central Daylight Time),,NA,boost,I,t,290,2,,,8106,WL,B,1.0
prac,,0,,Thu Jun 18 2026 14:25:35 GMT-0500 (Central Daylight Time),,NA,boostenter,I,enter,1196,2,,,8106,WL,B,1.0
1,0.7829999923706055,learn,59217.000007629395,Thu Jun 18 2026 14:25:35 GMT-0500 (Central Daylight Time),148331.80000001192,A,g,I,g,768,2,782.6000000238419,147549.19999998808,8106,WL,B,1.0
1,1.116999864578247,learn,58883.00013542175,Thu Jun 18 2026 14:25:35 GMT-0500 (Central Daylight Time),148665.10000002384,A,gr,I,r,310,2,1115.9000000357628,147549.19999998808,8106,WL,B,1.0
1,1.3329999446868896,learn,58667.00005531311,Thu Jun 18 2026 14:25:35 GMT-0500 (Central Daylight Time),148881.89999997616,A,gra,I,a,203,2,1332.699999988079,147549.19999998808,8106,WL,B,1.0
1,1.682999849319458,learn,58317.00015068054,Thu Jun 18 2026 14:25:35 GMT-0500 (Central Daylight Time),149231.5,A,gras,I,s,339,2,1682.300000011921,147549.19999998808,8106,WL,B,1.0
1,1.8329999446868896,learn,58167.00005531311,Thu Jun 18 2026 14:25:35 GMT-0500 (Central Daylight Time),149381.30000001192,A,grass,I,s,132,2,1832.1000000238419,147549.19999998808,8106,WL,B,1.0
1,2.3489999771118164,learn,57651.00002288818,Thu Jun 18 2026 14:25:35 GMT-0500 (Central Daylight Time),149897.69999998808,A,grassenter,I,enter,510,2,2348.5,147549.19999998808,8106,WL,B,1.0
1,2.935999870300293,learn,57064.00012969971,Thu Jun 18 2026 14:25:35 GMT-0500 (Central Daylight Time),150484.39999997616,A,w,I,w,562,2,586.2999999523163,149898.10000002384,8106,WL,B,2.0
1,3.1389999389648438,learn,56861.000061035156,Thu Jun 18 2026 14:25:35 GMT-0500 (Central Daylight Time),150687.69999998808,A,wi,I,i,195,2,789.5999999642372,149898.10000002384,8106,WL,B,2.0
1,3.2869999408721924,learn,56713.00005912781,Thu Jun 18 2026 14:25:35 GMT-0500 (Central Daylight Time),150836.0,A,wif,I,f,130,2,937.8999999761581,149898.10000002384,8106,WL,B,2.0
1,3.4159998893737793,learn,56584.00011062622,Thu Jun 18 2026 14:25:35 GMT-0500 (Central Daylight Time),150964.30000001192,A,wife,I,e,113,2,1066.199999988079,149898.10000002384,8106,WL,B,2.0
1,3.6489999294281006,learn,56351.0000705719,Thu Jun 18 2026 14:25:35 GMT-0500 (Central Daylight Time),151197.60000002384,A,wifeenter,I,enter,223,2,1299.5,149898.10000002384,8106,WL,B,2.0
1,4.014999866485596,learn,55985.000133514404,Thu Jun 18 2026 14:25:35 GMT-0500 (Central Daylight Time),151564.0,A,a,I,a,351,2,365.69999998807907,151198.30000001192,8106,WL,B,3.0
1,4.23199987411499,learn,55768.00012588501,Thu Jun 18 2026 14:25:35 GMT-0500 (Central Daylight Time),151780.69999998808,A,ar,I,r,200,2,582.3999999761581,151198.30000001192,8106,WL,B,3.0
1,4.4659998416900635,learn,55534.00015830994,Thu Jun 18 2026 14:25:35 GMT-0500 (Central Daylight Time),152014.10000002384,A,arm,I,m,215,2,815.8000000119209,151198.30000001192,8106,WL,B,3.0
1,4.799000024795532,learn,55200.99997520447,Thu Jun 18 2026 14:25:35 GMT-0500 (Central Daylight Time),152347.10000002384,A,armenter,I,enter,318,2,1148.800000011921,151198.30000001192,8106,WL,B,3.0
1,5.115000009536743,learn,54884.99999046326,Thu Jun 18 2026 14:25:35 GMT-0500 (Central Daylight Time),152663.39999997616,A,s,I,s,296,2,315.89999997615814,152347.5,8106,WL,B,4.0
1,5.248999834060669,learn,54751.00016593933,Thu Jun 18 2026 14:25:35 GMT-0500 (Central Daylight Time),152797.19999998808,A,sk,I,k,116,2,449.69999998807907,152347.5,8106,WL,B,4.0
1,5.514999866485596,learn,54485.000133514404,Thu Jun 18 2026 14:25:35 GMT-0500 (Central Daylight Time),153063.30000001192,A,ski,I,i,255,2,715.8000000119209,152347.5,8106,WL,B,4.0
1,5.815999984741211,learn,54184.00001525879,Thu Jun 18 2026 14:25:35 GMT-0500 (Central Daylight Time),153364.89999997616,A,skin,I,n,285,2,1017.3999999761581,152347.5,8106,WL,B,4.0
1,6.180999994277954,learn,53819.000005722046,Thu Jun 18 2026 14:25:35 GMT-0500 (Central Daylight Time),153729.80000001192,A,skinenter,I,enter,360,2,1382.300000011921,152347.5,8106,WL,B,4.0
1,7.047999858856201,learn,52952.0001411438,Thu Jun 18 2026 14:25:35 GMT-0500 (Central Daylight Time),154596.30000001192,A,g,I,g,850,2,866.1000000238419,153730.19999998808,8106,WL,B,5.0
1,7.264999866485596,learn,52735.000133514404,Thu Jun 18 2026 14:25:35 GMT-0500 (Central Daylight Time),154813.10000002384,A,gr,I,r,209,2,1082.9000000357628,153730.19999998808,8106,WL,B,5.0
1,7.480999946594238,learn,52519.00005340576,Thu Jun 18 2026 14:25:35 GMT-0500 (Central Daylight Time),155029.5,A,gra,I,a,199,2,1299.300000011921,153730.19999998808,8106,WL,B,5.0
1,7.71399998664856,learn,52286.00001335144,Thu Jun 18 2026 14:25:35 GMT-0500 (Central Daylight Time),155263.10000002384,A,gras,I,s,223,2,1532.9000000357628,153730.19999998808,8106,WL,B,5.0
1,7.863999843597412,learn,52136.00015640259,Thu Jun 18 2026 14:25:35 GMT-0500 (Central Daylight Time),155412.89999997616,A,grass,I,s,141,2,1682.699999988079,153730.19999998808,8106,WL,B,5.0
1,8.613999843597412,learn,51386.00015640259,Thu Jun 18 2026 14:25:35 GMT-0500 (Central Daylight Time),156162.5,A,grassenter,I,enter,744,2,2432.300000011921,153730.19999998808,8106,WL,B,5.0
1,9.113999843597412,learn,50886.00015640259,Thu Jun 18 2026 14:25:35 GMT-0500 (Central Daylight Time),156662.30000001192,A,p,I,p,490,2,499.5,156162.80000001192,8106,WL,B,6.0
1,9.563999891281128,learn,50436.00010871887,Thu Jun 18 2026 14:25:35 GMT-0500 (Central Daylight Time),157112.5,A,pu,I,u,430,2,949.6999999880791,156162.80000001192,8106,WL,B,6.0
1,9.829999923706055,learn,50170.000076293945,Thu Jun 18 2026 14:25:35 GMT-0500 (Central Daylight Time),157378.89999997616,A,pup,I,p,260,2,1216.0999999642372,156162.80000001192,8106,WL,B,6.0
1,10.230999946594238,learn,49769.00005340576,Thu Jun 18 2026 14:25:35 GMT-0500 (Central Daylight Time),157779.80000001192,A,pupi,I,i,394,2,1617.0,156162.80000001192,8106,WL,B,6.0
1,10.563999891281128,learn,49436.00010871887,Thu Jun 18 2026 14:25:35 GMT-0500 (Central Daylight Time),158112.10000002384,A,pupil,I,l,321,2,1949.300000011921,156162.80000001192,8106,WL,B,6.0
1,10.980000019073486,learn,49019.999980926514,Thu Jun 18 2026 14:25:35 GMT-0500 (Central Daylight Time),158528.80000001192,A,pupilenter,I,enter,404,2,2366.0,156162.80000001192,8106,WL,B,6.0
1,11.36299991607666,learn,48637.00008392334,Thu Jun 18 2026 14:25:35 GMT-0500 (Central Daylight Time),158911.89999997616,A,c,I,c,371,2,382.69999998807907,158529.19999998808,8106,WL,B,7.0
1,11.52999997138977,learn,48470.00002861023,Thu Jun 18 2026 14:25:35 GMT-0500 (Central Daylight Time),159078.19999998808,A,ca,I,a,148,2,549.0,158529.19999998808,8106,WL,B,7.0
1,11.812999963760376,learn,48187.000036239624,Thu Jun 18 2026 14:25:35 GMT-0500 (Central Daylight Time),159361.60000002384,A,cab,I,b,268,2,832.4000000357628,158529.19999998808,8106,WL,B,7.0
1,12.062999963760376,learn,47937.000036239624,Thu Jun 18 2026 14:25:35 GMT-0500 (Central Daylight Time),159611.5,A,cabi,I,i,242,2,1082.300000011921,158529.19999998808,8106,WL,B,7.0
1,12.312999963760376,learn,47687.000036239624,Thu Jun 18 2026 14:25:35 GMT-0500 (Central Daylight Time),159861.5,A,cabin,I,n,232,2,1332.300000011921,158529.19999998808,8106,WL,B,7.0
1,12.780999898910522,learn,47219.00010108948,Thu Jun 18 2026 14:25:35 GMT-0500 (Central Daylight Time),160329.10000002384,A,cabinenter,I,enter,454,2,1799.9000000357628,158529.19999998808,8106,WL,B,7.0
1,13.046000003814697,learn,46953.9999961853,Thu Jun 18 2026 14:25:35 GMT-0500 (Central Daylight Time),160594.60000002384,A,s,I,s,251,2,265.10000002384186,160329.5,8106,WL,B,8.0
1,13.228999853134155,learn,46771.000146865845,Thu Jun 18 2026 14:25:35 GMT-0500 (Central Daylight Time),160777.80000001192,A,st,I,t,179,2,448.30000001192093,160329.5,8106,WL,B,8.0
1,13.462999820709229,learn,46537.00017929077,Thu Jun 18 2026 14:25:35 GMT-0500 (Central Daylight Time),161011.19999998808,A,sta,I,a,218,2,681.6999999880791,160329.5,8106,WL,B,8.0
1,13.711999893188477,learn,46288.00010681152,Thu Jun 18 2026 14:25:35 GMT-0500 (Central Daylight Time),161261.0,A,star,I,r,234,2,931.5,160329.5,8106,WL,B,8.0
1,13.978999853134155,learn,46021.000146865845,Thu Jun 18 2026 14:25:35 GMT-0500 (Central Daylight Time),161527.5,A,starenter,I,enter,248,2,1198.0,160329.5,8106,WL,B,8.0
1,18.24399995803833,learn,41756.00004196167,Thu Jun 18 2026 14:25:35 GMT-0500 (Central Daylight Time),165792.80000001192,A,p,I,p,4253,2,4264.900000035763,161527.89999997616,8106,WL,B,9.0
1,18.49399995803833,learn,41506.00004196167,Thu Jun 18 2026 14:25:35 GMT-0500 (Central Daylight Time),166042.69999998808,A,pi,I,i,243,2,4514.800000011921,161527.89999997616,8106,WL,B,9.0
1,18.676999807357788,learn,41323.00019264221,Thu Jun 18 2026 14:25:35 GMT-0500 (Central Daylight Time),166225.89999997616,A,pip,I,p,170,2,4698.0,161527.89999997616,8106,WL,B,9.0
1,18.91100001335144,learn,41088.99998664856,Thu Jun 18 2026 14:25:35 GMT-0500 (Central Daylight Time),166459.60000002384,A,pipe,I,e,219,2,4931.700000047684,161527.89999997616,8106,WL,B,9.0
1,19.060999870300293,learn,40939.00012969971,Thu Jun 18 2026 14:25:35 GMT-0500 (Central Daylight Time),166609.19999998808,A,pipeenter,I,enter,137,2,5081.300000011921,161527.89999997616,8106,WL,B,9.0
1,26.241999864578247,learn,33758.00013542175,Thu Jun 18 2026 14:25:35 GMT-0500 (Central Daylight Time),173790.5,A,s,I,s,7163,2,7180.899999976158,166609.60000002384,8106,WL,B,10.0
1,26.425999879837036,learn,33574.000120162964,Thu Jun 18 2026 14:25:35 GMT-0500 (Central Daylight Time),173974.89999997616,A,st,I,t,173,2,7365.299999952316,166609.60000002384,8106,WL,B,10.0
1,26.743000030517578,learn,33256.99996948242,Thu Jun 18 2026 14:25:35 GMT-0500 (Central Daylight Time),174291.39999997616,A,str,I,r,311,2,7681.799999952316,166609.60000002384,8106,WL,B,10.0
1,26.824999809265137,learn,33175.00019073486,Thu Jun 18 2026 14:25:35 GMT-0500 (Central Daylight Time),174373.39999997616,A,stre,I,e,74,2,7763.799999952316,166609.60000002384,8106,WL,B,10.0
1,26.95799994468689,learn,33042.00005531311,Thu Jun 18 2026 14:25:35 GMT-0500 (Central Daylight Time),174506.69999998808,A,stree,I,e,120,2,7897.099999964237,166609.60000002384,8106,WL,B,10.0
1,27.10800004005432,learn,32891.99995994568,Thu Jun 18 2026 14:25:35 GMT-0500 (Central Daylight Time),174656.80000001192,A,street,I,t,139,2,8047.199999988079,166609.60000002384,8106,WL,B,10.0
1,27.29099988937378,learn,32709.00011062622,Thu Jun 18 2026 14:25:35 GMT-0500 (Central Daylight Time),174839.89999997616,A,streetenter,I,enter,164,2,8230.299999952316,166609.60000002384,8106,WL,B,10.0
1,36.289000034332275,learn,23710.999965667725,Thu Jun 18 2026 14:25:35 GMT-0500 (Central Daylight Time),183837.30000001192,A,f,I,f,8988,2,8997.0,174840.30000001192,8106,WL,B,11.0
1,36.47199988365173,learn,23528.000116348267,Thu Jun 18 2026 14:25:35 GMT-0500 (Central Daylight Time),184020.39999997616,A,fi,I,i,174,2,9180.099999964237,174840.30000001192,8106,WL,B,11.0
1,36.65499997138977,learn,23345.00002861023,Thu Jun 18 2026 14:25:35 GMT-0500 (Central Daylight Time),184203.80000001192,A,fir,I,r,169,2,9363.5,174840.30000001192,8106,WL,B,11.0
1,36.73799991607666,learn,23262.00008392334,Thu Jun 18 2026 14:25:35 GMT-0500 (Central Daylight Time),184287.10000002384,A,fire,I,e,65,2,9446.800000011921,174840.30000001192,8106,WL,B,11.0
1,37.15499997138977,learn,22845.00002861023,Thu Jun 18 2026 14:25:35 GMT-0500 (Central Daylight Time),184703.89999997616,A,fireenter,I,enter,405,2,9863.599999964237,174840.30000001192,8106,WL,B,11.0
1,42.0699999332428,learn,17930.000066757202,Thu Jun 18 2026 14:25:35 GMT-0500 (Central Daylight Time),189618.80000001192,A,enter,I,enter,4908,2,4914.600000023842,184704.19999998808,8106,WL,B,12.0
1,45.70199990272522,learn,14298.00009727478,Thu Jun 18 2026 14:25:35 GMT-0500 (Central Daylight Time),193251.0,A,enter,I,enter,3618,2,3631.800000011921,189619.19999998808,8106,WL,B,13.0
1,46.43499994277954,learn,13565.000057220459,Thu Jun 18 2026 14:25:35 GMT-0500 (Central Daylight Time),193983.89999997616,A,enter,I,enter,722,2,732.5,193251.39999997616,8106,WL,B,14.0
1,47.51899981498718,learn,12481.000185012817,Thu Jun 18 2026 14:25:35 GMT-0500 (Central Daylight Time),195067.10000002384,A,enter,I,enter,1076,2,1082.800000011921,193984.30000001192,8106,WL,B,15.0
2,1.3999998569488525,learn,58600.00014305115,Thu Jun 18 2026 14:25:35 GMT-0500 (Central Daylight Time),265895.1999999881,A,c,I,c,1381,2,1399.5999999642372,264495.60000002384,8106,WL,B,1.0
2,1.6659998893737793,learn,58334.00011062622,Thu Jun 18 2026 14:25:35 GMT-0500 (Central Daylight Time),266161.60000002384,A,cl,I,l,244,2,1666.0,264495.60000002384,8106,WL,B,1.0
2,1.8819999694824219,learn,58118.00003051758,Thu Jun 18 2026 14:25:35 GMT-0500 (Central Daylight Time),266378.10000002384,A,clo,I,o,211,2,1882.5,264495.60000002384,8106,WL,B,1.0
2,2.065999984741211,learn,57934.00001525879,Thu Jun 18 2026 14:25:35 GMT-0500 (Central Daylight Time),266561.3000000119,A,cloc,I,c,172,2,2065.699999988079,264495.60000002384,8106,WL,B,1.0
2,2.2319998741149902,learn,57768.00012588501,Thu Jun 18 2026 14:25:35 GMT-0500 (Central Daylight Time),266728.0,A,clock,I,k,147,2,2232.399999976158,264495.60000002384,8106,WL,B,1.0
2,2.498999834060669,learn,57501.00016593933,Thu Jun 18 2026 14:25:35 GMT-0500 (Central Daylight Time),266994.39999997616,A,clockenter,I,enter,252,2,2498.7999999523163,264495.60000002384,8106,WL,B,1.0
2,2.7819998264312744,learn,57218.000173568726,Thu Jun 18 2026 14:25:35 GMT-0500 (Central Daylight Time),267277.6999999881,A,s,I,s,267,2,282.89999997615814,266994.8000000119,8106,WL,B,2.0
2,2.9649999141693115,learn,57035.00008583069,Thu Jun 18 2026 14:25:35 GMT-0500 (Central Daylight Time),267461.10000002384,A,sk,I,k,166,2,466.30000001192093,266994.8000000119,8106,WL,B,2.0
2,3.1989998817443848,learn,56801.000118255615,Thu Jun 18 2026 14:25:35 GMT-0500 (Central Daylight Time),267694.1999999881,A,ski,I,i,224,2,699.3999999761581,266994.8000000119,8106,WL,B,2.0
2,3.4149999618530273,learn,56585.00003814697,Thu Jun 18 2026 14:25:35 GMT-0500 (Central Daylight Time),267911.10000002384,A,skin,I,n,198,2,916.3000000119209,266994.8000000119,8106,WL,B,2.0
2,3.6649999618530273,learn,56335.00003814697,Thu Jun 18 2026 14:25:35 GMT-0500 (Central Daylight Time),268161.0,A,skinenter,I,enter,237,2,1166.199999988079,266994.8000000119,8106,WL,B,2.0
2,4.060999870300293,learn,55939.00012969971,Thu Jun 18 2026 14:25:35 GMT-0500 (Central Daylight Time),268556.6999999881,A,a,I,a,390,2,395.30000001192093,268161.39999997616,8106,WL,B,3.0
2,4.2149999141693115,learn,55785.00008583069,Thu Jun 18 2026 14:25:35 GMT-0500 (Central Daylight Time),268710.5,A,ar,I,r,135,2,549.1000000238419,268161.39999997616,8106,WL,B,3.0
2,4.414999961853027,learn,55585.00003814697,Thu Jun 18 2026 14:25:35 GMT-0500 (Central Daylight Time),268910.8000000119,A,arm,I,m,183,2,749.4000000357628,268161.39999997616,8106,WL,B,3.0
2,4.631999969482422,learn,55368.00003051758,Thu Jun 18 2026 14:25:35 GMT-0500 (Central Daylight Time),269127.1999999881,A,armenter,I,enter,198,2,965.8000000119209,268161.39999997616,8106,WL,B,3.0
2,5.014999866485596,learn,54985.000133514404,Thu Jun 18 2026 14:25:35 GMT-0500 (Central Daylight Time),269510.39999997616,A,p,I,p,366,2,382.7999999523163,269127.60000002384,8106,WL,B,4.0
2,5.297999858856201,learn,54702.0001411438,Thu Jun 18 2026 14:25:35 GMT-0500 (Central Daylight Time),269793.5,A,pu,I,u,278,2,665.8999999761581,269127.60000002384,8106,WL,B,4.0
2,5.547999858856201,learn,54452.0001411438,Thu Jun 18 2026 14:25:35 GMT-0500 (Central Daylight Time),270043.60000002384,A,pup,I,p,235,2,916.0,269127.60000002384,8106,WL,B,4.0
2,5.932999849319458,learn,54067.00015068054,Thu Jun 18 2026 14:25:35 GMT-0500 (Central Daylight Time),270428.1999999881,A,pupi,I,i,369,2,1300.5999999642372,269127.60000002384,8106,WL,B,4.0
2,6.197999954223633,learn,53802.00004577637,Thu Jun 18 2026 14:25:35 GMT-0500 (Central Daylight Time),270693.3000000119,A,pupil,I,l,249,2,1565.699999988079,269127.60000002384,8106,WL,B,4.0
2,6.447999954223633,learn,53552.00004577637,Thu Jun 18 2026 14:25:35 GMT-0500 (Central Daylight Time),270943.39999997616,A,pupilenter,I,enter,240,2,1815.7999999523163,269127.60000002384,8106,WL,B,4.0
2,6.680999994277954,learn,53319.000005722046,Thu Jun 18 2026 14:25:35 GMT-0500 (Central Daylight Time),271176.8000000119,A,s,I,s,213,2,233.10000002384186,270943.6999999881,8106,WL,B,5.0
2,6.898000001907349,learn,53101.99999809265,Thu Jun 18 2026 14:25:35 GMT-0500 (Central Daylight Time),271393.39999997616,A,st,I,t,196,2,449.69999998807907,270943.6999999881,8106,WL,B,5.0
2,7.113999843597412,learn,52886.00015640259,Thu Jun 18 2026 14:25:35 GMT-0500 (Central Daylight Time),271610.0,A,sta,I,a,204,2,666.3000000119209,270943.6999999881,8106,WL,B,5.0
2,7.313999891281128,learn,52686.00010871887,Thu Jun 18 2026 14:25:35 GMT-0500 (Central Daylight Time),271809.8000000119,A,star,I,r,194,2,866.1000000238419,270943.6999999881,8106,WL,B,5.0
2,7.796999931335449,learn,52203.00006866455,Thu Jun 18 2026 14:25:35 GMT-0500 (Central Daylight Time),272292.89999997616,A,starenter,I,enter,467,2,1349.199999988079,270943.6999999881,8106,WL,B,5.0
2,8.079999923706055,learn,51920.000076293945,Thu Jun 18 2026 14:25:35 GMT-0500 (Central Daylight Time),272575.89999997616,A,g,I,g,264,2,282.5,272293.39999997616,8106,WL,B,6.0
2,8.29699993133545,learn,51703.00006866455,Thu Jun 18 2026 14:25:35 GMT-0500 (Central Daylight Time),272792.8000000119,A,gr,I,r,205,2,499.4000000357628,272293.39999997616,8106,WL,B,6.0
2,8.563999891281128,learn,51436.00010871887,Thu Jun 18 2026 14:25:35 GMT-0500 (Central Daylight Time),273059.5,A,gra,I,a,252,2,766.1000000238419,272293.39999997616,8106,WL,B,6.0
2,8.79699993133545,learn,51203.00006866455,Thu Jun 18 2026 14:25:35 GMT-0500 (Central Daylight Time),273292.8000000119,A,gras,I,s,217,2,999.4000000357628,272293.39999997616,8106,WL,B,6.0
2,8.946999788284302,learn,51053.0002117157,Thu Jun 18 2026 14:25:35 GMT-0500 (Central Daylight Time),273442.5,A,grass,I,s,144,2,1149.1000000238419,272293.39999997616,8106,WL,B,6.0
2,9.146999835968018,learn,50853.00016403198,Thu Jun 18 2026 14:25:35 GMT-0500 (Central Daylight Time),273642.1999999881,A,grassenter,I,enter,195,2,1348.800000011921,272293.39999997616,8106,WL,B,6.0
2,9.36299991607666,learn,50637.00008392334,Thu Jun 18 2026 14:25:35 GMT-0500 (Central Daylight Time),273859.10000002384,A,c,I,c,211,2,216.70000004768372,273642.39999997616,8106,WL,B,7.0
2,9.52999997138977,learn,50470.00002861023,Thu Jun 18 2026 14:25:35 GMT-0500 (Central Daylight Time),274025.60000002384,A,cl,I,l,145,2,383.2000000476837,273642.39999997616,8106,WL,B,7.0
2,9.77999997138977,learn,50220.00002861023,Thu Jun 18 2026 14:25:35 GMT-0500 (Central Daylight Time),274275.6999999881,A,clo,I,o,244,2,633.3000000119209,273642.39999997616,8106,WL,B,7.0
2,10.52999997138977,learn,49470.00002861023,Thu Jun 18 2026 14:25:35 GMT-0500 (Central Daylight Time),275025.60000002384,A,cl,I,backspace,729,2,1383.2000000476837,273642.39999997616,8106,WL,B,7.0
2,11.046000003814697,learn,48953.9999961853,Thu Jun 18 2026 14:25:35 GMT-0500 (Central Daylight Time),275542.0,A,c,I,backspace,500,2,1899.6000000238419,273642.39999997616,8106,WL,B,7.0
2,11.312999963760376,learn,48687.000036239624,Thu Jun 18 2026 14:25:35 GMT-0500 (Central Daylight Time),275808.3000000119,A,,I,backspace,247,2,2165.900000035763,273642.39999997616,8106,WL,B,7.0
2,11.978999853134155,learn,48021.000146865845,Thu Jun 18 2026 14:25:35 GMT-0500 (Central Daylight Time),276475.0,A,w,I,w,660,2,2832.600000023842,273642.39999997616,8106,WL,B,7.0
2,12.161999940872192,learn,47838.00005912781,Thu Jun 18 2026 14:25:35 GMT-0500 (Central Daylight Time),276658.0,A,wi,I,i,178,2,3015.600000023842,273642.39999997616,8106,WL,B,7.0
2,12.27899980545044,learn,47721.00019454956,Thu Jun 18 2026 14:25:35 GMT-0500 (Central Daylight Time),276775.0,A,wif,I,f,107,2,3132.600000023842,273642.39999997616,8106,WL,B,7.0
2,12.361999988555908,learn,47638.00001144409,Thu Jun 18 2026 14:25:35 GMT-0500 (Central Daylight Time),276858.1999999881,A,wife,I,e,78,2,3215.800000011921,273642.39999997616,8106,WL,B,7.0
2,13.244999885559082,learn,46755.00011444092,Thu Jun 18 2026 14:25:35 GMT-0500 (Central Daylight Time),277741.0,A,wifeenter,I,enter,867,2,4098.600000023842,273642.39999997616,8106,WL,B,7.0
2,13.59499979019165,learn,46405.00020980835,Thu Jun 18 2026 14:25:35 GMT-0500 (Central Daylight Time),278091.0,A,c,I,c,336,2,349.69999998807907,277741.3000000119,8106,WL,B,8.0
2,13.76199984550476,learn,46238.00015449524,Thu Jun 18 2026 14:25:35 GMT-0500 (Central Daylight Time),278257.5,A,ca,I,a,154,2,516.1999999880791,277741.3000000119,8106,WL,B,8.0
2,13.994999885559082,learn,46005.00011444092,Thu Jun 18 2026 14:25:35 GMT-0500 (Central Daylight Time),278490.89999997616,A,cab,I,b,220,2,749.5999999642372,277741.3000000119,8106,WL,B,8.0
2,14.178999900817871,learn,45821.00009918213,Thu Jun 18 2026 14:25:35 GMT-0500 (Central Daylight Time),278674.3000000119,A,cabi,I,i,170,2,933.0,277741.3000000119,8106,WL,B,8.0
2,14.27899980545044,learn,45721.00019454956,Thu Jun 18 2026 14:25:35 GMT-0500 (Central Daylight Time),278774.1999999881,A,cabin,I,n,82,2,1032.8999999761581,277741.3000000119,8106,WL,B,8.0
2,14.51199984550476,learn,45488.00015449524,Thu Jun 18 2026 14:25:35 GMT-0500 (Central Daylight Time),279007.5,A,cabinenter,I,enter,223,2,1266.199999988079,277741.3000000119,8106,WL,B,8.0
2,14.794999837875366,learn,45205.000162124634,Thu Jun 18 2026 14:25:35 GMT-0500 (Central Daylight Time),279290.6999999881,A,l,I,l,276,2,282.69999998807907,279008.0,8106,WL,B,9.0
2,14.961999893188477,learn,45038.00010681152,Thu Jun 18 2026 14:25:35 GMT-0500 (Central Daylight Time),279457.1999999881,A,la,I,a,146,2,449.19999998807907,279008.0,8106,WL,B,9.0
2,15.09499979019165,learn,44905.00020980835,Thu Jun 18 2026 14:25:35 GMT-0500 (Central Daylight Time),279590.89999997616,A,lak,I,k,116,2,582.8999999761581,279008.0,8106,WL,B,9.0
2,15.211999893188477,learn,44788.00010681152,Thu Jun 18 2026 14:25:35 GMT-0500 (Central Daylight Time),279707.60000002384,A,lake,I,e,109,2,699.6000000238419,279008.0,8106,WL,B,9.0
2,15.394999980926514,learn,44605.000019073486,Thu Jun 18 2026 14:25:35 GMT-0500 (Central Daylight Time),279890.39999997616,A,lakeenter,I,enter,177,2,882.3999999761581,279008.0,8106,WL,B,9.0
2,15.577999830245972,learn,44422.00016975403,Thu Jun 18 2026 14:25:35 GMT-0500 (Central Daylight Time),280073.8000000119,A,s,I,s,162,2,183.19999998807907,279890.60000002384,8106,WL,B,10.0
2,15.777999877929688,learn,44222.00012207031,Thu Jun 18 2026 14:25:35 GMT-0500 (Central Daylight Time),280273.60000002384,A,st,I,t,195,2,383.0,279890.60000002384,8106,WL,B,10.0
2,15.961999893188477,learn,44038.00010681152,Thu Jun 18 2026 14:25:35 GMT-0500 (Central Daylight Time),280457.1999999881,A,sta,I,a,172,2,566.5999999642372,279890.60000002384,8106,WL,B,10.0
2,16.17799997329712,learn,43822.00002670288,Thu Jun 18 2026 14:25:35 GMT-0500 (Central Daylight Time),280673.60000002384,A,star,I,r,203,2,783.0,279890.60000002384,8106,WL,B,10.0
2,16.460999965667725,learn,43539.000034332275,Thu Jun 18 2026 14:25:35 GMT-0500 (Central Daylight Time),280957.0,A,starenter,I,enter,267,2,1066.3999999761581,279890.60000002384,8106,WL,B,10.0
2,18.626999855041504,learn,41373.000144958496,Thu Jun 18 2026 14:25:35 GMT-0500 (Central Daylight Time),283122.6999999881,A,p,I,p,2152,2,2165.5,280957.1999999881,8106,WL,B,11.0
2,18.80999994277954,learn,41190.00005722046,Thu Jun 18 2026 14:25:35 GMT-0500 (Central Daylight Time),283306.0,A,pi,I,i,170,2,2348.800000011921,280957.1999999881,8106,WL,B,11.0
2,18.959999799728394,learn,41040.00020027161,Thu Jun 18 2026 14:25:35 GMT-0500 (Central Daylight Time),283455.6999999881,A,pip,I,p,130,2,2498.5,280957.1999999881,8106,WL,B,11.0
2,19.143999814987183,learn,40856.00018501282,Thu Jun 18 2026 14:25:35 GMT-0500 (Central Daylight Time),283639.1999999881,A,pipe,I,e,164,2,2682.0,280957.1999999881,8106,WL,B,11.0
2,19.30999994277954,learn,40690.00005722046,Thu Jun 18 2026 14:25:35 GMT-0500 (Central Daylight Time),283805.60000002384,A,pipeenter,I,enter,156,2,2848.400000035763,280957.1999999881,8106,WL,B,11.0
2,34.0719997882843,learn,25928.0002117157,Thu Jun 18 2026 14:25:35 GMT-0500 (Central Daylight Time),298567.8000000119,A,w,I,w,14752,2,14761.900000035763,283805.89999997616,8106,WL,B,12.0
2,34.20599985122681,learn,25794.000148773193,Thu Jun 18 2026 14:25:35 GMT-0500 (Central Daylight Time),298701.5,A,wi,I,i,125,2,14895.600000023842,283805.89999997616,8106,WL,B,12.0
2,34.305999994277954,learn,25694.000005722046,Thu Jun 18 2026 14:25:35 GMT-0500 (Central Daylight Time),298801.1999999881,A,win,I,n,87,2,14995.300000011921,283805.89999997616,8106,WL,B,12.0
2,34.47199988365173,learn,25528.000116348267,Thu Jun 18 2026 14:25:35 GMT-0500 (Central Daylight Time),298968.0,A,wind,I,d,155,2,15162.100000023842,283805.89999997616,8106,WL,B,12.0
2,34.72199988365173,learn,25278.000116348267,Thu Jun 18 2026 14:25:35 GMT-0500 (Central Daylight Time),299217.60000002384,A,windo,I,o,237,2,15411.700000047684,283805.89999997616,8106,WL,B,12.0
2,34.90499997138977,learn,25095.00002861023,Thu Jun 18 2026 14:25:35 GMT-0500 (Central Daylight Time),299401.10000002384,A,window,I,w,172,2,15595.200000047684,283805.89999997616,8106,WL,B,12.0
2,35.08799982070923,learn,24912.00017929077,Thu Jun 18 2026 14:25:35 GMT-0500 (Central Daylight Time),299584.10000002384,A,windowenter,I,enter,163,2,15778.200000047684,283805.89999997616,8106,WL,B,12.0
2,35.25499987602234,learn,24745.00012397766,Thu Jun 18 2026 14:25:35 GMT-0500 (Central Daylight Time),299751.10000002384,A,d,I,d,158,2,166.80000001192093,299584.3000000119,8106,WL,B,13.0
2,35.40499997138977,learn,24595.00002861023,Thu Jun 18 2026 14:25:35 GMT-0500 (Central Daylight Time),299901.10000002384,A,do,I,o,142,2,316.80000001192093,299584.3000000119,8106,WL,B,13.0
2,35.5719997882843,learn,24428.0002117157,Thu Jun 18 2026 14:25:35 GMT-0500 (Central Daylight Time),300067.60000002384,A,doo,I,o,151,2,483.30000001192093,299584.3000000119,8106,WL,B,13.0
2,35.67199993133545,learn,24328.00006866455,Thu Jun 18 2026 14:25:35 GMT-0500 (Central Daylight Time),300167.39999997616,A,door,I,r,89,2,583.0999999642372,299584.3000000119,8106,WL,B,13.0
2,35.8219997882843,learn,24178.0002117157,Thu Jun 18 2026 14:25:35 GMT-0500 (Central Daylight Time),300317.5,A,doorenter,I,enter,134,2,733.1999999880791,299584.3000000119,8106,WL,B,13.0
2,40.30399990081787,learn,19696.00009918213,Thu Jun 18 2026 14:25:35 GMT-0500 (Central Daylight Time),304799.3000000119,A,c,I,c,4471,2,4481.400000035763,300317.89999997616,8106,WL,B,14.0
2,40.38699984550476,learn,19613.00015449524,Thu Jun 18 2026 14:25:35 GMT-0500 (Central Daylight Time),304882.5,A,ci,I,i,78,2,4564.600000023842,300317.89999997616,8106,WL,B,14.0
2,40.5699999332428,learn,19430.000066757202,Thu Jun 18 2026 14:25:35 GMT-0500 (Central Daylight Time),305066.10000002384,A,cit,I,t,163,2,4748.200000047684,300317.89999997616,8106,WL,B,14.0
2,40.71999979019165,learn,19280.00020980835,Thu Jun 18 2026 14:25:35 GMT-0500 (Central Daylight Time),305216.0,A,city,I,y,138,2,4898.100000023842,300317.89999997616,8106,WL,B,14.0
2,40.98799991607666,learn,19012.00008392334,Thu Jun 18 2026 14:25:35 GMT-0500 (Central Daylight Time),305483.60000002384,A,cityenter,I,enter,260,2,5165.700000047684,300317.89999997616,8106,WL,B,14.0
2,42.03600001335144,learn,17963.99998664856,Thu Jun 18 2026 14:25:35 GMT-0500 (Central Daylight Time),306532.1999999881,A,enter,I,enter,1042,2,1048.199999988079,305484.0,8106,WL,B,15.0
3,0.8830001354217529,learn,59116.99986457825,Thu Jun 18 2026 14:25:35 GMT-0500 (Central Daylight Time),374144.39999997616,A,f,I,f,864,2,882.8999999761581,373261.5,8106,WL,B,1.0
3,1.1820001602172852,learn,58817.999839782715,Thu Jun 18 2026 14:25:35 GMT-0500 (Central Daylight Time),374444.1999999881,A,fi,I,i,283,2,1182.699999988079,373261.5,8106,WL,B,1.0
3,1.3660001754760742,learn,58633.999824523926,Thu Jun 18 2026 14:25:35 GMT-0500 (Central Daylight Time),374627.60000002384,A,fir,I,r,169,2,1366.1000000238419,373261.5,8106,WL,B,1.0
3,1.5160000324249268,learn,58483.99996757507,Thu Jun 18 2026 14:25:35 GMT-0500 (Central Daylight Time),374777.3000000119,A,fire,I,e,137,2,1515.800000011921,373261.5,8106,WL,B,1.0
3,1.81600022315979,learn,58183.99977684021,Thu Jun 18 2026 14:25:35 GMT-0500 (Central Daylight Time),375077.5,A,fireenter,I,enter,292,2,1816.0,373261.5,8106,WL,B,1.0
3,2.06600022315979,learn,57933.99977684021,Thu Jun 18 2026 14:25:35 GMT-0500 (Central Daylight Time),375327.1999999881,A,g,I,g,231,2,249.39999997615814,375077.8000000119,8106,WL,B,2.0
3,2.3490002155303955,learn,57650.999784469604,Thu Jun 18 2026 14:25:35 GMT-0500 (Central Daylight Time),375610.3000000119,A,gr,I,r,278,2,532.5,375077.8000000119,8106,WL,B,2.0
3,2.565000057220459,learn,57434.99994277954,Thu Jun 18 2026 14:25:35 GMT-0500 (Central Daylight Time),375827.10000002384,A,gra,I,a,210,2,749.3000000119209,375077.8000000119,8106,WL,B,2.0
3,2.882000207901001,learn,57117.999792099,Thu Jun 18 2026 14:25:35 GMT-0500 (Central Daylight Time),376143.60000002384,A,gras,I,s,304,2,1065.800000011921,375077.8000000119,8106,WL,B,2.0
3,3.065000057220459,learn,56934.99994277954,Thu Jun 18 2026 14:25:35 GMT-0500 (Central Daylight Time),376327.10000002384,A,grass,I,s,174,2,1249.300000011921,375077.8000000119,8106,WL,B,2.0
3,3.8990001678466797,learn,56100.99983215332,Thu Jun 18 2026 14:25:35 GMT-0500 (Central Daylight Time),377160.39999997616,A,grassenter,I,enter,822,2,2082.599999964237,375077.8000000119,8106,WL,B,2.0
3,4.198000192642212,learn,55801.99980735779,Thu Jun 18 2026 14:25:35 GMT-0500 (Central Daylight Time),377459.8000000119,A,s,I,s,292,2,299.19999998807907,377160.60000002384,8106,WL,B,3.0
3,4.3490002155303955,learn,55650.999784469604,Thu Jun 18 2026 14:25:35 GMT-0500 (Central Daylight Time),377611.0,A,st,I,t,138,2,450.39999997615814,377160.60000002384,8106,WL,B,3.0
3,4.615000009536743,learn,55384.99999046326,Thu Jun 18 2026 14:25:35 GMT-0500 (Central Daylight Time),377876.60000002384,A,sta,I,a,250,2,716.0,377160.60000002384,8106,WL,B,3.0
3,4.982000112533569,learn,55017.99988746643,Thu Jun 18 2026 14:25:35 GMT-0500 (Central Daylight Time),378243.1999999881,A,star,I,r,353,2,1082.5999999642372,377160.60000002384,8106,WL,B,3.0
3,5.198000192642212,learn,54801.99980735779,Thu Jun 18 2026 14:25:35 GMT-0500 (Central Daylight Time),378459.60000002384,A,starenter,I,enter,210,2,1299.0,377160.60000002384,8106,WL,B,3.0
3,5.38100004196167,learn,54618.99995803833,Thu Jun 18 2026 14:25:35 GMT-0500 (Central Daylight Time),378642.8000000119,A,c,I,c,170,2,182.80000001192093,378460.0,8106,WL,B,4.0
3,5.531000137329102,learn,54468.9998626709,Thu Jun 18 2026 14:25:35 GMT-0500 (Central Daylight Time),378793.10000002384,A,ci,I,i,138,2,333.10000002384186,378460.0,8106,WL,B,4.0
3,5.698000192642212,learn,54301.99980735779,Thu Jun 18 2026 14:25:35 GMT-0500 (Central Daylight Time),378959.39999997616,A,cit,I,t,147,2,499.39999997615814,378460.0,8106,WL,B,4.0
3,5.814000129699707,learn,54185.99987030029,Thu Jun 18 2026 14:25:35 GMT-0500 (Central Daylight Time),379076.10000002384,A,city,I,y,109,2,616.1000000238419,378460.0,8106,WL,B,4.0
3,6.064000129699707,learn,53935.99987030029,Thu Jun 18 2026 14:25:35 GMT-0500 (Central Daylight Time),379326.10000002384,A,cityenter,I,enter,240,2,866.1000000238419,378460.0,8106,WL,B,4.0
3,6.331000089645386,learn,53668.999910354614,Thu Jun 18 2026 14:25:35 GMT-0500 (Central Daylight Time),379592.60000002384,A,l,I,l,246,2,266.2000000476837,379326.39999997616,8106,WL,B,5.0
3,6.447000026702881,learn,53552.99997329712,Thu Jun 18 2026 14:25:35 GMT-0500 (Central Daylight Time),379709.10000002384,A,la,I,a,108,2,382.7000000476837,379326.39999997616,8106,WL,B,5.0
3,6.614000082015991,learn,53385.99991798401,Thu Jun 18 2026 14:25:35 GMT-0500 (Central Daylight Time),379875.8000000119,A,lak,I,k,152,2,549.4000000357628,379326.39999997616,8106,WL,B,5.0
3,6.731000185012817,learn,53268.99981498718,Thu Jun 18 2026 14:25:35 GMT-0500 (Central Daylight Time),379992.60000002384,A,lake,I,e,96,2,666.2000000476837,379326.39999997616,8106,WL,B,5.0
3,6.897000074386597,learn,53102.9999256134,Thu Jun 18 2026 14:25:35 GMT-0500 (Central Daylight Time),380158.89999997616,A,lakeenter,I,enter,157,2,832.5,379326.39999997616,8106,WL,B,5.0
3,7.13100004196167,learn,52868.99995803833,Thu Jun 18 2026 14:25:35 GMT-0500 (Central Daylight Time),380392.5,A,c,I,c,214,2,233.30000001192093,380159.1999999881,8106,WL,B,6.0
3,7.281000137329102,learn,52718.9998626709,Thu Jun 18 2026 14:25:35 GMT-0500 (Central Daylight Time),380542.39999997616,A,ca,I,a,131,2,383.19999998807907,380159.1999999881,8106,WL,B,6.0
3,7.514000177383423,learn,52485.99982261658,Thu Jun 18 2026 14:25:35 GMT-0500 (Central Daylight Time),380775.60000002384,A,cab,I,b,222,2,616.4000000357628,380159.1999999881,8106,WL,B,6.0
3,7.71399998664856,learn,52286.00001335144,Thu Jun 18 2026 14:25:35 GMT-0500 (Central Daylight Time),380975.5,A,cabi,I,i,190,2,816.3000000119209,380159.1999999881,8106,WL,B,6.0
3,7.864000082015991,learn,52135.99991798401,Thu Jun 18 2026 14:25:35 GMT-0500 (Central Daylight Time),381125.39999997616,A,cabin,I,n,133,2,966.1999999880791,380159.1999999881,8106,WL,B,6.0
3,8.21399998664856,learn,51786.00001335144,Thu Jun 18 2026 14:25:35 GMT-0500 (Central Daylight Time),381475.1999999881,A,cabinenter,I,enter,335,2,1316.0,380159.1999999881,8106,WL,B,6.0
3,8.913000106811523,learn,51086.99989318848,Thu Jun 18 2026 14:25:35 GMT-0500 (Central Daylight Time),382175.1999999881,A,a,I,a,689,2,699.6999999880791,381475.5,8106,WL,B,7.0
3,9.097000122070312,learn,50902.99987792969,Thu Jun 18 2026 14:25:35 GMT-0500 (Central Daylight Time),382358.39999997616,A,ar,I,r,166,2,882.8999999761581,381475.5,8106,WL,B,7.0
3,9.297000169754028,learn,50702.99983024597,Thu Jun 18 2026 14:25:35 GMT-0500 (Central Daylight Time),382558.5,A,arm,I,m,191,2,1083.0,381475.5,8106,WL,B,7.0
3,9.597000122070312,learn,50402.99987792969,Thu Jun 18 2026 14:25:35 GMT-0500 (Central Daylight Time),382858.5,A,armenter,I,enter,279,2,1383.0,381475.5,8106,WL,B,7.0
3,9.78000020980835,learn,50219.99979019165,Thu Jun 18 2026 14:25:35 GMT-0500 (Central Daylight Time),383041.60000002384,A,w,I,w,162,2,182.80000001192093,382858.8000000119,8106,WL,B,8.0
3,9.980000019073486,learn,50019.999980926514,Thu Jun 18 2026 14:25:35 GMT-0500 (Central Daylight Time),383241.60000002384,A,wi,I,i,187,2,382.80000001192093,382858.8000000119,8106,WL,B,8.0
3,10.130000114440918,learn,49869.99988555908,Thu Jun 18 2026 14:25:35 GMT-0500 (Central Daylight Time),383391.60000002384,A,wif,I,f,132,2,532.8000000119209,382858.8000000119,8106,WL,B,8.0
3,10.246000051498413,learn,49753.99994850159,Thu Jun 18 2026 14:25:35 GMT-0500 (Central Daylight Time),383508.10000002384,A,wife,I,e,101,2,649.3000000119209,382858.8000000119,8106,WL,B,8.0
3,10.53000020980835,learn,49469.99979019165,Thu Jun 18 2026 14:25:35 GMT-0500 (Central Daylight Time),383791.3000000119,A,wifeenter,I,enter,273,2,932.5,382858.8000000119,8106,WL,B,8.0
3,10.913000106811523,learn,49086.99989318848,Thu Jun 18 2026 14:25:35 GMT-0500 (Central Daylight Time),384174.39999997616,A,p,I,p,373,2,382.7999999523163,383791.60000002384,8106,WL,B,9.0
3,11.17900013923645,learn,48820.99986076355,Thu Jun 18 2026 14:25:35 GMT-0500 (Central Daylight Time),384441.1999999881,A,pu,I,u,255,2,649.5999999642372,383791.60000002384,8106,WL,B,9.0
3,11.328999996185303,learn,48671.0000038147,Thu Jun 18 2026 14:25:35 GMT-0500 (Central Daylight Time),384590.89999997616,A,pup,I,p,140,2,799.2999999523163,383791.60000002384,8106,WL,B,9.0
3,11.646000146865845,learn,48353.999853134155,Thu Jun 18 2026 14:25:35 GMT-0500 (Central Daylight Time),384907.5,A,pupi,I,i,309,2,1115.8999999761581,383791.60000002384,8106,WL,B,9.0
3,11.92900013923645,learn,48070.99986076355,Thu Jun 18 2026 14:25:35 GMT-0500 (Central Daylight Time),385190.89999997616,A,pupil,I,l,265,2,1399.2999999523163,383791.60000002384,8106,WL,B,9.0
3,12.312000036239624,learn,47687.999963760376,Thu Jun 18 2026 14:25:35 GMT-0500 (Central Daylight Time),385574.10000002384,A,pupilenter,I,enter,367,2,1782.5,383791.60000002384,8106,WL,B,9.0
3,12.76200008392334,learn,47237.99991607666,Thu Jun 18 2026 14:25:35 GMT-0500 (Central Daylight Time),386024.0,A,p,I,p,438,2,449.60000002384186,385574.39999997616,8106,WL,B,10.0
3,13.07200002670288,learn,46927.99997329712,Thu Jun 18 2026 14:25:35 GMT-0500 (Central Daylight Time),386334.0,A,pi,I,i,305,2,759.6000000238419,385574.39999997616,8106,WL,B,10.0
3,13.34500002861023,learn,46654.99997138977,Thu Jun 18 2026 14:25:35 GMT-0500 (Central Daylight Time),386606.6999999881,A,pip,I,p,256,2,1032.300000011921,385574.39999997616,8106,WL,B,10.0
3,13.812000036239624,learn,46187.999963760376,Thu Jun 18 2026 14:25:35 GMT-0500 (Central Daylight Time),387073.60000002384,A,pipe,I,e,454,2,1499.2000000476837,385574.39999997616,8106,WL,B,10.0
3,15.34600019454956,learn,44653.99980545044,Thu Jun 18 2026 14:25:35 GMT-0500 (Central Daylight Time),388607.60000002384,A,pipeenter,I,enter,1515,2,3033.2000000476837,385574.39999997616,8106,WL,B,10.0
3,16.944000005722046,learn,43055.999994277954,Thu Jun 18 2026 14:25:35 GMT-0500 (Central Daylight Time),390206.0,A,s,I,s,1581,2,1598.1000000238419,388607.89999997616,8106,WL,B,11.0
3,17.0770001411438,learn,42922.9998588562,Thu Jun 18 2026 14:25:35 GMT-0500 (Central Daylight Time),390338.89999997616,A,st,I,t,126,2,1731.0,388607.89999997616,8106,WL,B,11.0
3,17.277000188827515,learn,42722.999811172485,Thu Jun 18 2026 14:25:35 GMT-0500 (Central Daylight Time),390539.3000000119,A,str,I,r,193,2,1931.4000000357628,388607.89999997616,8106,WL,B,11.0
3,17.47699999809265,learn,42523.00000190735,Thu Jun 18 2026 14:25:35 GMT-0500 (Central Daylight Time),390739.1999999881,A,stre,I,e,193,2,2131.300000011921,388607.89999997616,8106,WL,B,11.0
3,17.611000061035156,learn,42388.999938964844,Thu Jun 18 2026 14:25:35 GMT-0500 (Central Daylight Time),390872.60000002384,A,stree,I,e,123,2,2264.7000000476837,388607.89999997616,8106,WL,B,11.0
3,17.811000108718872,learn,42188.99989128113,Thu Jun 18 2026 14:25:35 GMT-0500 (Central Daylight Time),391072.6999999881,A,street,I,t,188,2,2464.800000011921,388607.89999997616,8106,WL,B,11.0
3,18.06000018119812,learn,41939.99981880188,Thu Jun 18 2026 14:25:35 GMT-0500 (Central Daylight Time),391322.0,A,streetenter,I,enter,244,2,2714.100000023842,388607.89999997616,8106,WL,B,11.0
3,18.259999990463257,learn,41740.00000953674,Thu Jun 18 2026 14:25:35 GMT-0500 (Central Daylight Time),391522.0,A,g,I,g,195,2,199.69999998807907,391322.3000000119,8106,WL,B,12.0
3,18.544000148773193,learn,41455.99985122681,Thu Jun 18 2026 14:25:35 GMT-0500 (Central Daylight Time),391805.39999997616,A,gr,I,r,267,2,483.0999999642372,391322.3000000119,8106,WL,B,12.0
3,19.06000018119812,learn,40939.99981880188,Thu Jun 18 2026 14:25:35 GMT-0500 (Central Daylight Time),392322.0,A,gra,I,a,495,2,999.6999999880791,391322.3000000119,8106,WL,B,12.0
3,19.343000173568726,learn,40656.999826431274,Thu Jun 18 2026 14:25:35 GMT-0500 (Central Daylight Time),392605.0,A,gras,I,s,267,2,1282.699999988079,391322.3000000119,8106,WL,B,12.0
3,19.493000030517578,learn,40506.99996948242,Thu Jun 18 2026 14:25:35 GMT-0500 (Central Daylight Time),392754.89999997616,A,grass,I,s,135,2,1432.5999999642372,391322.3000000119,8106,WL,B,12.0
3,20.627000093460083,learn,39372.99990653992,Thu Jun 18 2026 14:25:35 GMT-0500 (Central Daylight Time),393888.5,A,grassenter,I,enter,1122,2,2566.199999988079,391322.3000000119,8106,WL,B,12.0
3,25.54100012779236,learn,34458.99987220764,Thu Jun 18 2026 14:25:35 GMT-0500 (Central Daylight Time),398803.1999999881,A,d,I,d,4908,2,4914.399999976158,393888.8000000119,8106,WL,B,13.0
3,25.758000135421753,learn,34241.99986457825,Thu Jun 18 2026 14:25:35 GMT-0500 (Central Daylight Time),399019.6999999881,A,do,I,o,201,2,5130.899999976158,393888.8000000119,8106,WL,B,13.0
3,25.875,learn,34125.0,Thu Jun 18 2026 14:25:35 GMT-0500 (Central Daylight Time),399136.5,A,doo,I,o,106,2,5247.699999988079,393888.8000000119,8106,WL,B,13.0
3,26.04100012779236,learn,33958.99987220764,Thu Jun 18 2026 14:25:35 GMT-0500 (Central Daylight Time),399303.1999999881,A,door,I,r,148,2,5414.399999976158,393888.8000000119,8106,WL,B,13.0
3,26.19100022315979,learn,33808.99977684021,Thu Jun 18 2026 14:25:35 GMT-0500 (Central Daylight Time),399453.3000000119,A,doorenter,I,enter,142,2,5564.5,393888.8000000119,8106,WL,B,13.0
3,26.35800004005432,learn,33641.99995994568,Thu Jun 18 2026 14:25:35 GMT-0500 (Central Daylight Time),399619.39999997616,A,w,I,w,151,2,165.89999997615814,399453.5,8106,WL,B,14.0
3,26.491000175476074,learn,33508.999824523926,Thu Jun 18 2026 14:25:35 GMT-0500 (Central Daylight Time),399753.10000002384,A,wi,I,i,121,2,299.60000002384186,399453.5,8106,WL,B,14.0
3,26.641000032424927,learn,33358.99996757507,Thu Jun 18 2026 14:25:35 GMT-0500 (Central Daylight Time),399902.89999997616,A,win,I,n,132,2,449.39999997615814,399453.5,8106,WL,B,14.0
3,26.725000143051147,learn,33274.99985694885,Thu Jun 18 2026 14:25:35 GMT-0500 (Central Daylight Time),399987.1999999881,A,wind,I,d,78,2,533.6999999880791,399453.5,8106,WL,B,14.0
3,27.241000175476074,learn,32758.999824523926,Thu Jun 18 2026 14:25:35 GMT-0500 (Central Daylight Time),400502.8000000119,A,windo,I,o,498,2,1049.300000011921,399453.5,8106,WL,B,14.0
3,27.35800004005432,learn,32641.99995994568,Thu Jun 18 2026 14:25:35 GMT-0500 (Central Daylight Time),400619.60000002384,A,window,I,w,103,2,1166.1000000238419,399453.5,8106,WL,B,14.0
3,27.508000135421753,learn,32491.999864578247,Thu Jun 18 2026 14:25:35 GMT-0500 (Central Daylight Time),400769.39999997616,A,windowenter,I,enter,145,2,1315.8999999761581,399453.5,8106,WL,B,14.0
3,29.10700011253357,learn,30892.99988746643,Thu Jun 18 2026 14:25:35 GMT-0500 (Central Daylight Time),402368.8000000119,A,enter,I,enter,1587,2,1599.1000000238419,400769.6999999881,8106,WL,B,15.0
4,0.6489999294281006,learn,59351.0000705719,Thu Jun 18 2026 14:25:35 GMT-0500 (Central Daylight Time),467165.10000002384,A,f,I,f,633,2,649.5,466515.60000002384,8106,WL,B,1.0
4,0.7829999923706055,learn,59217.000007629395,Thu Jun 18 2026 14:25:35 GMT-0500 (Central Daylight Time),467298.5,A,fi,I,i,126,2,782.8999999761581,466515.60000002384,8106,WL,B,1.0
4,0.9659998416900635,learn,59034.00015830994,Thu Jun 18 2026 14:25:35 GMT-0500 (Central Daylight Time),467482.0,A,fir,I,r,171,2,966.3999999761581,466515.60000002384,8106,WL,B,1.0
4,1.0820000171661377,learn,58917.99998283386,Thu Jun 18 2026 14:25:35 GMT-0500 (Central Daylight Time),467598.3000000119,A,fire,I,e,98,2,1082.699999988079,466515.60000002384,8106,WL,B,1.0
4,1.2159998416900635,learn,58784.00015830994,Thu Jun 18 2026 14:25:35 GMT-0500 (Central Daylight Time),467731.60000002384,A,fireenter,I,enter,118,2,1216.0,466515.60000002384,8106,WL,B,1.0
4,1.4829998016357422,learn,58517.00019836426,Thu Jun 18 2026 14:25:35 GMT-0500 (Central Daylight Time),467998.3000000119,A,c,I,c,257,2,266.4000000357628,467731.89999997616,8106,WL,B,2.0
4,1.681999921798706,learn,58318.000078201294,Thu Jun 18 2026 14:25:35 GMT-0500 (Central Daylight Time),468198.39999997616,A,cl,I,l,191,2,466.5,467731.89999997616,8106,WL,B,2.0
4,1.9489998817443848,learn,58051.000118255615,Thu Jun 18 2026 14:25:35 GMT-0500 (Central Daylight Time),468464.89999997616,A,clo,I,o,245,2,733.0,467731.89999997616,8106,WL,B,2.0
4,2.115000009536743,learn,57884.99999046326,Thu Jun 18 2026 14:25:35 GMT-0500 (Central Daylight Time),468631.1999999881,A,cloc,I,c,147,2,899.3000000119209,467731.89999997616,8106,WL,B,2.0
4,2.2990000247955322,learn,57700.99997520447,Thu Jun 18 2026 14:25:35 GMT-0500 (Central Daylight Time),468814.8000000119,A,clock,I,k,174,2,1082.9000000357628,467731.89999997616,8106,WL,B,2.0
4,2.5989999771118164,learn,57401.00002288818,Thu Jun 18 2026 14:25:35 GMT-0500 (Central Daylight Time),469114.8000000119,A,clockenter,I,enter,286,2,1382.9000000357628,467731.89999997616,8106,WL,B,2.0
4,2.865000009536743,learn,57134.99999046326,Thu Jun 18 2026 14:25:35 GMT-0500 (Central Daylight Time),469381.3000000119,A,s,I,s,250,2,266.19999998807907,469115.10000002384,8106,WL,B,3.0
4,2.9819998741149902,learn,57018.00012588501,Thu Jun 18 2026 14:25:35 GMT-0500 (Central Daylight Time),469497.60000002384,A,sk,I,k,111,2,382.5,469115.10000002384,8106,WL,B,3.0
4,3.1989998817443848,learn,56801.000118255615,Thu Jun 18 2026 14:25:35 GMT-0500 (Central Daylight Time),469714.5,A,ski,I,i,196,2,599.3999999761581,469115.10000002384,8106,WL,B,3.0
4,3.381999969482422,learn,56618.00003051758,Thu Jun 18 2026 14:25:35 GMT-0500 (Central Daylight Time),469897.8000000119,A,skin,I,n,170,2,782.6999999880791,469115.10000002384,8106,WL,B,3.0
4,3.6480000019073486,learn,56351.99999809265,Thu Jun 18 2026 14:25:35 GMT-0500 (Central Daylight Time),470164.0,A,skinenter,I,enter,259,2,1048.8999999761581,469115.10000002384,8106,WL,B,3.0
4,4.447999954223633,learn,55552.00004577637,Thu Jun 18 2026 14:25:35 GMT-0500 (Central Daylight Time),470963.8000000119,A,p,I,p,784,2,799.5,470164.3000000119,8106,WL,B,4.0
4,4.865000009536743,learn,55134.99999046326,Thu Jun 18 2026 14:25:35 GMT-0500 (Central Daylight Time),471380.39999997616,A,pu,I,u,409,2,1216.0999999642372,470164.3000000119,8106,WL,B,4.0
4,5.247999906539917,learn,54752.00009346008,Thu Jun 18 2026 14:25:35 GMT-0500 (Central Daylight Time),471763.89999997616,A,pup,I,p,368,2,1599.5999999642372,470164.3000000119,8106,WL,B,4.0
4,5.5309998989105225,learn,54469.00010108948,Thu Jun 18 2026 14:25:35 GMT-0500 (Central Daylight Time),472047.0,A,pupi,I,i,274,2,1882.699999988079,470164.3000000119,8106,WL,B,4.0
4,5.880999803543091,learn,54119.00019645691,Thu Jun 18 2026 14:25:35 GMT-0500 (Central Daylight Time),472397.10000002384,A,pupil,I,l,334,2,2232.800000011921,470164.3000000119,8106,WL,B,4.0
4,6.247999906539917,learn,53752.00009346008,Thu Jun 18 2026 14:25:35 GMT-0500 (Central Daylight Time),472763.39999997616,A,pupilenter,I,enter,360,2,2599.099999964237,470164.3000000119,8106,WL,B,4.0
4,6.947999954223633,learn,53052.00004577637,Thu Jun 18 2026 14:25:35 GMT-0500 (Central Daylight Time),473463.39999997616,A,a,I,a,682,2,699.5999999642372,472763.8000000119,8106,WL,B,5.0
4,7.130999803543091,learn,52869.00019645691,Thu Jun 18 2026 14:25:35 GMT-0500 (Central Daylight Time),473646.39999997616,A,ar,I,r,165,2,882.5999999642372,472763.8000000119,8106,WL,B,5.0
4,7.396999835968018,learn,52603.00016403198,Thu Jun 18 2026 14:25:35 GMT-0500 (Central Daylight Time),473913.10000002384,A,arm,I,m,246,2,1149.300000011921,472763.8000000119,8106,WL,B,5.0
4,8.063999891281128,learn,51936.00010871887,Thu Jun 18 2026 14:25:35 GMT-0500 (Central Daylight Time),474579.39999997616,A,armenter,I,enter,660,2,1815.5999999642372,472763.8000000119,8106,WL,B,5.0
4,8.579999923706055,learn,51420.000076293945,Thu Jun 18 2026 14:25:35 GMT-0500 (Central Daylight Time),475096.1999999881,A,w,I,w,496,2,516.3999999761581,474579.8000000119,8106,WL,B,6.0
4,8.69700002670288,learn,51302.99997329712,Thu Jun 18 2026 14:25:35 GMT-0500 (Central Daylight Time),475212.5,A,wi,I,i,108,2,632.6999999880791,474579.8000000119,8106,WL,B,6.0
4,8.863999843597412,learn,51136.00015640259,Thu Jun 18 2026 14:25:35 GMT-0500 (Central Daylight Time),475379.5,A,wif,I,f,152,2,799.6999999880791,474579.8000000119,8106,WL,B,6.0
4,9.02999997138977,learn,50970.00002861023,Thu Jun 18 2026 14:25:35 GMT-0500 (Central Daylight Time),475546.0,A,wife,I,e,154,2,966.1999999880791,474579.8000000119,8106,WL,B,6.0
4,9.162999868392944,learn,50837.000131607056,Thu Jun 18 2026 14:25:35 GMT-0500 (Central Daylight Time),475679.1999999881,A,wifeenter,I,enter,115,2,1099.3999999761581,474579.8000000119,8106,WL,B,6.0
4,9.329999923706055,learn,50670.000076293945,Thu Jun 18 2026 14:25:35 GMT-0500 (Central Daylight Time),475845.6999999881,A,w,I,w,149,2,166.0,475679.6999999881,8106,WL,B,7.0
4,9.462999820709229,learn,50537.00017929077,Thu Jun 18 2026 14:25:35 GMT-0500 (Central Daylight Time),475979.10000002384,A,wi,I,i,120,2,299.4000000357628,475679.6999999881,8106,WL,B,7.0
4,9.52999997138977,learn,50470.00002861023,Thu Jun 18 2026 14:25:35 GMT-0500 (Central Daylight Time),476045.60000002384,A,win,I,n,50,2,365.9000000357628,475679.6999999881,8106,WL,B,7.0
4,9.679999828338623,learn,50320.00017166138,Thu Jun 18 2026 14:25:35 GMT-0500 (Central Daylight Time),476195.6999999881,A,wind,I,d,144,2,516.0,475679.6999999881,8106,WL,B,7.0
4,9.86299991607666,learn,50137.00008392334,Thu Jun 18 2026 14:25:35 GMT-0500 (Central Daylight Time),476378.6999999881,A,windo,I,o,178,2,699.0,475679.6999999881,8106,WL,B,7.0
4,9.996999979019165,learn,50003.000020980835,Thu Jun 18 2026 14:25:35 GMT-0500 (Central Daylight Time),476512.39999997616,A,window,I,w,123,2,832.6999999880791,475679.6999999881,8106,WL,B,7.0
4,10.662999868392944,learn,49337.000131607056,Thu Jun 18 2026 14:25:35 GMT-0500 (Central Daylight Time),477178.5,A,windowenter,I,enter,661,2,1498.800000011921,475679.6999999881,8106,WL,B,7.0
4,10.895999908447266,learn,49104.000091552734,Thu Jun 18 2026 14:25:35 GMT-0500 (Central Daylight Time),477412.0,A,d,I,d,219,2,233.19999998807907,477178.8000000119,8106,WL,B,8.0
4,11.145999908447266,learn,48854.000091552734,Thu Jun 18 2026 14:25:35 GMT-0500 (Central Daylight Time),477661.89999997616,A,do,I,o,233,2,483.0999999642372,477178.8000000119,8106,WL,B,8.0
4,11.29699993133545,learn,48703.00006866455,Thu Jun 18 2026 14:25:35 GMT-0500 (Central Daylight Time),477813.0,A,doo,I,o,142,2,634.1999999880791,477178.8000000119,8106,WL,B,8.0
4,11.428999900817871,learn,48571.00009918213,Thu Jun 18 2026 14:25:35 GMT-0500 (Central Daylight Time),477945.3000000119,A,door,I,r,127,2,766.5,477178.8000000119,8106,WL,B,8.0
4,12.796000003814697,learn,47203.9999961853,Thu Jun 18 2026 14:25:35 GMT-0500 (Central Daylight Time),479311.39999997616,A,doorenter,I,enter,1356,2,2132.599999964237,477178.8000000119,8106,WL,B,8.0
4,13.294999837875366,learn,46705.000162124634,Thu Jun 18 2026 14:25:35 GMT-0500 (Central Daylight Time),479811.10000002384,A,c,I,c,486,2,499.30000001192093,479311.8000000119,8106,WL,B,9.0
4,13.44599986076355,learn,46554.00013923645,Thu Jun 18 2026 14:25:35 GMT-0500 (Central Daylight Time),479961.39999997616,A,ca,I,a,129,2,649.5999999642372,479311.8000000119,8106,WL,B,9.0
4,13.84500002861023,learn,46154.99997138977,Thu Jun 18 2026 14:25:35 GMT-0500 (Central Daylight Time),480360.89999997616,A,cab,I,b,379,2,1049.0999999642372,479311.8000000119,8106,WL,B,9.0
4,13.961999893188477,learn,46038.00010681152,Thu Jun 18 2026 14:25:35 GMT-0500 (Central Daylight Time),480477.89999997616,A,cabi,I,i,99,2,1166.0999999642372,479311.8000000119,8106,WL,B,9.0
4,14.141999959945679,learn,45858.00004005432,Thu Jun 18 2026 14:25:35 GMT-0500 (Central Daylight Time),480657.8000000119,A,cabin,I,n,127,2,1346.0,479311.8000000119,8106,WL,B,9.0
4,14.444999933242798,learn,45555.0000667572,Thu Jun 18 2026 14:25:35 GMT-0500 (Central Daylight Time),480960.5,A,cabinenter,I,enter,283,2,1648.699999988079,479311.8000000119,8106,WL,B,9.0
4,15.595999956130981,learn,44404.00004386902,Thu Jun 18 2026 14:25:35 GMT-0500 (Central Daylight Time),482111.6999999881,A,s,I,s,1132,2,1151.0,480960.6999999881,8106,WL,B,10.0
4,15.744999885559082,learn,44255.00011444092,Thu Jun 18 2026 14:25:35 GMT-0500 (Central Daylight Time),482260.6999999881,A,st,I,t,132,2,1300.0,480960.6999999881,8106,WL,B,10.0
4,15.944000005722046,learn,44055.999994277954,Thu Jun 18 2026 14:25:35 GMT-0500 (Central Daylight Time),482460.10000002384,A,str,I,r,184,2,1499.4000000357628,480960.6999999881,8106,WL,B,10.0
4,16.110999822616577,learn,43889.00017738342,Thu Jun 18 2026 14:25:35 GMT-0500 (Central Daylight Time),482627.1999999881,A,stre,I,e,153,2,1666.5,480960.6999999881,8106,WL,B,10.0
4,16.244999885559082,learn,43755.00011444092,Thu Jun 18 2026 14:25:35 GMT-0500 (Central Daylight Time),482760.39999997616,A,stree,I,e,113,2,1799.699999988079,480960.6999999881,8106,WL,B,10.0
4,16.378000020980835,learn,43621.999979019165,Thu Jun 18 2026 14:25:35 GMT-0500 (Central Daylight Time),482893.8000000119,A,street,I,t,116,2,1933.1000000238419,480960.6999999881,8106,WL,B,10.0
4,16.527999877929688,learn,43472.00012207031,Thu Jun 18 2026 14:25:35 GMT-0500 (Central Daylight Time),483043.5,A,streetenter,I,enter,144,2,2082.800000011921,480960.6999999881,8106,WL,B,10.0
4,16.694000005722046,learn,43305.999994277954,Thu Jun 18 2026 14:25:35 GMT-0500 (Central Daylight Time),483210.10000002384,A,g,I,g,146,2,166.30000001192093,483043.8000000119,8106,WL,B,11.0
4,16.926999807357788,learn,43073.00019264221,Thu Jun 18 2026 14:25:35 GMT-0500 (Central Daylight Time),483443.3000000119,A,gr,I,r,226,2,399.5,483043.8000000119,8106,WL,B,11.0
4,17.110999822616577,learn,42889.00017738342,Thu Jun 18 2026 14:25:35 GMT-0500 (Central Daylight Time),483626.89999997616,A,gra,I,a,170,2,583.0999999642372,483043.8000000119,8106,WL,B,11.0
4,17.310999870300293,learn,42689.00012969971,Thu Jun 18 2026 14:25:35 GMT-0500 (Central Daylight Time),483826.39999997616,A,gras,I,s,194,2,782.5999999642372,483043.8000000119,8106,WL,B,11.0
4,17.477999925613403,learn,42522.0000743866,Thu Jun 18 2026 14:25:35 GMT-0500 (Central Daylight Time),483993.39999997616,A,grass,I,s,154,2,949.5999999642372,483043.8000000119,8106,WL,B,11.0
4,19.0939998626709,learn,40906.0001373291,Thu Jun 18 2026 14:25:35 GMT-0500 (Central Daylight Time),485609.5,A,grassenter,I,enter,1596,2,2565.699999988079,483043.8000000119,8106,WL,B,11.0
4,20.97599983215332,learn,39024.00016784668,Thu Jun 18 2026 14:25:35 GMT-0500 (Central Daylight Time),487492.0,A,c,I,c,1868,2,1882.199999988079,485609.8000000119,8106,WL,B,12.0
4,21.125999927520752,learn,38874.00007247925,Thu Jun 18 2026 14:25:35 GMT-0500 (Central Daylight Time),487642.10000002384,A,cl,I,l,136,2,2032.300000011921,485609.8000000119,8106,WL,B,12.0
4,21.375999927520752,learn,38624.00007247925,Thu Jun 18 2026 14:25:35 GMT-0500 (Central Daylight Time),487891.89999997616,A,clo,I,o,235,2,2282.099999964237,485609.8000000119,8106,WL,B,12.0
4,21.509999990463257,learn,38490.00000953674,Thu Jun 18 2026 14:25:35 GMT-0500 (Central Daylight Time),488025.39999997616,A,cloc,I,c,120,2,2415.599999964237,485609.8000000119,8106,WL,B,12.0
4,21.608999967575073,learn,38391.00003242493,Thu Jun 18 2026 14:25:35 GMT-0500 (Central Daylight Time),488125.10000002384,A,clock,I,k,91,2,2515.300000011921,485609.8000000119,8106,WL,B,12.0
4,21.792999982833862,learn,38207.00001716614,Thu Jun 18 2026 14:25:35 GMT-0500 (Central Daylight Time),488308.60000002384,A,clockenter,I,enter,176,2,2698.800000011921,485609.8000000119,8106,WL,B,12.0
4,28.391000032424927,learn,31608.999967575073,Thu Jun 18 2026 14:25:35 GMT-0500 (Central Daylight Time),494907.10000002384,A,s,I,s,6584,2,6598.200000047684,488308.89999997616,8106,WL,B,13.0
4,28.60699987411499,learn,31393.00012588501,Thu Jun 18 2026 14:25:35 GMT-0500 (Central Daylight Time),495123.10000002384,A,st,I,t,201,2,6814.200000047684,488308.89999997616,8106,WL,B,13.0
4,28.842000007629395,learn,31157.999992370605,Thu Jun 18 2026 14:25:35 GMT-0500 (Central Daylight Time),495357.60000002384,A,sta,I,a,217,2,7048.700000047684,488308.89999997616,8106,WL,B,13.0
4,29.056999921798706,learn,30943.000078201294,Thu Jun 18 2026 14:25:35 GMT-0500 (Central Daylight Time),495573.0,A,star,I,r,207,2,7264.100000023842,488308.89999997616,8106,WL,B,13.0
4,29.240000009536743,learn,30759.999990463257,Thu Jun 18 2026 14:25:35 GMT-0500 (Central Daylight Time),495756.3000000119,A,starenter,I,enter,176,2,7447.400000035763,488308.89999997616,8106,WL,B,13.0
4,36.50499987602234,learn,23495.00012397766,Thu Jun 18 2026 14:25:35 GMT-0500 (Central Daylight Time),503020.6999999881,A,s,I,s,7249,2,7264.099999964237,495756.60000002384,8106,WL,B,14.0
4,36.687999963760376,learn,23312.000036239624,Thu Jun 18 2026 14:25:35 GMT-0500 (Central Daylight Time),503203.8000000119,A,st,I,t,176,2,7447.199999988079,495756.60000002384,8106,WL,B,14.0
4,36.937999963760376,learn,23062.000036239624,Thu Jun 18 2026 14:25:35 GMT-0500 (Central Daylight Time),503453.89999997616,A,str,I,r,232,2,7697.299999952316,495756.60000002384,8106,WL,B,14.0
4,37.1710000038147,learn,22828.999996185303,Thu Jun 18 2026 14:25:35 GMT-0500 (Central Daylight Time),503687.10000002384,A,stre,I,e,215,2,7930.5,495756.60000002384,8106,WL,B,14.0
4,37.33799982070923,learn,22662.00017929077,Thu Jun 18 2026 14:25:35 GMT-0500 (Central Daylight Time),503853.6999999881,A,stree,I,e,149,2,8097.099999964237,495756.60000002384,8106,WL,B,14.0
4,37.55499982833862,learn,22445.000171661377,Thu Jun 18 2026 14:25:35 GMT-0500 (Central Daylight Time),504071.10000002384,A,street,I,t,199,2,8314.5,495756.60000002384,8106,WL,B,14.0
4,37.7039999961853,learn,22296.000003814697,Thu Jun 18 2026 14:25:35 GMT-0500 (Central Daylight Time),504220.3000000119,A,streetenter,I,enter,142,2,8463.699999988079,495756.60000002384,8106,WL,B,14.0
4,38.270999908447266,learn,21729.000091552734,Thu Jun 18 2026 14:25:35 GMT-0500 (Central Daylight Time),504786.60000002384,A,enter,I,enter,414,2,566.0,504220.60000002384,8106,WL,B,15.0
5,0.6990001201629639,learn,60000.0,Thu Jun 18 2026 14:25:35 GMT-0500 (Central Daylight Time),571349.3999999762,A,s,I,s,685,2,699.5999999642372,570649.8000000119,8106,WL,B,1.0
5,0.8660001754760742,learn,60000.0,Thu Jun 18 2026 14:25:35 GMT-0500 (Central Daylight Time),571515.8000000119,A,st,I,t,159,2,866.0,570649.8000000119,8106,WL,B,1.0
5,1.0989999771118164,learn,60000.0,Thu Jun 18 2026 14:25:35 GMT-0500 (Central Daylight Time),571749.1000000238,A,str,I,r,226,2,1099.300000011921,570649.8000000119,8106,WL,B,1.0
5,1.3660001754760742,learn,60000.0,Thu Jun 18 2026 14:25:35 GMT-0500 (Central Daylight Time),572015.6999999881,A,stre,I,e,247,2,1365.8999999761581,570649.8000000119,8106,WL,B,1.0
5,1.499000072479248,learn,60000.0,Thu Jun 18 2026 14:25:35 GMT-0500 (Central Daylight Time),572149.0,A,stree,I,e,126,2,1499.199999988079,570649.8000000119,8106,WL,B,1.0
5,1.6990001201629639,learn,60000.0,Thu Jun 18 2026 14:25:35 GMT-0500 (Central Daylight Time),572348.8999999762,A,street,I,t,192,2,1699.0999999642372,570649.8000000119,8106,WL,B,1.0
5,1.9160001277923584,learn,60000.0,Thu Jun 18 2026 14:25:35 GMT-0500 (Central Daylight Time),572565.6999999881,A,streetenter,I,enter,200,2,1915.8999999761581,570649.8000000119,8106,WL,B,1.0
5,2.0989999771118164,learn,60000.0,Thu Jun 18 2026 14:25:35 GMT-0500 (Central Daylight Time),572748.6999999881,A,g,I,g,175,2,182.69999998807907,572566.0,8106,WL,B,2.0
5,2.3489999771118164,learn,60000.0,Thu Jun 18 2026 14:25:35 GMT-0500 (Central Daylight Time),572998.6999999881,A,gr,I,r,232,2,432.69999998807907,572566.0,8106,WL,B,2.0
5,2.5320000648498535,learn,60000.0,Thu Jun 18 2026 14:25:35 GMT-0500 (Central Daylight Time),573182.1999999881,A,gra,I,a,174,2,616.1999999880791,572566.0,8106,WL,B,2.0
5,2.765000104904175,learn,60000.0,Thu Jun 18 2026 14:25:35 GMT-0500 (Central Daylight Time),573415.1999999881,A,gras,I,s,223,2,849.1999999880791,572566.0,8106,WL,B,2.0
5,2.9150002002716064,learn,60000.0,Thu Jun 18 2026 14:25:35 GMT-0500 (Central Daylight Time),573565.3000000119,A,grass,I,s,142,2,999.3000000119209,572566.0,8106,WL,B,2.0
5,3.0989999771118164,learn,60000.0,Thu Jun 18 2026 14:25:35 GMT-0500 (Central Daylight Time),573748.5,A,grassenter,I,enter,176,2,1182.5,572566.0,8106,WL,B,2.0
5,3.382000207901001,learn,60000.0,Thu Jun 18 2026 14:25:35 GMT-0500 (Central Daylight Time),574031.5,A,d,I,d,273,2,282.69999998807907,573748.8000000119,8106,WL,B,3.0
5,3.7820000648498535,learn,60000.0,Thu Jun 18 2026 14:25:35 GMT-0500 (Central Daylight Time),574431.5,A,do,I,o,382,2,682.6999999880791,573748.8000000119,8106,WL,B,3.0
5,3.9150002002716064,learn,60000.0,Thu Jun 18 2026 14:25:35 GMT-0500 (Central Daylight Time),574565.1999999881,A,doo,I,o,118,2,816.3999999761581,573748.8000000119,8106,WL,B,3.0
5,4.065000057220459,learn,60000.0,Thu Jun 18 2026 14:25:35 GMT-0500 (Central Daylight Time),574714.8000000119,A,door,I,r,143,2,966.0,573748.8000000119,8106,WL,B,3.0
5,4.232000112533569,learn,60000.0,Thu Jun 18 2026 14:25:35 GMT-0500 (Central Daylight Time),574881.8999999762,A,doorenter,I,enter,154,2,1133.0999999642372,573748.8000000119,8106,WL,B,3.0
5,4.476999998092651,learn,60000.0,Thu Jun 18 2026 14:25:35 GMT-0500 (Central Daylight Time),575127.1000000238,A,w,I,w,240,2,244.9000000357628,574882.1999999881,8106,WL,B,4.0
5,4.625,learn,60000.0,Thu Jun 18 2026 14:25:35 GMT-0500 (Central Daylight Time),575275.1000000238,A,wi,I,i,142,2,392.9000000357628,574882.1999999881,8106,WL,B,4.0
5,4.715000152587891,learn,60000.0,Thu Jun 18 2026 14:25:35 GMT-0500 (Central Daylight Time),575364.5,A,win,I,n,74,2,482.30000001192093,574882.1999999881,8106,WL,B,4.0
5,4.898000001907349,learn,60000.0,Thu Jun 18 2026 14:25:35 GMT-0500 (Central Daylight Time),575547.8999999762,A,wind,I,d,169,2,665.6999999880791,574882.1999999881,8106,WL,B,4.0
5,5.04800009727478,learn,60000.0,Thu Jun 18 2026 14:25:35 GMT-0500 (Central Daylight Time),575697.8999999762,A,windo,I,o,146,2,815.6999999880791,574882.1999999881,8106,WL,B,4.0
5,5.215000152587891,learn,60000.0,Thu Jun 18 2026 14:25:35 GMT-0500 (Central Daylight Time),575864.6000000238,A,window,I,w,147,2,982.4000000357628,574882.1999999881,8106,WL,B,4.0
5,5.96399998664856,learn,60000.0,Thu Jun 18 2026 14:25:35 GMT-0500 (Central Daylight Time),576614.3999999762,A,windowenter,I,enter,741,2,1732.199999988079,574882.1999999881,8106,WL,B,4.0
5,7.996999979019165,learn,60000.0,Thu Jun 18 2026 14:25:35 GMT-0500 (Central Daylight Time),578647.0,A,c,I,c,2023,2,2032.3999999761581,576614.6000000238,8106,WL,B,5.0
5,8.147000074386597,learn,60000.0,Thu Jun 18 2026 14:25:35 GMT-0500 (Central Daylight Time),578796.8000000119,A,ca,I,a,141,2,2182.199999988079,576614.6000000238,8106,WL,B,5.0
5,8.36300015449524,learn,60000.0,Thu Jun 18 2026 14:25:35 GMT-0500 (Central Daylight Time),579013.3000000119,A,cab,I,b,207,2,2398.699999988079,576614.6000000238,8106,WL,B,5.0
5,8.547000169754028,learn,60000.0,Thu Jun 18 2026 14:25:35 GMT-0500 (Central Daylight Time),579196.8999999762,A,cabi,I,i,176,2,2582.2999999523163,576614.6000000238,8106,WL,B,5.0
5,8.680000066757202,learn,60000.0,Thu Jun 18 2026 14:25:35 GMT-0500 (Central Daylight Time),579329.8999999762,A,cabin,I,n,121,2,2715.2999999523163,576614.6000000238,8106,WL,B,5.0
5,8.996999979019165,learn,60000.0,Thu Jun 18 2026 14:25:35 GMT-0500 (Central Daylight Time),579646.8000000119,A,cabinenter,I,enter,299,2,3032.199999988079,576614.6000000238,8106,WL,B,5.0
5,9.180000066757202,learn,60000.0,Thu Jun 18 2026 14:25:35 GMT-0500 (Central Daylight Time),579830.0,A,s,I,s,175,2,183.0,579647.0,8106,WL,B,6.0
5,9.347000122070312,learn,60000.0,Thu Jun 18 2026 14:25:35 GMT-0500 (Central Daylight Time),579996.6999999881,A,st,I,t,160,2,349.69999998807907,579647.0,8106,WL,B,6.0
5,9.546000003814697,learn,60000.0,Thu Jun 18 2026 14:25:35 GMT-0500 (Central Daylight Time),580196.3000000119,A,sta,I,a,184,2,549.3000000119209,579647.0,8106,WL,B,6.0
5,9.746000051498413,learn,60000.0,Thu Jun 18 2026 14:25:35 GMT-0500 (Central Daylight Time),580396.3000000119,A,star,I,r,192,2,749.3000000119209,579647.0,8106,WL,B,6.0
5,9.980000019073486,learn,60000.0,Thu Jun 18 2026 14:25:35 GMT-0500 (Central Daylight Time),580629.5,A,start,I,t,216,2,982.5,579647.0,8106,WL,B,6.0
5,10.896000146865845,learn,60000.0,Thu Jun 18 2026 14:25:35 GMT-0500 (Central Daylight Time),581546.3000000119,A,star,I,backspace,895,2,1899.300000011921,579647.0,8106,WL,B,6.0
5,11.17900013923645,learn,60000.0,Thu Jun 18 2026 14:25:35 GMT-0500 (Central Daylight Time),581829.1999999881,A,starenter,I,enter,275,2,2182.199999988079,579647.0,8106,WL,B,6.0
5,11.59600019454956,learn,60000.0,Thu Jun 18 2026 14:25:35 GMT-0500 (Central Daylight Time),582245.8000000119,A,l,I,l,400,2,416.19999998807907,581829.6000000238,8106,WL,B,7.0
5,11.746000051498413,learn,60000.0,Thu Jun 18 2026 14:25:35 GMT-0500 (Central Daylight Time),582395.8999999762,A,la,I,a,143,2,566.2999999523163,581829.6000000238,8106,WL,B,7.0
5,11.896000146865845,learn,60000.0,Thu Jun 18 2026 14:25:35 GMT-0500 (Central Daylight Time),582545.6000000238,A,lak,I,k,144,2,716.0,581829.6000000238,8106,WL,B,7.0
5,12.062000036239624,learn,60000.0,Thu Jun 18 2026 14:25:35 GMT-0500 (Central Daylight Time),582712.3999999762,A,lake,I,e,155,2,882.7999999523163,581829.6000000238,8106,WL,B,7.0
5,13.144999980926514,learn,60000.0,Thu Jun 18 2026 14:25:35 GMT-0500 (Central Daylight Time),583795.3000000119,A,lakeenter,I,enter,1069,2,1965.699999988079,581829.6000000238,8106,WL,B,7.0
5,16.128000020980835,learn,60000.0,Thu Jun 18 2026 14:25:35 GMT-0500 (Central Daylight Time),586778.0,A,a,I,a,2962,2,2982.300000011921,583795.6999999881,8106,WL,B,8.0
5,16.278000116348267,learn,60000.0,Thu Jun 18 2026 14:25:35 GMT-0500 (Central Daylight Time),586927.8999999762,A,ar,I,r,131,2,3132.199999988079,583795.6999999881,8106,WL,B,8.0
5,16.49400019645691,learn,60000.0,Thu Jun 18 2026 14:25:35 GMT-0500 (Central Daylight Time),587144.1999999881,A,arm,I,m,196,2,3348.5,583795.6999999881,8106,WL,B,8.0
5,18.277000188827515,learn,60000.0,Thu Jun 18 2026 14:25:35 GMT-0500 (Central Daylight Time),588927.1000000238,A,armenter,I,enter,1764,2,5131.400000035763,583795.6999999881,8106,WL,B,8.0
5,18.844000101089478,learn,60000.0,Thu Jun 18 2026 14:25:35 GMT-0500 (Central Daylight Time),589493.6999999881,A,p,I,p,550,2,566.3000000119209,588927.3999999762,8106,WL,B,9.0
5,19.09500002861023,learn,60000.0,Thu Jun 18 2026 14:25:35 GMT-0500 (Central Daylight Time),589744.5,A,pu,I,u,232,2,817.1000000238419,588927.3999999762,8106,WL,B,9.0
5,19.24400019645691,learn,60000.0,Thu Jun 18 2026 14:25:35 GMT-0500 (Central Daylight Time),589893.6999999881,A,pup,I,p,133,2,966.3000000119209,588927.3999999762,8106,WL,B,9.0
5,19.66100001335144,learn,60000.0,Thu Jun 18 2026 14:25:35 GMT-0500 (Central Daylight Time),590311.1999999881,A,pupi,I,i,408,2,1383.800000011921,588927.3999999762,8106,WL,B,9.0
5,19.943000078201294,learn,60000.0,Thu Jun 18 2026 14:25:35 GMT-0500 (Central Daylight Time),590593.3999999762,A,pupil,I,l,261,2,1666.0,588927.3999999762,8106,WL,B,9.0
5,20.276000022888184,learn,60000.0,Thu Jun 18 2026 14:25:35 GMT-0500 (Central Daylight Time),590926.3999999762,A,pupilenter,I,enter,324,2,1999.0,588927.3999999762,8106,WL,B,9.0
5,20.99400019645691,learn,60000.0,Thu Jun 18 2026 14:25:35 GMT-0500 (Central Daylight Time),591643.8999999762,A,s,I,s,710,2,717.1999999880791,590926.6999999881,8106,WL,B,10.0
5,21.16000008583069,learn,60000.0,Thu Jun 18 2026 14:25:35 GMT-0500 (Central Daylight Time),591809.6000000238,A,sk,I,k,144,2,882.9000000357628,590926.6999999881,8106,WL,B,10.0
5,21.360000133514404,learn,60000.0,Thu Jun 18 2026 14:25:35 GMT-0500 (Central Daylight Time),592009.5,A,ski,I,i,180,2,1082.800000011921,590926.6999999881,8106,WL,B,10.0
5,21.493000030517578,learn,60000.0,Thu Jun 18 2026 14:25:35 GMT-0500 (Central Daylight Time),592143.0,A,skin,I,n,116,2,1216.300000011921,590926.6999999881,8106,WL,B,10.0
5,21.859000205993652,learn,60000.0,Thu Jun 18 2026 14:25:35 GMT-0500 (Central Daylight Time),592509.1999999881,A,skinenter,I,enter,351,2,1582.5,590926.6999999881,8106,WL,B,10.0
5,22.659000158309937,learn,60000.0,Thu Jun 18 2026 14:25:35 GMT-0500 (Central Daylight Time),593309.0,A,c,I,c,791,2,799.3000000119209,592509.6999999881,8106,WL,B,11.0
5,22.80900001525879,learn,60000.0,Thu Jun 18 2026 14:25:35 GMT-0500 (Central Daylight Time),593459.0,A,cl,I,l,136,2,949.3000000119209,592509.6999999881,8106,WL,B,11.0
5,22.993000030517578,learn,60000.0,Thu Jun 18 2026 14:25:35 GMT-0500 (Central Daylight Time),593642.6999999881,A,clo,I,o,170,2,1133.0,592509.6999999881,8106,WL,B,11.0
5,23.125,learn,60000.0,Thu Jun 18 2026 14:25:35 GMT-0500 (Central Daylight Time),593775.3999999762,A,cloc,I,c,114,2,1265.699999988079,592509.6999999881,8106,WL,B,11.0
5,23.20900011062622,learn,60000.0,Thu Jun 18 2026 14:25:35 GMT-0500 (Central Daylight Time),593858.6000000238,A,clock,I,k,78,2,1348.9000000357628,592509.6999999881,8106,WL,B,11.0
5,23.426000118255615,learn,60000.0,Thu Jun 18 2026 14:25:35 GMT-0500 (Central Daylight Time),594075.6000000238,A,clockenter,I,enter,210,2,1565.9000000357628,592509.6999999881,8106,WL,B,11.0
5,23.55900001525879,learn,60000.0,Thu Jun 18 2026 14:25:35 GMT-0500 (Central Daylight Time),594208.6999999881,A,f,I,f,122,2,132.80000001192093,594075.8999999762,8106,WL,B,12.0
5,23.7260000705719,learn,60000.0,Thu Jun 18 2026 14:25:35 GMT-0500 (Central Daylight Time),594375.3999999762,A,fi,I,i,148,2,299.5,594075.8999999762,8106,WL,B,12.0
5,23.825000047683716,learn,60000.0,Thu Jun 18 2026 14:25:35 GMT-0500 (Central Daylight Time),594475.3000000119,A,fir,I,r,85,2,399.4000000357628,594075.8999999762,8106,WL,B,12.0
5,23.942000150680542,learn,60000.0,Thu Jun 18 2026 14:25:35 GMT-0500 (Central Daylight Time),594592.0,A,fire,I,e,97,2,516.1000000238419,594075.8999999762,8106,WL,B,12.0
5,24.05900001525879,learn,60000.0,Thu Jun 18 2026 14:25:35 GMT-0500 (Central Daylight Time),594708.5,A,fireenter,I,enter,101,2,632.6000000238419,594075.8999999762,8106,WL,B,12.0
5,31.52300000190735,learn,60000.0,Thu Jun 18 2026 14:25:35 GMT-0500 (Central Daylight Time),602173.3999999762,A,c,I,c,7449,2,7464.5,594708.8999999762,8106,WL,B,13.0
5,31.623000144958496,learn,60000.0,Thu Jun 18 2026 14:25:35 GMT-0500 (Central Daylight Time),602272.8999999762,A,cl,I,l,87,2,7564.0,594708.8999999762,8106,WL,B,13.0
5,31.94000005722046,learn,60000.0,Thu Jun 18 2026 14:25:35 GMT-0500 (Central Daylight Time),602589.6000000238,A,clo,I,o,300,2,7880.700000047684,594708.8999999762,8106,WL,B,13.0
5,32.123000144958496,learn,60000.0,Thu Jun 18 2026 14:25:35 GMT-0500 (Central Daylight Time),602772.8000000119,A,cloc,I,c,176,2,8063.900000035763,594708.8999999762,8106,WL,B,13.0
5,32.25600004196167,learn,60000.0,Thu Jun 18 2026 14:25:35 GMT-0500 (Central Daylight Time),602905.8999999762,A,clock,I,k,120,2,8197.0,594708.8999999762,8106,WL,B,13.0
5,32.43900012969971,learn,60000.0,Thu Jun 18 2026 14:25:35 GMT-0500 (Central Daylight Time),603089.1000000238,A,clockenter,I,enter,162,2,8380.200000047684,594708.8999999762,8106,WL,B,13.0
5,42.68600010871887,learn,60000.0,Thu Jun 18 2026 14:25:35 GMT-0500 (Central Daylight Time),613336.0,A,w,I,w,10228,2,10246.5,603089.5,8106,WL,B,14.0
5,42.819000005722046,learn,60000.0,Thu Jun 18 2026 14:25:35 GMT-0500 (Central Daylight Time),613469.3999999762,A,wi,I,i,117,2,10379.899999976158,603089.5,8106,WL,B,14.0
5,42.88600015640259,learn,60000.0,Thu Jun 18 2026 14:25:35 GMT-0500 (Central Daylight Time),613535.8999999762,A,wif,I,f,56,2,10446.399999976158,603089.5,8106,WL,B,14.0
5,42.96900010108948,learn,60000.0,Thu Jun 18 2026 14:25:35 GMT-0500 (Central Daylight Time),613619.5,A,wife,I,e,69,2,10530.0,603089.5,8106,WL,B,14.0
5,43.086000204086304,learn,60000.0,Thu Jun 18 2026 14:25:35 GMT-0500 (Central Daylight Time),613735.8999999762,A,wifeenter,I,enter,97,2,10646.399999976158,603089.5,8106,WL,B,14.0
5,44.486000061035156,learn,60000.0,Thu Jun 18 2026 14:25:35 GMT-0500 (Central Daylight Time),615135.5,A,enter,I,enter,1380,2,1399.199999988079,613736.3000000119,8106,WL,B,15.0
6,1.1500000953674316,distr,58849.99990463257,Thu Jun 18 2026 14:25:35 GMT-0500 (Central Daylight Time),682314.6999999881,B,b,I,b,1137,2,1149.699999988079,681165.0,8106,WL,B,1.0
6,1.3329999446868896,distr,58667.00005531311,Thu Jun 18 2026 14:25:35 GMT-0500 (Central Daylight Time),682497.6999999881,B,ba,I,a,177,2,1332.699999988079,681165.0,8106,WL,B,1.0
6,1.7829999923706055,distr,58217.000007629395,Thu Jun 18 2026 14:25:35 GMT-0500 (Central Daylight Time),682947.8999999762,B,bab,I,b,436,2,1782.8999999761581,681165.0,8106,WL,B,1.0
6,2.0329999923706055,distr,57967.000007629395,Thu Jun 18 2026 14:25:35 GMT-0500 (Central Daylight Time),683197.6000000238,B,baby,I,y,233,2,2032.6000000238419,681165.0,8106,WL,B,1.0
6,2.3329999446868896,distr,57667.00005531311,Thu Jun 18 2026 14:25:35 GMT-0500 (Central Daylight Time),683497.6999999881,B,babyenter,I,enter,279,2,2332.699999988079,681165.0,8106,WL,B,1.0
6,2.881999969482422,distr,57118.00003051758,Thu Jun 18 2026 14:25:35 GMT-0500 (Central Daylight Time),684047.3999999762,B,l,I,l,540,2,549.5,683497.8999999762,8106,WL,B,2.0
6,3.7319998741149902,distr,56268.00012588501,Thu Jun 18 2026 14:25:35 GMT-0500 (Central Daylight Time),684897.1000000238,B,li,I,i,829,2,1399.2000000476837,683497.8999999762,8106,WL,B,2.0
6,3.9649999141693115,distr,56035.00008583069,Thu Jun 18 2026 14:25:35 GMT-0500 (Central Daylight Time),685130.0,B,lip,I,p,228,2,1632.1000000238419,683497.8999999762,8106,WL,B,2.0
6,4.332000017166138,distr,55667.99998283386,Thu Jun 18 2026 14:25:35 GMT-0500 (Central Daylight Time),685496.6000000238,B,lipenter,I,enter,356,2,1998.7000000476837,683497.8999999762,8106,WL,B,2.0
6,4.73199987411499,distr,55268.00012588501,Thu Jun 18 2026 14:25:35 GMT-0500 (Central Daylight Time),685896.5,B,s,I,s,388,2,399.69999998807907,685496.8000000119,8106,WL,B,3.0
6,4.947999954223633,distr,55052.00004577637,Thu Jun 18 2026 14:25:35 GMT-0500 (Central Daylight Time),686113.1999999881,B,st,I,t,196,2,616.3999999761581,685496.8000000119,8106,WL,B,3.0
6,5.115000009536743,distr,54884.99999046326,Thu Jun 18 2026 14:25:35 GMT-0500 (Central Daylight Time),686279.8000000119,B,sto,I,o,156,2,783.0,685496.8000000119,8106,WL,B,3.0
6,5.2820000648498535,distr,54717.99993515015,Thu Jun 18 2026 14:25:35 GMT-0500 (Central Daylight Time),686446.6000000238,B,stor,I,r,157,2,949.8000000119209,685496.8000000119,8106,WL,B,3.0
6,5.497999906539917,distr,54502.00009346008,Thu Jun 18 2026 14:25:35 GMT-0500 (Central Daylight Time),686663.1000000238,B,storm,I,m,199,2,1166.300000011921,685496.8000000119,8106,WL,B,3.0
6,5.765000104904175,distr,54234.999895095825,Thu Jun 18 2026 14:25:35 GMT-0500 (Central Daylight Time),686929.6999999881,B,stormenter,I,enter,254,2,1432.8999999761581,685496.8000000119,8106,WL,B,3.0
6,5.997999906539917,distr,54002.00009346008,Thu Jun 18 2026 14:25:35 GMT-0500 (Central Daylight Time),687163.0,B,b,I,b,220,2,233.0,686930.0,8106,WL,B,4.0
6,6.247999906539917,distr,53752.00009346008,Thu Jun 18 2026 14:25:35 GMT-0500 (Central Daylight Time),687412.8999999762,B,ba,I,a,234,2,482.89999997615814,686930.0,8106,WL,B,4.0
6,6.515000104904175,distr,53484.999895095825,Thu Jun 18 2026 14:25:35 GMT-0500 (Central Daylight Time),687679.5,B,bar,I,r,256,2,749.5,686930.0,8106,WL,B,4.0
6,8.813999891281128,distr,51186.00010871887,Thu Jun 18 2026 14:25:35 GMT-0500 (Central Daylight Time),689979.0,B,barenter,I,enter,2286,2,3049.0,686930.0,8106,WL,B,4.0
6,26.60800004005432,distr,33391.99995994568,Thu Jun 18 2026 14:25:35 GMT-0500 (Central Daylight Time),707773.1000000238,B,v,I,v,17786,2,17793.700000047684,689979.3999999762,8106,WL,B,5.0
6,26.72499990463257,distr,33275.00009536743,Thu Jun 18 2026 14:25:35 GMT-0500 (Central Daylight Time),707889.6000000238,B,vi,I,i,103,2,17910.200000047684,689979.3999999762,8106,WL,B,5.0
6,26.907999992370605,distr,33092.000007629395,Thu Jun 18 2026 14:25:35 GMT-0500 (Central Daylight Time),708073.1999999881,B,vil,I,l,163,2,18093.80000001192,689979.3999999762,8106,WL,B,5.0
6,27.04099988937378,distr,32959.00011062622,Thu Jun 18 2026 14:25:35 GMT-0500 (Central Daylight Time),708206.3000000119,B,vill,I,l,115,2,18226.900000035763,689979.3999999762,8106,WL,B,5.0
6,27.141000032424927,distr,32858.99996757507,Thu Jun 18 2026 14:25:35 GMT-0500 (Central Daylight Time),708306.1999999881,B,villa,I,a,95,2,18326.80000001192,689979.3999999762,8106,WL,B,5.0
6,27.29099988937378,distr,32709.00011062622,Thu Jun 18 2026 14:25:35 GMT-0500 (Central Daylight Time),708456.1999999881,B,villag,I,g,138,2,18476.80000001192,689979.3999999762,8106,WL,B,5.0
6,27.375,distr,32625.0,Thu Jun 18 2026 14:25:35 GMT-0500 (Central Daylight Time),708539.6000000238,B,village,I,e,69,2,18560.200000047684,689979.3999999762,8106,WL,B,5.0
6,27.54099988937378,distr,32459.00011062622,Thu Jun 18 2026 14:25:35 GMT-0500 (Central Daylight Time),708706.3000000119,B,villageenter,I,enter,153,2,18726.900000035763,689979.3999999762,8106,WL,B,5.0
6,37.121999979019165,distr,22878.000020980835,Thu Jun 18 2026 14:25:35 GMT-0500 (Central Daylight Time),718286.8000000119,B,l,I,l,9563,2,9580.100000023842,708706.6999999881,8106,WL,B,6.0
6,37.37100005149841,distr,22628.999948501587,Thu Jun 18 2026 14:25:35 GMT-0500 (Central Daylight Time),718536.5,B,li,I,i,229,2,9829.800000011921,708706.6999999881,8106,WL,B,6.0
6,37.63800001144409,distr,22361.99998855591,Thu Jun 18 2026 14:25:35 GMT-0500 (Central Daylight Time),718803.0,B,lip,I,p,252,2,10096.300000011921,708706.6999999881,8106,WL,B,6.0
6,37.937999963760376,distr,22062.000036239624,Thu Jun 18 2026 14:25:35 GMT-0500 (Central Daylight Time),719103.1000000238,B,lipenter,I,enter,291,2,10396.400000035763,708706.6999999881,8106,WL,B,6.0
6,42.55299997329712,distr,17447.00002670288,Thu Jun 18 2026 14:25:35 GMT-0500 (Central Daylight Time),723718.1999999881,B,enter,I,enter,4606,2,4614.899999976158,719103.3000000119,8106,WL,B,7.0
6,43.53600001335144,distr,16463.99998664856,Thu Jun 18 2026 14:25:35 GMT-0500 (Central Daylight Time),724701.3000000119,B,enter,I,enter,974,2,982.6999999880791,723718.6000000238,8106,WL,B,8.0
6,44.68599987030029,distr,15314.000129699707,Thu Jun 18 2026 14:25:35 GMT-0500 (Central Daylight Time),725850.5,B,enter,I,enter,1144,2,1148.8999999761581,724701.6000000238,8106,WL,B,9.0
6,45.05200004577637,distr,14947.999954223633,Thu Jun 18 2026 14:25:35 GMT-0500 (Central Daylight Time),726217.5,B,enter,I,enter,346,2,366.60000002384186,725850.8999999762,8106,WL,B,10.0
6,45.75200009346008,distr,14247.999906539917,Thu Jun 18 2026 14:25:35 GMT-0500 (Central Daylight Time),726917.0,B,enter,I,enter,684,2,699.1999999880791,726217.8000000119,8106,WL,B,11.0
6,46.069000005722046,distr,13930.999994277954,Thu Jun 18 2026 14:25:35 GMT-0500 (Central Daylight Time),727233.8000000119,B,enter,I,enter,312,2,316.5,726917.3000000119,8106,WL,B,12.0
6,46.46900010108948,distr,13530.999898910522,Thu Jun 18 2026 14:25:35 GMT-0500 (Central Daylight Time),727634.5,B,enter,I,enter,380,2,400.39999997615814,727234.1000000238,8106,WL,B,13.0
6,46.85199999809265,distr,13148.000001907349,Thu Jun 18 2026 14:25:35 GMT-0500 (Central Daylight Time),728016.8000000119,B,enter,I,enter,362,2,382.0,727634.8000000119,8106,WL,B,14.0
6,47.21799993515015,distr,12782.000064849854,Thu Jun 18 2026 14:25:35 GMT-0500 (Central Daylight Time),728383.3999999762,B,enter,I,enter,357,2,366.2999999523163,728017.1000000238,8106,WL,B,15.0
7,7.347999811172485,immed,52652.000188827515,Thu Jun 18 2026 14:25:35 GMT-0500 (Central Daylight Time),751426.0,A,g,I,g,7344,2,7347.5,744078.5,8106,WL,B,1.0
7,7.563999891281128,immed,52436.00010871887,Thu Jun 18 2026 14:25:35 GMT-0500 (Central Daylight Time),751642.5,A,gr,I,r,209,2,7564.0,744078.5,8106,WL,B,1.0
7,7.747999906539917,immed,52252.00009346008,Thu Jun 18 2026 14:25:35 GMT-0500 (Central Daylight Time),751826.0,A,gra,I,a,178,2,7747.5,744078.5,8106,WL,B,1.0
7,8.030999898910522,immed,51969.00010108948,Thu Jun 18 2026 14:25:35 GMT-0500 (Central Daylight Time),752109.3000000119,A,gras,I,s,275,2,8030.800000011921,744078.5,8106,WL,B,1.0
7,8.197999954223633,immed,51802.00004577637,Thu Jun 18 2026 14:25:35 GMT-0500 (Central Daylight Time),752275.8000000119,A,grass,I,s,152,2,8197.300000011921,744078.5,8106,WL,B,1.0
7,13.19599986076355,immed,46804.00013923645,Thu Jun 18 2026 14:25:35 GMT-0500 (Central Daylight Time),757274.3000000119,A,grassenter,I,enter,4977,2,13195.800000011921,744078.5,8106,WL,B,1.0
7,14.411999940872192,immed,45588.00005912781,Thu Jun 18 2026 14:25:35 GMT-0500 (Central Daylight Time),758490.6000000238,A,c,I,c,1210,2,1215.9000000357628,757274.6999999881,8106,WL,B,2.0
7,14.561999797821045,immed,45438.000202178955,Thu Jun 18 2026 14:25:35 GMT-0500 (Central Daylight Time),758640.3999999762,A,ci,I,i,130,2,1365.699999988079,757274.6999999881,8106,WL,B,2.0
7,14.69599986076355,immed,45304.00013923645,Thu Jun 18 2026 14:25:35 GMT-0500 (Central Daylight Time),758773.8000000119,A,cit,I,t,126,2,1499.1000000238419,757274.6999999881,8106,WL,B,2.0
7,14.911999940872192,immed,45088.00005912781,Thu Jun 18 2026 14:25:35 GMT-0500 (Central Daylight Time),758990.3000000119,A,city,I,y,198,2,1715.6000000238419,757274.6999999881,8106,WL,B,2.0
7,15.44599986076355,immed,44554.00013923645,Thu Jun 18 2026 14:25:35 GMT-0500 (Central Daylight Time),759523.8000000119,A,cityenter,I,enter,519,2,2249.100000023842,757274.6999999881,8106,WL,B,2.0
7,15.894999980926514,immed,44105.000019073486,Thu Jun 18 2026 14:25:35 GMT-0500 (Central Daylight Time),759973.5,A,a,I,a,434,2,449.39999997615814,759524.1000000238,8106,WL,B,3.0
7,16.061999797821045,immed,43938.000202178955,Thu Jun 18 2026 14:25:35 GMT-0500 (Central Daylight Time),760140.1000000238,A,ar,I,r,152,2,616.0,759524.1000000238,8106,WL,B,3.0
7,16.227999925613403,immed,43772.0000743866,Thu Jun 18 2026 14:25:35 GMT-0500 (Central Daylight Time),760306.6000000238,A,arm,I,m,159,2,782.5,759524.1000000238,8106,WL,B,3.0
7,16.494999885559082,immed,43505.00011444092,Thu Jun 18 2026 14:25:35 GMT-0500 (Central Daylight Time),760573.3000000119,A,armenter,I,enter,259,2,1049.199999988079,759524.1000000238,8106,WL,B,3.0
7,16.727999925613403,immed,43272.0000743866,Thu Jun 18 2026 14:25:35 GMT-0500 (Central Daylight Time),760806.6000000238,A,s,I,s,216,2,232.9000000357628,760573.6999999881,8106,WL,B,4.0
7,16.861999988555908,immed,43138.00001144409,Thu Jun 18 2026 14:25:35 GMT-0500 (Central Daylight Time),760939.8999999762,A,sk,I,k,127,2,366.19999998807907,760573.6999999881,8106,WL,B,4.0
7,17.09499979019165,immed,42905.00020980835,Thu Jun 18 2026 14:25:35 GMT-0500 (Central Daylight Time),761173.1999999881,A,ski,I,i,225,2,599.5,760573.6999999881,8106,WL,B,4.0
7,17.26199984550476,immed,42738.00015449524,Thu Jun 18 2026 14:25:35 GMT-0500 (Central Daylight Time),761339.8999999762,A,skin,I,n,152,2,766.1999999880791,760573.6999999881,8106,WL,B,4.0
7,17.744999885559082,immed,42255.00011444092,Thu Jun 18 2026 14:25:35 GMT-0500 (Central Daylight Time),761822.8000000119,A,skinenter,I,enter,473,2,1249.1000000238419,760573.6999999881,8106,WL,B,4.0
7,18.110999822616577,immed,41889.00017738342,Thu Jun 18 2026 14:25:35 GMT-0500 (Central Daylight Time),762189.3999999762,A,p,I,p,359,2,366.2999999523163,761823.1000000238,8106,WL,B,5.0
7,18.377999782562256,immed,41622.000217437744,Thu Jun 18 2026 14:25:35 GMT-0500 (Central Daylight Time),762455.8999999762,A,pu,I,u,248,2,632.7999999523163,761823.1000000238,8106,WL,B,5.0
7,18.643999814987183,immed,41356.00018501282,Thu Jun 18 2026 14:25:35 GMT-0500 (Central Daylight Time),762722.3999999762,A,pup,I,p,245,2,899.2999999523163,761823.1000000238,8106,WL,B,5.0
7,18.92799997329712,immed,41072.00002670288,Thu Jun 18 2026 14:25:35 GMT-0500 (Central Daylight Time),763005.8999999762,A,pupi,I,i,267,2,1182.7999999523163,761823.1000000238,8106,WL,B,5.0
7,19.227999925613403,immed,40772.0000743866,Thu Jun 18 2026 14:25:35 GMT-0500 (Central Daylight Time),763305.6999999881,A,pupil,I,l,295,2,1482.5999999642372,761823.1000000238,8106,WL,B,5.0
7,19.555999994277954,immed,40444.000005722046,Thu Jun 18 2026 14:25:35 GMT-0500 (Central Daylight Time),763634.1000000238,A,pupilenter,I,enter,324,2,1811.0,761823.1000000238,8106,WL,B,5.0
7,19.74399995803833,immed,40256.00004196167,Thu Jun 18 2026 14:25:35 GMT-0500 (Central Daylight Time),763822.3000000119,A,w,I,w,178,2,187.9000000357628,763634.3999999762,8106,WL,B,6.0
7,19.960999965667725,immed,40039.000034332275,Thu Jun 18 2026 14:25:35 GMT-0500 (Central Daylight Time),764038.8999999762,A,wi,I,i,207,2,404.5,763634.3999999762,8106,WL,B,6.0
7,20.16099977493286,immed,39839.00022506714,Thu Jun 18 2026 14:25:35 GMT-0500 (Central Daylight Time),764238.6999999881,A,wif,I,f,182,2,604.3000000119209,763634.3999999762,8106,WL,B,6.0
7,20.393999814987183,immed,39606.00018501282,Thu Jun 18 2026 14:25:35 GMT-0500 (Central Daylight Time),764472.1000000238,A,wife,I,e,222,2,837.7000000476837,763634.3999999762,8106,WL,B,6.0
7,20.893999814987183,immed,39106.00018501282,Thu Jun 18 2026 14:25:35 GMT-0500 (Central Daylight Time),764971.6999999881,A,wifeenter,I,enter,485,2,1337.300000011921,763634.3999999762,8106,WL,B,6.0
7,21.80999994277954,immed,38190.00005722046,Thu Jun 18 2026 14:25:35 GMT-0500 (Central Daylight Time),765888.3000000119,A,s,I,s,905,2,916.3000000119209,764972.0,8106,WL,B,7.0
7,22.009999990463257,immed,37990.00000953674,Thu Jun 18 2026 14:25:35 GMT-0500 (Central Daylight Time),766088.1000000238,A,st,I,t,180,2,1116.1000000238419,764972.0,8106,WL,B,7.0
7,22.22699999809265,immed,37773.00000190735,Thu Jun 18 2026 14:25:35 GMT-0500 (Central Daylight Time),766304.6999999881,A,sta,I,a,204,2,1332.699999988079,764972.0,8106,WL,B,7.0
7,22.509999990463257,immed,37490.00000953674,Thu Jun 18 2026 14:25:35 GMT-0500 (Central Daylight Time),766588.1999999881,A,star,I,r,277,2,1616.199999988079,764972.0,8106,WL,B,7.0
7,22.742999792099,immed,37257.000207901,Thu Jun 18 2026 14:25:35 GMT-0500 (Central Daylight Time),766821.3999999762,A,starenter,I,enter,224,2,1849.3999999761581,764972.0,8106,WL,B,7.0
7,23.027999877929688,immed,36972.00012207031,Thu Jun 18 2026 14:25:35 GMT-0500 (Central Daylight Time),767106.1000000238,A,l,I,l,262,2,284.4000000357628,766821.6999999881,8106,WL,B,8.0
7,23.15999984741211,immed,36840.00015258789,Thu Jun 18 2026 14:25:35 GMT-0500 (Central Daylight Time),767237.8999999762,A,la,I,a,114,2,416.19999998807907,766821.6999999881,8106,WL,B,8.0
7,23.292999982833862,immed,36707.00001716614,Thu Jun 18 2026 14:25:35 GMT-0500 (Central Daylight Time),767371.5,A,lak,I,k,120,2,549.8000000119209,766821.6999999881,8106,WL,B,8.0
7,23.39299988746643,immed,36607.00011253357,Thu Jun 18 2026 14:25:35 GMT-0500 (Central Daylight Time),767471.1000000238,A,lake,I,e,81,2,649.4000000357628,766821.6999999881,8106,WL,B,8.0
7,23.575999975204468,immed,36424.00002479553,Thu Jun 18 2026 14:25:35 GMT-0500 (Central Daylight Time),767654.3000000119,A,lakeenter,I,enter,173,2,832.6000000238419,766821.6999999881,8106,WL,B,8.0
7,23.775999784469604,immed,36224.000215530396,Thu Jun 18 2026 14:25:35 GMT-0500 (Central Daylight Time),767854.5,A,c,I,c,183,2,199.89999997615814,767654.6000000238,8106,WL,B,9.0
7,23.875999927520752,immed,36124.00007247925,Thu Jun 18 2026 14:25:35 GMT-0500 (Central Daylight Time),767954.5,A,ca,I,a,87,2,299.89999997615814,767654.6000000238,8106,WL,B,9.0
7,24.091999769210815,immed,35908.000230789185,Thu Jun 18 2026 14:25:35 GMT-0500 (Central Daylight Time),768170.6000000238,A,cab,I,b,211,2,516.0,767654.6000000238,8106,WL,B,9.0
7,24.259999990463257,immed,35740.00000953674,Thu Jun 18 2026 14:25:35 GMT-0500 (Central Daylight Time),768337.6000000238,A,cabi,I,i,154,2,683.0,767654.6000000238,8106,WL,B,9.0
7,24.375999927520752,immed,35624.00007247925,Thu Jun 18 2026 14:25:35 GMT-0500 (Central Daylight Time),768454.3000000119,A,cabin,I,n,107,2,799.6999999880791,767654.6000000238,8106,WL,B,9.0
7,25.54199981689453,immed,34458.00018310547,Thu Jun 18 2026 14:25:35 GMT-0500 (Central Daylight Time),769620.3000000119,A,cabinenter,I,enter,1158,2,1965.699999988079,767654.6000000238,8106,WL,B,9.0
7,25.741999864578247,immed,34258.00013542175,Thu Jun 18 2026 14:25:35 GMT-0500 (Central Daylight Time),769820.3000000119,A,d,I,d,184,2,199.69999998807907,769620.6000000238,8106,WL,B,10.0
7,25.875999927520752,immed,34124.00007247925,Thu Jun 18 2026 14:25:35 GMT-0500 (Central Daylight Time),769953.8999999762,A,do,I,o,113,2,333.2999999523163,769620.6000000238,8106,WL,B,10.0
7,26.026999950408936,immed,33973.000049591064,Thu Jun 18 2026 14:25:35 GMT-0500 (Central Daylight Time),770104.8999999762,A,doo,I,o,131,2,484.2999999523163,769620.6000000238,8106,WL,B,10.0
7,26.14199995994568,immed,33858.00004005432,Thu Jun 18 2026 14:25:35 GMT-0500 (Central Daylight Time),770220.6000000238,A,door,I,r,101,2,600.0,769620.6000000238,8106,WL,B,10.0
7,26.358999967575073,immed,33641.00003242493,Thu Jun 18 2026 14:25:35 GMT-0500 (Central Daylight Time),770436.8000000119,A,doorenter,I,enter,209,2,816.1999999880791,769620.6000000238,8106,WL,B,10.0
7,26.525999784469604,immed,33474.000215530396,Thu Jun 18 2026 14:25:35 GMT-0500 (Central Daylight Time),770603.6000000238,A,w,I,w,151,2,166.5,770437.1000000238,8106,WL,B,11.0
7,26.675999879837036,immed,33324.000120162964,Thu Jun 18 2026 14:25:35 GMT-0500 (Central Daylight Time),770753.6999999881,A,wi,I,i,129,2,316.5999999642372,770437.1000000238,8106,WL,B,11.0
7,26.742999792099,immed,33257.000207901,Thu Jun 18 2026 14:25:35 GMT-0500 (Central Daylight Time),770821.0,A,win,I,n,60,2,383.89999997615814,770437.1000000238,8106,WL,B,11.0
7,26.908999919891357,immed,33091.00008010864,Thu Jun 18 2026 14:25:35 GMT-0500 (Central Daylight Time),770986.8000000119,A,wind,I,d,151,2,549.6999999880791,770437.1000000238,8106,WL,B,11.0
7,27.05899977684021,immed,32941.00022315979,Thu Jun 18 2026 14:25:35 GMT-0500 (Central Daylight Time),771136.6999999881,A,windo,I,o,130,2,699.5999999642372,770437.1000000238,8106,WL,B,11.0
7,27.158999919891357,immed,32841.00008010864,Thu Jun 18 2026 14:25:35 GMT-0500 (Central Daylight Time),771236.8000000119,A,window,I,w,93,2,799.6999999880791,770437.1000000238,8106,WL,B,11.0
7,27.39199995994568,immed,32608.00004005432,Thu Jun 18 2026 14:25:35 GMT-0500 (Central Daylight Time),771469.8999999762,A,windowenter,I,enter,217,2,1032.7999999523163,770437.1000000238,8106,WL,B,11.0
7,27.574999809265137,immed,32425.000190734863,Thu Jun 18 2026 14:25:35 GMT-0500 (Central Daylight Time),771653.1000000238,A,s,I,s,175,2,182.80000001192093,771470.3000000119,8106,WL,B,12.0
7,27.72599983215332,immed,32274.00016784668,Thu Jun 18 2026 14:25:35 GMT-0500 (Central Daylight Time),771804.1999999881,A,st,I,t,144,2,333.89999997615814,771470.3000000119,8106,WL,B,12.0
7,27.95799994468689,immed,32042.00005531311,Thu Jun 18 2026 14:25:35 GMT-0500 (Central Daylight Time),772036.3999999762,A,str,I,r,216,2,566.0999999642372,771470.3000000119,8106,WL,B,12.0
7,28.274999856948853,immed,31725.000143051147,Thu Jun 18 2026 14:25:35 GMT-0500 (Central Daylight Time),772352.8999999762,A,stre,I,e,305,2,882.5999999642372,771470.3000000119,8106,WL,B,12.0
7,28.491999864578247,immed,31508.000135421753,Thu Jun 18 2026 14:25:35 GMT-0500 (Central Daylight Time),772569.6999999881,A,stree,I,e,195,2,1099.3999999761581,771470.3000000119,8106,WL,B,12.0
7,28.691999912261963,immed,31308.000087738037,Thu Jun 18 2026 14:25:35 GMT-0500 (Central Daylight Time),772769.6999999881,A,street,I,t,180,2,1299.3999999761581,771470.3000000119,8106,WL,B,12.0
7,30.608999967575073,immed,29391.000032424927,Thu Jun 18 2026 14:25:35 GMT-0500 (Central Daylight Time),774686.6999999881,A,streetenter,I,enter,1899,2,3216.399999976158,771470.3000000119,8106,WL,B,12.0
7,31.240999937057495,immed,28759.000062942505,Thu Jun 18 2026 14:25:35 GMT-0500 (Central Daylight Time),775318.6000000238,A,f,I,f,622,2,631.6000000238419,774687.0,8106,WL,B,13.0
7,31.39199995994568,immed,28608.00004005432,Thu Jun 18 2026 14:25:35 GMT-0500 (Central Daylight Time),775470.0,A,fi,I,i,135,2,783.0,774687.0,8106,WL,B,13.0
7,31.5239999294281,immed,28476.0000705719,Thu Jun 18 2026 14:25:35 GMT-0500 (Central Daylight Time),775602.1000000238,A,fir,I,r,119,2,915.1000000238419,774687.0,8106,WL,B,13.0
7,31.60699987411499,immed,28393.00012588501,Thu Jun 18 2026 14:25:35 GMT-0500 (Central Daylight Time),775685.3000000119,A,fire,I,e,67,2,998.3000000119209,774687.0,8106,WL,B,13.0
7,32.073999881744385,immed,27926.000118255615,Thu Jun 18 2026 14:25:35 GMT-0500 (Central Daylight Time),776151.8000000119,A,fireenter,I,enter,456,2,1464.800000011921,774687.0,8106,WL,B,13.0
7,32.25699996948242,immed,27743.000030517578,Thu Jun 18 2026 14:25:35 GMT-0500 (Central Daylight Time),776334.8999999762,A,c,I,c,173,2,182.79999995231628,776152.1000000238,8106,WL,B,14.0
7,32.37399983406067,immed,27626.00016593933,Thu Jun 18 2026 14:25:35 GMT-0500 (Central Daylight Time),776451.6999999881,A,cl,I,l,102,2,299.5999999642372,776152.1000000238,8106,WL,B,14.0
7,32.87299990653992,immed,27127.000093460083,Thu Jun 18 2026 14:25:35 GMT-0500 (Central Daylight Time),776951.6000000238,A,clo,I,o,489,2,799.5,776152.1000000238,8106,WL,B,14.0
7,33.056999921798706,immed,26943.000078201294,Thu Jun 18 2026 14:25:35 GMT-0500 (Central Daylight Time),777135.0,A,cloc,I,c,173,2,982.8999999761581,776152.1000000238,8106,WL,B,14.0
7,33.20699977874756,immed,26793.00022125244,Thu Jun 18 2026 14:25:35 GMT-0500 (Central Daylight Time),777284.6999999881,A,clock,I,k,143,2,1132.5999999642372,776152.1000000238,8106,WL,B,14.0
7,33.389999866485596,immed,26610.000133514404,Thu Jun 18 2026 14:25:35 GMT-0500 (Central Daylight Time),777468.1000000238,A,clockenter,I,enter,176,2,1316.0,776152.1000000238,8106,WL,B,14.0
7,36.156999826431274,immed,23843.000173568726,Thu Jun 18 2026 14:25:35 GMT-0500 (Central Daylight Time),780234.8999999762,A,enter,I,enter,2745,2,2766.399999976158,777468.5,8106,WL,B,15.0
