Number,acc_sum,block,block_c,block_cond,con_img,correct,correct_response,datetime,endtime,jitter,project,response,response_time,row_sel,session_number,start_end,starttime,subject_id,task,task_vers,trial
9,0,prac,1,A,circle.png,0,m,Wed Sep 03 2025 15:13:00 GMT-0500 (Central Daylight Time),66716.69999980927,1500,O,None,1513,8,1,3788.0999999046326,62928.59999990463,7212,NTS,B,1
8,0,prac,1,A,circle.png,0,m,Wed Sep 03 2025 15:13:00 GMT-0500 (Central Daylight Time),69932.90000009537,1600,O,z,820,7,1,3207.800000190735,66725.09999990463,7212,NTS,B,2
4,0,prac,1,A,circle.png,0,z,Wed Sep 03 2025 15:13:00 GMT-0500 (Central Daylight Time),73630.90000009537,1400,O,None,1515,4,1,3691.2000002861023,69939.69999980927,7212,NTS,B,3
7,1,prac,1,A,circle.png,1,m,Wed Sep 03 2025 15:13:00 GMT-0500 (Central Daylight Time),77015.69999980927,1700,O,m,909,6,1,3375.8999996185303,73639.80000019073,7212,NTS,B,4
1,2,prac,1,A,circle.png,1,z,Wed Sep 03 2025 15:13:00 GMT-0500 (Central Daylight Time),79431.0,1000,O,z,632,1,1,2407.199999809265,77023.80000019073,7212,NTS,B,5
3,3,prac,1,A,circle.png,1,z,Wed Sep 03 2025 15:13:00 GMT-0500 (Central Daylight Time),82261.30000019073,1200,O,z,844,3,1,2822.300000190735,79439.0,7212,NTS,B,6
2,4,prac,1,A,circle.png,1,z,Wed Sep 03 2025 15:13:00 GMT-0500 (Central Daylight Time),85630.69999980927,2000,O,z,591,2,1,3359.7999997138977,82270.90000009537,7212,NTS,B,7
4,5,prac,1,A,circle.png,1,z,Wed Sep 03 2025 15:13:00 GMT-0500 (Central Daylight Time),88492.19999980927,1400,O,z,673,4,1,2854.699999809265,85637.5,7212,NTS,B,8
6,6,prac,1,A,circle.png,1,m,Wed Sep 03 2025 15:13:00 GMT-0500 (Central Daylight Time),91861.5,1900,O,m,672,5,1,3364.4000000953674,88497.09999990463,7212,NTS,B,9
2,7,prac,1,A,circle.png,1,z,Wed Sep 03 2025 15:13:00 GMT-0500 (Central Daylight Time),95456.09999990463,2000,O,z,801,2,1,3586.7999997138977,91869.30000019073,7212,NTS,B,10
3,8,prac,1,A,circle.png,1,z,Wed Sep 03 2025 15:13:00 GMT-0500 (Central Daylight Time),98189.69999980927,1200,O,z,753,3,1,2727.7999997138977,95461.90000009537,7212,NTS,B,11
7,9,prac,1,A,circle.png,1,m,Wed Sep 03 2025 15:13:00 GMT-0500 (Central Daylight Time),101408.0,1700,O,m,720,6,1,3213.5999999046326,98194.40000009537,7212,NTS,B,12
9,0,prac,1,B,triangle.png,0,z,Wed Sep 03 2025 15:13:00 GMT-0500 (Central Daylight Time),136810.80000019073,1400,O,None,1515,8,1,3692.800000190735,133118.0,7212,NTS,B,1
7,1,prac,1,B,triangle.png,1,z,Wed Sep 03 2025 15:13:00 GMT-0500 (Central Daylight Time),140726.09999990463,2000,O,z,1127,6,1,3907.4000000953674,136818.69999980927,7212,NTS,B,2
2,2,prac,1,B,triangle.png,1,m,Wed Sep 03 2025 15:13:00 GMT-0500 (Central Daylight Time),144010.30000019073,1700,O,m,785,2,1,3277.800000190735,140732.5,7212,NTS,B,3
4,2,prac,1,B,triangle.png,0,m,Wed Sep 03 2025 15:13:00 GMT-0500 (Central Daylight Time),147640.80000019073,1500,O,z,1333,4,1,3622.9000000953674,144017.90000009537,7212,NTS,B,4
3,3,prac,1,B,triangle.png,1,z,Wed Sep 03 2025 15:13:00 GMT-0500 (Central Daylight Time),150842.09999990463,1600,O,z,810,3,1,3195.5,147646.59999990463,7212,NTS,B,5
4,4,prac,1,B,triangle.png,1,m,Wed Sep 03 2025 15:13:00 GMT-0500 (Central Daylight Time),153854.80000019073,1500,O,m,720,4,1,3006.1000003814697,150848.69999980927,7212,NTS,B,6
8,5,prac,1,B,triangle.png,1,m,Wed Sep 03 2025 15:13:00 GMT-0500 (Central Daylight Time),156789.5,1200,O,m,951,7,1,2930.0999999046326,153859.40000009537,7212,NTS,B,7
9,6,prac,1,B,triangle.png,1,z,Wed Sep 03 2025 15:13:00 GMT-0500 (Central Daylight Time),159737.0,1400,O,z,762,8,1,2939.4000000953674,156797.59999990463,7212,NTS,B,8
1,7,prac,1,B,triangle.png,1,z,Wed Sep 03 2025 15:13:00 GMT-0500 (Central Daylight Time),163236.90000009537,1900,O,z,828,1,1,3496.0999999046326,159740.80000019073,7212,NTS,B,9
6,8,prac,1,B,triangle.png,1,m,Wed Sep 03 2025 15:13:00 GMT-0500 (Central Daylight Time),165837.0,1000,O,m,817,5,1,2591.800000190735,163245.19999980927,7212,NTS,B,10
7,9,prac,1,B,triangle.png,1,z,Wed Sep 03 2025 15:13:00 GMT-0500 (Central Daylight Time),169437.40000009537,2000,O,z,833,6,1,3594.300000190735,165843.09999990463,7212,NTS,B,11
8,10,prac,1,B,triangle.png,1,m,Wed Sep 03 2025 15:13:00 GMT-0500 (Central Daylight Time),172418.19999980927,1200,O,m,1009,7,1,2975.699999809265,169442.5,7212,NTS,B,12
1,1,test,1,A,circle.png,1,z,Wed Sep 03 2025 15:13:00 GMT-0500 (Central Daylight Time),192226.0,1000,O,z,741,1,1,1756.5,190469.5,7212,NTS,B,1
6,2,test,1,A,circle.png,1,m,Wed Sep 03 2025 15:13:00 GMT-0500 (Central Daylight Time),195075.69999980927,1900,O,m,925,5,1,2845.3999996185303,192230.30000019073,7212,NTS,B,2
8,3,test,1,A,circle.png,1,m,Wed Sep 03 2025 15:13:00 GMT-0500 (Central Daylight Time),197508.40000009537,1600,O,m,808,7,1,2428.2000002861023,195080.19999980927,7212,NTS,B,3
9,4,test,1,A,circle.png,1,m,Wed Sep 03 2025 15:13:00 GMT-0500 (Central Daylight Time),199857.09999990463,1500,O,m,817,8,1,2344.7999997138977,197512.30000019073,7212,NTS,B,4
3,5,test,1,A,circle.png,1,z,Wed Sep 03 2025 15:13:00 GMT-0500 (Central Daylight Time),201790.5,1200,O,z,713,3,1,1925.3000001907349,199865.19999980927,7212,NTS,B,5
6,6,test,1,A,circle.png,1,m,Wed Sep 03 2025 15:13:00 GMT-0500 (Central Daylight Time),204539.40000009537,1900,O,m,826,5,1,2741.2000002861023,201798.19999980927,7212,NTS,B,6
6,7,test,1,A,circle.png,1,m,Wed Sep 03 2025 15:13:00 GMT-0500 (Central Daylight Time),207054.69999980927,1900,O,m,586,5,1,2510.5999999046326,204544.09999990463,7212,NTS,B,7
7,8,test,1,A,circle.png,1,m,Wed Sep 03 2025 15:13:00 GMT-0500 (Central Daylight Time),209520.59999990463,1700,O,m,744,6,1,2459.199999809265,207061.40000009537,7212,NTS,B,8
2,9,test,1,A,circle.png,1,z,Wed Sep 03 2025 15:13:00 GMT-0500 (Central Daylight Time),212102.30000019073,2000,O,z,564,2,1,2575.800000190735,209526.5,7212,NTS,B,9
9,10,test,1,A,circle.png,1,m,Wed Sep 03 2025 15:13:00 GMT-0500 (Central Daylight Time),214219.0,1500,O,m,591,8,1,2114.0,212105.0,7212,NTS,B,10
3,11,test,1,A,circle.png,1,z,Wed Sep 03 2025 15:13:00 GMT-0500 (Central Daylight Time),216168.80000019073,1200,O,z,716,3,1,1947.2000002861023,214221.59999990463,7212,NTS,B,11
7,12,test,1,A,circle.png,1,m,Wed Sep 03 2025 15:13:00 GMT-0500 (Central Daylight Time),218501.0,1700,O,m,598,6,1,2325.0999999046326,216175.90000009537,7212,NTS,B,12
1,13,test,1,A,circle.png,1,z,Wed Sep 03 2025 15:13:00 GMT-0500 (Central Daylight Time),220134.0,1000,O,z,604,1,1,1625.5,218508.5,7212,NTS,B,13
2,14,test,1,A,circle.png,1,z,Wed Sep 03 2025 15:13:00 GMT-0500 (Central Daylight Time),222816.09999990463,2000,O,z,661,2,1,2675.0999999046326,220141.0,7212,NTS,B,14
8,15,test,1,A,circle.png,1,m,Wed Sep 03 2025 15:13:00 GMT-0500 (Central Daylight Time),225115.80000019073,1600,O,m,667,7,1,2293.0,222822.80000019073,7212,NTS,B,15
7,16,test,1,A,circle.png,1,m,Wed Sep 03 2025 15:13:00 GMT-0500 (Central Daylight Time),227715.59999990463,1700,O,m,874,6,1,2592.5,225123.09999990463,7212,NTS,B,16
2,17,test,1,A,circle.png,1,z,Wed Sep 03 2025 15:13:00 GMT-0500 (Central Daylight Time),230347.40000009537,2000,O,z,608,2,1,2625.7000002861023,227721.69999980927,7212,NTS,B,17
4,18,test,1,A,circle.png,1,z,Wed Sep 03 2025 15:13:00 GMT-0500 (Central Daylight Time),232779.69999980927,1400,O,z,1009,4,1,2426.7999997138977,230352.90000009537,7212,NTS,B,18
9,19,test,1,A,circle.png,1,m,Wed Sep 03 2025 15:13:00 GMT-0500 (Central Daylight Time),234929.5,1500,O,m,626,8,1,2146.199999809265,232783.30000019073,7212,NTS,B,19
2,20,test,1,A,circle.png,1,z,Wed Sep 03 2025 15:13:00 GMT-0500 (Central Daylight Time),237629.40000009537,2000,O,z,672,2,1,2695.5999999046326,234933.80000019073,7212,NTS,B,20
3,21,test,1,A,circle.png,1,z,Wed Sep 03 2025 15:13:00 GMT-0500 (Central Daylight Time),239512.19999980927,1200,O,z,661,3,1,1877.5999999046326,237634.59999990463,7212,NTS,B,21
4,22,test,1,A,circle.png,1,z,Wed Sep 03 2025 15:13:00 GMT-0500 (Central Daylight Time),241813.09999990463,1400,O,z,868,4,1,2293.0,239520.09999990463,7212,NTS,B,22
1,23,test,1,A,circle.png,1,z,Wed Sep 03 2025 15:13:00 GMT-0500 (Central Daylight Time),243560.19999980927,1000,O,z,728,1,1,1742.3999996185303,241817.80000019073,7212,NTS,B,23
8,24,test,1,A,circle.png,1,m,Wed Sep 03 2025 15:13:00 GMT-0500 (Central Daylight Time),245911.5,1600,O,m,720,7,1,2346.199999809265,243565.30000019073,7212,NTS,B,24
1,1,test,1,B,triangle.png,1,z,Wed Sep 03 2025 15:13:00 GMT-0500 (Central Daylight Time),266136.90000009537,1400,O,z,1015,9,1,2425.0,263711.90000009537,7212,NTS,B,1
4,2,test,1,B,triangle.png,1,m,Wed Sep 03 2025 15:13:00 GMT-0500 (Central Daylight Time),268287.59999990463,1500,O,m,634,4,1,2145.4000000953674,266142.19999980927,7212,NTS,B,2
9,3,test,1,B,triangle.png,1,z,Wed Sep 03 2025 15:13:00 GMT-0500 (Central Daylight Time),270752.0,1400,O,z,1038,8,1,2459.199999809265,268292.80000019073,7212,NTS,B,3
4,4,test,1,B,triangle.png,1,m,Wed Sep 03 2025 15:13:00 GMT-0500 (Central Daylight Time),272668.30000019073,1000,O,m,892,12,1,1911.1000003814697,270757.19999980927,7212,NTS,B,4
9,5,test,1,B,triangle.png,1,z,Wed Sep 03 2025 15:13:00 GMT-0500 (Central Daylight Time),275534.69999980927,1900,O,z,933,16,1,2862.0999999046326,272672.59999990463,7212,NTS,B,5
2,6,test,1,B,triangle.png,1,m,Wed Sep 03 2025 15:13:00 GMT-0500 (Central Daylight Time),278101.0,1700,O,m,841,2,1,2561.699999809265,275539.30000019073,7212,NTS,B,6
7,7,test,1,B,triangle.png,1,z,Wed Sep 03 2025 15:13:00 GMT-0500 (Central Daylight Time),280582.30000019073,1600,O,z,855,14,1,2476.4000000953674,278105.90000009537,7212,NTS,B,7
4,8,test,1,B,triangle.png,1,m,Wed Sep 03 2025 15:13:00 GMT-0500 (Central Daylight Time),282847.80000019073,1500,O,m,744,4,1,2262.7000002861023,280585.09999990463,7212,NTS,B,8
6,9,test,1,B,triangle.png,1,m,Wed Sep 03 2025 15:13:00 GMT-0500 (Central Daylight Time),284883.0,1000,O,m,1003,5,1,2030.0,282853.0,7212,NTS,B,9
3,10,test,1,B,triangle.png,1,z,Wed Sep 03 2025 15:13:00 GMT-0500 (Central Daylight Time),287630.59999990463,2000,O,z,724,11,1,2743.7999997138977,284886.80000019073,7212,NTS,B,10
1,11,test,1,B,triangle.png,1,z,Wed Sep 03 2025 15:13:00 GMT-0500 (Central Daylight Time),289663.19999980927,1400,O,z,607,9,1,2029.2999997138977,287633.90000009537,7212,NTS,B,11
7,12,test,1,B,triangle.png,1,z,Wed Sep 03 2025 15:13:00 GMT-0500 (Central Daylight Time),292046.90000009537,1600,O,z,752,14,1,2379.2000002861023,289667.69999980927,7212,NTS,B,12
3,13,test,1,B,triangle.png,1,z,Wed Sep 03 2025 15:13:00 GMT-0500 (Central Daylight Time),294510.80000019073,1600,O,z,838,3,1,2459.7000002861023,292051.09999990463,7212,NTS,B,13
7,14,test,1,B,triangle.png,1,z,Wed Sep 03 2025 15:13:00 GMT-0500 (Central Daylight Time),297193.80000019073,2000,O,z,652,6,1,2678.1000003814697,294515.69999980927,7212,NTS,B,14
1,15,test,1,B,triangle.png,1,z,Wed Sep 03 2025 15:13:00 GMT-0500 (Central Daylight Time),299759.0,1900,O,z,635,1,1,2560.800000190735,297198.19999980927,7212,NTS,B,15
9,16,test,1,B,triangle.png,1,z,Wed Sep 03 2025 15:13:00 GMT-0500 (Central Daylight Time),302408.5,1900,O,z,721,16,1,2645.5,299763.0,7212,NTS,B,16
2,17,test,1,B,triangle.png,1,m,Wed Sep 03 2025 15:13:00 GMT-0500 (Central Daylight Time),304325.80000019073,1200,O,m,692,10,1,1911.8000001907349,302414.0,7212,NTS,B,17
8,18,test,1,B,triangle.png,1,m,Wed Sep 03 2025 15:13:00 GMT-0500 (Central Daylight Time),306290.09999990463,1200,O,m,742,7,1,1959.9000000953674,304330.19999980927,7212,NTS,B,18
6,19,test,1,B,triangle.png,1,m,Wed Sep 03 2025 15:13:00 GMT-0500 (Central Daylight Time),308155.69999980927,1000,O,m,840,5,1,1862.8999996185303,306292.80000019073,7212,NTS,B,19
8,20,test,1,B,triangle.png,1,m,Wed Sep 03 2025 15:13:00 GMT-0500 (Central Daylight Time),310572.0,1700,O,m,683,15,1,2412.699999809265,308159.30000019073,7212,NTS,B,20
6,21,test,1,B,triangle.png,1,m,Wed Sep 03 2025 15:13:00 GMT-0500 (Central Daylight Time),312904.59999990463,1500,O,m,802,13,1,2326.5999999046326,310578.0,7212,NTS,B,21
2,22,test,1,B,triangle.png,1,m,Wed Sep 03 2025 15:13:00 GMT-0500 (Central Daylight Time),315370.30000019073,1700,O,m,744,2,1,2461.0,312909.30000019073,7212,NTS,B,22
3,23,test,1,B,triangle.png,1,z,Wed Sep 03 2025 15:13:00 GMT-0500 (Central Daylight Time),318136.69999980927,2000,O,z,736,11,1,2761.199999809265,315375.5,7212,NTS,B,23
6,23,test,1,B,triangle.png,0,m,Wed Sep 03 2025 15:13:00 GMT-0500 (Central Daylight Time),320652.0,1500,O,z,991,13,1,2510.5999999046326,318141.40000009537,7212,NTS,B,24
3,0,prac,1,C,triangle.png,0,z,Wed Sep 03 2025 15:13:00 GMT-0500 (Central Daylight Time),364572.09999990463,1500,O,None,1516,3,1,3791.0,360781.09999990463,7212,NTS,B,1
6,1,prac,1,C,circle.png,1,m,Wed Sep 03 2025 15:13:00 GMT-0500 (Central Daylight Time),368239.09999990463,2000,O,m,872,5,1,3659.699999809265,364579.40000009537,7212,NTS,B,2
8,1,prac,1,C,triangle.png,0,m,Wed Sep 03 2025 15:13:00 GMT-0500 (Central Daylight Time),371936.5,1400,O,None,1516,7,1,3690.9000000953674,368245.59999990463,7212,NTS,B,3
1,2,prac,1,C,circle.png,1,z,Wed Sep 03 2025 15:13:00 GMT-0500 (Central Daylight Time),375469.80000019073,1700,O,z,1034,1,1,3526.1000003814697,371943.69999980927,7212,NTS,B,4
4,3,prac,1,C,circle.png,1,z,Wed Sep 03 2025 15:13:00 GMT-0500 (Central Daylight Time),378168.80000019073,1000,O,z,927,4,1,2691.2000002861023,375477.59999990463,7212,NTS,B,5
6,3,prac,1,C,circle.png,0,m,Wed Sep 03 2025 15:13:00 GMT-0500 (Central Daylight Time),381850.59999990463,2000,O,z,901,5,1,3676.0,378174.59999990463,7212,NTS,B,6
9,3,prac,1,C,circle.png,0,m,Wed Sep 03 2025 15:13:00 GMT-0500 (Central Daylight Time),386034.0,1900,O,None,1514,8,1,4173.400000095367,381860.59999990463,7212,NTS,B,7
4,4,prac,1,C,circle.png,1,z,Wed Sep 03 2025 15:13:00 GMT-0500 (Central Daylight Time),388646.19999980927,1000,O,z,821,4,1,2605.699999809265,386040.5,7212,NTS,B,8
9,5,prac,1,C,circle.png,1,m,Wed Sep 03 2025 15:13:00 GMT-0500 (Central Daylight Time),392497.30000019073,1900,O,m,1150,8,1,3847.2000002861023,388650.09999990463,7212,NTS,B,9
7,5,prac,1,C,triangle.png,0,z,Wed Sep 03 2025 15:13:00 GMT-0500 (Central Daylight Time),395979.30000019073,1200,O,None,1501,6,1,3474.9000000953674,392504.40000009537,7212,NTS,B,10
2,5,prac,1,C,triangle.png,0,m,Wed Sep 03 2025 15:13:00 GMT-0500 (Central Daylight Time),399864.0,1600,O,None,1516,2,1,3875.0,395989.0,7212,NTS,B,11
8,6,prac,1,C,triangle.png,1,m,Wed Sep 03 2025 15:13:00 GMT-0500 (Central Daylight Time),403143.0,1400,O,m,1087,7,1,3273.5,399869.5,7212,NTS,B,12
4,0,prac,2,C,circle.png,0,z,Wed Sep 03 2025 15:13:00 GMT-0500 (Central Daylight Time),443146.19999980927,1000,O,None,1516,4,1,3289.5999999046326,439856.59999990463,7212,NTS,B,1
8,0,prac,2,C,triangle.png,0,m,Wed Sep 03 2025 15:13:00 GMT-0500 (Central Daylight Time),446847.0,1400,O,None,1515,7,1,3691.5999999046326,443155.40000009537,7212,NTS,B,2
9,1,prac,2,C,circle.png,1,m,Wed Sep 03 2025 15:13:00 GMT-0500 (Central Daylight Time),450211.19999980927,1900,O,m,681,8,1,3356.8999996185303,446854.30000019073,7212,NTS,B,3
3,2,prac,2,C,triangle.png,1,z,Wed Sep 03 2025 15:13:00 GMT-0500 (Central Daylight Time),453592.90000009537,1500,O,z,1094,3,1,3375.2000002861023,450217.69999980927,7212,NTS,B,4
2,3,prac,2,C,triangle.png,1,m,Wed Sep 03 2025 15:13:00 GMT-0500 (Central Daylight Time),456977.59999990463,1600,O,m,997,2,1,3375.0999999046326,453602.5,7212,NTS,B,5
2,4,prac,2,C,triangle.png,1,m,Wed Sep 03 2025 15:13:00 GMT-0500 (Central Daylight Time),460260.19999980927,1600,O,m,899,2,1,3270.7999997138977,456989.40000009537,7212,NTS,B,6
3,4,prac,2,C,triangle.png,0,z,Wed Sep 03 2025 15:13:00 GMT-0500 (Central Daylight Time),463289.59999990463,1500,O,m,734,3,1,3024.0,460265.59999990463,7212,NTS,B,7
7,5,prac,2,C,triangle.png,1,z,Wed Sep 03 2025 15:13:00 GMT-0500 (Central Daylight Time),466306.5,1200,O,z,1017,6,1,3006.9000000953674,463299.59999990463,7212,NTS,B,8
4,5,prac,2,C,circle.png,0,z,Wed Sep 03 2025 15:13:00 GMT-0500 (Central Daylight Time),468888.69999980927,1000,O,m,791,4,1,2573.5999999046326,466315.09999990463,7212,NTS,B,9
1,6,prac,2,C,circle.png,1,z,Wed Sep 03 2025 15:13:00 GMT-0500 (Central Daylight Time),472604.90000009537,1700,O,z,1221,1,1,3709.0,468895.90000009537,7212,NTS,B,10
9,7,prac,2,C,circle.png,1,m,Wed Sep 03 2025 15:13:00 GMT-0500 (Central Daylight Time),476252.69999980927,1900,O,m,951,8,1,3640.699999809265,472612.0,7212,NTS,B,11
6,7,prac,2,C,circle.png,0,m,Wed Sep 03 2025 15:13:00 GMT-0500 (Central Daylight Time),480369.19999980927,2000,O,z,1328,5,1,4104.299999713898,476264.90000009537,7212,NTS,B,12
7,0,test,1,C,triangle.png,0,z,Wed Sep 03 2025 15:13:00 GMT-0500 (Central Daylight Time),503411.69999980927,1700,O,None,1515,22,1,3226.699999809265,500185.0,7212,NTS,B,1
8,0,test,1,C,triangle.png,0,m,Wed Sep 03 2025 15:13:00 GMT-0500 (Central Daylight Time),506543.5,1600,O,None,1515,23,1,3125.199999809265,503418.30000019073,7212,NTS,B,2
1,1,test,1,C,triangle.png,1,z,Wed Sep 03 2025 15:13:00 GMT-0500 (Central Daylight Time),509644.0,1900,O,z,1167,9,1,3095.699999809265,506548.30000019073,7212,NTS,B,3
6,2,test,1,C,triangle.png,1,m,Wed Sep 03 2025 15:13:00 GMT-0500 (Central Daylight Time),511459.5,1000,O,m,798,13,1,1811.5,509648.0,7212,NTS,B,4
3,3,test,1,C,triangle.png,1,z,Wed Sep 03 2025 15:13:00 GMT-0500 (Central Daylight Time),513857.30000019073,1200,O,z,1177,3,1,2394.4000000953674,511462.90000009537,7212,NTS,B,5
9,3,test,1,C,circle.png,0,m,Wed Sep 03 2025 15:13:00 GMT-0500 (Central Daylight Time),516725.30000019073,1500,O,z,1339,8,1,2863.300000190735,513862.0,7212,NTS,B,6
9,4,test,1,C,circle.png,1,m,Wed Sep 03 2025 15:13:00 GMT-0500 (Central Daylight Time),519139.80000019073,1500,O,m,891,24,1,2411.5,516728.30000019073,7212,NTS,B,7
7,5,test,1,C,circle.png,1,m,Wed Sep 03 2025 15:13:00 GMT-0500 (Central Daylight Time),522123.0,2000,O,m,951,14,1,2979.5,519143.5,7212,NTS,B,8
6,6,test,1,C,circle.png,1,m,Wed Sep 03 2025 15:13:00 GMT-0500 (Central Daylight Time),525120.0,1900,O,m,1078,21,1,2991.800000190735,522128.19999980927,7212,NTS,B,9
4,7,test,1,C,circle.png,1,z,Wed Sep 03 2025 15:13:00 GMT-0500 (Central Daylight Time),527253.1999998093,1400,O,z,715,4,1,2128.3999996185303,525124.8000001907,7212,NTS,B,10
2,8,test,1,C,circle.png,1,z,Wed Sep 03 2025 15:13:00 GMT-0500 (Central Daylight Time),530035.5,1700,O,z,1049,10,1,2775.0999999046326,527260.4000000954,7212,NTS,B,11
1,8,test,1,C,triangle.png,0,z,Wed Sep 03 2025 15:13:00 GMT-0500 (Central Daylight Time),533467.0999999046,1900,O,None,1513,17,1,3425.2999997138977,530041.8000001907,7212,NTS,B,12
6,9,test,1,C,circle.png,1,m,Wed Sep 03 2025 15:13:00 GMT-0500 (Central Daylight Time),536667.1999998093,1900,O,m,1277,5,1,3195.2999997138977,533471.9000000954,7212,NTS,B,13
3,9,test,1,C,circle.png,0,z,Wed Sep 03 2025 15:13:00 GMT-0500 (Central Daylight Time),539632.4000000954,1600,O,m,1336,11,1,2961.4000000953674,536671.0,7212,NTS,B,14
8,10,test,1,C,triangle.png,1,m,Wed Sep 03 2025 15:13:00 GMT-0500 (Central Daylight Time),542599.3000001907,1600,O,m,1338,7,1,2961.300000190735,539638.0,7212,NTS,B,15
9,10,test,1,C,triangle.png,0,z,Wed Sep 03 2025 15:13:00 GMT-0500 (Central Daylight Time),545531.4000000954,1400,O,None,1514,16,1,2926.5,542604.9000000954,7212,NTS,B,16
7,11,test,1,C,triangle.png,1,z,Wed Sep 03 2025 15:13:00 GMT-0500 (Central Daylight Time),548279.8000001907,1700,O,z,1021,6,1,2742.800000190735,545537.0,7212,NTS,B,17
3,11,test,1,C,circle.png,0,z,Wed Sep 03 2025 15:13:00 GMT-0500 (Central Daylight Time),551413.5999999046,1600,O,None,1516,19,1,3129.5,548284.0999999046,7212,NTS,B,18
4,11,test,1,C,triangle.png,0,m,Wed Sep 03 2025 15:13:00 GMT-0500 (Central Daylight Time),554446.6999998093,1500,O,None,1517,20,1,3026.8999996185303,551419.8000001907,7212,NTS,B,19
2,12,test,1,C,circle.png,1,z,Wed Sep 03 2025 15:13:00 GMT-0500 (Central Daylight Time),557494.4000000954,1700,O,z,1333,18,1,3042.9000000953674,554451.5,7212,NTS,B,20
8,13,test,1,C,circle.png,1,m,Wed Sep 03 2025 15:13:00 GMT-0500 (Central Daylight Time),559609.0,1200,O,m,885,15,1,2109.5999999046326,557499.4000000954,7212,NTS,B,21
4,13,test,1,C,triangle.png,0,m,Wed Sep 03 2025 15:13:00 GMT-0500 (Central Daylight Time),562641.3000001907,1500,O,None,1514,12,1,3029.4000000953674,559611.9000000954,7212,NTS,B,22
1,14,test,1,C,circle.png,1,z,Wed Sep 03 2025 15:13:00 GMT-0500 (Central Daylight Time),564991.4000000954,1000,O,z,1323,1,1,2341.800000190735,562649.5999999046,7212,NTS,B,23
2,14,test,1,C,triangle.png,0,m,Wed Sep 03 2025 15:13:00 GMT-0500 (Central Daylight Time),568523.0999999046,2000,O,None,1515,2,1,3525.7999997138977,564997.3000001907,7212,NTS,B,24
2,0,test,2,C,triangle.png,0,m,Wed Sep 03 2025 15:13:00 GMT-0500 (Central Daylight Time),599530.5,2000,O,None,1515,2,1,3526.0,596004.5,7212,NTS,B,1
2,1,test,2,C,circle.png,1,z,Wed Sep 03 2025 15:13:00 GMT-0500 (Central Daylight Time),602113.0999999046,1700,O,z,852,18,1,2574.4000000953674,599538.6999998093,7212,NTS,B,2
9,2,test,2,C,circle.png,1,m,Wed Sep 03 2025 15:13:00 GMT-0500 (Central Daylight Time),604695.0,1500,O,m,1055,8,1,2576.0,602119.0,7212,NTS,B,3
1,3,test,2,C,triangle.png,1,z,Wed Sep 03 2025 15:13:00 GMT-0500 (Central Daylight Time),608111.8000001907,1900,O,z,1489,9,1,3412.300000190735,604699.5,7212,NTS,B,4
4,4,test,2,C,triangle.png,1,m,Wed Sep 03 2025 15:13:00 GMT-0500 (Central Daylight Time),610693.8000001907,1500,O,m,1057,12,1,2577.7000002861023,608116.0999999046,7212,NTS,B,5
7,5,test,2,C,circle.png,1,m,Wed Sep 03 2025 15:13:00 GMT-0500 (Central Daylight Time),613825.5999999046,2000,O,m,1103,22,1,3126.7999997138977,610698.8000001907,7212,NTS,B,6
3,6,test,2,C,circle.png,1,z,Wed Sep 03 2025 15:13:00 GMT-0500 (Central Daylight Time),616558.6999998093,1600,O,z,1101,11,1,2727.199999809265,613831.5,7212,NTS,B,7
7,7,test,2,C,circle.png,1,m,Wed Sep 03 2025 15:13:00 GMT-0500 (Central Daylight Time),619608.1999998093,2000,O,m,1020,14,1,3043.0999999046326,616565.0999999046,7212,NTS,B,8
2,7,test,2,C,circle.png,0,z,Wed Sep 03 2025 15:13:00 GMT-0500 (Central Daylight Time),622790.6999998093,1700,O,m,1465,10,1,3176.699999809265,619614.0,7212,NTS,B,9
3,8,test,2,C,circle.png,1,z,Wed Sep 03 2025 15:13:00 GMT-0500 (Central Daylight Time),625622.5,1600,O,z,1205,19,1,2826.699999809265,622795.8000001907,7212,NTS,B,10
8,9,test,2,C,circle.png,1,m,Wed Sep 03 2025 15:13:00 GMT-0500 (Central Daylight Time),627539.0999999046,1200,O,m,693,15,1,1912.6999998092651,625626.4000000954,7212,NTS,B,11
6,10,test,2,C,triangle.png,1,m,Wed Sep 03 2025 15:13:00 GMT-0500 (Central Daylight Time),630004.6999998093,1000,O,m,1434,13,1,2461.199999809265,627543.5,7212,NTS,B,12
9,11,test,2,C,triangle.png,1,z,Wed Sep 03 2025 15:13:00 GMT-0500 (Central Daylight Time),632902.6999998093,1400,O,z,1480,16,1,2891.8999996185303,630010.8000001907,7212,NTS,B,13
8,11,test,2,C,triangle.png,0,m,Wed Sep 03 2025 15:13:00 GMT-0500 (Central Daylight Time),636036.4000000954,1600,O,None,1516,7,1,3129.2000002861023,632907.1999998093,7212,NTS,B,14
6,11,test,2,C,circle.png,0,m,Wed Sep 03 2025 15:13:00 GMT-0500 (Central Daylight Time),639451.6999998093,1900,O,None,1501,5,1,3409.7999997138977,636041.9000000954,7212,NTS,B,15
6,11,test,2,C,triangle.png,0,m,Wed Sep 03 2025 15:13:00 GMT-0500 (Central Daylight Time),641985.0,1000,O,None,1517,21,1,2526.9000000953674,639458.0999999046,7212,NTS,B,16
4,12,test,2,C,triangle.png,1,m,Wed Sep 03 2025 15:13:00 GMT-0500 (Central Daylight Time),644999.5999999046,1500,O,m,1488,20,1,3009.699999809265,641989.9000000954,7212,NTS,B,17
8,13,test,2,C,circle.png,1,m,Wed Sep 03 2025 15:13:00 GMT-0500 (Central Daylight Time),647566.9000000954,1200,O,m,1351,23,1,2562.300000190735,645004.5999999046,7212,NTS,B,18
9,13,test,2,C,triangle.png,0,z,Wed Sep 03 2025 15:13:00 GMT-0500 (Central Daylight Time),650497.9000000954,1400,O,None,1516,24,1,2925.5999999046326,647572.3000001907,7212,NTS,B,19
4,14,test,2,C,circle.png,1,z,Wed Sep 03 2025 15:13:00 GMT-0500 (Central Daylight Time),652931.0,1400,O,z,1001,4,1,2428.699999809265,650502.3000001907,7212,NTS,B,20
7,14,test,2,C,triangle.png,0,z,Wed Sep 03 2025 15:13:00 GMT-0500 (Central Daylight Time),656128.8000001907,1700,O,m,1477,6,1,3192.4000000953674,652936.4000000954,7212,NTS,B,21
1,15,test,2,C,circle.png,1,z,Wed Sep 03 2025 15:13:00 GMT-0500 (Central Daylight Time),658328.3000001907,1000,O,z,1171,1,1,2194.0,656134.3000001907,7212,NTS,B,22
1,16,test,2,C,triangle.png,1,z,Wed Sep 03 2025 15:13:00 GMT-0500 (Central Daylight Time),661494.5999999046,1900,O,z,1230,17,1,3160.7999997138977,658333.8000001907,7212,NTS,B,23
3,17,test,2,C,triangle.png,1,z,Wed Sep 03 2025 15:13:00 GMT-0500 (Central Daylight Time),663625.9000000954,1200,O,z,911,3,1,2125.0999999046326,661500.8000001907,7212,NTS,B,24
9,1,test,3,C,circle.png,1,m,Wed Sep 03 2025 15:13:00 GMT-0500 (Central Daylight Time),670875.5,1500,O,m,1176,24,1,2695.0999999046326,668180.4000000954,7212,NTS,B,1
3,1,test,3,C,triangle.png,0,z,Wed Sep 03 2025 15:13:00 GMT-0500 (Central Daylight Time),673339.8000001907,1200,O,m,1233,19,1,2460.0,670879.8000001907,7212,NTS,B,2
6,1,test,3,C,triangle.png,0,m,Wed Sep 03 2025 15:13:00 GMT-0500 (Central Daylight Time),675705.9000000954,1000,O,z,1335,13,1,2357.300000190735,673348.5999999046,7212,NTS,B,3
8,2,test,3,C,triangle.png,1,m,Wed Sep 03 2025 15:13:00 GMT-0500 (Central Daylight Time),678288.8000001907,1600,O,m,954,7,1,2578.7000002861023,675710.0999999046,7212,NTS,B,4
9,2,test,3,C,triangle.png,0,z,Wed Sep 03 2025 15:13:00 GMT-0500 (Central Daylight Time),681221.5999999046,1400,O,None,1516,16,1,2928.2999997138977,678293.3000001907,7212,NTS,B,5
6,3,test,3,C,circle.png,1,m,Wed Sep 03 2025 15:13:00 GMT-0500 (Central Daylight Time),684335.8000001907,1900,O,m,1187,21,1,3106.1000003814697,681229.6999998093,7212,NTS,B,6
6,4,test,3,C,circle.png,1,m,Wed Sep 03 2025 15:13:00 GMT-0500 (Central Daylight Time),686918.9000000954,1900,O,m,665,5,1,2576.800000190735,684342.0999999046,7212,NTS,B,7
9,5,test,3,C,circle.png,1,m,Wed Sep 03 2025 15:13:00 GMT-0500 (Central Daylight Time),689185.0999999046,1500,O,m,742,8,1,2259.699999809265,686925.4000000954,7212,NTS,B,8
4,6,test,3,C,circle.png,1,z,Wed Sep 03 2025 15:13:00 GMT-0500 (Central Daylight Time),691533.4000000954,1400,O,z,924,20,1,2342.2000002861023,689191.1999998093,7212,NTS,B,9
2,6,test,3,C,triangle.png,0,m,Wed Sep 03 2025 15:13:00 GMT-0500 (Central Daylight Time),695067.5999999046,2000,O,None,1516,18,1,3528.0,691539.5999999046,7212,NTS,B,10
4,6,test,3,C,circle.png,0,z,Wed Sep 03 2025 15:13:00 GMT-0500 (Central Daylight Time),697982.9000000954,1400,O,None,1501,4,1,2907.300000190735,695075.5999999046,7212,NTS,B,11
7,6,test,3,C,triangle.png,0,z,Wed Sep 03 2025 15:13:00 GMT-0500 (Central Daylight Time),700898.0999999046,1700,O,m,1195,6,1,2910.0,697988.0999999046,7212,NTS,B,12
2,7,test,3,C,triangle.png,1,m,Wed Sep 03 2025 15:13:00 GMT-0500 (Central Daylight Time),704262.8000001907,2000,O,m,1346,2,1,3356.7000002861023,700906.0999999046,7212,NTS,B,13
3,8,test,3,C,triangle.png,1,z,Wed Sep 03 2025 15:13:00 GMT-0500 (Central Daylight Time),706612.3000001907,1200,O,z,1125,3,1,2342.5,704269.8000001907,7212,NTS,B,14
3,9,test,3,C,circle.png,1,z,Wed Sep 03 2025 15:13:00 GMT-0500 (Central Daylight Time),709261.1999998093,1600,O,z,1024,11,1,2639.3999996185303,706621.8000001907,7212,NTS,B,15
2,9,test,3,C,circle.png,0,z,Wed Sep 03 2025 15:13:00 GMT-0500 (Central Daylight Time),712494.5999999046,1700,O,None,1515,10,1,3227.2999997138977,709267.3000001907,7212,NTS,B,16
8,10,test,3,C,circle.png,1,m,Wed Sep 03 2025 15:13:00 GMT-0500 (Central Daylight Time),714510.6999998093,1200,O,m,784,15,1,2009.3999996185303,712501.3000001907,7212,NTS,B,17
7,11,test,3,C,triangle.png,1,z,Wed Sep 03 2025 15:13:00 GMT-0500 (Central Daylight Time),717642.9000000954,1700,O,z,1411,22,1,3126.5,714516.4000000954,7212,NTS,B,18
1,12,test,3,C,circle.png,1,z,Wed Sep 03 2025 15:13:00 GMT-0500 (Central Daylight Time),719958.6999998093,1000,O,z,1298,1,1,2310.199999809265,717648.5,7212,NTS,B,19
7,12,test,3,C,circle.png,0,m,Wed Sep 03 2025 15:13:00 GMT-0500 (Central Daylight Time),723490.9000000954,2000,O,None,1516,14,1,3525.800000190735,719965.0999999046,7212,NTS,B,20
1,13,test,3,C,circle.png,1,z,Wed Sep 03 2025 15:13:00 GMT-0500 (Central Daylight Time),725673.9000000954,1000,O,z,1153,17,1,2176.300000190735,723497.5999999046,7212,NTS,B,21
1,14,test,3,C,triangle.png,1,z,Wed Sep 03 2025 15:13:00 GMT-0500 (Central Daylight Time),728688.1999998093,1900,O,z,1094,9,1,3009.0,725679.1999998093,7212,NTS,B,22
8,15,test,3,C,triangle.png,1,m,Wed Sep 03 2025 15:13:00 GMT-0500 (Central Daylight Time),731705.5,1600,O,m,1383,23,1,3013.4000000953674,728692.0999999046,7212,NTS,B,23
4,16,test,3,C,triangle.png,1,m,Wed Sep 03 2025 15:13:00 GMT-0500 (Central Daylight Time),734703.0,1500,O,m,1477,12,1,2991.199999809265,731711.8000001907,7212,NTS,B,24
2,1,test,4,C,triangle.png,1,m,Wed Sep 03 2025 15:13:00 GMT-0500 (Central Daylight Time),740117.8000001907,2000,O,m,1403,18,1,3429.0,736688.8000001907,7212,NTS,B,1
3,2,test,4,C,circle.png,1,z,Wed Sep 03 2025 15:13:00 GMT-0500 (Central Daylight Time),742669.3000001907,1600,O,z,926,11,1,2545.1000003814697,740124.1999998093,7212,NTS,B,2
7,3,test,4,C,circle.png,1,m,Wed Sep 03 2025 15:13:00 GMT-0500 (Central Daylight Time),745435.0999999046,2000,O,m,744,14,1,2760.4000000953674,742674.6999998093,7212,NTS,B,3
4,3,test,4,C,circle.png,0,z,Wed Sep 03 2025 15:13:00 GMT-0500 (Central Daylight Time),748366.0,1400,O,None,1515,4,1,2925.5,745440.5,7212,NTS,B,4
4,4,test,4,C,circle.png,1,z,Wed Sep 03 2025 15:13:00 GMT-0500 (Central Daylight Time),750481.9000000954,1400,O,z,685,20,1,2108.5999999046326,748373.3000001907,7212,NTS,B,5
9,5,test,4,C,circle.png,1,m,Wed Sep 03 2025 15:13:00 GMT-0500 (Central Daylight Time),753166.0,1500,O,m,1166,24,1,2677.800000190735,750488.1999998093,7212,NTS,B,6
3,5,test,4,C,triangle.png,0,z,Wed Sep 03 2025 15:13:00 GMT-0500 (Central Daylight Time),755898.4000000954,1200,O,None,1516,19,1,2725.800000190735,753172.5999999046,7212,NTS,B,7
1,6,test,4,C,triangle.png,1,z,Wed Sep 03 2025 15:13:00 GMT-0500 (Central Daylight Time),759312.9000000954,1900,O,z,1487,9,1,3407.5,755905.4000000954,7212,NTS,B,8
6,6,test,4,C,circle.png,0,m,Wed Sep 03 2025 15:13:00 GMT-0500 (Central Daylight Time),762729.8000001907,1900,O,None,1501,21,1,3410.7000002861023,759319.0999999046,7212,NTS,B,9
2,7,test,4,C,circle.png,1,z,Wed Sep 03 2025 15:13:00 GMT-0500 (Central Daylight Time),765277.8000001907,1700,O,z,821,10,1,2541.5,762736.3000001907,7212,NTS,B,10
9,8,test,4,C,circle.png,1,m,Wed Sep 03 2025 15:13:00 GMT-0500 (Central Daylight Time),767644.0999999046,1500,O,m,833,8,1,2362.699999809265,765281.4000000954,7212,NTS,B,11
6,9,test,4,C,circle.png,1,m,Wed Sep 03 2025 15:13:00 GMT-0500 (Central Daylight Time),770443.0,1900,O,m,867,5,1,2793.5999999046326,767649.4000000954,7212,NTS,B,12
7,10,test,4,C,triangle.png,1,z,Wed Sep 03 2025 15:13:00 GMT-0500 (Central Daylight Time),773293.6999998093,1700,O,z,1123,22,1,2848.0999999046326,770445.5999999046,7212,NTS,B,13
1,11,test,4,C,circle.png,1,z,Wed Sep 03 2025 15:13:00 GMT-0500 (Central Daylight Time),775289.6999998093,1000,O,z,977,17,1,1993.0,773296.6999998093,7212,NTS,B,14
7,12,test,4,C,triangle.png,1,z,Wed Sep 03 2025 15:13:00 GMT-0500 (Central Daylight Time),778423.3000001907,1700,O,z,1403,6,1,3129.9000000953674,775293.4000000954,7212,NTS,B,15
8,13,test,4,C,circle.png,1,m,Wed Sep 03 2025 15:13:00 GMT-0500 (Central Daylight Time),781007.0,1200,O,m,1357,15,1,2579.5,778427.5,7212,NTS,B,16
2,14,test,4,C,triangle.png,1,m,Wed Sep 03 2025 15:13:00 GMT-0500 (Central Daylight Time),784154.6999998093,2000,O,m,1116,2,1,3143.0,781011.6999998093,7212,NTS,B,17
8,15,test,4,C,triangle.png,1,m,Wed Sep 03 2025 15:13:00 GMT-0500 (Central Daylight Time),787136.9000000954,1600,O,m,1352,7,1,2976.9000000953674,784160.0,7212,NTS,B,18
4,16,test,4,C,triangle.png,1,m,Wed Sep 03 2025 15:13:00 GMT-0500 (Central Daylight Time),789686.4000000954,1500,O,m,1024,12,1,2544.7000002861023,787141.6999998093,7212,NTS,B,19
6,17,test,4,C,triangle.png,1,m,Wed Sep 03 2025 15:13:00 GMT-0500 (Central Daylight Time),791385.6999998093,1000,O,m,670,13,1,1693.8999996185303,789691.8000001907,7212,NTS,B,20
1,18,test,4,C,circle.png,1,z,Wed Sep 03 2025 15:13:00 GMT-0500 (Central Daylight Time),793419.1999998093,1000,O,z,1010,1,1,2029.0,791390.1999998093,7212,NTS,B,21
8,19,test,4,C,triangle.png,1,m,Wed Sep 03 2025 15:13:00 GMT-0500 (Central Daylight Time),795935.0999999046,1600,O,m,900,23,1,2512.0999999046326,793423.0,7212,NTS,B,22
9,19,test,4,C,triangle.png,0,z,Wed Sep 03 2025 15:13:00 GMT-0500 (Central Daylight Time),798867.5999999046,1400,O,None,1515,16,1,2927.5999999046326,795940.0,7212,NTS,B,23
3,20,test,4,C,triangle.png,1,z,Wed Sep 03 2025 15:13:00 GMT-0500 (Central Daylight Time),801116.1999998093,1200,O,z,1016,3,1,2242.7999997138977,798873.4000000954,7212,NTS,B,24
