acc_sum,block_c,block_dur,condition,correct,correct_response,countdown,datetime,endtime,project,response,response_time,response_time_test1_response,response_time_test2_response,row_sel,same,session_number,start_end,starttime,stim1,stim2,subject_id,task,task_vers,time_test1,time_test2,trial
1,1,0.0,prac,1,m,30000.0,Tue Jul 22 2025 14:22:55 GMT-0400 (Eastern Daylight Time),68819.30000019073,I,m,1199,,,2,no,2,2725.600000143051,66093.70000004768,practrial2.png,practrial2b.png,9015,PC,C,,,1
2,1,0.0,prac,1,m,30000.0,Tue Jul 22 2025 14:22:55 GMT-0400 (Eastern Daylight Time),72135.80000019073,I,m,1780,,,4,no,2,3311.0,68824.80000019073,practrial4.png,practrial4b.png,9015,PC,C,,,2
3,1,0.0,prac,1,z,30000.0,Tue Jul 22 2025 14:22:55 GMT-0400 (Eastern Daylight Time),74602.80000019073,I,z,943,,,3,yes,2,2461.300000190735,72141.5,practrial3.png,practrial3.png,9015,PC,C,,,3
4,1,0.0,prac,1,z,30000.0,Tue Jul 22 2025 14:22:55 GMT-0400 (Eastern Daylight Time),77785.80000019073,I,z,1634,,,1,yes,2,3169.0,74616.80000019073,practrial1.png,practrial1.png,9015,PC,C,,,4
5,1,0.0,prac,1,z,30000.0,Tue Jul 22 2025 14:22:55 GMT-0400 (Eastern Daylight Time),80885.70000004768,I,z,1565,,,5,yes,2,3094.2999999523163,77791.40000009537,practrial5.png,practrial5.png,9015,PC,C,,,5
6,1,0.0,prac,1,m,30000.0,Tue Jul 22 2025 14:22:55 GMT-0400 (Eastern Daylight Time),83886.30000019073,I,m,1474,,,6,no,2,2995.0,80891.30000019073,practrial6.png,practrial6b.png,9015,PC,C,,,6
1,1,1.9830000400543213,test,1,z,28016.99995994568,Tue Jul 22 2025 14:22:55 GMT-0400 (Eastern Daylight Time),110236.40000009537,I,z,1953,1953,,1,yes,2,1969.9000000953674,108266.5,test1trial1.png,test1trial1.png,9015,PC,C,97229,,1
2,1,3.183000087738037,test,1,m,26816.999912261963,Tue Jul 22 2025 14:22:55 GMT-0400 (Eastern Daylight Time),111436.30000019073,I,m,1177,1177,,2,no,2,1193.1000001430511,110243.20000004768,test1trial2.png,test1trial2b.png,9015,PC,C,99206,,2
3,1,4.7829999923706055,test,1,z,25217.000007629395,Tue Jul 22 2025 14:22:55 GMT-0400 (Eastern Daylight Time),113036.30000019073,I,z,1577,1577,,3,yes,2,1593.3000001907349,111443.0,test1trial3.png,test1trial3.png,9015,PC,C,100405,,3
4,1,6.065999984741211,test,1,m,23934.00001525879,Tue Jul 22 2025 14:22:55 GMT-0400 (Eastern Daylight Time),114319.30000019073,I,m,1273,1273,,4,no,2,1277.0,113042.30000019073,test1trial4.png,test1trial4b.png,9015,PC,C,102004,,4
5,1,7.317000150680542,test,1,z,22682.999849319458,Tue Jul 22 2025 14:22:55 GMT-0400 (Eastern Daylight Time),115569.70000004768,I,z,1242,1242,,5,yes,2,1246.7999999523163,114322.90000009537,test1trial5.png,test1trial5.png,9015,PC,C,103285,,5
6,1,8.466000080108643,test,1,m,21533.999919891357,Tue Jul 22 2025 14:22:55 GMT-0400 (Eastern Daylight Time),116719.30000019073,I,m,1134,1134,,6,no,2,1139.5,115579.80000019073,test1trial6.png,test1trial6b.png,9015,PC,C,104544,,6
7,1,9.450000047683716,test,1,z,20549.999952316284,Tue Jul 22 2025 14:22:55 GMT-0400 (Eastern Daylight Time),117702.60000014305,I,z,968,968,,7,yes,2,977.4000000953674,116725.20000004768,test1trial7.png,test1trial7.png,9015,PC,C,105687,,7
8,1,11.966000080108643,test,1,m,18033.999919891357,Tue Jul 22 2025 14:22:55 GMT-0400 (Eastern Daylight Time),120219.10000014305,I,m,2498,2498,,8,no,2,2513.2999999523163,117705.80000019073,test1trial8.png,test1trial8b.png,9015,PC,C,106668,,8
9,1,13.14900016784668,test,1,z,16850.99983215332,Tue Jul 22 2025 14:22:55 GMT-0400 (Eastern Daylight Time),121402.40000009537,I,z,1164,1164,,9,yes,2,1178.4000000953674,120224.0,test1trial9.png,test1trial9.png,9015,PC,C,109186,,9
10,1,14.317000150680542,test,1,m,15682.999849319458,Tue Jul 22 2025 14:22:55 GMT-0400 (Eastern Daylight Time),122569.70000004768,I,m,1151,1151,,10,no,2,1163.8999998569489,121405.80000019073,test1trial10.png,test1trial10b.png,9015,PC,C,110368,,10
11,1,15.483000040054321,test,1,z,14516.999959945679,Tue Jul 22 2025 14:22:55 GMT-0400 (Eastern Daylight Time),123736.30000019073,I,z,1147,1147,,11,yes,2,1159.1000001430511,122577.20000004768,test1trial11.png,test1trial11.png,9015,PC,C,111539,,11
12,1,17.967000007629395,test,1,m,12032.999992370605,Tue Jul 22 2025 14:22:55 GMT-0400 (Eastern Daylight Time),126219.5,I,m,2457,2457,,12,no,2,2474.5,123745.0,test1trial12.png,test1trial12b.png,9015,PC,C,112710,,12
13,1,19.16700005531311,test,1,m,10832.99994468689,Tue Jul 22 2025 14:22:55 GMT-0400 (Eastern Daylight Time),127419.70000004768,I,m,1177,1177,,13,no,2,1191.2999999523163,126228.40000009537,test1trial13.png,test1trial13b.png,9015,PC,C,115190,,13
14,1,20.41700005531311,test,1,m,9582.99994468689,Tue Jul 22 2025 14:22:55 GMT-0400 (Eastern Daylight Time),128669.60000014305,I,m,1222,1222,,14,no,2,1241.2000000476837,127428.40000009537,test1trial14.png,test1trial14b.png,9015,PC,C,116393,,14
15,1,21.683000087738037,test,1,z,8316.999912261963,Tue Jul 22 2025 14:22:55 GMT-0400 (Eastern Daylight Time),129936.30000019073,I,z,1254,1254,,15,yes,2,1257.5,128678.80000019073,test1trial15.png,test1trial15.png,9015,PC,C,117640,,15
16,1,22.8510000705719,test,1,m,7148.999929428101,Tue Jul 22 2025 14:22:55 GMT-0400 (Eastern Daylight Time),131103.60000014305,I,m,1154,1154,,16,no,2,1158.0,129945.60000014305,test1trial16.png,test1trial16b.png,9015,PC,C,118910,,16
17,1,24.23300004005432,test,1,z,5766.999959945679,Tue Jul 22 2025 14:22:55 GMT-0400 (Eastern Daylight Time),132486.30000019073,I,z,1368,1368,,17,yes,2,1376.3000001907349,131110.0,test1trial17.png,test1trial17.png,9015,PC,C,120072,,17
18,1,25.450000047683716,test,1,m,4549.999952316284,Tue Jul 22 2025 14:22:55 GMT-0400 (Eastern Daylight Time),133703.0,I,m,1196,1196,,18,no,2,1207.7999999523163,132495.20000004768,test1trial18.png,test1trial18b.png,9015,PC,C,121459,,18
19,1,27.433000087738037,test,1,m,2566.999912261963,Tue Jul 22 2025 14:22:55 GMT-0400 (Eastern Daylight Time),135686.5,I,m,1967,1967,,19,no,2,1977.1999998092651,133709.30000019073,test1trial19.png,test1trial19b.png,9015,PC,C,122672,,19
20,1,29.266000032424927,test,1,z,733.9999675750732,Tue Jul 22 2025 14:22:55 GMT-0400 (Eastern Daylight Time),137519.40000009537,I,z,1823,1823,,20,yes,2,1824.7999999523163,135694.60000014305,test1trial20.png,test1trial20.png,9015,PC,C,124656,,20
20,1,30.01699995994568,test,0,z,-16.99995994567871,Tue Jul 22 2025 14:22:55 GMT-0400 (Eastern Daylight Time),138269.80000019073,I,None,737,737,,21,yes,2,740.4000000953674,137529.40000009537,test1trial21.png,test1trial21.png,9015,PC,C,126493,,21
1,2,1.065999984741211,test,1,m,28934.00001525879,Tue Jul 22 2025 14:22:55 GMT-0400 (Eastern Daylight Time),141635.90000009537,I,m,1048,,1048.0,1,no,2,4106.5,137529.40000009537,test2trial1.png,test2trial1b.png,9015,PC,C,,129542.0,1
2,2,2.25,test,1,m,27750.0,Tue Jul 22 2025 14:22:55 GMT-0400 (Eastern Daylight Time),142819.70000004768,I,m,1173,,1173.0,2,no,2,5290.299999952316,137529.40000009537,test2trial2.png,test2trial2b.png,9015,PC,C,,130602.0,2
3,2,3.25,test,1,z,26750.0,Tue Jul 22 2025 14:22:55 GMT-0400 (Eastern Daylight Time),143819.70000004768,I,z,979,,979.0,3,yes,2,6290.299999952316,137529.40000009537,test2trial3.png,test2trial3.png,9015,PC,C,,131788.0,3
4,2,4.516000032424927,test,1,z,25483.999967575073,Tue Jul 22 2025 14:22:55 GMT-0400 (Eastern Daylight Time),145086.30000019073,I,z,1245,,1245.0,4,yes,2,7556.900000095367,137529.40000009537,test2trial4.png,test2trial4.png,9015,PC,C,,132787.0,4
5,2,6.199999809265137,test,1,z,23800.000190734863,Tue Jul 22 2025 14:22:55 GMT-0400 (Eastern Daylight Time),146769.60000014305,I,z,1668,,1668.0,5,yes,2,9240.200000047684,137529.40000009537,test2trial5.png,test2trial5.png,9015,PC,C,,134059.0,5
6,2,8.299999952316284,test,1,z,21700.000047683716,Tue Jul 22 2025 14:22:55 GMT-0400 (Eastern Daylight Time),148869.70000004768,I,z,2085,,2085.0,6,yes,2,11340.299999952316,137529.40000009537,test2trial6.png,test2trial6.png,9015,PC,C,,135738.0,6
7,2,9.766000032424927,test,1,m,20233.999967575073,Tue Jul 22 2025 14:22:55 GMT-0400 (Eastern Daylight Time),150336.30000019073,I,m,1456,,1456.0,7,no,2,12806.900000095367,137529.40000009537,test2trial7.png,test2trial7b.png,9015,PC,C,,137839.0,7
8,2,10.815999984741211,test,1,m,19184.00001525879,Tue Jul 22 2025 14:22:55 GMT-0400 (Eastern Daylight Time),151386.10000014305,I,m,1025,,1025.0,8,no,2,13856.700000047684,137529.40000009537,test2trial8.png,test2trial8b.png,9015,PC,C,,139309.0,8
9,2,12.715999841690063,test,1,z,17284.000158309937,Tue Jul 22 2025 14:22:55 GMT-0400 (Eastern Daylight Time),153286.20000004768,I,z,1885,,1885.0,9,yes,2,15756.799999952316,137529.40000009537,test2trial9.png,test2trial9.png,9015,PC,C,,140354.0,9
10,2,13.748999834060669,test,1,z,16251.000165939331,Tue Jul 22 2025 14:22:55 GMT-0400 (Eastern Daylight Time),154319.5,I,z,1024,,1024.0,10,yes,2,16790.099999904633,137529.40000009537,test2trial10.png,test2trial10.png,9015,PC,C,,142255.0,10
11,2,14.815999984741211,test,1,m,15184.000015258789,Tue Jul 22 2025 14:22:55 GMT-0400 (Eastern Daylight Time),155386.0,I,m,1042,,1042.0,11,no,2,17856.599999904633,137529.40000009537,test2trial11.png,test2trial11b.png,9015,PC,C,,143293.0,11
12,2,16.06599998474121,test,1,m,13934.000015258789,Tue Jul 22 2025 14:22:55 GMT-0400 (Eastern Daylight Time),156635.90000009537,I,m,1226,,1226.0,12,no,2,19106.5,137529.40000009537,test2trial12.png,test2trial12b.png,9015,PC,C,,144356.0,12
13,2,17.549000024795532,test,1,z,12450.999975204468,Tue Jul 22 2025 14:22:55 GMT-0400 (Eastern Daylight Time),158119.40000009537,I,z,1469,,1469.0,13,yes,2,20590.0,137529.40000009537,test2trial13.png,test2trial13.png,9015,PC,C,,145601.0,13
14,2,18.8989999294281,test,1,m,11101.0000705719,Tue Jul 22 2025 14:22:55 GMT-0400 (Eastern Daylight Time),159469.20000004768,I,m,1345,,1345.0,14,no,2,21939.799999952316,137529.40000009537,test2trial14.png,test2trial14b.png,9015,PC,C,,147085.0,14
15,2,19.848999977111816,test,1,m,10151.000022888184,Tue Jul 22 2025 14:22:55 GMT-0400 (Eastern Daylight Time),160418.90000009537,I,m,939,,939.0,15,no,2,22889.5,137529.40000009537,test2trial15.png,test2trial15b.png,9015,PC,C,,148435.0,15
16,2,21.932999849319458,test,1,m,8067.000150680542,Tue Jul 22 2025 14:22:55 GMT-0400 (Eastern Daylight Time),162503.10000014305,I,m,2071,,2071.0,16,no,2,24973.700000047684,137529.40000009537,test2trial16.png,test2trial16b.png,9015,PC,C,,149384.0,16
17,2,23.532999992370605,test,1,z,6467.0000076293945,Tue Jul 22 2025 14:22:55 GMT-0400 (Eastern Daylight Time),164103.0,I,z,1580,,1580.0,17,yes,2,26573.599999904633,137529.40000009537,test2trial17.png,test2trial17.png,9015,PC,C,,151475.0,17
18,2,24.682999849319458,test,1,z,5317.000150680542,Tue Jul 22 2025 14:22:55 GMT-0400 (Eastern Daylight Time),165253.0,I,z,1136,,1136.0,18,yes,2,27723.599999904633,137529.40000009537,test2trial18.png,test2trial18.png,9015,PC,C,,153071.0,18
19,2,25.865999937057495,test,1,z,4134.000062942505,Tue Jul 22 2025 14:22:55 GMT-0400 (Eastern Daylight Time),166436.20000004768,I,z,1166,,1166.0,19,yes,2,28906.799999952316,137529.40000009537,test2trial19.png,test2trial19.png,9015,PC,C,,154225.0,19
20,2,26.84999990463257,test,1,z,3150.0000953674316,Tue Jul 22 2025 14:22:55 GMT-0400 (Eastern Daylight Time),167419.60000014305,I,z,960,,960.0,20,yes,2,29890.200000047684,137529.40000009537,test2trial20.png,test2trial20.png,9015,PC,C,,155407.0,20
21,2,29.199999809265137,test,1,z,800.0001907348633,Tue Jul 22 2025 14:22:55 GMT-0400 (Eastern Daylight Time),169769.60000014305,I,z,2327,,2327.0,21,yes,2,32240.200000047684,137529.40000009537,test2trial21.png,test2trial21.png,9015,PC,C,,156392.0,21
21,2,30.016000032424927,test,0,m,-16.000032424926758,Tue Jul 22 2025 14:22:55 GMT-0400 (Eastern Daylight Time),170586.40000009537,I,None,806,,806.0,22,no,2,33057.0,137529.40000009537,test2trial22.png,test2trial22b.png,9015,PC,C,,158741.0,22
