Q,Q1,Q2,Q3,Q4,acc_sum,block,block_c,correct,correct_response,datetime,endtime,project,response,response_time,row_sel,session_number,squiggle1,squiggle1x,squiggle1y,squiggle2,squiggle2x,squiggle2y,squiggle3,squiggle3x,squiggle3y,squiggle4,squiggle4x,squiggle4y,start_end,starttime,subject_id,target_congruent,task,task_vers,testsquiggle,testsquigglex,testsquiggley,time_practice_delay,time_practice_fixation,time_practice_stimuli,time_practice_study,time_test_delay,time_test_fixation,time_test_stimuli,time_test_study,trial
1,1,0,0,0,1,prac,1,1,z,Tue Jun 09 2026 14:27:26 GMT-0500 (Central Daylight Time),122708.5,I,z,1409,1,1,116.bmp,-120,-120,117.bmp,120,-120,118.bmp,-120,120,119.bmp,120,120,10227.200000047684,112481.29999995232,8121,yes,SM,A,116.bmp,-120,-120,116205,110177,118221,112190,,,,,1
3,0,0,1,0,2,prac,1,1,m,Tue Jun 09 2026 14:27:26 GMT-0500 (Central Daylight Time),132955.59999990463,I,m,1419,2,1,120.bmp,-120,-120,121.bmp,120,-120,122.bmp,-120,120,123.bmp,120,120,10243.399999856949,122712.20000004768,8121,no,SM,A,123.bmp,-120,120,126436,120407,128451,122420,,,,,2
4,0,0,0,1,2,prac,1,0,m,Tue Jun 09 2026 14:27:26 GMT-0500 (Central Daylight Time),143768.89999985695,I,None,2001,3,1,124.bmp,-120,-120,125.bmp,120,-120,126.bmp,-120,120,127.bmp,120,120,10806.0,132962.89999985695,8121,no,SM,A,124.bmp,120,120,136682,130658,138699,132667,,,,,3
2,0,1,0,0,2,prac,1,0,z,Tue Jun 09 2026 14:27:26 GMT-0500 (Central Daylight Time),153832.09999990463,I,m,1264,4,1,128.bmp,-120,-120,129.bmp,120,-120,130.bmp,-120,120,131.bmp,120,120,10058.200000047684,143773.89999985695,8121,yes,SM,A,129.bmp,120,-120,147495,141469,149496,143480,,,,,4
3,0,0,1,0,3,prac,1,1,z,Tue Jun 09 2026 14:27:26 GMT-0500 (Central Daylight Time),163896.0,I,z,1240,5,1,132.bmp,-120,-120,133.bmp,120,-120,134.bmp,-120,120,135.bmp,120,120,10059.900000095367,153836.09999990463,8121,yes,SM,A,134.bmp,-120,120,157559,151531,159575,153544,,,,,5
1,1,0,0,0,4,prac,1,1,m,Tue Jun 09 2026 14:27:26 GMT-0500 (Central Daylight Time),174276.39999985695,I,m,1561,6,1,136.bmp,-120,-120,137.bmp,120,-120,138.bmp,-120,120,139.bmp,120,120,10375.899999856949,163900.5,8121,no,SM,A,139.bmp,-120,-120,167622,161596,169639,163607,,,,,6
2,0,1,0,0,5,prac,1,1,m,Tue Jun 09 2026 14:27:26 GMT-0500 (Central Daylight Time),184506.09999990463,I,m,1412,7,1,140.bmp,-120,-120,141.bmp,120,-120,142.bmp,-120,120,143.bmp,120,120,10220.5,174285.59999990463,8121,no,SM,A,140.bmp,120,-120,178003,171981,180019,173989,,,,,7
4,0,0,0,1,6,prac,1,1,z,Tue Jun 09 2026 14:27:26 GMT-0500 (Central Daylight Time),195202.79999995232,I,z,1878,8,1,144.bmp,-120,-120,145.bmp,120,-120,146.bmp,-120,120,147.bmp,120,120,10689.900000095367,184512.89999985695,8121,yes,SM,A,147.bmp,120,120,188233,182208,190249,184218,,,,,8
4,0,0,0,1,1,test,1,1,m,Tue Jun 09 2026 14:27:26 GMT-0500 (Central Daylight Time),211747.89999985695,I,m,1322,1,1,148.bmp,-120,-120,149.bmp,120,-120,150.bmp,-120,120,143.bmp,120,120,9376.5,202371.39999985695,8121,no,SM,A,150.bmp,120,120,188233,182208,190249,184218,206094.0,200067.0,208110.0,202079.0,1
2,0,1,0,0,1,test,1,0,m,Tue Jun 09 2026 14:27:26 GMT-0500 (Central Daylight Time),221811.09999990463,I,None,2015,2,1,101.bmp,-120,-120,102.bmp,120,-120,103.bmp,-120,120,104.bmp,120,120,10059.5,211751.59999990463,8121,no,SM,A,103.bmp,120,-120,188233,182208,190249,184218,215476.0,209447.0,217491.0,211459.0,2
1,1,0,0,0,2,test,1,1,z,Tue Jun 09 2026 14:27:26 GMT-0500 (Central Daylight Time),231124.79999995232,I,z,1253,3,1,105.bmp,-120,-120,106.bmp,120,-120,107.bmp,-120,120,108.bmp,120,120,9309.900000095367,221814.89999985695,8121,yes,SM,A,105.bmp,-120,-120,188233,182208,190249,184218,225538.0,219510.0,227554.0,221523.0,3
3,0,0,1,0,2,test,1,0,m,Tue Jun 09 2026 14:27:26 GMT-0500 (Central Daylight Time),240288.59999990463,I,z,1108,4,1,109.bmp,-120,-120,110.bmp,120,-120,111.bmp,-120,120,112.bmp,120,120,9159.5,231129.09999990463,8121,no,SM,A,109.bmp,-120,120,188233,182208,190249,184218,234851.0,228824.0,236867.0,230836.0,4
2,0,1,0,0,3,test,1,1,z,Tue Jun 09 2026 14:27:26 GMT-0500 (Central Daylight Time),249985.39999985695,I,z,1648,5,1,113.bmp,-120,-120,114.bmp,120,-120,115.bmp,-120,120,116.bmp,120,120,9692.599999904633,240292.79999995232,8121,yes,SM,A,114.bmp,120,-120,188233,182208,190249,184218,244018.0,237988.0,246031.0,240000.0,5
3,0,0,1,0,4,test,1,1,z,Tue Jun 09 2026 14:27:26 GMT-0500 (Central Daylight Time),259216.20000004768,I,z,1167,6,1,117.bmp,-120,-120,118.bmp,120,-120,119.bmp,-120,120,120.bmp,120,120,9227.300000190735,249988.89999985695,8121,yes,SM,A,119.bmp,-120,120,188233,182208,190249,184218,253712.0,247684.0,255728.0,249697.0,6
4,0,0,0,1,5,test,1,1,z,Tue Jun 09 2026 14:27:26 GMT-0500 (Central Daylight Time),268812.7999999523,I,z,1536,7,1,121.bmp,-120,-120,122.bmp,120,-120,123.bmp,-120,120,124.bmp,120,120,9593.200000047684,259219.59999990463,8121,yes,SM,A,124.bmp,120,120,188233,182208,190249,184218,262943.0,256915.0,264959.0,258927.0,7
2,0,1,0,0,5,test,1,0,m,Tue Jun 09 2026 14:27:26 GMT-0500 (Central Daylight Time),278860.0,I,None,2015,8,1,125.bmp,-120,-120,126.bmp,120,-120,127.bmp,-120,120,128.bmp,120,120,10043.100000143051,268816.89999985695,8121,no,SM,A,125.bmp,120,-120,188233,182208,190249,184218,272539.0,266512.0,274540.0,268524.0,8
3,0,0,1,0,6,test,1,1,m,Tue Jun 09 2026 14:27:26 GMT-0500 (Central Daylight Time),288440.2000000477,I,m,1516,9,1,129.bmp,-120,-120,130.bmp,120,-120,131.bmp,-120,120,132.bmp,120,120,9576.100000143051,278864.09999990463,8121,no,SM,A,130.bmp,-120,120,188233,182208,190249,184218,282586.0,276559.0,284603.0,278571.0,9
4,0,0,0,1,7,test,1,1,z,Tue Jun 09 2026 14:27:26 GMT-0500 (Central Daylight Time),298453.89999985695,I,z,1952,10,1,137.bmp,-120,-120,138.bmp,120,-120,139.bmp,-120,120,140.bmp,120,120,10009.799999952316,288444.09999990463,8121,yes,SM,A,140.bmp,120,120,188233,182208,190249,184218,292167.0,286139.0,294183.0,288151.0,10
3,0,0,1,0,7,test,1,0,z,Tue Jun 09 2026 14:27:26 GMT-0500 (Central Daylight Time),308200.5,I,m,1698,11,1,133.bmp,-120,-120,134.bmp,120,-120,135.bmp,-120,120,136.bmp,120,120,9742.700000047684,298457.7999999523,8121,yes,SM,A,135.bmp,-120,120,188233,182208,190249,184218,302182.0,296153.0,304197.0,298166.0,11
2,0,1,0,0,8,test,1,1,m,Tue Jun 09 2026 14:27:26 GMT-0500 (Central Daylight Time),317914.09999990463,I,m,1655,12,1,141.bmp,-120,-120,142.bmp,120,-120,143.bmp,-120,120,144.bmp,120,120,9710.0,308204.09999990463,8121,no,SM,A,141.bmp,120,-120,188233,182208,190249,184218,311927.0,305899.0,313944.0,307912.0,12
3,0,0,1,0,8,test,1,0,m,Tue Jun 09 2026 14:27:26 GMT-0500 (Central Daylight Time),327978.0,I,None,2016,13,1,145.bmp,-120,-120,146.bmp,120,-120,147.bmp,-120,120,148.bmp,120,120,10060.100000143051,317917.89999985695,8121,no,SM,A,146.bmp,-120,120,188233,182208,190249,184218,321641.0,315613.0,323657.0,317626.0,13
1,1,0,0,0,9,test,1,1,z,Tue Jun 09 2026 14:27:26 GMT-0500 (Central Daylight Time),337426.2999999523,I,z,1398,14,1,149.bmp,-120,-120,150.bmp,120,-120,104.bmp,-120,120,101.bmp,120,120,9443.900000095367,327982.39999985695,8121,yes,SM,A,149.bmp,-120,-120,188233,182208,190249,184218,331705.0,325678.0,333721.0,327689.0,14
4,0,0,0,1,10,test,1,1,m,Tue Jun 09 2026 14:27:26 GMT-0500 (Central Daylight Time),347321.7000000477,I,m,1840,15,1,110.bmp,-120,-120,111.bmp,120,-120,112.bmp,-120,120,113.bmp,120,120,9891.700000047684,337430.0,8121,no,SM,A,111.bmp,120,120,188233,182208,190249,184218,341151.0,335125.0,343168.0,337136.0,15
1,1,0,0,0,10,test,1,0,m,Tue Jun 09 2026 14:27:26 GMT-0500 (Central Daylight Time),357385.5,I,None,2016,16,1,102.bmp,-120,-120,103.bmp,120,-120,104.bmp,-120,120,105.bmp,120,120,10060.100000143051,347325.39999985695,8121,no,SM,A,105.bmp,-120,-120,188233,182208,190249,184218,351048.0,345021.0,353064.0,347033.0,16
3,0,0,1,0,11,test,1,1,m,Tue Jun 09 2026 14:27:26 GMT-0500 (Central Daylight Time),366982.5,I,m,1544,17,1,122.bmp,-120,-120,123.bmp,120,-120,124.bmp,-120,120,125.bmp,120,120,9593.100000143051,357389.39999985695,8121,no,SM,A,122.bmp,-120,120,188233,182208,190249,184218,361112.0,355085.0,363128.0,357097.0,17
1,1,0,0,0,12,test,1,1,z,Tue Jun 09 2026 14:27:26 GMT-0500 (Central Daylight Time),376912.59999990463,I,z,1875,18,1,106.bmp,-120,-120,107.bmp,120,-120,108.bmp,-120,120,109.bmp,120,120,9926.099999904633,366986.5,8121,yes,SM,A,106.bmp,-120,-120,188233,182208,190249,184218,370709.0,364682.0,372725.0,366693.0,18
2,0,1,0,0,13,test,1,1,z,Tue Jun 09 2026 14:27:26 GMT-0500 (Central Daylight Time),386409.59999990463,I,z,1440,19,1,126.bmp,-120,-120,127.bmp,120,-120,128.bmp,-120,120,129.bmp,120,120,9492.899999856949,376916.7000000477,8121,yes,SM,A,127.bmp,120,-120,188233,182208,190249,184218,380639.0,374612.0,382656.0,376624.0,19
3,0,0,1,0,14,test,1,1,z,Tue Jun 09 2026 14:27:26 GMT-0500 (Central Daylight Time),395740.09999990463,I,z,1279,20,1,130.bmp,-120,-120,131.bmp,120,-120,132.bmp,-120,120,133.bmp,120,120,9326.700000047684,386413.39999985695,8121,yes,SM,A,132.bmp,-120,120,188233,182208,190249,184218,390136.0,384109.0,392152.0,386121.0,20
1,1,0,0,0,15,test,1,1,m,Tue Jun 09 2026 14:27:26 GMT-0500 (Central Daylight Time),405137.2999999523,I,m,1340,21,1,114.bmp,-120,-120,115.bmp,120,-120,116.bmp,-120,120,117.bmp,120,120,9393.200000047684,395744.09999990463,8121,no,SM,A,116.bmp,-120,-120,188233,182208,190249,184218,399467.0,393439.0,401483.0,395451.0,21
4,0,0,0,1,16,test,1,1,z,Tue Jun 09 2026 14:27:26 GMT-0500 (Central Daylight Time),414517.5,I,z,1337,22,1,118.bmp,-120,-120,119.bmp,120,-120,120.bmp,-120,120,121.bmp,120,120,9376.799999952316,405140.7000000477,8121,yes,SM,A,121.bmp,120,120,188233,182208,190249,184218,408859.0,402836.0,410863.0,404848.0,22
1,1,0,0,0,16,test,1,0,m,Tue Jun 09 2026 14:27:26 GMT-0500 (Central Daylight Time),423864.39999985695,I,z,1282,23,1,134.bmp,-120,-120,135.bmp,120,-120,136.bmp,-120,120,137.bmp,120,120,9343.299999952316,414521.09999990463,8121,no,SM,A,137.bmp,-120,-120,188233,182208,190249,184218,418244.0,412216.0,420261.0,414229.0,23
2,0,1,0,0,17,test,1,1,z,Tue Jun 09 2026 14:27:26 GMT-0500 (Central Daylight Time),433195.89999985695,I,z,1271,24,1,142.bmp,-120,-120,143.bmp,120,-120,144.bmp,-120,120,145.bmp,120,120,9328.199999809265,423867.7000000477,8121,yes,SM,A,143.bmp,120,-120,188233,182208,190249,184218,427591.0,421563.0,429608.0,423577.0,24
4,0,0,0,1,18,test,1,1,m,Tue Jun 09 2026 14:27:26 GMT-0500 (Central Daylight Time),442925.2000000477,I,m,1669,25,1,146.bmp,-120,-120,147.bmp,120,-120,148.bmp,-120,120,149.bmp,120,120,9725.5,433199.7000000477,8121,no,SM,A,148.bmp,120,120,188233,182208,190249,184218,436922.0,430895.0,438938.0,432906.0,25
1,1,0,0,0,19,test,1,1,z,Tue Jun 09 2026 14:27:26 GMT-0500 (Central Daylight Time),452888.59999990463,I,z,1915,26,1,138.bmp,-120,-120,139.bmp,120,-120,140.bmp,-120,120,141.bmp,120,120,9959.599999904633,442929.0,8121,yes,SM,A,138.bmp,-120,-120,188233,182208,190249,184218,446652.0,440624.0,448668.0,442636.0,26
4,0,0,0,1,20,test,1,1,z,Tue Jun 09 2026 14:27:26 GMT-0500 (Central Daylight Time),462085.7000000477,I,z,1135,27,1,150.bmp,-120,-120,111.bmp,120,-120,101.bmp,-120,120,102.bmp,120,120,9193.100000143051,452892.59999990463,8121,yes,SM,A,102.bmp,120,120,188233,182208,190249,184218,456615.0,450588.0,458632.0,452600.0,27
3,0,0,1,0,21,test,1,1,m,Tue Jun 09 2026 14:27:26 GMT-0500 (Central Daylight Time),471816.2999999523,I,m,1666,28,1,103.bmp,-120,-120,104.bmp,120,-120,105.bmp,-120,120,106.bmp,120,120,9726.700000047684,462089.59999990463,8121,no,SM,A,103.bmp,-120,120,188233,182208,190249,184218,465812.0,459785.0,467829.0,461797.0,28
2,0,1,0,0,22,test,1,1,z,Tue Jun 09 2026 14:27:26 GMT-0500 (Central Daylight Time),481163.0,I,z,1288,29,1,107.bmp,-120,-120,108.bmp,120,-120,109.bmp,-120,120,110.bmp,120,120,9342.5,471820.5,8121,yes,SM,A,108.bmp,120,-120,188233,182208,190249,184218,475543.0,469516.0,477559.0,471528.0,29
3,0,0,1,0,23,test,1,1,z,Tue Jun 09 2026 14:27:26 GMT-0500 (Central Daylight Time),490727.2000000477,I,z,1501,30,1,111.bmp,-120,-120,112.bmp,120,-120,113.bmp,-120,120,114.bmp,120,120,9561.200000047684,481166.0,8121,yes,SM,A,113.bmp,-120,120,188233,182208,190249,184218,484890.0,478861.0,486906.0,480874.0,30
1,1,0,0,0,24,test,1,1,z,Tue Jun 09 2026 14:27:26 GMT-0500 (Central Daylight Time),500025.2999999523,I,z,1242,31,1,115.bmp,-120,-120,116.bmp,120,-120,117.bmp,-120,120,118.bmp,120,120,9294.799999952316,490730.5,8121,yes,SM,A,115.bmp,-120,-120,188233,182208,190249,184218,494453.0,488426.0,496470.0,490439.0,31
2,0,1,0,0,25,test,1,1,m,Tue Jun 09 2026 14:27:26 GMT-0500 (Central Daylight Time),509538.89999985695,I,m,1465,32,1,119.bmp,-120,-120,120.bmp,120,-120,121.bmp,-120,120,122.bmp,120,120,9510.199999809265,500028.7000000477,8121,no,SM,A,119.bmp,120,-120,188233,182208,190249,184218,503750.0,497724.0,505767.0,499735.0,32
4,0,0,0,1,26,test,1,1,z,Tue Jun 09 2026 14:27:26 GMT-0500 (Central Daylight Time),519218.09999990463,I,z,1631,33,1,131.bmp,-120,-120,132.bmp,120,-120,133.bmp,-120,120,134.bmp,120,120,9675.599999904633,509542.5,8121,yes,SM,A,134.bmp,120,120,188233,182208,190249,184218,513264.0,507238.0,515280.0,509249.0,33
2,0,1,0,0,27,test,1,1,z,Tue Jun 09 2026 14:27:26 GMT-0500 (Central Daylight Time),528548.0999999046,I,z,1271,34,1,123.bmp,-120,-120,124.bmp,120,-120,125.bmp,-120,120,126.bmp,120,120,9326.5,519221.59999990463,8121,yes,SM,A,124.bmp,120,-120,188233,182208,190249,184218,522945.0,516917.0,524960.0,518930.0,34
4,0,0,0,1,28,test,1,1,m,Tue Jun 09 2026 14:27:26 GMT-0500 (Central Daylight Time),537928.7999999523,I,m,1317,35,1,127.bmp,-120,-120,128.bmp,120,-120,129.bmp,-120,120,130.bmp,120,120,9377.0,528551.7999999523,8121,no,SM,A,129.bmp,120,120,188233,182208,190249,184218,532275.0,526247.0,534291.0,528260.0,35
3,0,0,1,0,28,test,1,0,m,Tue Jun 09 2026 14:27:26 GMT-0500 (Central Daylight Time),547609.0,I,z,1623,36,1,135.bmp,-120,-120,136.bmp,120,-120,137.bmp,-120,120,138.bmp,120,120,9677.200000047684,537931.7999999523,8121,no,SM,A,135.bmp,-120,120,188233,182208,190249,184218,541655.0,535627.0,543672.0,537640.0,36
1,1,0,0,0,29,test,1,1,m,Tue Jun 09 2026 14:27:26 GMT-0500 (Central Daylight Time),557072.5999999046,I,m,1406,37,1,139.bmp,-120,-120,140.bmp,120,-120,141.bmp,-120,120,142.bmp,120,120,9459.399999856949,547613.2000000477,8121,no,SM,A,140.bmp,-120,-120,188233,182208,190249,184218,551335.0,545308.0,553353.0,547321.0,37
2,0,1,0,0,30,test,1,1,m,Tue Jun 09 2026 14:27:26 GMT-0500 (Central Daylight Time),567036.2000000477,I,m,1912,38,1,143.bmp,-120,-120,144.bmp,120,-120,145.bmp,-120,120,146.bmp,120,120,9960.200000047684,557076.0,8121,no,SM,A,145.bmp,120,-120,188233,182208,190249,184218,560800.0,554771.0,562815.0,556784.0,38
4,0,0,0,1,31,test,1,1,z,Tue Jun 09 2026 14:27:26 GMT-0500 (Central Daylight Time),576399.899999857,I,z,1308,39,1,147.bmp,-120,-120,148.bmp,120,-120,149.bmp,-120,120,150.bmp,120,120,9358.899999856949,567041.0,8121,yes,SM,A,150.bmp,120,120,188233,182208,190249,184218,570763.0,564736.0,572779.0,566748.0,39
3,0,0,1,0,32,test,1,1,m,Tue Jun 09 2026 14:27:26 GMT-0500 (Central Daylight Time),585846.899999857,I,m,1384,40,1,104.bmp,-120,-120,105.bmp,120,-120,106.bmp,-120,120,107.bmp,120,120,9440.599999904633,576406.2999999523,8121,no,SM,A,105.bmp,-120,120,188233,182208,190249,184218,580128.0,574102.0,582143.0,576112.0,40
1,1,0,0,0,33,test,1,1,z,Tue Jun 09 2026 14:27:26 GMT-0500 (Central Daylight Time),595160.7000000477,I,z,1258,41,1,108.bmp,-120,-120,109.bmp,120,-120,110.bmp,-120,120,111.bmp,120,120,9310.700000047684,585850.0,8121,yes,SM,A,108.bmp,-120,-120,188233,182208,190249,184218,589574.0,583545.0,591590.0,585558.0,41
4,0,0,0,1,34,test,1,1,z,Tue Jun 09 2026 14:27:26 GMT-0500 (Central Daylight Time),604591.0,I,z,1368,42,1,112.bmp,-120,-120,113.bmp,120,-120,114.bmp,-120,120,115.bmp,120,120,9426.900000095367,595164.0999999046,8121,yes,SM,A,115.bmp,120,120,188233,182208,190249,184218,598887.0,592859.0,600903.0,594872.0,42
1,1,0,0,0,35,test,1,1,z,Tue Jun 09 2026 14:27:26 GMT-0500 (Central Daylight Time),613721.399999857,I,z,1073,43,1,116.bmp,-120,-120,117.bmp,120,-120,118.bmp,-120,120,119.bmp,120,120,9126.699999809265,604594.7000000477,8121,yes,SM,A,116.bmp,-120,-120,188233,182208,190249,184218,608318.0,602290.0,610334.0,604302.0,43
4,0,0,0,1,36,test,1,1,m,Tue Jun 09 2026 14:27:26 GMT-0500 (Central Daylight Time),623151.899999857,I,m,1375,44,1,104.bmp,-120,-120,101.bmp,120,-120,102.bmp,-120,120,103.bmp,120,120,9426.099999904633,613725.7999999523,8121,no,SM,A,104.bmp,120,120,188233,182208,190249,184218,617448.0,611421.0,619464.0,613433.0,44
1,1,0,0,0,37,test,1,1,m,Tue Jun 09 2026 14:27:26 GMT-0500 (Central Daylight Time),632332.399999857,I,m,1128,45,1,128.bmp,-120,-120,129.bmp,120,-120,130.bmp,-120,120,131.bmp,120,120,9176.899999856949,623155.5,8121,no,SM,A,131.bmp,-120,-120,188233,182208,190249,184218,626878.0,620851.0,628895.0,622864.0,45
1,1,0,0,0,38,test,1,1,m,Tue Jun 09 2026 14:27:26 GMT-0500 (Central Daylight Time),641429.399999857,I,m,1044,46,1,120.bmp,-120,-120,121.bmp,120,-120,122.bmp,-120,120,123.bmp,120,120,9092.299999952316,632337.0999999046,8121,no,SM,A,121.bmp,-120,-120,188233,182208,190249,184218,636060.0,630032.0,638075.0,632045.0,46
3,0,0,1,0,38,test,1,0,z,Tue Jun 09 2026 14:27:26 GMT-0500 (Central Daylight Time),650643.7000000477,I,m,1155,47,1,124.bmp,-120,-120,125.bmp,120,-120,126.bmp,-120,120,127.bmp,120,120,9210.0,641433.7000000477,8121,yes,SM,A,126.bmp,-120,120,188233,182208,190249,184218,645156.0,639129.0,647172.0,641141.0,47
3,0,0,1,0,39,test,1,1,z,Tue Jun 09 2026 14:27:26 GMT-0500 (Central Daylight Time),660040.2999999523,I,z,1341,48,1,140.bmp,-120,-120,141.bmp,120,-120,142.bmp,-120,120,143.bmp,120,120,9392.5,650647.7999999523,8121,yes,SM,A,142.bmp,-120,120,188233,182208,190249,184218,654370.0,648343.0,656386.0,650355.0,48
2,0,1,0,0,39,test,1,0,z,Tue Jun 09 2026 14:27:26 GMT-0500 (Central Daylight Time),669637.7000000477,I,m,1545,49,1,136.bmp,-120,-120,137.bmp,120,-120,138.bmp,-120,120,139.bmp,120,120,9592.300000190735,660045.399999857,8121,yes,SM,A,137.bmp,120,-120,188233,182208,190249,184218,663767.0,657741.0,665783.0,659752.0,49
3,0,0,1,0,39,test,1,0,m,Tue Jun 09 2026 14:27:26 GMT-0500 (Central Daylight Time),678767.899999857,I,z,1067,50,1,132.bmp,-120,-120,133.bmp,120,-120,134.bmp,-120,120,135.bmp,120,120,9126.399999856949,669641.5,8121,no,SM,A,132.bmp,-120,120,188233,182208,190249,184218,673364.0,667337.0,675380.0,669350.0,50
2,0,1,0,0,40,test,1,1,z,Tue Jun 09 2026 14:27:26 GMT-0500 (Central Daylight Time),688048.2999999523,I,z,1224,51,1,144.bmp,-120,-120,145.bmp,120,-120,146.bmp,-120,120,147.bmp,120,120,9276.400000095367,678771.899999857,8121,yes,SM,A,145.bmp,120,-120,188233,182208,190249,184218,682494.0,676467.0,684511.0,678479.0,51
4,0,0,0,1,41,test,1,1,m,Tue Jun 09 2026 14:27:26 GMT-0500 (Central Daylight Time),697645.5,I,m,1437,52,1,148.bmp,-120,-120,149.bmp,120,-120,150.bmp,-120,120,131.bmp,120,120,9593.799999952316,688051.7000000477,8121,no,SM,A,148.bmp,120,120,188233,182208,190249,184218,691886.0,685747.0,693891.0,687760.0,52
3,0,0,1,0,42,test,1,1,z,Tue Jun 09 2026 14:27:26 GMT-0500 (Central Daylight Time),707176.0,I,z,1476,53,1,101.bmp,-120,-120,102.bmp,120,-120,103.bmp,-120,120,104.bmp,120,120,9526.799999952316,697649.2000000477,8121,yes,SM,A,103.bmp,-120,120,188233,182208,190249,184218,701372.0,695344.0,703388.0,697357.0,53
1,1,0,0,0,42,test,1,0,m,Tue Jun 09 2026 14:27:26 GMT-0500 (Central Daylight Time),716289.5,I,z,1057,54,1,105.bmp,-120,-120,106.bmp,120,-120,107.bmp,-120,120,108.bmp,120,120,9109.799999952316,707179.7000000477,8121,no,SM,A,107.bmp,-120,-120,188233,182208,190249,184218,710902.0,704875.0,712918.0,706887.0,54
4,0,0,0,1,43,test,1,1,z,Tue Jun 09 2026 14:27:26 GMT-0500 (Central Daylight Time),725436.7999999523,I,z,1088,55,1,109.bmp,-120,-120,110.bmp,120,-120,111.bmp,-120,120,112.bmp,120,120,9144.099999904633,716292.7000000477,8121,yes,SM,A,112.bmp,120,120,188233,182208,190249,184218,720016.0,713988.0,722032.0,716001.0,55
2,0,1,0,0,44,test,1,1,m,Tue Jun 09 2026 14:27:26 GMT-0500 (Central Daylight Time),735133.399999857,I,m,1636,56,1,113.bmp,-120,-120,114.bmp,120,-120,115.bmp,-120,120,116.bmp,120,120,9693.599999904633,725439.7999999523,8121,no,SM,A,113.bmp,120,-120,188233,182208,190249,184218,729163.0,723135.0,731179.0,725148.0,56
4,0,0,0,1,44,test,1,0,m,Tue Jun 09 2026 14:27:26 GMT-0500 (Central Daylight Time),744930.7999999523,I,z,1690,57,1,117.bmp,-120,-120,118.bmp,120,-120,119.bmp,-120,120,120.bmp,120,120,9794.0,735136.7999999523,8121,no,SM,A,118.bmp,120,120,188233,182208,190249,184218,738923.0,732832.0,740926.0,734845.0,57
3,0,0,1,0,45,test,1,1,z,Tue Jun 09 2026 14:27:26 GMT-0500 (Central Daylight Time),754411.2000000477,I,z,1423,58,1,121.bmp,-120,-120,122.bmp,120,-120,123.bmp,-120,120,124.bmp,120,120,9477.200000047684,744934.0,8121,yes,SM,A,123.bmp,-120,120,188233,182208,190249,184218,748657.0,742629.0,750673.0,744642.0,58
2,0,1,0,0,46,test,1,1,m,Tue Jun 09 2026 14:27:26 GMT-0500 (Central Daylight Time),763791.5999999046,I,m,1342,59,1,125.bmp,-120,-120,126.bmp,120,-120,127.bmp,-120,120,128.bmp,120,120,9377.0,754414.5999999046,8121,no,SM,A,128.bmp,120,-120,188233,182208,190249,184218,758137.0,752110.0,760138.0,754122.0,59
1,1,0,0,0,46,test,1,0,z,Tue Jun 09 2026 14:27:26 GMT-0500 (Central Daylight Time),773571.5,I,m,1729,60,1,129.bmp,-120,-120,130.bmp,120,-120,131.bmp,-120,120,132.bmp,120,120,9776.900000095367,763794.5999999046,8121,yes,SM,A,129.bmp,-120,-120,188233,182208,190249,184218,767518.0,761490.0,769534.0,763503.0,60
2,0,1,0,0,46,test,1,0,z,Tue Jun 09 2026 14:27:26 GMT-0500 (Central Daylight Time),783635.2999999523,I,None,2016,61,1,133.bmp,-120,-120,134.bmp,120,-120,135.bmp,-120,120,136.bmp,120,120,10060.5,773574.7999999523,8121,yes,SM,A,134.bmp,120,-120,188233,182208,190249,184218,777298.0,771270.0,779314.0,773283.0,61
4,0,0,0,1,47,test,1,1,z,Tue Jun 09 2026 14:27:26 GMT-0500 (Central Daylight Time),792765.5,I,z,1068,62,1,141.bmp,-120,-120,142.bmp,120,-120,143.bmp,-120,120,144.bmp,120,120,9126.900000095367,783638.5999999046,8121,yes,SM,A,144.bmp,120,120,188233,182208,190249,184218,787362.0,781334.0,789379.0,783346.0,62
1,1,0,0,0,48,test,1,1,m,Tue Jun 09 2026 14:27:26 GMT-0500 (Central Daylight Time),802512.5999999046,I,m,1692,63,1,145.bmp,-120,-120,146.bmp,120,-120,147.bmp,-120,120,148.bmp,120,120,9743.399999856949,792769.2000000477,8121,no,SM,A,145.bmp,-120,120,188233,182208,190249,184218,796492.0,790464.0,798508.0,792477.0,63
2,0,1,0,0,49,test,1,1,z,Tue Jun 09 2026 14:27:26 GMT-0500 (Central Daylight Time),812104.2999999523,I,z,1395,64,1,149.bmp,-120,-120,150.bmp,120,-120,112.bmp,-120,120,101.bmp,120,120,9588.0,802516.2999999523,8121,yes,SM,A,150.bmp,120,-120,188233,182208,190249,184218,806239.0,800212.0,808257.0,802224.0,64
4,0,0,0,1,50,test,1,1,m,Tue Jun 09 2026 14:27:26 GMT-0500 (Central Daylight Time),821356.5999999046,I,m,1211,65,1,102.bmp,-120,-120,103.bmp,120,-120,104.bmp,-120,120,105.bmp,120,120,9249.200000047684,812107.399999857,8121,no,SM,A,104.bmp,120,120,188233,182208,190249,184218,815820.0,809803.0,817837.0,811804.0,65
3,0,0,1,0,51,test,1,1,m,Tue Jun 09 2026 14:27:26 GMT-0500 (Central Daylight Time),830787.0999999046,I,m,1381,66,1,106.bmp,-120,-120,107.bmp,120,-120,108.bmp,-120,120,109.bmp,120,120,9426.799999952316,821360.2999999523,8121,no,SM,A,109.bmp,-120,120,188233,182208,190249,184218,825083.0,819056.0,827099.0,821068.0,66
2,0,1,0,0,52,test,1,1,m,Tue Jun 09 2026 14:27:26 GMT-0500 (Central Daylight Time),840000.899999857,I,m,1158,67,1,137.bmp,-120,-120,138.bmp,120,-120,139.bmp,-120,120,140.bmp,120,120,9210.899999856949,830790.0,8121,no,SM,A,139.bmp,120,-120,188233,182208,190249,184218,834514.0,828485.0,836530.0,830498.0,67
3,0,0,1,0,53,test,1,1,z,Tue Jun 09 2026 14:27:26 GMT-0500 (Central Daylight Time),849531.2000000477,I,z,1472,68,1,110.bmp,-120,-120,111.bmp,120,-120,112.bmp,-120,120,113.bmp,120,120,9526.900000095367,840004.2999999523,8121,yes,SM,A,112.bmp,-120,120,188233,182208,190249,184218,843728.0,837700.0,845744.0,839712.0,68
1,1,0,0,0,53,test,1,0,m,Tue Jun 09 2026 14:27:26 GMT-0500 (Central Daylight Time),858795.0999999046,I,z,1213,69,1,114.bmp,-120,-120,115.bmp,120,-120,116.bmp,-120,120,117.bmp,120,120,9260.299999952316,849534.7999999523,8121,no,SM,A,115.bmp,-120,-120,188233,182208,190249,184218,853258.0,847230.0,855274.0,849243.0,69
2,0,1,0,0,54,test,1,1,m,Tue Jun 09 2026 14:27:26 GMT-0500 (Central Daylight Time),867959.0,I,m,1110,70,1,118.bmp,-120,-120,119.bmp,120,-120,120.bmp,-120,120,121.bmp,120,120,9160.700000047684,858798.2999999523,8121,no,SM,A,120.bmp,120,-120,188233,182208,190249,184218,862522.0,856494.0,864538.0,858506.0,70
4,0,0,0,1,55,test,1,1,z,Tue Jun 09 2026 14:27:26 GMT-0500 (Central Daylight Time),877455.7999999523,I,z,1433,71,1,122.bmp,-120,-120,123.bmp,120,-120,124.bmp,-120,120,125.bmp,120,120,9493.700000047684,867962.0999999046,8121,yes,SM,A,125.bmp,120,120,188233,182208,190249,184218,871685.0,865657.0,873702.0,867670.0,71
1,1,0,0,0,56,test,1,1,z,Tue Jun 09 2026 14:27:26 GMT-0500 (Central Daylight Time),886786.0999999046,I,z,1272,72,1,126.bmp,-120,-120,127.bmp,120,-120,128.bmp,-120,120,129.bmp,120,120,9326.200000047684,877459.899999857,8121,yes,SM,A,126.bmp,-120,-120,188233,182208,190249,184218,881182.0,875155.0,883199.0,877167.0,72
2,0,1,0,0,57,test,1,1,z,Tue Jun 09 2026 14:27:26 GMT-0500 (Central Daylight Time),895999.7000000477,I,z,1158,73,1,130.bmp,-120,-120,131.bmp,120,-120,132.bmp,-120,120,133.bmp,120,120,9209.600000143051,886790.0999999046,8121,yes,SM,A,131.bmp,120,-120,188233,182208,190249,184218,890513.0,884485.0,892529.0,886498.0,73
4,0,0,0,1,57,test,1,0,m,Tue Jun 09 2026 14:27:26 GMT-0500 (Central Daylight Time),905213.5,I,z,1153,74,1,134.bmp,-120,-120,135.bmp,120,-120,136.bmp,-120,120,137.bmp,120,120,9208.799999952316,896004.7000000477,8121,no,SM,A,136.bmp,120,120,188233,182208,190249,184218,899728.0,893700.0,901743.0,895711.0,74
2,0,1,0,0,58,test,1,1,m,Tue Jun 09 2026 14:27:26 GMT-0500 (Central Daylight Time),915127.0,I,m,1859,75,1,138.bmp,-120,-120,139.bmp,120,-120,140.bmp,-120,120,141.bmp,120,120,9910.200000047684,905216.7999999523,8121,no,SM,A,141.bmp,120,-120,188233,182208,190249,184218,908940.0,902912.0,910956.0,904925.0,75
1,1,0,0,0,59,test,1,1,z,Tue Jun 09 2026 14:27:26 GMT-0500 (Central Daylight Time),924391.0999999046,I,z,1201,76,1,142.bmp,-120,-120,143.bmp,120,-120,144.bmp,-120,120,145.bmp,120,120,9260.299999952316,915130.7999999523,8121,yes,SM,A,142.bmp,-120,-120,188233,182208,190249,184218,918854.0,912826.0,920870.0,914839.0,76
3,0,0,1,0,60,test,1,1,z,Tue Jun 09 2026 14:27:26 GMT-0500 (Central Daylight Time),933621.399999857,I,z,1169,77,1,150.bmp,-120,-120,111.bmp,120,-120,101.bmp,-120,120,102.bmp,120,120,9227.0,924394.399999857,8121,yes,SM,A,101.bmp,-120,120,188233,182208,190249,184218,928117.0,922090.0,930134.0,924103.0,77
1,1,0,0,0,60,test,1,0,m,Tue Jun 09 2026 14:27:26 GMT-0500 (Central Daylight Time),942601.7999999523,I,z,931,78,1,146.bmp,-120,-120,147.bmp,120,-120,148.bmp,-120,120,149.bmp,120,120,8976.299999952316,933625.5,8121,no,SM,A,147.bmp,-120,-120,188233,182208,190249,184218,937348.0,931321.0,939365.0,933333.0,78
4,0,0,0,1,60,test,1,0,m,Tue Jun 09 2026 14:27:26 GMT-0500 (Central Daylight Time),951549.2000000477,I,z,886,79,1,107.bmp,-120,-120,108.bmp,120,-120,109.bmp,-120,120,110.bmp,120,120,8943.5,942605.7000000477,8121,no,SM,A,107.bmp,120,120,188233,182208,190249,184218,946329.0,940301.0,948345.0,942313.0,79
3,0,0,1,0,61,test,1,1,m,Tue Jun 09 2026 14:27:26 GMT-0500 (Central Daylight Time),961196.2000000477,I,m,1555,80,1,103.bmp,-120,-120,104.bmp,120,-120,105.bmp,-120,120,106.bmp,120,120,9643.300000190735,951552.899999857,8121,no,SM,A,106.bmp,-120,120,188233,182208,190249,184218,955309.0,949248.0,957325.0,951304.0,80
