acc_sum,block,block_c,change,condition,correct,correct_response,datetime,endtime,face,project,response,response_time,row_sel,session_number,start_end,starttime,subject_id,task,task_vers,trial
0,prac,1,,1-Back,,,Wed Apr 15 2026 10:38:14 GMT-0400 (Eastern Daylight Time),,093_m_f_n_a.png,I,space,11750,1,1,,,9070,NNB,C,0
1,prac,1,0.0,1-Back,1.0,m,Wed Apr 15 2026 10:38:14 GMT-0400 (Eastern Daylight Time),176279.19999999972,098_y_f_n_a.png,I,m,784,2,1,1805.1999999997206,174474.0,9070,NNB,C,1
1,prac,1,1.0,1-Back,0.0,z,Wed Apr 15 2026 10:38:14 GMT-0400 (Eastern Daylight Time),179062.1000000001,098_y_f_n_a.png,I,None,2001,3,1,2767.600000000093,176294.5,9070,NNB,C,2
1,prac,1,0.0,1-Back,0.0,m,Wed Apr 15 2026 10:38:14 GMT-0400 (Eastern Daylight Time),182062.3999999999,059_o_m_n_a.png,I,None,2009,4,1,2991.7000000001863,179070.69999999972,9070,NNB,C,3
2,prac,1,0.0,1-Back,1.0,m,Wed Apr 15 2026 10:38:14 GMT-0400 (Eastern Daylight Time),184829.19999999972,092_m_m_n_a.png,I,m,1810,5,1,2749.0999999996275,182080.1000000001,9070,NNB,C,4
3,prac,1,1.0,1-Back,1.0,z,Wed Apr 15 2026 10:38:14 GMT-0400 (Eastern Daylight Time),186396.0,092_m_m_n_a.png,I,z,782,6,1,1556.7000000001863,184839.2999999998,9070,NNB,C,5
4,prac,1,0.0,1-Back,1.0,m,Wed Apr 15 2026 10:38:14 GMT-0400 (Eastern Daylight Time),188145.6000000001,130_o_f_n_a.png,I,m,796,7,1,1729.7000000001863,186415.8999999999,9070,NNB,C,6
5,prac,1,0.0,1-Back,1.0,m,Wed Apr 15 2026 10:38:14 GMT-0400 (Eastern Daylight Time),190079.19999999972,082_m_m_n_a.png,I,m,1022,8,1,1925.1999999997206,188154.0,9070,NNB,C,7
6,prac,1,0.0,1-Back,1.0,m,Wed Apr 15 2026 10:38:14 GMT-0400 (Eastern Daylight Time),192012.5,093_m_f_n_a.png,I,m,1148,9,1,1923.3999999999069,190089.1000000001,9070,NNB,C,8
7,prac,1,1.0,1-Back,1.0,z,Wed Apr 15 2026 10:38:14 GMT-0400 (Eastern Daylight Time),193429.2999999998,093_m_f_n_a.png,I,z,636,10,1,1403.6000000000931,192025.69999999972,9070,NNB,C,9
8,prac,1,0.0,1-Back,1.0,m,Wed Apr 15 2026 10:38:14 GMT-0400 (Eastern Daylight Time),195129.1000000001,059_o_m_n_a.png,I,m,915,11,1,1687.3000000002794,193441.7999999998,9070,NNB,C,10
9,prac,1,0.0,1-Back,1.0,m,Wed Apr 15 2026 10:38:14 GMT-0400 (Eastern Daylight Time),196812.6000000001,028_y_f_n_a.png,I,m,757,12,1,1668.9000000003725,195143.69999999972,9070,NNB,C,11
0,test,1,0.0,1-Back,,,Wed Apr 15 2026 10:38:14 GMT-0400 (Eastern Daylight Time),196812.6000000001,098_y_f_n_a.png,I,space,19329,1,1,1668.9000000003725,195143.69999999972,9070,NNB,C,0
1,test,1,0.0,1-Back,1.0,m,Wed Apr 15 2026 10:38:14 GMT-0400 (Eastern Daylight Time),231929.19999999972,006_m_f_n_a.png,I,m,629,2,1,1637.3999999999069,230291.7999999998,9070,NNB,C,1
1,test,1,0.0,1-Back,0.0,m,Wed Apr 15 2026 10:38:14 GMT-0400 (Eastern Daylight Time),233662.5,028_y_f_n_a.png,I,z,700,3,1,1725.8000000002794,231936.69999999972,9070,NNB,C,2
2,test,1,1.0,1-Back,1.0,z,Wed Apr 15 2026 10:38:14 GMT-0400 (Eastern Daylight Time),235195.7999999998,028_y_f_n_a.png,I,z,502,4,1,1524.7999999998137,233671.0,9070,NNB,C,3
3,test,1,0.0,1-Back,1.0,m,Wed Apr 15 2026 10:38:14 GMT-0400 (Eastern Daylight Time),236728.8999999999,006_m_f_n_a.png,I,m,513,5,1,1525.1000000000931,235203.7999999998,9070,NNB,C,4
3,test,1,0.0,1-Back,0.0,m,Wed Apr 15 2026 10:38:14 GMT-0400 (Eastern Daylight Time),238395.69999999972,059_o_m_n_a.png,I,z,635,6,1,1657.3999999999069,236738.2999999998,9070,NNB,C,5
4,test,1,1.0,1-Back,1.0,z,Wed Apr 15 2026 10:38:14 GMT-0400 (Eastern Daylight Time),240212.19999999972,059_o_m_n_a.png,I,z,794,7,1,1809.5999999996275,238402.6000000001,9070,NNB,C,6
5,test,1,0.0,1-Back,1.0,m,Wed Apr 15 2026 10:38:14 GMT-0400 (Eastern Daylight Time),241779.19999999972,092_m_m_n_a.png,I,m,536,8,1,1555.0999999996275,240224.1000000001,9070,NNB,C,7
6,test,1,0.0,1-Back,1.0,m,Wed Apr 15 2026 10:38:14 GMT-0400 (Eastern Daylight Time),243379.0,130_o_f_n_a.png,I,m,569,9,1,1591.1000000000931,241787.8999999999,9070,NNB,C,8
7,test,1,0.0,1-Back,1.0,m,Wed Apr 15 2026 10:38:14 GMT-0400 (Eastern Daylight Time),244962.5,092_m_m_n_a.png,I,m,562,10,1,1576.7000000001863,243385.7999999998,9070,NNB,C,9
8,test,1,0.0,1-Back,1.0,m,Wed Apr 15 2026 10:38:14 GMT-0400 (Eastern Daylight Time),246595.69999999972,057_y_m_n_a.png,I,m,610,11,1,1625.7999999998137,244969.8999999999,9070,NNB,C,10
9,test,1,1.0,1-Back,1.0,z,Wed Apr 15 2026 10:38:14 GMT-0400 (Eastern Daylight Time),248279.0,057_y_m_n_a.png,I,z,665,12,1,1671.7000000001863,246607.2999999998,9070,NNB,C,11
10,test,1,0.0,1-Back,1.0,m,Wed Apr 15 2026 10:38:14 GMT-0400 (Eastern Daylight Time),249929.19999999972,030_o_f_n_a.png,I,m,621,13,1,1640.0,248289.19999999972,9070,NNB,C,12
11,test,1,1.0,1-Back,1.0,z,Wed Apr 15 2026 10:38:14 GMT-0400 (Eastern Daylight Time),251545.69999999972,030_o_f_n_a.png,I,z,596,14,1,1606.2999999998137,249939.3999999999,9070,NNB,C,13
12,test,1,0.0,1-Back,1.0,m,Wed Apr 15 2026 10:38:14 GMT-0400 (Eastern Daylight Time),253129.0,031_y_m_n_a.png,I,m,562,15,1,1573.2000000001863,251555.7999999998,9070,NNB,C,14
13,test,1,0.0,1-Back,1.0,m,Wed Apr 15 2026 10:38:14 GMT-0400 (Eastern Daylight Time),254845.69999999972,093_m_f_n_a.png,I,m,683,16,1,1704.2999999998137,253141.3999999999,9070,NNB,C,15
14,test,1,0.0,1-Back,1.0,m,Wed Apr 15 2026 10:38:14 GMT-0400 (Eastern Daylight Time),256512.19999999972,146_o_m_n_a.png,I,m,646,17,1,1658.8999999999069,254853.2999999998,9070,NNB,C,16
15,test,1,0.0,1-Back,1.0,m,Wed Apr 15 2026 10:38:14 GMT-0400 (Eastern Daylight Time),258212.3999999999,093_m_f_n_a.png,I,m,676,18,1,1696.0,256516.3999999999,9070,NNB,C,17
0,test,2,0.0,1-Back,,,Wed Apr 15 2026 10:38:14 GMT-0400 (Eastern Daylight Time),258212.3999999999,092_m_m_n_a.png,I,space,3568,1,1,1696.0,256516.3999999999,9070,NNB,C,0
1,test,2,0.0,1-Back,1.0,m,Wed Apr 15 2026 10:38:14 GMT-0400 (Eastern Daylight Time),265462.3999999999,006_m_f_n_a.png,I,m,625,2,1,1642.0,263820.3999999999,9070,NNB,C,1
2,test,2,1.0,1-Back,1.0,z,Wed Apr 15 2026 10:38:14 GMT-0400 (Eastern Daylight Time),266945.6000000001,006_m_f_n_a.png,I,z,461,3,1,1473.6000000000931,265472.0,9070,NNB,C,2
3,test,2,0.0,1-Back,1.0,m,Wed Apr 15 2026 10:38:14 GMT-0400 (Eastern Daylight Time),268529.0,092_m_m_n_a.png,I,m,563,4,1,1576.6000000000931,266952.3999999999,9070,NNB,C,3
4,test,2,0.0,1-Back,1.0,m,Wed Apr 15 2026 10:38:14 GMT-0400 (Eastern Daylight Time),270212.3999999999,057_y_m_n_a.png,I,m,652,5,1,1674.6000000000931,268537.7999999998,9070,NNB,C,4
5,test,2,0.0,1-Back,1.0,m,Wed Apr 15 2026 10:38:14 GMT-0400 (Eastern Daylight Time),271862.5,098_y_f_n_a.png,I,m,624,6,1,1641.8999999999069,270220.6000000001,9070,NNB,C,5
6,test,2,1.0,1-Back,1.0,z,Wed Apr 15 2026 10:38:14 GMT-0400 (Eastern Daylight Time),273529.0,098_y_f_n_a.png,I,z,646,7,1,1658.3000000002794,271870.6999999997,9070,NNB,C,6
7,test,2,0.0,1-Back,1.0,m,Wed Apr 15 2026 10:38:14 GMT-0400 (Eastern Daylight Time),275095.6000000001,057_y_m_n_a.png,I,m,548,8,1,1557.2000000001863,273538.3999999999,9070,NNB,C,7
8,test,2,0.0,1-Back,1.0,m,Wed Apr 15 2026 10:38:14 GMT-0400 (Eastern Daylight Time),276845.6999999997,030_o_f_n_a.png,I,m,716,9,1,1741.8999999999069,275103.7999999998,9070,NNB,C,8
9,test,2,0.0,1-Back,1.0,m,Wed Apr 15 2026 10:38:14 GMT-0400 (Eastern Daylight Time),278478.8999999999,082_m_m_n_a.png,I,m,615,10,1,1625.0,276853.8999999999,9070,NNB,C,9
10,test,2,1.0,1-Back,1.0,z,Wed Apr 15 2026 10:38:14 GMT-0400 (Eastern Daylight Time),280012.1999999997,082_m_m_n_a.png,I,z,510,11,1,1525.2999999998137,278486.8999999999,9070,NNB,C,10
11,test,2,0.0,1-Back,1.0,m,Wed Apr 15 2026 10:38:14 GMT-0400 (Eastern Daylight Time),281645.6999999997,030_o_f_n_a.png,I,m,600,12,1,1622.0999999996275,280023.6000000001,9070,NNB,C,11
12,test,2,0.0,1-Back,1.0,m,Wed Apr 15 2026 10:38:14 GMT-0400 (Eastern Daylight Time),283345.8999999999,130_o_f_n_a.png,I,m,671,13,1,1692.7000000001863,281653.1999999997,9070,NNB,C,12
13,test,2,0.0,1-Back,1.0,m,Wed Apr 15 2026 10:38:14 GMT-0400 (Eastern Daylight Time),284912.2999999998,059_o_m_n_a.png,I,m,546,14,1,1558.0,283354.2999999998,9070,NNB,C,13
13,test,2,0.0,1-Back,0.0,m,Wed Apr 15 2026 10:38:14 GMT-0400 (Eastern Daylight Time),286562.1999999997,146_o_m_n_a.png,I,z,627,15,1,1642.0,284920.1999999997,9070,NNB,C,14
14,test,2,1.0,1-Back,1.0,z,Wed Apr 15 2026 10:38:14 GMT-0400 (Eastern Daylight Time),288162.3999999999,146_o_m_n_a.png,I,z,570,16,1,1593.2000000001863,286569.1999999997,9070,NNB,C,15
15,test,2,0.0,1-Back,1.0,m,Wed Apr 15 2026 10:38:14 GMT-0400 (Eastern Daylight Time),289729.1999999997,031_y_m_n_a.png,I,m,538,17,1,1558.1999999997206,288171.0,9070,NNB,C,16
16,test,2,1.0,1-Back,1.0,z,Wed Apr 15 2026 10:38:14 GMT-0400 (Eastern Daylight Time),291512.3999999999,031_y_m_n_a.png,I,z,755,18,1,1776.3999999999069,289736.0,9070,NNB,C,17
0,test,3,1.0,1-Back,,,Wed Apr 15 2026 10:38:14 GMT-0400 (Eastern Daylight Time),291512.3999999999,028_y_f_n_a.png,I,space,2212,1,1,1776.3999999999069,289736.0,9070,NNB,C,0
1,test,3,0.0,1-Back,1.0,m,Wed Apr 15 2026 10:38:14 GMT-0400 (Eastern Daylight Time),297445.7999999998,146_o_m_n_a.png,I,m,549,1,1,1578.5,295867.2999999998,9070,NNB,C,1
2,test,3,1.0,1-Back,1.0,z,Wed Apr 15 2026 10:38:14 GMT-0400 (Eastern Daylight Time),298978.8999999999,146_o_m_n_a.png,I,z,510,1,1,1525.1000000000931,297453.7999999998,9070,NNB,C,2
3,test,3,0.0,1-Back,1.0,m,Wed Apr 15 2026 10:38:14 GMT-0400 (Eastern Daylight Time),300528.7999999998,093_m_f_n_a.png,I,m,521,1,1,1545.6000000000931,298983.1999999997,9070,NNB,C,3
4,test,3,1.0,1-Back,1.0,z,Wed Apr 15 2026 10:38:14 GMT-0400 (Eastern Daylight Time),302112.1999999997,093_m_f_n_a.png,I,z,555,1,1,1578.0999999996275,300534.1000000001,9070,NNB,C,4
5,test,3,0.0,1-Back,1.0,m,Wed Apr 15 2026 10:38:14 GMT-0400 (Eastern Daylight Time),303662.2999999998,030_o_f_n_a.png,I,m,524,1,1,1543.7999999998137,302118.5,9070,NNB,C,5
6,test,3,0.0,1-Back,1.0,m,Wed Apr 15 2026 10:38:14 GMT-0400 (Eastern Daylight Time),305312.2999999998,057_y_m_n_a.png,I,m,622,1,1,1643.0,303669.2999999998,9070,NNB,C,6
7,test,3,0.0,1-Back,1.0,m,Wed Apr 15 2026 10:38:14 GMT-0400 (Eastern Daylight Time),306895.7999999998,030_o_f_n_a.png,I,m,556,1,1,1573.0,305322.7999999998,9070,NNB,C,7
7,test,3,0.0,1-Back,0.0,m,Wed Apr 15 2026 10:38:14 GMT-0400 (Eastern Daylight Time),308495.7999999998,031_y_m_n_a.png,I,z,573,1,1,1589.1000000000931,306906.6999999997,9070,NNB,C,8
8,test,3,1.0,1-Back,1.0,z,Wed Apr 15 2026 10:38:14 GMT-0400 (Eastern Daylight Time),310229.1000000001,031_y_m_n_a.png,I,z,700,1,1,1724.2000000001863,308504.8999999999,9070,NNB,C,9
9,test,3,0.0,1-Back,1.0,m,Wed Apr 15 2026 10:38:14 GMT-0400 (Eastern Daylight Time),311812.5,006_m_f_n_a.png,I,m,551,1,1,1572.8000000002794,310239.6999999997,9070,NNB,C,10
9,test,3,0.0,1-Back,0.0,m,Wed Apr 15 2026 10:38:14 GMT-0400 (Eastern Daylight Time),313412.2999999998,098_y_f_n_a.png,I,z,576,1,1,1588.3999999999069,311823.8999999999,9070,NNB,C,11
9,test,3,1.0,1-Back,0.0,z,Wed Apr 15 2026 10:38:14 GMT-0400 (Eastern Daylight Time),315712.1999999997,098_y_f_n_a.png,I,m,1280,1,1,2292.0999999996275,313420.1000000001,9070,NNB,C,12
10,test,3,0.0,1-Back,1.0,m,Wed Apr 15 2026 10:38:14 GMT-0400 (Eastern Daylight Time),317445.7999999998,006_m_f_n_a.png,I,m,708,1,1,1723.7999999998137,315722.0,9070,NNB,C,13
11,test,3,0.0,1-Back,1.0,m,Wed Apr 15 2026 10:38:14 GMT-0400 (Eastern Daylight Time),319112.1999999997,092_m_m_n_a.png,I,m,638,1,1,1657.2999999998137,317454.8999999999,9070,NNB,C,14
12,test,3,1.0,1-Back,1.0,z,Wed Apr 15 2026 10:38:14 GMT-0400 (Eastern Daylight Time),320645.7999999998,092_m_m_n_a.png,I,z,500,1,1,1525.0,319120.7999999998,9070,NNB,C,15
13,test,3,0.0,1-Back,1.0,m,Wed Apr 15 2026 10:38:14 GMT-0400 (Eastern Daylight Time),322212.2999999998,130_o_f_n_a.png,I,m,542,1,1,1558.3999999999069,320653.8999999999,9070,NNB,C,16
14,test,3,1.0,1-Back,1.0,z,Wed Apr 15 2026 10:38:14 GMT-0400 (Eastern Daylight Time),323828.8999999999,130_o_f_n_a.png,I,z,591,1,1,1608.7000000001863,322220.1999999997,9070,NNB,C,17
0,test,4,1.0,1-Back,,,Wed Apr 15 2026 10:38:14 GMT-0400 (Eastern Daylight Time),323828.8999999999,093_m_f_n_a.png,I,space,2111,1,1,1608.7000000001863,322220.1999999997,9070,NNB,C,0
1,test,4,0.0,1-Back,1.0,m,Wed Apr 15 2026 10:38:14 GMT-0400 (Eastern Daylight Time),329662.3999999999,146_o_m_n_a.png,I,m,566,2,1,1572.7999999998137,328089.6000000001,9070,NNB,C,1
2,test,4,0.0,1-Back,1.0,m,Wed Apr 15 2026 10:38:14 GMT-0400 (Eastern Daylight Time),331212.3999999999,093_m_f_n_a.png,I,m,526,3,1,1540.7999999998137,329671.6000000001,9070,NNB,C,2
3,test,4,0.0,1-Back,1.0,m,Wed Apr 15 2026 10:38:14 GMT-0400 (Eastern Daylight Time),332745.7999999998,030_o_f_n_a.png,I,m,512,4,1,1520.7999999998137,331225.0,9070,NNB,C,3
4,test,4,1.0,1-Back,1.0,z,Wed Apr 15 2026 10:38:14 GMT-0400 (Eastern Daylight Time),334412.2999999998,030_o_f_n_a.png,I,z,643,5,1,1657.6999999997206,332754.6000000001,9070,NNB,C,4
5,test,4,0.0,1-Back,1.0,m,Wed Apr 15 2026 10:38:14 GMT-0400 (Eastern Daylight Time),335995.6999999997,098_y_f_n_a.png,I,m,560,6,1,1575.0999999996275,334420.6000000001,9070,NNB,C,5
6,test,4,0.0,1-Back,1.0,m,Wed Apr 15 2026 10:38:14 GMT-0400 (Eastern Daylight Time),337579.1999999997,057_y_m_n_a.png,I,m,561,7,1,1576.3999999999069,336002.7999999998,9070,NNB,C,6
7,test,4,1.0,1-Back,1.0,z,Wed Apr 15 2026 10:38:14 GMT-0400 (Eastern Daylight Time),339212.3999999999,057_y_m_n_a.png,I,z,602,8,1,1625.7000000001863,337586.6999999997,9070,NNB,C,7
8,test,4,0.0,1-Back,1.0,m,Wed Apr 15 2026 10:38:14 GMT-0400 (Eastern Daylight Time),340845.7999999998,098_y_f_n_a.png,I,m,600,9,1,1624.1000000000931,339221.6999999997,9070,NNB,C,8
9,test,4,0.0,1-Back,1.0,m,Wed Apr 15 2026 10:38:14 GMT-0400 (Eastern Daylight Time),342529.0,082_m_m_n_a.png,I,m,662,10,1,1673.8000000002794,340855.1999999997,9070,NNB,C,9
10,test,4,1.0,1-Back,1.0,z,Wed Apr 15 2026 10:38:14 GMT-0400 (Eastern Daylight Time),344179.0,082_m_m_n_a.png,I,z,620,11,1,1643.3999999999069,342535.6000000001,9070,NNB,C,10
11,test,4,0.0,1-Back,1.0,m,Wed Apr 15 2026 10:38:14 GMT-0400 (Eastern Daylight Time),345795.7999999998,130_o_f_n_a.png,I,m,593,12,1,1604.0,344191.7999999998,9070,NNB,C,11
12,test,4,0.0,1-Back,1.0,m,Wed Apr 15 2026 10:38:14 GMT-0400 (Eastern Daylight Time),347495.6000000001,059_o_m_n_a.png,I,m,681,13,1,1691.7000000001863,345803.8999999999,9070,NNB,C,12
12,test,4,0.0,1-Back,0.0,m,Wed Apr 15 2026 10:38:14 GMT-0400 (Eastern Daylight Time),349145.7999999998,130_o_f_n_a.png,I,z,621,14,1,1639.2999999998137,347506.5,9070,NNB,C,13
13,test,4,0.0,1-Back,1.0,m,Wed Apr 15 2026 10:38:14 GMT-0400 (Eastern Daylight Time),350762.2999999998,028_y_f_n_a.png,I,m,587,15,1,1607.1999999997206,349155.1000000001,9070,NNB,C,14
14,test,4,1.0,1-Back,1.0,z,Wed Apr 15 2026 10:38:14 GMT-0400 (Eastern Daylight Time),352428.8999999999,028_y_f_n_a.png,I,z,633,16,1,1658.5,350770.3999999999,9070,NNB,C,15
15,test,4,0.0,1-Back,1.0,m,Wed Apr 15 2026 10:38:14 GMT-0400 (Eastern Daylight Time),354062.5,006_m_f_n_a.png,I,m,615,17,1,1621.3999999999069,352441.1000000001,9070,NNB,C,16
16,test,4,1.0,1-Back,1.0,z,Wed Apr 15 2026 10:38:14 GMT-0400 (Eastern Daylight Time),355595.8999999999,006_m_f_n_a.png,I,z,510,18,1,1527.1000000000931,354068.7999999998,9070,NNB,C,17
0,test,5,1.0,1-Back,,,Wed Apr 15 2026 10:38:14 GMT-0400 (Eastern Daylight Time),355595.8999999999,059_o_m_n_a.png,I,space,3369,1,1,1527.1000000000931,354068.7999999998,9070,NNB,C,0
1,test,5,1.0,1-Back,1.0,z,Wed Apr 15 2026 10:38:14 GMT-0400 (Eastern Daylight Time),362529.1000000001,059_o_m_n_a.png,I,z,513,2,1,1522.2000000001863,361006.8999999999,9070,NNB,C,1
2,test,5,0.0,1-Back,1.0,m,Wed Apr 15 2026 10:38:14 GMT-0400 (Eastern Daylight Time),364079.0,098_y_f_n_a.png,I,m,532,3,1,1541.6000000000931,362537.3999999999,9070,NNB,C,2
3,test,5,0.0,1-Back,1.0,m,Wed Apr 15 2026 10:38:14 GMT-0400 (Eastern Daylight Time),365628.8999999999,057_y_m_n_a.png,I,m,524,4,1,1542.6000000000931,364086.2999999998,9070,NNB,C,3
4,test,5,0.0,1-Back,1.0,m,Wed Apr 15 2026 10:38:14 GMT-0400 (Eastern Daylight Time),367195.6000000001,098_y_f_n_a.png,I,m,536,5,1,1561.1000000000931,365634.5,9070,NNB,C,4
4,test,5,0.0,1-Back,0.0,m,Wed Apr 15 2026 10:38:14 GMT-0400 (Eastern Daylight Time),368762.2999999998,092_m_m_n_a.png,I,z,545,6,1,1559.2999999998137,367203.0,9070,NNB,C,5
5,test,5,1.0,1-Back,1.0,z,Wed Apr 15 2026 10:38:14 GMT-0400 (Eastern Daylight Time),370395.7999999998,092_m_m_n_a.png,I,z,602,7,1,1623.7999999998137,368772.0,9070,NNB,C,6
6,test,5,0.0,1-Back,1.0,m,Wed Apr 15 2026 10:38:14 GMT-0400 (Eastern Daylight Time),372046.1000000001,028_y_f_n_a.png,I,m,633,8,1,1640.3000000002794,370405.7999999998,9070,NNB,C,7
7,test,5,0.0,1-Back,1.0,m,Wed Apr 15 2026 10:38:14 GMT-0400 (Eastern Daylight Time),373629.1000000001,031_y_m_n_a.png,I,m,559,9,1,1575.2000000001863,372053.8999999999,9070,NNB,C,8
8,test,5,0.0,1-Back,1.0,m,Wed Apr 15 2026 10:38:14 GMT-0400 (Eastern Daylight Time),375562.3999999999,028_y_f_n_a.png,I,m,904,10,1,1924.6000000000931,373637.7999999998,9070,NNB,C,9
9,test,5,0.0,1-Back,1.0,m,Wed Apr 15 2026 10:38:14 GMT-0400 (Eastern Daylight Time),377145.6999999997,130_o_f_n_a.png,I,m,554,11,1,1575.1999999997206,375570.5,9070,NNB,C,10
10,test,5,1.0,1-Back,1.0,z,Wed Apr 15 2026 10:38:14 GMT-0400 (Eastern Daylight Time),378646.0,130_o_f_n_a.png,I,z,483,12,1,1492.6000000000931,377153.3999999999,9070,NNB,C,11
11,test,5,0.0,1-Back,1.0,m,Wed Apr 15 2026 10:38:14 GMT-0400 (Eastern Daylight Time),380195.7999999998,146_o_m_n_a.png,I,m,519,13,1,1542.6999999997206,378653.1000000001,9070,NNB,C,12
12,test,5,0.0,1-Back,1.0,m,Wed Apr 15 2026 10:38:14 GMT-0400 (Eastern Daylight Time),381745.6999999997,093_m_f_n_a.png,I,m,529,14,1,1542.2999999998137,380203.3999999999,9070,NNB,C,13
13,test,5,1.0,1-Back,1.0,z,Wed Apr 15 2026 10:38:14 GMT-0400 (Eastern Daylight Time),383345.7999999998,093_m_f_n_a.png,I,z,578,15,1,1592.8999999999069,381752.8999999999,9070,NNB,C,14
14,test,5,0.0,1-Back,1.0,m,Wed Apr 15 2026 10:38:14 GMT-0400 (Eastern Daylight Time),384962.2999999998,146_o_m_n_a.png,I,m,595,16,1,1610.5,383351.7999999998,9070,NNB,C,15
15,test,5,0.0,1-Back,1.0,m,Wed Apr 15 2026 10:38:14 GMT-0400 (Eastern Daylight Time),386495.5,006_m_f_n_a.png,I,m,514,17,1,1525.8000000002794,384969.6999999997,9070,NNB,C,16
16,test,5,0.0,1-Back,1.0,m,Wed Apr 15 2026 10:38:14 GMT-0400 (Eastern Daylight Time),388079.0,082_m_m_n_a.png,I,m,564,18,1,1575.1000000000931,386503.8999999999,9070,NNB,C,17
0,prac,1,0.0,2-Back,,,Wed Apr 15 2026 10:38:14 GMT-0400 (Eastern Daylight Time),388079.0,031_y_m_n_a.png,I,space,11323,1,1,1575.1000000000931,386503.8999999999,9070,NNB,C,0
0,prac,1,0.0,2-Back,,,Wed Apr 15 2026 10:38:14 GMT-0400 (Eastern Daylight Time),388079.0,006_m_f_n_a.png,I,space,11323,2,1,1575.1000000000931,386503.8999999999,9070,NNB,C,0
1,prac,1,1.0,2-Back,1.0,m,Wed Apr 15 2026 10:38:14 GMT-0400 (Eastern Daylight Time),539223.6000000001,146_o_m_n_a.png,I,m,1647,3,1,2712.4000000003725,536511.1999999997,9070,NNB,C,1
2,prac,1,0.0,2-Back,1.0,m,Wed Apr 15 2026 10:38:14 GMT-0400 (Eastern Daylight Time),541062.6000000001,130_o_f_n_a.png,I,m,745,4,1,1828.0,539234.6000000001,9070,NNB,C,2
2,prac,1,0.0,2-Back,0.0,z,Wed Apr 15 2026 10:38:14 GMT-0400 (Eastern Daylight Time),542962.1000000001,146_o_m_n_a.png,I,m,1103,5,1,1884.1000000000931,541078.0,9070,NNB,C,3
3,prac,1,1.0,2-Back,1.0,z,Wed Apr 15 2026 10:38:14 GMT-0400 (Eastern Daylight Time),544845.8999999999,130_o_f_n_a.png,I,z,1100,6,1,1875.6000000000931,542970.2999999998,9070,NNB,C,4
4,prac,1,0.0,2-Back,1.0,m,Wed Apr 15 2026 10:38:14 GMT-0400 (Eastern Daylight Time),546528.7999999998,082_m_m_n_a.png,I,m,899,7,1,1670.3999999999069,544858.3999999999,9070,NNB,C,5
5,prac,1,0.0,2-Back,1.0,m,Wed Apr 15 2026 10:38:14 GMT-0400 (Eastern Daylight Time),548979.0,059_o_m_n_a.png,I,m,1442,8,1,2440.5,546538.5,9070,NNB,C,6
6,prac,1,0.0,2-Back,1.0,m,Wed Apr 15 2026 10:38:14 GMT-0400 (Eastern Daylight Time),551496.0,028_y_f_n_a.png,I,m,1495,9,1,2510.399999999907,548985.6000000001,9070,NNB,C,7
6,prac,1,1.0,2-Back,0.0,z,Wed Apr 15 2026 10:38:14 GMT-0400 (Eastern Daylight Time),553612.6999999997,059_o_m_n_a.png,I,m,1310,10,1,2094.7999999998137,551517.8999999999,9070,NNB,C,8
6,prac,1,0.0,2-Back,0.0,m,Wed Apr 15 2026 10:38:14 GMT-0400 (Eastern Daylight Time),555579.7999999998,098_y_f_n_a.png,I,z,955,11,1,1955.1000000000931,553624.6999999997,9070,NNB,C,9
7,prac,1,0.0,2-Back,1.0,m,Wed Apr 15 2026 10:38:14 GMT-0400 (Eastern Daylight Time),557145.7999999998,082_m_m_n_a.png,I,m,786,12,1,1559.1000000000931,555586.6999999997,9070,NNB,C,10
0,test,1,0.0,2-Back,,,Wed Apr 15 2026 10:38:14 GMT-0400 (Eastern Daylight Time),557145.7999999998,057_y_m_n_a.png,I,space,11752,1,1,1559.1000000000931,555586.6999999997,9070,NNB,C,0
0,test,1,0.0,2-Back,,,Wed Apr 15 2026 10:38:14 GMT-0400 (Eastern Daylight Time),557145.7999999998,057_y_m_n_a.png,I,space,11752,2,1,1559.1000000000931,555586.6999999997,9070,NNB,C,0
1,test,1,0.0,2-Back,1.0,m,Wed Apr 15 2026 10:38:14 GMT-0400 (Eastern Daylight Time),604212.5,130_o_f_n_a.png,I,m,892,3,1,1908.6000000000931,602303.8999999999,9070,NNB,C,1
2,test,1,0.0,2-Back,1.0,m,Wed Apr 15 2026 10:38:14 GMT-0400 (Eastern Daylight Time),605945.7999999998,092_m_m_n_a.png,I,m,703,4,1,1723.8999999999069,604221.8999999999,9070,NNB,C,2
3,test,1,1.0,2-Back,1.0,z,Wed Apr 15 2026 10:38:14 GMT-0400 (Eastern Daylight Time),607695.6999999997,130_o_f_n_a.png,I,z,731,5,1,1740.8999999999069,605954.7999999998,9070,NNB,C,3
4,test,1,0.0,2-Back,1.0,m,Wed Apr 15 2026 10:38:14 GMT-0400 (Eastern Daylight Time),609745.6999999997,098_y_f_n_a.png,I,m,1027,6,1,2039.8999999999069,607705.7999999998,9070,NNB,C,4
4,test,1,0.0,2-Back,0.0,m,Wed Apr 15 2026 10:38:14 GMT-0400 (Eastern Daylight Time),611662.3999999999,092_m_m_n_a.png,I,z,890,7,1,1906.8999999999069,609755.5,9070,NNB,C,5
5,test,1,1.0,2-Back,1.0,z,Wed Apr 15 2026 10:38:14 GMT-0400 (Eastern Daylight Time),613762.1999999997,098_y_f_n_a.png,I,z,1077,8,1,2091.2999999998137,611670.8999999999,9070,NNB,C,6
6,test,1,0.0,2-Back,1.0,m,Wed Apr 15 2026 10:38:14 GMT-0400 (Eastern Daylight Time),616012.0,031_y_m_n_a.png,I,m,1224,9,1,2245.600000000093,613766.3999999999,9070,NNB,C,7
7,test,1,0.0,2-Back,1.0,m,Wed Apr 15 2026 10:38:14 GMT-0400 (Eastern Daylight Time),618679.0,030_o_f_n_a.png,I,m,1648,10,1,2663.100000000093,616015.8999999999,9070,NNB,C,8
8,test,1,1.0,2-Back,1.0,z,Wed Apr 15 2026 10:38:14 GMT-0400 (Eastern Daylight Time),621062.2999999998,031_y_m_n_a.png,I,z,1362,11,1,2375.7999999998137,618686.5,9070,NNB,C,9
9,test,1,0.0,2-Back,1.0,m,Wed Apr 15 2026 10:38:14 GMT-0400 (Eastern Daylight Time),623745.6999999997,006_m_f_n_a.png,I,m,1649,12,1,2675.0,621070.6999999997,9070,NNB,C,10
9,test,1,0.0,2-Back,0.0,m,Wed Apr 15 2026 10:38:14 GMT-0400 (Eastern Daylight Time),626779.6000000001,006_m_f_n_a.png,I,None,2016,13,1,3022.3000000002794,623757.2999999998,9070,NNB,C,11
10,test,1,0.0,2-Back,1.0,m,Wed Apr 15 2026 10:38:14 GMT-0400 (Eastern Daylight Time),629279.1000000001,146_o_m_n_a.png,I,m,1449,14,1,2466.2000000001863,626812.8999999999,9070,NNB,C,12
10,test,1,0.0,2-Back,0.0,m,Wed Apr 15 2026 10:38:14 GMT-0400 (Eastern Daylight Time),631629.1999999997,030_o_f_n_a.png,I,z,1325,15,1,2341.0999999996275,629288.1000000001,9070,NNB,C,13
10,test,1,1.0,2-Back,0.0,z,Wed Apr 15 2026 10:38:14 GMT-0400 (Eastern Daylight Time),633646.0,146_o_m_n_a.png,I,m,999,16,1,2006.0,631640.0,9070,NNB,C,14
11,test,1,0.0,2-Back,1.0,m,Wed Apr 15 2026 10:38:14 GMT-0400 (Eastern Daylight Time),635862.0,093_m_f_n_a.png,I,m,1189,17,1,2208.2000000001863,633653.7999999998,9070,NNB,C,15
11,test,1,0.0,2-Back,0.0,m,Wed Apr 15 2026 10:38:14 GMT-0400 (Eastern Daylight Time),637545.6999999997,082_m_m_n_a.png,I,z,645,18,1,1658.0,635887.6999999997,9070,NNB,C,16
0,test,2,0.0,2-Back,,,Wed Apr 15 2026 10:38:14 GMT-0400 (Eastern Daylight Time),637545.6999999997,082_m_m_n_a.png,I,space,4331,1,1,1658.0,635887.6999999997,9070,NNB,C,0
0,test,2,0.0,2-Back,,,Wed Apr 15 2026 10:38:14 GMT-0400 (Eastern Daylight Time),637545.6999999997,028_y_f_n_a.png,I,space,4331,2,1,1658.0,635887.6999999997,9070,NNB,C,0
1,test,2,1.0,2-Back,1.0,z,Wed Apr 15 2026 10:38:14 GMT-0400 (Eastern Daylight Time),648878.8999999999,082_m_m_n_a.png,I,z,606,3,1,1622.5,647256.3999999999,9070,NNB,C,1
2,test,2,0.0,2-Back,1.0,m,Wed Apr 15 2026 10:38:14 GMT-0400 (Eastern Daylight Time),650829.0,093_m_f_n_a.png,I,m,924,4,1,1944.6000000000931,648884.3999999999,9070,NNB,C,2
2,test,2,0.0,2-Back,0.0,m,Wed Apr 15 2026 10:38:14 GMT-0400 (Eastern Daylight Time),652678.8999999999,028_y_f_n_a.png,I,z,798,5,1,1803.2000000001863,650875.6999999997,9070,NNB,C,3
3,test,2,0.0,2-Back,1.0,m,Wed Apr 15 2026 10:38:14 GMT-0400 (Eastern Daylight Time),654262.3999999999,146_o_m_n_a.png,I,m,557,6,1,1576.7000000001863,652685.6999999997,9070,NNB,C,4
3,test,2,0.0,2-Back,0.0,m,Wed Apr 15 2026 10:38:14 GMT-0400 (Eastern Daylight Time),655895.6999999997,098_y_f_n_a.png,I,z,613,7,1,1624.0999999996275,654271.6000000001,9070,NNB,C,5
3,test,2,1.0,2-Back,0.0,z,Wed Apr 15 2026 10:38:14 GMT-0400 (Eastern Daylight Time),657812.6000000001,146_o_m_n_a.png,I,m,884,8,1,1907.5,655905.1000000001,9070,NNB,C,6
4,test,2,0.0,2-Back,1.0,m,Wed Apr 15 2026 10:38:14 GMT-0400 (Eastern Daylight Time),659729.0,031_y_m_n_a.png,I,m,896,9,1,1908.3999999999069,657820.6000000001,9070,NNB,C,7
4,test,2,0.0,2-Back,0.0,m,Wed Apr 15 2026 10:38:14 GMT-0400 (Eastern Daylight Time),662445.6999999997,031_y_m_n_a.png,I,z,1691,10,1,2712.2999999998137,659733.3999999999,9070,NNB,C,8
5,test,2,0.0,2-Back,1.0,m,Wed Apr 15 2026 10:38:14 GMT-0400 (Eastern Daylight Time),665279.1000000001,006_m_f_n_a.png,I,m,1806,11,1,2825.5,662453.6000000001,9070,NNB,C,9
6,test,2,0.0,2-Back,1.0,m,Wed Apr 15 2026 10:38:14 GMT-0400 (Eastern Daylight Time),667312.3999999999,028_y_f_n_a.png,I,m,1005,12,1,2026.1000000000931,665286.2999999998,9070,NNB,C,10
7,test,2,1.0,2-Back,1.0,z,Wed Apr 15 2026 10:38:14 GMT-0400 (Eastern Daylight Time),669246.0,006_m_f_n_a.png,I,z,915,13,1,1925.5,667320.5,9070,NNB,C,11
8,test,2,0.0,2-Back,1.0,m,Wed Apr 15 2026 10:38:14 GMT-0400 (Eastern Daylight Time),671046.0,059_o_m_n_a.png,I,m,782,14,1,1788.5,669257.5,9070,NNB,C,12
9,test,2,0.0,2-Back,1.0,m,Wed Apr 15 2026 10:38:14 GMT-0400 (Eastern Daylight Time),673662.2999999998,059_o_m_n_a.png,I,m,1598,15,1,2609.5,671052.7999999998,9070,NNB,C,13
10,test,2,0.0,2-Back,1.0,m,Wed Apr 15 2026 10:38:14 GMT-0400 (Eastern Daylight Time),675929.1000000001,030_o_f_n_a.png,I,m,1146,16,1,2162.9000000003725,673766.1999999997,9070,NNB,C,14
11,test,2,0.0,2-Back,1.0,m,Wed Apr 15 2026 10:38:14 GMT-0400 (Eastern Daylight Time),677812.3999999999,092_m_m_n_a.png,I,m,850,17,1,1873.6000000000931,675938.7999999998,9070,NNB,C,15
12,test,2,1.0,2-Back,1.0,z,Wed Apr 15 2026 10:38:14 GMT-0400 (Eastern Daylight Time),680246.0,030_o_f_n_a.png,I,z,1416,18,1,2426.0,677820.0,9070,NNB,C,16
0,test,3,1.0,2-Back,,,Wed Apr 15 2026 10:38:14 GMT-0400 (Eastern Daylight Time),680246.0,057_y_m_n_a.png,I,space,3630,1,1,2426.0,677820.0,9070,NNB,C,0
0,test,3,1.0,2-Back,,,Wed Apr 15 2026 10:38:14 GMT-0400 (Eastern Daylight Time),680246.0,057_y_m_n_a.png,I,space,3630,2,1,2426.0,677820.0,9070,NNB,C,0
1,test,3,0.0,2-Back,1.0,m,Wed Apr 15 2026 10:38:14 GMT-0400 (Eastern Daylight Time),691245.7999999998,030_o_f_n_a.png,I,m,1050,3,1,2074.0,689171.7999999998,9070,NNB,C,1
2,test,3,0.0,2-Back,1.0,m,Wed Apr 15 2026 10:38:14 GMT-0400 (Eastern Daylight Time),693562.3999999999,082_m_m_n_a.png,I,m,1293,4,1,2307.7000000001863,691254.6999999997,9070,NNB,C,2
3,test,3,1.0,2-Back,1.0,z,Wed Apr 15 2026 10:38:14 GMT-0400 (Eastern Daylight Time),695795.6999999997,030_o_f_n_a.png,I,z,1201,5,1,2223.0,693572.6999999997,9070,NNB,C,3
4,test,3,0.0,2-Back,1.0,m,Wed Apr 15 2026 10:38:14 GMT-0400 (Eastern Daylight Time),697829.1999999997,031_y_m_n_a.png,I,m,999,6,1,2026.0,695803.1999999997,9070,NNB,C,4
5,test,3,0.0,2-Back,1.0,m,Wed Apr 15 2026 10:38:14 GMT-0400 (Eastern Daylight Time),700112.3999999999,082_m_m_n_a.png,I,m,1263,7,1,2272.399999999907,697840.0,9070,NNB,C,5
5,test,3,1.0,2-Back,0.0,z,Wed Apr 15 2026 10:38:14 GMT-0400 (Eastern Daylight Time),702645.7999999998,031_y_m_n_a.png,I,m,1499,8,1,2524.899999999907,700120.8999999999,9070,NNB,C,6
6,test,3,0.0,2-Back,1.0,m,Wed Apr 15 2026 10:38:14 GMT-0400 (Eastern Daylight Time),705362.1999999997,028_y_f_n_a.png,I,m,1686,9,1,2707.7999999998137,702654.3999999999,9070,NNB,C,7
6,test,3,0.0,2-Back,0.0,m,Wed Apr 15 2026 10:38:14 GMT-0400 (Eastern Daylight Time),707429.5,092_m_m_n_a.png,I,z,1042,10,1,2062.899999999907,705366.6000000001,9070,NNB,C,8
6,test,3,1.0,2-Back,0.0,z,Wed Apr 15 2026 10:38:14 GMT-0400 (Eastern Daylight Time),709412.5,028_y_f_n_a.png,I,m,951,11,1,1978.7000000001863,707433.7999999998,9070,NNB,C,9
7,test,3,1.0,2-Back,1.0,z,Wed Apr 15 2026 10:38:14 GMT-0400 (Eastern Daylight Time),711662.3999999999,092_m_m_n_a.png,I,z,1223,12,1,2241.899999999907,709420.5,9070,NNB,C,10
8,test,3,0.0,2-Back,1.0,m,Wed Apr 15 2026 10:38:14 GMT-0400 (Eastern Daylight Time),713896.0,030_o_f_n_a.png,I,m,1206,13,1,2223.0,711673.0,9070,NNB,C,11
8,test,3,0.0,2-Back,0.0,m,Wed Apr 15 2026 10:38:14 GMT-0400 (Eastern Daylight Time),715724.2999999998,093_m_f_n_a.png,I,z,754,14,1,1820.6999999997206,713903.6000000001,9070,NNB,C,12
9,test,3,0.0,2-Back,1.0,m,Wed Apr 15 2026 10:38:14 GMT-0400 (Eastern Daylight Time),718179.1999999997,146_o_m_n_a.png,I,m,1419,15,1,2447.7999999998137,715731.3999999999,9070,NNB,C,13
10,test,3,1.0,2-Back,1.0,z,Wed Apr 15 2026 10:38:14 GMT-0400 (Eastern Daylight Time),720262.5,093_m_f_n_a.png,I,z,1057,16,1,2076.100000000093,718186.3999999999,9070,NNB,C,14
11,test,3,0.0,2-Back,1.0,m,Wed Apr 15 2026 10:38:14 GMT-0400 (Eastern Daylight Time),722062.2999999998,130_o_f_n_a.png,I,m,781,17,1,1790.0,720272.2999999998,9070,NNB,C,15
12,test,3,0.0,2-Back,1.0,m,Wed Apr 15 2026 10:38:14 GMT-0400 (Eastern Daylight Time),724412.5,130_o_f_n_a.png,I,m,1260,18,1,2273.899999999907,722138.6000000001,9070,NNB,C,16
0,test,4,0.0,2-Back,,,Wed Apr 15 2026 10:38:14 GMT-0400 (Eastern Daylight Time),724412.5,059_o_m_n_a.png,I,space,3215,1,1,2273.899999999907,722138.6000000001,9070,NNB,C,0
0,test,4,0.0,2-Back,,,Wed Apr 15 2026 10:38:14 GMT-0400 (Eastern Daylight Time),724412.5,098_y_f_n_a.png,I,space,3215,2,1,2273.899999999907,722138.6000000001,9070,NNB,C,0
1,test,4,1.0,2-Back,1.0,z,Wed Apr 15 2026 10:38:14 GMT-0400 (Eastern Daylight Time),734895.6000000001,059_o_m_n_a.png,I,z,863,3,1,1881.9000000003725,733013.6999999997,9070,NNB,C,1
2,test,4,1.0,2-Back,1.0,z,Wed Apr 15 2026 10:38:14 GMT-0400 (Eastern Daylight Time),736945.6000000001,098_y_f_n_a.png,I,z,1029,4,1,2044.5,734901.1000000001,9070,NNB,C,2
3,test,4,0.0,2-Back,1.0,m,Wed Apr 15 2026 10:38:14 GMT-0400 (Eastern Daylight Time),739412.3999999999,030_o_f_n_a.png,I,m,1434,5,1,2461.600000000093,736950.7999999998,9070,NNB,C,3
4,test,4,0.0,2-Back,1.0,m,Wed Apr 15 2026 10:38:14 GMT-0400 (Eastern Daylight Time),741779.1000000001,030_o_f_n_a.png,I,m,1343,6,1,2358.7000000001863,739420.3999999999,9070,NNB,C,4
5,test,4,0.0,2-Back,1.0,m,Wed Apr 15 2026 10:38:14 GMT-0400 (Eastern Daylight Time),743678.8999999999,006_m_f_n_a.png,I,m,880,7,1,1887.3999999999069,741791.5,9070,NNB,C,5
6,test,4,0.0,2-Back,1.0,m,Wed Apr 15 2026 10:38:14 GMT-0400 (Eastern Daylight Time),745579.1999999997,031_y_m_n_a.png,I,m,878,8,1,1894.1999999997206,743685.0,9070,NNB,C,6
7,test,4,1.0,2-Back,1.0,z,Wed Apr 15 2026 10:38:14 GMT-0400 (Eastern Daylight Time),747229.3999999999,006_m_f_n_a.png,I,z,617,9,1,1643.2000000001863,745586.1999999997,9070,NNB,C,7
8,test,4,0.0,2-Back,1.0,m,Wed Apr 15 2026 10:38:14 GMT-0400 (Eastern Daylight Time),749012.3999999999,092_m_m_n_a.png,I,m,758,10,1,1779.0,747233.3999999999,9070,NNB,C,8
9,test,4,0.0,2-Back,1.0,m,Wed Apr 15 2026 10:38:14 GMT-0400 (Eastern Daylight Time),750995.6999999997,031_y_m_n_a.png,I,m,951,11,1,1974.6999999997206,749021.0,9070,NNB,C,9
9,test,4,0.0,2-Back,0.0,m,Wed Apr 15 2026 10:38:14 GMT-0400 (Eastern Daylight Time),753112.5,130_o_f_n_a.png,I,z,1087,12,1,2108.399999999907,751004.1000000001,9070,NNB,C,10
10,test,4,0.0,2-Back,1.0,m,Wed Apr 15 2026 10:38:14 GMT-0400 (Eastern Daylight Time),755362.5,057_y_m_n_a.png,I,m,1227,13,1,2241.2000000001863,753121.2999999998,9070,NNB,C,11
11,test,4,1.0,2-Back,1.0,z,Wed Apr 15 2026 10:38:14 GMT-0400 (Eastern Daylight Time),757562.3999999999,130_o_f_n_a.png,I,z,1154,14,1,2169.100000000093,755393.2999999998,9070,NNB,C,12
12,test,4,1.0,2-Back,1.0,z,Wed Apr 15 2026 10:38:14 GMT-0400 (Eastern Daylight Time),760445.8999999999,057_y_m_n_a.png,I,z,1849,15,1,2872.7000000001863,757573.1999999997,9070,NNB,C,13
13,test,4,0.0,2-Back,1.0,m,Wed Apr 15 2026 10:38:14 GMT-0400 (Eastern Daylight Time),762195.6999999997,082_m_m_n_a.png,I,m,725,16,1,1742.0999999996275,760453.6000000001,9070,NNB,C,14
14,test,4,0.0,2-Back,1.0,m,Wed Apr 15 2026 10:38:14 GMT-0400 (Eastern Daylight Time),764129.1999999997,093_m_f_n_a.png,I,m,911,17,1,1925.5999999996275,762203.6000000001,9070,NNB,C,15
15,test,4,1.0,2-Back,1.0,z,Wed Apr 15 2026 10:38:14 GMT-0400 (Eastern Daylight Time),765945.6000000001,082_m_m_n_a.png,I,z,793,18,1,1808.7000000001863,764136.8999999999,9070,NNB,C,16
0,test,5,1.0,2-Back,,,Wed Apr 15 2026 10:38:14 GMT-0400 (Eastern Daylight Time),765945.6000000001,057_y_m_n_a.png,I,space,2724,1,1,1808.7000000001863,764136.8999999999,9070,NNB,C,0
0,test,5,1.0,2-Back,,,Wed Apr 15 2026 10:38:14 GMT-0400 (Eastern Daylight Time),765945.6000000001,093_m_f_n_a.png,I,space,2724,2,1,1808.7000000001863,764136.8999999999,9070,NNB,C,0
1,test,5,1.0,2-Back,1.0,z,Wed Apr 15 2026 10:38:14 GMT-0400 (Eastern Daylight Time),775629.1000000001,057_y_m_n_a.png,I,z,825,3,1,1892.7000000001863,773736.3999999999,9070,NNB,C,1
2,test,5,1.0,2-Back,1.0,z,Wed Apr 15 2026 10:38:14 GMT-0400 (Eastern Daylight Time),777312.2999999998,093_m_f_n_a.png,I,z,655,4,1,1675.6999999997206,775636.6000000001,9070,NNB,C,2
3,test,5,0.0,2-Back,1.0,m,Wed Apr 15 2026 10:38:14 GMT-0400 (Eastern Daylight Time),779079.1999999997,130_o_f_n_a.png,I,m,741,5,1,1761.6999999997206,777317.5,9070,NNB,C,3
3,test,5,0.0,2-Back,0.0,m,Wed Apr 15 2026 10:38:14 GMT-0400 (Eastern Daylight Time),781045.7999999998,057_y_m_n_a.png,I,z,941,6,1,1960.0,779085.7999999998,9070,NNB,C,4
4,test,5,0.0,2-Back,1.0,m,Wed Apr 15 2026 10:38:14 GMT-0400 (Eastern Daylight Time),782729.1999999997,028_y_f_n_a.png,I,m,653,7,1,1671.2999999998137,781057.8999999999,9070,NNB,C,5
4,test,5,0.0,2-Back,0.0,m,Wed Apr 15 2026 10:38:14 GMT-0400 (Eastern Daylight Time),784379.1999999997,130_o_f_n_a.png,I,z,577,8,1,1643.0999999996275,782736.1000000001,9070,NNB,C,6
5,test,5,1.0,2-Back,1.0,z,Wed Apr 15 2026 10:38:14 GMT-0400 (Eastern Daylight Time),786645.3999999999,028_y_f_n_a.png,I,z,1248,9,1,2259.0,784386.3999999999,9070,NNB,C,7
6,test,5,0.0,2-Back,1.0,m,Wed Apr 15 2026 10:38:14 GMT-0400 (Eastern Daylight Time),788879.1999999997,146_o_m_n_a.png,I,m,1206,10,1,2229.7999999998137,786649.3999999999,9070,NNB,C,8
7,test,5,0.0,2-Back,1.0,m,Wed Apr 15 2026 10:38:14 GMT-0400 (Eastern Daylight Time),790778.8999999999,006_m_f_n_a.png,I,m,868,11,1,1892.2999999998137,788886.6000000001,9070,NNB,C,9
8,test,5,0.0,2-Back,1.0,m,Wed Apr 15 2026 10:38:14 GMT-0400 (Eastern Daylight Time),793162.5,092_m_m_n_a.png,I,m,1360,12,1,2378.899999999907,790783.6000000001,9070,NNB,C,10
9,test,5,0.0,2-Back,1.0,m,Wed Apr 15 2026 10:38:14 GMT-0400 (Eastern Daylight Time),795379.0,146_o_m_n_a.png,I,m,1193,13,1,2209.399999999907,793169.6000000001,9070,NNB,C,11
10,test,5,1.0,2-Back,1.0,z,Wed Apr 15 2026 10:38:14 GMT-0400 (Eastern Daylight Time),797312.1999999997,092_m_m_n_a.png,I,z,913,14,1,1927.8999999999069,795384.2999999998,9070,NNB,C,12
10,test,5,0.0,2-Back,0.0,m,Wed Apr 15 2026 10:38:14 GMT-0400 (Eastern Daylight Time),799312.3999999999,098_y_f_n_a.png,I,z,979,15,1,1995.6000000000931,797316.7999999998,9070,NNB,C,13
11,test,5,0.0,2-Back,1.0,m,Wed Apr 15 2026 10:38:14 GMT-0400 (Eastern Daylight Time),801362.6000000001,059_o_m_n_a.png,I,m,1027,16,1,2042.5,799320.1000000001,9070,NNB,C,14
12,test,5,0.0,2-Back,1.0,m,Wed Apr 15 2026 10:38:14 GMT-0400 (Eastern Daylight Time),803779.1999999997,006_m_f_n_a.png,I,m,1393,17,1,2408.0,801371.1999999997,9070,NNB,C,15
13,test,5,1.0,2-Back,1.0,z,Wed Apr 15 2026 10:38:14 GMT-0400 (Eastern Daylight Time),805478.8999999999,059_o_m_n_a.png,I,z,672,18,1,1692.2000000001863,803786.6999999997,9070,NNB,C,16
