acc_sum,block,block_c,condition,correct,correct_response,datetime,endtime,flanker,jitter,project,response,response_test_buffer_response,response_test_target_response,response_time,response_time_test_buffer_response,response_time_test_target_response,row_sel,session_number,start_end,starttime,subject_id,target,task,task_vers,time_test_buffer,time_test_buffer_response,time_test_constants,time_test_flanker,time_test_jitter,time_test_logger,time_test_target,time_test_target_response,time_test_variables,trial
0,prac,1,con,0,m,Thu Mar 26 2026 09:56:41 GMT-0500 (Central Daylight Time),162568.70000004768,zinc,1000,I,None,,,1814,,,15,1,5073.700000047684,157495.0,7778,zinc,NF,C,,,,,,,,,,1
0,prac,1,inc,0,z,Thu Mar 26 2026 09:56:41 GMT-0500 (Central Daylight Time),165402.79999995232,copper,900,I,m,,,621,,,2,1,2830.5,162572.29999995232,7778,cherry,NF,C,,,,,,,,,,2
1,prac,1,inc,1,z,Thu Mar 26 2026 09:56:41 GMT-0500 (Central Daylight Time),168768.60000014305,iron,900,I,z,,,1163,,,6,1,3358.300000190735,165410.29999995232,7778,pear,NF,C,,,,,,,,,,3
2,prac,1,con,1,m,Thu Mar 26 2026 09:56:41 GMT-0500 (Central Daylight Time),171435.0,gold,800,I,m,,,579,,,13,1,2659.7999999523163,168775.20000004768,7778,gold,NF,C,,,,,,,,,,4
2,prac,1,con,0,z,Thu Mar 26 2026 09:56:41 GMT-0500 (Central Daylight Time),174268.10000014305,kiwi,1000,I,m,,,543,,,7,1,2825.4000000953674,171442.70000004768,7778,kiwi,NF,C,,,,,,,,,,5
3,prac,1,con,1,z,Thu Mar 26 2026 09:56:41 GMT-0500 (Central Daylight Time),177350.0,orange,1000,I,z,,,767,,,3,1,3075.399999856949,174274.60000014305,7778,orange,NF,C,,,,,,,,,,6
4,prac,1,con,1,m,Thu Mar 26 2026 09:56:41 GMT-0500 (Central Daylight Time),179748.79999995232,bronze,800,I,m,,,284,,,9,1,2392.0999999046326,177356.70000004768,7778,bronze,NF,C,,,,,,,,,,7
5,prac,1,inc,1,m,Thu Mar 26 2026 09:56:41 GMT-0500 (Central Daylight Time),182598.5,cherry,900,I,m,,,632,,,10,1,2843.7999999523163,179754.70000004768,7778,copper,NF,C,,,,,,,,,,8
6,prac,1,inc,1,m,Thu Mar 26 2026 09:56:41 GMT-0500 (Central Daylight Time),185181.0,pear,900,I,m,,,393,,,14,1,2577.5,182603.5,7778,iron,NF,C,,,,,,,,,,9
7,prac,1,inc,1,m,Thu Mar 26 2026 09:56:41 GMT-0500 (Central Daylight Time),187897.29999995232,raisin,1100,I,m,,,314,,,12,1,2709.2999999523163,185188.0,7778,cobalt,NF,C,,,,,,,,,,10
8,prac,1,inc,1,z,Thu Mar 26 2026 09:56:41 GMT-0500 (Central Daylight Time),190763.0,cobalt,1100,I,z,,,455,,,4,1,2860.899999856949,187902.10000014305,7778,raisin,NF,C,,,,,,,,,,11
9,prac,1,con,1,z,Thu Mar 26 2026 09:56:41 GMT-0500 (Central Daylight Time),193278.10000014305,banana,800,I,z,,,401,,,1,1,2508.800000190735,190769.29999995232,7778,banana,NF,C,,,,,,,,,,12
9,prac,1,con,0,m,Thu Mar 26 2026 09:56:41 GMT-0500 (Central Daylight Time),195961.0,silver,1000,I,z,,,383,,,11,1,2676.0,193285.0,7778,silver,NF,C,,,,,,,,,,13
10,prac,1,con,1,z,Thu Mar 26 2026 09:56:41 GMT-0500 (Central Daylight Time),198476.5,lime,800,I,z,,,403,,,5,1,2509.5999999046326,195966.90000009537,7778,lime,NF,C,,,,,,,,,,14
11,prac,1,inc,1,z,Thu Mar 26 2026 09:56:41 GMT-0500 (Central Daylight Time),201675.79999995232,lead,1100,I,z,,,785,,,8,1,3193.899999856949,198481.90000009537,7778,plum,NF,C,,,,,,,,,,15
12,prac,1,inc,1,m,Thu Mar 26 2026 09:56:41 GMT-0500 (Central Daylight Time),204491.20000004768,plum,1100,I,m,,,411,,,16,1,2810.7999999523163,201680.40000009537,7778,lead,NF,C,,,,,,,,,,16
1,test,1,con,1,z,Thu Mar 26 2026 09:56:41 GMT-0500 (Central Daylight Time),227883.10000014305,banana,1000,I,z,z,None,583,384.0,199.0,3,1,2128.0,225755.10000014305,7778,banana,NF,C,221047,221047,219318,220330,219318,221446,220847,220847,221446,1
2,test,1,inc,1,m,Thu Mar 26 2026 09:56:41 GMT-0500 (Central Daylight Time),229633.60000014305,banana,800,I,m,m,None,415,216.0,199.0,85,1,1744.5,227889.10000014305,7778,silver,NF,C,222964,222964,221452,222262,221452,223197,222764,222764,223197,2
2,test,1,inc,0,z,Thu Mar 26 2026 09:56:41 GMT-0500 (Central Daylight Time),231649.90000009537,lead,1100,I,m,m,None,399,185.0,214.0,64,1,2011.0,229638.90000009537,7778,plum,NF,C,225027,225027,223202,224312,223202,225213,224813,224813,225213,3
3,test,1,con,1,z,Thu Mar 26 2026 09:56:41 GMT-0500 (Central Daylight Time),233647.40000009537,cherry,1100,I,z,z,None,373,159.0,214.0,12,1,1991.2000000476837,231656.20000004768,7778,cherry,NF,C,227044,227044,225219,226327,225219,227210,226829,226829,227210,4
4,test,1,inc,1,z,Thu Mar 26 2026 09:56:41 GMT-0500 (Central Daylight Time),235630.79999995232,iron,900,I,z,z,None,543,343.0,200.0,38,1,1978.6999998092651,233652.10000014305,7778,lime,NF,C,228845,228845,227215,228129,227215,229194,228645,228645,229194,5
5,test,1,con,1,z,Thu Mar 26 2026 09:56:41 GMT-0500 (Central Daylight Time),237363.70000004768,kiwi,900,I,z,z,None,296,96.0,200.0,50,1,1728.4000000953674,235635.29999995232,7778,kiwi,NF,C,230827,230827,229198,230111,229199,230927,230627,230627,230927,6
6,test,1,con,1,z,Thu Mar 26 2026 09:56:41 GMT-0500 (Central Daylight Time),239063.40000009537,banana,800,I,z,z,None,349,150.0,199.0,1,1,1695.9000000953674,237367.5,7778,banana,NF,C,232459,232460,230931,231743,230931,232626,232260,232260,232626,7
7,test,1,inc,1,m,Thu Mar 26 2026 09:56:41 GMT-0500 (Central Daylight Time),241079.60000014305,raisin,1100,I,m,m,None,368,168.0,200.0,80,1,2011.0,239068.60000014305,7778,copper,NF,C,234459,234459,232632,233743,232632,234643,234259,234259,234643,8
8,test,1,con,1,m,Thu Mar 26 2026 09:56:41 GMT-0500 (Central Daylight Time),243113.20000004768,copper,1000,I,m,m,None,500,300.0,200.0,75,1,2027.9000000953674,241085.29999995232,7778,copper,NF,C,236376,236376,234648,235660,234649,236676,236175,236175,236676,9
9,test,1,con,1,m,Thu Mar 26 2026 09:56:41 GMT-0500 (Central Daylight Time),245044.5,copper,1100,I,m,m,None,303,103.0,200.0,76,1,1927.0999999046326,243117.40000009537,7778,copper,NF,C,238492,238492,236680,237790,236681,238608,238291,238291,238608,10
10,test,1,con,1,m,Thu Mar 26 2026 09:56:41 GMT-0500 (Central Daylight Time),246910.5,gold,1000,I,m,m,None,317,117.0,200.0,99,1,1859.7999999523163,245050.70000004768,7778,gold,NF,C,240341,240341,238614,239625,238614,240474,240141,240141,240474,11
10,test,1,con,0,z,Thu Mar 26 2026 09:56:41 GMT-0500 (Central Daylight Time),248611.5,pear,800,I,m,m,None,357,158.0,199.0,41,1,1694.3999998569489,246917.10000014305,7778,pear,NF,C,242006,242006,240480,241290,240480,242175,241807,241807,242175,12
11,test,1,inc,1,z,Thu Mar 26 2026 09:56:41 GMT-0500 (Central Daylight Time),250642.20000004768,silver,1000,I,z,z,None,495,281.0,214.0,15,1,2023.4000000953674,248618.79999995232,7778,cherry,NF,C,243908,243908,242182,243190,242182,244205,243693,243693,244205,13
12,test,1,con,1,m,Thu Mar 26 2026 09:56:41 GMT-0500 (Central Daylight Time),253025.20000004768,lead,1000,I,m,m,None,855,653.0,202.0,123,1,2376.9000000953674,250648.29999995232,7778,lead,NF,C,245925,245925,244211,245222,244212,246588,245723,245723,246588,14
13,test,1,inc,1,m,Thu Mar 26 2026 09:56:41 GMT-0500 (Central Daylight Time),255172.79999995232,raisin,1100,I,m,m,None,501,300.0,201.0,96,1,2144.5,253028.29999995232,7778,cobalt,NF,C,248423,248423,246591,247705,246592,248736,248221,248221,248736,15
14,test,1,con,1,m,Thu Mar 26 2026 09:56:41 GMT-0500 (Central Daylight Time),256958.29999995232,lead,800,I,m,m,None,432,219.0,213.0,121,1,1780.8999998569489,255177.40000009537,7778,lead,NF,C,250288,250288,248740,249554,248741,250521,250074,250074,250521,16
14,test,1,con,0,z,Thu Mar 26 2026 09:56:41 GMT-0500 (Central Daylight Time),258772.70000004768,plum,900,I,m,m,None,368,168.0,200.0,58,1,1807.2999999523163,256965.40000009537,7778,plum,NF,C,252154,252154,250528,251437,250529,252336,251953,251953,252336,17
15,test,1,inc,1,m,Thu Mar 26 2026 09:56:41 GMT-0500 (Central Daylight Time),260922.29999995232,cherry,900,I,m,m,None,728,514.0,214.0,86,1,2145.5,258776.79999995232,7778,silver,NF,C,253970,253970,252340,253252,252340,254485,253755,253755,254485,18
16,test,1,inc,1,m,Thu Mar 26 2026 09:56:41 GMT-0500 (Central Daylight Time),263072.7999999523,kiwi,1000,I,m,m,None,613,398.0,215.0,111,1,2143.5999999046326,260929.20000004768,7778,iron,NF,C,256221,256221,254492,255502,254493,256636,256005,256005,256636,19
17,test,1,con,1,m,Thu Mar 26 2026 09:56:41 GMT-0500 (Central Daylight Time),265055.10000014305,iron,800,I,m,m,None,636,437.0,199.0,105,1,1976.4000000953674,263078.7000000477,7778,iron,NF,C,258168,258168,256642,257453,256642,258618,257968,257968,258618,20
18,test,1,inc,1,z,Thu Mar 26 2026 09:56:41 GMT-0500 (Central Daylight Time),266870.2999999523,gold,800,I,z,z,None,473,259.0,214.0,45,1,1810.3999998569489,265059.90000009537,7778,pear,NF,C,260167,260168,258623,259434,258623,260433,259953,259953,260433,21
19,test,1,inc,1,z,Thu Mar 26 2026 09:56:41 GMT-0500 (Central Daylight Time),268603.5,bronze,800,I,z,z,None,395,193.0,202.0,29,1,1728.2999999523163,266875.2000000477,7778,raisin,NF,C,261970,261970,260438,261250,260438,262167,261767,261767,262167,22
20,test,1,inc,1,m,Thu Mar 26 2026 09:56:41 GMT-0500 (Central Daylight Time),270802.90000009537,plum,1100,I,m,m,None,553,338.0,215.0,120,1,2193.7000000476837,268609.2000000477,7778,zinc,NF,C,264017,264017,262172,263281,262173,264366,263801,263801,264366,23
20,test,1,inc,0,z,Thu Mar 26 2026 09:56:41 GMT-0500 (Central Daylight Time),272885.90000009537,zinc,1000,I,m,m,None,533,318.0,215.0,39,1,2076.7999999523163,270809.10000014305,7778,lime,NF,C,266116,266116,264372,265382,264373,266449,265901,265901,266449,24
21,test,1,con,1,z,Thu Mar 26 2026 09:56:41 GMT-0500 (Central Daylight Time),275018.7999999523,orange,800,I,z,z,None,787,575.0,212.0,17,1,2128.199999809265,272890.60000014305,7778,orange,NF,C,267997,267997,266454,267266,266454,268582,267785,267785,268582,25
22,test,1,inc,1,m,Thu Mar 26 2026 09:56:41 GMT-0500 (Central Daylight Time),277000.2999999523,lime,800,I,m,m,None,632,432.0,200.0,109,1,1975.6999998092651,275024.60000014305,7778,iron,NF,C,270115,270115,268588,269398,268588,270563,269914,269914,270563,26
23,test,1,con,1,z,Thu Mar 26 2026 09:56:41 GMT-0500 (Central Daylight Time),279400.7999999523,orange,1000,I,z,z,None,867,666.0,201.0,19,1,2393.7999999523163,277007.0,7778,orange,NF,C,272298,272298,270570,271582,270570,272964,272096,272096,272964,27
24,test,1,con,1,m,Thu Mar 26 2026 09:56:41 GMT-0500 (Central Daylight Time),281264.60000014305,gold,800,I,m,m,None,520,305.0,215.0,97,1,1858.3000001907349,279406.2999999523,7778,gold,NF,C,274513,274513,272969,273780,272969,274828,274297,274297,274828,28
24,test,1,inc,0,z,Thu Mar 26 2026 09:56:41 GMT-0500 (Central Daylight Time),283348.2000000477,lead,1100,I,m,m,None,435,236.0,199.0,56,1,2079.0,281269.2000000477,7778,kiwi,NF,C,276662,276662,274832,275946,274832,276911,276463,276463,276911,29
25,test,1,inc,1,z,Thu Mar 26 2026 09:56:41 GMT-0500 (Central Daylight Time),285597.60000014305,copper,900,I,z,z,None,804,604.0,200.0,6,1,2246.5,283351.10000014305,7778,banana,NF,C,278543,278543,276914,277829,276914,279161,278343,278343,279161,30
26,test,1,inc,1,m,Thu Mar 26 2026 09:56:41 GMT-0500 (Central Daylight Time),287480.7000000477,banana,800,I,m,m,None,533,333.0,200.0,77,1,1878.5999999046326,285602.10000014305,7778,copper,NF,C,280694,280694,279165,279979,279165,281044,280494,280494,281044,31
27,test,1,con,1,m,Thu Mar 26 2026 09:56:41 GMT-0500 (Central Daylight Time),289663.10000014305,iron,1000,I,m,m,None,633,432.0,201.0,107,1,2176.4000000953674,287486.7000000477,7778,iron,NF,C,282778,282778,281050,282061,281050,283226,282577,282577,283226,32
28,test,1,inc,1,m,Thu Mar 26 2026 09:56:41 GMT-0500 (Central Daylight Time),291713.7999999523,kiwi,1000,I,m,m,None,515,299.0,216.0,119,1,2045.0999999046326,289668.7000000477,7778,zinc,NF,C,284977,284977,283232,284244,283232,285277,284760,284760,285277,33
29,test,1,inc,1,z,Thu Mar 26 2026 09:56:41 GMT-0500 (Central Daylight Time),293860.7000000477,cobalt,1100,I,z,z,None,524,312.0,212.0,8,1,2140.7000000476837,291720.0,7778,banana,NF,C,287107,287107,285283,286393,285283,287424,286895,286895,287424,34
30,test,1,inc,1,z,Thu Mar 26 2026 09:56:41 GMT-0500 (Central Daylight Time),295710.7000000477,bronze,800,I,z,z,None,507,292.0,215.0,5,1,1845.4000000953674,293865.2999999523,7778,banana,NF,C,288975,288975,287428,288243,287429,289274,288759,288759,289274,35
30,test,1,inc,0,z,Thu Mar 26 2026 09:56:41 GMT-0500 (Central Daylight Time),297545.5,copper,900,I,m,m,None,399,199.0,200.0,14,1,1829.0999999046326,295716.40000009537,7778,cherry,NF,C,290909,290909,289279,290191,289280,291109,290708,290708,291108,36
31,test,1,inc,1,m,Thu Mar 26 2026 09:56:41 GMT-0500 (Central Daylight Time),299945.0,kiwi,1000,I,m,m,None,858,643.0,215.0,103,1,2393.399999856949,297551.60000014305,7778,gold,NF,C,292857,292857,291115,292125,291115,293508,292641,292641,293508,37
32,test,1,con,1,z,Thu Mar 26 2026 09:56:41 GMT-0500 (Central Daylight Time),302408.5,plum,1000,I,z,z,None,923,723.0,200.0,59,1,2457.7999999523163,299950.7000000477,7778,plum,NF,C,295240,295240,293514,294524,293514,295972,295040,295040,295972,38
33,test,1,inc,1,m,Thu Mar 26 2026 09:56:41 GMT-0500 (Central Daylight Time),304358.5,pear,900,I,m,m,None,525,310.0,215.0,118,1,1944.7999999523163,302413.7000000477,7778,zinc,NF,C,297606,297606,295977,296888,295977,297922,297390,297390,297922,39
34,test,1,inc,1,m,Thu Mar 26 2026 09:56:41 GMT-0500 (Central Daylight Time),306324.10000014305,cherry,900,I,m,m,None,544,344.0,200.0,94,1,1961.1000001430511,304363.0,7778,cobalt,NF,C,299539,299539,297926,298838,297926,299887,299339,299339,299887,40
35,test,1,inc,1,z,Thu Mar 26 2026 09:56:41 GMT-0500 (Central Daylight Time),308391.5,bronze,800,I,z,z,None,726,527.0,199.0,21,1,2063.899999856949,306327.60000014305,7778,orange,NF,C,301421,301421,299891,300704,299891,301955,301222,301222,301955,41
36,test,1,inc,1,z,Thu Mar 26 2026 09:56:41 GMT-0500 (Central Daylight Time),310489.7000000477,iron,900,I,z,z,None,671,471.0,200.0,54,1,2094.7000000476837,308395.0,7778,kiwi,NF,C,303572,303572,301958,302870,301958,304053,303372,303372,304053,42
37,test,1,con,1,m,Thu Mar 26 2026 09:56:41 GMT-0500 (Central Daylight Time),312373.2999999523,zinc,800,I,m,m,None,544,345.0,199.0,113,1,1880.5,310492.7999999523,7778,zinc,NF,C,305587,305587,304056,304871,304056,305936,305388,305388,305936,43
38,test,1,con,1,m,Thu Mar 26 2026 09:56:41 GMT-0500 (Central Daylight Time),314239.5,zinc,900,I,m,m,None,425,210.0,215.0,114,1,1862.5999999046326,312376.90000009537,7778,zinc,NF,C,307586,307586,305940,306852,305940,307803,307370,307370,307803,44
39,test,1,inc,1,z,Thu Mar 26 2026 09:56:41 GMT-0500 (Central Daylight Time),316254.2999999523,gold,800,I,z,z,None,667,468.0,199.0,53,1,2011.8999998569489,314242.40000009537,7778,kiwi,NF,C,309336,309336,307805,308618,307806,309817,309135,309136,309817,45
40,test,1,con,1,m,Thu Mar 26 2026 09:56:41 GMT-0500 (Central Daylight Time),318454.90000009537,iron,1100,I,m,m,None,574,374.0,200.0,108,1,2195.7000000476837,316259.2000000477,7778,iron,NF,C,311637,311637,309822,310935,309823,312018,311436,311436,312018,46
41,test,1,con,1,z,Thu Mar 26 2026 09:56:41 GMT-0500 (Central Daylight Time),320436.10000014305,orange,900,I,z,z,None,533,334.0,199.0,18,1,1977.3000001907349,318458.7999999523,7778,orange,NF,C,313652,313652,312022,312935,312022,313999,313452,313452,313999,47
42,test,1,inc,1,z,Thu Mar 26 2026 09:56:41 GMT-0500 (Central Daylight Time),322252.2999999523,bronze,800,I,z,z,None,478,278.0,200.0,13,1,1810.0999999046326,320442.2000000477,7778,cherry,NF,C,315534,315534,314005,314817,314005,315815,315334,315334,315815,48
43,test,1,inc,1,m,Thu Mar 26 2026 09:56:41 GMT-0500 (Central Daylight Time),324302.5,cherry,900,I,m,m,None,602,401.0,201.0,70,1,2046.2000000476837,322256.2999999523,7778,bronze,NF,C,317450,317451,315819,316735,315820,317866,317249,317249,317866,49
44,test,1,inc,1,z,Thu Mar 26 2026 09:56:41 GMT-0500 (Central Daylight Time),326485.7000000477,copper,900,I,z,z,None,743,528.0,215.0,22,1,2179.4000000953674,324306.2999999523,7778,orange,NF,C,319516,319516,317869,318783,317870,320049,319300,319300,320049,50
45,test,1,con,1,z,Thu Mar 26 2026 09:56:41 GMT-0500 (Central Daylight Time),328568.2000000477,cherry,1000,I,z,z,None,556,343.0,213.0,11,1,2078.0,326490.2000000477,7778,cherry,NF,C,321780,321780,320053,321063,320053,322131,321567,321567,322131,51
46,test,1,con,1,m,Thu Mar 26 2026 09:56:41 GMT-0500 (Central Daylight Time),330567.7999999523,silver,1100,I,m,m,None,357,158.0,199.0,84,1,1994.7999999523163,328573.0,7778,silver,NF,C,323965,323965,322136,323247,322136,324131,323765,323765,324131,52
47,test,1,con,1,z,Thu Mar 26 2026 09:56:41 GMT-0500 (Central Daylight Time),332599.40000009537,lime,900,I,z,z,None,589,390.0,199.0,34,1,2027.4000000953674,330572.0,7778,lime,NF,C,325764,325764,324135,325046,324135,326162,325564,325564,326162,53
48,test,1,inc,1,z,Thu Mar 26 2026 09:56:41 GMT-0500 (Central Daylight Time),334915.60000014305,gold,800,I,z,z,None,971,770.0,201.0,37,1,2312.800000190735,332602.7999999523,7778,lime,NF,C,327697,327697,326166,326980,326166,328479,327496,327496,328479,54
49,test,1,con,1,m,Thu Mar 26 2026 09:56:41 GMT-0500 (Central Daylight Time),337147.5,bronze,1000,I,m,m,None,702,503.0,199.0,67,1,2227.7000000476837,334919.7999999523,7778,bronze,NF,C,330196,330196,328483,329495,328483,330711,329996,329996,330711,55
50,test,1,con,1,m,Thu Mar 26 2026 09:56:41 GMT-0500 (Central Daylight Time),339231.2000000477,cobalt,1000,I,m,m,None,532,332.0,200.0,91,1,2078.4000000953674,337152.7999999523,7778,cobalt,NF,C,332446,332446,330716,331728,330716,332794,332245,332245,332794,56
51,test,1,con,1,m,Thu Mar 26 2026 09:56:41 GMT-0500 (Central Daylight Time),341297.10000014305,cobalt,900,I,m,m,None,627,427.0,200.0,90,1,2060.300000190735,339236.7999999523,7778,cobalt,NF,C,334425,334425,332800,333710,332800,334860,334225,334225,334860,57
52,test,1,con,1,z,Thu Mar 26 2026 09:56:41 GMT-0500 (Central Daylight Time),343529.2999999523,orange,1100,I,z,z,None,596,381.0,215.0,20,1,2228.2999999523163,341301.0,7778,orange,NF,C,336710,336710,334864,335978,334864,337092,336495,336495,337092,58
53,test,1,con,1,m,Thu Mar 26 2026 09:56:41 GMT-0500 (Central Daylight Time),346146.10000014305,bronze,1100,I,m,m,None,973,774.0,199.0,68,1,2611.5,343534.60000014305,7778,bronze,NF,C,338926,338926,337098,338210,337098,339709,338727,338727,339709,59
54,test,1,inc,1,z,Thu Mar 26 2026 09:56:41 GMT-0500 (Central Daylight Time),348209.90000009537,iron,900,I,z,z,None,628,428.0,200.0,46,1,2059.7999999523163,346150.10000014305,7778,pear,NF,C,341343,341343,339713,340626,339714,341773,341142,341142,341773,60
55,test,1,con,1,z,Thu Mar 26 2026 09:56:41 GMT-0500 (Central Daylight Time),350427.0,plum,1100,I,z,z,None,572,372.0,200.0,60,1,2212.7000000476837,348214.2999999523,7778,plum,NF,C,343607,343608,341777,342892,341778,343990,343407,343407,343990,61
56,test,1,inc,1,z,Thu Mar 26 2026 09:56:41 GMT-0500 (Central Daylight Time),352544.10000014305,lead,1100,I,z,z,None,474,275.0,199.0,48,1,2112.4000000953674,350431.7000000477,7778,pear,NF,C,345824,345824,343995,345107,343995,346107,345624,345624,346107,62
57,test,1,inc,1,m,Thu Mar 26 2026 09:56:41 GMT-0500 (Central Daylight Time),354660.7999999523,banana,800,I,m,m,None,772,572.0,200.0,69,1,2112.0,352548.7999999523,7778,bronze,NF,C,347639,347639,346112,346924,346112,348224,347439,347439,348224,63
58,test,1,con,1,z,Thu Mar 26 2026 09:56:41 GMT-0500 (Central Daylight Time),356542.7000000477,lime,800,I,z,z,None,543,343.0,200.0,33,1,1877.5999999046326,354665.10000014305,7778,lime,NF,C,349756,349756,348228,349039,348228,350106,349556,349556,350106,64
59,test,1,inc,1,z,Thu Mar 26 2026 09:56:41 GMT-0500 (Central Daylight Time),358843.2000000477,cobalt,1100,I,z,z,None,666,466.0,200.0,32,1,2296.5,356546.7000000477,7778,raisin,NF,C,351940,351940,350110,351222,350110,352406,351739,351739,352406,65
60,test,1,inc,1,z,Thu Mar 26 2026 09:56:41 GMT-0500 (Central Daylight Time),360824.7000000477,silver,1000,I,z,z,None,433,217.0,216.0,23,1,1975.9000000953674,358848.7999999523,7778,orange,NF,C,354155,354155,352412,353421,352412,354388,353938,353938,354388,66
61,test,1,con,1,z,Thu Mar 26 2026 09:56:41 GMT-0500 (Central Daylight Time),362955.40000009537,lime,1000,I,z,z,None,586,387.0,199.0,35,1,2125.2000000476837,360830.2000000477,7778,lime,NF,C,356120,356120,354393,355404,354393,356519,355921,355921,356518,67
62,test,1,con,1,z,Thu Mar 26 2026 09:56:41 GMT-0500 (Central Daylight Time),364806.2999999523,cherry,900,I,z,z,None,403,202.0,201.0,10,1,1844.8999998569489,362961.40000009537,7778,cherry,NF,C,358153,358153,356524,357437,356525,358369,357952,357952,358369,68
62,test,1,inc,0,m,Thu Mar 26 2026 09:56:41 GMT-0500 (Central Daylight Time),366539.10000014305,lime,800,I,z,z,None,397,197.0,200.0,117,1,1729.1000001430511,364810.0,7778,zinc,NF,C,359902,359903,358373,359187,358373,360102,359702,359702,360102,69
63,test,1,con,1,z,Thu Mar 26 2026 09:56:41 GMT-0500 (Central Daylight Time),368489.2999999523,raisin,800,I,z,z,None,616,400.0,216.0,25,1,1945.8999998569489,366543.40000009537,7778,raisin,NF,C,361652,361652,360106,360919,360107,362052,361436,361436,362052,70
64,test,1,inc,1,z,Thu Mar 26 2026 09:56:41 GMT-0500 (Central Daylight Time),370771.40000009537,cobalt,1100,I,z,z,None,648,447.0,201.0,16,1,2275.2999999523163,368496.10000014305,7778,cherry,NF,C,363884,363884,362059,363167,362059,364334,363683,363683,364334,71
65,test,1,inc,1,z,Thu Mar 26 2026 09:56:41 GMT-0500 (Central Daylight Time),372954.7999999523,zinc,1000,I,z,z,None,648,448.0,200.0,47,1,2175.2999999523163,370779.5,7778,pear,NF,C,366067,366067,364343,365351,364343,366518,365867,365867,366518,72
66,test,1,con,1,m,Thu Mar 26 2026 09:56:41 GMT-0500 (Central Daylight Time),374802.2999999523,silver,900,I,m,m,None,412,212.0,200.0,82,1,1837.5,372964.7999999523,7778,silver,NF,C,368151,368151,366528,367433,366528,368365,367950,367950,368365,73
67,test,1,inc,1,m,Thu Mar 26 2026 09:56:41 GMT-0500 (Central Daylight Time),377002.2999999523,orange,1000,I,m,m,None,681,482.0,199.0,87,1,2194.7999999523163,374807.5,7778,silver,NF,C,370082,370082,368371,369382,368371,370565,369883,369883,370565,74
68,test,1,con,1,m,Thu Mar 26 2026 09:56:41 GMT-0500 (Central Daylight Time),379185.0,zinc,1100,I,m,m,None,541,341.0,200.0,116,1,2175.2000000476837,377009.7999999523,7778,zinc,NF,C,372398,372398,370573,371682,370573,372748,372198,372198,372748,75
69,test,1,con,1,z,Thu Mar 26 2026 09:56:41 GMT-0500 (Central Daylight Time),381516.7999999523,pear,1100,I,z,z,None,686,486.0,200.0,44,1,2326.399999856949,379190.40000009537,7778,pear,NF,C,374581,374581,372753,373864,372754,375080,374381,374381,375080,76
70,test,1,con,1,m,Thu Mar 26 2026 09:56:41 GMT-0500 (Central Daylight Time),383833.0,bronze,900,I,m,m,None,866,667.0,199.0,66,1,2309.5999999046326,381523.40000009537,7778,bronze,NF,C,376713,376713,375086,375997,375087,377396,376514,376514,377396,77
71,test,1,con,1,z,Thu Mar 26 2026 09:56:41 GMT-0500 (Central Daylight Time),385948.7999999523,pear,1000,I,z,z,None,569,369.0,200.0,43,1,2106.699999809265,383842.10000014305,7778,pear,NF,C,379130,379130,377405,378413,377406,379512,378929,378929,379512,78
72,test,1,con,1,m,Thu Mar 26 2026 09:56:41 GMT-0500 (Central Daylight Time),388048.7999999523,bronze,800,I,m,m,None,765,566.0,199.0,65,1,2091.399999856949,385957.40000009537,7778,bronze,NF,C,381045,381045,379520,380330,379521,381612,380846,380846,381612,79
73,test,1,con,1,m,Thu Mar 26 2026 09:56:41 GMT-0500 (Central Daylight Time),390113.90000009537,iron,900,I,m,m,None,621,421.0,200.0,106,1,2059.0,388054.90000009537,7778,iron,NF,C,383245,383245,381618,382529,381618,383677,383045,383045,383677,80
74,test,1,con,1,m,Thu Mar 26 2026 09:56:41 GMT-0500 (Central Daylight Time),392480.0,lead,1100,I,m,m,None,715,516.0,199.0,124,1,2363.5,390116.5,7778,lead,NF,C,385511,385511,383680,384794,383680,386043,385311,385311,386043,81
75,test,1,con,1,z,Thu Mar 26 2026 09:56:41 GMT-0500 (Central Daylight Time),394562.90000009537,plum,800,I,z,z,None,741,540.0,201.0,57,1,2076.4000000953674,392486.5,7778,plum,NF,C,387577,387577,386050,386860,386050,388126,387376,387376,388126,82
76,test,1,inc,1,z,Thu Mar 26 2026 09:56:41 GMT-0500 (Central Daylight Time),396612.60000014305,silver,1000,I,z,z,None,511,311.0,200.0,7,1,2044.9000000953674,394567.7000000477,7778,banana,NF,C,389859,389860,388131,389143,388131,390176,389659,389659,390176,83
77,test,1,inc,1,m,Thu Mar 26 2026 09:56:41 GMT-0500 (Central Daylight Time),398895.7999999523,pear,900,I,m,m,None,835,635.0,200.0,110,1,2278.699999809265,396617.10000014305,7778,iron,NF,C,391808,391808,390180,391092,390180,392459,391608,391608,392459,84
78,test,1,con,1,m,Thu Mar 26 2026 09:56:41 GMT-0500 (Central Daylight Time),401161.10000014305,zinc,1000,I,m,m,None,723,524.0,199.0,115,1,2260.5,398900.60000014305,7778,zinc,NF,C,394191,394191,392464,393475,392464,394724,393991,393991,394724,85
79,test,1,inc,1,z,Thu Mar 26 2026 09:56:41 GMT-0500 (Central Daylight Time),403293.90000009537,iron,900,I,z,z,None,695,496.0,199.0,62,1,2130.0,401163.90000009537,7778,plum,NF,C,396357,396357,394727,395642,394727,396857,396157,396157,396857,86
80,test,1,con,1,m,Thu Mar 26 2026 09:56:41 GMT-0500 (Central Daylight Time),405393.0,copper,800,I,m,m,None,773,574.0,199.0,73,1,2095.0999999046326,403297.90000009537,7778,copper,NF,C,398373,398373,396861,397672,396861,398956,398174,398174,398956,87
81,test,1,inc,1,m,Thu Mar 26 2026 09:56:41 GMT-0500 (Central Daylight Time),407610.2000000477,orange,1000,I,m,m,None,682,482.0,200.0,71,1,2212.5,405397.7000000477,7778,bronze,NF,C,400689,400689,398961,399974,398961,401173,400489,400489,401173,88
82,test,1,inc,1,m,Thu Mar 26 2026 09:56:41 GMT-0500 (Central Daylight Time),409724.7999999523,plum,1100,I,m,m,None,470,270.0,200.0,128,1,2109.5,407615.2999999523,7778,lead,NF,C,403005,403005,401178,402290,401179,403288,402805,402805,403288,89
83,test,1,inc,1,z,Thu Mar 26 2026 09:56:41 GMT-0500 (Central Daylight Time),412107.2000000477,zinc,1000,I,z,z,None,848,640.0,208.0,55,1,2377.5999999046326,409729.60000014305,7778,kiwi,NF,C,405027,405027,403293,404305,403293,405670,404819,404819,405670,90
84,test,1,con,1,z,Thu Mar 26 2026 09:56:41 GMT-0500 (Central Daylight Time),414273.2999999523,banana,1100,I,z,z,None,531,331.0,200.0,4,1,2162.7999999523163,412110.5,7778,banana,NF,C,407504,407504,405674,406788,405674,407836,407304,407304,407836,91
85,test,1,inc,1,m,Thu Mar 26 2026 09:56:41 GMT-0500 (Central Daylight Time),416474.10000014305,pear,900,I,m,m,None,775,576.0,199.0,102,1,2197.600000143051,414276.5,7778,gold,NF,C,409453,409453,407840,408752,407840,410037,409253,409253,410037,92
86,test,1,inc,1,m,Thu Mar 26 2026 09:56:41 GMT-0500 (Central Daylight Time),418722.7000000477,cherry,900,I,m,m,None,815,615.0,200.0,78,1,2245.9000000953674,416476.7999999523,7778,copper,NF,C,411669,411669,410040,410954,410040,412286,411469,411469,412286,93
87,test,1,inc,1,z,Thu Mar 26 2026 09:56:41 GMT-0500 (Central Daylight Time),420820.90000009537,copper,900,I,z,z,None,658,444.0,214.0,30,1,2093.100000143051,418727.7999999523,7778,raisin,NF,C,413935,413935,412291,413203,412291,414384,413720,413720,414384,94
88,test,1,inc,1,z,Thu Mar 26 2026 09:56:41 GMT-0500 (Central Daylight Time),422671.5,gold,800,I,z,z,None,501,301.0,200.0,61,1,1841.2999999523163,420830.2000000477,7778,plum,NF,C,415918,415918,414393,415202,414394,416235,415717,415717,416235,95
89,test,1,con,1,m,Thu Mar 26 2026 09:56:41 GMT-0500 (Central Daylight Time),424704.2999999523,cobalt,800,I,m,m,None,682,467.0,215.0,89,1,2030.0999999046326,422674.2000000477,7778,cobalt,NF,C,417784,417784,416237,417050,416237,418267,417569,417569,418267,96
90,test,1,con,1,m,Thu Mar 26 2026 09:56:41 GMT-0500 (Central Daylight Time),426669.2000000477,gold,900,I,m,m,None,527,328.0,199.0,98,1,1960.9000000953674,424708.2999999523,7778,gold,NF,C,419900,419900,418271,419184,418272,420232,419700,419700,420232,97
91,test,1,inc,1,m,Thu Mar 26 2026 09:56:41 GMT-0500 (Central Daylight Time),428986.2000000477,orange,1000,I,m,m,None,774,573.0,201.0,79,1,2312.2000000476837,426674.0,7778,copper,NF,C,421966,421966,420237,421250,420237,422549,421765,421765,422549,98
92,test,1,con,1,m,Thu Mar 26 2026 09:56:41 GMT-0500 (Central Daylight Time),430952.5,silver,1000,I,m,m,None,424,225.0,199.0,83,1,1961.8999998569489,428990.60000014305,7778,silver,NF,C,424283,424283,422554,423567,422554,424516,424083,424083,424515,99
93,test,1,inc,1,z,Thu Mar 26 2026 09:56:41 GMT-0500 (Central Daylight Time),433083.40000009537,silver,1000,I,z,z,None,595,395.0,200.0,31,1,2127.2999999523163,430956.10000014305,7778,raisin,NF,C,426248,426248,424519,425531,424519,426646,426048,426048,426646,100
94,test,1,con,1,m,Thu Mar 26 2026 09:56:41 GMT-0500 (Central Daylight Time),435584.2000000477,gold,1100,I,m,m,None,867,652.0,215.0,100,1,2496.7000000476837,433087.5,7778,gold,NF,C,428479,428479,426651,427762,426651,429147,428264,428264,429147,101
95,test,1,inc,1,m,Thu Mar 26 2026 09:56:41 GMT-0500 (Central Daylight Time),437932.60000014305,raisin,1100,I,m,m,None,703,502.0,201.0,72,1,2343.5,435589.10000014305,7778,bronze,NF,C,430981,430981,429152,430263,429152,431496,430779,430779,431496,102
96,test,1,con,1,m,Thu Mar 26 2026 09:56:41 GMT-0500 (Central Daylight Time),439998.60000014305,silver,800,I,m,m,None,744,545.0,199.0,81,1,2061.2000000476837,437937.40000009537,7778,silver,NF,C,433012,433012,431500,432312,431501,433562,432813,432813,433562,103
97,test,1,inc,1,m,Thu Mar 26 2026 09:56:41 GMT-0500 (Central Daylight Time),442282.10000014305,plum,1100,I,m,m,None,639,439.0,200.0,104,1,2279.5,440002.60000014305,7778,gold,NF,C,435396,435396,433566,434679,433566,435845,435196,435196,435845,104
97,test,1,inc,0,m,Thu Mar 26 2026 09:56:41 GMT-0500 (Central Daylight Time),444298.10000014305,lime,800,I,z,z,None,667,467.0,200.0,125,1,2011.6000001430511,442286.5,7778,lead,NF,C,437378,437378,435850,436662,435850,437861,437178,437178,437861,105
98,test,1,con,1,z,Thu Mar 26 2026 09:56:41 GMT-0500 (Central Daylight Time),446414.2000000477,kiwi,800,I,z,z,None,769,570.0,199.0,49,1,2112.0,444302.2000000477,7778,kiwi,NF,C,439393,439393,437865,438679,437865,439977,439194,439194,439977,106
99,test,1,inc,1,m,Thu Mar 26 2026 09:56:41 GMT-0500 (Central Daylight Time),448729.60000014305,lime,800,I,m,m,None,980,780.0,200.0,101,1,2310.600000143051,446419.0,7778,gold,NF,C,441511,441511,439982,440794,439982,442293,441310,441310,442293,107
100,test,1,inc,1,z,Thu Mar 26 2026 09:56:41 GMT-0500 (Central Daylight Time),451163.2000000477,cobalt,1100,I,z,z,None,799,600.0,199.0,24,1,2429.2999999523163,448733.90000009537,7778,orange,NF,C,444126,444126,442297,443409,442297,444726,443926,443926,444726,108
101,test,1,con,1,z,Thu Mar 26 2026 09:56:41 GMT-0500 (Central Daylight Time),453111.40000009537,banana,900,I,z,z,None,531,332.0,199.0,2,1,1942.7000000476837,451168.7000000477,7778,banana,NF,C,446342,446342,444732,445641,444732,446674,446142,446142,446674,109
102,test,1,con,1,z,Thu Mar 26 2026 09:56:41 GMT-0500 (Central Daylight Time),455110.0,cherry,800,I,z,z,None,650,451.0,199.0,9,1,1995.7999999523163,453114.2000000477,7778,cherry,NF,C,448208,448208,446677,447492,446677,448673,448008,448008,448673,110
103,test,1,inc,1,m,Thu Mar 26 2026 09:56:41 GMT-0500 (Central Daylight Time),457459.2999999523,kiwi,1000,I,m,m,None,804,605.0,199.0,127,1,2346.2999999523163,455113.0,7778,lead,NF,C,450406,450406,448676,449691,448676,451022,450207,450207,451022,111
104,test,1,inc,1,m,Thu Mar 26 2026 09:56:41 GMT-0500 (Central Daylight Time),459291.0,banana,800,I,m,m,None,493,293.0,200.0,93,1,1828.0999999046326,457462.90000009537,7778,cobalt,NF,C,452557,452557,451026,451840,451026,452854,452357,452357,452854,112
105,test,1,con,1,z,Thu Mar 26 2026 09:56:41 GMT-0500 (Central Daylight Time),461459.5,kiwi,1100,I,z,z,None,531,332.0,199.0,52,1,2165.899999856949,459293.60000014305,7778,kiwi,NF,C,454690,454690,452857,453973,452857,455023,454490,454490,455023,113
106,test,1,inc,1,z,Thu Mar 26 2026 09:56:41 GMT-0500 (Central Daylight Time),463892.2000000477,lead,1100,I,z,z,None,790,591.0,199.0,40,1,2426.9000000953674,461465.2999999523,7778,lime,NF,C,456853,456853,455028,456139,455029,457455,456654,456654,457455,114
107,test,1,con,1,m,Thu Mar 26 2026 09:56:41 GMT-0500 (Central Daylight Time),466041.2999999523,lead,900,I,m,m,None,710,510.0,200.0,122,1,2145.0,463896.2999999523,7778,lead,NF,C,459087,459087,457459,458370,457460,459604,458887,458887,459604,115
108,test,1,inc,1,m,Thu Mar 26 2026 09:56:41 GMT-0500 (Central Daylight Time),468140.10000014305,pear,900,I,m,m,None,676,462.0,214.0,126,1,2095.0,466045.10000014305,7778,lead,NF,C,461237,461237,459608,460521,459608,461703,461022,461022,461703,116
109,test,1,con,1,m,Thu Mar 26 2026 09:56:41 GMT-0500 (Central Daylight Time),470372.60000014305,cobalt,1100,I,m,m,None,585,386.0,199.0,92,1,2228.0,468144.60000014305,7778,cobalt,NF,C,463537,463537,461708,462821,461708,463936,463337,463337,463936,117
110,test,1,inc,1,z,Thu Mar 26 2026 09:56:41 GMT-0500 (Central Daylight Time),472588.10000014305,zinc,1000,I,z,z,None,694,495.0,199.0,63,1,2211.0,470377.10000014305,7778,plum,NF,C,465652,465652,463940,464952,463940,466151,465453,465453,466151,118
111,test,1,inc,1,m,Thu Mar 26 2026 09:56:41 GMT-0500 (Central Daylight Time),475220.7000000477,plum,1100,I,m,m,None,994,794.0,200.0,112,1,2628.2999999523163,472592.40000009537,7778,iron,NF,C,467985,467985,466155,467269,466156,468784,467785,467785,468784,119
112,test,1,con,1,m,Thu Mar 26 2026 09:56:41 GMT-0500 (Central Daylight Time),477336.5,copper,900,I,m,m,None,672,473.0,199.0,74,1,2112.2999999523163,475224.2000000477,7778,copper,NF,C,470418,470418,468787,469701,468787,470900,470219,470219,470900,120
113,test,1,inc,1,m,Thu Mar 26 2026 09:56:41 GMT-0500 (Central Daylight Time),479619.10000014305,raisin,1100,I,m,m,None,637,438.0,199.0,88,1,2277.100000143051,477342.0,7778,silver,NF,C,472733,472733,470905,472017,470905,473182,472534,472534,473182,121
114,test,1,con,1,z,Thu Mar 26 2026 09:56:41 GMT-0500 (Central Daylight Time),481934.10000014305,raisin,900,I,z,z,None,865,666.0,199.0,26,1,2311.4000000953674,479622.7000000477,7778,raisin,NF,C,474816,474816,473186,474100,473186,475497,474617,474617,475497,122
115,test,1,inc,1,m,Thu Mar 26 2026 09:56:41 GMT-0500 (Central Daylight Time),484067.7999999523,orange,1000,I,m,m,None,589,389.0,200.0,95,1,2127.5,481940.2999999523,7778,cobalt,NF,C,477231,477231,475503,476517,475504,477631,477030,477030,477631,123
116,test,1,con,1,z,Thu Mar 26 2026 09:56:41 GMT-0500 (Central Daylight Time),486168.5,kiwi,1000,I,z,z,None,549,350.0,199.0,51,1,2095.7000000476837,484072.7999999523,7778,kiwi,NF,C,479365,479365,477636,478648,477636,479732,479166,479166,479732,124
117,test,1,con,1,z,Thu Mar 26 2026 09:56:41 GMT-0500 (Central Daylight Time),488449.7999999523,lime,1100,I,z,z,None,655,456.0,199.0,36,1,2275.5999999046326,486174.2000000477,7778,lime,NF,C,481547,481547,479737,480847,479738,482013,481348,481348,482013,125
118,test,1,con,1,z,Thu Mar 26 2026 09:56:41 GMT-0500 (Central Daylight Time),490732.5,raisin,1100,I,z,z,None,637,422.0,215.0,28,1,2278.899999856949,488453.60000014305,7778,raisin,NF,C,483862,483862,482017,483129,482017,484296,483647,483647,484296,126
119,test,1,con,1,z,Thu Mar 26 2026 09:56:41 GMT-0500 (Central Daylight Time),492815.40000009537,raisin,1000,I,z,z,None,542,342.0,200.0,27,1,2078.0,490737.40000009537,7778,raisin,NF,C,486028,486029,484300,485314,484301,486378,485828,485828,486378,127
120,test,1,con,1,z,Thu Mar 26 2026 09:56:41 GMT-0500 (Central Daylight Time),494946.90000009537,pear,900,I,z,z,None,695,495.0,200.0,42,1,2126.4000000953674,492820.5,7778,pear,NF,C,488012,488012,486384,487295,486384,488510,487811,487811,488510,128
