acc_sum,block,block_c,condition,correct,correct_response,datetime,endtime,flanker,jitter,project,response,response_test_buffer_response,response_test_target_response,response_time,response_time_test_buffer_response,response_time_test_target_response,row_sel,session_number,start_end,starttime,subject_id,target,task,task_vers,time_test_buffer,time_test_buffer_response,time_test_constants,time_test_flanker,time_test_jitter,time_test_logger,time_test_target,time_test_target_response,time_test_variables,trial
1,prac,1,con,1,m,Tue Oct 28 2025 10:15:33 GMT-0500 (Central Daylight Time),106094.20000004768,bell,1000,I,m,,,994,,,3,,3296.7000000476837,102797.5,9999,bell,AF,A,,,,,,,,,,1
2,prac,1,con,1,m,Tue Oct 28 2025 10:15:33 GMT-0500 (Central Daylight Time),108858.5,remote,1000,I,m,,,455,,,7,,2759.5,106099.0,9999,remote,AF,A,,,,,,,,,,2
3,prac,1,inc,1,m,Tue Oct 28 2025 10:15:33 GMT-0500 (Central Daylight Time),111775.40000009537,hate,1100,I,m,,,501,,,4,,2908.5,108866.90000009537,9999,film,AF,A,,,,,,,,,,3
4,prac,1,con,1,z,Tue Oct 28 2025 10:15:33 GMT-0500 (Central Daylight Time),114391.40000009537,love,1000,I,z,,,303,,,11,,2607.9000000953674,111783.5,9999,love,AF,A,,,,,,,,,,4
4,prac,1,con,0,z,Tue Oct 28 2025 10:15:33 GMT-0500 (Central Daylight Time),117039.20000004768,rage,1000,I,m,,,334,,,15,,2642.2000000476837,114397.0,9999,rage,AF,A,,,,,,,,,,5
5,prac,1,inc,1,m,Tue Oct 28 2025 10:15:33 GMT-0500 (Central Daylight Time),119753.80000007153,elated,900,I,m,,,515,,,6,,2702.100000023842,117051.70000004768,9999,napkin,AF,A,,,,,,,,,,6
6,prac,1,inc,1,m,Tue Oct 28 2025 10:15:33 GMT-0500 (Central Daylight Time),122687.40000009537,brutal,1100,I,m,,,529,,,8,,2925.2000000476837,119762.20000004768,9999,window,AF,A,,,,,,,,,,7
7,prac,1,con,1,z,Tue Oct 28 2025 10:15:33 GMT-0500 (Central Daylight Time),125136.40000009537,brutal,800,I,z,,,349,,,13,,2442.100000023842,122694.30000007153,9999,brutal,AF,A,,,,,,,,,,8
8,prac,1,con,1,m,Tue Oct 28 2025 10:15:33 GMT-0500 (Central Daylight Time),127601.80000007153,jacket,800,I,m,,,356,,,5,,2452.8000000715256,125149.0,9999,jacket,AF,A,,,,,,,,,,9
9,prac,1,inc,1,z,Tue Oct 28 2025 10:15:33 GMT-0500 (Central Daylight Time),130635.30000007153,window,1100,I,z,,,631,,,16,,3028.8000000715256,127606.5,9999,temper,AF,A,,,,,,,,,,10
10,prac,1,inc,1,z,Tue Oct 28 2025 10:15:33 GMT-0500 (Central Daylight Time),133801.80000007153,napkin,1100,I,z,,,756,,,12,,3157.899999976158,130643.90000009537,9999,friend,AF,A,,,,,,,,,,11
11,prac,1,inc,1,m,Tue Oct 28 2025 10:15:33 GMT-0500 (Central Daylight Time),136466.40000009537,kind,900,I,m,,,453,,,2,,2652.3000000715256,133814.10000002384,9999,rock,AF,A,,,,,,,,,,12
12,prac,1,con,1,m,Tue Oct 28 2025 10:15:33 GMT-0500 (Central Daylight Time),138982.80000007153,step,800,I,m,,,409,,,1,,2508.899999976158,136473.90000009537,9999,step,AF,A,,,,,,,,,,13
13,prac,1,inc,1,z,Tue Oct 28 2025 10:15:33 GMT-0500 (Central Daylight Time),141733.20000004768,rock,900,I,z,,,549,,,10,,2744.600000023842,138988.60000002384,9999,kind,AF,A,,,,,,,,,,14
14,prac,1,inc,1,z,Tue Oct 28 2025 10:15:33 GMT-0500 (Central Daylight Time),144430.80000007153,film,900,I,z,,,484,,,14,,2692.3000000715256,141738.5,9999,hate,AF,A,,,,,,,,,,15
15,prac,1,con,1,z,Tue Oct 28 2025 10:15:33 GMT-0500 (Central Daylight Time),146880.60000002384,elated,800,I,z,,,357,,,9,,2443.100000023842,144437.5,9999,elated,AF,A,,,,,,,,,,16
1,test,1,inc,1,z,Tue Oct 28 2025 10:15:33 GMT-0500 (Central Daylight Time),152111.70000004768,remote,1000,I,z,z,None,461,260.0,201.0,39,,1994.1000000238419,150117.60000002384,9999,brutal,AF,A,148746,148746,147018,148029,147018,149012,148545,148545,149012,1
2,test,1,con,1,z,Tue Oct 28 2025 10:15:33 GMT-0500 (Central Daylight Time),153944.60000002384,hate,900,I,z,z,None,392,193.0,199.0,42,,1829.1999999284744,152115.40000009537,9999,hate,AF,A,150645,150645,149015,149928,149016,150845,150445,150445,150845,2
3,test,1,inc,1,z,Tue Oct 28 2025 10:15:33 GMT-0500 (Central Daylight Time),155812.0,napkin,900,I,z,z,None,424,224.0,200.0,38,,1862.0999999046326,153949.90000009537,9999,brutal,AF,A,152478,152478,150850,151761,150850,152712,152277,152277,152712,3
4,test,1,con,1,z,Tue Oct 28 2025 10:15:33 GMT-0500 (Central Daylight Time),157693.30000007153,kind,1000,I,z,z,None,337,137.0,200.0,11,,1877.0,155816.30000007153,9999,kind,AF,A,154445,154445,152716,153728,152717,154593,154244,154244,154593,4
5,test,1,con,1,z,Tue Oct 28 2025 10:15:33 GMT-0500 (Central Daylight Time),159425.70000004768,love,800,I,z,z,None,391,192.0,199.0,17,,1727.7000000476837,157698.0,9999,love,AF,A,156126,156126,154598,155410,154598,156326,155927,155927,156326,5
6,test,1,inc,1,z,Tue Oct 28 2025 10:15:33 GMT-0500 (Central Daylight Time),161426.10000002384,bell,1000,I,z,z,None,450,251.0,199.0,15,,1995.6999999284744,159430.40000009537,9999,kind,AF,A,158059,158059,156330,157342,156331,158326,157859,157859,158326,6
7,test,1,con,1,m,Tue Oct 28 2025 10:15:33 GMT-0500 (Central Daylight Time),163590.80000007153,napkin,1100,I,m,m,None,517,318.0,199.0,108,,2159.0,161431.80000007153,9999,napkin,AF,A,160159,160159,158332,159442,158332,160491,159959,159959,160491,7
8,test,1,inc,1,m,Tue Oct 28 2025 10:15:33 GMT-0500 (Central Daylight Time),165525.0,brutal,900,I,m,m,None,487,273.0,214.0,126,,1931.0,163594.0,9999,window,AF,A,162141,162141,160494,161408,160494,162425,161926,161926,162425,8
9,test,1,inc,1,m,Tue Oct 28 2025 10:15:33 GMT-0500 (Central Daylight Time),167574.40000009537,friend,1100,I,m,m,None,403,189.0,214.0,120,,2046.3000000715256,165528.10000002384,9999,remote,AF,A,164274,164274,162428,163541,162428,164474,164059,164059,164474,9
10,test,1,con,1,m,Tue Oct 28 2025 10:15:33 GMT-0500 (Central Daylight Time),169574.0,jacket,1100,I,m,m,None,356,156.0,200.0,100,,1993.0,167581.0,9999,jacket,AF,A,166306,166306,164481,165592,164481,166474,166106,166106,166474,10
11,test,1,con,1,m,Tue Oct 28 2025 10:15:33 GMT-0500 (Central Daylight Time),171438.20000004768,rock,1000,I,m,m,None,327,127.0,200.0,75,,1861.0,169577.20000004768,9999,rock,AF,A,168207,168207,166477,167493,166477,168338,168007,168007,168338,11
12,test,1,con,1,z,Tue Oct 28 2025 10:15:33 GMT-0500 (Central Daylight Time),173670.80000007153,friend,1000,I,z,z,None,686,485.0,201.0,27,,2228.399999976158,171442.40000009537,9999,friend,AF,A,170073,170073,168342,169356,168343,170571,169871,169871,170571,12
13,test,1,con,1,z,Tue Oct 28 2025 10:15:33 GMT-0500 (Central Daylight Time),175520.90000009537,elated,900,I,z,z,None,409,208.0,201.0,2,,1845.6000000238419,173675.30000007153,9999,elated,AF,A,172205,172206,170575,171488,170576,172421,172004,172004,172421,13
14,test,1,con,1,z,Tue Oct 28 2025 10:15:33 GMT-0500 (Central Daylight Time),177453.30000007153,temper,1000,I,z,z,None,388,189.0,199.0,59,,1929.0,175524.30000007153,9999,temper,AF,A,174153,174153,172424,173437,172425,174353,173954,173954,174353,14
15,test,1,inc,1,m,Tue Oct 28 2025 10:15:33 GMT-0500 (Central Daylight Time),179285.90000009537,rage,800,I,m,m,None,495,294.0,201.0,77,,1828.6000000238419,177457.30000007153,9999,rock,AF,A,175888,175888,174357,175172,174358,176186,175687,175687,176186,15
16,test,1,inc,1,z,Tue Oct 28 2025 10:15:33 GMT-0500 (Central Daylight Time),181219.0,bell,1000,I,z,z,None,399,199.0,200.0,55,,1930.0999999046326,179288.90000009537,9999,rage,AF,A,177920,177920,176189,177204,176189,178119,177720,177720,178119,16
17,test,1,inc,1,z,Tue Oct 28 2025 10:15:33 GMT-0500 (Central Daylight Time),183218.80000007153,step,800,I,z,z,None,667,466.0,201.0,13,,1994.3000000715256,181224.5,9999,kind,AF,A,179653,179653,178124,178935,178125,180119,179452,179452,180119,17
18,test,1,inc,1,m,Tue Oct 28 2025 10:15:33 GMT-0500 (Central Daylight Time),185350.80000007153,hate,1100,I,m,m,None,493,293.0,200.0,72,,2127.2000000476837,183223.60000002384,9999,step,AF,A,181953,181953,180124,181236,180124,182251,181752,181752,182251,18
19,test,1,inc,1,z,Tue Oct 28 2025 10:15:33 GMT-0500 (Central Daylight Time),187400.70000004768,window,1100,I,z,z,None,402,202.0,200.0,64,,2045.1000000238419,185355.60000002384,9999,temper,AF,A,184084,184084,182256,183369,182256,184301,183884,183884,184301,19
20,test,1,inc,1,m,Tue Oct 28 2025 10:15:33 GMT-0500 (Central Daylight Time),189233.10000002384,brutal,900,I,m,m,None,392,192.0,200.0,102,,1828.1000000238419,187405.0,9999,jacket,AF,A,185934,185934,184305,185217,184305,186133,185734,185734,186133,20
21,test,1,con,1,m,Tue Oct 28 2025 10:15:33 GMT-0500 (Central Daylight Time),191299.20000004768,remote,1100,I,m,m,None,416,217.0,199.0,116,,2061.5,189237.70000004768,9999,remote,AF,A,187966,187966,186138,187250,186138,188199,187767,187767,188199,21
22,test,1,inc,1,m,Tue Oct 28 2025 10:15:33 GMT-0500 (Central Daylight Time),193281.60000002384,temper,1000,I,m,m,None,442,228.0,214.0,127,,1976.6000000238419,191305.0,9999,window,AF,A,189948,189948,188205,189217,188205,190182,189734,189734,190182,22
22,test,1,con,0,m,Tue Oct 28 2025 10:15:33 GMT-0500 (Central Daylight Time),195181.0,rock,900,I,z,z,None,456,254.0,202.0,74,,1895.5999999046326,193285.40000009537,9999,rock,AF,A,191816,191816,190185,191100,190186,192081,191614,191614,192081,23
23,test,1,inc,1,m,Tue Oct 28 2025 10:15:33 GMT-0500 (Central Daylight Time),197147.0,temper,1000,I,m,m,None,447,232.0,215.0,119,,1963.1999999284744,195183.80000007153,9999,remote,AF,A,193814,193814,192084,193098,192084,194047,193599,193599,194047,24
24,test,1,con,1,z,Tue Oct 28 2025 10:15:33 GMT-0500 (Central Daylight Time),198932.20000004768,friend,900,I,z,z,None,351,151.0,200.0,26,,1781.3999999761581,197150.80000007153,9999,friend,AF,A,195680,195680,194051,194965,194051,195832,195480,195480,195832,25
25,test,1,inc,1,m,Tue Oct 28 2025 10:15:33 GMT-0500 (Central Daylight Time),200963.0,love,1000,I,m,m,None,490,291.0,199.0,87,,2026.5999999046326,198936.40000009537,9999,bell,AF,A,197563,197563,195836,196847,195837,197863,197364,197364,197863,26
26,test,1,con,1,z,Tue Oct 28 2025 10:15:33 GMT-0500 (Central Daylight Time),202829.20000004768,friend,800,I,z,z,None,516,313.0,203.0,25,,1861.7999999523163,200967.40000009537,9999,friend,AF,A,199399,199399,197867,198680,197868,199729,199196,199196,199729,27
27,test,1,con,1,m,Tue Oct 28 2025 10:15:33 GMT-0500 (Central Daylight Time),204678.40000009537,film,1000,I,m,m,None,303,104.0,199.0,91,,1843.4000000953674,202835.0,9999,film,AF,A,201462,201462,199735,200745,199735,201579,201262,201262,201578,28
28,test,1,inc,1,m,Tue Oct 28 2025 10:15:33 GMT-0500 (Central Daylight Time),206445.20000004768,elated,800,I,m,m,None,448,233.0,215.0,101,,1760.7000000476837,204684.5,9999,jacket,AF,A,203112,203112,201585,202395,201585,203345,202896,202896,203345,29
29,test,1,inc,1,z,Tue Oct 28 2025 10:15:33 GMT-0500 (Central Daylight Time),208444.0,remote,1000,I,z,z,None,465,266.0,199.0,7,,1993.1999999284744,206450.80000007153,9999,elated,AF,A,205078,205078,203351,204361,203351,205344,204877,204878,205344,30
30,test,1,con,1,z,Tue Oct 28 2025 10:15:33 GMT-0500 (Central Daylight Time),210428.30000007153,kind,1100,I,z,z,None,351,151.0,200.0,12,,1980.3999999761581,208447.90000009537,9999,kind,AF,A,207177,207177,205348,206461,205348,207328,206977,206977,207328,31
31,test,1,con,1,z,Tue Oct 28 2025 10:15:33 GMT-0500 (Central Daylight Time),212379.0,temper,900,I,z,z,None,526,308.0,218.0,58,,1946.6999999284744,210432.30000007153,9999,temper,AF,A,208963,208963,207332,208243,207333,209279,208745,208745,209279,32
32,test,1,con,1,m,Tue Oct 28 2025 10:15:33 GMT-0500 (Central Daylight Time),214274.90000009537,bell,800,I,m,m,None,566,366.0,200.0,81,,1892.5,212382.40000009537,9999,bell,AF,A,210809,210809,209282,210092,209283,211175,210609,210609,211175,33
33,test,1,con,1,z,Tue Oct 28 2025 10:15:33 GMT-0500 (Central Daylight Time),216140.70000004768,kind,900,I,z,z,None,430,230.0,200.0,10,,1862.5,214278.20000004768,9999,kind,AF,A,212808,212808,211178,212092,211178,213041,212608,212608,213041,34
34,test,1,con,1,m,Tue Oct 28 2025 10:15:33 GMT-0500 (Central Daylight Time),218040.70000004768,remote,800,I,m,m,None,551,351.0,200.0,113,,1897.6000000238419,216143.10000002384,9999,remote,AF,A,214575,214575,213043,213858,213043,214941,214375,214375,214941,35
35,test,1,con,1,z,Tue Oct 28 2025 10:15:33 GMT-0500 (Central Daylight Time),220023.5,love,1100,I,z,z,None,337,136.0,201.0,20,,1977.8999999761581,218045.60000002384,9999,love,AF,A,216774,216774,214946,216058,214946,216924,216573,216573,216923,36
36,test,1,inc,1,z,Tue Oct 28 2025 10:15:33 GMT-0500 (Central Daylight Time),222222.70000004768,window,1100,I,z,z,None,553,353.0,200.0,40,,2194.100000023842,220028.60000002384,9999,brutal,AF,A,218757,218757,216929,218040,216929,219123,218556,218556,219123,37
37,test,1,inc,1,m,Tue Oct 28 2025 10:15:33 GMT-0500 (Central Daylight Time),224072.40000009537,kind,900,I,m,m,None,402,203.0,199.0,94,,1844.5,222227.90000009537,9999,film,AF,A,220755,220755,219128,220041,219128,220972,220555,220555,220972,38
38,test,1,inc,1,z,Tue Oct 28 2025 10:15:33 GMT-0500 (Central Daylight Time),226188.40000009537,window,1100,I,z,z,None,480,281.0,199.0,8,,2112.600000023842,224075.80000007153,9999,elated,AF,A,222806,222806,220976,222090,220976,223089,222606,222606,223088,39
39,test,1,con,1,z,Tue Oct 28 2025 10:15:33 GMT-0500 (Central Daylight Time),228053.70000004768,rage,800,I,z,z,None,530,330.0,200.0,49,,1859.3999999761581,226194.30000007153,9999,rage,AF,A,224621,224621,223094,223904,223094,224954,224421,224421,224954,40
40,test,1,con,1,m,Tue Oct 28 2025 10:15:33 GMT-0500 (Central Daylight Time),230003.20000004768,window,800,I,m,m,None,631,430.0,201.0,121,,1941.7000000476837,228061.5,9999,window,AF,A,226472,226472,224962,225770,224962,226903,226271,226271,226903,41
41,test,1,inc,1,z,Tue Oct 28 2025 10:15:33 GMT-0500 (Central Daylight Time),231952.10000002384,napkin,900,I,z,z,None,510,310.0,200.0,30,,1944.1000000238419,230008.0,9999,friend,AF,A,228536,228536,226908,227820,226908,228852,228336,228336,228852,42
42,test,1,inc,1,m,Tue Oct 28 2025 10:15:33 GMT-0500 (Central Daylight Time),234018.5,temper,1000,I,m,m,None,524,321.0,203.0,103,,2059.6999999284744,231958.80000007153,9999,jacket,AF,A,230589,230589,228859,229869,228859,230919,230386,230386,230919,43
43,test,1,con,1,m,Tue Oct 28 2025 10:15:33 GMT-0500 (Central Daylight Time),236067.5,rock,800,I,m,m,None,705,504.0,201.0,73,,2043.3999999761581,234024.10000002384,9999,rock,AF,A,232454,232454,230924,231736,230924,232968,232252,232252,232967,44
44,test,1,inc,1,z,Tue Oct 28 2025 10:15:33 GMT-0500 (Central Daylight Time),237884.20000004768,step,800,I,z,z,None,474,274.0,200.0,21,,1811.2000000476837,236073.0,9999,love,AF,A,234501,234501,232973,233785,232973,234784,234301,234301,234784,45
45,test,1,inc,1,m,Tue Oct 28 2025 10:15:33 GMT-0500 (Central Daylight Time),239999.90000009537,friend,1100,I,m,m,None,481,267.0,214.0,112,,2111.600000023842,237888.30000007153,9999,napkin,AF,A,236619,236619,234788,235901,234789,236900,236404,236404,236900,46
46,test,1,con,1,m,Tue Oct 28 2025 10:15:33 GMT-0500 (Central Daylight Time),241866.10000002384,remote,900,I,m,m,None,426,225.0,201.0,114,,1859.5,240006.60000002384,9999,remote,AF,A,238534,238534,236907,237818,236907,238766,238333,238333,238766,47
47,test,1,con,1,m,Tue Oct 28 2025 10:15:33 GMT-0500 (Central Daylight Time),243865.40000009537,step,900,I,m,m,None,549,334.0,215.0,66,,1992.3000000715256,241873.10000002384,9999,step,AF,A,240417,240417,238773,239685,238773,240765,240201,240201,240765,48
48,test,1,inc,1,m,Tue Oct 28 2025 10:15:33 GMT-0500 (Central Daylight Time),245732.60000002384,rage,800,I,m,m,None,540,340.0,200.0,69,,1860.5,243872.10000002384,9999,step,AF,A,242282,242282,240772,241581,240772,242633,242082,242082,242633,49
49,test,1,con,1,m,Tue Oct 28 2025 10:15:33 GMT-0500 (Central Daylight Time),247716.5,window,900,I,m,m,None,535,335.0,200.0,122,,1980.7999999523163,245735.70000004768,9999,window,AF,A,244265,244265,242636,243550,242636,244617,244065,244065,244616,50
50,test,1,con,1,z,Tue Oct 28 2025 10:15:33 GMT-0500 (Central Daylight Time),249947.70000004768,rage,900,I,z,z,None,780,581.0,199.0,50,,2223.600000023842,247724.10000002384,9999,rage,AF,A,246249,246250,244624,245531,244624,246848,246050,246050,246848,51
51,test,1,con,1,m,Tue Oct 28 2025 10:15:33 GMT-0500 (Central Daylight Time),251814.30000007153,film,900,I,m,m,None,430,231.0,199.0,90,,1860.2000000476837,249954.10000002384,9999,film,AF,A,248480,248480,246854,247766,246854,248714,248280,248280,248714,52
52,test,1,con,1,z,Tue Oct 28 2025 10:15:33 GMT-0500 (Central Daylight Time),253545.60000002384,elated,800,I,z,z,None,386,186.0,200.0,1,,1725.1999999284744,251820.40000009537,9999,elated,AF,A,250246,250246,248720,249530,248721,250446,250046,250046,250446,53
53,test,1,inc,1,m,Tue Oct 28 2025 10:15:33 GMT-0500 (Central Daylight Time),255628.70000004768,friend,1100,I,m,m,None,454,255.0,199.0,104,,2075.7000000476837,253553.0,9999,jacket,AF,A,252263,252263,250453,251562,250453,252529,252063,252063,252529,54
54,test,1,inc,1,z,Tue Oct 28 2025 10:15:33 GMT-0500 (Central Daylight Time),257611.40000009537,rock,900,I,z,z,None,549,349.0,200.0,54,,1976.6000000238419,255634.80000007153,9999,rage,AF,A,254161,254161,252535,253445,252535,254511,253961,253961,254511,55
55,test,1,inc,1,z,Tue Oct 28 2025 10:15:33 GMT-0500 (Central Daylight Time),259777.40000009537,film,1100,I,z,z,None,525,326.0,199.0,24,,2162.600000023842,257614.80000007153,9999,love,AF,A,256344,256345,254515,255628,254515,256677,256145,256145,256677,56
56,test,1,con,1,z,Tue Oct 28 2025 10:15:33 GMT-0500 (Central Daylight Time),262126.20000004768,temper,1100,I,z,z,None,712,511.0,201.0,60,,2345.899999976158,259780.30000007153,9999,temper,AF,A,258512,258512,256680,257794,256680,259026,258310,258310,259026,57
57,test,1,con,1,m,Tue Oct 28 2025 10:15:33 GMT-0500 (Central Daylight Time),264126.0,step,1100,I,m,m,None,378,178.0,200.0,68,,1995.3999999761581,262130.60000002384,9999,step,AF,A,260844,260844,259031,260142,259031,261026,260644,260644,261026,58
58,test,1,con,1,m,Tue Oct 28 2025 10:15:33 GMT-0500 (Central Daylight Time),265992.2000000477,napkin,1000,I,m,m,None,317,117.0,200.0,107,,1862.3999999761581,264129.8000000715,9999,napkin,AF,A,262761,262761,261030,262044,261030,262892,262560,262560,262892,59
59,test,1,inc,1,z,Tue Oct 28 2025 10:15:33 GMT-0500 (Central Daylight Time),267908.3000000715,rock,900,I,z,z,None,474,272.0,202.0,46,,1913.2000000476837,265995.10000002384,9999,hate,AF,A,264526,264526,262895,263809,262895,264808,264324,264324,264808,60
60,test,1,inc,1,z,Tue Oct 28 2025 10:15:33 GMT-0500 (Central Daylight Time),269973.7000000477,napkin,900,I,z,z,None,628,428.0,200.0,62,,2061.2000000476837,267912.5,9999,temper,AF,A,266442,266442,264813,265725,264813,266874,266241,266241,266874,61
61,test,1,con,1,z,Tue Oct 28 2025 10:15:33 GMT-0500 (Central Daylight Time),271925.10000002384,kind,800,I,z,z,None,617,417.0,200.0,9,,1945.8999999761581,269979.2000000477,9999,kind,AF,A,268408,268408,266879,267691,266879,268825,268208,268208,268825,62
62,test,1,con,1,z,Tue Oct 28 2025 10:15:33 GMT-0500 (Central Daylight Time),274022.0,friend,1100,I,z,z,None,461,246.0,215.0,28,,2091.6999999284744,271930.3000000715,9999,friend,AF,A,270673,270673,268830,269940,268831,270922,270457,270457,270922,63
63,test,1,inc,1,z,Tue Oct 28 2025 10:15:33 GMT-0500 (Central Daylight Time),275954.90000009537,napkin,900,I,z,z,None,490,290.0,200.0,6,,1928.2000000476837,274026.7000000477,9999,elated,AF,A,272556,272556,270927,271840,270927,272855,272356,272356,272855,64
64,test,1,inc,1,z,Tue Oct 28 2025 10:15:33 GMT-0500 (Central Daylight Time),277838.3000000715,jacket,800,I,z,z,None,545,345.0,200.0,5,,1878.1000000238419,275960.2000000477,9999,elated,AF,A,274389,274389,272860,273673,272860,274738,274188,274188,274738,65
65,test,1,con,1,m,Tue Oct 28 2025 10:15:33 GMT-0500 (Central Daylight Time),279803.90000009537,bell,1100,I,m,m,None,347,148.0,199.0,84,,1961.8000000715256,277842.10000002384,9999,bell,AF,A,276555,276555,274742,275855,274742,276704,276356,276356,276704,66
66,test,1,inc,1,m,Tue Oct 28 2025 10:15:33 GMT-0500 (Central Daylight Time),281903.7000000477,hate,1100,I,m,m,None,455,254.0,201.0,80,,2095.0,279808.7000000477,9999,rock,AF,A,278536,278536,276709,277822,276709,278804,278335,278335,278804,67
67,test,1,con,1,m,Tue Oct 28 2025 10:15:33 GMT-0500 (Central Daylight Time),283919.40000009537,rock,1100,I,m,m,None,370,170.0,200.0,76,,2012.2000000476837,281907.2000000477,9999,rock,AF,A,280636,280636,278807,279921,278807,280820,280436,280436,280819,68
68,test,1,con,1,m,Tue Oct 28 2025 10:15:33 GMT-0500 (Central Daylight Time),285734.90000009537,jacket,900,I,m,m,None,379,178.0,201.0,98,,1810.1000000238419,283924.8000000715,9999,jacket,AF,A,282453,282453,280825,281736,280825,282635,282252,282252,282635,69
69,test,1,con,1,m,Tue Oct 28 2025 10:15:33 GMT-0500 (Central Daylight Time),287668.3000000715,jacket,1000,I,m,m,None,406,206.0,200.0,99,,1928.8000000715256,285739.5,9999,jacket,AF,A,284352,284352,282640,283641,282640,284568,284152,284152,284568,70
70,test,1,inc,1,z,Tue Oct 28 2025 10:15:33 GMT-0500 (Central Daylight Time),289918.0,window,1100,I,z,z,None,605,405.0,200.0,32,,2244.899999976158,287673.10000002384,9999,friend,AF,A,286402,286402,284573,285685,284573,286818,286202,286202,286818,71
71,test,1,con,1,m,Tue Oct 28 2025 10:15:33 GMT-0500 (Central Daylight Time),291767.7000000477,napkin,800,I,m,m,None,513,311.0,202.0,105,,1845.7000000476837,289922.0,9999,napkin,AF,A,288352,288352,286822,287635,286822,288668,288150,288150,288668,72
72,test,1,con,1,z,Tue Oct 28 2025 10:15:33 GMT-0500 (Central Daylight Time),293648.5,elated,1000,I,z,z,None,342,142.0,200.0,3,,1877.0999999046326,291771.40000009537,9999,elated,AF,A,290400,290400,288671,289683,288672,290549,290200,290200,290548,73
73,test,1,inc,1,m,Tue Oct 28 2025 10:15:33 GMT-0500 (Central Daylight Time),295748.8000000715,hate,1100,I,m,m,None,455,255.0,200.0,88,,2097.399999976158,293651.40000009537,9999,bell,AF,A,292383,292383,290551,291667,290552,292649,292183,292183,292649,74
74,test,1,inc,1,m,Tue Oct 28 2025 10:15:33 GMT-0500 (Central Daylight Time),297614.90000009537,elated,800,I,m,m,None,520,319.0,201.0,125,,1861.3000000715256,295753.60000002384,9999,window,AF,A,294183,294183,292654,293467,292654,294515,293982,293982,294515,75
75,test,1,inc,1,z,Tue Oct 28 2025 10:15:33 GMT-0500 (Central Daylight Time),299413.7000000477,jacket,800,I,z,z,None,453,253.0,200.0,29,,1795.2000000476837,297618.5,9999,friend,AF,A,296049,296049,294519,295332,294519,296314,295848,295848,296314,76
76,test,1,con,1,m,Tue Oct 28 2025 10:15:33 GMT-0500 (Central Daylight Time),301264.8000000715,step,800,I,m,m,None,510,311.0,199.0,65,,1847.2000000476837,299417.60000002384,9999,step,AF,A,297848,297848,296318,297132,296318,298165,297649,297649,298165,77
77,test,1,con,1,m,Tue Oct 28 2025 10:15:33 GMT-0500 (Central Daylight Time),302983.2000000477,jacket,800,I,m,m,None,401,202.0,199.0,97,,1713.0,301270.2000000477,9999,jacket,AF,A,299680,299681,298170,298980,298170,299883,299481,299481,299883,78
78,test,1,con,1,m,Tue Oct 28 2025 10:15:33 GMT-0500 (Central Daylight Time),305131.3000000715,window,1100,I,m,m,None,517,318.0,199.0,124,,2144.600000023842,302986.7000000477,9999,window,AF,A,301713,301713,299887,300998,299887,302031,301514,301514,302031,79
79,test,1,con,1,m,Tue Oct 28 2025 10:15:33 GMT-0500 (Central Daylight Time),307062.3000000715,bell,1000,I,m,m,None,385,186.0,199.0,83,,1927.6000000238419,305134.7000000477,9999,bell,AF,A,303764,303764,302035,303048,302035,303962,303564,303564,303962,80
80,test,1,inc,1,z,Tue Oct 28 2025 10:15:33 GMT-0500 (Central Daylight Time),309162.10000002384,film,1100,I,z,z,None,457,258.0,199.0,16,,2095.7999999523163,307066.3000000715,9999,kind,AF,A,305796,305796,303966,305080,303967,306062,305596,305596,306062,81
81,test,1,con,1,z,Tue Oct 28 2025 10:15:33 GMT-0500 (Central Daylight Time),311111.10000002384,temper,800,I,z,z,None,603,403.0,200.0,57,,1946.1000000238419,309165.0,9999,temper,AF,A,307595,307595,306065,306878,306065,308011,307395,307395,308011,82
82,test,1,con,1,z,Tue Oct 28 2025 10:15:33 GMT-0500 (Central Daylight Time),313210.60000002384,rage,1100,I,z,z,None,459,259.0,200.0,52,,2096.100000023842,311114.5,9999,rage,AF,A,309844,309844,308015,309130,308015,310111,309644,309644,310111,83
83,test,1,inc,1,m,Tue Oct 28 2025 10:15:33 GMT-0500 (Central Daylight Time),315160.3000000715,brutal,900,I,m,m,None,508,294.0,214.0,110,,1945.3000000715256,313215.0,9999,napkin,AF,A,311760,311760,310115,311031,310115,312060,311546,311546,312060,84
84,test,1,inc,1,m,Tue Oct 28 2025 10:15:33 GMT-0500 (Central Daylight Time),316958.90000009537,elated,800,I,m,m,None,461,260.0,201.0,109,,1794.9000000953674,315164.0,9999,napkin,AF,A,313594,313594,312064,312877,312064,313859,313393,313393,313859,85
85,test,1,inc,1,z,Tue Oct 28 2025 10:15:33 GMT-0500 (Central Daylight Time),318977.5,rock,900,I,z,z,None,571,371.0,200.0,22,,2014.3999999761581,316963.10000002384,9999,love,AF,A,315492,315492,313863,314776,313863,315878,315292,315292,315878,86
85,test,1,con,0,z,Tue Oct 28 2025 10:15:33 GMT-0500 (Central Daylight Time),320941.2000000477,brutal,1100,I,m,m,None,321,121.0,200.0,36,,1959.2999999523163,318981.90000009537,9999,brutal,AF,A,317709,317709,315882,316992,315882,317841,317508,317508,317841,87
86,test,1,inc,1,m,Tue Oct 28 2025 10:15:33 GMT-0500 (Central Daylight Time),322741.60000002384,rage,800,I,m,m,None,455,255.0,200.0,85,,1797.2999999523163,320944.3000000715,9999,bell,AF,A,319375,319375,317844,318659,317845,319642,319174,319174,319642,88
87,test,1,inc,1,m,Tue Oct 28 2025 10:15:33 GMT-0500 (Central Daylight Time),324573.5,elated,800,I,m,m,None,497,295.0,202.0,117,,1828.8999999761581,322744.60000002384,9999,remote,AF,A,321176,321176,319645,320458,319645,321474,320974,320974,321474,89
88,test,1,con,1,z,Tue Oct 28 2025 10:15:33 GMT-0500 (Central Daylight Time),326389.3000000715,hate,800,I,z,z,None,478,279.0,199.0,41,,1811.3000000715256,324578.0,9999,hate,AF,A,323007,323007,321478,322290,321478,323289,322807,322807,323289,90
89,test,1,inc,1,z,Tue Oct 28 2025 10:15:33 GMT-0500 (Central Daylight Time),328255.60000002384,step,800,I,z,z,None,519,320.0,199.0,45,,1861.1000000238419,326394.5,9999,hate,AF,A,324822,324822,323295,324106,323295,325156,324623,324623,325156,91
90,test,1,inc,1,z,Tue Oct 28 2025 10:15:33 GMT-0500 (Central Daylight Time),330404.5,remote,1000,I,z,z,None,605,404.0,201.0,31,,2143.7999999523163,328260.7000000477,9999,friend,AF,A,326890,326890,325161,326174,325161,327305,326689,326689,327304,92
91,test,1,inc,1,z,Tue Oct 28 2025 10:15:33 GMT-0500 (Central Daylight Time),332320.90000009537,rock,900,I,z,z,None,484,285.0,199.0,14,,1912.9000000953674,330408.0,9999,kind,AF,A,328921,328921,327308,328221,327308,329221,328722,328722,329221,93
92,test,1,inc,1,z,Tue Oct 28 2025 10:15:33 GMT-0500 (Central Daylight Time),334453.7000000477,film,1100,I,z,z,None,497,295.0,202.0,56,,2128.100000023842,332325.60000002384,9999,rage,AF,A,331056,331056,329226,330339,329226,331354,330853,330853,331354,94
93,test,1,inc,1,z,Tue Oct 28 2025 10:15:33 GMT-0500 (Central Daylight Time),336469.8000000715,remote,1000,I,z,z,None,478,278.0,200.0,63,,2011.2000000476837,334458.60000002384,9999,temper,AF,A,333088,333088,331359,332370,331359,333370,332887,332887,333370,95
94,test,1,inc,1,z,Tue Oct 28 2025 10:15:33 GMT-0500 (Central Daylight Time),338569.2000000477,bell,1000,I,z,z,None,559,360.0,199.0,47,,2095.399999976158,336473.8000000715,9999,hate,AF,A,335103,335103,333374,334386,333374,335469,334903,334903,335469,96
95,test,1,inc,1,m,Tue Oct 28 2025 10:15:33 GMT-0500 (Central Daylight Time),340586.8000000715,kind,900,I,m,m,None,567,368.0,199.0,70,,2012.8999999761581,338573.90000009537,9999,step,AF,A,337102,337102,335474,336386,335474,337487,336903,336903,337487,97
96,test,1,con,1,m,Tue Oct 28 2025 10:15:33 GMT-0500 (Central Daylight Time),343084.7000000477,film,1100,I,m,m,None,871,657.0,214.0,92,,2493.899999976158,340590.8000000715,9999,film,AF,A,339318,339318,337491,338602,337491,339985,339104,339104,339985,98
97,test,1,con,1,m,Tue Oct 28 2025 10:15:33 GMT-0500 (Central Daylight Time),344834.10000002384,napkin,900,I,m,m,None,309,109.0,200.0,106,,1745.6000000238419,343088.5,9999,napkin,AF,A,341617,341617,339989,340901,339989,341734,341416,341416,341734,99
98,test,1,inc,1,m,Tue Oct 28 2025 10:15:33 GMT-0500 (Central Daylight Time),346833.3000000715,love,1000,I,m,m,None,459,260.0,199.0,71,,1992.5,344840.8000000715,9999,step,AF,A,343467,343467,341741,342751,341741,343733,343267,343267,343733,100
99,test,1,inc,1,m,Tue Oct 28 2025 10:15:33 GMT-0500 (Central Daylight Time),348849.3000000715,temper,1000,I,m,m,None,468,268.0,200.0,111,,2011.7000000476837,346837.60000002384,9999,napkin,AF,A,345466,345466,343738,344750,343738,345749,345266,345266,345749,101
100,test,1,con,1,z,Tue Oct 28 2025 10:15:33 GMT-0500 (Central Daylight Time),350901.3000000715,love,1000,I,z,z,None,507,308.0,199.0,19,,2047.6000000238419,348853.7000000477,9999,love,AF,A,347482,347482,345754,346768,345754,347801,347283,347283,347801,102
101,test,1,con,1,z,Tue Oct 28 2025 10:15:33 GMT-0500 (Central Daylight Time),352932.0,hate,1100,I,z,z,None,398,199.0,199.0,44,,2025.7999999523163,350906.2000000477,9999,hate,AF,A,349631,349631,347806,348918,347806,349832,349432,349432,349832,103
102,test,1,con,1,z,Tue Oct 28 2025 10:15:33 GMT-0500 (Central Daylight Time),354782.2000000477,brutal,900,I,z,z,None,406,205.0,201.0,34,,1847.1000000238419,352935.10000002384,9999,brutal,AF,A,351466,351466,349835,350750,349835,351682,351265,351265,351682,104
103,test,1,con,1,z,Tue Oct 28 2025 10:15:33 GMT-0500 (Central Daylight Time),356696.10000002384,brutal,1000,I,z,z,None,383,168.0,215.0,35,,1908.6999999284744,354787.40000009537,9999,brutal,AF,A,353414,353414,351687,352697,351688,353596,353199,353199,353596,105
104,test,1,inc,1,z,Tue Oct 28 2025 10:15:33 GMT-0500 (Central Daylight Time),358895.5,film,1100,I,z,z,None,558,359.0,199.0,48,,2194.2999999523163,356701.2000000477,9999,hate,AF,A,355431,355431,353601,354716,353601,355796,355231,355231,355795,106
104,test,1,con,0,m,Tue Oct 28 2025 10:15:33 GMT-0500 (Central Daylight Time),360678.8000000715,film,800,I,z,z,None,445,245.0,200.0,89,,1779.3000000715256,358899.5,9999,film,AF,A,357329,357329,355800,356614,355800,357579,357128,357128,357579,107
105,test,1,inc,1,m,Tue Oct 28 2025 10:15:33 GMT-0500 (Central Daylight Time),362660.90000009537,kind,900,I,m,m,None,546,345.0,201.0,86,,1977.7000000476837,360683.2000000477,9999,bell,AF,A,359213,359213,357583,358496,357583,359561,359012,359012,359561,108
106,test,1,inc,1,z,Tue Oct 28 2025 10:15:33 GMT-0500 (Central Daylight Time),364662.60000002384,jacket,800,I,z,z,None,681,482.0,199.0,61,,1998.1999999284744,362664.40000009537,9999,temper,AF,A,361078,361078,359564,360378,359565,361563,360879,360879,361563,109
107,test,1,inc,1,m,Tue Oct 28 2025 10:15:33 GMT-0500 (Central Daylight Time),366611.90000009537,love,1000,I,m,m,None,410,209.0,201.0,79,,1944.7000000476837,364667.2000000477,9999,rock,AF,A,363293,363293,361567,362577,361567,363512,363092,363092,363512,110
108,test,1,con,1,z,Tue Oct 28 2025 10:15:33 GMT-0500 (Central Daylight Time),368710.2000000477,hate,1000,I,z,z,None,579,380.0,199.0,43,,2094.2999999523163,366615.90000009537,9999,hate,AF,A,365226,365226,363516,364526,363516,365610,365027,365027,365610,111
109,test,1,con,1,m,Tue Oct 28 2025 10:15:33 GMT-0500 (Central Daylight Time),370774.7000000477,remote,1000,I,m,m,None,520,320.0,200.0,115,,2061.2999999523163,368713.40000009537,9999,remote,AF,A,367342,367342,365613,366627,365614,367675,367142,367142,367675,112
110,test,1,inc,1,m,Tue Oct 28 2025 10:15:33 GMT-0500 (Central Daylight Time),372741.10000002384,kind,900,I,m,m,None,528,311.0,217.0,78,,1960.8999999761581,370780.2000000477,9999,rock,AF,A,369327,369327,367680,368594,367681,369641,369110,369110,369641,113
111,test,1,inc,1,m,Tue Oct 28 2025 10:15:33 GMT-0500 (Central Daylight Time),374891.90000009537,love,1000,I,m,m,None,603,403.0,200.0,95,,2146.9000000953674,372745.0,9999,film,AF,A,371375,371375,369645,370658,369645,371792,371175,371175,371792,114
112,test,1,con,1,z,Tue Oct 28 2025 10:15:33 GMT-0500 (Central Daylight Time),376824.10000002384,rage,1000,I,z,z,None,393,194.0,199.0,51,,1927.3999999761581,374896.7000000477,9999,rage,AF,A,373524,373524,371797,372810,371797,373724,373324,373324,373724,115
113,test,1,con,1,m,Tue Oct 28 2025 10:15:33 GMT-0500 (Central Daylight Time),378873.2000000477,step,1000,I,m,m,None,499,285.0,214.0,67,,2042.0,376831.2000000477,9999,step,AF,A,375473,375473,373731,374742,373731,375773,375258,375258,375773,116
114,test,1,inc,1,m,Tue Oct 28 2025 10:15:33 GMT-0500 (Central Daylight Time),380716.2000000477,rage,800,I,m,m,None,491,292.0,199.0,93,,1839.1000000238419,378877.10000002384,9999,film,AF,A,377306,377306,375777,376591,375777,377616,377106,377106,377616,117
115,test,1,con,1,z,Tue Oct 28 2025 10:15:33 GMT-0500 (Central Daylight Time),382489.90000009537,love,900,I,z,z,None,344,143.0,201.0,18,,1770.9000000953674,380719.0,9999,love,AF,A,379239,379239,377619,378522,377619,379390,379038,379038,379390,118
116,test,1,inc,1,z,Tue Oct 28 2025 10:15:33 GMT-0500 (Central Daylight Time),384287.60000002384,step,800,I,z,z,None,460,261.0,199.0,53,,1792.5,382495.10000002384,9999,rage,AF,A,380922,380922,379395,380208,379395,381188,380722,380722,381188,119
117,test,1,inc,1,m,Tue Oct 28 2025 10:15:33 GMT-0500 (Central Daylight Time),386271.10000002384,hate,1100,I,m,m,None,346,146.0,200.0,96,,1979.6999999284744,384291.40000009537,9999,film,AF,A,383021,383021,381191,382305,381192,383171,382820,382820,383171,120
118,test,1,inc,1,m,Tue Oct 28 2025 10:15:33 GMT-0500 (Central Daylight Time),388219.2000000477,brutal,900,I,m,m,None,506,307.0,199.0,118,,1944.2999999523163,386274.90000009537,9999,remote,AF,A,384803,384803,383175,384088,383175,385119,384604,384604,385119,121
119,test,1,inc,1,z,Tue Oct 28 2025 10:15:33 GMT-0500 (Central Daylight Time),390402.5,bell,1000,I,z,z,None,631,432.0,199.0,23,,2180.0,388222.5,9999,love,AF,A,386854,386854,385123,386138,385123,387303,386654,386654,387303,122
120,test,1,con,1,z,Tue Oct 28 2025 10:15:33 GMT-0500 (Central Daylight Time),392186.8000000715,brutal,800,I,z,z,None,442,243.0,199.0,33,,1779.5,390407.3000000715,9999,brutal,AF,A,388836,388836,387307,388119,387308,389087,388637,388637,389087,123
121,test,1,con,1,z,Tue Oct 28 2025 10:15:33 GMT-0500 (Central Daylight Time),394201.2000000477,elated,1100,I,z,z,None,366,151.0,215.0,4,,2009.7999999523163,392191.40000009537,9999,elated,AF,A,390935,390935,389091,390203,389092,391101,390720,390720,391101,124
122,test,1,inc,1,m,Tue Oct 28 2025 10:15:33 GMT-0500 (Central Daylight Time),396284.2000000477,friend,1100,I,m,m,None,441,241.0,200.0,128,,2080.0,394204.2000000477,9999,window,AF,A,392934,392934,391104,392218,391104,393184,392734,392734,393184,125
123,test,1,con,1,m,Tue Oct 28 2025 10:15:33 GMT-0500 (Central Daylight Time),398365.5,bell,900,I,m,m,None,636,436.0,200.0,82,,2076.0,396289.5,9999,bell,AF,A,394818,394818,393190,394101,393190,395266,394617,394617,395265,126
124,test,1,inc,1,z,Tue Oct 28 2025 10:15:33 GMT-0500 (Central Daylight Time),400266.3000000715,jacket,800,I,z,z,None,550,350.0,200.0,37,,1896.2000000476837,398370.10000002384,9999,brutal,AF,A,396800,396800,395270,396084,395270,397166,396600,396600,397166,127
125,test,1,con,1,m,Tue Oct 28 2025 10:15:33 GMT-0500 (Central Daylight Time),402181.7000000477,window,1000,I,m,m,None,370,168.0,202.0,123,,1909.6000000238419,400272.10000002384,9999,window,AF,A,398902,398902,397172,398183,397172,399082,398699,398699,399082,128
