acc_sum,block,block_c,change,condition,correct,correct_response,datetime,endtime,face,project,response,response_time,row_sel,session_number,start_end,starttime,subject_id,task,task_vers,trial
0,prac,1,,1-Back,,,Thu Oct 16 2025 16:31:51 GMT-0500 (Central Daylight Time),,093_m_f_n_a.png,O,space,2683,1,1,,,7205,NNB,C,0
1,prac,1,0.0,1-Back,1.0,m,Thu Oct 16 2025 16:31:51 GMT-0500 (Central Daylight Time),123233.0,098_y_f_n_a.png,O,m,989,2,1,1832.0,121401.0,7205,NNB,C,1
2,prac,1,1.0,1-Back,1.0,z,Thu Oct 16 2025 16:31:51 GMT-0500 (Central Daylight Time),126000.59999999986,098_y_f_n_a.png,O,z,1981,3,1,2758.899999999907,123241.69999999995,7205,NNB,C,2
3,prac,1,0.0,1-Back,1.0,m,Thu Oct 16 2025 16:31:51 GMT-0500 (Central Daylight Time),128653.19999999995,059_o_m_n_a.png,O,m,1788,4,1,2642.600000000093,126010.59999999986,7205,NNB,C,3
4,prac,1,0.0,1-Back,1.0,m,Thu Oct 16 2025 16:31:51 GMT-0500 (Central Daylight Time),131084.19999999995,092_m_m_n_a.png,O,m,1594,5,1,2420.100000000093,128664.09999999986,7205,NNB,C,4
5,prac,1,1.0,1-Back,1.0,z,Thu Oct 16 2025 16:31:51 GMT-0500 (Central Daylight Time),133016.3999999999,092_m_m_n_a.png,O,z,1161,6,1,1923.0999999998603,131093.30000000005,7205,NNB,C,5
6,prac,1,0.0,1-Back,1.0,m,Thu Oct 16 2025 16:31:51 GMT-0500 (Central Daylight Time),135648.69999999995,130_o_f_n_a.png,O,m,1772,7,1,2621.1999999999534,133027.5,7205,NNB,C,6
6,prac,1,0.0,1-Back,0.0,m,Thu Oct 16 2025 16:31:51 GMT-0500 (Central Daylight Time),138496.3999999999,082_m_m_n_a.png,O,None,2001,8,1,2837.399999999907,135659.0,7205,NNB,C,7
6,prac,1,0.0,1-Back,0.0,m,Thu Oct 16 2025 16:31:51 GMT-0500 (Central Daylight Time),141265.69999999995,093_m_f_n_a.png,O,None,2004,9,1,2758.5,138507.19999999995,7205,NNB,C,8
7,prac,1,1.0,1-Back,1.0,z,Thu Oct 16 2025 16:31:51 GMT-0500 (Central Daylight Time),143464.30000000005,093_m_f_n_a.png,O,z,1429,10,1,2189.600000000093,141274.69999999995,7205,NNB,C,9
7,prac,1,0.0,1-Back,0.0,m,Thu Oct 16 2025 16:31:51 GMT-0500 (Central Daylight Time),146260.0,059_o_m_n_a.png,O,None,2014,11,1,2780.1999999999534,143479.80000000005,7205,NNB,C,10
7,prac,1,0.0,1-Back,0.0,m,Thu Oct 16 2025 16:31:51 GMT-0500 (Central Daylight Time),149108.59999999986,028_y_f_n_a.png,O,None,2008,12,1,2841.7999999998137,146266.80000000005,7205,NNB,C,11
0,prac,2,0.0,1-Back,,,Thu Oct 16 2025 16:31:51 GMT-0500 (Central Daylight Time),149108.59999999986,093_m_f_n_a.png,O,a,11757,1,1,2841.7999999998137,146266.80000000005,7205,NNB,C,0
1,prac,2,0.0,1-Back,1.0,m,Thu Oct 16 2025 16:31:51 GMT-0500 (Central Daylight Time),165954.80000000005,098_y_f_n_a.png,O,m,1197,2,1,2045.5,163909.30000000005,7205,NNB,C,1
2,prac,2,1.0,1-Back,1.0,z,Thu Oct 16 2025 16:31:51 GMT-0500 (Central Daylight Time),167788.19999999995,098_y_f_n_a.png,O,z,1068,3,1,1825.3000000000466,165962.8999999999,7205,NNB,C,2
3,prac,2,0.0,1-Back,1.0,m,Thu Oct 16 2025 16:31:51 GMT-0500 (Central Daylight Time),169521.3999999999,059_o_m_n_a.png,O,m,965,4,1,1726.8000000000466,167794.59999999986,7205,NNB,C,3
4,prac,2,0.0,1-Back,1.0,m,Thu Oct 16 2025 16:31:51 GMT-0500 (Central Daylight Time),171935.3999999999,092_m_m_n_a.png,O,m,1554,5,1,2403.6999999999534,169531.69999999995,7205,NNB,C,4
5,prac,2,1.0,1-Back,1.0,z,Thu Oct 16 2025 16:31:51 GMT-0500 (Central Daylight Time),173701.09999999986,092_m_m_n_a.png,O,z,991,6,1,1756.2999999998137,171944.80000000005,7205,NNB,C,5
6,prac,2,0.0,1-Back,1.0,m,Thu Oct 16 2025 16:31:51 GMT-0500 (Central Daylight Time),176152.8999999999,130_o_f_n_a.png,O,m,1607,7,1,2443.399999999907,173709.5,7205,NNB,C,6
7,prac,2,0.0,1-Back,1.0,m,Thu Oct 16 2025 16:31:51 GMT-0500 (Central Daylight Time),178084.8999999999,082_m_m_n_a.png,O,m,1085,8,1,1922.8999999999069,176162.0,7205,NNB,C,7
8,prac,2,0.0,1-Back,1.0,m,Thu Oct 16 2025 16:31:51 GMT-0500 (Central Daylight Time),179585.19999999995,093_m_f_n_a.png,O,m,725,9,1,1493.3000000000466,178091.8999999999,7205,NNB,C,8
9,prac,2,1.0,1-Back,1.0,z,Thu Oct 16 2025 16:31:51 GMT-0500 (Central Daylight Time),181149.09999999986,093_m_f_n_a.png,O,z,772,10,1,1554.5999999998603,179594.5,7205,NNB,C,9
10,prac,2,0.0,1-Back,1.0,m,Thu Oct 16 2025 16:31:51 GMT-0500 (Central Daylight Time),182649.5,059_o_m_n_a.png,O,m,724,11,1,1491.3000000000466,181158.19999999995,7205,NNB,C,10
10,prac,2,0.0,1-Back,0.0,m,Thu Oct 16 2025 16:31:51 GMT-0500 (Central Daylight Time),184348.8999999999,028_y_f_n_a.png,O,z,836,12,1,1690.8999999999069,182658.0,7205,NNB,C,11
0,test,1,0.0,1-Back,,,Thu Oct 16 2025 16:31:51 GMT-0500 (Central Daylight Time),184348.8999999999,098_y_f_n_a.png,O,space,4293,1,1,1690.8999999999069,182658.0,7205,NNB,C,0
1,test,1,0.0,1-Back,1.0,m,Thu Oct 16 2025 16:31:51 GMT-0500 (Central Daylight Time),200561.19999999995,006_m_f_n_a.png,O,m,783,2,1,1793.6000000000931,198767.59999999986,7205,NNB,C,1
2,test,1,0.0,1-Back,1.0,m,Thu Oct 16 2025 16:31:51 GMT-0500 (Central Daylight Time),202692.80000000005,028_y_f_n_a.png,O,m,1103,3,1,2125.5,200567.30000000005,7205,NNB,C,2
3,test,1,1.0,1-Back,1.0,z,Thu Oct 16 2025 16:31:51 GMT-0500 (Central Daylight Time),204309.19999999995,028_y_f_n_a.png,O,z,596,4,1,1610.3000000000466,202698.8999999999,7205,NNB,C,3
4,test,1,0.0,1-Back,1.0,m,Thu Oct 16 2025 16:31:51 GMT-0500 (Central Daylight Time),206775.0,006_m_f_n_a.png,O,m,1447,5,1,2458.1999999999534,204316.80000000005,7205,NNB,C,4
5,test,1,0.0,1-Back,1.0,m,Thu Oct 16 2025 16:31:51 GMT-0500 (Central Daylight Time),208472.69999999995,059_o_m_n_a.png,O,m,679,6,1,1692.0,206780.69999999995,7205,NNB,C,5
6,test,1,1.0,1-Back,1.0,z,Thu Oct 16 2025 16:31:51 GMT-0500 (Central Daylight Time),210040.19999999995,059_o_m_n_a.png,O,z,550,7,1,1559.8999999999069,208480.30000000005,7205,NNB,C,6
7,test,1,0.0,1-Back,1.0,m,Thu Oct 16 2025 16:31:51 GMT-0500 (Central Daylight Time),211932.69999999995,092_m_m_n_a.png,O,m,875,8,1,1885.1000000000931,210047.59999999986,7205,NNB,C,7
8,test,1,0.0,1-Back,1.0,m,Thu Oct 16 2025 16:31:51 GMT-0500 (Central Daylight Time),213672.69999999995,130_o_f_n_a.png,O,m,732,9,1,1736.1000000000931,211936.59999999986,7205,NNB,C,8
8,test,1,0.0,1-Back,0.0,m,Thu Oct 16 2025 16:31:51 GMT-0500 (Central Daylight Time),215489.19999999995,092_m_m_n_a.png,O,z,790,10,1,1810.8000000000466,213678.3999999999,7205,NNB,C,9
9,test,1,0.0,1-Back,1.0,m,Thu Oct 16 2025 16:31:51 GMT-0500 (Central Daylight Time),217488.3999999999,057_y_m_n_a.png,O,m,981,11,1,1995.0999999998603,215493.30000000005,7205,NNB,C,10
9,test,1,1.0,1-Back,0.0,z,Thu Oct 16 2025 16:31:51 GMT-0500 (Central Daylight Time),219087.30000000005,057_y_m_n_a.png,O,m,581,12,1,1592.9000000001397,217494.3999999999,7205,NNB,C,11
10,test,1,0.0,1-Back,1.0,m,Thu Oct 16 2025 16:31:51 GMT-0500 (Central Daylight Time),221919.69999999995,030_o_f_n_a.png,O,m,1810,13,1,2826.3000000000466,219093.3999999999,7205,NNB,C,12
11,test,1,1.0,1-Back,1.0,z,Thu Oct 16 2025 16:31:51 GMT-0500 (Central Daylight Time),224334.5,030_o_f_n_a.png,O,z,1388,14,1,2408.600000000093,221925.8999999999,7205,NNB,C,13
12,test,1,0.0,1-Back,1.0,m,Thu Oct 16 2025 16:31:51 GMT-0500 (Central Daylight Time),226305.30000000005,031_y_m_n_a.png,O,m,943,15,1,1968.1000000000931,224337.19999999995,7205,NNB,C,14
13,test,1,0.0,1-Back,1.0,m,Thu Oct 16 2025 16:31:51 GMT-0500 (Central Daylight Time),228367.59999999986,093_m_f_n_a.png,O,m,1048,16,1,2054.6999999999534,226312.8999999999,7205,NNB,C,15
14,test,1,0.0,1-Back,1.0,m,Thu Oct 16 2025 16:31:51 GMT-0500 (Central Daylight Time),230216.8999999999,146_o_m_n_a.png,O,m,825,17,1,1844.0999999998603,228372.80000000005,7205,NNB,C,16
15,test,1,0.0,1-Back,1.0,m,Thu Oct 16 2025 16:31:51 GMT-0500 (Central Daylight Time),232117.09999999986,093_m_f_n_a.png,O,m,877,18,1,1893.8999999999069,230223.19999999995,7205,NNB,C,17
0,test,2,0.0,1-Back,,,Thu Oct 16 2025 16:31:51 GMT-0500 (Central Daylight Time),232117.09999999986,092_m_m_n_a.png,O,space,4337,1,1,1893.8999999999069,230223.19999999995,7205,NNB,C,0
1,test,2,0.0,1-Back,1.0,m,Thu Oct 16 2025 16:31:51 GMT-0500 (Central Daylight Time),240846.5,006_m_f_n_a.png,O,m,1332,2,1,2355.600000000093,238490.8999999999,7205,NNB,C,1
2,test,2,1.0,1-Back,1.0,z,Thu Oct 16 2025 16:31:51 GMT-0500 (Central Daylight Time),243295.59999999986,006_m_f_n_a.png,O,z,1431,3,1,2441.1999999999534,240854.3999999999,7205,NNB,C,2
3,test,2,0.0,1-Back,1.0,m,Thu Oct 16 2025 16:31:51 GMT-0500 (Central Daylight Time),245244.5,092_m_m_n_a.png,O,m,926,4,1,1939.9000000001397,243304.59999999986,7205,NNB,C,3
4,test,2,0.0,1-Back,1.0,m,Thu Oct 16 2025 16:31:51 GMT-0500 (Central Daylight Time),247411.09999999986,057_y_m_n_a.png,O,m,1137,5,1,2160.399999999907,245250.69999999995,7205,NNB,C,4
5,test,2,0.0,1-Back,1.0,m,Thu Oct 16 2025 16:31:51 GMT-0500 (Central Daylight Time),249310.69999999995,098_y_f_n_a.png,O,m,867,6,1,1889.8999999999069,247420.80000000005,7205,NNB,C,5
6,test,2,1.0,1-Back,1.0,z,Thu Oct 16 2025 16:31:51 GMT-0500 (Central Daylight Time),251361.69999999995,098_y_f_n_a.png,O,z,1032,7,1,2043.8999999999069,249317.80000000005,7205,NNB,C,6
7,test,2,0.0,1-Back,1.0,m,Thu Oct 16 2025 16:31:51 GMT-0500 (Central Daylight Time),253476.59999999986,057_y_m_n_a.png,O,m,1086,8,1,2106.1999999999534,251370.3999999999,7205,NNB,C,7
8,test,2,0.0,1-Back,1.0,m,Thu Oct 16 2025 16:31:51 GMT-0500 (Central Daylight Time),255725.30000000005,030_o_f_n_a.png,O,m,1228,9,1,2241.3000000000466,253484.0,7205,NNB,C,8
9,test,2,0.0,1-Back,1.0,m,Thu Oct 16 2025 16:31:51 GMT-0500 (Central Daylight Time),257393.69999999995,082_m_m_n_a.png,O,m,651,10,1,1660.1999999999534,255733.5,7205,NNB,C,9
10,test,2,1.0,1-Back,1.0,z,Thu Oct 16 2025 16:31:51 GMT-0500 (Central Daylight Time),259390.69999999995,082_m_m_n_a.png,O,z,968,11,1,1990.3999999999069,257400.30000000005,7205,NNB,C,10
11,test,2,0.0,1-Back,1.0,m,Thu Oct 16 2025 16:31:51 GMT-0500 (Central Daylight Time),261356.19999999995,030_o_f_n_a.png,O,m,935,12,1,1956.6999999999534,259399.5,7205,NNB,C,11
12,test,2,0.0,1-Back,1.0,m,Thu Oct 16 2025 16:31:51 GMT-0500 (Central Daylight Time),263206.59999999986,130_o_f_n_a.png,O,m,825,13,1,1844.0999999998603,261362.5,7205,NNB,C,12
13,test,2,0.0,1-Back,1.0,m,Thu Oct 16 2025 16:31:51 GMT-0500 (Central Daylight Time),265040.3999999999,059_o_m_n_a.png,O,m,816,14,1,1824.5,263215.8999999999,7205,NNB,C,13
14,test,2,0.0,1-Back,1.0,m,Thu Oct 16 2025 16:31:51 GMT-0500 (Central Daylight Time),266771.80000000005,146_o_m_n_a.png,O,m,712,15,1,1725.0,265046.80000000005,7205,NNB,C,14
15,test,2,1.0,1-Back,1.0,z,Thu Oct 16 2025 16:31:51 GMT-0500 (Central Daylight Time),269072.0,146_o_m_n_a.png,O,z,1266,16,1,2293.4000000001397,266778.59999999986,7205,NNB,C,15
16,test,2,0.0,1-Back,1.0,m,Thu Oct 16 2025 16:31:51 GMT-0500 (Central Daylight Time),271270.19999999995,031_y_m_n_a.png,O,m,1167,17,1,2189.399999999907,269080.80000000005,7205,NNB,C,16
17,test,2,1.0,1-Back,1.0,z,Thu Oct 16 2025 16:31:51 GMT-0500 (Central Daylight Time),273886.59999999986,031_y_m_n_a.png,O,z,1583,18,1,2610.0999999998603,271276.5,7205,NNB,C,17
0,test,3,1.0,1-Back,,,Thu Oct 16 2025 16:31:51 GMT-0500 (Central Daylight Time),273886.59999999986,028_y_f_n_a.png,O,space,2407,1,1,2610.0999999998603,271276.5,7205,NNB,C,0
1,test,3,0.0,1-Back,1.0,m,Thu Oct 16 2025 16:31:51 GMT-0500 (Central Daylight Time),280100.69999999995,146_o_m_n_a.png,O,m,690,1,1,1707.8999999999069,278392.80000000005,7205,NNB,C,1
2,test,3,1.0,1-Back,1.0,z,Thu Oct 16 2025 16:31:51 GMT-0500 (Central Daylight Time),282300.80000000005,146_o_m_n_a.png,O,z,1170,1,1,2197.2000000001863,280103.59999999986,7205,NNB,C,2
3,test,3,0.0,1-Back,1.0,m,Thu Oct 16 2025 16:31:51 GMT-0500 (Central Daylight Time),284449.69999999995,093_m_f_n_a.png,O,m,1117,1,1,2143.100000000093,282306.59999999986,7205,NNB,C,3
4,test,3,1.0,1-Back,1.0,z,Thu Oct 16 2025 16:31:51 GMT-0500 (Central Daylight Time),286233.80000000005,093_m_f_n_a.png,O,z,758,1,1,1777.3000000000466,284456.5,7205,NNB,C,4
5,test,3,0.0,1-Back,1.0,m,Thu Oct 16 2025 16:31:51 GMT-0500 (Central Daylight Time),288666.69999999995,030_o_f_n_a.png,O,m,1416,1,1,2424.600000000093,286242.09999999986,7205,NNB,C,5
5,test,3,0.0,1-Back,0.0,m,Thu Oct 16 2025 16:31:51 GMT-0500 (Central Daylight Time),290764.19999999995,057_y_m_n_a.png,O,z,1078,1,1,2090.399999999907,288673.80000000005,7205,NNB,C,6
5,test,3,0.0,1-Back,0.0,m,Thu Oct 16 2025 16:31:51 GMT-0500 (Central Daylight Time),293798.19999999995,030_o_f_n_a.png,O,None,2018,1,1,3026.0,290772.19999999995,7205,NNB,C,7
5,test,3,0.0,1-Back,0.0,m,Thu Oct 16 2025 16:31:51 GMT-0500 (Central Daylight Time),296662.8999999999,031_y_m_n_a.png,O,z,1833,1,1,2857.899999999907,293805.0,7205,NNB,C,8
6,test,3,1.0,1-Back,1.0,z,Thu Oct 16 2025 16:31:51 GMT-0500 (Central Daylight Time),298678.59999999986,031_y_m_n_a.png,O,z,992,1,1,2008.8999999999069,296669.69999999995,7205,NNB,C,9
7,test,3,0.0,1-Back,1.0,m,Thu Oct 16 2025 16:31:51 GMT-0500 (Central Daylight Time),300644.5,006_m_f_n_a.png,O,m,944,1,1,1961.3000000000466,298683.19999999995,7205,NNB,C,10
8,test,3,0.0,1-Back,1.0,m,Thu Oct 16 2025 16:31:51 GMT-0500 (Central Daylight Time),303493.5,098_y_f_n_a.png,O,m,1825,1,1,2843.0,300650.5,7205,NNB,C,11
9,test,3,1.0,1-Back,1.0,z,Thu Oct 16 2025 16:31:51 GMT-0500 (Central Daylight Time),305709.8999999999,098_y_f_n_a.png,O,z,1185,1,1,2211.3000000000466,303498.59999999986,7205,NNB,C,12
10,test,3,0.0,1-Back,1.0,m,Thu Oct 16 2025 16:31:51 GMT-0500 (Central Daylight Time),308409.80000000005,006_m_f_n_a.png,O,m,1683,1,1,2692.2000000001863,305717.59999999986,7205,NNB,C,13
11,test,3,0.0,1-Back,1.0,m,Thu Oct 16 2025 16:31:51 GMT-0500 (Central Daylight Time),311174.3999999999,092_m_m_n_a.png,O,m,1733,1,1,2759.0,308415.3999999999,7205,NNB,C,14
11,test,3,1.0,1-Back,0.0,z,Thu Oct 16 2025 16:31:51 GMT-0500 (Central Daylight Time),312740.5,092_m_m_n_a.png,O,m,543,1,1,1559.1999999999534,311181.30000000005,7205,NNB,C,15
12,test,3,0.0,1-Back,1.0,m,Thu Oct 16 2025 16:31:51 GMT-0500 (Central Daylight Time),314973.19999999995,130_o_f_n_a.png,O,m,1202,1,1,2228.8000000000466,312744.3999999999,7205,NNB,C,16
13,test,3,1.0,1-Back,1.0,z,Thu Oct 16 2025 16:31:51 GMT-0500 (Central Daylight Time),316940.0,130_o_f_n_a.png,O,z,945,1,1,1962.3000000000466,314977.69999999995,7205,NNB,C,17
0,test,4,1.0,1-Back,,,Thu Oct 16 2025 16:31:51 GMT-0500 (Central Daylight Time),316940.0,093_m_f_n_a.png,O,space,1139,1,1,1962.3000000000466,314977.69999999995,7205,NNB,C,0
1,test,4,0.0,1-Back,1.0,m,Thu Oct 16 2025 16:31:51 GMT-0500 (Central Daylight Time),321987.3999999999,146_o_m_n_a.png,O,m,793,2,1,1809.5,320177.8999999999,7205,NNB,C,1
1,test,4,0.0,1-Back,0.0,m,Thu Oct 16 2025 16:31:51 GMT-0500 (Central Daylight Time),325021.19999999995,093_m_f_n_a.png,O,None,2017,3,1,3026.5,321994.69999999995,7205,NNB,C,2
1,test,4,0.0,1-Back,0.0,m,Thu Oct 16 2025 16:31:51 GMT-0500 (Central Daylight Time),328052.59999999986,030_o_f_n_a.png,O,None,2014,4,1,3025.2999999998137,325027.30000000005,7205,NNB,C,3
2,test,4,1.0,1-Back,1.0,z,Thu Oct 16 2025 16:31:51 GMT-0500 (Central Daylight Time),329885.59999999986,030_o_f_n_a.png,O,z,801,5,1,1828.0,328057.59999999986,7205,NNB,C,4
2,test,4,0.0,1-Back,0.0,m,Thu Oct 16 2025 16:31:51 GMT-0500 (Central Daylight Time),332917.3999999999,098_y_f_n_a.png,O,None,2016,6,1,3025.399999999907,329892.0,7205,NNB,C,5
3,test,4,0.0,1-Back,1.0,m,Thu Oct 16 2025 16:31:51 GMT-0500 (Central Daylight Time),334933.8999999999,057_y_m_n_a.png,O,m,985,7,1,2010.5,332923.3999999999,7205,NNB,C,6
4,test,4,1.0,1-Back,1.0,z,Thu Oct 16 2025 16:31:51 GMT-0500 (Central Daylight Time),337217.59999999986,057_y_m_n_a.png,O,z,1257,8,1,2277.5,334940.09999999986,7205,NNB,C,7
5,test,4,0.0,1-Back,1.0,m,Thu Oct 16 2025 16:31:51 GMT-0500 (Central Daylight Time),339565.8999999999,098_y_f_n_a.png,O,m,1326,9,1,2341.0999999998603,337224.80000000005,7205,NNB,C,8
6,test,4,0.0,1-Back,1.0,m,Thu Oct 16 2025 16:31:51 GMT-0500 (Central Daylight Time),342098.59999999986,082_m_m_n_a.png,O,m,1500,10,1,2526.1999999999534,339572.3999999999,7205,NNB,C,9
6,test,4,1.0,1-Back,0.0,z,Thu Oct 16 2025 16:31:51 GMT-0500 (Central Daylight Time),343881.3999999999,082_m_m_n_a.png,O,m,758,11,1,1776.3000000000466,342105.09999999986,7205,NNB,C,10
7,test,4,0.0,1-Back,1.0,m,Thu Oct 16 2025 16:31:51 GMT-0500 (Central Daylight Time),345897.30000000005,130_o_f_n_a.png,O,m,1000,12,1,2007.8000000000466,343889.5,7205,NNB,C,11
8,test,4,0.0,1-Back,1.0,m,Thu Oct 16 2025 16:31:51 GMT-0500 (Central Daylight Time),347712.59999999986,059_o_m_n_a.png,O,m,789,13,1,1809.8999999999069,345902.69999999995,7205,NNB,C,12
9,test,4,0.0,1-Back,1.0,m,Thu Oct 16 2025 16:31:51 GMT-0500 (Central Daylight Time),350028.5,130_o_f_n_a.png,O,m,1288,14,1,2309.0,347719.5,7205,NNB,C,13
10,test,4,0.0,1-Back,1.0,m,Thu Oct 16 2025 16:31:51 GMT-0500 (Central Daylight Time),351811.30000000005,028_y_f_n_a.png,O,m,763,15,1,1773.4000000001397,350037.8999999999,7205,NNB,C,14
11,test,4,1.0,1-Back,1.0,z,Thu Oct 16 2025 16:31:51 GMT-0500 (Central Daylight Time),353494.59999999986,028_y_f_n_a.png,O,z,651,16,1,1675.6999999999534,351818.8999999999,7205,NNB,C,15
12,test,4,0.0,1-Back,1.0,m,Thu Oct 16 2025 16:31:51 GMT-0500 (Central Daylight Time),355194.19999999995,006_m_f_n_a.png,O,m,681,17,1,1693.6000000000931,353500.59999999986,7205,NNB,C,16
13,test,4,1.0,1-Back,1.0,z,Thu Oct 16 2025 16:31:51 GMT-0500 (Central Daylight Time),356959.80000000005,006_m_f_n_a.png,O,z,733,18,1,1757.2000000001863,355202.59999999986,7205,NNB,C,17
0,test,5,1.0,1-Back,,,Thu Oct 16 2025 16:31:51 GMT-0500 (Central Daylight Time),356959.80000000005,059_o_m_n_a.png,O,space,1151,1,1,1757.2000000001863,355202.59999999986,7205,NNB,C,0
0,test,5,1.0,1-Back,0.0,z,Thu Oct 16 2025 16:31:51 GMT-0500 (Central Daylight Time),361625.30000000005,059_o_m_n_a.png,O,m,467,2,1,1476.5,360148.80000000005,7205,NNB,C,1
1,test,5,0.0,1-Back,1.0,m,Thu Oct 16 2025 16:31:51 GMT-0500 (Central Daylight Time),363507.59999999986,098_y_f_n_a.png,O,m,862,3,1,1874.6999999999534,361632.8999999999,7205,NNB,C,2
2,test,5,0.0,1-Back,1.0,m,Thu Oct 16 2025 16:31:51 GMT-0500 (Central Daylight Time),365573.80000000005,057_y_m_n_a.png,O,m,1036,4,1,2059.3000000000466,363514.5,7205,NNB,C,3
3,test,5,0.0,1-Back,1.0,m,Thu Oct 16 2025 16:31:51 GMT-0500 (Central Daylight Time),367506.8999999999,098_y_f_n_a.png,O,m,912,5,1,1926.1999999999534,365580.69999999995,7205,NNB,C,4
4,test,5,0.0,1-Back,1.0,m,Thu Oct 16 2025 16:31:51 GMT-0500 (Central Daylight Time),369223.5,092_m_m_n_a.png,O,m,684,6,1,1710.0,367513.5,7205,NNB,C,5
5,test,5,1.0,1-Back,1.0,z,Thu Oct 16 2025 16:31:51 GMT-0500 (Central Daylight Time),371072.0,092_m_m_n_a.png,O,z,832,7,1,1842.3000000000466,369229.69999999995,7205,NNB,C,6
6,test,5,0.0,1-Back,1.0,m,Thu Oct 16 2025 16:31:51 GMT-0500 (Central Daylight Time),373272.0,028_y_f_n_a.png,O,m,1181,8,1,2194.4000000001397,371077.59999999986,7205,NNB,C,7
7,test,5,0.0,1-Back,1.0,m,Thu Oct 16 2025 16:31:51 GMT-0500 (Central Daylight Time),375705.0,031_y_m_n_a.png,O,m,1407,9,1,2424.600000000093,373280.3999999999,7205,NNB,C,8
8,test,5,0.0,1-Back,1.0,m,Thu Oct 16 2025 16:31:51 GMT-0500 (Central Daylight Time),377602.8999999999,028_y_f_n_a.png,O,m,865,10,1,1889.8999999999069,375713.0,7205,NNB,C,9
9,test,5,0.0,1-Back,1.0,m,Thu Oct 16 2025 16:31:51 GMT-0500 (Central Daylight Time),379603.09999999986,130_o_f_n_a.png,O,m,982,11,1,1992.5,377610.59999999986,7205,NNB,C,10
10,test,5,1.0,1-Back,1.0,z,Thu Oct 16 2025 16:31:51 GMT-0500 (Central Daylight Time),381518.30000000005,130_o_f_n_a.png,O,z,893,12,1,1910.0,379608.30000000005,7205,NNB,C,11
11,test,5,0.0,1-Back,1.0,m,Thu Oct 16 2025 16:31:51 GMT-0500 (Central Daylight Time),383435.5,146_o_m_n_a.png,O,m,898,13,1,1911.1000000000931,381524.3999999999,7205,NNB,C,12
12,test,5,0.0,1-Back,1.0,m,Thu Oct 16 2025 16:31:51 GMT-0500 (Central Daylight Time),385467.5,093_m_f_n_a.png,O,m,1004,14,1,2025.6000000000931,383441.8999999999,7205,NNB,C,13
13,test,5,1.0,1-Back,1.0,z,Thu Oct 16 2025 16:31:51 GMT-0500 (Central Daylight Time),387516.80000000005,093_m_f_n_a.png,O,z,1019,15,1,2043.4000000001397,385473.3999999999,7205,NNB,C,14
14,test,5,0.0,1-Back,1.0,m,Thu Oct 16 2025 16:31:51 GMT-0500 (Central Daylight Time),389252.0,146_o_m_n_a.png,O,m,714,16,1,1727.1999999999534,387524.80000000005,7205,NNB,C,15
15,test,5,0.0,1-Back,1.0,m,Thu Oct 16 2025 16:31:51 GMT-0500 (Central Daylight Time),391031.80000000005,006_m_f_n_a.png,O,m,764,17,1,1774.7000000001863,389257.09999999986,7205,NNB,C,16
16,test,5,0.0,1-Back,1.0,m,Thu Oct 16 2025 16:31:51 GMT-0500 (Central Daylight Time),392748.8999999999,082_m_m_n_a.png,O,m,686,18,1,1708.6999999999534,391040.19999999995,7205,NNB,C,17
0,prac,1,0.0,2-Back,,,Thu Oct 16 2025 16:31:51 GMT-0500 (Central Daylight Time),392748.8999999999,031_y_m_n_a.png,O,space,4661,1,1,1708.6999999999534,391040.19999999995,7205,NNB,C,0
0,prac,1,0.0,2-Back,,,Thu Oct 16 2025 16:31:51 GMT-0500 (Central Daylight Time),392748.8999999999,006_m_f_n_a.png,O,space,4661,2,1,1708.6999999999534,391040.19999999995,7205,NNB,C,0
1,prac,1,1.0,2-Back,1.0,m,Thu Oct 16 2025 16:31:51 GMT-0500 (Central Daylight Time),522025.30000000005,146_o_m_n_a.png,O,m,1088,3,1,1942.4000000001397,520082.8999999999,7205,NNB,C,1
1,prac,1,0.0,2-Back,0.0,m,Thu Oct 16 2025 16:31:51 GMT-0500 (Central Daylight Time),524889.3,130_o_f_n_a.png,O,None,2006,4,1,2855.2000000001863,522034.09999999986,7205,NNB,C,2
2,prac,1,0.0,2-Back,1.0,z,Thu Oct 16 2025 16:31:51 GMT-0500 (Central Daylight Time),527055.8999999999,146_o_m_n_a.png,O,z,1378,5,1,2155.5,524900.3999999999,7205,NNB,C,3
2,prac,1,1.0,2-Back,0.0,z,Thu Oct 16 2025 16:31:51 GMT-0500 (Central Daylight Time),529838.7,130_o_f_n_a.png,O,None,2008,6,1,2773.899999999907,527064.8,7205,NNB,C,4
2,prac,1,0.0,2-Back,0.0,m,Thu Oct 16 2025 16:31:51 GMT-0500 (Central Daylight Time),532687.8,082_m_m_n_a.png,O,None,2003,7,1,2839.8000000000466,529848.0,7205,NNB,C,5
2,prac,1,0.0,2-Back,0.0,m,Thu Oct 16 2025 16:31:51 GMT-0500 (Central Daylight Time),535003.2,059_o_m_n_a.png,O,z,1456,8,1,2307.3000000000466,532695.8999999999,7205,NNB,C,6
2,prac,1,0.0,2-Back,0.0,m,Thu Oct 16 2025 16:31:51 GMT-0500 (Central Daylight Time),537839.5,028_y_f_n_a.png,O,None,2006,9,1,2829.5,535010.0,7205,NNB,C,7
3,prac,1,1.0,2-Back,1.0,z,Thu Oct 16 2025 16:31:51 GMT-0500 (Central Daylight Time),539902.7,059_o_m_n_a.png,O,z,1272,10,1,2055.3000000000466,537847.3999999999,7205,NNB,C,8
4,prac,1,0.0,2-Back,1.0,m,Thu Oct 16 2025 16:31:51 GMT-0500 (Central Daylight Time),542153.0,098_y_f_n_a.png,O,m,1408,11,1,2242.1999999999534,539910.8,7205,NNB,C,9
4,prac,1,0.0,2-Back,0.0,m,Thu Oct 16 2025 16:31:51 GMT-0500 (Central Daylight Time),543733.8,082_m_m_n_a.png,O,z,806,12,1,1572.8000000000466,542161.0,7205,NNB,C,10
0,prac,2,0.0,2-Back,,,Thu Oct 16 2025 16:31:51 GMT-0500 (Central Daylight Time),543733.8,031_y_m_n_a.png,O,a,26657,1,1,1572.8000000000466,542161.0,7205,NNB,C,0
0,prac,2,0.0,2-Back,,,Thu Oct 16 2025 16:31:51 GMT-0500 (Central Daylight Time),543733.8,006_m_f_n_a.png,O,a,26657,2,1,1572.8000000000466,542161.0,7205,NNB,C,0
1,prac,2,1.0,2-Back,1.0,m,Thu Oct 16 2025 16:31:51 GMT-0500 (Central Daylight Time),578405.5,146_o_m_n_a.png,O,m,1935,3,1,2793.1999999999534,575612.3,7205,NNB,C,1
2,prac,2,0.0,2-Back,1.0,m,Thu Oct 16 2025 16:31:51 GMT-0500 (Central Daylight Time),580655.5999999999,130_o_f_n_a.png,O,m,1397,4,1,2242.5999999998603,578413.0,7205,NNB,C,2
3,prac,2,0.0,2-Back,1.0,z,Thu Oct 16 2025 16:31:51 GMT-0500 (Central Daylight Time),582488.5999999999,146_o_m_n_a.png,O,z,1059,5,1,1826.2999999998137,580662.3,7205,NNB,C,3
3,prac,2,1.0,2-Back,0.0,z,Thu Oct 16 2025 16:31:51 GMT-0500 (Central Daylight Time),584619.3999999999,130_o_f_n_a.png,O,m,1353,6,1,2125.0999999998603,582494.3,7205,NNB,C,4
4,prac,2,0.0,2-Back,1.0,m,Thu Oct 16 2025 16:31:51 GMT-0500 (Central Daylight Time),587303.0,082_m_m_n_a.png,O,m,1837,7,1,2674.6999999999534,584628.3,7205,NNB,C,5
5,prac,2,0.0,2-Back,1.0,m,Thu Oct 16 2025 16:31:51 GMT-0500 (Central Daylight Time),589302.8,059_o_m_n_a.png,O,m,1137,8,1,1990.7000000001863,587312.0999999999,7205,NNB,C,6
6,prac,2,0.0,2-Back,1.0,m,Thu Oct 16 2025 16:31:51 GMT-0500 (Central Daylight Time),591585.3999999999,028_y_f_n_a.png,O,m,1429,9,1,2273.899999999907,589311.5,7205,NNB,C,7
7,prac,2,1.0,2-Back,1.0,z,Thu Oct 16 2025 16:31:51 GMT-0500 (Central Daylight Time),593368.7,059_o_m_n_a.png,O,z,1006,10,1,1774.3000000000466,591594.3999999999,7205,NNB,C,8
8,prac,2,0.0,2-Back,1.0,m,Thu Oct 16 2025 16:31:51 GMT-0500 (Central Daylight Time),595284.5,098_y_f_n_a.png,O,m,1061,11,1,1903.9000000001397,593380.5999999999,7205,NNB,C,9
8,prac,2,0.0,2-Back,0.0,m,Thu Oct 16 2025 16:31:51 GMT-0500 (Central Daylight Time),597049.8999999999,082_m_m_n_a.png,O,z,977,12,1,1755.8999999999069,595294.0,7205,NNB,C,10
0,test,1,0.0,2-Back,,,Thu Oct 16 2025 16:31:51 GMT-0500 (Central Daylight Time),597049.8999999999,057_y_m_n_a.png,O,space,3397,1,1,1755.8999999999069,595294.0,7205,NNB,C,0
0,test,1,0.0,2-Back,,,Thu Oct 16 2025 16:31:51 GMT-0500 (Central Daylight Time),597049.8999999999,057_y_m_n_a.png,O,space,3397,2,1,1755.8999999999069,595294.0,7205,NNB,C,0
1,test,1,0.0,2-Back,1.0,m,Thu Oct 16 2025 16:31:51 GMT-0500 (Central Daylight Time),616145.0999999999,130_o_f_n_a.png,O,m,1883,3,1,2909.2999999998137,613235.8,7205,NNB,C,1
2,test,1,0.0,2-Back,1.0,m,Thu Oct 16 2025 16:31:51 GMT-0500 (Central Daylight Time),618842.5999999999,092_m_m_n_a.png,O,m,1671,4,1,2690.6999999999534,616151.8999999999,7205,NNB,C,2
3,test,1,1.0,2-Back,1.0,z,Thu Oct 16 2025 16:31:51 GMT-0500 (Central Daylight Time),620808.0999999999,130_o_f_n_a.png,O,z,940,5,1,1958.3999999999069,618849.7,7205,NNB,C,3
4,test,1,0.0,2-Back,1.0,m,Thu Oct 16 2025 16:31:51 GMT-0500 (Central Daylight Time),623540.3,098_y_f_n_a.png,O,m,1701,6,1,2729.2000000001863,620811.0999999999,7205,NNB,C,4
4,test,1,0.0,2-Back,0.0,m,Thu Oct 16 2025 16:31:51 GMT-0500 (Central Daylight Time),625640.7,092_m_m_n_a.png,O,z,1066,7,1,2097.8000000000466,623542.8999999999,7205,NNB,C,5
5,test,1,1.0,2-Back,1.0,z,Thu Oct 16 2025 16:31:51 GMT-0500 (Central Daylight Time),628272.5,098_y_f_n_a.png,O,z,1606,8,1,2628.600000000093,625643.8999999999,7205,NNB,C,6
5,test,1,0.0,2-Back,0.0,m,Thu Oct 16 2025 16:31:51 GMT-0500 (Central Daylight Time),631305.8,031_y_m_n_a.png,O,None,2016,9,1,3028.5,628277.3,7205,NNB,C,7
6,test,1,0.0,2-Back,1.0,m,Thu Oct 16 2025 16:31:51 GMT-0500 (Central Daylight Time),634204.3,030_o_f_n_a.png,O,m,1867,10,1,2890.100000000093,631314.2,7205,NNB,C,8
7,test,1,1.0,2-Back,1.0,z,Thu Oct 16 2025 16:31:51 GMT-0500 (Central Daylight Time),636004.5999999999,031_y_m_n_a.png,O,z,772,11,1,1790.6999999999534,634213.8999999999,7205,NNB,C,9
8,test,1,0.0,2-Back,1.0,m,Thu Oct 16 2025 16:31:51 GMT-0500 (Central Daylight Time),637887.0,006_m_f_n_a.png,O,m,862,12,1,1876.4000000001397,636010.5999999999,7205,NNB,C,10
9,test,1,0.0,2-Back,1.0,m,Thu Oct 16 2025 16:31:51 GMT-0500 (Central Daylight Time),640502.7,006_m_f_n_a.png,O,m,1582,13,1,2609.5,637893.2,7205,NNB,C,11
9,test,1,0.0,2-Back,0.0,m,Thu Oct 16 2025 16:31:51 GMT-0500 (Central Daylight Time),642669.2,146_o_m_n_a.png,O,z,1136,14,1,2164.100000000093,640505.0999999999,7205,NNB,C,12
10,test,1,0.0,2-Back,1.0,m,Thu Oct 16 2025 16:31:51 GMT-0500 (Central Daylight Time),644768.8999999999,030_o_f_n_a.png,O,m,1074,15,1,2092.5999999998603,642676.3,7205,NNB,C,13
11,test,1,1.0,2-Back,1.0,z,Thu Oct 16 2025 16:31:51 GMT-0500 (Central Daylight Time),647650.3,146_o_m_n_a.png,O,z,1853,16,1,2873.8000000000466,644776.5,7205,NNB,C,14
12,test,1,0.0,2-Back,1.0,m,Thu Oct 16 2025 16:31:51 GMT-0500 (Central Daylight Time),649852.2,093_m_f_n_a.png,O,m,1182,17,1,2198.3000000000466,647653.8999999999,7205,NNB,C,15
12,test,1,0.0,2-Back,0.0,m,Thu Oct 16 2025 16:31:51 GMT-0500 (Central Daylight Time),652882.7,082_m_m_n_a.png,O,None,2016,18,1,3019.5,649863.2,7205,NNB,C,16
0,test,2,0.0,2-Back,,,Thu Oct 16 2025 16:31:51 GMT-0500 (Central Daylight Time),652882.7,082_m_m_n_a.png,O,space,1460,1,1,3019.5,649863.2,7205,NNB,C,0
0,test,2,0.0,2-Back,,,Thu Oct 16 2025 16:31:51 GMT-0500 (Central Daylight Time),652882.7,028_y_f_n_a.png,O,space,1460,2,1,3019.5,649863.2,7205,NNB,C,0
1,test,2,1.0,2-Back,1.0,z,Thu Oct 16 2025 16:31:51 GMT-0500 (Central Daylight Time),661330.3,082_m_m_n_a.png,O,z,850,3,1,1858.3000000000466,659472.0,7205,NNB,C,1
2,test,2,0.0,2-Back,1.0,m,Thu Oct 16 2025 16:31:51 GMT-0500 (Central Daylight Time),663461.8999999999,093_m_f_n_a.png,O,m,1109,4,1,2123.8000000000466,661338.0999999999,7205,NNB,C,2
2,test,2,0.0,2-Back,0.0,m,Thu Oct 16 2025 16:31:51 GMT-0500 (Central Daylight Time),665778.3999999999,028_y_f_n_a.png,O,z,1288,5,1,2311.5,663466.8999999999,7205,NNB,C,3
2,test,2,0.0,2-Back,0.0,m,Thu Oct 16 2025 16:31:51 GMT-0500 (Central Daylight Time),668460.5999999999,146_o_m_n_a.png,O,z,1651,6,1,2675.6999999999534,665784.8999999999,7205,NNB,C,4
3,test,2,0.0,2-Back,1.0,m,Thu Oct 16 2025 16:31:51 GMT-0500 (Central Daylight Time),670493.0,098_y_f_n_a.png,O,m,1010,7,1,2025.6000000000931,668467.3999999999,7205,NNB,C,5
4,test,2,1.0,2-Back,1.0,z,Thu Oct 16 2025 16:31:51 GMT-0500 (Central Daylight Time),672595.2,146_o_m_n_a.png,O,z,1082,8,1,2094.5,670500.7,7205,NNB,C,6
5,test,2,0.0,2-Back,1.0,m,Thu Oct 16 2025 16:31:51 GMT-0500 (Central Daylight Time),674659.0999999999,031_y_m_n_a.png,O,m,1038,9,1,2056.0,672603.0999999999,7205,NNB,C,7
5,test,2,0.0,2-Back,0.0,m,Thu Oct 16 2025 16:31:51 GMT-0500 (Central Daylight Time),676841.0,031_y_m_n_a.png,O,z,1157,10,1,2174.9000000001397,674666.0999999999,7205,NNB,C,8
6,test,2,0.0,2-Back,1.0,m,Thu Oct 16 2025 16:31:51 GMT-0500 (Central Daylight Time),678741.7,006_m_f_n_a.png,O,m,869,11,1,1892.8999999999069,676848.8,7205,NNB,C,9
7,test,2,0.0,2-Back,1.0,m,Thu Oct 16 2025 16:31:51 GMT-0500 (Central Daylight Time),681423.3,028_y_f_n_a.png,O,m,1666,12,1,2674.8000000000466,678748.5,7205,NNB,C,10
8,test,2,1.0,2-Back,1.0,z,Thu Oct 16 2025 16:31:51 GMT-0500 (Central Daylight Time),683339.3999999999,006_m_f_n_a.png,O,z,896,13,1,1910.8999999999069,681428.5,7205,NNB,C,11
9,test,2,0.0,2-Back,1.0,m,Thu Oct 16 2025 16:31:51 GMT-0500 (Central Daylight Time),686155.2,059_o_m_n_a.png,O,m,1797,14,1,2809.5,683345.7,7205,NNB,C,12
9,test,2,0.0,2-Back,0.0,m,Thu Oct 16 2025 16:31:51 GMT-0500 (Central Daylight Time),688238.0999999999,059_o_m_n_a.png,O,z,1059,15,1,2075.6999999999534,686162.3999999999,7205,NNB,C,13
10,test,2,0.0,2-Back,1.0,m,Thu Oct 16 2025 16:31:51 GMT-0500 (Central Daylight Time),690354.0999999999,030_o_f_n_a.png,O,m,1089,16,1,2111.0,688243.0999999999,7205,NNB,C,14
11,test,2,0.0,2-Back,1.0,m,Thu Oct 16 2025 16:31:51 GMT-0500 (Central Daylight Time),693120.2,092_m_m_n_a.png,O,m,1736,17,1,2758.600000000093,690361.5999999999,7205,NNB,C,15
12,test,2,1.0,2-Back,1.0,z,Thu Oct 16 2025 16:31:51 GMT-0500 (Central Daylight Time),695985.8,030_o_f_n_a.png,O,z,1839,18,1,2859.2000000001863,693126.5999999999,7205,NNB,C,16
0,test,3,1.0,2-Back,,,Thu Oct 16 2025 16:31:51 GMT-0500 (Central Daylight Time),695985.8,057_y_m_n_a.png,O,space,1044,1,1,2859.2000000001863,693126.5999999999,7205,NNB,C,0
0,test,3,1.0,2-Back,,,Thu Oct 16 2025 16:31:51 GMT-0500 (Central Daylight Time),695985.8,057_y_m_n_a.png,O,space,1044,2,1,2859.2000000001863,693126.5999999999,7205,NNB,C,0
1,test,3,0.0,2-Back,1.0,m,Thu Oct 16 2025 16:31:51 GMT-0500 (Central Daylight Time),704749.5,030_o_f_n_a.png,O,m,1557,3,1,2574.8000000000466,702174.7,7205,NNB,C,1
2,test,3,0.0,2-Back,1.0,m,Thu Oct 16 2025 16:31:51 GMT-0500 (Central Daylight Time),707119.0999999999,082_m_m_n_a.png,O,m,1336,4,1,2363.0999999998603,704756.0,7205,NNB,C,2
3,test,3,1.0,2-Back,1.0,z,Thu Oct 16 2025 16:31:51 GMT-0500 (Central Daylight Time),709230.5,030_o_f_n_a.png,O,z,1092,5,1,2104.0,707126.5,7205,NNB,C,3
4,test,3,0.0,2-Back,1.0,m,Thu Oct 16 2025 16:31:51 GMT-0500 (Central Daylight Time),711397.8,031_y_m_n_a.png,O,m,1135,6,1,2158.8000000000466,709239.0,7205,NNB,C,4
4,test,3,0.0,2-Back,0.0,m,Thu Oct 16 2025 16:31:51 GMT-0500 (Central Daylight Time),713495.8,082_m_m_n_a.png,O,z,1066,7,1,2091.0,711404.8,7205,NNB,C,5
5,test,3,1.0,2-Back,1.0,z,Thu Oct 16 2025 16:31:51 GMT-0500 (Central Daylight Time),715713.2,031_y_m_n_a.png,O,z,1190,8,1,2208.600000000093,713504.5999999999,7205,NNB,C,6
5,test,3,0.0,2-Back,0.0,m,Thu Oct 16 2025 16:31:51 GMT-0500 (Central Daylight Time),718744.3999999999,028_y_f_n_a.png,O,None,2015,9,1,3022.5,715721.8999999999,7205,NNB,C,7
6,test,3,0.0,2-Back,1.0,m,Thu Oct 16 2025 16:31:51 GMT-0500 (Central Daylight Time),721210.3,092_m_m_n_a.png,O,m,1437,10,1,2459.7000000001863,718750.5999999999,7205,NNB,C,8
7,test,3,1.0,2-Back,1.0,z,Thu Oct 16 2025 16:31:51 GMT-0500 (Central Daylight Time),723143.0999999999,028_y_f_n_a.png,O,z,908,11,1,1922.3999999999069,721220.7,7205,NNB,C,9
7,test,3,1.0,2-Back,0.0,z,Thu Oct 16 2025 16:31:51 GMT-0500 (Central Daylight Time),725010.0999999999,092_m_m_n_a.png,O,m,839,12,1,1857.7999999998137,723152.3,7205,NNB,C,10
8,test,3,0.0,2-Back,1.0,m,Thu Oct 16 2025 16:31:51 GMT-0500 (Central Daylight Time),727975.7,030_o_f_n_a.png,O,m,1941,13,1,2958.600000000093,725017.0999999999,7205,NNB,C,11
9,test,3,0.0,2-Back,1.0,m,Thu Oct 16 2025 16:31:51 GMT-0500 (Central Daylight Time),730007.3999999999,093_m_f_n_a.png,O,m,1003,14,1,2023.3000000000466,727984.0999999999,7205,NNB,C,12
9,test,3,0.0,2-Back,0.0,m,Thu Oct 16 2025 16:31:51 GMT-0500 (Central Daylight Time),732306.8,146_o_m_n_a.png,O,z,1267,15,1,2291.4000000001397,730015.3999999999,7205,NNB,C,13
10,test,3,1.0,2-Back,1.0,z,Thu Oct 16 2025 16:31:51 GMT-0500 (Central Daylight Time),733859.0999999999,093_m_f_n_a.png,O,z,521,16,1,1546.3999999999069,732312.7,7205,NNB,C,14
11,test,3,0.0,2-Back,1.0,m,Thu Oct 16 2025 16:31:51 GMT-0500 (Central Daylight Time),736039.0,130_o_f_n_a.png,O,m,1151,17,1,2173.1999999999534,733865.8,7205,NNB,C,15
11,test,3,0.0,2-Back,0.0,m,Thu Oct 16 2025 16:31:51 GMT-0500 (Central Daylight Time),737772.0,130_o_f_n_a.png,O,z,704,18,1,1726.4000000001397,736045.5999999999,7205,NNB,C,16
0,test,4,0.0,2-Back,,,Thu Oct 16 2025 16:31:51 GMT-0500 (Central Daylight Time),737772.0,059_o_m_n_a.png,O,space,1835,1,1,1726.4000000001397,736045.5999999999,7205,NNB,C,0
0,test,4,0.0,2-Back,,,Thu Oct 16 2025 16:31:51 GMT-0500 (Central Daylight Time),737772.0,098_y_f_n_a.png,O,space,1835,2,1,1726.4000000001397,736045.5999999999,7205,NNB,C,0
1,test,4,1.0,2-Back,1.0,z,Thu Oct 16 2025 16:31:51 GMT-0500 (Central Daylight Time),746535.0,059_o_m_n_a.png,O,z,707,3,1,1725.0,744810.0,7205,NNB,C,1
2,test,4,1.0,2-Back,1.0,z,Thu Oct 16 2025 16:31:51 GMT-0500 (Central Daylight Time),749234.3999999999,098_y_f_n_a.png,O,z,1669,4,1,2693.3000000000466,746541.0999999999,7205,NNB,C,2
3,test,4,0.0,2-Back,1.0,m,Thu Oct 16 2025 16:31:51 GMT-0500 (Central Daylight Time),751883.3999999999,030_o_f_n_a.png,O,m,1628,5,1,2642.5,749240.8999999999,7205,NNB,C,3
3,test,4,0.0,2-Back,0.0,m,Thu Oct 16 2025 16:31:51 GMT-0500 (Central Daylight Time),753884.7,030_o_f_n_a.png,O,z,979,6,1,1998.6000000000931,751886.0999999999,7205,NNB,C,4
4,test,4,0.0,2-Back,1.0,m,Thu Oct 16 2025 16:31:51 GMT-0500 (Central Daylight Time),755899.5999999999,006_m_f_n_a.png,O,m,989,7,1,2006.6999999999534,753892.8999999999,7205,NNB,C,5
5,test,4,0.0,2-Back,1.0,m,Thu Oct 16 2025 16:31:51 GMT-0500 (Central Daylight Time),757981.5,031_y_m_n_a.png,O,m,1059,8,1,2073.9000000001397,755907.5999999999,7205,NNB,C,6
6,test,4,1.0,2-Back,1.0,z,Thu Oct 16 2025 16:31:51 GMT-0500 (Central Daylight Time),760214.0,006_m_f_n_a.png,O,z,1208,9,1,2225.0,757989.0,7205,NNB,C,7
7,test,4,0.0,2-Back,1.0,m,Thu Oct 16 2025 16:31:51 GMT-0500 (Central Daylight Time),762281.3999999999,092_m_m_n_a.png,O,m,1048,10,1,2064.6999999999534,760216.7,7205,NNB,C,8
7,test,4,0.0,2-Back,0.0,m,Thu Oct 16 2025 16:31:51 GMT-0500 (Central Daylight Time),764229.5,031_y_m_n_a.png,O,z,926,11,1,1940.5,762289.0,7205,NNB,C,9
7,test,4,0.0,2-Back,0.0,m,Thu Oct 16 2025 16:31:51 GMT-0500 (Central Daylight Time),766996.0,130_o_f_n_a.png,O,z,1748,12,1,2760.100000000093,764235.8999999999,7205,NNB,C,10
8,test,4,0.0,2-Back,1.0,m,Thu Oct 16 2025 16:31:51 GMT-0500 (Central Daylight Time),769295.3,057_y_m_n_a.png,O,m,1276,13,1,2292.7000000001863,767002.5999999999,7205,NNB,C,11
9,test,4,1.0,2-Back,1.0,z,Thu Oct 16 2025 16:31:51 GMT-0500 (Central Daylight Time),771728.5999999999,130_o_f_n_a.png,O,z,1415,14,1,2427.1999999999534,769301.3999999999,7205,NNB,C,12
10,test,4,1.0,2-Back,1.0,z,Thu Oct 16 2025 16:31:51 GMT-0500 (Central Daylight Time),773729.7,057_y_m_n_a.png,O,z,985,15,1,1996.3000000000466,771733.3999999999,7205,NNB,C,13
11,test,4,0.0,2-Back,1.0,m,Thu Oct 16 2025 16:31:51 GMT-0500 (Central Daylight Time),776259.0999999999,082_m_m_n_a.png,O,m,1511,16,1,2523.0,773736.0999999999,7205,NNB,C,14
12,test,4,0.0,2-Back,1.0,m,Thu Oct 16 2025 16:31:51 GMT-0500 (Central Daylight Time),778875.7,093_m_f_n_a.png,O,m,1586,17,1,2609.600000000093,776266.0999999999,7205,NNB,C,15
13,test,4,1.0,2-Back,1.0,z,Thu Oct 16 2025 16:31:51 GMT-0500 (Central Daylight Time),780874.3,082_m_m_n_a.png,O,z,978,18,1,1991.3000000000466,778883.0,7205,NNB,C,16
0,test,5,1.0,2-Back,,,Thu Oct 16 2025 16:31:51 GMT-0500 (Central Daylight Time),780874.3,057_y_m_n_a.png,O,space,988,1,1,1991.3000000000466,778883.0,7205,NNB,C,0
0,test,5,1.0,2-Back,,,Thu Oct 16 2025 16:31:51 GMT-0500 (Central Daylight Time),780874.3,093_m_f_n_a.png,O,space,988,2,1,1991.3000000000466,778883.0,7205,NNB,C,0
1,test,5,1.0,2-Back,1.0,z,Thu Oct 16 2025 16:31:51 GMT-0500 (Central Daylight Time),788507.0,057_y_m_n_a.png,O,z,562,3,1,1576.4000000001397,786930.5999999999,7205,NNB,C,1
1,test,5,1.0,2-Back,0.0,z,Thu Oct 16 2025 16:31:51 GMT-0500 (Central Daylight Time),790321.2,093_m_f_n_a.png,O,m,788,4,1,1807.8000000000466,788513.3999999999,7205,NNB,C,2
2,test,5,0.0,2-Back,1.0,m,Thu Oct 16 2025 16:31:51 GMT-0500 (Central Daylight Time),792439.8,130_o_f_n_a.png,O,m,1098,5,1,2112.9000000001397,790326.8999999999,7205,NNB,C,3
2,test,5,0.0,2-Back,0.0,m,Thu Oct 16 2025 16:31:51 GMT-0500 (Central Daylight Time),794621.3,057_y_m_n_a.png,O,z,1150,6,1,2176.2000000001863,792445.0999999999,7205,NNB,C,4
3,test,5,0.0,2-Back,1.0,m,Thu Oct 16 2025 16:31:51 GMT-0500 (Central Daylight Time),796919.3,028_y_f_n_a.png,O,m,1266,7,1,2291.899999999907,794627.4000000001,7205,NNB,C,5
3,test,5,0.0,2-Back,0.0,m,Thu Oct 16 2025 16:31:51 GMT-0500 (Central Daylight Time),798984.9000000001,130_o_f_n_a.png,O,z,1045,8,1,2059.4000000003725,796925.4999999998,7205,NNB,C,6
4,test,5,1.0,2-Back,1.0,z,Thu Oct 16 2025 16:31:51 GMT-0500 (Central Daylight Time),801201.7,028_y_f_n_a.png,O,z,1189,9,1,2211.7000000001863,798989.9999999998,7205,NNB,C,7
5,test,5,0.0,2-Back,1.0,m,Thu Oct 16 2025 16:31:51 GMT-0500 (Central Daylight Time),803385.5999999999,146_o_m_n_a.png,O,m,1166,10,1,2177.600000000093,801207.9999999998,7205,NNB,C,8
6,test,5,0.0,2-Back,1.0,m,Thu Oct 16 2025 16:31:51 GMT-0500 (Central Daylight Time),805983.9999999998,006_m_f_n_a.png,O,m,1566,11,1,2591.5,803392.4999999998,7205,NNB,C,9
7,test,5,0.0,2-Back,1.0,m,Thu Oct 16 2025 16:31:51 GMT-0500 (Central Daylight Time),807949.9000000001,092_m_m_n_a.png,O,m,943,12,1,1959.8000000002794,805990.0999999999,7205,NNB,C,10
7,test,5,0.0,2-Back,0.0,m,Thu Oct 16 2025 16:31:51 GMT-0500 (Central Daylight Time),809947.9999999998,146_o_m_n_a.png,O,z,969,13,1,1991.6999999997206,807956.3,7205,NNB,C,11
8,test,5,1.0,2-Back,1.0,z,Thu Oct 16 2025 16:31:51 GMT-0500 (Central Daylight Time),812098.8,092_m_m_n_a.png,O,z,1118,14,1,2146.7000000001863,809952.0999999999,7205,NNB,C,12
9,test,5,0.0,2-Back,1.0,m,Thu Oct 16 2025 16:31:51 GMT-0500 (Central Daylight Time),814296.9000000001,098_y_f_n_a.png,O,m,1181,15,1,2195.600000000093,812101.3,7205,NNB,C,13
10,test,5,0.0,2-Back,1.0,m,Thu Oct 16 2025 16:31:51 GMT-0500 (Central Daylight Time),816697.4999999998,059_o_m_n_a.png,O,m,1381,16,1,2395.2999999998137,814302.2,7205,NNB,C,14
10,test,5,0.0,2-Back,0.0,m,Thu Oct 16 2025 16:31:51 GMT-0500 (Central Daylight Time),818679.8,006_m_f_n_a.png,O,z,966,17,1,1975.8999999999069,816703.9000000001,7205,NNB,C,15
11,test,5,1.0,2-Back,1.0,z,Thu Oct 16 2025 16:31:51 GMT-0500 (Central Daylight Time),820761.9999999998,059_o_m_n_a.png,O,z,1053,18,1,2074.2999999998137,818687.7,7205,NNB,C,16
