acc_sum,block_c,block_dur,condition,correct,correct_response,countdown,datetime,endtime,project,response,response_time,response_time_test1_response,response_time_test2_response,row_sel,same,session_number,start_end,starttime,stim1,stim2,subject_id,task,task_vers,time_test1,time_test2,trial
1,1,0.0,prac,1,z,30000.0,Wed Nov 05 2025 19:33:16 GMT-0600 (Central Standard Time),43603.09999999963,O,z,1350,,,3,yes,1,2877.4000000003725,40725.699999999255,practrial3.png,practrial3.png,7230,PC,C,,,1
2,1,0.0,prac,1,z,30000.0,Wed Nov 05 2025 19:33:16 GMT-0600 (Central Standard Time),46436.90000000037,O,z,1309,,,5,yes,1,2830.800000000745,43606.09999999963,practrial5.png,practrial5.png,7230,PC,C,,,2
3,1,0.0,prac,1,m,30000.0,Wed Nov 05 2025 19:33:16 GMT-0600 (Central Standard Time),50153.59999999963,O,m,2212,,,4,no,1,3714.0,46439.59999999963,practrial4.png,practrial4b.png,7230,PC,C,,,3
4,1,0.0,prac,1,m,30000.0,Wed Nov 05 2025 19:33:16 GMT-0600 (Central Standard Time),53068.40000000037,O,m,1391,,,2,no,1,2912.0,50156.40000000037,practrial2.png,practrial2b.png,7230,PC,C,,,4
5,1,0.0,prac,1,z,30000.0,Wed Nov 05 2025 19:33:16 GMT-0600 (Central Standard Time),56583.09999999963,O,z,1988,,,1,yes,1,3512.0999999996275,53071.0,practrial1.png,practrial1.png,7230,PC,C,,,5
6,1,0.0,prac,1,m,30000.0,Wed Nov 05 2025 19:33:16 GMT-0600 (Central Standard Time),60068.59999999963,O,m,1962,,,6,no,1,3482.5999999996275,56586.0,practrial6.png,practrial6b.png,7230,PC,C,,,6
1,1,1.8340001106262207,test,1,z,28165.99988937378,Wed Nov 05 2025 19:33:16 GMT-0600 (Central Standard Time),67730.09999999963,O,z,1817,1817,,1,yes,1,1831.5,65898.59999999963,test1trial1.png,test1trial1.png,7230,PC,C,55886,,1
2,1,3.181999921798706,test,1,m,26818.000078201294,Wed Nov 05 2025 19:33:16 GMT-0600 (Central Standard Time),69078.79999999888,O,m,1335,1335,,2,no,1,1346.5,67732.29999999888,test1trial2.png,test1trial2b.png,7230,PC,C,57720,,2
3,1,5.065999984741211,test,1,z,24934.00001525879,Wed Nov 05 2025 19:33:16 GMT-0600 (Central Standard Time),70962.5,O,z,1866,1866,,3,yes,1,1881.5,69081.0,test1trial3.png,test1trial3.png,7230,PC,C,59069,,3
4,1,6.54800009727478,test,1,m,23451.99990272522,Wed Nov 05 2025 19:33:16 GMT-0600 (Central Standard Time),72444.29999999888,O,m,1471,1471,,4,no,1,1479.5999999996275,70964.69999999925,test1trial4.png,test1trial4b.png,7230,PC,C,60952,,4
5,1,8.13100004196167,test,1,z,21868.99995803833,Wed Nov 05 2025 19:33:16 GMT-0600 (Central Standard Time),74027.79999999888,O,z,1573,1573,,5,yes,1,1581.5999999996275,72446.19999999925,test1trial5.png,test1trial5.png,7230,PC,C,62434,,5
6,1,9.947999954223633,test,1,m,20052.000045776367,Wed Nov 05 2025 19:33:16 GMT-0600 (Central Standard Time),75844.79999999888,O,m,1797,1797,,6,no,1,1814.699999999255,74030.09999999963,test1trial6.png,test1trial6b.png,7230,PC,C,64018,,6
7,1,11.562999963760376,test,1,z,18437.000036239624,Wed Nov 05 2025 19:33:16 GMT-0600 (Central Standard Time),77459.40000000037,O,z,1605,1605,,7,yes,1,1612.4000000003725,75847.0,test1trial7.png,test1trial7.png,7230,PC,C,65834,,7
8,1,13.911999940872192,test,1,m,16088.000059127808,Wed Nov 05 2025 19:33:16 GMT-0600 (Central Standard Time),79808.5,O,m,2334,2334,,8,no,1,2347.0999999996275,77461.40000000037,test1trial8.png,test1trial8b.png,7230,PC,C,67449,,8
9,1,15.079999923706055,test,1,z,14920.000076293945,Wed Nov 05 2025 19:33:16 GMT-0600 (Central Standard Time),80976.40000000037,O,z,1153,1153,,9,yes,1,1165.9000000003725,79810.5,test1trial9.png,test1trial9.png,7230,PC,C,69798,,9
10,1,16.727999925613403,test,1,m,13272.000074386597,Wed Nov 05 2025 19:33:16 GMT-0600 (Central Standard Time),82624.90000000037,O,m,1641,1641,,10,no,1,1646.5,80978.40000000037,test1trial10.png,test1trial10b.png,7230,PC,C,70966,,10
11,1,18.22699999809265,test,1,z,11773.000001907349,Wed Nov 05 2025 19:33:16 GMT-0600 (Central Standard Time),84123.90000000037,O,z,1481,1481,,11,yes,1,1497.1000000014901,82626.79999999888,test1trial11.png,test1trial11.png,7230,PC,C,72614,,11
12,1,19.877000093460083,test,1,m,10122.999906539917,Wed Nov 05 2025 19:33:16 GMT-0600 (Central Standard Time),85773.19999999925,O,m,1645,1645,,12,no,1,1647.2999999988824,84125.90000000037,test1trial12.png,test1trial12b.png,7230,PC,C,74114,,12
13,1,21.4760000705719,test,1,m,8523.9999294281,Wed Nov 05 2025 19:33:16 GMT-0600 (Central Standard Time),87372.79999999888,O,m,1588,1588,,13,no,1,1597.5999999996275,85775.19999999925,test1trial13.png,test1trial13b.png,7230,PC,C,75763,,13
14,1,22.9760000705719,test,1,m,7023.999929428101,Wed Nov 05 2025 19:33:16 GMT-0600 (Central Standard Time),88872.09999999963,O,m,1484,1484,,14,no,1,1497.300000000745,87374.79999999888,test1trial14.png,test1trial14b.png,7230,PC,C,77363,,14
14,1,24.694000005722046,test,0,z,5305.999994277954,Wed Nov 05 2025 19:33:16 GMT-0600 (Central Standard Time),90590.5,O,m,1698,1698,,15,yes,1,1716.4000000003725,88874.09999999963,test1trial15.png,test1trial15.png,7230,PC,C,78862,,15
15,1,26.20900011062622,test,1,m,3790.9998893737793,Wed Nov 05 2025 19:33:16 GMT-0600 (Central Standard Time),92105.29999999888,O,m,1507,1507,,16,no,1,1512.7999999988824,90592.5,test1trial16.png,test1trial16b.png,7230,PC,C,80580,,16
16,1,27.591000080108643,test,1,z,2408.9999198913574,Wed Nov 05 2025 19:33:16 GMT-0600 (Central Standard Time),93487.69999999925,O,z,1368,1368,,17,yes,1,1380.699999999255,92107.0,test1trial17.png,test1trial17.png,7230,PC,C,82095,,17
17,1,29.05900001525879,test,1,m,940.9999847412109,Wed Nov 05 2025 19:33:16 GMT-0600 (Central Standard Time),94955.40000000037,O,m,1450,1450,,18,no,1,1465.9000000003725,93489.5,test1trial18.png,test1trial18b.png,7230,PC,C,83477,,18
17,1,30.007999897003174,test,0,m,-7.999897003173828,Wed Nov 05 2025 19:33:16 GMT-0600 (Central Standard Time),95904.40000000037,O,None,946,946,,19,no,1,947.0,94957.40000000037,test1trial19.png,test1trial19b.png,7230,PC,C,84945,,19
1,2,1.816999912261963,test,1,m,28183.000087738037,Wed Nov 05 2025 19:33:16 GMT-0600 (Central Standard Time),108333.59999999963,O,m,1805,,1805.0,1,no,1,13376.199999999255,94957.40000000037,test2trial1.png,test2trial1b.png,7230,PC,C,,96506.0,1
2,2,4.615999937057495,test,1,m,25384.000062942505,Wed Nov 05 2025 19:33:16 GMT-0600 (Central Standard Time),111132.29999999888,O,m,2796,,2796.0,2,no,1,16174.89999999851,94957.40000000037,test2trial2.png,test2trial2b.png,7230,PC,C,,98323.0,2
3,2,6.297999858856201,test,1,z,23702.0001411438,Wed Nov 05 2025 19:33:16 GMT-0600 (Central Standard Time),112814.49999999814,O,z,1677,,1677.0,3,yes,1,17857.099999997765,94957.40000000037,test2trial3.png,test2trial3.png,7230,PC,C,,101122.0,3
4,2,7.847999811172485,test,1,z,22152.000188827515,Wed Nov 05 2025 19:33:16 GMT-0600 (Central Standard Time),114364.40000000037,O,z,1539,,1539.0,4,yes,1,19407.0,94957.40000000037,test2trial4.png,test2trial4.png,7230,PC,C,,102804.0,4
5,2,9.579999923706055,test,1,z,20420.000076293945,Wed Nov 05 2025 19:33:16 GMT-0600 (Central Standard Time),116096.90000000037,O,z,1717,,1717.0,5,yes,1,21139.5,94957.40000000037,test2trial5.png,test2trial5.png,7230,PC,C,,104354.0,5
6,2,11.478999853134155,test,1,z,18521.000146865845,Wed Nov 05 2025 19:33:16 GMT-0600 (Central Standard Time),117995.59999999963,O,z,1881,,1881.0,6,yes,1,23038.199999999255,94957.40000000037,test2trial6.png,test2trial6.png,7230,PC,C,,106086.0,6
7,2,13.544999837875366,test,1,m,16455.000162124634,Wed Nov 05 2025 19:33:16 GMT-0600 (Central Standard Time),120062.70000000112,O,m,2062,,2062.0,7,no,1,25105.300000000745,94957.40000000037,test2trial7.png,test2trial7b.png,7230,PC,C,,107985.0,7
8,2,14.827999830245972,test,1,m,15172.000169754028,Wed Nov 05 2025 19:33:16 GMT-0600 (Central Standard Time),121345.20000000112,O,m,1266,,1266.0,8,no,1,26387.800000000745,94957.40000000037,test2trial8.png,test2trial8b.png,7230,PC,C,,110053.0,8
9,2,16.643999814987183,test,1,z,13356.000185012817,Wed Nov 05 2025 19:33:16 GMT-0600 (Central Standard Time),123161.20000000112,O,z,1808,,1808.0,9,yes,1,28203.800000000745,94957.40000000037,test2trial9.png,test2trial9.png,7230,PC,C,,111335.0,9
10,2,18.143999814987183,test,1,z,11856.000185012817,Wed Nov 05 2025 19:33:16 GMT-0600 (Central Standard Time),124660.90000000037,O,z,1488,,1488.0,10,yes,1,29703.5,94957.40000000037,test2trial10.png,test2trial10.png,7230,PC,C,,113151.0,10
11,2,19.55999994277954,test,1,m,10440.000057220459,Wed Nov 05 2025 19:33:16 GMT-0600 (Central Standard Time),126077.20000000112,O,m,1405,,1405.0,11,no,1,31119.800000000745,94957.40000000037,test2trial11.png,test2trial11b.png,7230,PC,C,,114650.0,11
12,2,20.95899987220764,test,1,m,9041.000127792358,Wed Nov 05 2025 19:33:16 GMT-0600 (Central Standard Time),127476.40000000037,O,m,1388,,1388.0,12,no,1,32519.0,94957.40000000037,test2trial12.png,test2trial12b.png,7230,PC,C,,116067.0,12
13,2,22.30999994277954,test,1,z,7690.000057220459,Wed Nov 05 2025 19:33:16 GMT-0600 (Central Standard Time),128827.20000000112,O,z,1333,,1333.0,13,yes,1,33869.800000000745,94957.40000000037,test2trial13.png,test2trial13.png,7230,PC,C,,117466.0,13
14,2,23.70899987220764,test,1,m,6291.000127792358,Wed Nov 05 2025 19:33:16 GMT-0600 (Central Standard Time),130225.90000000037,O,m,1390,,1390.0,14,no,1,35268.5,94957.40000000037,test2trial14.png,test2trial14b.png,7230,PC,C,,118817.0,14
15,2,24.875,test,1,m,5125.0,Wed Nov 05 2025 19:33:16 GMT-0600 (Central Standard Time),131392.09999999963,O,m,1151,,1151.0,15,no,1,36434.699999999255,94957.40000000037,test2trial15.png,test2trial15b.png,7230,PC,C,,120216.0,15
15,2,26.29099988937378,test,0,m,3709.0001106262207,Wed Nov 05 2025 19:33:16 GMT-0600 (Central Standard Time),132808.09999999963,O,z,1402,,1402.0,16,no,1,37850.699999999255,94957.40000000037,test2trial16.png,test2trial16b.png,7230,PC,C,,121381.0,16
16,2,28.139999866485596,test,1,z,1860.0001335144043,Wed Nov 05 2025 19:33:16 GMT-0600 (Central Standard Time),134657.70000000112,O,z,1833,,1833.0,17,yes,1,39700.300000000745,94957.40000000037,test2trial17.png,test2trial17.png,7230,PC,C,,122798.0,17
17,2,29.739999771118164,test,1,z,260.00022888183594,Wed Nov 05 2025 19:33:16 GMT-0600 (Central Standard Time),136257.40000000037,O,z,1592,,1592.0,18,yes,1,41300.0,94957.40000000037,test2trial18.png,test2trial18.png,7230,PC,C,,124647.0,18
17,2,30.006999969482422,test,0,z,-6.999969482421875,Wed Nov 05 2025 19:33:16 GMT-0600 (Central Standard Time),136524.59999999963,O,None,264,,264.0,19,yes,1,41567.199999999255,94957.40000000037,test2trial19.png,test2trial19.png,7230,PC,C,,126247.0,19
