block_c,block_dur,condition,countdown,datetime,endtime,list,multichar_response,project,response,response_time,session_number,start_end,starttime,subject_id,task,task_vers,trial
,,,,Fri May 09 2025 09:12:46 GMT-0500 (Central Daylight Time),,,,O,space,315,1,,,7139,WL,B,
prac,,0,,Fri May 09 2025 09:12:46 GMT-0500 (Central Daylight Time),,NA,b,O,b,2870,1,,,7139,WL,B,1.0
prac,,0,,Fri May 09 2025 09:12:46 GMT-0500 (Central Daylight Time),,NA,bo,O,o,374,1,,,7139,WL,B,1.0
prac,,0,,Fri May 09 2025 09:12:46 GMT-0500 (Central Daylight Time),,NA,boo,O,o,128,1,,,7139,WL,B,1.0
prac,,0,,Fri May 09 2025 09:12:46 GMT-0500 (Central Daylight Time),,NA,boos,O,s,121,1,,,7139,WL,B,1.0
prac,,0,,Fri May 09 2025 09:12:46 GMT-0500 (Central Daylight Time),,NA,boost,O,t,133,1,,,7139,WL,B,1.0
prac,,0,,Fri May 09 2025 09:12:46 GMT-0500 (Central Daylight Time),,NA,boostenter,O,enter,7062,1,,,7139,WL,B,1.0
1,2.134999990463257,learn,57865.00000953674,Fri May 09 2025 09:12:46 GMT-0500 (Central Daylight Time),141210.0,A,s,O,s,2113,1,2133.400000035763,139076.59999996424,7139,WL,B,1.0
1,2.751000165939331,learn,57248.99983406067,Fri May 09 2025 09:12:46 GMT-0500 (Central Daylight Time),141826.39999997616,A,st,O,t,600,1,2749.800000011921,139076.59999996424,7139,WL,B,1.0
1,3.7680001258850098,learn,56231.99987411499,Fri May 09 2025 09:12:46 GMT-0500 (Central Daylight Time),142843.79999995232,A,ste,O,e,1001,1,3767.199999988079,139076.59999996424,7139,WL,B,1.0
1,3.9160001277923584,learn,56083.99987220764,Fri May 09 2025 09:12:46 GMT-0500 (Central Daylight Time),142991.39999997616,A,stee,O,e,126,1,3914.800000011921,139076.59999996424,7139,WL,B,1.0
1,4.151000022888184,learn,55848.99997711182,Fri May 09 2025 09:12:46 GMT-0500 (Central Daylight Time),143226.69999998808,A,steet,O,t,228,1,4150.100000023842,139076.59999996424,7139,WL,B,1.0
1,5.049000024795532,learn,54950.99997520447,Fri May 09 2025 09:12:46 GMT-0500 (Central Daylight Time),144124.69999998808,A,steetenter,O,enter,888,1,5048.100000023842,139076.59999996424,7139,WL,B,1.0
1,6.232000112533569,learn,53767.99988746643,Fri May 09 2025 09:12:46 GMT-0500 (Central Daylight Time),145307.89999997616,A,g,O,g,1166,1,1182.800000011921,144125.09999996424,7139,WL,B,2.0
1,6.499000072479248,learn,53500.99992752075,Fri May 09 2025 09:12:46 GMT-0500 (Central Daylight Time),145574.39999997616,A,gr,O,r,255,1,1449.300000011921,144125.09999996424,7139,WL,B,2.0
1,6.617000102996826,learn,53382.999897003174,Fri May 09 2025 09:12:46 GMT-0500 (Central Daylight Time),145692.89999997616,A,gra,O,a,111,1,1567.800000011921,144125.09999996424,7139,WL,B,2.0
1,7.049000024795532,learn,52950.99997520447,Fri May 09 2025 09:12:46 GMT-0500 (Central Daylight Time),146124.89999997616,A,gras,O,s,415,1,1999.800000011921,144125.09999996424,7139,WL,B,2.0
1,7.16700005531311,learn,52832.99994468689,Fri May 09 2025 09:12:46 GMT-0500 (Central Daylight Time),146242.19999998808,A,grass,O,s,102,1,2117.100000023842,144125.09999996424,7139,WL,B,2.0
1,8.367000102996826,learn,51632.999897003174,Fri May 09 2025 09:12:46 GMT-0500 (Central Daylight Time),147441.89999997616,A,grassenter,O,enter,1192,1,3316.800000011921,144125.09999996424,7139,WL,B,2.0
1,9.381999969482422,learn,50618.00003051758,Fri May 09 2025 09:12:46 GMT-0500 (Central Daylight Time),148457.09999996424,A,c,O,c,1003,1,1014.6999999880791,147442.39999997616,7139,WL,B,3.0
1,9.784000158309937,learn,50215.99984169006,Fri May 09 2025 09:12:46 GMT-0500 (Central Daylight Time),148859.0,A,ci,O,i,395,1,1416.6000000238419,147442.39999997616,7139,WL,B,3.0
1,10.014000177383423,learn,49985.99982261658,Fri May 09 2025 09:12:46 GMT-0500 (Central Daylight Time),149089.09999996424,A,cit,O,t,208,1,1646.699999988079,147442.39999997616,7139,WL,B,3.0
1,10.098000049591064,learn,49901.999950408936,Fri May 09 2025 09:12:46 GMT-0500 (Central Daylight Time),149173.79999995232,A,city,O,y,68,1,1731.3999999761581,147442.39999997616,7139,WL,B,3.0
1,10.930000066757202,learn,49069.9999332428,Fri May 09 2025 09:12:46 GMT-0500 (Central Daylight Time),150005.59999996424,A,cityenter,O,enter,815,1,2563.199999988079,147442.39999997616,7139,WL,B,3.0
1,11.580000162124634,learn,48419.999837875366,Fri May 09 2025 09:12:46 GMT-0500 (Central Daylight Time),150655.0,A,s,O,s,628,1,649.0,150006.0,7139,WL,B,4.0
1,12.080000162124634,learn,47919.999837875366,Fri May 09 2025 09:12:46 GMT-0500 (Central Daylight Time),151155.39999997616,A,st,O,t,486,1,1149.3999999761581,150006.0,7139,WL,B,4.0
1,12.248000144958496,learn,47751.999855041504,Fri May 09 2025 09:12:46 GMT-0500 (Central Daylight Time),151323.79999995232,A,sta,O,a,152,1,1317.7999999523163,150006.0,7139,WL,B,4.0
1,12.348000049591064,learn,47651.999950408936,Fri May 09 2025 09:12:46 GMT-0500 (Central Daylight Time),151423.69999998808,A,star,O,r,79,1,1417.699999988079,150006.0,7139,WL,B,4.0
1,12.963000059127808,learn,47036.99994087219,Fri May 09 2025 09:12:46 GMT-0500 (Central Daylight Time),152038.79999995232,A,starenter,O,enter,593,1,2032.7999999523163,150006.0,7139,WL,B,4.0
1,13.764000177383423,learn,46235.99982261658,Fri May 09 2025 09:12:46 GMT-0500 (Central Daylight Time),152839.59999996424,A,c,O,c,780,1,800.5999999642372,152039.0,7139,WL,B,5.0
1,13.949000120162964,learn,46050.999879837036,Fri May 09 2025 09:12:46 GMT-0500 (Central Daylight Time),153024.0,A,ca,O,a,163,1,985.0,152039.0,7139,WL,B,5.0
1,14.19700002670288,learn,45802.99997329712,Fri May 09 2025 09:12:46 GMT-0500 (Central Daylight Time),153273.0,A,cab,O,b,226,1,1234.0,152039.0,7139,WL,B,5.0
1,14.299000024795532,learn,45700.99997520447,Fri May 09 2025 09:12:46 GMT-0500 (Central Daylight Time),153374.59999996424,A,cabi,O,i,79,1,1335.5999999642372,152039.0,7139,WL,B,5.0
1,14.414000034332275,learn,45585.999965667725,Fri May 09 2025 09:12:46 GMT-0500 (Central Daylight Time),153489.39999997616,A,cabin,O,n,94,1,1450.3999999761581,152039.0,7139,WL,B,5.0
1,15.21399998664856,learn,44786.00001335144,Fri May 09 2025 09:12:46 GMT-0500 (Central Daylight Time),154289.79999995232,A,cabinenter,O,enter,796,1,2250.7999999523163,152039.0,7139,WL,B,5.0
1,16.080000162124634,learn,43919.999837875366,Fri May 09 2025 09:12:46 GMT-0500 (Central Daylight Time),155155.19999998808,A,l,O,l,850,1,865.1000000238419,154290.09999996424,7139,WL,B,6.0
1,16.180000066757202,learn,43819.9999332428,Fri May 09 2025 09:12:46 GMT-0500 (Central Daylight Time),155255.79999995232,A,la,O,a,79,1,965.6999999880791,154290.09999996424,7139,WL,B,6.0
1,16.296000003814697,learn,43703.9999961853,Fri May 09 2025 09:12:46 GMT-0500 (Central Daylight Time),155371.5,A,lak,O,k,100,1,1081.4000000357628,154290.09999996424,7139,WL,B,6.0
1,16.52900004386902,learn,43470.99995613098,Fri May 09 2025 09:12:46 GMT-0500 (Central Daylight Time),155604.59999996424,A,lake,O,e,215,1,1314.5,154290.09999996424,7139,WL,B,6.0
1,17.378000020980835,learn,42621.999979019165,Fri May 09 2025 09:12:46 GMT-0500 (Central Daylight Time),156453.79999995232,A,lakeenter,O,enter,831,1,2163.699999988079,154290.09999996424,7139,WL,B,6.0
1,23.729000091552734,learn,36270.999908447266,Fri May 09 2025 09:12:46 GMT-0500 (Central Daylight Time),162804.09999996424,A,a,O,a,6343,1,6350.0,156454.09999996424,7139,WL,B,7.0
1,23.858999967575073,learn,36141.00003242493,Fri May 09 2025 09:12:46 GMT-0500 (Central Daylight Time),162934.59999996424,A,ar,O,r,118,1,6480.5,156454.09999996424,7139,WL,B,7.0
1,24.0770001411438,learn,35922.9998588562,Fri May 09 2025 09:12:46 GMT-0500 (Central Daylight Time),163152.69999998808,A,arm,O,m,194,1,6698.600000023842,156454.09999996424,7139,WL,B,7.0
1,24.593000173568726,learn,35406.999826431274,Fri May 09 2025 09:12:46 GMT-0500 (Central Daylight Time),163668.09999996424,A,armenter,O,enter,498,1,7214.0,156454.09999996424,7139,WL,B,7.0
1,25.509999990463257,learn,34490.00000953674,Fri May 09 2025 09:12:46 GMT-0500 (Central Daylight Time),164585.39999997616,A,s,O,s,904,1,916.8999999761581,163668.5,7139,WL,B,8.0
1,25.761000156402588,learn,34238.99984359741,Fri May 09 2025 09:12:46 GMT-0500 (Central Daylight Time),164836.29999995232,A,sk,O,k,233,1,1167.7999999523163,163668.5,7139,WL,B,8.0
1,25.97699999809265,learn,34023.00000190735,Fri May 09 2025 09:12:46 GMT-0500 (Central Daylight Time),165052.39999997616,A,ski,O,i,200,1,1383.8999999761581,163668.5,7139,WL,B,8.0
1,26.110000133514404,learn,33889.999866485596,Fri May 09 2025 09:12:46 GMT-0500 (Central Daylight Time),165185.59999996424,A,skin,O,n,111,1,1517.0999999642372,163668.5,7139,WL,B,8.0
1,26.5770001411438,learn,33422.9998588562,Fri May 09 2025 09:12:46 GMT-0500 (Central Daylight Time),165652.0,A,skinenter,O,enter,450,1,1983.5,163668.5,7139,WL,B,8.0
1,39.72099995613098,learn,20279.00004386902,Fri May 09 2025 09:12:46 GMT-0500 (Central Daylight Time),178797.89999997616,A,p,O,p,13125,1,13145.600000023842,165652.29999995232,7139,WL,B,9.0
1,40.12100005149841,learn,19878.999948501587,Fri May 09 2025 09:12:46 GMT-0500 (Central Daylight Time),179197.79999995232,A,pi,O,i,393,1,13545.5,165652.29999995232,7139,WL,B,9.0
1,40.28700017929077,learn,19712.99982070923,Fri May 09 2025 09:12:46 GMT-0500 (Central Daylight Time),179363.89999997616,A,pip,O,p,149,1,13711.600000023842,165652.29999995232,7139,WL,B,9.0
1,40.63900017738342,learn,19360.999822616577,Fri May 09 2025 09:12:46 GMT-0500 (Central Daylight Time),179716.09999996424,A,pipe,O,e,344,1,14063.800000011921,165652.29999995232,7139,WL,B,9.0
1,41.03600001335144,learn,18963.99998664856,Fri May 09 2025 09:12:46 GMT-0500 (Central Daylight Time),180113.19999998808,A,pipeenter,O,enter,383,1,14460.900000035763,165652.29999995232,7139,WL,B,9.0
1,54.098999977111816,learn,5901.000022888184,Fri May 09 2025 09:12:46 GMT-0500 (Central Daylight Time),193175.89999997616,A,p,O,p,13042,1,13062.399999976158,180113.5,7139,WL,B,10.0
1,54.384000062942505,learn,5615.999937057495,Fri May 09 2025 09:12:46 GMT-0500 (Central Daylight Time),193460.39999997616,A,pu,O,u,269,1,13346.899999976158,180113.5,7139,WL,B,10.0
1,54.699000120162964,learn,5300.999879837036,Fri May 09 2025 09:12:46 GMT-0500 (Central Daylight Time),193776.0,A,pup,O,p,302,1,13662.5,180113.5,7139,WL,B,10.0
1,55.13300013542175,learn,4866.999864578247,Fri May 09 2025 09:12:46 GMT-0500 (Central Daylight Time),194210.0,A,pupi,O,i,412,1,14096.5,180113.5,7139,WL,B,10.0
1,55.58299994468689,learn,4417.00005531311,Fri May 09 2025 09:12:46 GMT-0500 (Central Daylight Time),194659.89999997616,A,pupil,O,l,434,1,14546.399999976158,180113.5,7139,WL,B,10.0
1,55.848999977111816,learn,4151.000022888184,Fri May 09 2025 09:12:46 GMT-0500 (Central Daylight Time),194925.89999997616,A,pupilenter,O,enter,256,1,14812.399999976158,180113.5,7139,WL,B,10.0
1,60.015000104904175,learn,-15.000104904174805,Fri May 09 2025 09:12:46 GMT-0500 (Central Daylight Time),199091.39999997616,A,None,O,None,4160,1,4165.199999988079,194926.19999998808,7139,WL,B,11.0
2,2.066999912261963,learn,57933.00008773804,Fri May 09 2025 09:12:46 GMT-0500 (Central Daylight Time),272134.5,A,c,O,c,2056,1,2066.800000011921,270067.6999999881,7139,WL,B,1.0
2,2.364000082015991,learn,57635.99991798401,Fri May 09 2025 09:12:46 GMT-0500 (Central Daylight Time),272431.59999996424,A,cl,O,l,285,1,2363.899999976158,270067.6999999881,7139,WL,B,1.0
2,2.5839998722076416,learn,57416.00012779236,Fri May 09 2025 09:12:46 GMT-0500 (Central Daylight Time),272651.09999996424,A,clo,O,o,198,1,2583.399999976158,270067.6999999881,7139,WL,B,1.0
2,2.7829999923706055,learn,57217.000007629395,Fri May 09 2025 09:12:46 GMT-0500 (Central Daylight Time),272850.5,A,cloc,O,c,193,1,2782.800000011921,270067.6999999881,7139,WL,B,1.0
2,2.9010000228881836,learn,57098.99997711182,Fri May 09 2025 09:12:46 GMT-0500 (Central Daylight Time),272968.2999999523,A,clock,O,k,98,1,2900.599999964237,270067.6999999881,7139,WL,B,1.0
2,3.4839999675750732,learn,56516.00003242493,Fri May 09 2025 09:12:46 GMT-0500 (Central Daylight Time),273550.89999997616,A,clockenter,O,enter,564,1,3483.199999988079,270067.6999999881,7139,WL,B,1.0
2,4.700999975204468,learn,55299.00002479553,Fri May 09 2025 09:12:46 GMT-0500 (Central Daylight Time),274768.0,A,s,O,s,1197,1,1216.9000000357628,273551.09999996424,7139,WL,B,2.0
2,5.016999959945679,learn,54983.00004005432,Fri May 09 2025 09:12:46 GMT-0500 (Central Daylight Time),275083.7999999523,A,st,O,t,300,1,1532.699999988079,273551.09999996424,7139,WL,B,2.0
2,5.165999889373779,learn,54834.00011062622,Fri May 09 2025 09:12:46 GMT-0500 (Central Daylight Time),275233.5,A,str,O,r,137,1,1682.4000000357628,273551.09999996424,7139,WL,B,2.0
2,5.516999959945679,learn,54483.00004005432,Fri May 09 2025 09:12:46 GMT-0500 (Central Daylight Time),275583.6999999881,A,stre,O,e,339,1,2032.6000000238419,273551.09999996424,7139,WL,B,2.0
2,5.999000072479248,learn,54000.99992752075,Fri May 09 2025 09:12:46 GMT-0500 (Central Daylight Time),276066.2999999523,A,stree,O,e,469,1,2515.199999988079,273551.09999996424,7139,WL,B,2.0
2,6.200000047683716,learn,53799.999952316284,Fri May 09 2025 09:12:46 GMT-0500 (Central Daylight Time),276267.2999999523,A,street,O,t,196,1,2716.199999988079,273551.09999996424,7139,WL,B,2.0
2,6.5320000648498535,learn,53467.99993515015,Fri May 09 2025 09:12:46 GMT-0500 (Central Daylight Time),276598.89999997616,A,streetenter,O,enter,311,1,3047.800000011921,273551.09999996424,7139,WL,B,2.0
2,7.348999977111816,learn,52651.00002288818,Fri May 09 2025 09:12:46 GMT-0500 (Central Daylight Time),277416.59999996424,A,g,O,g,805,1,817.3999999761581,276599.1999999881,7139,WL,B,3.0
2,7.549000024795532,learn,52450.99997520447,Fri May 09 2025 09:12:46 GMT-0500 (Central Daylight Time),277616.5,A,gr,O,r,180,1,1017.3000000119209,276599.1999999881,7139,WL,B,3.0
2,7.664999961853027,learn,52335.00003814697,Fri May 09 2025 09:12:46 GMT-0500 (Central Daylight Time),277732.59999996424,A,gra,O,a,100,1,1133.3999999761581,276599.1999999881,7139,WL,B,3.0
2,7.947999954223633,learn,52052.00004577637,Fri May 09 2025 09:12:46 GMT-0500 (Central Daylight Time),278015.2999999523,A,gras,O,s,272,1,1416.0999999642372,276599.1999999881,7139,WL,B,3.0
2,8.08299994468689,learn,51917.00005531311,Fri May 09 2025 09:12:46 GMT-0500 (Central Daylight Time),278150.5,A,grass,O,s,118,1,1551.300000011921,276599.1999999881,7139,WL,B,3.0
2,8.831000089645386,learn,51168.999910354614,Fri May 09 2025 09:12:46 GMT-0500 (Central Daylight Time),278898.59999996424,A,grassenter,O,enter,733,1,2299.399999976158,276599.1999999881,7139,WL,B,3.0
2,9.480999946594238,learn,50519.00005340576,Fri May 09 2025 09:12:46 GMT-0500 (Central Daylight Time),279548.39999997616,A,d,O,d,630,1,649.5,278898.89999997616,7139,WL,B,4.0
2,9.914000034332275,learn,50085.999965667725,Fri May 09 2025 09:12:46 GMT-0500 (Central Daylight Time),279981.59999996424,A,do,O,o,427,1,1082.699999988079,278898.89999997616,7139,WL,B,4.0
2,10.04800009727478,learn,49951.99990272522,Fri May 09 2025 09:12:46 GMT-0500 (Central Daylight Time),280115.59999996424,A,doo,O,o,118,1,1216.699999988079,278898.89999997616,7139,WL,B,4.0
2,10.230999946594238,learn,49769.00005340576,Fri May 09 2025 09:12:46 GMT-0500 (Central Daylight Time),280298.6999999881,A,door,O,r,167,1,1399.800000011921,278898.89999997616,7139,WL,B,4.0
2,10.664999961853027,learn,49335.00003814697,Fri May 09 2025 09:12:46 GMT-0500 (Central Daylight Time),280731.7999999523,A,doorenter,O,enter,418,1,1832.8999999761581,278898.89999997616,7139,WL,B,4.0
2,11.513999938964844,learn,48486.000061035156,Fri May 09 2025 09:12:46 GMT-0500 (Central Daylight Time),281580.89999997616,A,s,O,s,841,1,848.8999999761581,280732.0,7139,WL,B,5.0
2,11.848999977111816,learn,48151.00002288818,Fri May 09 2025 09:12:46 GMT-0500 (Central Daylight Time),281916.0,A,st,O,t,329,1,1184.0,280732.0,7139,WL,B,5.0
2,11.980000019073486,learn,48019.999980926514,Fri May 09 2025 09:12:46 GMT-0500 (Central Daylight Time),282047.0,A,sta,O,a,120,1,1315.0,280732.0,7139,WL,B,5.0
2,12.09500002861023,learn,47904.99997138977,Fri May 09 2025 09:12:46 GMT-0500 (Central Daylight Time),282162.0,A,star,O,r,108,1,1430.0,280732.0,7139,WL,B,5.0
2,13.164000034332275,learn,46835.999965667725,Fri May 09 2025 09:12:46 GMT-0500 (Central Daylight Time),283230.89999997616,A,starenter,O,enter,1060,1,2498.899999976158,280732.0,7139,WL,B,5.0
2,14.378999948501587,learn,45621.00005149841,Fri May 09 2025 09:12:46 GMT-0500 (Central Daylight Time),284446.2999999523,A,c,O,c,1196,1,1214.7999999523163,283231.5,7139,WL,B,6.0
2,14.77999997138977,learn,45220.00002861023,Fri May 09 2025 09:12:46 GMT-0500 (Central Daylight Time),284846.89999997616,A,ci,O,i,391,1,1615.3999999761581,283231.5,7139,WL,B,6.0
2,14.961999893188477,learn,45038.00010681152,Fri May 09 2025 09:12:46 GMT-0500 (Central Daylight Time),285029.1999999881,A,cit,O,t,174,1,1797.699999988079,283231.5,7139,WL,B,6.0
2,15.093999862670898,learn,44906.0001373291,Fri May 09 2025 09:12:46 GMT-0500 (Central Daylight Time),285161.39999997616,A,city,O,y,119,1,1929.8999999761581,283231.5,7139,WL,B,6.0
2,15.911999940872192,learn,44088.00005912781,Fri May 09 2025 09:12:46 GMT-0500 (Central Daylight Time),285979.0,A,cityenter,O,enter,804,1,2747.5,283231.5,7139,WL,B,6.0
2,17.84599995613098,learn,42154.00004386902,Fri May 09 2025 09:12:46 GMT-0500 (Central Daylight Time),287913.0,A,w,O,w,1913,1,1933.800000011921,285979.1999999881,7139,WL,B,7.0
2,17.960999965667725,learn,42039.000034332275,Fri May 09 2025 09:12:46 GMT-0500 (Central Daylight Time),288028.6999999881,A,wi,O,i,98,1,2049.5,285979.1999999881,7139,WL,B,7.0
2,18.361999988555908,learn,41638.00001144409,Fri May 09 2025 09:12:46 GMT-0500 (Central Daylight Time),288429.2999999523,A,win,O,n,383,1,2450.099999964237,285979.1999999881,7139,WL,B,7.0
2,18.76200008392334,learn,41237.99991607666,Fri May 09 2025 09:12:46 GMT-0500 (Central Daylight Time),288829.09999996424,A,wind,O,d,391,1,2849.899999976158,285979.1999999881,7139,WL,B,7.0
2,18.92899990081787,learn,41071.00009918213,Fri May 09 2025 09:12:46 GMT-0500 (Central Daylight Time),288995.7999999523,A,windo,O,o,150,1,3016.599999964237,285979.1999999881,7139,WL,B,7.0
2,19.01200008392334,learn,40987.99991607666,Fri May 09 2025 09:12:46 GMT-0500 (Central Daylight Time),289079.1999999881,A,window,O,w,72,1,3100.0,285979.1999999881,7139,WL,B,7.0
2,20.493000030517578,learn,39506.99996948242,Fri May 09 2025 09:12:46 GMT-0500 (Central Daylight Time),290561.5,A,windowenter,O,enter,1467,1,4582.300000011921,285979.1999999881,7139,WL,B,7.0
2,22.243000030517578,learn,37756.99996948242,Fri May 09 2025 09:12:46 GMT-0500 (Central Daylight Time),292311.6999999881,A,w,O,w,1740,1,1749.9000000357628,290561.7999999523,7139,WL,B,8.0
2,22.361000061035156,learn,37638.999938964844,Fri May 09 2025 09:12:46 GMT-0500 (Central Daylight Time),292430.0,A,wi,O,i,111,1,1868.2000000476837,290561.7999999523,7139,WL,B,8.0
2,22.592999935150146,learn,37407.00006484985,Fri May 09 2025 09:12:46 GMT-0500 (Central Daylight Time),292661.2999999523,A,wif,O,f,209,1,2099.5,290561.7999999523,7139,WL,B,8.0
2,22.710000038146973,learn,37289.99996185303,Fri May 09 2025 09:12:46 GMT-0500 (Central Daylight Time),292779.09999996424,A,wife,O,e,111,1,2217.300000011921,290561.7999999523,7139,WL,B,8.0
2,23.375999927520752,learn,36624.00007247925,Fri May 09 2025 09:12:46 GMT-0500 (Central Daylight Time),293444.5,A,wifeenter,O,enter,655,1,2882.7000000476837,290561.7999999523,7139,WL,B,8.0
2,24.941999912261963,learn,35058.00008773804,Fri May 09 2025 09:12:46 GMT-0500 (Central Daylight Time),295010.89999997616,A,c,O,c,1544,1,1566.1000000238419,293444.7999999523,7139,WL,B,9.0
2,25.108999967575073,learn,34891.00003242493,Fri May 09 2025 09:12:46 GMT-0500 (Central Daylight Time),295177.09999996424,A,ca,O,a,149,1,1732.300000011921,293444.7999999523,7139,WL,B,9.0
2,25.358999967575073,learn,34641.00003242493,Fri May 09 2025 09:12:46 GMT-0500 (Central Daylight Time),295427.89999997616,A,cab,O,b,235,1,1983.1000000238419,293444.7999999523,7139,WL,B,9.0
2,25.44099998474121,learn,34559.00001525879,Fri May 09 2025 09:12:46 GMT-0500 (Central Daylight Time),295509.59999996424,A,cabi,O,i,71,1,2064.800000011921,293444.7999999523,7139,WL,B,9.0
2,25.54200005531311,learn,34457.99994468689,Fri May 09 2025 09:12:46 GMT-0500 (Central Daylight Time),295610.59999996424,A,cabin,O,n,79,1,2165.800000011921,293444.7999999523,7139,WL,B,9.0
2,26.02500009536743,learn,33974.99990463257,Fri May 09 2025 09:12:46 GMT-0500 (Central Daylight Time),296093.5,A,cabinenter,O,enter,471,1,2648.7000000476837,293444.7999999523,7139,WL,B,9.0
2,26.891000032424927,learn,33108.99996757507,Fri May 09 2025 09:12:46 GMT-0500 (Central Daylight Time),296959.89999997616,A,l,O,l,854,1,866.1000000238419,296093.7999999523,7139,WL,B,10.0
2,26.97499990463257,learn,33025.00009536743,Fri May 09 2025 09:12:46 GMT-0500 (Central Daylight Time),297043.1999999881,A,la,O,a,77,1,949.4000000357628,296093.7999999523,7139,WL,B,10.0
2,27.075000047683716,learn,32924.999952316284,Fri May 09 2025 09:12:46 GMT-0500 (Central Daylight Time),297143.2999999523,A,lak,O,k,81,1,1049.5,296093.7999999523,7139,WL,B,10.0
2,27.241999864578247,learn,32758.000135421753,Fri May 09 2025 09:12:46 GMT-0500 (Central Daylight Time),297310.59999996424,A,lake,O,e,157,1,1216.800000011921,296093.7999999523,7139,WL,B,10.0
2,27.907000064849854,learn,32092.999935150146,Fri May 09 2025 09:12:46 GMT-0500 (Central Daylight Time),297975.59999996424,A,lakeenter,O,enter,644,1,1881.800000011921,296093.7999999523,7139,WL,B,10.0
2,30.592000007629395,learn,29407.999992370605,Fri May 09 2025 09:12:46 GMT-0500 (Central Daylight Time),300660.09999996424,A,p,O,p,2679,1,2684.199999988079,297975.89999997616,7139,WL,B,11.0
2,30.924000024795532,learn,29075.999975204468,Fri May 09 2025 09:12:46 GMT-0500 (Central Daylight Time),300992.09999996424,A,pi,O,i,319,1,3016.199999988079,297975.89999997616,7139,WL,B,11.0
2,31.02300000190735,learn,28976.99999809265,Fri May 09 2025 09:12:46 GMT-0500 (Central Daylight Time),301091.2999999523,A,pip,O,p,84,1,3115.399999976158,297975.89999997616,7139,WL,B,11.0
2,31.42300009727478,learn,28576.99990272522,Fri May 09 2025 09:12:46 GMT-0500 (Central Daylight Time),301492.0,A,pipe,O,e,394,1,3516.100000023842,297975.89999997616,7139,WL,B,11.0
2,31.789999961853027,learn,28210.000038146973,Fri May 09 2025 09:12:46 GMT-0500 (Central Daylight Time),301858.09999996424,A,pipeenter,O,enter,351,1,3882.199999988079,297975.89999997616,7139,WL,B,11.0
2,32.87299990653992,learn,27127.000093460083,Fri May 09 2025 09:12:46 GMT-0500 (Central Daylight Time),302942.0,A,p,O,p,1065,1,1083.6000000238419,301858.39999997616,7139,WL,B,12.0
2,33.08899998664856,learn,26911.00001335144,Fri May 09 2025 09:12:46 GMT-0500 (Central Daylight Time),303157.6999999881,A,pu,O,u,197,1,1299.300000011921,301858.39999997616,7139,WL,B,12.0
2,33.37299990653992,learn,26627.000093460083,Fri May 09 2025 09:12:46 GMT-0500 (Central Daylight Time),303441.6999999881,A,pup,O,p,270,1,1583.300000011921,301858.39999997616,7139,WL,B,12.0
2,33.687999963760376,learn,26312.000036239624,Fri May 09 2025 09:12:46 GMT-0500 (Central Daylight Time),303756.7999999523,A,pupi,O,i,298,1,1898.3999999761581,301858.39999997616,7139,WL,B,12.0
2,33.806999921798706,learn,26193.000078201294,Fri May 09 2025 09:12:46 GMT-0500 (Central Daylight Time),303875.5,A,pupil,O,l,112,1,2017.1000000238419,301858.39999997616,7139,WL,B,12.0
2,34.42300009727478,learn,25576.99990272522,Fri May 09 2025 09:12:46 GMT-0500 (Central Daylight Time),304491.39999997616,A,pupilenter,O,enter,610,1,2633.0,301858.39999997616,7139,WL,B,12.0
2,42.98699998855591,learn,17013.00001144409,Fri May 09 2025 09:12:46 GMT-0500 (Central Daylight Time),313055.1999999881,A,f,O,f,8544,1,8563.400000035763,304491.7999999523,7139,WL,B,13.0
2,43.234999895095825,learn,16765.000104904175,Fri May 09 2025 09:12:46 GMT-0500 (Central Daylight Time),313304.09999996424,A,fi,O,i,237,1,8812.300000011921,304491.7999999523,7139,WL,B,13.0
2,43.420000076293945,learn,16579.999923706055,Fri May 09 2025 09:12:46 GMT-0500 (Central Daylight Time),313488.2999999523,A,fir,O,r,164,1,8996.5,304491.7999999523,7139,WL,B,13.0
2,43.53699994087219,learn,16463.000059127808,Fri May 09 2025 09:12:46 GMT-0500 (Central Daylight Time),313605.59999996424,A,fire,O,e,93,1,9113.800000011921,304491.7999999523,7139,WL,B,13.0
2,43.95300006866455,learn,16046.99993133545,Fri May 09 2025 09:12:46 GMT-0500 (Central Daylight Time),314021.09999996424,A,fireenter,O,enter,406,1,9529.300000011921,304491.7999999523,7139,WL,B,13.0
2,60.01300001144409,learn,-13.000011444091797,Fri May 09 2025 09:12:46 GMT-0500 (Central Daylight Time),330081.2999999523,A,None,O,None,16054,1,16059.899999976158,314021.39999997616,7139,WL,B,14.0
3,2.2160000801086426,learn,57783.99991989136,Fri May 09 2025 09:12:46 GMT-0500 (Central Daylight Time),406157.6999999881,A,s,O,s,2205,1,2215.699999988079,403942.0,7139,WL,B,1.0
3,2.632999897003174,learn,57367.000102996826,Fri May 09 2025 09:12:46 GMT-0500 (Central Daylight Time),406574.59999996424,A,st,O,t,407,1,2632.599999964237,403942.0,7139,WL,B,1.0
3,2.884000062942505,learn,57115.999937057495,Fri May 09 2025 09:12:46 GMT-0500 (Central Daylight Time),406826.2999999523,A,str,O,r,245,1,2884.2999999523163,403942.0,7139,WL,B,1.0
3,3.2330000400543213,learn,56766.99995994568,Fri May 09 2025 09:12:46 GMT-0500 (Central Daylight Time),407174.7999999523,A,stre,O,e,327,1,3232.7999999523163,403942.0,7139,WL,B,1.0
3,3.3489999771118164,learn,56651.00002288818,Fri May 09 2025 09:12:46 GMT-0500 (Central Daylight Time),407291.0,A,stree,O,e,101,1,3349.0,403942.0,7139,WL,B,1.0
3,3.549999952316284,learn,56450.000047683716,Fri May 09 2025 09:12:46 GMT-0500 (Central Daylight Time),407492.0,A,street,O,t,193,1,3550.0,403942.0,7139,WL,B,1.0
3,5.0320000648498535,learn,54967.99993515015,Fri May 09 2025 09:12:46 GMT-0500 (Central Daylight Time),408973.89999997616,A,streetenter,O,enter,1468,1,5031.899999976158,403942.0,7139,WL,B,1.0
3,6.0299999713897705,learn,53970.00002861023,Fri May 09 2025 09:12:46 GMT-0500 (Central Daylight Time),409973.5,A,g,O,g,982,1,999.3000000119209,408974.1999999881,7139,WL,B,2.0
3,6.2809998989105225,learn,53719.00010108948,Fri May 09 2025 09:12:46 GMT-0500 (Central Daylight Time),410224.09999996424,A,gr,O,r,229,1,1249.8999999761581,408974.1999999881,7139,WL,B,2.0
3,6.38100004196167,learn,53618.99995803833,Fri May 09 2025 09:12:46 GMT-0500 (Central Daylight Time),410324.6999999881,A,gra,O,a,75,1,1350.5,408974.1999999881,7139,WL,B,2.0
3,6.7799999713897705,learn,53220.00002861023,Fri May 09 2025 09:12:46 GMT-0500 (Central Daylight Time),410723.5,A,gras,O,s,384,1,1749.300000011921,408974.1999999881,7139,WL,B,2.0
3,6.914000034332275,learn,53085.999965667725,Fri May 09 2025 09:12:46 GMT-0500 (Central Daylight Time),410857.2999999523,A,grass,O,s,127,1,1883.0999999642372,408974.1999999881,7139,WL,B,2.0
3,7.463000059127808,learn,52536.99994087219,Fri May 09 2025 09:12:46 GMT-0500 (Central Daylight Time),411406.09999996424,A,grassenter,O,enter,539,1,2431.899999976158,408974.1999999881,7139,WL,B,2.0
3,8.331000089645386,learn,51668.999910354614,Fri May 09 2025 09:12:46 GMT-0500 (Central Daylight Time),412274.39999997616,A,d,O,d,848,1,868.0,411406.39999997616,7139,WL,B,3.0
3,8.914000034332275,learn,51085.999965667725,Fri May 09 2025 09:12:46 GMT-0500 (Central Daylight Time),412857.09999996424,A,do,O,o,569,1,1450.699999988079,411406.39999997616,7139,WL,B,3.0
3,9.062999963760376,learn,50937.000036239624,Fri May 09 2025 09:12:46 GMT-0500 (Central Daylight Time),413006.09999996424,A,doo,O,o,130,1,1599.699999988079,411406.39999997616,7139,WL,B,3.0
3,9.244999885559082,learn,50755.00011444092,Fri May 09 2025 09:12:46 GMT-0500 (Central Daylight Time),413188.59999996424,A,door,O,r,165,1,1782.199999988079,411406.39999997616,7139,WL,B,3.0
3,10.744999885559082,learn,49255.00011444092,Fri May 09 2025 09:12:46 GMT-0500 (Central Daylight Time),414688.39999997616,A,doorenter,O,enter,1480,1,3282.0,411406.39999997616,7139,WL,B,3.0
3,12.361999988555908,learn,47638.00001144409,Fri May 09 2025 09:12:46 GMT-0500 (Central Daylight Time),416305.0,A,a,O,a,1605,1,1616.300000011921,414688.6999999881,7139,WL,B,4.0
3,12.710999965667725,learn,47289.000034332275,Fri May 09 2025 09:12:46 GMT-0500 (Central Daylight Time),416654.2999999523,A,ar,O,r,338,1,1965.5999999642372,414688.6999999881,7139,WL,B,4.0
3,12.944000005722046,learn,47055.999994277954,Fri May 09 2025 09:12:46 GMT-0500 (Central Daylight Time),416887.39999997616,A,arm,O,m,221,1,2198.699999988079,414688.6999999881,7139,WL,B,4.0
3,13.444000005722046,learn,46555.999994277954,Fri May 09 2025 09:12:46 GMT-0500 (Central Daylight Time),417387.59999996424,A,armenter,O,enter,495,1,2698.899999976158,414688.6999999881,7139,WL,B,4.0
3,14.32699990272522,learn,45673.00009727478,Fri May 09 2025 09:12:46 GMT-0500 (Central Daylight Time),418270.6999999881,A,s,O,s,865,1,882.8000000119209,417387.89999997616,7139,WL,B,5.0
3,14.727999925613403,learn,45272.0000743866,Fri May 09 2025 09:12:46 GMT-0500 (Central Daylight Time),418671.09999996424,A,st,O,t,382,1,1283.199999988079,417387.89999997616,7139,WL,B,5.0
3,14.878999948501587,learn,45121.00005149841,Fri May 09 2025 09:12:46 GMT-0500 (Central Daylight Time),418822.1999999881,A,sta,O,a,133,1,1434.300000011921,417387.89999997616,7139,WL,B,5.0
3,14.994999885559082,learn,45005.00011444092,Fri May 09 2025 09:12:46 GMT-0500 (Central Daylight Time),418938.39999997616,A,star,O,r,94,1,1550.5,417387.89999997616,7139,WL,B,5.0
3,15.795000076293945,learn,44204.999923706055,Fri May 09 2025 09:12:46 GMT-0500 (Central Daylight Time),419738.59999996424,A,starenter,O,enter,785,1,2350.699999988079,417387.89999997616,7139,WL,B,5.0
3,16.91000008583069,learn,43089.99991416931,Fri May 09 2025 09:12:46 GMT-0500 (Central Daylight Time),420853.5,A,c,O,c,1106,1,1114.6000000238419,419738.89999997616,7139,WL,B,6.0
3,17.177000045776367,learn,42822.99995422363,Fri May 09 2025 09:12:46 GMT-0500 (Central Daylight Time),421120.09999996424,A,ci,O,i,254,1,1381.199999988079,419738.89999997616,7139,WL,B,6.0
3,17.39299988746643,learn,42607.00011253357,Fri May 09 2025 09:12:46 GMT-0500 (Central Daylight Time),421336.39999997616,A,cit,O,t,206,1,1597.5,419738.89999997616,7139,WL,B,6.0
3,18.42899990081787,learn,41571.00009918213,Fri May 09 2025 09:12:46 GMT-0500 (Central Daylight Time),422372.0,A,city,O,y,1031,1,2633.100000023842,419738.89999997616,7139,WL,B,6.0
3,19.092999935150146,learn,40907.00006484985,Fri May 09 2025 09:12:46 GMT-0500 (Central Daylight Time),423036.2999999523,A,cityenter,O,enter,648,1,3297.399999976158,419738.89999997616,7139,WL,B,6.0
3,20.259000062942505,learn,39740.999937057495,Fri May 09 2025 09:12:46 GMT-0500 (Central Daylight Time),424202.6999999881,A,k,O,k,1153,1,1166.199999988079,423036.5,7139,WL,B,7.0
3,21.176000118255615,learn,38823.999881744385,Fri May 09 2025 09:12:46 GMT-0500 (Central Daylight Time),425119.7999999523,A,,O,backspace,897,1,2083.2999999523163,423036.5,7139,WL,B,7.0
3,21.9760000705719,learn,38023.9999294281,Fri May 09 2025 09:12:46 GMT-0500 (Central Daylight Time),425919.39999997616,A,s,O,s,780,1,2882.899999976158,423036.5,7139,WL,B,7.0
3,22.408999919891357,learn,37591.00008010864,Fri May 09 2025 09:12:46 GMT-0500 (Central Daylight Time),426352.59999996424,A,si,O,i,420,1,3316.099999964237,423036.5,7139,WL,B,7.0
3,23.007999897003174,learn,36992.000102996826,Fri May 09 2025 09:12:46 GMT-0500 (Central Daylight Time),426951.09999996424,A,s,O,backspace,589,1,3914.599999964237,423036.5,7139,WL,B,7.0
3,23.592000007629395,learn,36407.999992370605,Fri May 09 2025 09:12:46 GMT-0500 (Central Daylight Time),427534.89999997616,A,sk,O,k,574,1,4498.399999976158,423036.5,7139,WL,B,7.0
3,23.759000062942505,learn,36240.999937057495,Fri May 09 2025 09:12:46 GMT-0500 (Central Daylight Time),427701.7999999523,A,ski,O,i,159,1,4665.299999952316,423036.5,7139,WL,B,7.0
3,23.907999992370605,learn,36092.000007629395,Fri May 09 2025 09:12:46 GMT-0500 (Central Daylight Time),427851.1999999881,A,skin,O,n,132,1,4814.699999988079,423036.5,7139,WL,B,7.0
3,24.47499990463257,learn,35525.00009536743,Fri May 09 2025 09:12:46 GMT-0500 (Central Daylight Time),428418.5,A,skinenter,O,enter,553,1,5382.0,423036.5,7139,WL,B,7.0
3,32.687999963760376,learn,27312.000036239624,Fri May 09 2025 09:12:46 GMT-0500 (Central Daylight Time),436631.39999997616,A,p,O,p,8195,1,8212.699999988079,428418.6999999881,7139,WL,B,8.0
3,33.08800005912781,learn,26911.999940872192,Fri May 09 2025 09:12:46 GMT-0500 (Central Daylight Time),437031.0,A,pu,O,u,380,1,8612.300000011921,428418.6999999881,7139,WL,B,8.0
3,33.25600004196167,learn,26743.99995803833,Fri May 09 2025 09:12:46 GMT-0500 (Central Daylight Time),437199.2999999523,A,pup,O,p,148,1,8780.599999964237,428418.6999999881,7139,WL,B,8.0
3,33.67199993133545,learn,26328.00006866455,Fri May 09 2025 09:12:46 GMT-0500 (Central Daylight Time),437615.1999999881,A,pupi,O,i,405,1,9196.5,428418.6999999881,7139,WL,B,8.0
3,33.854000091552734,learn,26145.999908447266,Fri May 09 2025 09:12:46 GMT-0500 (Central Daylight Time),437798.0,A,pupil,O,l,172,1,9379.300000011921,428418.6999999881,7139,WL,B,8.0
3,34.3050000667572,learn,25694.999933242798,Fri May 09 2025 09:12:46 GMT-0500 (Central Daylight Time),438248.5,A,pupilenter,O,enter,431,1,9829.800000011921,428418.6999999881,7139,WL,B,8.0
3,35.00399994850159,learn,24996.000051498413,Fri May 09 2025 09:12:46 GMT-0500 (Central Daylight Time),438947.1999999881,A,p,O,p,693,1,698.5,438248.6999999881,7139,WL,B,9.0
3,35.40499997138977,learn,24595.00002861023,Fri May 09 2025 09:12:46 GMT-0500 (Central Daylight Time),439348.39999997616,A,pi,O,i,393,1,1099.699999988079,438248.6999999881,7139,WL,B,9.0
3,35.58899998664856,learn,24411.00001335144,Fri May 09 2025 09:12:46 GMT-0500 (Central Daylight Time),439532.2999999523,A,pip,O,p,166,1,1283.5999999642372,438248.6999999881,7139,WL,B,9.0
3,35.73900008201599,learn,24260.99991798401,Fri May 09 2025 09:12:46 GMT-0500 (Central Daylight Time),439682.2999999523,A,pipe,O,e,132,1,1433.5999999642372,438248.6999999881,7139,WL,B,9.0
3,36.15499997138977,learn,23845.00002861023,Fri May 09 2025 09:12:46 GMT-0500 (Central Daylight Time),440098.6999999881,A,pipeenter,O,enter,410,1,1850.0,438248.6999999881,7139,WL,B,9.0
3,37.28699994087219,learn,22713.000059127808,Fri May 09 2025 09:12:46 GMT-0500 (Central Daylight Time),441230.5,A,c,O,c,1122,1,1131.6000000238419,440098.89999997616,7139,WL,B,10.0
3,37.519999980926514,learn,22480.000019073486,Fri May 09 2025 09:12:46 GMT-0500 (Central Daylight Time),441463.0,A,ca,O,a,221,1,1364.1000000238419,440098.89999997616,7139,WL,B,10.0
3,37.770999908447266,learn,22229.000091552734,Fri May 09 2025 09:12:46 GMT-0500 (Central Daylight Time),441714.39999997616,A,cab,O,b,238,1,1615.5,440098.89999997616,7139,WL,B,10.0
3,37.9539999961853,learn,22046.000003814697,Fri May 09 2025 09:12:46 GMT-0500 (Central Daylight Time),441897.6999999881,A,cabi,O,i,177,1,1798.800000011921,440098.89999997616,7139,WL,B,10.0
3,38.03699994087219,learn,21963.000059127808,Fri May 09 2025 09:12:46 GMT-0500 (Central Daylight Time),441980.1999999881,A,cabin,O,n,66,1,1881.300000011921,440098.89999997616,7139,WL,B,10.0
3,38.80399990081787,learn,21196.00009918213,Fri May 09 2025 09:12:46 GMT-0500 (Central Daylight Time),442747.5,A,cabinenter,O,enter,744,1,2648.600000023842,440098.89999997616,7139,WL,B,10.0
3,39.651999950408936,learn,20348.000049591064,Fri May 09 2025 09:12:46 GMT-0500 (Central Daylight Time),443595.59999996424,A,l,O,l,834,1,847.8999999761581,442747.6999999881,7139,WL,B,11.0
3,39.753000020980835,learn,20246.999979019165,Fri May 09 2025 09:12:46 GMT-0500 (Central Daylight Time),443696.09999996424,A,la,O,a,79,1,948.3999999761581,442747.6999999881,7139,WL,B,11.0
3,39.86899995803833,learn,20131.00004196167,Fri May 09 2025 09:12:46 GMT-0500 (Central Daylight Time),443812.5,A,lak,O,k,94,1,1064.800000011921,442747.6999999881,7139,WL,B,11.0
3,39.98699998855591,learn,20013.00001144409,Fri May 09 2025 09:12:46 GMT-0500 (Central Daylight Time),443930.2999999523,A,lake,O,e,102,1,1182.5999999642372,442747.6999999881,7139,WL,B,11.0
3,40.38499999046326,learn,19615.000009536743,Fri May 09 2025 09:12:46 GMT-0500 (Central Daylight Time),444328.89999997616,A,lakeenter,O,enter,385,1,1581.199999988079,442747.6999999881,7139,WL,B,11.0
3,41.28600001335144,learn,18713.99998664856,Fri May 09 2025 09:12:46 GMT-0500 (Central Daylight Time),445229.39999997616,A,f,O,f,884,1,900.3000000119209,444329.09999996424,7139,WL,B,12.0
3,41.55200004577637,learn,18447.999954223633,Fri May 09 2025 09:12:46 GMT-0500 (Central Daylight Time),445495.5,A,fi,O,i,245,1,1166.4000000357628,444329.09999996424,7139,WL,B,12.0
3,41.68600010871887,learn,18313.999891281128,Fri May 09 2025 09:12:46 GMT-0500 (Central Daylight Time),445629.09999996424,A,fir,O,r,114,1,1300.0,444329.09999996424,7139,WL,B,12.0
3,41.75200009346008,learn,18247.999906539917,Fri May 09 2025 09:12:46 GMT-0500 (Central Daylight Time),445695.1999999881,A,fire,O,e,46,1,1366.1000000238419,444329.09999996424,7139,WL,B,12.0
3,42.23699998855591,learn,17763.00001144409,Fri May 09 2025 09:12:46 GMT-0500 (Central Daylight Time),446180.09999996424,A,fireenter,O,enter,479,1,1851.0,444329.09999996424,7139,WL,B,12.0
3,43.22000002861023,learn,16779.99997138977,Fri May 09 2025 09:12:46 GMT-0500 (Central Daylight Time),447162.89999997616,A,c,O,c,978,1,982.5,446180.39999997616,7139,WL,B,13.0
3,43.36800003051758,learn,16631.999969482422,Fri May 09 2025 09:12:46 GMT-0500 (Central Daylight Time),447311.59999996424,A,cl,O,l,129,1,1131.199999988079,446180.39999997616,7139,WL,B,13.0
3,43.51799988746643,learn,16482.00011253357,Fri May 09 2025 09:12:46 GMT-0500 (Central Daylight Time),447461.6999999881,A,clo,O,o,139,1,1281.300000011921,446180.39999997616,7139,WL,B,13.0
3,43.66799998283386,learn,16332.000017166138,Fri May 09 2025 09:12:46 GMT-0500 (Central Daylight Time),447611.39999997616,A,cloc,O,c,136,1,1431.0,446180.39999997616,7139,WL,B,13.0
3,43.78500008583069,learn,16214.999914169312,Fri May 09 2025 09:12:46 GMT-0500 (Central Daylight Time),447728.09999996424,A,clock,O,k,104,1,1547.699999988079,446180.39999997616,7139,WL,B,13.0
3,44.33500003814697,learn,15664.999961853027,Fri May 09 2025 09:12:46 GMT-0500 (Central Daylight Time),448278.59999996424,A,clockenter,O,enter,540,1,2098.199999988079,446180.39999997616,7139,WL,B,13.0
3,56.6800000667572,learn,3319.999933242798,Fri May 09 2025 09:12:46 GMT-0500 (Central Daylight Time),460623.6999999881,A,w,O,w,12334,1,12344.900000035763,448278.7999999523,7139,WL,B,14.0
3,56.86400008201599,learn,3135.999917984009,Fri May 09 2025 09:12:46 GMT-0500 (Central Daylight Time),460807.5,A,wi,O,i,173,1,12528.700000047684,448278.7999999523,7139,WL,B,14.0
3,56.996999979019165,learn,3003.000020980835,Fri May 09 2025 09:12:46 GMT-0500 (Central Daylight Time),460940.59999996424,A,wif,O,f,117,1,12661.800000011921,448278.7999999523,7139,WL,B,14.0
3,57.081000089645386,learn,2918.9999103546143,Fri May 09 2025 09:12:46 GMT-0500 (Central Daylight Time),461024.6999999881,A,wife,O,e,72,1,12745.900000035763,448278.7999999523,7139,WL,B,14.0
3,57.664000034332275,learn,2335.9999656677246,Fri May 09 2025 09:12:46 GMT-0500 (Central Daylight Time),461607.89999997616,A,wifeenter,O,enter,563,1,13329.100000023842,448278.7999999523,7139,WL,B,14.0
3,58.8970000743866,learn,1102.9999256134033,Fri May 09 2025 09:12:46 GMT-0500 (Central Daylight Time),462840.39999997616,A,w,O,w,1222,1,1232.300000011921,461608.09999996424,7139,WL,B,15.0
3,59.01300001144409,learn,986.9999885559082,Fri May 09 2025 09:12:46 GMT-0500 (Central Daylight Time),462956.7999999523,A,wi,O,i,99,1,1348.699999988079,461608.09999996424,7139,WL,B,15.0
3,59.181999921798706,learn,818.000078201294,Fri May 09 2025 09:12:46 GMT-0500 (Central Daylight Time),463125.0,A,win,O,n,151,1,1516.9000000357628,461608.09999996424,7139,WL,B,15.0
3,59.36400008201599,learn,635.9999179840088,Fri May 09 2025 09:12:46 GMT-0500 (Central Daylight Time),463307.7999999523,A,wind,O,d,166,1,1699.699999988079,461608.09999996424,7139,WL,B,15.0
3,59.54699993133545,learn,453.0000686645508,Fri May 09 2025 09:12:46 GMT-0500 (Central Daylight Time),463490.7999999523,A,windo,O,o,169,1,1882.699999988079,461608.09999996424,7139,WL,B,15.0
3,59.664000034332275,learn,335.9999656677246,Fri May 09 2025 09:12:46 GMT-0500 (Central Daylight Time),463607.5,A,window,O,w,97,1,1999.4000000357628,461608.09999996424,7139,WL,B,15.0
3,59.914000034332275,learn,85.99996566772461,Fri May 09 2025 09:12:46 GMT-0500 (Central Daylight Time),463857.7999999523,A,windowenter,O,enter,245,1,2249.699999988079,461608.09999996424,7139,WL,B,15.0
4,2.251000165939331,learn,57748.99983406067,Fri May 09 2025 09:12:46 GMT-0500 (Central Daylight Time),537816.5,A,s,O,s,2229,1,2250.0,535566.5,7139,WL,B,1.0
4,2.68500018119812,learn,57314.99981880188,Fri May 09 2025 09:12:46 GMT-0500 (Central Daylight Time),538251.3999999762,A,st,O,t,420,1,2684.899999976158,535566.5,7139,WL,B,1.0
4,2.868000030517578,learn,57131.99996948242,Fri May 09 2025 09:12:46 GMT-0500 (Central Daylight Time),538433.8999999762,A,str,O,r,177,1,2867.399999976158,535566.5,7139,WL,B,1.0
4,3.182000160217285,learn,56817.999839782715,Fri May 09 2025 09:12:46 GMT-0500 (Central Daylight Time),538748.2999999523,A,stre,O,e,306,1,3181.7999999523163,535566.5,7139,WL,B,1.0
4,3.2840001583099365,learn,56715.99984169006,Fri May 09 2025 09:12:46 GMT-0500 (Central Daylight Time),538850.3999999762,A,stree,O,e,96,1,3283.899999976158,535566.5,7139,WL,B,1.0
4,3.6670000553131104,learn,56332.99994468689,Fri May 09 2025 09:12:46 GMT-0500 (Central Daylight Time),539232.8999999762,A,street,O,t,369,1,3666.399999976158,535566.5,7139,WL,B,1.0
4,5.533000230789185,learn,54466.999769210815,Fri May 09 2025 09:12:46 GMT-0500 (Central Daylight Time),541098.7999999523,A,streetenter,O,enter,1851,1,5532.299999952316,535566.5,7139,WL,B,1.0
4,6.432000160217285,learn,53567.999839782715,Fri May 09 2025 09:12:46 GMT-0500 (Central Daylight Time),541998.5,A,g,O,g,882,1,899.4000000357628,541099.0999999642,7139,WL,B,2.0
4,6.616000175476074,learn,53383.999824523926,Fri May 09 2025 09:12:46 GMT-0500 (Central Daylight Time),542182.0999999642,A,gr,O,r,165,1,1083.0,541099.0999999642,7139,WL,B,2.0
4,6.716000080108643,learn,53283.99991989136,Fri May 09 2025 09:12:46 GMT-0500 (Central Daylight Time),542282.5,A,gra,O,a,78,1,1183.4000000357628,541099.0999999642,7139,WL,B,2.0
4,7.015000104904175,learn,52984.999895095825,Fri May 09 2025 09:12:46 GMT-0500 (Central Daylight Time),542581.5,A,gras,O,s,289,1,1482.4000000357628,541099.0999999642,7139,WL,B,2.0
4,7.151000022888184,learn,52848.99997711182,Fri May 09 2025 09:12:46 GMT-0500 (Central Daylight Time),542716.7999999523,A,grass,O,s,129,1,1617.699999988079,541099.0999999642,7139,WL,B,2.0
4,7.549000024795532,learn,52450.99997520447,Fri May 09 2025 09:12:46 GMT-0500 (Central Daylight Time),543115.5,A,grassenter,O,enter,382,1,2016.4000000357628,541099.0999999642,7139,WL,B,2.0
4,8.432000160217285,learn,51567.999839782715,Fri May 09 2025 09:12:46 GMT-0500 (Central Daylight Time),543998.0,A,d,O,d,864,1,882.2000000476837,543115.7999999523,7139,WL,B,3.0
4,8.98200011253357,learn,51017.99988746643,Fri May 09 2025 09:12:46 GMT-0500 (Central Daylight Time),544548.0999999642,A,do,O,o,533,1,1432.300000011921,543115.7999999523,7139,WL,B,3.0
4,9.115000009536743,learn,50884.99999046326,Fri May 09 2025 09:12:46 GMT-0500 (Central Daylight Time),544681.5999999642,A,doo,O,o,119,1,1565.800000011921,543115.7999999523,7139,WL,B,3.0
4,9.265000104904175,learn,50734.999895095825,Fri May 09 2025 09:12:46 GMT-0500 (Central Daylight Time),544831.0,A,door,O,r,128,1,1715.2000000476837,543115.7999999523,7139,WL,B,3.0
4,9.88100004196167,learn,50118.99995803833,Fri May 09 2025 09:12:46 GMT-0500 (Central Daylight Time),545447.1999999881,A,doorenter,O,enter,595,1,2331.400000035763,543115.7999999523,7139,WL,B,3.0
4,11.94700002670288,learn,48052.99997329712,Fri May 09 2025 09:12:46 GMT-0500 (Central Daylight Time),547513.3999999762,A,s,O,s,2054,1,2066.0,545447.3999999762,7139,WL,B,4.0
4,12.89900016784668,learn,47100.99983215332,Fri May 09 2025 09:12:46 GMT-0500 (Central Daylight Time),548464.8999999762,A,st,O,t,930,1,3017.5,545447.3999999762,7139,WL,B,4.0
4,13.013000011444092,learn,46986.99998855591,Fri May 09 2025 09:12:46 GMT-0500 (Central Daylight Time),548578.8999999762,A,sta,O,a,93,1,3131.5,545447.3999999762,7139,WL,B,4.0
4,13.11300015449524,learn,46886.99984550476,Fri May 09 2025 09:12:46 GMT-0500 (Central Daylight Time),548679.2999999523,A,star,O,r,87,1,3231.899999976158,545447.3999999762,7139,WL,B,4.0
4,13.63100004196167,learn,46368.99995803833,Fri May 09 2025 09:12:46 GMT-0500 (Central Daylight Time),549196.7999999523,A,starenter,O,enter,510,1,3749.399999976158,545447.3999999762,7139,WL,B,4.0
4,14.164000034332275,learn,45835.999965667725,Fri May 09 2025 09:12:46 GMT-0500 (Central Daylight Time),549730.2999999523,A,a,O,a,520,1,533.1999999880791,549197.0999999642,7139,WL,B,5.0
4,14.380000114440918,learn,45619.99988555908,Fri May 09 2025 09:12:46 GMT-0500 (Central Daylight Time),549946.0,A,ar,O,r,194,1,748.9000000357628,549197.0999999642,7139,WL,B,5.0
4,14.546000003814697,learn,45453.9999961853,Fri May 09 2025 09:12:46 GMT-0500 (Central Daylight Time),550112.3999999762,A,arm,O,m,154,1,915.3000000119209,549197.0999999642,7139,WL,B,5.0
4,15.129000186920166,learn,44870.999813079834,Fri May 09 2025 09:12:46 GMT-0500 (Central Daylight Time),550694.5999999642,A,armenter,O,enter,564,1,1497.5,549197.0999999642,7139,WL,B,5.0
4,17.230000019073486,learn,42769.999980926514,Fri May 09 2025 09:12:46 GMT-0500 (Central Daylight Time),552796.3999999762,A,w,O,w,2096,1,2101.399999976158,550695.0,7139,WL,B,6.0
4,17.450000047683716,learn,42549.999952316284,Fri May 09 2025 09:12:46 GMT-0500 (Central Daylight Time),553015.7999999523,A,wi,O,i,206,1,2320.7999999523163,550695.0,7139,WL,B,6.0
4,17.598000049591064,learn,42401.999950408936,Fri May 09 2025 09:12:46 GMT-0500 (Central Daylight Time),553164.0999999642,A,wif,O,f,133,1,2469.099999964237,550695.0,7139,WL,B,6.0
4,17.694000005722046,learn,42305.999994277954,Fri May 09 2025 09:12:46 GMT-0500 (Central Daylight Time),553260.0,A,wife,O,e,82,1,2565.0,550695.0,7139,WL,B,6.0
4,18.01200008392334,learn,41987.99991607666,Fri May 09 2025 09:12:46 GMT-0500 (Central Daylight Time),553578.5999999642,A,wifeenter,O,enter,303,1,2883.599999964237,550695.0,7139,WL,B,6.0
4,18.42900013923645,learn,41570.99986076355,Fri May 09 2025 09:12:46 GMT-0500 (Central Daylight Time),553995.5999999642,A,w,O,w,403,1,416.80000001192093,553578.7999999523,7139,WL,B,7.0
4,18.61300015449524,learn,41386.99984550476,Fri May 09 2025 09:12:46 GMT-0500 (Central Daylight Time),554178.6999999881,A,wi,O,i,165,1,599.9000000357628,553578.7999999523,7139,WL,B,7.0
4,18.812000036239624,learn,41187.999963760376,Fri May 09 2025 09:12:46 GMT-0500 (Central Daylight Time),554378.5,A,win,O,n,192,1,799.7000000476837,553578.7999999523,7139,WL,B,7.0
4,19.02900004386902,learn,40970.99995613098,Fri May 09 2025 09:12:46 GMT-0500 (Central Daylight Time),554595.0,A,wind,O,d,201,1,1016.2000000476837,553578.7999999523,7139,WL,B,7.0
4,19.1780002117157,learn,40821.9997882843,Fri May 09 2025 09:12:46 GMT-0500 (Central Daylight Time),554743.8999999762,A,windo,O,o,130,1,1165.1000000238419,553578.7999999523,7139,WL,B,7.0
4,19.246000051498413,learn,40753.99994850159,Fri May 09 2025 09:12:46 GMT-0500 (Central Daylight Time),554812.0999999642,A,window,O,w,62,1,1233.300000011921,553578.7999999523,7139,WL,B,7.0
4,19.796000003814697,learn,40203.9999961853,Fri May 09 2025 09:12:46 GMT-0500 (Central Daylight Time),555361.5999999642,A,windowenter,O,enter,543,1,1782.800000011921,553578.7999999523,7139,WL,B,7.0
4,20.74500012397766,learn,39254.99987602234,Fri May 09 2025 09:12:46 GMT-0500 (Central Daylight Time),556311.0999999642,A,c,O,c,930,1,949.1999999880791,555361.8999999762,7139,WL,B,8.0
4,20.830000162124634,learn,39169.999837875366,Fri May 09 2025 09:12:46 GMT-0500 (Central Daylight Time),556396.2999999523,A,ci,O,i,79,1,1034.3999999761581,555361.8999999762,7139,WL,B,8.0
4,20.97699999809265,learn,39023.00000190735,Fri May 09 2025 09:12:46 GMT-0500 (Central Daylight Time),556543.0,A,cit,O,t,127,1,1181.1000000238419,555361.8999999762,7139,WL,B,8.0
4,21.0770001411438,learn,38922.9998588562,Fri May 09 2025 09:12:46 GMT-0500 (Central Daylight Time),556643.5,A,city,O,y,77,1,1281.6000000238419,555361.8999999762,7139,WL,B,8.0
4,21.47699999809265,learn,38523.00000190735,Fri May 09 2025 09:12:46 GMT-0500 (Central Daylight Time),557043.5,A,cityenter,O,enter,392,1,1681.6000000238419,555361.8999999762,7139,WL,B,8.0
4,22.41200017929077,learn,37587.99982070923,Fri May 09 2025 09:12:46 GMT-0500 (Central Daylight Time),557978.1999999881,A,c,O,c,930,1,934.4000000357628,557043.7999999523,7139,WL,B,9.0
4,22.5770001411438,learn,37422.9998588562,Fri May 09 2025 09:12:46 GMT-0500 (Central Daylight Time),558142.7999999523,A,ca,O,a,154,1,1099.0,557043.7999999523,7139,WL,B,9.0
4,22.82800006866455,learn,37171.99993133545,Fri May 09 2025 09:12:46 GMT-0500 (Central Daylight Time),558393.5999999642,A,cab,O,b,237,1,1349.800000011921,557043.7999999523,7139,WL,B,9.0
4,22.91000008583069,learn,37089.99991416931,Fri May 09 2025 09:12:46 GMT-0500 (Central Daylight Time),558475.7999999523,A,cabi,O,i,65,1,1432.0,557043.7999999523,7139,WL,B,9.0
4,22.993000030517578,learn,37006.99996948242,Fri May 09 2025 09:12:46 GMT-0500 (Central Daylight Time),558558.6999999881,A,cabin,O,n,72,1,1514.9000000357628,557043.7999999523,7139,WL,B,9.0
4,23.443000078201294,learn,36556.999921798706,Fri May 09 2025 09:12:46 GMT-0500 (Central Daylight Time),559008.7999999523,A,cabinenter,O,enter,427,1,1965.0,557043.7999999523,7139,WL,B,9.0
4,24.544000148773193,learn,35455.99985122681,Fri May 09 2025 09:12:46 GMT-0500 (Central Daylight Time),560109.8999999762,A,l,O,l,1085,1,1100.800000011921,559009.0999999642,7139,WL,B,10.0
4,24.64400005340576,learn,35355.99994659424,Fri May 09 2025 09:12:46 GMT-0500 (Central Daylight Time),560209.5,A,la,O,a,87,1,1200.4000000357628,559009.0999999642,7139,WL,B,10.0
4,24.759000062942505,learn,35240.999937057495,Fri May 09 2025 09:12:46 GMT-0500 (Central Daylight Time),560325.5,A,lak,O,k,99,1,1316.4000000357628,559009.0999999642,7139,WL,B,10.0
4,24.860000133514404,learn,35139.999866485596,Fri May 09 2025 09:12:46 GMT-0500 (Central Daylight Time),560426.3999999762,A,lake,O,e,84,1,1417.300000011921,559009.0999999642,7139,WL,B,10.0
4,25.41000008583069,learn,34589.99991416931,Fri May 09 2025 09:12:46 GMT-0500 (Central Daylight Time),560975.8999999762,A,lakeenter,O,enter,528,1,1966.800000011921,559009.0999999642,7139,WL,B,10.0
4,26.79200005531311,learn,33207.99994468689,Fri May 09 2025 09:12:46 GMT-0500 (Central Daylight Time),562358.0,A,f,O,f,1372,1,1381.9000000357628,560976.0999999642,7139,WL,B,11.0
4,26.99400019645691,learn,33005.99980354309,Fri May 09 2025 09:12:46 GMT-0500 (Central Daylight Time),562559.6999999881,A,fi,O,i,182,1,1583.6000000238419,560976.0999999642,7139,WL,B,11.0
4,27.142000198364258,learn,32857.99980163574,Fri May 09 2025 09:12:46 GMT-0500 (Central Daylight Time),562707.5999999642,A,fir,O,r,141,1,1731.5,560976.0999999642,7139,WL,B,11.0
4,27.260000228881836,learn,32739.999771118164,Fri May 09 2025 09:12:46 GMT-0500 (Central Daylight Time),562825.7999999523,A,fire,O,e,104,1,1849.699999988079,560976.0999999642,7139,WL,B,11.0
4,27.725000143051147,learn,32274.999856948853,Fri May 09 2025 09:12:46 GMT-0500 (Central Daylight Time),563290.8999999762,A,fireenter,O,enter,459,1,2314.800000011921,560976.0999999642,7139,WL,B,11.0
4,28.492000102996826,learn,31507.999897003174,Fri May 09 2025 09:12:46 GMT-0500 (Central Daylight Time),564057.6999999881,A,c,O,c,754,1,766.6999999880791,563291.0,7139,WL,B,12.0
4,28.659000158309937,learn,31340.999841690063,Fri May 09 2025 09:12:46 GMT-0500 (Central Daylight Time),564224.8999999762,A,cl,O,l,154,1,933.8999999761581,563291.0,7139,WL,B,12.0
4,28.859000205993652,learn,31140.999794006348,Fri May 09 2025 09:12:46 GMT-0500 (Central Daylight Time),564424.5999999642,A,clo,O,o,187,1,1133.5999999642372,563291.0,7139,WL,B,12.0
4,29.026000022888184,learn,30973.999977111816,Fri May 09 2025 09:12:46 GMT-0500 (Central Daylight Time),564591.5999999642,A,cloc,O,c,146,1,1300.5999999642372,563291.0,7139,WL,B,12.0
4,29.175000190734863,learn,30824.999809265137,Fri May 09 2025 09:12:46 GMT-0500 (Central Daylight Time),564741.2999999523,A,clock,O,k,141,1,1450.2999999523163,563291.0,7139,WL,B,12.0
4,30.04200005531311,learn,29957.99994468689,Fri May 09 2025 09:12:46 GMT-0500 (Central Daylight Time),565608.0,A,clockenter,O,enter,846,1,2317.0,563291.0,7139,WL,B,12.0
4,32.00600004196167,learn,27993.99995803833,Fri May 09 2025 09:12:46 GMT-0500 (Central Daylight Time),567572.5,A,s,O,s,1949,1,1964.300000011921,565608.1999999881,7139,WL,B,13.0
4,32.14100003242493,learn,27858.999967575073,Fri May 09 2025 09:12:46 GMT-0500 (Central Daylight Time),567707.2999999523,A,sk,O,k,118,1,2099.099999964237,565608.1999999881,7139,WL,B,13.0
4,32.34000015258789,learn,27659.99984741211,Fri May 09 2025 09:12:46 GMT-0500 (Central Daylight Time),567906.5,A,ski,O,i,185,1,2298.300000011921,565608.1999999881,7139,WL,B,13.0
4,32.52500009536743,learn,27474.99990463257,Fri May 09 2025 09:12:46 GMT-0500 (Central Daylight Time),568091.0999999642,A,skin,O,n,170,1,2482.899999976158,565608.1999999881,7139,WL,B,13.0
4,33.257000207901,learn,26742.999792099,Fri May 09 2025 09:12:46 GMT-0500 (Central Daylight Time),568822.8999999762,A,skinenter,O,enter,720,1,3214.699999988079,565608.1999999881,7139,WL,B,13.0
4,55.30200004577637,learn,4697.999954223633,Fri May 09 2025 09:12:46 GMT-0500 (Central Daylight Time),590869.1999999881,A,p,O,p,22025,1,22046.0,568823.1999999881,7139,WL,B,14.0
4,56.08300018310547,learn,3916.9998168945312,Fri May 09 2025 09:12:46 GMT-0500 (Central Daylight Time),591650.1999999881,A,pu,O,u,766,1,22827.0,568823.1999999881,7139,WL,B,14.0
4,56.33200001716614,learn,3667.9999828338623,Fri May 09 2025 09:12:46 GMT-0500 (Central Daylight Time),591899.5999999642,A,pup,O,p,231,1,23076.399999976158,568823.1999999881,7139,WL,B,14.0
4,56.78200006484985,learn,3217.9999351501465,Fri May 09 2025 09:12:46 GMT-0500 (Central Daylight Time),592349.3999999762,A,pupi,O,i,434,1,23526.19999998808,568823.1999999881,7139,WL,B,14.0
4,56.91600012779236,learn,3083.9998722076416,Fri May 09 2025 09:12:46 GMT-0500 (Central Daylight Time),592483.6999999881,A,pupil,O,l,120,1,23660.5,568823.1999999881,7139,WL,B,14.0
4,57.682000160217285,learn,2317.999839782715,Fri May 09 2025 09:12:46 GMT-0500 (Central Daylight Time),593249.1999999881,A,pupilenter,O,enter,742,1,24426.0,568823.1999999881,7139,WL,B,14.0
4,60.01300001144409,learn,-13.000011444091797,Fri May 09 2025 09:12:46 GMT-0500 (Central Daylight Time),595580.6999999881,A,None,O,None,2326,1,2331.300000011921,593249.3999999762,7139,WL,B,15.0
5,1.684000015258789,learn,60000.0,Fri May 09 2025 09:12:46 GMT-0500 (Central Daylight Time),669259.0,A,s,O,s,1680,1,1684.0,667575.0,7139,WL,B,1.0
5,2.065999984741211,learn,60000.0,Fri May 09 2025 09:12:46 GMT-0500 (Central Daylight Time),669641.0999999642,A,st,O,t,369,1,2066.099999964237,667575.0,7139,WL,B,1.0
5,2.249000072479248,learn,60000.0,Fri May 09 2025 09:12:46 GMT-0500 (Central Daylight Time),669824.1999999881,A,str,O,r,163,1,2249.199999988079,667575.0,7139,WL,B,1.0
5,2.565000057220459,learn,60000.0,Fri May 09 2025 09:12:46 GMT-0500 (Central Daylight Time),670140.0,A,stre,O,e,299,1,2565.0,667575.0,7139,WL,B,1.0
5,2.6670000553131104,learn,60000.0,Fri May 09 2025 09:12:46 GMT-0500 (Central Daylight Time),670241.6999999881,A,stree,O,e,82,1,2666.699999988079,667575.0,7139,WL,B,1.0
5,3.1019999980926514,learn,60000.0,Fri May 09 2025 09:12:46 GMT-0500 (Central Daylight Time),670676.8999999762,A,street,O,t,416,1,3101.899999976158,667575.0,7139,WL,B,1.0
5,3.9639999866485596,learn,60000.0,Fri May 09 2025 09:12:46 GMT-0500 (Central Daylight Time),671538.7999999523,A,streetenter,O,enter,842,1,3963.7999999523163,667575.0,7139,WL,B,1.0
5,4.830000162124634,learn,60000.0,Fri May 09 2025 09:12:46 GMT-0500 (Central Daylight Time),672405.0999999642,A,g,O,g,851,1,866.1999999880791,671538.8999999762,7139,WL,B,2.0
5,5.013000011444092,learn,60000.0,Fri May 09 2025 09:12:46 GMT-0500 (Central Daylight Time),672588.0,A,gr,O,r,169,1,1049.1000000238419,671538.8999999762,7139,WL,B,2.0
5,5.163000106811523,learn,60000.0,Fri May 09 2025 09:12:46 GMT-0500 (Central Daylight Time),672738.1999999881,A,gra,O,a,131,1,1199.300000011921,671538.8999999762,7139,WL,B,2.0
5,5.5,learn,60000.0,Fri May 09 2025 09:12:46 GMT-0500 (Central Daylight Time),673074.3999999762,A,gras,O,s,316,1,1535.5,671538.8999999762,7139,WL,B,2.0
5,5.648000001907349,learn,60000.0,Fri May 09 2025 09:12:46 GMT-0500 (Central Daylight Time),673223.0,A,grass,O,s,128,1,1684.1000000238419,671538.8999999762,7139,WL,B,2.0
5,5.881999969482422,learn,60000.0,Fri May 09 2025 09:12:46 GMT-0500 (Central Daylight Time),673456.1999999881,A,grassenter,O,enter,221,1,1917.300000011921,671538.8999999762,7139,WL,B,2.0
5,6.54800009727478,learn,60000.0,Fri May 09 2025 09:12:46 GMT-0500 (Central Daylight Time),674122.6999999881,A,d,O,d,653,1,666.3000000119209,673456.3999999762,7139,WL,B,3.0
5,7.166000127792358,learn,60000.0,Fri May 09 2025 09:12:46 GMT-0500 (Central Daylight Time),674740.6999999881,A,do,O,o,612,1,1284.300000011921,673456.3999999762,7139,WL,B,3.0
5,7.315000057220459,learn,60000.0,Fri May 09 2025 09:12:46 GMT-0500 (Central Daylight Time),674889.5999999642,A,doo,O,o,134,1,1433.199999988079,673456.3999999762,7139,WL,B,3.0
5,7.515000104904175,learn,60000.0,Fri May 09 2025 09:12:46 GMT-0500 (Central Daylight Time),675089.5,A,door,O,r,187,1,1633.1000000238419,673456.3999999762,7139,WL,B,3.0
5,8.031000137329102,learn,60000.0,Fri May 09 2025 09:12:46 GMT-0500 (Central Daylight Time),675605.8999999762,A,doorenter,O,enter,498,1,2149.5,673456.3999999762,7139,WL,B,3.0
5,9.014000177383423,learn,60000.0,Fri May 09 2025 09:12:46 GMT-0500 (Central Daylight Time),676588.2999999523,A,a,O,a,975,1,982.0999999642372,675606.1999999881,7139,WL,B,4.0
5,9.248000144958496,learn,60000.0,Fri May 09 2025 09:12:46 GMT-0500 (Central Daylight Time),676823.0,A,ar,O,r,214,1,1216.800000011921,675606.1999999881,7139,WL,B,4.0
5,9.380000114440918,learn,60000.0,Fri May 09 2025 09:12:46 GMT-0500 (Central Daylight Time),676955.0,A,arm,O,m,117,1,1348.800000011921,675606.1999999881,7139,WL,B,4.0
5,9.812999963760376,learn,60000.0,Fri May 09 2025 09:12:46 GMT-0500 (Central Daylight Time),677387.5999999642,A,armenter,O,enter,425,1,1781.3999999761581,675606.1999999881,7139,WL,B,4.0
5,10.430000066757202,learn,60000.0,Fri May 09 2025 09:12:46 GMT-0500 (Central Daylight Time),678004.8999999762,A,s,O,s,597,1,617.0,677387.8999999762,7139,WL,B,5.0
5,10.830000162124634,learn,60000.0,Fri May 09 2025 09:12:46 GMT-0500 (Central Daylight Time),678404.8999999762,A,st,O,t,380,1,1017.0,677387.8999999762,7139,WL,B,5.0
5,10.96500015258789,learn,60000.0,Fri May 09 2025 09:12:46 GMT-0500 (Central Daylight Time),678539.5999999642,A,sta,O,a,127,1,1151.699999988079,677387.8999999762,7139,WL,B,5.0
5,11.062999963760376,learn,60000.0,Fri May 09 2025 09:12:46 GMT-0500 (Central Daylight Time),678637.5999999642,A,star,O,r,87,1,1249.699999988079,677387.8999999762,7139,WL,B,5.0
5,12.014000177383423,learn,60000.0,Fri May 09 2025 09:12:46 GMT-0500 (Central Daylight Time),679588.2999999523,A,starenter,O,enter,936,1,2200.399999976158,677387.8999999762,7139,WL,B,5.0
5,13.61300015449524,learn,60000.0,Fri May 09 2025 09:12:46 GMT-0500 (Central Daylight Time),681187.7999999523,A,w,O,w,1584,1,1599.0999999642372,679588.6999999881,7139,WL,B,6.0
5,13.746999979019165,learn,60000.0,Fri May 09 2025 09:12:46 GMT-0500 (Central Daylight Time),681322.0999999642,A,wi,O,i,111,1,1733.3999999761581,679588.6999999881,7139,WL,B,6.0
5,13.980000019073486,learn,60000.0,Fri May 09 2025 09:12:46 GMT-0500 (Central Daylight Time),681554.3999999762,A,wif,O,f,218,1,1965.699999988079,679588.6999999881,7139,WL,B,6.0
5,14.130000114440918,learn,60000.0,Fri May 09 2025 09:12:46 GMT-0500 (Central Daylight Time),681704.7999999523,A,wife,O,e,129,1,2116.099999964237,679588.6999999881,7139,WL,B,6.0
5,14.463000059127808,learn,60000.0,Fri May 09 2025 09:12:46 GMT-0500 (Central Daylight Time),682037.5,A,wifeenter,O,enter,314,1,2448.800000011921,679588.6999999881,7139,WL,B,6.0
5,14.946000099182129,learn,60000.0,Fri May 09 2025 09:12:46 GMT-0500 (Central Daylight Time),682520.7999999523,A,w,O,w,464,1,483.19999998807907,682037.5999999642,7139,WL,B,7.0
5,15.129000186920166,learn,60000.0,Fri May 09 2025 09:12:46 GMT-0500 (Central Daylight Time),682704.2999999523,A,wi,O,i,162,1,666.6999999880791,682037.5999999642,7139,WL,B,7.0
5,15.295000076293945,learn,60000.0,Fri May 09 2025 09:12:46 GMT-0500 (Central Daylight Time),682870.1999999881,A,win,O,n,147,1,832.6000000238419,682037.5999999642,7139,WL,B,7.0
5,15.545000076293945,learn,60000.0,Fri May 09 2025 09:12:46 GMT-0500 (Central Daylight Time),683120.0999999642,A,wind,O,d,237,1,1082.5,682037.5999999642,7139,WL,B,7.0
5,15.710999965667725,learn,60000.0,Fri May 09 2025 09:12:46 GMT-0500 (Central Daylight Time),683285.8999999762,A,windo,O,o,155,1,1248.300000011921,682037.5999999642,7139,WL,B,7.0
5,15.794000148773193,learn,60000.0,Fri May 09 2025 09:12:46 GMT-0500 (Central Daylight Time),683369.0999999642,A,window,O,w,59,1,1331.5,682037.5999999642,7139,WL,B,7.0
5,16.47699999809265,learn,60000.0,Fri May 09 2025 09:12:46 GMT-0500 (Central Daylight Time),684051.7999999523,A,windowenter,O,enter,673,1,2014.199999988079,682037.5999999642,7139,WL,B,7.0
5,19.628000020980835,learn,60000.0,Fri May 09 2025 09:12:46 GMT-0500 (Central Daylight Time),687202.5999999642,A,c,O,c,3137,1,3150.599999964237,684052.0,7139,WL,B,8.0
5,19.861000061035156,learn,60000.0,Fri May 09 2025 09:12:46 GMT-0500 (Central Daylight Time),687435.8999999762,A,ca,O,a,225,1,3383.899999976158,684052.0,7139,WL,B,8.0
5,20.16100001335144,learn,60000.0,Fri May 09 2025 09:12:46 GMT-0500 (Central Daylight Time),687735.5,A,cab,O,b,287,1,3683.5,684052.0,7139,WL,B,8.0
5,20.3270001411438,learn,60000.0,Fri May 09 2025 09:12:46 GMT-0500 (Central Daylight Time),687902.0,A,cabi,O,i,147,1,3850.0,684052.0,7139,WL,B,8.0
5,20.42799997329712,learn,60000.0,Fri May 09 2025 09:12:46 GMT-0500 (Central Daylight Time),688002.6999999881,A,cabin,O,n,94,1,3950.699999988079,684052.0,7139,WL,B,8.0
5,21.011000156402588,learn,60000.0,Fri May 09 2025 09:12:46 GMT-0500 (Central Daylight Time),688585.3999999762,A,cabinenter,O,enter,569,1,4533.399999976158,684052.0,7139,WL,B,8.0
5,21.927000045776367,learn,60000.0,Fri May 09 2025 09:12:46 GMT-0500 (Central Daylight Time),689501.5999999642,A,l,O,l,910,1,915.8999999761581,688585.6999999881,7139,WL,B,9.0
5,22.044000148773193,learn,60000.0,Fri May 09 2025 09:12:46 GMT-0500 (Central Daylight Time),689618.2999999523,A,la,O,a,102,1,1032.5999999642372,688585.6999999881,7139,WL,B,9.0
5,22.176000118255615,learn,60000.0,Fri May 09 2025 09:12:46 GMT-0500 (Central Daylight Time),689750.6999999881,A,lak,O,k,121,1,1165.0,688585.6999999881,7139,WL,B,9.0
5,22.3270001411438,learn,60000.0,Fri May 09 2025 09:12:46 GMT-0500 (Central Daylight Time),689902.2999999523,A,lake,O,e,133,1,1316.5999999642372,688585.6999999881,7139,WL,B,9.0
5,23.044000148773193,learn,60000.0,Fri May 09 2025 09:12:46 GMT-0500 (Central Daylight Time),690618.6999999881,A,lakeenter,O,enter,710,1,2033.0,688585.6999999881,7139,WL,B,9.0
5,24.31000018119812,learn,60000.0,Fri May 09 2025 09:12:46 GMT-0500 (Central Daylight Time),691884.7999999523,A,s,O,s,1250,1,1265.8999999761581,690618.8999999762,7139,WL,B,10.0
5,24.526000022888184,learn,60000.0,Fri May 09 2025 09:12:46 GMT-0500 (Central Daylight Time),692100.7999999523,A,sk,O,k,194,1,1481.8999999761581,690618.8999999762,7139,WL,B,10.0
5,24.693000078201294,learn,60000.0,Fri May 09 2025 09:12:46 GMT-0500 (Central Daylight Time),692267.5,A,ski,O,i,158,1,1648.6000000238419,690618.8999999762,7139,WL,B,10.0
5,24.824000120162964,learn,60000.0,Fri May 09 2025 09:12:46 GMT-0500 (Central Daylight Time),692399.1999999881,A,skin,O,n,118,1,1780.300000011921,690618.8999999762,7139,WL,B,10.0
5,25.45800018310547,learn,60000.0,Fri May 09 2025 09:12:46 GMT-0500 (Central Daylight Time),693032.5999999642,A,skinenter,O,enter,614,1,2413.699999988079,690618.8999999762,7139,WL,B,10.0
5,29.657999992370605,learn,60000.0,Fri May 09 2025 09:12:46 GMT-0500 (Central Daylight Time),697232.5,A,p,O,p,4181,1,4199.700000047684,693032.7999999523,7139,WL,B,11.0
5,29.89199995994568,learn,60000.0,Fri May 09 2025 09:12:46 GMT-0500 (Central Daylight Time),697466.5999999642,A,pu,O,u,226,1,4433.800000011921,693032.7999999523,7139,WL,B,11.0
5,30.14199995994568,learn,60000.0,Fri May 09 2025 09:12:46 GMT-0500 (Central Daylight Time),697717.0999999642,A,pup,O,p,244,1,4684.300000011921,693032.7999999523,7139,WL,B,11.0
5,30.59000015258789,learn,60000.0,Fri May 09 2025 09:12:46 GMT-0500 (Central Daylight Time),698165.0999999642,A,pupi,O,i,438,1,5132.300000011921,693032.7999999523,7139,WL,B,11.0
5,30.741000175476074,learn,60000.0,Fri May 09 2025 09:12:46 GMT-0500 (Central Daylight Time),698315.8999999762,A,pupil,O,l,144,1,5283.100000023842,693032.7999999523,7139,WL,B,11.0
5,31.073000192642212,learn,60000.0,Fri May 09 2025 09:12:46 GMT-0500 (Central Daylight Time),698647.5999999642,A,pupilenter,O,enter,309,1,5614.800000011921,693032.7999999523,7139,WL,B,11.0
5,31.558000087738037,learn,60000.0,Fri May 09 2025 09:12:46 GMT-0500 (Central Daylight Time),699132.1999999881,A,p,O,p,469,1,484.4000000357628,698647.7999999523,7139,WL,B,12.0
5,31.707000017166138,learn,60000.0,Fri May 09 2025 09:12:46 GMT-0500 (Central Daylight Time),699282.0999999642,A,pi,O,i,144,1,634.3000000119209,698647.7999999523,7139,WL,B,12.0
5,32.4060001373291,learn,60000.0,Fri May 09 2025 09:12:46 GMT-0500 (Central Daylight Time),699981.1999999881,A,pip,O,p,694,1,1333.4000000357628,698647.7999999523,7139,WL,B,12.0
5,32.82300019264221,learn,60000.0,Fri May 09 2025 09:12:46 GMT-0500 (Central Daylight Time),700398.0999999642,A,pipe,O,e,408,1,1750.300000011921,698647.7999999523,7139,WL,B,12.0
5,33.09000015258789,learn,60000.0,Fri May 09 2025 09:12:46 GMT-0500 (Central Daylight Time),700664.8999999762,A,pipeenter,O,enter,254,1,2017.1000000238419,698647.7999999523,7139,WL,B,12.0
5,33.59000015258789,learn,60000.0,Fri May 09 2025 09:12:46 GMT-0500 (Central Daylight Time),701164.6999999881,A,f,O,f,484,1,499.4000000357628,700665.2999999523,7139,WL,B,13.0
5,33.807000160217285,learn,60000.0,Fri May 09 2025 09:12:46 GMT-0500 (Central Daylight Time),701381.7999999523,A,fi,O,i,208,1,716.5,700665.2999999523,7139,WL,B,13.0
5,34.02300000190735,learn,60000.0,Fri May 09 2025 09:12:46 GMT-0500 (Central Daylight Time),701597.6999999881,A,fir,O,r,196,1,932.4000000357628,700665.2999999523,7139,WL,B,13.0
5,34.10600018501282,learn,60000.0,Fri May 09 2025 09:12:46 GMT-0500 (Central Daylight Time),701680.5,A,fire,O,e,61,1,1015.2000000476837,700665.2999999523,7139,WL,B,13.0
5,35.7039999961853,learn,60000.0,Fri May 09 2025 09:12:46 GMT-0500 (Central Daylight Time),703278.3999999762,A,fireenter,O,enter,1576,1,2613.100000023842,700665.2999999523,7139,WL,B,13.0
5,36.789000034332275,learn,60000.0,Fri May 09 2025 09:12:46 GMT-0500 (Central Daylight Time),704363.6999999881,A,c,O,c,1070,1,1085.1000000238419,703278.5999999642,7139,WL,B,14.0
5,37.07300019264221,learn,60000.0,Fri May 09 2025 09:12:46 GMT-0500 (Central Daylight Time),704647.2999999523,A,cl,O,l,263,1,1368.699999988079,703278.5999999642,7139,WL,B,14.0
5,37.223000049591064,learn,60000.0,Fri May 09 2025 09:12:46 GMT-0500 (Central Daylight Time),704797.8999999762,A,clo,O,o,131,1,1519.300000011921,703278.5999999642,7139,WL,B,14.0
5,37.53999996185303,learn,60000.0,Fri May 09 2025 09:12:46 GMT-0500 (Central Daylight Time),705114.6999999881,A,cloc,O,c,310,1,1836.1000000238419,703278.5999999642,7139,WL,B,14.0
5,37.67200016975403,learn,60000.0,Fri May 09 2025 09:12:46 GMT-0500 (Central Daylight Time),705246.5999999642,A,clock,O,k,120,1,1968.0,703278.5999999642,7139,WL,B,14.0
5,38.07200002670288,learn,60000.0,Fri May 09 2025 09:12:46 GMT-0500 (Central Daylight Time),705646.2999999523,A,clockenter,O,enter,389,1,2367.699999988079,703278.5999999642,7139,WL,B,14.0
5,98.08500003814697,learn,60000.0,Fri May 09 2025 09:12:46 GMT-0500 (Central Daylight Time),765660.8999999762,A,None,O,None,60010,1,60014.39999997616,705646.5,7139,WL,B,15.0
6,1.9169998168945312,distr,58083.00018310547,Fri May 09 2025 09:12:46 GMT-0500 (Central Daylight Time),843737.2999999523,B,c,O,c,1893,1,1917.3999999761581,841819.8999999762,7139,WL,B,1.0
6,2.248999834060669,distr,57751.00016593933,Fri May 09 2025 09:12:46 GMT-0500 (Central Daylight Time),844069.0999999642,B,ce,O,e,315,1,2249.199999988079,841819.8999999762,7139,WL,B,1.0
6,2.75,distr,57250.0,Fri May 09 2025 09:12:46 GMT-0500 (Central Daylight Time),844569.6999999881,B,cel,O,l,475,1,2749.800000011921,841819.8999999762,7139,WL,B,1.0
6,2.865999937057495,distr,57134.000062942505,Fri May 09 2025 09:12:46 GMT-0500 (Central Daylight Time),844686.0,B,cell,O,l,101,1,2866.100000023842,841819.8999999762,7139,WL,B,1.0
6,3.4649999141693115,distr,56535.00008583069,Fri May 09 2025 09:12:46 GMT-0500 (Central Daylight Time),845284.5999999642,B,cellenter,O,enter,581,1,3464.699999988079,841819.8999999762,7139,WL,B,1.0
6,4.332000017166138,distr,55667.99998283386,Fri May 09 2025 09:12:46 GMT-0500 (Central Daylight Time),846151.5,B,v,O,v,848,1,866.5,845285.0,7139,WL,B,2.0
6,4.665999889373779,distr,55334.00011062622,Fri May 09 2025 09:12:46 GMT-0500 (Central Daylight Time),846486.1999999881,B,vi,O,i,310,1,1201.199999988079,845285.0,7139,WL,B,2.0
6,4.934000015258789,distr,55065.99998474121,Fri May 09 2025 09:12:46 GMT-0500 (Central Daylight Time),846753.6999999881,B,vil,O,l,254,1,1468.699999988079,845285.0,7139,WL,B,2.0
6,5.047999858856201,distr,54952.0001411438,Fri May 09 2025 09:12:46 GMT-0500 (Central Daylight Time),846867.7999999523,B,vill,O,l,101,1,1582.7999999523163,845285.0,7139,WL,B,2.0
6,5.197999954223633,distr,54802.00004577637,Fri May 09 2025 09:12:46 GMT-0500 (Central Daylight Time),847017.8999999762,B,villa,O,a,121,1,1732.8999999761581,845285.0,7139,WL,B,2.0
6,5.366999864578247,distr,54633.00013542175,Fri May 09 2025 09:12:46 GMT-0500 (Central Daylight Time),847186.6999999881,B,villag,O,g,145,1,1901.699999988079,845285.0,7139,WL,B,2.0
6,5.429999828338623,distr,54570.00017166138,Fri May 09 2025 09:12:46 GMT-0500 (Central Daylight Time),847249.6999999881,B,village,O,e,51,1,1964.699999988079,845285.0,7139,WL,B,2.0
6,5.797999858856201,distr,54202.0001411438,Fri May 09 2025 09:12:46 GMT-0500 (Central Daylight Time),847617.8999999762,B,villageenter,O,enter,362,1,2332.899999976158,845285.0,7139,WL,B,2.0
6,6.548999786376953,distr,53451.00021362305,Fri May 09 2025 09:12:46 GMT-0500 (Central Daylight Time),848368.3999999762,B,b,O,b,731,1,750.3000000119209,847618.0999999642,7139,WL,B,3.0
6,6.882999897003174,distr,53117.000102996826,Fri May 09 2025 09:12:46 GMT-0500 (Central Daylight Time),848702.1999999881,B,bu,O,u,327,1,1084.1000000238419,847618.0999999642,7139,WL,B,3.0
6,7.047999858856201,distr,52952.0001411438,Fri May 09 2025 09:12:46 GMT-0500 (Central Daylight Time),848867.2999999523,B,bui,O,i,150,1,1249.199999988079,847618.0999999642,7139,WL,B,3.0
6,7.2809998989105225,distr,52719.00010108948,Fri May 09 2025 09:12:46 GMT-0500 (Central Daylight Time),849100.1999999881,B,buil,O,l,215,1,1482.1000000238419,847618.0999999642,7139,WL,B,3.0
6,7.56499981880188,distr,52435.00018119812,Fri May 09 2025 09:12:46 GMT-0500 (Central Daylight Time),849384.7999999523,B,build,O,d,264,1,1766.699999988079,847618.0999999642,7139,WL,B,3.0
6,7.663999795913696,distr,52336.000204086304,Fri May 09 2025 09:12:46 GMT-0500 (Central Daylight Time),849483.2999999523,B,buildi,O,i,90,1,1865.199999988079,847618.0999999642,7139,WL,B,3.0
6,7.796999931335449,distr,52203.00006866455,Fri May 09 2025 09:12:46 GMT-0500 (Central Daylight Time),849617.2999999523,B,buildin,O,n,109,1,1999.199999988079,847618.0999999642,7139,WL,B,3.0
6,7.896999835968018,distr,52103.00016403198,Fri May 09 2025 09:12:46 GMT-0500 (Central Daylight Time),849716.3999999762,B,building,O,g,87,1,2098.300000011921,847618.0999999642,7139,WL,B,3.0
6,8.430999994277954,distr,51569.000005722046,Fri May 09 2025 09:12:46 GMT-0500 (Central Daylight Time),850250.7999999523,B,buildingenter,O,enter,524,1,2632.699999988079,847618.0999999642,7139,WL,B,3.0
6,9.312999963760376,distr,50687.000036239624,Fri May 09 2025 09:12:46 GMT-0500 (Central Daylight Time),851132.5,B,b,O,b,874,1,881.5,850251.0,7139,WL,B,4.0
6,9.462999820709229,distr,50537.00017929077,Fri May 09 2025 09:12:46 GMT-0500 (Central Daylight Time),851283.0,B,ba,O,a,144,1,1032.0,850251.0,7139,WL,B,4.0
6,9.747999906539917,distr,50252.00009346008,Fri May 09 2025 09:12:46 GMT-0500 (Central Daylight Time),851567.2999999523,B,bab,O,b,273,1,1316.2999999523163,850251.0,7139,WL,B,4.0
6,9.88099980354309,distr,50119.00019645691,Fri May 09 2025 09:12:46 GMT-0500 (Central Daylight Time),851700.7999999523,B,baby,O,y,110,1,1449.7999999523163,850251.0,7139,WL,B,4.0
6,10.36299991607666,distr,49637.00008392334,Fri May 09 2025 09:12:46 GMT-0500 (Central Daylight Time),852183.0999999642,B,babyenter,O,enter,466,1,1932.0999999642372,850251.0,7139,WL,B,4.0
6,11.179999828338623,distr,48820.00017166138,Fri May 09 2025 09:12:46 GMT-0500 (Central Daylight Time),853000.0,B,o,O,o,806,1,816.5,852183.5,7139,WL,B,5.0
6,11.46399998664856,distr,48536.00001335144,Fri May 09 2025 09:12:46 GMT-0500 (Central Daylight Time),853284.0999999642,B,oc,O,c,278,1,1100.5999999642372,852183.5,7139,WL,B,5.0
6,11.830999851226807,distr,48169.00014877319,Fri May 09 2025 09:12:46 GMT-0500 (Central Daylight Time),853650.5,B,oce,O,e,351,1,1467.0,852183.5,7139,WL,B,5.0
6,11.996999979019165,distr,48003.000020980835,Fri May 09 2025 09:12:46 GMT-0500 (Central Daylight Time),853816.8999999762,B,ocea,O,a,137,1,1633.3999999761581,852183.5,7139,WL,B,5.0
6,12.095999956130981,distr,47904.00004386902,Fri May 09 2025 09:12:46 GMT-0500 (Central Daylight Time),853915.5,B,ocean,O,n,88,1,1732.0,852183.5,7139,WL,B,5.0
6,12.63099980354309,distr,47369.00019645691,Fri May 09 2025 09:12:46 GMT-0500 (Central Daylight Time),854450.6999999881,B,oceanenter,O,enter,519,1,2267.199999988079,852183.5,7139,WL,B,5.0
6,13.229999780654907,distr,46770.00021934509,Fri May 09 2025 09:12:46 GMT-0500 (Central Daylight Time),855050.0999999642,B,d,O,d,586,1,599.0999999642372,854451.0,7139,WL,B,6.0
6,13.430999994277954,distr,46569.000005722046,Fri May 09 2025 09:12:46 GMT-0500 (Central Daylight Time),855250.2999999523,B,dr,O,r,182,1,799.2999999523163,854451.0,7139,WL,B,6.0
6,13.51199984550476,distr,46488.00015449524,Fri May 09 2025 09:12:46 GMT-0500 (Central Daylight Time),855332.0,B,dre,O,e,64,1,881.0,854451.0,7139,WL,B,6.0
6,13.995999813079834,distr,46004.000186920166,Fri May 09 2025 09:12:46 GMT-0500 (Central Daylight Time),855815.7999999523,B,dres,O,s,470,1,1364.7999999523163,854451.0,7139,WL,B,6.0
6,14.144999980926514,distr,45855.000019073486,Fri May 09 2025 09:12:46 GMT-0500 (Central Daylight Time),855964.8999999762,B,dress,O,s,136,1,1513.8999999761581,854451.0,7139,WL,B,6.0
6,14.912999868392944,distr,45087.000131607056,Fri May 09 2025 09:12:46 GMT-0500 (Central Daylight Time),856732.2999999523,B,dressenter,O,enter,756,1,2281.2999999523163,854451.0,7139,WL,B,6.0
6,60.01300001144409,distr,-13.000011444091797,Fri May 09 2025 09:12:46 GMT-0500 (Central Daylight Time),901834.0999999642,B,None,O,None,45097,1,45101.59999996424,856732.5,7139,WL,B,7.0
7,6.449000120162964,immed,53550.999879837036,Fri May 09 2025 09:12:46 GMT-0500 (Central Daylight Time),915412.7999999523,A,s,O,s,6421,1,6447.699999988079,908965.0999999642,7139,WL,B,1.0
7,7.648000001907349,immed,52351.99999809265,Fri May 09 2025 09:12:46 GMT-0500 (Central Daylight Time),916612.5999999642,A,st,O,t,1181,1,7647.5,908965.0999999642,7139,WL,B,1.0
7,8.049000024795532,immed,51950.99997520447,Fri May 09 2025 09:12:46 GMT-0500 (Central Daylight Time),917012.6999999881,A,str,O,r,383,1,8047.600000023842,908965.0999999642,7139,WL,B,1.0
7,8.382999897003174,immed,51617.000102996826,Fri May 09 2025 09:12:46 GMT-0500 (Central Daylight Time),917346.6999999881,A,stre,O,e,319,1,8381.600000023842,908965.0999999642,7139,WL,B,1.0
7,8.497999906539917,immed,51502.00009346008,Fri May 09 2025 09:12:46 GMT-0500 (Central Daylight Time),917461.7999999523,A,stree,O,e,106,1,8496.699999988079,908965.0999999642,7139,WL,B,1.0
7,8.714999914169312,immed,51285.00008583069,Fri May 09 2025 09:12:46 GMT-0500 (Central Daylight Time),917679.5999999642,A,street,O,t,207,1,8714.5,908965.0999999642,7139,WL,B,1.0
7,9.831000089645386,immed,50168.999910354614,Fri May 09 2025 09:12:46 GMT-0500 (Central Daylight Time),918794.5,A,streetenter,O,enter,1109,1,9829.400000035763,908965.0999999642,7139,WL,B,1.0
7,12.34500002861023,immed,47654.99997138977,Fri May 09 2025 09:12:46 GMT-0500 (Central Daylight Time),921308.7999999523,A,g,O,g,2497,1,2514.0,918794.7999999523,7139,WL,B,2.0
7,12.546000003814697,immed,47453.9999961853,Fri May 09 2025 09:12:46 GMT-0500 (Central Daylight Time),921510.1999999881,A,gr,O,r,193,1,2715.400000035763,918794.7999999523,7139,WL,B,2.0
7,12.778000116348267,immed,47221.99988365173,Fri May 09 2025 09:12:46 GMT-0500 (Central Daylight Time),921742.2999999523,A,gra,O,a,224,1,2947.5,918794.7999999523,7139,WL,B,2.0
7,13.079999923706055,immed,46920.000076293945,Fri May 09 2025 09:12:46 GMT-0500 (Central Daylight Time),922043.5,A,gras,O,s,287,1,3248.7000000476837,918794.7999999523,7139,WL,B,2.0
7,13.194999933242798,immed,46805.0000667572,Fri May 09 2025 09:12:46 GMT-0500 (Central Daylight Time),922158.8999999762,A,grass,O,s,106,1,3364.100000023842,918794.7999999523,7139,WL,B,2.0
7,13.41100001335144,immed,46588.99998664856,Fri May 09 2025 09:12:46 GMT-0500 (Central Daylight Time),922375.2999999523,A,grassenter,O,enter,199,1,3580.5,918794.7999999523,7139,WL,B,2.0
7,13.696000099182129,immed,46303.99990081787,Fri May 09 2025 09:12:46 GMT-0500 (Central Daylight Time),922659.7999999523,A,d,O,d,270,1,284.19999998807907,922375.5999999642,7139,WL,B,3.0
7,14.211999893188477,immed,45788.00010681152,Fri May 09 2025 09:12:46 GMT-0500 (Central Daylight Time),923176.2999999523,A,do,O,o,503,1,800.6999999880791,922375.5999999642,7139,WL,B,3.0
7,14.329999923706055,immed,45670.000076293945,Fri May 09 2025 09:12:46 GMT-0500 (Central Daylight Time),923293.5999999642,A,doo,O,o,108,1,918.0,922375.5999999642,7139,WL,B,3.0
7,14.480000019073486,immed,45519.999980926514,Fri May 09 2025 09:12:46 GMT-0500 (Central Daylight Time),923444.2999999523,A,door,O,r,134,1,1068.699999988079,922375.5999999642,7139,WL,B,3.0
7,15.029000043869019,immed,44970.99995613098,Fri May 09 2025 09:12:46 GMT-0500 (Central Daylight Time),923992.5999999642,A,doorenter,O,enter,534,1,1617.0,922375.5999999642,7139,WL,B,3.0
7,16.69600009918213,immed,43303.99990081787,Fri May 09 2025 09:12:46 GMT-0500 (Central Daylight Time),925659.8999999762,A,a,O,a,1661,1,1667.1000000238419,923992.7999999523,7139,WL,B,4.0
7,16.913000106811523,immed,43086.99989318848,Fri May 09 2025 09:12:46 GMT-0500 (Central Daylight Time),925876.6999999881,A,ar,O,r,209,1,1883.9000000357628,923992.7999999523,7139,WL,B,4.0
7,17.062000036239624,immed,42937.999963760376,Fri May 09 2025 09:12:46 GMT-0500 (Central Daylight Time),926026.5,A,arm,O,m,128,1,2033.7000000476837,923992.7999999523,7139,WL,B,4.0
7,17.49500012397766,immed,42504.99987602234,Fri May 09 2025 09:12:46 GMT-0500 (Central Daylight Time),926459.0999999642,A,armenter,O,enter,425,1,2466.300000011921,923992.7999999523,7139,WL,B,4.0
7,18.246000051498413,immed,41753.99994850159,Fri May 09 2025 09:12:46 GMT-0500 (Central Daylight Time),927209.6999999881,A,s,O,s,729,1,750.4000000357628,926459.2999999523,7139,WL,B,5.0
7,18.711999893188477,immed,41288.00010681152,Fri May 09 2025 09:12:46 GMT-0500 (Central Daylight Time),927675.7999999523,A,st,O,t,450,1,1216.5,926459.2999999523,7139,WL,B,5.0
7,18.911999940872192,immed,41088.00005912781,Fri May 09 2025 09:12:46 GMT-0500 (Central Daylight Time),927876.0,A,sta,O,a,193,1,1416.7000000476837,926459.2999999523,7139,WL,B,5.0
7,19.01200008392334,immed,40987.99991607666,Fri May 09 2025 09:12:46 GMT-0500 (Central Daylight Time),927976.0999999642,A,star,O,r,77,1,1516.800000011921,926459.2999999523,7139,WL,B,5.0
7,19.944000005722046,immed,40055.999994277954,Fri May 09 2025 09:12:46 GMT-0500 (Central Daylight Time),928908.0999999642,A,starenter,O,enter,923,1,2448.800000011921,926459.2999999523,7139,WL,B,5.0
7,22.125,immed,37875.0,Fri May 09 2025 09:12:46 GMT-0500 (Central Daylight Time),931089.0999999642,A,w,O,w,2176,1,2180.699999988079,928908.3999999762,7139,WL,B,6.0
7,22.278000116348267,immed,37721.99988365173,Fri May 09 2025 09:12:46 GMT-0500 (Central Daylight Time),931242.2999999523,A,wi,O,i,133,1,2333.899999976158,928908.3999999762,7139,WL,B,6.0
7,22.55999994277954,immed,37440.00005722046,Fri May 09 2025 09:12:46 GMT-0500 (Central Daylight Time),931524.5,A,wif,O,f,264,1,2616.100000023842,928908.3999999762,7139,WL,B,6.0
7,22.677000045776367,immed,37322.99995422363,Fri May 09 2025 09:12:46 GMT-0500 (Central Daylight Time),931641.3999999762,A,wife,O,e,93,1,2733.0,928908.3999999762,7139,WL,B,6.0
7,22.875999927520752,immed,37124.00007247925,Fri May 09 2025 09:12:46 GMT-0500 (Central Daylight Time),931840.2999999523,A,wifeenter,O,enter,186,1,2931.899999976158,928908.3999999762,7139,WL,B,6.0
7,23.34500002861023,immed,36654.99997138977,Fri May 09 2025 09:12:46 GMT-0500 (Central Daylight Time),932308.8999999762,A,w,O,w,463,1,468.39999997615814,931840.5,7139,WL,B,7.0
7,23.51200008392334,immed,36487.99991607666,Fri May 09 2025 09:12:46 GMT-0500 (Central Daylight Time),932475.7999999523,A,wi,O,i,160,1,635.2999999523163,931840.5,7139,WL,B,7.0
7,23.658999919891357,immed,36341.00008010864,Fri May 09 2025 09:12:46 GMT-0500 (Central Daylight Time),932623.3999999762,A,win,O,n,127,1,782.8999999761581,931840.5,7139,WL,B,7.0
7,23.793999910354614,immed,36206.000089645386,Fri May 09 2025 09:12:46 GMT-0500 (Central Daylight Time),932757.7999999523,A,wind,O,d,116,1,917.2999999523163,931840.5,7139,WL,B,7.0
7,23.9760000705719,immed,36023.9999294281,Fri May 09 2025 09:12:46 GMT-0500 (Central Daylight Time),932939.7999999523,A,windo,O,o,175,1,1099.2999999523163,931840.5,7139,WL,B,7.0
7,24.094000101089478,immed,35905.99989891052,Fri May 09 2025 09:12:46 GMT-0500 (Central Daylight Time),933057.7999999523,A,window,O,w,97,1,1217.2999999523163,931840.5,7139,WL,B,7.0
7,24.542999982833862,immed,35457.00001716614,Fri May 09 2025 09:12:46 GMT-0500 (Central Daylight Time),933507.5,A,windowenter,O,enter,435,1,1667.0,931840.5,7139,WL,B,7.0
7,27.776000022888184,immed,32223.999977111816,Fri May 09 2025 09:12:46 GMT-0500 (Central Daylight Time),936740.0999999642,A,c,O,c,3218,1,3232.399999976158,933507.6999999881,7139,WL,B,8.0
7,27.9760000705719,immed,32023.9999294281,Fri May 09 2025 09:12:46 GMT-0500 (Central Daylight Time),936940.0999999642,A,ca,O,a,185,1,3432.399999976158,933507.6999999881,7139,WL,B,8.0
7,28.223999977111816,immed,31776.000022888184,Fri May 09 2025 09:12:46 GMT-0500 (Central Daylight Time),937188.1999999881,A,cab,O,b,240,1,3680.5,933507.6999999881,7139,WL,B,8.0
7,28.342000007629395,immed,31657.999992370605,Fri May 09 2025 09:12:46 GMT-0500 (Central Daylight Time),937306.2999999523,A,cabi,O,i,102,1,3798.599999964237,933507.6999999881,7139,WL,B,8.0
7,28.441999912261963,immed,31558.000087738037,Fri May 09 2025 09:12:46 GMT-0500 (Central Daylight Time),937405.5999999642,A,cabin,O,n,90,1,3897.899999976158,933507.6999999881,7139,WL,B,8.0
7,28.79100012779236,immed,31208.99987220764,Fri May 09 2025 09:12:46 GMT-0500 (Central Daylight Time),937755.0,A,cabinenter,O,enter,334,1,4247.300000011921,933507.6999999881,7139,WL,B,8.0
7,29.575000047683716,immed,30424.999952316284,Fri May 09 2025 09:12:46 GMT-0500 (Central Daylight Time),938539.3999999762,A,l,O,l,770,1,784.1000000238419,937755.2999999523,7139,WL,B,9.0
7,29.657999992370605,immed,30342.000007629395,Fri May 09 2025 09:12:46 GMT-0500 (Central Daylight Time),938621.5999999642,A,la,O,a,72,1,866.3000000119209,937755.2999999523,7139,WL,B,9.0
7,29.80900001525879,immed,30190.99998474121,Fri May 09 2025 09:12:46 GMT-0500 (Central Daylight Time),938772.8999999762,A,lak,O,k,129,1,1017.6000000238419,937755.2999999523,7139,WL,B,9.0
7,29.960000038146973,immed,30039.999961853027,Fri May 09 2025 09:12:46 GMT-0500 (Central Daylight Time),938923.8999999762,A,lake,O,e,144,1,1168.6000000238419,937755.2999999523,7139,WL,B,9.0
7,30.10700011253357,immed,29892.99988746643,Fri May 09 2025 09:12:46 GMT-0500 (Central Daylight Time),939071.0999999642,A,lakeenter,O,enter,127,1,1315.800000011921,937755.2999999523,7139,WL,B,9.0
7,31.325000047683716,immed,28674.999952316284,Fri May 09 2025 09:12:46 GMT-0500 (Central Daylight Time),940289.5,A,p,O,p,1205,1,1218.0,939071.5,7139,WL,B,10.0
7,31.723999977111816,immed,28276.000022888184,Fri May 09 2025 09:12:46 GMT-0500 (Central Daylight Time),940688.2999999523,A,pu,O,u,378,1,1616.7999999523163,939071.5,7139,WL,B,10.0
7,31.924000024795532,immed,28075.999975204468,Fri May 09 2025 09:12:46 GMT-0500 (Central Daylight Time),940888.0999999642,A,pup,O,p,180,1,1816.5999999642372,939071.5,7139,WL,B,10.0
7,32.32299995422363,immed,27677.000045776367,Fri May 09 2025 09:12:46 GMT-0500 (Central Daylight Time),941287.2999999523,A,pupi,O,i,381,1,2215.7999999523163,939071.5,7139,WL,B,10.0
7,32.54200005531311,immed,27457.99994468689,Fri May 09 2025 09:12:46 GMT-0500 (Central Daylight Time),941505.6999999881,A,pupil,O,l,197,1,2434.199999988079,939071.5,7139,WL,B,10.0
7,32.824000120162964,immed,27175.999879837036,Fri May 09 2025 09:12:46 GMT-0500 (Central Daylight Time),941788.0999999642,A,pupilenter,O,enter,265,1,2716.599999964237,939071.5,7139,WL,B,10.0
7,33.25699996948242,immed,26743.000030517578,Fri May 09 2025 09:12:46 GMT-0500 (Central Daylight Time),942221.3999999762,A,p,O,p,416,1,433.10000002384186,941788.2999999523,7139,WL,B,11.0
7,33.39100003242493,immed,26608.999967575073,Fri May 09 2025 09:12:46 GMT-0500 (Central Daylight Time),942355.0,A,pi,O,i,127,1,566.7000000476837,941788.2999999523,7139,WL,B,11.0
7,33.80800008773804,immed,26191.999912261963,Fri May 09 2025 09:12:46 GMT-0500 (Central Daylight Time),942771.6999999881,A,pip,O,p,401,1,983.4000000357628,941788.2999999523,7139,WL,B,11.0
7,34.039000034332275,immed,25960.999965667725,Fri May 09 2025 09:12:46 GMT-0500 (Central Daylight Time),943003.2999999523,A,pipe,O,e,216,1,1215.0,941788.2999999523,7139,WL,B,11.0
7,34.289000034332275,immed,25710.999965667725,Fri May 09 2025 09:12:46 GMT-0500 (Central Daylight Time),943253.3999999762,A,pipeenter,O,enter,233,1,1465.1000000238419,941788.2999999523,7139,WL,B,11.0
7,35.95700001716614,immed,24042.999982833862,Fri May 09 2025 09:12:46 GMT-0500 (Central Daylight Time),944920.7999999523,A,f,O,f,1656,1,1667.0999999642372,943253.6999999881,7139,WL,B,12.0
7,36.15700006484985,immed,23842.999935150146,Fri May 09 2025 09:12:46 GMT-0500 (Central Daylight Time),945120.5999999642,A,fi,O,i,181,1,1866.8999999761581,943253.6999999881,7139,WL,B,12.0
7,36.2039999961853,immed,23796.000003814697,Fri May 09 2025 09:12:46 GMT-0500 (Central Daylight Time),945168.2999999523,A,fir,O,r,34,1,1914.5999999642372,943253.6999999881,7139,WL,B,12.0
7,36.289000034332275,immed,23710.999965667725,Fri May 09 2025 09:12:46 GMT-0500 (Central Daylight Time),945252.8999999762,A,fire,O,e,76,1,1999.199999988079,943253.6999999881,7139,WL,B,12.0
7,36.723000049591064,immed,23276.999950408936,Fri May 09 2025 09:12:46 GMT-0500 (Central Daylight Time),945686.7999999523,A,fireenter,O,enter,414,1,2433.099999964237,943253.6999999881,7139,WL,B,12.0
7,38.50500011444092,immed,21494.999885559082,Fri May 09 2025 09:12:46 GMT-0500 (Central Daylight Time),947469.5,A,c,O,c,1766,1,1782.4000000357628,945687.0999999642,7139,WL,B,13.0
7,38.72200012207031,immed,21277.999877929688,Fri May 09 2025 09:12:46 GMT-0500 (Central Daylight Time),947686.5,A,cl,O,l,207,1,1999.4000000357628,945687.0999999642,7139,WL,B,13.0
7,38.871999979019165,immed,21128.000020980835,Fri May 09 2025 09:12:46 GMT-0500 (Central Daylight Time),947836.2999999523,A,clo,O,o,134,1,2149.199999988079,945687.0999999642,7139,WL,B,13.0
7,38.97099995613098,immed,21029.00004386902,Fri May 09 2025 09:12:46 GMT-0500 (Central Daylight Time),947935.0,A,cloc,O,c,88,1,2247.900000035763,945687.0999999642,7139,WL,B,13.0
7,39.08800005912781,immed,20911.999940872192,Fri May 09 2025 09:12:46 GMT-0500 (Central Daylight Time),948052.0,A,clock,O,k,110,1,2364.900000035763,945687.0999999642,7139,WL,B,13.0
7,39.47200012207031,immed,20527.999877929688,Fri May 09 2025 09:12:46 GMT-0500 (Central Daylight Time),948435.5,A,clockenter,O,enter,359,1,2748.400000035763,945687.0999999642,7139,WL,B,13.0
7,42.835999965667725,immed,17164.000034332275,Fri May 09 2025 09:12:46 GMT-0500 (Central Daylight Time),951801.0,A,s,O,s,3346,1,3365.2000000476837,948435.7999999523,7139,WL,B,14.0
7,42.937999963760376,immed,17062.000036239624,Fri May 09 2025 09:12:46 GMT-0500 (Central Daylight Time),951902.8999999762,A,sk,O,k,95,1,3467.100000023842,948435.7999999523,7139,WL,B,14.0
7,43.069000005722046,immed,16930.999994277954,Fri May 09 2025 09:12:46 GMT-0500 (Central Daylight Time),952034.6999999881,A,ski,O,i,118,1,3598.900000035763,948435.7999999523,7139,WL,B,14.0
7,43.17199993133545,immed,16828.00006866455,Fri May 09 2025 09:12:46 GMT-0500 (Central Daylight Time),952137.1999999881,A,skin,O,n,98,1,3701.400000035763,948435.7999999523,7139,WL,B,14.0
7,43.48699998855591,immed,16513.00001144409,Fri May 09 2025 09:12:46 GMT-0500 (Central Daylight Time),952451.8999999762,A,skinenter,O,enter,309,1,4016.100000023842,948435.7999999523,7139,WL,B,14.0
7,60.015000104904175,immed,-15.000104904174805,Fri May 09 2025 09:12:46 GMT-0500 (Central Daylight Time),968979.7999999523,A,None,O,None,16523,1,16527.69999998808,952452.0999999642,7139,WL,B,15.0
