acc_sum,block,block_c,condition,correct,correct_response,datetime,endtime,flanker,jitter,project,response,response_test_buffer_response,response_test_target_response,response_time,response_time_test_buffer_response,response_time_test_target_response,row_sel,session_number,start_end,starttime,subject_id,target,task,task_vers,time_test_buffer,time_test_buffer_response,time_test_constants,time_test_flanker,time_test_jitter,time_test_logger,time_test_target,time_test_target_response,time_test_variables,trial
0,prac,1,inc,0,z,Mon Sep 15 2025 13:57:31 GMT-0500 (Central Daylight Time),129163.09999990463,cobalt,1100,I,None,,,1799,,,4,1,5175.899999976158,123987.19999992847,7195,raisin,NF,C,,,,,,,,,,1
1,prac,1,con,1,m,Mon Sep 15 2025 13:57:31 GMT-0500 (Central Daylight Time),132227.29999995232,zinc,1000,I,m,,,752,,,15,1,3057.7999999523163,129169.5,7195,zinc,NF,C,,,,,,,,,,2
2,prac,1,inc,1,m,Mon Sep 15 2025 13:57:31 GMT-0500 (Central Daylight Time),135012.0,cherry,900,I,m,,,572,,,10,1,2778.0,132234.0,7195,copper,NF,C,,,,,,,,,,3
3,prac,1,inc,1,z,Mon Sep 15 2025 13:57:31 GMT-0500 (Central Daylight Time),138010.5,lead,1100,I,z,,,588,,,8,1,2993.600000023842,135016.89999997616,7195,plum,NF,C,,,,,,,,,,4
4,prac,1,inc,1,m,Mon Sep 15 2025 13:57:31 GMT-0500 (Central Daylight Time),140958.5,raisin,1100,I,m,,,532,,,12,1,2941.2000000476837,138017.29999995232,7195,cobalt,NF,C,,,,,,,,,,5
5,prac,1,con,1,z,Mon Sep 15 2025 13:57:31 GMT-0500 (Central Daylight Time),143841.69999992847,kiwi,1000,I,z,,,585,,,7,1,2875.6999999284744,140966.0,7195,kiwi,NF,C,,,,,,,,,,6
6,prac,1,con,1,z,Mon Sep 15 2025 13:57:31 GMT-0500 (Central Daylight Time),146506.0,banana,800,I,z,,,561,,,1,1,2658.2000000476837,143847.79999995232,7195,banana,NF,C,,,,,,,,,,7
7,prac,1,con,1,z,Mon Sep 15 2025 13:57:31 GMT-0500 (Central Daylight Time),149205.0,lime,800,I,z,,,595,,,5,1,2693.4000000953674,146511.59999990463,7195,lime,NF,C,,,,,,,,,,8
8,prac,1,con,1,z,Mon Sep 15 2025 13:57:31 GMT-0500 (Central Daylight Time),151987.5,orange,1000,I,z,,,471,,,3,1,2775.5,149212.0,7195,orange,NF,C,,,,,,,,,,9
9,prac,1,inc,1,z,Mon Sep 15 2025 13:57:31 GMT-0500 (Central Daylight Time),154784.59999990463,copper,900,I,z,,,601,,,2,1,2789.0,151995.59999990463,7195,cherry,NF,C,,,,,,,,,,10
10,prac,1,con,1,m,Mon Sep 15 2025 13:57:31 GMT-0500 (Central Daylight Time),157382.69999992847,gold,800,I,m,,,488,,,13,1,2594.2999999523163,154788.39999997616,7195,gold,NF,C,,,,,,,,,,11
11,prac,1,inc,1,z,Mon Sep 15 2025 13:57:31 GMT-0500 (Central Daylight Time),160200.39999997616,iron,900,I,z,,,622,,,6,1,2814.600000023842,157385.79999995232,7195,pear,NF,C,,,,,,,,,,12
12,prac,1,inc,1,m,Mon Sep 15 2025 13:57:31 GMT-0500 (Central Daylight Time),162917.59999990463,pear,900,I,m,,,509,,,14,1,2710.2999999523163,160207.29999995232,7195,iron,NF,C,,,,,,,,,,13
13,prac,1,con,1,m,Mon Sep 15 2025 13:57:31 GMT-0500 (Central Daylight Time),165465.89999997616,bronze,800,I,m,,,446,,,9,1,2540.8000000715256,162925.09999990463,7195,bronze,NF,C,,,,,,,,,,14
14,prac,1,inc,1,m,Mon Sep 15 2025 13:57:31 GMT-0500 (Central Daylight Time),168481.09999990463,plum,1100,I,m,,,604,,,16,1,3008.399999976158,165472.69999992847,7195,lead,NF,C,,,,,,,,,,15
15,prac,1,con,1,m,Mon Sep 15 2025 13:57:31 GMT-0500 (Central Daylight Time),171180.69999992847,silver,1000,I,m,,,392,,,11,1,2692.0,168488.69999992847,7195,silver,NF,C,,,,,,,,,,16
1,test,1,inc,1,m,Mon Sep 15 2025 13:57:31 GMT-0500 (Central Daylight Time),179378.29999995232,lime,800,I,m,m,None,580,378.0,202.0,125,1,1909.7999999523163,177468.5,7195,lead,NF,C,172741,172741,171212,172022,171212,173121,172538,172538,173121,1
2,test,1,inc,1,z,Mon Sep 15 2025 13:57:31 GMT-0500 (Central Daylight Time),181610.69999992847,zinc,1000,I,z,z,None,696,496.0,200.0,47,1,2227.100000023842,179383.59999990463,7195,pear,NF,C,174855,174856,173127,174137,173127,175354,174655,174655,175354,2
2,test,1,con,0,z,Mon Sep 15 2025 13:57:31 GMT-0500 (Central Daylight Time),183476.39999997616,raisin,800,I,m,m,None,543,323.0,220.0,25,1,1858.3999999761581,181618.0,7195,raisin,NF,C,176892,176892,175361,176170,175361,177219,176671,176672,177219,3
3,test,1,inc,1,m,Mon Sep 15 2025 13:57:31 GMT-0500 (Central Daylight Time),185411.69999992847,banana,800,I,m,m,None,588,389.0,199.0,77,1,1932.3999999761581,183479.29999995232,7195,copper,NF,C,178754,178754,177222,178037,177223,179155,178554,178554,179155,4
4,test,1,con,1,z,Mon Sep 15 2025 13:57:31 GMT-0500 (Central Daylight Time),187692.29999995232,pear,1100,I,z,z,None,638,437.0,201.0,44,1,2276.100000023842,185416.19999992847,7195,pear,NF,C,180986,180986,179159,180270,179159,181435,180785,180785,181435,5
5,test,1,inc,1,m,Mon Sep 15 2025 13:57:31 GMT-0500 (Central Daylight Time),189924.69999992847,orange,1000,I,m,m,None,693,478.0,215.0,95,1,2227.100000023842,187697.59999990463,7195,cobalt,NF,C,183185,183185,181441,182453,181441,183668,182969,182969,183668,6
6,test,1,inc,1,z,Mon Sep 15 2025 13:57:31 GMT-0500 (Central Daylight Time),191941.09999990463,iron,900,I,z,z,None,579,378.0,201.0,54,1,2011.2999999523163,189929.79999995232,7195,kiwi,NF,C,185301,185301,183673,184586,183673,185684,185100,185100,185684,7
7,test,1,inc,1,m,Mon Sep 15 2025 13:57:31 GMT-0500 (Central Daylight Time),194023.5,orange,1000,I,m,m,None,541,341.0,200.0,87,1,2075.7000000476837,191947.79999995232,7195,silver,NF,C,187418,187418,185691,186702,185691,187767,187217,187217,187767,8
8,test,1,inc,1,z,Mon Sep 15 2025 13:57:31 GMT-0500 (Central Daylight Time),196139.79999995232,bronze,800,I,z,z,None,771,571.0,200.0,5,1,2111.399999976158,194028.39999997616,7195,banana,NF,C,189300,189301,187771,188584,187772,189883,189100,189100,189883,9
9,test,1,con,1,m,Mon Sep 15 2025 13:57:31 GMT-0500 (Central Daylight Time),198389.29999995232,silver,1100,I,m,m,None,611,411.0,200.0,84,1,2243.5,196145.79999995232,7195,silver,NF,C,191715,191716,189889,191001,189889,192132,191515,191515,192132,10
10,test,1,inc,1,z,Mon Sep 15 2025 13:57:31 GMT-0500 (Central Daylight Time),200554.29999995232,cobalt,1100,I,z,z,None,537,322.0,215.0,24,1,2157.100000023842,198397.19999992847,7195,orange,NF,C,193965,193966,192140,193249,192141,194297,193750,193750,194297,11
11,test,1,inc,1,z,Mon Sep 15 2025 13:57:31 GMT-0500 (Central Daylight Time),202803.69999992847,lead,1100,I,z,z,None,603,403.0,200.0,56,1,2243.100000023842,200560.59999990463,7195,kiwi,NF,C,196132,196132,194304,195415,194304,196547,195931,195931,196547,12
12,test,1,con,1,m,Mon Sep 15 2025 13:57:31 GMT-0500 (Central Daylight Time),204886.19999992847,cobalt,1000,I,m,m,None,542,342.0,200.0,91,1,2077.2999999523163,202808.89999997616,7195,cobalt,NF,C,198281,198281,196552,197564,196552,198629,198081,198081,198629,13
13,test,1,con,1,z,Mon Sep 15 2025 13:57:31 GMT-0500 (Central Daylight Time),206802.59999990463,kiwi,800,I,z,z,None,570,355.0,215.0,49,1,1908.0999999046326,204894.5,7195,kiwi,NF,C,200181,200181,198638,199448,198638,200546,199965,199965,200546,14
13,test,1,inc,0,z,Mon Sep 15 2025 13:57:31 GMT-0500 (Central Daylight Time),208601.89999997616,bronze,800,I,m,m,None,455,255.0,200.0,29,1,1793.3999999761581,206808.5,7195,raisin,NF,C,202080,202080,200552,201364,200552,202345,201880,201880,202345,15
14,test,1,inc,1,m,Mon Sep 15 2025 13:57:31 GMT-0500 (Central Daylight Time),210601.69999992847,banana,800,I,m,m,None,656,457.0,199.0,69,1,1994.7999999523163,208606.89999997616,7195,bronze,NF,C,203879,203879,202350,203162,202350,204345,203679,203679,204345,16
15,test,1,inc,1,m,Mon Sep 15 2025 13:57:31 GMT-0500 (Central Daylight Time),212884.29999995232,plum,1100,I,m,m,None,635,420.0,215.0,104,1,2277.100000023842,210607.19999992847,7195,gold,NF,C,206195,206195,204350,205461,204350,206627,205979,205980,206627,17
16,test,1,con,1,m,Mon Sep 15 2025 13:57:31 GMT-0500 (Central Daylight Time),215082.29999995232,lead,900,I,m,m,None,753,553.0,200.0,122,1,2192.2999999523163,212890.0,7195,lead,NF,C,208261,208261,206633,207545,206633,208825,208061,208061,208825,18
17,test,1,con,1,z,Mon Sep 15 2025 13:57:31 GMT-0500 (Central Daylight Time),217316.19999992847,lime,1100,I,z,z,None,587,388.0,199.0,36,1,2231.100000023842,215085.09999990463,7195,lime,NF,C,210660,210660,208828,209945,208828,211059,210461,210461,211059,19
18,test,1,con,1,m,Mon Sep 15 2025 13:57:31 GMT-0500 (Central Daylight Time),219648.09999990463,cobalt,1100,I,m,m,None,697,498.0,199.0,92,1,2325.399999976158,217322.69999992847,7195,cobalt,NF,C,212893,212893,211066,212177,211066,213391,212693,212693,213391,20
19,test,1,con,1,z,Mon Sep 15 2025 13:57:31 GMT-0500 (Central Daylight Time),221565.09999990463,raisin,900,I,z,z,None,468,269.0,199.0,26,1,1911.2999999523163,219653.79999995232,7195,raisin,NF,C,215026,215026,213397,214310,213397,215308,214827,214827,215308,21
20,test,1,inc,1,z,Mon Sep 15 2025 13:57:31 GMT-0500 (Central Daylight Time),223448.69999992847,gold,800,I,z,z,None,532,333.0,199.0,37,1,1877.1999999284744,221571.5,7195,lime,NF,C,216842,216842,215315,216126,215315,217192,216642,216642,217192,22
21,test,1,con,1,m,Mon Sep 15 2025 13:57:31 GMT-0500 (Central Daylight Time),225331.59999990463,bronze,900,I,m,m,None,449,250.0,199.0,66,1,1877.1999999284744,223454.39999997616,7195,bronze,NF,C,218824,218824,217197,218107,217198,219075,218625,218625,219075,23
22,test,1,con,1,z,Mon Sep 15 2025 13:57:31 GMT-0500 (Central Daylight Time),227230.0,cherry,1000,I,z,z,None,361,160.0,201.0,11,1,1893.7000000476837,225336.29999995232,7195,cherry,NF,C,220808,220808,219079,220091,219080,220973,220607,220607,220973,24
23,test,1,inc,1,z,Mon Sep 15 2025 13:57:31 GMT-0500 (Central Daylight Time),229117.29999995232,bronze,800,I,z,z,None,553,353.0,200.0,21,1,1883.5,227233.79999995232,7195,orange,NF,C,222507,222507,220977,221791,220977,222860,222307,222307,222860,25
24,test,1,inc,1,m,Mon Sep 15 2025 13:57:31 GMT-0500 (Central Daylight Time),231262.0,plum,1100,I,m,m,None,507,292.0,215.0,128,1,2141.8000000715256,229120.19999992847,7195,lead,NF,C,224706,224706,222863,223973,222863,225005,224490,224490,225005,26
24,test,1,con,0,m,Mon Sep 15 2025 13:57:31 GMT-0500 (Central Daylight Time),233611.69999992847,gold,1000,I,z,z,None,800,600.0,200.0,99,1,2346.7999999523163,231264.89999997616,7195,gold,NF,C,226738,226738,225008,226024,225008,227355,226538,226538,227355,27
25,test,1,con,1,z,Mon Sep 15 2025 13:57:31 GMT-0500 (Central Daylight Time),235861.39999997616,orange,1000,I,z,z,None,702,503.0,199.0,19,1,2244.100000023842,233617.29999995232,7195,orange,NF,C,229088,229088,227360,228372,227361,229604,228887,228888,229604,28
26,test,1,inc,1,z,Mon Sep 15 2025 13:57:31 GMT-0500 (Central Daylight Time),238161.69999992847,cobalt,1100,I,z,z,None,650,450.0,200.0,32,1,2295.100000023842,235866.59999990463,7195,raisin,NF,C,231438,231438,229610,230721,229610,231905,231237,231237,231904,29
27,test,1,inc,1,m,Mon Sep 15 2025 13:57:31 GMT-0500 (Central Daylight Time),240207.59999990463,pear,900,I,m,m,None,615,415.0,200.0,118,1,2039.1999999284744,238168.39999997616,7195,zinc,NF,C,233519,233519,231911,232818,231912,233951,233319,233319,233951,30
28,test,1,inc,1,z,Mon Sep 15 2025 13:57:31 GMT-0500 (Central Daylight Time),242309.0,iron,900,I,z,z,None,652,453.0,199.0,62,1,2097.8000000715256,240211.19999992847,7195,plum,NF,C,235586,235586,233954,234869,233954,236052,235386,235386,236052,31
29,test,1,inc,1,m,Mon Sep 15 2025 13:57:31 GMT-0500 (Central Daylight Time),244708.0,kiwi,1000,I,m,m,None,852,653.0,199.0,111,1,2394.100000023842,242313.89999997616,7195,iron,NF,C,237782,237782,236057,237069,236057,238451,237583,237583,238451,32
30,test,1,con,1,z,Mon Sep 15 2025 13:57:31 GMT-0500 (Central Daylight Time),247023.79999995232,orange,1100,I,z,z,None,676,476.0,200.0,20,1,2310.399999976158,244713.39999997616,7195,orange,NF,C,240284,240284,238456,239567,238457,240767,240084,240084,240767,33
31,test,1,con,1,m,Mon Sep 15 2025 13:57:31 GMT-0500 (Central Daylight Time),248972.89999997616,copper,800,I,m,m,None,602,402.0,200.0,73,1,1944.1000000238419,247028.79999995232,7195,copper,NF,C,242301,242301,240772,241584,240772,242716,242100,242100,242716,34
32,test,1,con,1,z,Mon Sep 15 2025 13:57:31 GMT-0500 (Central Daylight Time),251273.5,banana,1100,I,z,z,None,665,466.0,199.0,4,1,2295.0,248978.5,7195,banana,NF,C,244550,244550,242722,243833,242722,245017,244350,244350,245017,35
33,test,1,con,1,m,Mon Sep 15 2025 13:57:31 GMT-0500 (Central Daylight Time),253338.19999992847,lead,1100,I,m,m,None,431,216.0,215.0,124,1,2057.6999999284744,251280.5,7195,lead,NF,C,246865,246865,245024,246131,245024,247081,246649,246649,247081,36
34,test,1,con,1,z,Mon Sep 15 2025 13:57:31 GMT-0500 (Central Daylight Time),255454.09999990463,raisin,1100,I,z,z,None,475,276.0,199.0,28,1,2107.5,253346.59999990463,7195,raisin,NF,C,248914,248914,247090,248198,247090,249197,248715,248715,249197,37
35,test,1,con,1,m,Mon Sep 15 2025 13:57:31 GMT-0500 (Central Daylight Time),257338.0,silver,800,I,m,m,None,550,350.0,200.0,81,1,1880.8000000715256,255457.19999992847,7195,silver,NF,C,250731,250731,249200,250015,249200,251081,250531,250531,251081,38
36,test,1,con,1,z,Mon Sep 15 2025 13:57:31 GMT-0500 (Central Daylight Time),259203.09999990463,pear,800,I,z,z,None,526,314.0,212.0,41,1,1859.1999999284744,257343.89999997616,7195,pear,NF,C,252629,252629,251087,251898,251087,252946,252416,252416,252946,39
37,test,1,inc,1,z,Mon Sep 15 2025 13:57:31 GMT-0500 (Central Daylight Time),261169.79999995232,gold,800,I,z,z,None,622,406.0,216.0,45,1,1961.7000000476837,259208.09999990463,7195,pear,NF,C,254497,254497,252951,253763,252951,254913,254281,254281,254913,40
38,test,1,con,1,m,Mon Sep 15 2025 13:57:31 GMT-0500 (Central Daylight Time),263084.89999997616,lead,800,I,m,m,None,577,378.0,199.0,121,1,1908.8999999761581,261176.0,7195,lead,NF,C,256446,256446,254919,255729,254920,256828,256246,256246,256828,41
39,test,1,con,1,z,Mon Sep 15 2025 13:57:31 GMT-0500 (Central Daylight Time),265067.89999997616,plum,800,I,z,z,None,644,445.0,199.0,57,1,1978.2000000476837,263089.6999999285,7195,plum,NF,C,258361,258362,256833,257645,256833,258811,258162,258162,258811,42
40,test,1,inc,1,m,Mon Sep 15 2025 13:57:31 GMT-0500 (Central Daylight Time),267067.5,kiwi,1000,I,m,m,None,449,247.0,202.0,127,1,1993.9000000953674,265073.59999990463,7195,lead,NF,C,260547,260547,258817,259829,258817,260811,260344,260344,260811,43
41,test,1,con,1,m,Mon Sep 15 2025 13:57:31 GMT-0500 (Central Daylight Time),269133.89999997616,zinc,900,I,m,m,None,618,419.0,199.0,114,1,2060.3000000715256,267073.59999990463,7195,zinc,NF,C,262444,262444,260817,261727,260817,262877,262245,262245,262877,44
42,test,1,con,1,m,Mon Sep 15 2025 13:57:31 GMT-0500 (Central Daylight Time),271099.39999997616,bronze,1000,I,m,m,None,437,238.0,199.0,67,1,1960.1000000238419,269139.2999999523,7195,bronze,NF,C,264593,264593,262882,263892,262883,264842,264393,264393,264842,45
43,test,1,con,1,m,Mon Sep 15 2025 13:57:31 GMT-0500 (Central Daylight Time),273114.7999999523,iron,900,I,m,m,None,579,380.0,199.0,106,1,2009.7000000476837,271105.09999990463,7195,iron,NF,C,266475,266475,264848,265759,264849,266858,266275,266275,266858,46
44,test,1,con,1,m,Mon Sep 15 2025 13:57:31 GMT-0500 (Central Daylight Time),274898.7999999523,bronze,800,I,m,m,None,438,236.0,202.0,65,1,1776.6000000238419,273122.1999999285,7195,bronze,NF,C,268395,268395,266865,267677,266865,268642,268192,268192,268642,47
45,test,1,con,1,m,Mon Sep 15 2025 13:57:31 GMT-0500 (Central Daylight Time),276946.6999999285,iron,1000,I,m,m,None,501,288.0,213.0,107,1,2044.6000000238419,274902.09999990463,7195,iron,NF,C,270391,270391,268645,269660,268645,270690,270177,270177,270690,48
46,test,1,con,1,m,Mon Sep 15 2025 13:57:31 GMT-0500 (Central Daylight Time),278929.1999999285,copper,1000,I,m,m,None,439,240.0,199.0,75,1,1978.7999999523163,276950.39999997616,7195,copper,NF,C,272424,272424,270693,271707,270694,272672,272224,272224,272672,49
47,test,1,inc,1,m,Mon Sep 15 2025 13:57:31 GMT-0500 (Central Daylight Time),281029.39999997616,lime,800,I,m,m,None,752,552.0,200.0,101,1,2093.100000023842,278936.2999999523,7195,gold,NF,C,274207,274207,272679,273490,272680,274772,274006,274006,274772,50
48,test,1,con,1,m,Mon Sep 15 2025 13:57:31 GMT-0500 (Central Daylight Time),282996.1999999285,silver,900,I,m,m,None,518,304.0,214.0,82,1,1960.7999999523163,281035.39999997616,7195,silver,NF,C,276423,276423,274778,275689,274779,276739,276208,276208,276739,51
49,test,1,inc,1,m,Mon Sep 15 2025 13:57:31 GMT-0500 (Central Daylight Time),285160.39999997616,raisin,1100,I,m,m,None,539,339.0,200.0,72,1,2160.3000000715256,283000.09999990463,7195,bronze,NF,C,278556,278556,276743,277854,276743,278904,278356,278356,278903,52
50,test,1,inc,1,z,Mon Sep 15 2025 13:57:31 GMT-0500 (Central Daylight Time),287326.7999999523,silver,1000,I,z,z,None,641,442.0,199.0,7,1,2159.2000000476837,285167.59999990463,7195,banana,NF,C,280621,280621,278911,279921,278911,281070,280422,280422,281070,53
51,test,1,con,1,z,Mon Sep 15 2025 13:57:31 GMT-0500 (Central Daylight Time),289144.6999999285,orange,800,I,z,z,None,489,276.0,213.0,17,1,1810.3999999761581,287334.2999999523,7195,orange,NF,C,282603,282603,281077,281887,281078,282888,282389,282389,282888,54
52,test,1,con,1,z,Mon Sep 15 2025 13:57:31 GMT-0500 (Central Daylight Time),290976.1999999285,lime,800,I,z,z,None,499,299.0,200.0,33,1,1827.7999999523163,289148.39999997616,7195,lime,NF,C,284420,284420,282891,283705,282892,284719,284219,284219,284719,55
53,test,1,inc,1,m,Mon Sep 15 2025 13:57:31 GMT-0500 (Central Daylight Time),293225.1999999285,plum,1100,I,m,m,None,631,432.0,199.0,120,1,2240.600000023842,290984.59999990463,7195,zinc,NF,C,286536,286536,284728,285835,284728,286968,286337,286337,286968,56
54,test,1,inc,1,z,Mon Sep 15 2025 13:57:31 GMT-0500 (Central Daylight Time),295107.39999997616,gold,800,I,z,z,None,543,329.0,214.0,53,1,1875.8000000715256,293231.59999990463,7195,kiwi,NF,C,288519,288519,286975,287787,286975,288851,288304,288304,288850,57
55,test,1,con,1,m,Mon Sep 15 2025 13:57:31 GMT-0500 (Central Daylight Time),297356.89999997616,zinc,1100,I,m,m,None,617,418.0,199.0,116,1,2242.2000000476837,295114.6999999285,7195,zinc,NF,C,290669,290669,288858,289967,288858,291100,290469,290469,291100,58
56,test,1,inc,1,z,Mon Sep 15 2025 13:57:31 GMT-0500 (Central Daylight Time),299306.59999990463,copper,900,I,z,z,None,498,299.0,199.0,30,1,1943.0,297363.59999990463,7195,raisin,NF,C,292735,292735,291107,292019,291107,293050,292536,292536,293050,59
57,test,1,inc,1,m,Mon Sep 15 2025 13:57:31 GMT-0500 (Central Daylight Time),301439.5,kiwi,1000,I,m,m,None,591,392.0,199.0,103,1,2126.600000023842,299312.89999997616,7195,gold,NF,C,294783,294783,293056,294067,293056,295183,294584,294584,295182,60
58,test,1,con,1,m,Mon Sep 15 2025 13:57:31 GMT-0500 (Central Daylight Time),303638.7999999523,cobalt,900,I,m,m,None,749,534.0,215.0,90,1,2194.600000023842,301444.1999999285,7195,cobalt,NF,C,296832,296832,295187,296100,295188,297382,296616,296617,297382,61
59,test,1,inc,1,z,Mon Sep 15 2025 13:57:31 GMT-0500 (Central Daylight Time),305922.7999999523,silver,1000,I,z,z,None,740,540.0,200.0,23,1,2281.0,303641.7999999523,7195,orange,NF,C,299116,299116,297385,298398,297385,299666,298915,298915,299666,62
60,test,1,inc,1,m,Mon Sep 15 2025 13:57:31 GMT-0500 (Central Daylight Time),307819.89999997616,cherry,900,I,m,m,None,459,260.0,199.0,94,1,1891.2000000476837,305928.6999999285,7195,cobalt,NF,C,301298,301298,299672,300582,299672,301563,301098,301098,301563,63
61,test,1,inc,1,m,Mon Sep 15 2025 13:57:31 GMT-0500 (Central Daylight Time),309686.7999999523,lime,800,I,m,m,None,533,334.0,199.0,109,1,1864.2000000476837,307822.59999990463,7195,iron,NF,C,303081,303081,301566,302381,301566,303430,302882,302882,303430,64
62,test,1,inc,1,m,Mon Sep 15 2025 13:57:31 GMT-0500 (Central Daylight Time),311485.59999990463,banana,800,I,m,m,None,458,259.0,199.0,93,1,1795.2999999523163,309690.2999999523,7195,cobalt,NF,C,304963,304963,303433,304247,303434,305229,304764,304764,305229,65
63,test,1,con,1,z,Mon Sep 15 2025 13:57:31 GMT-0500 (Central Daylight Time),313504.39999997616,pear,1000,I,z,z,None,467,268.0,199.0,43,1,2016.2000000476837,311488.1999999285,7195,pear,NF,C,306962,306963,305231,306247,305231,307247,306763,306763,307247,66
64,test,1,con,1,z,Mon Sep 15 2025 13:57:31 GMT-0500 (Central Daylight Time),315651.59999990463,plum,1000,I,z,z,None,603,404.0,199.0,59,1,2142.0999999046326,313509.5,7195,plum,NF,C,308979,308979,307253,308262,307253,309395,308779,308779,309395,67
65,test,1,inc,1,m,Mon Sep 15 2025 13:57:31 GMT-0500 (Central Daylight Time),317566.6999999285,cherry,900,I,m,m,None,468,267.0,201.0,70,1,1908.3999999761581,315658.2999999523,7195,bronze,NF,C,311028,311028,309401,310312,309402,311310,310827,310827,311310,68
66,test,1,inc,1,m,Mon Sep 15 2025 13:57:31 GMT-0500 (Central Daylight Time),319499.0,cherry,900,I,m,m,None,496,295.0,201.0,86,1,1924.5,317574.5,7195,silver,NF,C,312943,312943,311318,312226,311318,313242,312742,312742,313242,69
67,test,1,inc,1,m,Mon Sep 15 2025 13:57:31 GMT-0500 (Central Daylight Time),321382.59999990463,cherry,900,I,m,m,None,436,236.0,200.0,78,1,1880.6999999284744,319501.89999997616,7195,copper,NF,C,314875,314875,313245,314158,313245,315126,314675,314675,315126,70
68,test,1,con,1,m,Mon Sep 15 2025 13:57:31 GMT-0500 (Central Daylight Time),323417.39999997616,copper,1100,I,m,m,None,400,199.0,201.0,76,1,2028.6000000238419,321388.7999999523,7195,copper,NF,C,316947,316947,315132,316243,315132,317160,316745,316745,317160,71
69,test,1,inc,1,m,Mon Sep 15 2025 13:57:31 GMT-0500 (Central Daylight Time),325414.59999990463,raisin,1100,I,m,m,None,374,175.0,199.0,80,1,1994.5999999046326,323420.0,7195,copper,NF,C,318977,318977,317163,318276,317163,319158,318778,318778,319158,72
70,test,1,inc,1,z,Mon Sep 15 2025 13:57:31 GMT-0500 (Central Daylight Time),327214.1999999285,gold,800,I,z,z,None,453,253.0,200.0,61,1,1796.1999999284744,325418.0,7195,plum,NF,C,320690,320690,319161,319976,319161,320957,320490,320490,320957,73
71,test,1,inc,1,z,Mon Sep 15 2025 13:57:31 GMT-0500 (Central Daylight Time),329282.09999990463,copper,900,I,z,z,None,649,450.0,199.0,14,1,2061.0,327221.09999990463,7195,cherry,NF,C,322575,322575,320964,321874,320964,323025,322375,322375,323025,74
72,test,1,inc,1,z,Mon Sep 15 2025 13:57:31 GMT-0500 (Central Daylight Time),331230.5,silver,1000,I,z,z,None,401,199.0,202.0,31,1,1941.5,329289.0,7195,raisin,NF,C,324760,324760,323032,324041,323032,324974,324558,324558,324974,75
73,test,1,con,1,m,Mon Sep 15 2025 13:57:31 GMT-0500 (Central Daylight Time),333412.5,iron,1100,I,m,m,None,533,334.0,199.0,108,1,2177.3000000715256,331235.1999999285,7195,iron,NF,C,326809,326809,324978,326091,324979,327156,326609,326609,327156,76
74,test,1,inc,1,m,Mon Sep 15 2025 13:57:31 GMT-0500 (Central Daylight Time),335444.6999999285,pear,900,I,m,m,None,593,394.0,199.0,102,1,2026.8999999761581,333417.7999999523,7195,gold,NF,C,328790,328790,327161,328073,327161,329188,328590,328590,329188,77
75,test,1,con,1,m,Mon Sep 15 2025 13:57:31 GMT-0500 (Central Daylight Time),337363.5,silver,1000,I,m,m,None,384,184.0,200.0,83,1,1914.3000000715256,335449.1999999285,7195,silver,NF,C,330922,330922,329192,330206,329192,331107,330721,330722,331107,78
76,test,1,con,1,z,Mon Sep 15 2025 13:57:31 GMT-0500 (Central Daylight Time),339361.09999990463,raisin,1000,I,z,z,None,449,248.0,201.0,27,1,1991.8999999761581,337369.1999999285,7195,raisin,NF,C,332840,332840,331112,332122,331112,333104,332637,332638,333104,79
77,test,1,con,1,z,Mon Sep 15 2025 13:57:31 GMT-0500 (Central Daylight Time),341161.7999999523,plum,900,I,z,z,None,367,168.0,199.0,58,1,1797.6000000238419,339364.1999999285,7195,plum,NF,C,334737,334737,333107,334021,333107,334905,334538,334538,334905,80
78,test,1,con,1,m,Mon Sep 15 2025 13:57:31 GMT-0500 (Central Daylight Time),342960.89999997616,cobalt,800,I,m,m,None,447,233.0,214.0,89,1,1793.8999999761581,341167.0,7195,cobalt,NF,C,336454,336454,334910,335721,334910,336704,336239,336239,336704,81
79,test,1,con,1,z,Mon Sep 15 2025 13:57:31 GMT-0500 (Central Daylight Time),344725.1999999285,pear,900,I,z,z,None,343,127.0,216.0,42,1,1760.5,342964.6999999285,7195,pear,NF,C,338337,338337,336708,337619,336708,338468,338120,338120,338468,82
80,test,1,con,1,m,Mon Sep 15 2025 13:57:31 GMT-0500 (Central Daylight Time),346544.2999999523,zinc,1000,I,m,m,None,284,85.0,199.0,115,1,1814.7000000476837,344729.59999990463,7195,zinc,NF,C,340202,340202,338473,339487,338473,340287,340003,340003,340287,83
81,test,1,con,1,m,Mon Sep 15 2025 13:57:31 GMT-0500 (Central Daylight Time),348224.59999990463,gold,800,I,m,m,None,350,148.0,202.0,97,1,1675.5999999046326,346549.0,7195,gold,NF,C,341819,341819,340292,341104,340292,341968,341617,341617,341968,84
82,test,1,inc,1,z,Mon Sep 15 2025 13:57:31 GMT-0500 (Central Daylight Time),350391.6999999285,cobalt,1100,I,z,z,None,524,325.0,199.0,8,1,2163.100000023842,348228.59999990463,7195,banana,NF,C,343802,343802,341972,343085,341972,344135,343601,343602,344135,85
83,test,1,inc,1,m,Mon Sep 15 2025 13:57:31 GMT-0500 (Central Daylight Time),352225.7999999523,lime,800,I,m,m,None,501,302.0,199.0,117,1,1829.1000000238419,350396.6999999285,7195,zinc,NF,C,345667,345667,344140,344952,344140,345969,345468,345468,345969,86
84,test,1,con,1,z,Mon Sep 15 2025 13:57:31 GMT-0500 (Central Daylight Time),354290.7999999523,kiwi,1000,I,z,z,None,523,323.0,200.0,51,1,2061.100000023842,352229.6999999285,7195,kiwi,NF,C,347700,347700,345973,346984,345973,348034,347500,347500,348034,87
85,test,1,inc,1,m,Mon Sep 15 2025 13:57:31 GMT-0500 (Central Daylight Time),356273.5,orange,1000,I,m,m,None,449,250.0,199.0,71,1,1979.8000000715256,354293.6999999285,7195,bronze,NF,C,349766,349766,348037,349050,348037,350017,349566,349566,350017,88
85,test,1,inc,0,z,Mon Sep 15 2025 13:57:31 GMT-0500 (Central Daylight Time),358455.59999990463,lead,1100,I,m,m,None,536,335.0,201.0,64,1,2177.5999999046326,356278.0,7195,plum,NF,C,351849,351849,350021,351133,350021,352199,351648,351648,352199,89
86,test,1,inc,1,m,Mon Sep 15 2025 13:57:31 GMT-0500 (Central Daylight Time),360521.5,raisin,1100,I,m,m,None,447,248.0,199.0,96,1,2061.0,358460.5,7195,cobalt,NF,C,354016,354016,352204,353314,352204,354265,353816,353816,354264,90
87,test,1,inc,1,m,Mon Sep 15 2025 13:57:31 GMT-0500 (Central Daylight Time),362703.39999997616,kiwi,1000,I,m,m,None,633,433.0,200.0,119,1,2175.600000023842,360527.7999999523,7195,zinc,NF,C,355998,355998,354271,355282,354271,356446,355797,355797,356446,91
88,test,1,con,1,m,Mon Sep 15 2025 13:57:31 GMT-0500 (Central Daylight Time),364702.6999999285,zinc,800,I,m,m,None,660,460.0,200.0,113,1,1994.5,362708.1999999285,7195,zinc,NF,C,357979,357980,356451,357263,356452,358446,357779,357779,358446,92
89,test,1,con,1,z,Mon Sep 15 2025 13:57:31 GMT-0500 (Central Daylight Time),366868.59999990463,cherry,1100,I,z,z,None,528,329.0,199.0,12,1,2160.6999999284744,364707.89999997616,7195,cherry,NF,C,360279,360279,358451,359563,358451,360612,360080,360080,360612,93
90,test,1,con,1,m,Mon Sep 15 2025 13:57:31 GMT-0500 (Central Daylight Time),369035.2999999523,bronze,1100,I,m,m,None,521,322.0,199.0,68,1,2161.0,366874.2999999523,7195,bronze,NF,C,362445,362445,360617,361730,360618,362778,362245,362246,362778,94
91,test,1,con,1,m,Mon Sep 15 2025 13:57:31 GMT-0500 (Central Daylight Time),371083.7999999523,copper,900,I,m,m,None,616,404.0,212.0,74,1,2045.3999999761581,369038.39999997616,7195,copper,NF,C,364411,364411,362781,363696,362782,364827,364198,364198,364827,95
92,test,1,con,1,z,Mon Sep 15 2025 13:57:31 GMT-0500 (Central Daylight Time),373266.39999997616,banana,1000,I,z,z,None,648,448.0,200.0,3,1,2180.0,371086.39999997616,7195,banana,NF,C,366545,366545,364829,365843,364830,367010,366344,366344,367009,96
93,test,1,inc,1,m,Mon Sep 15 2025 13:57:31 GMT-0500 (Central Daylight Time),375331.59999990463,pear,900,I,m,m,None,616,404.0,212.0,126,1,2058.899999976158,373272.6999999285,7195,lead,NF,C,368659,368659,367016,367927,367016,369075,368447,368447,369075,97
94,test,1,inc,1,z,Mon Sep 15 2025 13:57:31 GMT-0500 (Central Daylight Time),377414.09999990463,copper,900,I,z,z,None,642,441.0,201.0,22,1,2078.0,375336.09999990463,7195,orange,NF,C,370710,370710,369079,369993,369079,371157,370509,370509,371157,98
95,test,1,con,1,z,Mon Sep 15 2025 13:57:31 GMT-0500 (Central Daylight Time),379347.39999997616,banana,800,I,z,z,None,600,387.0,213.0,1,1,1929.1000000238419,377418.2999999523,7195,banana,NF,C,372692,372692,371161,371976,371162,373090,372478,372478,373090,99
96,test,1,inc,1,m,Mon Sep 15 2025 13:57:31 GMT-0500 (Central Daylight Time),381230.6999999285,banana,800,I,m,m,None,551,349.0,202.0,85,1,1878.1999999284744,379352.5,7195,silver,NF,C,374610,374610,373096,373907,373096,374974,374408,374408,374974,100
97,test,1,inc,1,z,Mon Sep 15 2025 13:57:31 GMT-0500 (Central Daylight Time),383413.09999990463,cobalt,1100,I,z,z,None,543,343.0,200.0,16,1,2176.2999999523163,381236.7999999523,7195,cherry,NF,C,376808,376808,374980,376090,374980,377156,376608,376608,377156,101
98,test,1,inc,1,m,Mon Sep 15 2025 13:57:31 GMT-0500 (Central Daylight Time),385498.39999997616,plum,1100,I,m,m,None,450,251.0,199.0,112,1,2078.5,383419.89999997616,7195,iron,NF,C,378990,378990,377163,378274,377163,379242,378791,378791,379241,102
99,test,1,con,1,z,Mon Sep 15 2025 13:57:31 GMT-0500 (Central Daylight Time),387314.5,lime,900,I,z,z,None,383,184.0,199.0,34,1,1810.3000000715256,385504.1999999285,7195,lime,NF,C,380873,380873,379247,380156,379248,381058,380673,380673,381058,103
100,test,1,con,1,m,Mon Sep 15 2025 13:57:31 GMT-0500 (Central Daylight Time),389445.09999990463,lead,1000,I,m,m,None,596,394.0,202.0,123,1,2124.1999999284744,387320.89999997616,7195,lead,NF,C,382790,382790,381064,382072,381064,383188,382588,382588,383188,104
101,test,1,con,1,z,Mon Sep 15 2025 13:57:31 GMT-0500 (Central Daylight Time),391693.0,kiwi,1100,I,z,z,None,609,395.0,214.0,52,1,2242.9000000953674,389450.09999990463,7195,kiwi,NF,C,385037,385037,383193,384305,383193,385436,384823,384823,385436,105
101,test,1,con,0,z,Mon Sep 15 2025 13:57:31 GMT-0500 (Central Daylight Time),393525.6999999285,cherry,900,I,m,m,None,384,185.0,199.0,10,1,1824.1000000238419,391701.59999990463,7195,cherry,NF,C,387070,387070,385445,386353,385445,387269,386870,386870,387269,106
102,test,1,inc,1,z,Mon Sep 15 2025 13:57:31 GMT-0500 (Central Daylight Time),395910.09999990463,lead,1100,I,z,z,None,758,545.0,213.0,40,1,2376.6999999284744,393533.39999997616,7195,lime,NF,C,389102,389102,387276,388386,387277,389653,388888,388888,389653,107
103,test,1,inc,1,m,Mon Sep 15 2025 13:57:31 GMT-0500 (Central Daylight Time),398092.09999990463,pear,900,I,m,m,None,737,538.0,199.0,110,1,2175.1999999284744,395916.89999997616,7195,iron,NF,C,391285,391285,389660,390568,389660,391835,391085,391085,391835,108
104,test,1,con,1,z,Mon Sep 15 2025 13:57:31 GMT-0500 (Central Daylight Time),400292.39999997616,lime,1000,I,z,z,None,654,454.0,200.0,35,1,2193.5,398098.89999997616,7195,lime,NF,C,393568,393569,391842,392851,391842,394036,393368,393368,394035,109
105,test,1,inc,1,z,Mon Sep 15 2025 13:57:31 GMT-0500 (Central Daylight Time),402373.6999999285,zinc,1000,I,z,z,None,544,345.0,199.0,39,1,2073.5,400300.1999999285,7195,lime,NF,C,395767,395767,394043,395051,394044,396117,395567,395567,396117,110
106,test,1,con,1,z,Mon Sep 15 2025 13:57:31 GMT-0500 (Central Daylight Time),404538.89999997616,kiwi,900,I,z,z,None,721,521.0,200.0,50,1,2159.8000000715256,402379.09999990463,7195,kiwi,NF,C,397749,397750,396122,397035,396122,398282,397549,397549,398282,111
107,test,1,con,1,m,Mon Sep 15 2025 13:57:31 GMT-0500 (Central Daylight Time),406773.0,gold,1100,I,m,m,None,587,387.0,200.0,100,1,2225.3000000715256,404547.6999999285,7195,gold,NF,C,400116,400116,398291,399399,398291,400516,399915,399915,400516,112
108,test,1,con,1,m,Mon Sep 15 2025 13:57:31 GMT-0500 (Central Daylight Time),408671.1999999285,iron,800,I,m,m,None,549,350.0,199.0,105,1,1890.6999999284744,406780.5,7195,iron,NF,C,402049,402049,400524,401333,400524,402414,401849,401849,402414,113
109,test,1,con,1,z,Mon Sep 15 2025 13:57:31 GMT-0500 (Central Daylight Time),410654.6999999285,banana,900,I,z,z,None,542,343.0,199.0,2,1,1976.0,408678.6999999285,7195,banana,NF,C,404047,404048,402422,403331,402422,404398,403847,403848,404398,114
110,test,1,con,1,z,Mon Sep 15 2025 13:57:31 GMT-0500 (Central Daylight Time),412586.6999999285,cherry,800,I,z,z,None,597,396.0,201.0,9,1,1922.5,410664.1999999285,7195,cherry,NF,C,405931,405931,404407,405214,404408,406330,405730,405730,406330,115
111,test,1,inc,1,z,Mon Sep 15 2025 13:57:31 GMT-0500 (Central Daylight Time),414737.0,silver,1000,I,z,z,None,607,407.0,200.0,15,1,2140.2000000476837,412596.7999999523,7195,cherry,NF,C,408064,408064,406340,407346,406340,408480,407863,407863,408480,116
112,test,1,con,1,m,Mon Sep 15 2025 13:57:31 GMT-0500 (Central Daylight Time),416701.7999999523,gold,900,I,m,m,None,518,319.0,199.0,98,1,1956.3999999761581,414745.39999997616,7195,gold,NF,C,410112,410112,408488,409396,408489,410445,409912,409912,410445,117
113,test,1,inc,1,z,Mon Sep 15 2025 13:57:31 GMT-0500 (Central Daylight Time),418634.39999997616,copper,900,I,z,z,None,495,295.0,200.0,6,1,1924.1000000238419,416710.2999999523,7195,banana,NF,C,412080,412080,410453,411368,410454,412377,411879,411879,412377,118
114,test,1,inc,1,z,Mon Sep 15 2025 13:57:31 GMT-0500 (Central Daylight Time),420768.39999997616,zinc,1000,I,z,z,None,586,384.0,202.0,63,1,2126.8000000715256,418641.59999990463,7195,plum,NF,C,414112,414112,412385,413394,412385,414512,413910,413910,414511,119
115,test,1,con,1,z,Mon Sep 15 2025 13:57:31 GMT-0500 (Central Daylight Time),422899.7999999523,orange,900,I,z,z,None,709,510.0,199.0,18,1,2126.5,420773.2999999523,7195,orange,NF,C,416129,416129,414516,415427,414517,416643,415929,415929,416643,120
116,test,1,con,1,z,Mon Sep 15 2025 13:57:31 GMT-0500 (Central Daylight Time),425001.1999999285,plum,1100,I,z,z,None,452,252.0,200.0,60,1,2094.1999999284744,422907.0,7195,plum,NF,C,418476,418476,416650,417760,416650,418744,418276,418276,418744,121
117,test,1,inc,1,m,Mon Sep 15 2025 13:57:31 GMT-0500 (Central Daylight Time),427099.2999999523,orange,1000,I,m,m,None,562,363.0,199.0,79,1,2091.899999976158,425007.39999997616,7195,copper,NF,C,420476,420476,418750,419761,418751,420842,420277,420277,420842,122
118,test,1,inc,1,z,Mon Sep 15 2025 13:57:31 GMT-0500 (Central Daylight Time),428882.7999999523,bronze,800,I,z,z,None,448,249.0,199.0,13,1,1778.3999999761581,427104.39999997616,7195,cherry,NF,C,422376,422376,420847,421660,420848,422626,422177,422177,422626,123
119,test,1,inc,1,z,Mon Sep 15 2025 13:57:31 GMT-0500 (Central Daylight Time),430813.89999997616,iron,900,I,z,z,None,492,276.0,216.0,46,1,1924.8999999761581,428889.0,7195,pear,NF,C,424276,424276,422632,423543,422632,424557,424059,424059,424557,124
120,test,1,inc,1,z,Mon Sep 15 2025 13:57:31 GMT-0500 (Central Daylight Time),432831.6999999285,iron,900,I,z,z,None,576,377.0,199.0,38,1,2011.1000000238419,430820.59999990463,7195,lime,NF,C,426191,426191,424564,425476,424564,426575,425992,425992,426575,125
121,test,1,inc,1,z,Mon Sep 15 2025 13:57:31 GMT-0500 (Central Daylight Time),434882.39999997616,lead,1100,I,z,z,None,432,217.0,215.0,48,1,2046.2000000476837,432836.1999999285,7195,pear,NF,C,428408,428408,426579,427690,426580,428625,428192,428192,428625,126
121,test,1,inc,0,z,Mon Sep 15 2025 13:57:31 GMT-0500 (Central Daylight Time),436812.2999999523,zinc,1000,I,m,m,None,394,195.0,199.0,55,1,1925.5,434886.7999999523,7195,kiwi,NF,C,430357,430357,428630,429640,428630,430555,430157,430157,430555,127
122,test,1,inc,1,m,Mon Sep 15 2025 13:57:31 GMT-0500 (Central Daylight Time),439095.6999999285,raisin,1100,I,m,m,None,656,443.0,213.0,88,1,2276.1999999284744,436819.5,7195,silver,NF,C,432388,432389,430563,431672,430563,432839,432175,432175,432839,128
