acc_sum,block,block_c,block_cond,con_img,correct,correct_response,datetime,endtime,face,jitter,line,project,response,response_time,row_sel,session_number,start_end,starttime,subject_id,task,task_vers,trial
1,prac,1,A,haborder.png,1,z,Fri May 30 2025 10:34:34 GMT-0500 (Central Daylight Time),46679.09999999404,CFD-WM-009-009-A.jpg,1900,solid,I,z,984,8,3,3681.899999976158,42997.20000001788,8003,ATS,B,1
2,prac,1,A,haborder.png,1,z,Fri May 30 2025 10:34:34 GMT-0500 (Central Daylight Time),49329.09999999404,CFD-WF-013-015-A.jpg,1000,solid,I,z,858,12,3,6331.899999976158,42997.20000001788,8003,ATS,B,2
3,prac,1,A,haborder.png,1,m,Fri May 30 2025 10:34:34 GMT-0500 (Central Daylight Time),52260.90000000596,CFD-WM-011-006-HC.jpg,1400,solid,I,m,736,7,3,9263.699999988079,42997.20000001788,8003,ATS,B,3
4,prac,1,A,haborder.png,1,m,Fri May 30 2025 10:34:34 GMT-0500 (Central Daylight Time),55603.40000000596,CFD-BF-035-007-HC.jpg,2000,solid,I,m,532,5,3,12606.199999988079,42997.20000001788,8003,ATS,B,4
5,prac,1,A,haborder.png,1,m,Fri May 30 2025 10:34:34 GMT-0500 (Central Daylight Time),58859.0,CFD-WM-012-007-HC.jpg,1700,solid,I,m,763,9,3,15861.799999982119,42997.20000001788,8003,ATS,B,5
6,prac,1,A,haborder.png,1,m,Fri May 30 2025 10:34:34 GMT-0500 (Central Daylight Time),61641.40000000596,CFD-WF-011-006-HC.jpg,1500,solid,I,m,499,11,3,18644.19999998808,42997.20000001788,8003,ATS,B,6
7,prac,1,A,haborder.png,1,z,Fri May 30 2025 10:34:34 GMT-0500 (Central Daylight Time),64640.40000000596,CFD-BM-037-041-A.jpg,1600,solid,I,z,608,2,3,21643.19999998808,42997.20000001788,8003,ATS,B,7
8,prac,1,A,haborder.png,1,z,Fri May 30 2025 10:34:34 GMT-0500 (Central Daylight Time),67622.90000000596,CFD-WF-026-008-A.jpg,1600,solid,I,z,593,10,3,24625.69999998808,42997.20000001788,8003,ATS,B,8
9,prac,1,A,haborder.png,1,z,Fri May 30 2025 10:34:34 GMT-0500 (Central Daylight Time),70288.90000000596,CFD-BF-050-012-A.jpg,1200,solid,I,z,682,6,3,27291.69999998808,42997.20000001788,8003,ATS,B,9
10,prac,1,A,haborder.png,1,m,Fri May 30 2025 10:34:34 GMT-0500 (Central Daylight Time),73587.80000001192,CFD-BM-015-017-HC.jpg,1700,solid,I,m,813,1,3,30590.59999999404,42997.20000001788,8003,ATS,B,10
11,prac,1,A,haborder.png,1,z,Fri May 30 2025 10:34:34 GMT-0500 (Central Daylight Time),76037.0,CFD-BF-051-043-A.jpg,1000,solid,I,z,661,4,3,33039.79999998212,42997.20000001788,8003,ATS,B,11
12,prac,1,A,haborder.png,1,m,Fri May 30 2025 10:34:34 GMT-0500 (Central Daylight Time),79147.0,CFD-BM-020-024-HC.jpg,1500,solid,I,m,704,3,3,36149.79999998212,42997.20000001788,8003,ATS,B,12
1,prac,1,B,mfborder.png,1,z,Fri May 30 2025 10:34:34 GMT-0500 (Central Daylight Time),102362.0,CFD-BF-051-043-A.jpg,1000,dash,I,z,714,4,3,2499.199999988079,99862.80000001192,8003,ATS,B,1
2,prac,1,B,mfborder.png,1,m,Fri May 30 2025 10:34:34 GMT-0500 (Central Daylight Time),105177.59999999404,CFD-WM-037-060-A.jpg,1200,dash,I,m,823,6,3,5314.799999982119,99862.80000001192,8003,ATS,B,2
3,prac,1,B,mfborder.png,1,z,Fri May 30 2025 10:34:34 GMT-0500 (Central Daylight Time),107943.20000001788,CFD-BF-027-013-HC.jpg,1500,dash,I,z,467,3,3,8080.4000000059605,99862.80000001192,8003,ATS,B,3
4,prac,1,B,mfborder.png,1,z,Fri May 30 2025 10:34:34 GMT-0500 (Central Daylight Time),110426.20000001788,CFD-WF-011-006-HC.jpg,1000,dash,I,z,690,12,3,10563.40000000596,99862.80000001192,8003,ATS,B,4
5,prac,1,B,mfborder.png,1,z,Fri May 30 2025 10:34:34 GMT-0500 (Central Daylight Time),113358.5,CFD-BF-035-007-HC.jpg,1400,dash,I,z,735,7,3,13495.699999988079,99862.80000001192,8003,ATS,B,5
6,prac,1,B,mfborder.png,1,m,Fri May 30 2025 10:34:34 GMT-0500 (Central Daylight Time),116374.30000001192,CFD-WM-012-007-HC.jpg,1600,dash,I,m,619,10,3,16511.5,99862.80000001192,8003,ATS,B,6
7,prac,1,B,mfborder.png,1,m,Fri May 30 2025 10:34:34 GMT-0500 (Central Daylight Time),119673.20000001788,CFD-BM-037-041-A.jpg,2000,dash,I,m,500,5,3,19810.40000000596,99862.80000001192,8003,ATS,B,7
8,prac,1,B,mfborder.png,1,m,Fri May 30 2025 10:34:34 GMT-0500 (Central Daylight Time),122622.30000001192,CFD-BM-041-048-A.jpg,1600,dash,I,m,552,2,3,22759.5,99862.80000001192,8003,ATS,B,8
9,prac,1,B,mfborder.png,1,m,Fri May 30 2025 10:34:34 GMT-0500 (Central Daylight Time),125689.09999999404,CFD-BM-020-024-HC.jpg,1700,dash,I,m,567,1,3,25826.29999998212,99862.80000001192,8003,ATS,B,9
10,prac,1,B,mfborder.png,1,z,Fri May 30 2025 10:34:34 GMT-0500 (Central Daylight Time),128903.59999999404,CFD-WF-027-007-HC.jpg,1900,dash,I,z,525,8,3,29040.79999998212,99862.80000001192,8003,ATS,B,10
11,prac,1,B,mfborder.png,1,z,Fri May 30 2025 10:34:34 GMT-0500 (Central Daylight Time),131802.70000001788,CFD-WF-026-008-A.jpg,1500,dash,I,z,614,11,3,31939.90000000596,99862.80000001192,8003,ATS,B,11
12,prac,1,B,mfborder.png,1,m,Fri May 30 2025 10:34:34 GMT-0500 (Central Daylight Time),134885.20000001788,CFD-WM-009-009-A.jpg,1700,dash,I,m,586,9,3,35022.40000000596,99862.80000001192,8003,ATS,B,12
1,test,1,A,haborder.png,1,z,Fri May 30 2025 10:34:34 GMT-0500 (Central Daylight Time),153079.40000000596,CFD-WF-026-008-A.jpg,1600,solid,I,z,699,10,3,2332.5999999940395,150746.80000001192,8003,ATS,B,1
2,test,1,A,haborder.png,1,m,Fri May 30 2025 10:34:34 GMT-0500 (Central Daylight Time),155462.20000001788,CFD-BM-015-017-HC.jpg,1700,solid,I,m,662,1,3,4715.4000000059605,150746.80000001192,8003,ATS,B,2
3,test,1,A,haborder.png,1,z,Fri May 30 2025 10:34:34 GMT-0500 (Central Daylight Time),158045.59999999404,CFD-WM-009-009-A.jpg,1900,solid,I,z,663,8,3,7298.799999982119,150746.80000001192,8003,ATS,B,3
4,test,1,A,haborder.png,1,z,Fri May 30 2025 10:34:34 GMT-0500 (Central Daylight Time),160143.80000001192,CFD-BM-037-041-A.jpg,1600,solid,I,z,473,2,3,9397.0,150746.80000001192,8003,ATS,B,4
5,test,1,A,haborder.png,1,m,Fri May 30 2025 10:34:34 GMT-0500 (Central Daylight Time),162576.40000000596,CFD-WM-012-007-HC.jpg,1700,solid,I,m,701,9,3,11829.59999999404,150746.80000001192,8003,ATS,B,5
6,test,1,A,haborder.png,1,z,Fri May 30 2025 10:34:34 GMT-0500 (Central Daylight Time),164209.0,CFD-BF-051-043-A.jpg,1000,solid,I,z,609,4,3,13462.199999988079,150746.80000001192,8003,ATS,B,6
7,test,1,A,haborder.png,1,z,Fri May 30 2025 10:34:34 GMT-0500 (Central Daylight Time),166491.90000000596,CFD-WF-026-008-A.jpg,1600,solid,I,z,656,10,3,15745.09999999404,150746.80000001192,8003,ATS,B,7
8,test,1,A,haborder.png,1,z,Fri May 30 2025 10:34:34 GMT-0500 (Central Daylight Time),168091.20000001788,CFD-WF-013-015-A.jpg,1000,solid,I,z,581,12,3,17344.40000000596,150746.80000001192,8003,ATS,B,8
9,test,1,A,haborder.png,1,m,Fri May 30 2025 10:34:34 GMT-0500 (Central Daylight Time),170024.09999999404,CFD-BM-020-024-HC.jpg,1500,solid,I,m,410,3,3,19277.29999998212,150746.80000001192,8003,ATS,B,9
10,test,1,A,haborder.png,1,m,Fri May 30 2025 10:34:34 GMT-0500 (Central Daylight Time),171906.70000001788,CFD-WM-011-006-HC.jpg,1400,solid,I,m,457,7,3,21159.90000000596,150746.80000001192,8003,ATS,B,10
11,test,1,A,haborder.png,1,m,Fri May 30 2025 10:34:34 GMT-0500 (Central Daylight Time),173872.80000001192,CFD-WF-011-006-HC.jpg,1500,solid,I,m,445,11,3,23126.0,150746.80000001192,8003,ATS,B,11
12,test,1,A,haborder.png,1,m,Fri May 30 2025 10:34:34 GMT-0500 (Central Daylight Time),176155.20000001788,CFD-BM-015-017-HC.jpg,1700,solid,I,m,565,1,3,25408.40000000596,150746.80000001192,8003,ATS,B,12
13,test,1,A,haborder.png,1,m,Fri May 30 2025 10:34:34 GMT-0500 (Central Daylight Time),178021.70000001788,CFD-WM-011-006-HC.jpg,1400,solid,I,m,446,7,3,27274.90000000596,150746.80000001192,8003,ATS,B,13
14,test,1,A,haborder.png,1,z,Fri May 30 2025 10:34:34 GMT-0500 (Central Daylight Time),180520.80000001192,CFD-WM-009-009-A.jpg,1900,solid,I,z,568,8,3,29774.0,150746.80000001192,8003,ATS,B,14
15,test,1,A,haborder.png,1,z,Fri May 30 2025 10:34:34 GMT-0500 (Central Daylight Time),182786.5,CFD-BM-037-041-A.jpg,1600,solid,I,z,633,2,3,32039.69999998808,150746.80000001192,8003,ATS,B,15
16,test,1,A,haborder.png,1,m,Fri May 30 2025 10:34:34 GMT-0500 (Central Daylight Time),184852.80000001192,CFD-WF-011-006-HC.jpg,1500,solid,I,m,546,11,3,34106.0,150746.80000001192,8003,ATS,B,16
17,test,1,A,haborder.png,1,m,Fri May 30 2025 10:34:34 GMT-0500 (Central Daylight Time),187602.0,CFD-BF-035-007-HC.jpg,2000,solid,I,m,717,5,3,36855.19999998808,150746.80000001192,8003,ATS,B,17
17,test,1,A,haborder.png,0,z,Fri May 30 2025 10:34:34 GMT-0500 (Central Daylight Time),189251.40000000596,CFD-WF-013-015-A.jpg,1000,solid,I,m,623,12,3,38504.59999999404,150746.80000001192,8003,ATS,B,18
18,test,1,A,haborder.png,1,m,Fri May 30 2025 10:34:34 GMT-0500 (Central Daylight Time),191234.09999999404,CFD-BM-020-024-HC.jpg,1500,solid,I,m,450,3,3,40487.29999998212,150746.80000001192,8003,ATS,B,19
19,test,1,A,haborder.png,1,z,Fri May 30 2025 10:34:34 GMT-0500 (Central Daylight Time),193100.20000001788,CFD-BF-050-012-A.jpg,1200,solid,I,z,648,6,3,42353.40000000596,150746.80000001192,8003,ATS,B,20
20,test,1,A,haborder.png,1,m,Fri May 30 2025 10:34:34 GMT-0500 (Central Daylight Time),195465.90000000596,CFD-WM-012-007-HC.jpg,1700,solid,I,m,633,9,3,44719.09999999404,150746.80000001192,8003,ATS,B,21
21,test,1,A,haborder.png,1,z,Fri May 30 2025 10:34:34 GMT-0500 (Central Daylight Time),197098.59999999404,CFD-BF-051-043-A.jpg,1000,solid,I,z,607,4,3,46351.79999998212,150746.80000001192,8003,ATS,B,22
22,test,1,A,haborder.png,1,m,Fri May 30 2025 10:34:34 GMT-0500 (Central Daylight Time),199664.90000000596,CFD-BF-035-007-HC.jpg,2000,solid,I,m,534,5,3,48918.09999999404,150746.80000001192,8003,ATS,B,23
23,test,1,A,haborder.png,1,z,Fri May 30 2025 10:34:34 GMT-0500 (Central Daylight Time),201514.0,CFD-BF-050-012-A.jpg,1200,solid,I,z,625,6,3,50767.19999998808,150746.80000001192,8003,ATS,B,24
1,test,1,B,mfborder.png,1,z,Fri May 30 2025 10:34:34 GMT-0500 (Central Daylight Time),214643.59999999404,CFD-WF-011-006-HC.jpg,1000,dash,I,z,686,12,3,1716.2999999821186,212927.30000001192,8003,ATS,B,1
2,test,1,B,mfborder.png,1,z,Fri May 30 2025 10:34:34 GMT-0500 (Central Daylight Time),216676.0,CFD-WF-011-006-HC.jpg,1000,dash,I,z,1014,12,3,3748.699999988079,212927.30000001192,8003,ATS,B,2
3,test,1,B,mfborder.png,1,z,Fri May 30 2025 10:34:34 GMT-0500 (Central Daylight Time),218808.90000000596,CFD-BF-035-007-HC.jpg,1400,dash,I,z,701,7,3,5881.5999999940395,212927.30000001192,8003,ATS,B,3
4,test,1,B,mfborder.png,1,m,Fri May 30 2025 10:34:34 GMT-0500 (Central Daylight Time),221024.70000001788,CFD-WM-012-007-HC.jpg,1600,dash,I,m,525,10,3,8097.4000000059605,212927.30000001192,8003,ATS,B,4
5,test,1,B,mfborder.png,1,z,Fri May 30 2025 10:34:34 GMT-0500 (Central Daylight Time),222607.59999999404,CFD-BF-051-043-A.jpg,1000,dash,I,z,557,4,3,9680.299999982119,212927.30000001192,8003,ATS,B,5
6,test,1,B,mfborder.png,1,m,Fri May 30 2025 10:34:34 GMT-0500 (Central Daylight Time),224923.5,CFD-BM-041-048-A.jpg,1600,dash,I,m,690,2,3,11996.199999988079,212927.30000001192,8003,ATS,B,6
7,test,1,B,mfborder.png,1,m,Fri May 30 2025 10:34:34 GMT-0500 (Central Daylight Time),226722.90000000596,CFD-WM-037-060-A.jpg,1200,dash,I,m,574,6,3,13795.59999999404,212927.30000001192,8003,ATS,B,7
8,test,1,B,mfborder.png,1,m,Fri May 30 2025 10:34:34 GMT-0500 (Central Daylight Time),228422.09999999404,CFD-WM-037-060-A.jpg,1200,dash,I,m,479,6,3,15494.799999982119,212927.30000001192,8003,ATS,B,8
9,test,1,B,mfborder.png,1,z,Fri May 30 2025 10:34:34 GMT-0500 (Central Daylight Time),230888.09999999404,CFD-BF-027-013-HC.jpg,1500,dash,I,z,943,3,3,17960.79999998212,212927.30000001192,8003,ATS,B,9
10,test,1,B,mfborder.png,1,z,Fri May 30 2025 10:34:34 GMT-0500 (Central Daylight Time),233020.90000000596,CFD-WF-026-008-A.jpg,1500,dash,I,z,605,11,3,20093.59999999404,212927.30000001192,8003,ATS,B,10
11,test,1,B,mfborder.png,1,m,Fri May 30 2025 10:34:34 GMT-0500 (Central Daylight Time),235404.5,CFD-BM-020-024-HC.jpg,1700,dash,I,m,664,1,3,22477.19999998808,212927.30000001192,8003,ATS,B,11
12,test,1,B,mfborder.png,1,z,Fri May 30 2025 10:34:34 GMT-0500 (Central Daylight Time),237452.90000000596,CFD-BF-035-007-HC.jpg,1400,dash,I,z,621,7,3,24525.59999999404,212927.30000001192,8003,ATS,B,12
13,test,1,B,mfborder.png,1,z,Fri May 30 2025 10:34:34 GMT-0500 (Central Daylight Time),239585.70000001788,CFD-BF-027-013-HC.jpg,1500,dash,I,z,600,3,3,26658.40000000596,212927.30000001192,8003,ATS,B,13
14,test,1,B,mfborder.png,1,z,Fri May 30 2025 10:34:34 GMT-0500 (Central Daylight Time),241184.90000000596,CFD-BF-051-043-A.jpg,1000,dash,I,z,567,4,3,28257.59999999404,212927.30000001192,8003,ATS,B,14
15,test,1,B,mfborder.png,1,z,Fri May 30 2025 10:34:34 GMT-0500 (Central Daylight Time),243717.40000000596,CFD-WF-027-007-HC.jpg,1900,dash,I,z,613,8,3,30790.09999999404,212927.30000001192,8003,ATS,B,15
16,test,1,B,mfborder.png,1,m,Fri May 30 2025 10:34:34 GMT-0500 (Central Daylight Time),246066.80000001192,CFD-WM-009-009-A.jpg,1700,dash,I,m,624,9,3,33139.5,212927.30000001192,8003,ATS,B,16
17,test,1,B,mfborder.png,1,m,Fri May 30 2025 10:34:34 GMT-0500 (Central Daylight Time),248216.30000001192,CFD-WM-012-007-HC.jpg,1600,dash,I,m,519,10,3,35289.0,212927.30000001192,8003,ATS,B,17
18,test,1,B,mfborder.png,1,m,Fri May 30 2025 10:34:34 GMT-0500 (Central Daylight Time),250365.40000000596,CFD-BM-041-048-A.jpg,1600,dash,I,m,521,2,3,37438.09999999404,212927.30000001192,8003,ATS,B,18
19,test,1,B,mfborder.png,1,z,Fri May 30 2025 10:34:34 GMT-0500 (Central Daylight Time),252481.0,CFD-WF-026-008-A.jpg,1500,dash,I,z,592,11,3,39553.69999998808,212927.30000001192,8003,ATS,B,19
20,test,1,B,mfborder.png,1,m,Fri May 30 2025 10:34:34 GMT-0500 (Central Daylight Time),254814.20000001788,CFD-BM-020-024-HC.jpg,1700,dash,I,m,612,1,3,41886.90000000596,212927.30000001192,8003,ATS,B,20
21,test,1,B,mfborder.png,1,z,Fri May 30 2025 10:34:34 GMT-0500 (Central Daylight Time),257413.40000000596,CFD-WF-027-007-HC.jpg,1900,dash,I,z,679,8,3,44486.09999999404,212927.30000001192,8003,ATS,B,21
22,test,1,B,mfborder.png,1,m,Fri May 30 2025 10:34:34 GMT-0500 (Central Daylight Time),259845.80000001192,CFD-WM-009-009-A.jpg,1700,dash,I,m,712,9,3,46918.5,212927.30000001192,8003,ATS,B,22
23,test,1,B,mfborder.png,1,m,Fri May 30 2025 10:34:34 GMT-0500 (Central Daylight Time),262428.3000000119,CFD-BM-037-041-A.jpg,2000,dash,I,m,555,5,3,49501.0,212927.30000001192,8003,ATS,B,23
24,test,1,B,mfborder.png,1,m,Fri May 30 2025 10:34:34 GMT-0500 (Central Daylight Time),264994.09999999404,CFD-BM-037-041-A.jpg,2000,dash,I,m,533,5,3,52066.79999998212,212927.30000001192,8003,ATS,B,24
1,6,1,C,mfborder.png,1,m,Fri May 30 2025 10:34:34 GMT-0500 (Central Daylight Time),302532.5,CFD-WM-009-009-A.jpg,1700,solid,I,m,1487,prac,3,3982.199999988079,298550.3000000119,8003,ATS,B,1
2,5,1,C,mfborder.png,1,m,Fri May 30 2025 10:34:34 GMT-0500 (Central Daylight Time),305348.2000000179,CFD-BM-037-041-A.jpg,1200,dash,I,m,829,prac,3,6797.9000000059605,298550.3000000119,8003,ATS,B,2
3,2,1,C,mfborder.png,1,z,Fri May 30 2025 10:34:34 GMT-0500 (Central Daylight Time),308380.8000000119,CFD-WF-013-015-A.jpg,1500,solid,I,z,745,prac,3,9830.5,298550.3000000119,8003,ATS,B,3
4,12,1,C,haborder.png,1,m,Fri May 30 2025 10:34:34 GMT-0500 (Central Daylight Time),311379.7000000179,CFD-WM-011-006-HC.jpg,1400,solid,I,m,813,prac,3,12829.40000000596,298550.3000000119,8003,ATS,B,4
5,9,1,C,haborder.png,1,z,Fri May 30 2025 10:34:34 GMT-0500 (Central Daylight Time),314644.59999999404,CFD-WF-026-008-A.jpg,1600,dash,I,z,806,prac,3,16094.299999982119,298550.3000000119,8003,ATS,B,5
6,4,1,C,mfborder.png,1,m,Fri May 30 2025 10:34:34 GMT-0500 (Central Daylight Time),318360.59999999404,CFD-BM-015-017-HC.jpg,2000,solid,I,m,932,prac,3,19810.29999998212,298550.3000000119,8003,ATS,B,6
6,10,1,C,haborder.png,0,m,Fri May 30 2025 10:34:34 GMT-0500 (Central Daylight Time),321659.8000000119,CFD-BM-020-024-HC.jpg,1500,solid,I,z,1013,prac,3,23109.5,298550.3000000119,8003,ATS,B,7
7,11,1,C,haborder.png,1,m,Fri May 30 2025 10:34:34 GMT-0500 (Central Daylight Time),324625.7000000179,CFD-WM-011-006-HC.jpg,1000,dash,I,m,1173,prac,3,26075.40000000596,298550.3000000119,8003,ATS,B,8
8,8,1,C,haborder.png,1,z,Fri May 30 2025 10:34:34 GMT-0500 (Central Daylight Time),328074.3000000119,CFD-BF-050-012-A.jpg,1700,solid,I,z,954,prac,3,29524.0,298550.3000000119,8003,ATS,B,9
9,1,1,C,mfborder.png,1,z,Fri May 30 2025 10:34:34 GMT-0500 (Central Daylight Time),331307.0,CFD-WF-011-006-HC.jpg,1600,dash,I,z,839,prac,3,32756.69999998808,298550.3000000119,8003,ATS,B,10
10,7,1,C,haborder.png,1,z,Fri May 30 2025 10:34:34 GMT-0500 (Central Daylight Time),334755.7000000179,CFD-BF-051-043-A.jpg,1900,dash,I,z,755,prac,3,36205.40000000596,298550.3000000119,8003,ATS,B,11
11,3,1,C,mfborder.png,1,z,Fri May 30 2025 10:34:34 GMT-0500 (Central Daylight Time),337721.5,CFD-BF-035-007-HC.jpg,1000,dash,I,z,1182,prac,3,39171.19999998808,298550.3000000119,8003,ATS,B,12
1,test,1,C,haborder.png,1,z,Fri May 30 2025 10:34:34 GMT-0500 (Central Daylight Time),352017.0,CFD-BM-041-048-A.jpg,1700,solid,I,z,968,9,3,2699.199999988079,349317.8000000119,8003,ATS,B,1
2,test,1,C,haborder.png,1,z,Fri May 30 2025 10:34:34 GMT-0500 (Central Daylight Time),355182.5,CFD-BM-037-041-A.jpg,1900,solid,I,z,1240,8,3,5864.699999988079,349317.8000000119,8003,ATS,B,2
3,test,1,C,mfborder.png,1,z,Fri May 30 2025 10:34:34 GMT-0500 (Central Daylight Time),358248.3000000119,CFD-BF-027-013-HC.jpg,1700,dash,I,z,1335,1,3,8930.5,349317.8000000119,8003,ATS,B,3
3,test,1,C,mfborder.png,0,m,Fri May 30 2025 10:34:34 GMT-0500 (Central Daylight Time),360781.0,CFD-WM-012-007-HC.jpg,1000,dash,I,None,1516,4,3,11463.199999988079,349317.8000000119,8003,ATS,B,4
4,test,1,C,mfborder.png,1,m,Fri May 30 2025 10:34:34 GMT-0500 (Central Daylight Time),362863.40000000596,CFD-BM-020-024-HC.jpg,1200,dash,I,m,853,6,3,13545.59999999404,349317.8000000119,8003,ATS,B,5
5,test,1,C,mfborder.png,1,m,Fri May 30 2025 10:34:34 GMT-0500 (Central Daylight Time),366195.7000000179,CFD-WM-037-060-A.jpg,2000,dash,I,m,1314,5,3,16877.90000000596,349317.8000000119,8003,ATS,B,6
6,test,1,C,mfborder.png,1,z,Fri May 30 2025 10:34:34 GMT-0500 (Central Daylight Time),368815.0,CFD-BF-051-043-A.jpg,1600,dash,I,z,989,2,3,19497.19999998808,349317.8000000119,8003,ATS,B,7
7,test,1,C,haborder.png,1,m,Fri May 30 2025 10:34:34 GMT-0500 (Central Daylight Time),371460.7000000179,CFD-BF-035-007-HC.jpg,1600,solid,I,m,1022,10,3,22142.90000000596,349317.8000000119,8003,ATS,B,8
7,test,1,C,mfborder.png,0,m,Fri May 30 2025 10:34:34 GMT-0500 (Central Daylight Time),374909.8000000119,CFD-WM-037-060-A.jpg,2000,dash,I,z,1429,5,3,25592.0,349317.8000000119,8003,ATS,B,9
8,test,1,C,mfborder.png,1,m,Fri May 30 2025 10:34:34 GMT-0500 (Central Daylight Time),376992.2000000179,CFD-WM-012-007-HC.jpg,1000,dash,I,m,1051,4,3,27674.40000000596,349317.8000000119,8003,ATS,B,10
9,test,1,C,mfborder.png,1,z,Fri May 30 2025 10:34:34 GMT-0500 (Central Daylight Time),379277.90000000596,CFD-WF-026-008-A.jpg,1500,dash,I,z,769,3,3,29960.09999999404,349317.8000000119,8003,ATS,B,11
10,test,1,C,haborder.png,1,z,Fri May 30 2025 10:34:34 GMT-0500 (Central Daylight Time),381957.2000000179,CFD-BM-041-048-A.jpg,1700,solid,I,z,954,9,3,32639.40000000596,349317.8000000119,8003,ATS,B,12
11,test,1,C,haborder.png,1,m,Fri May 30 2025 10:34:34 GMT-0500 (Central Daylight Time),384190.0,CFD-WF-027-007-HC.jpg,1500,solid,I,m,704,11,3,34872.19999998808,349317.8000000119,8003,ATS,B,13
12,test,1,C,haborder.png,1,z,Fri May 30 2025 10:34:34 GMT-0500 (Central Daylight Time),386339.59999999404,CFD-WM-009-009-A.jpg,1400,solid,I,z,723,7,3,37021.79999998212,349317.8000000119,8003,ATS,B,14
13,test,1,C,haborder.png,1,m,Fri May 30 2025 10:34:34 GMT-0500 (Central Daylight Time),388322.40000000596,CFD-WF-011-006-HC.jpg,1000,solid,I,m,966,12,3,39004.59999999404,349317.8000000119,8003,ATS,B,15
14,test,1,C,haborder.png,1,z,Fri May 30 2025 10:34:34 GMT-0500 (Central Daylight Time),390688.0,CFD-WM-009-009-A.jpg,1400,solid,I,z,940,7,3,41370.19999998808,349317.8000000119,8003,ATS,B,16
15,test,1,C,mfborder.png,1,m,Fri May 30 2025 10:34:34 GMT-0500 (Central Daylight Time),392820.7000000179,CFD-BM-020-024-HC.jpg,1200,dash,I,m,913,6,3,43502.90000000596,349317.8000000119,8003,ATS,B,17
16,test,1,C,haborder.png,1,m,Fri May 30 2025 10:34:34 GMT-0500 (Central Daylight Time),395753.40000000596,CFD-WF-027-007-HC.jpg,1500,solid,I,m,1397,11,3,46435.59999999404,349317.8000000119,8003,ATS,B,18
17,test,1,C,haborder.png,1,m,Fri May 30 2025 10:34:34 GMT-0500 (Central Daylight Time),397802.7000000179,CFD-WF-011-006-HC.jpg,1000,solid,I,m,1023,12,3,48484.90000000596,349317.8000000119,8003,ATS,B,19
18,test,1,C,mfborder.png,1,z,Fri May 30 2025 10:34:34 GMT-0500 (Central Daylight Time),400251.59999999404,CFD-BF-027-013-HC.jpg,1700,dash,I,z,731,1,3,50933.79999998212,349317.8000000119,8003,ATS,B,20
19,test,1,C,haborder.png,1,z,Fri May 30 2025 10:34:34 GMT-0500 (Central Daylight Time),403600.8000000119,CFD-BM-037-041-A.jpg,1900,solid,I,z,1418,8,3,54283.0,349317.8000000119,8003,ATS,B,21
20,test,1,C,haborder.png,1,m,Fri May 30 2025 10:34:34 GMT-0500 (Central Daylight Time),406216.59999999404,CFD-BF-035-007-HC.jpg,1600,solid,I,m,992,10,3,56898.79999998212,349317.8000000119,8003,ATS,B,22
21,test,1,C,mfborder.png,1,z,Fri May 30 2025 10:34:34 GMT-0500 (Central Daylight Time),409043.8000000119,CFD-WF-026-008-A.jpg,1500,dash,I,z,1311,3,3,59726.0,349317.8000000119,8003,ATS,B,23
22,test,1,C,mfborder.png,1,z,Fri May 30 2025 10:34:34 GMT-0500 (Central Daylight Time),411481.40000000596,CFD-BF-051-043-A.jpg,1600,dash,I,z,809,2,3,62163.59999999404,349317.8000000119,8003,ATS,B,24
0,test,2,C,haborder.png,0,z,Fri May 30 2025 10:34:34 GMT-0500 (Central Daylight Time),417396.40000000596,CFD-BF-050-012-A.jpg,1900,solid,I,m,1039,8,3,2965.800000011921,414430.59999999404,8003,ATS,B,1
1,test,2,C,haborder.png,1,m,Fri May 30 2025 10:34:34 GMT-0500 (Central Daylight Time),419978.7000000179,CFD-WM-011-006-HC.jpg,1500,solid,I,m,1061,11,3,5548.100000023842,414430.59999999404,8003,ATS,B,2
2,test,2,C,mfborder.png,1,z,Fri May 30 2025 10:34:34 GMT-0500 (Central Daylight Time),422844.59999999404,CFD-WF-011-006-HC.jpg,1700,dash,I,z,1138,1,3,8414.0,414430.59999999404,8003,ATS,B,3
3,test,2,C,mfborder.png,1,m,Fri May 30 2025 10:34:34 GMT-0500 (Central Daylight Time),426110.09999999404,CFD-BM-037-041-A.jpg,2000,dash,I,m,1245,5,3,11679.5,414430.59999999404,8003,ATS,B,4
4,test,2,C,haborder.png,1,m,Fri May 30 2025 10:34:34 GMT-0500 (Central Daylight Time),428392.90000000596,CFD-WM-011-006-HC.jpg,1000,solid,I,m,1259,12,3,13962.300000011921,414430.59999999404,8003,ATS,B,5
4,test,2,C,mfborder.png,0,m,Fri May 30 2025 10:34:34 GMT-0500 (Central Daylight Time),430409.09999999404,CFD-BM-015-017-HC.jpg,1000,dash,I,z,992,4,3,15978.5,414430.59999999404,8003,ATS,B,6
5,test,2,C,mfborder.png,1,m,Fri May 30 2025 10:34:34 GMT-0500 (Central Daylight Time),432618.5,CFD-WM-009-009-A.jpg,1200,dash,I,m,846,6,3,18187.90000000596,414430.59999999404,8003,ATS,B,7
6,test,2,C,haborder.png,1,m,Fri May 30 2025 10:34:34 GMT-0500 (Central Daylight Time),435490.8000000119,CFD-BM-020-024-HC.jpg,1600,solid,I,m,1240,10,3,21060.20000001788,414430.59999999404,8003,ATS,B,8
7,test,2,C,mfborder.png,1,z,Fri May 30 2025 10:34:34 GMT-0500 (Central Daylight Time),438223.59999999404,CFD-BF-035-007-HC.jpg,1500,dash,I,z,1203,3,3,23793.0,414430.59999999404,8003,ATS,B,9
8,test,2,C,mfborder.png,1,m,Fri May 30 2025 10:34:34 GMT-0500 (Central Daylight Time),441355.40000000596,CFD-BM-037-041-A.jpg,2000,dash,I,m,1102,5,3,26924.80000001192,414430.59999999404,8003,ATS,B,10
8,test,2,C,haborder.png,0,z,Fri May 30 2025 10:34:34 GMT-0500 (Central Daylight Time),444704.3000000119,CFD-BF-050-012-A.jpg,1900,solid,I,m,1418,8,3,30273.70000001788,414430.59999999404,8003,ATS,B,11
8,test,2,C,mfborder.png,0,m,Fri May 30 2025 10:34:34 GMT-0500 (Central Daylight Time),447237.3000000119,CFD-BM-015-017-HC.jpg,1000,dash,I,None,1512,4,3,32806.70000001788,414430.59999999404,8003,ATS,B,12
9,test,2,C,haborder.png,1,z,Fri May 30 2025 10:34:34 GMT-0500 (Central Daylight Time),450202.7000000179,CFD-WF-026-008-A.jpg,1700,solid,I,z,1248,9,3,35772.10000002384,414430.59999999404,8003,ATS,B,13
10,test,2,C,haborder.png,1,m,Fri May 30 2025 10:34:34 GMT-0500 (Central Daylight Time),452402.0,CFD-WM-011-006-HC.jpg,1500,solid,I,m,674,11,3,37971.40000000596,414430.59999999404,8003,ATS,B,14
10,test,2,C,haborder.png,0,z,Fri May 30 2025 10:34:34 GMT-0500 (Central Daylight Time),455334.40000000596,CFD-BF-051-043-A.jpg,1400,solid,I,None,1515,7,3,40903.80000001192,414430.59999999404,8003,ATS,B,15
11,test,2,C,haborder.png,1,z,Fri May 30 2025 10:34:34 GMT-0500 (Central Daylight Time),457350.3000000119,CFD-BF-051-043-A.jpg,1400,solid,I,z,587,7,3,42919.70000001788,414430.59999999404,8003,ATS,B,16
12,test,2,C,haborder.png,1,m,Fri May 30 2025 10:34:34 GMT-0500 (Central Daylight Time),460049.8000000119,CFD-BM-020-024-HC.jpg,1600,solid,I,m,1075,10,3,45619.20000001788,414430.59999999404,8003,ATS,B,17
13,test,2,C,mfborder.png,1,z,Fri May 30 2025 10:34:34 GMT-0500 (Central Daylight Time),462965.40000000596,CFD-WF-013-015-A.jpg,1600,dash,I,z,1292,2,3,48534.80000001192,414430.59999999404,8003,ATS,B,18
14,test,2,C,mfborder.png,1,z,Fri May 30 2025 10:34:34 GMT-0500 (Central Daylight Time),465298.0,CFD-WF-013-015-A.jpg,1600,dash,I,z,700,2,3,50867.40000000596,414430.59999999404,8003,ATS,B,19
15,test,2,C,mfborder.png,1,m,Fri May 30 2025 10:34:34 GMT-0500 (Central Daylight Time),467280.8000000119,CFD-WM-009-009-A.jpg,1200,dash,I,m,759,6,3,52850.20000001788,414430.59999999404,8003,ATS,B,20
16,test,2,C,haborder.png,1,m,Fri May 30 2025 10:34:34 GMT-0500 (Central Daylight Time),469300.2000000179,CFD-WM-011-006-HC.jpg,1000,solid,I,m,993,12,3,54869.60000002384,414430.59999999404,8003,ATS,B,21
17,test,2,C,mfborder.png,1,z,Fri May 30 2025 10:34:34 GMT-0500 (Central Daylight Time),471929.09999999404,CFD-WF-011-006-HC.jpg,1700,dash,I,z,901,1,3,57498.5,414430.59999999404,8003,ATS,B,22
18,test,2,C,mfborder.png,1,z,Fri May 30 2025 10:34:34 GMT-0500 (Central Daylight Time),474194.90000000596,CFD-BF-035-007-HC.jpg,1500,dash,I,z,748,3,3,59764.30000001192,414430.59999999404,8003,ATS,B,23
18,test,2,C,haborder.png,0,z,Fri May 30 2025 10:34:34 GMT-0500 (Central Daylight Time),476760.90000000596,CFD-WF-026-008-A.jpg,1700,solid,I,m,842,9,3,62330.30000001192,414430.59999999404,8003,ATS,B,24
1,test,3,C,mfborder.png,1,m,Fri May 30 2025 10:34:34 GMT-0500 (Central Daylight Time),486774.59999999404,CFD-BM-020-024-HC.jpg,1200,dash,I,m,1361,6,3,2582.5,484192.09999999404,8003,ATS,B,1
2,test,3,C,haborder.png,1,z,Fri May 30 2025 10:34:34 GMT-0500 (Central Daylight Time),489773.7000000179,CFD-BM-037-041-A.jpg,1900,solid,I,z,1066,8,3,5581.600000023842,484192.09999999404,8003,ATS,B,2
3,test,3,C,mfborder.png,1,z,Fri May 30 2025 10:34:34 GMT-0500 (Central Daylight Time),492189.59999999404,CFD-WF-026-008-A.jpg,1500,dash,I,z,896,3,3,7997.5,484192.09999999404,8003,ATS,B,3
4,test,3,C,mfborder.png,1,m,Fri May 30 2025 10:34:34 GMT-0500 (Central Daylight Time),494072.09999999404,CFD-BM-020-024-HC.jpg,1200,dash,I,m,652,6,3,9880.0,484192.09999999404,8003,ATS,B,4
4,test,3,C,haborder.png,0,m,Fri May 30 2025 10:34:34 GMT-0500 (Central Daylight Time),495838.3000000119,CFD-WF-011-006-HC.jpg,1000,solid,I,z,737,12,3,11646.200000017881,484192.09999999404,8003,ATS,B,5
4,test,3,C,haborder.png,0,z,Fri May 30 2025 10:34:34 GMT-0500 (Central Daylight Time),498404.2000000179,CFD-WM-009-009-A.jpg,1400,solid,I,m,1139,7,3,14212.100000023842,484192.09999999404,8003,ATS,B,6
5,test,3,C,mfborder.png,1,z,Fri May 30 2025 10:34:34 GMT-0500 (Central Daylight Time),501519.8000000119,CFD-BF-027-013-HC.jpg,1700,dash,I,z,1385,1,3,17327.70000001788,484192.09999999404,8003,ATS,B,7
6,test,3,C,mfborder.png,1,z,Fri May 30 2025 10:34:34 GMT-0500 (Central Daylight Time),503969.09999999404,CFD-BF-027-013-HC.jpg,1700,dash,I,z,662,1,3,19777.0,484192.09999999404,8003,ATS,B,8
7,test,3,C,haborder.png,1,m,Fri May 30 2025 10:34:34 GMT-0500 (Central Daylight Time),506634.7000000179,CFD-BF-035-007-HC.jpg,1600,solid,I,m,1048,10,3,22442.600000023842,484192.09999999404,8003,ATS,B,9
8,test,3,C,haborder.png,1,z,Fri May 30 2025 10:34:34 GMT-0500 (Central Daylight Time),509284.0,CFD-BM-037-041-A.jpg,1900,solid,I,z,730,8,3,25091.90000000596,484192.09999999404,8003,ATS,B,10
9,test,3,C,mfborder.png,1,z,Fri May 30 2025 10:34:34 GMT-0500 (Central Daylight Time),512216.5,CFD-BF-051-043-A.jpg,1600,dash,I,z,1309,2,3,28024.40000000596,484192.09999999404,8003,ATS,B,11
10,test,3,C,mfborder.png,1,m,Fri May 30 2025 10:34:34 GMT-0500 (Central Daylight Time),514282.59999999404,CFD-WM-012-007-HC.jpg,1000,dash,I,m,1041,4,3,30090.5,484192.09999999404,8003,ATS,B,12
11,test,3,C,mfborder.png,1,z,Fri May 30 2025 10:34:34 GMT-0500 (Central Daylight Time),516498.59999999404,CFD-WF-026-008-A.jpg,1500,dash,I,z,683,3,3,32306.5,484192.09999999404,8003,ATS,B,13
12,test,3,C,mfborder.png,1,m,Fri May 30 2025 10:34:34 GMT-0500 (Central Daylight Time),518447.90000000596,CFD-WM-012-007-HC.jpg,1000,dash,I,m,923,4,3,34255.80000001192,484192.09999999404,8003,ATS,B,14
13,test,3,C,mfborder.png,1,m,Fri May 30 2025 10:34:34 GMT-0500 (Central Daylight Time),521230.3000000119,CFD-WM-037-060-A.jpg,2000,dash,I,m,762,5,3,37038.20000001788,484192.09999999404,8003,ATS,B,15
14,test,3,C,mfborder.png,1,z,Fri May 30 2025 10:34:34 GMT-0500 (Central Daylight Time),523746.3000000119,CFD-BF-051-043-A.jpg,1600,dash,I,z,891,2,3,39554.20000001788,484192.09999999404,8003,ATS,B,16
15,test,3,C,haborder.png,1,z,Fri May 30 2025 10:34:34 GMT-0500 (Central Daylight Time),526479.0,CFD-BM-041-048-A.jpg,1700,solid,I,z,1011,9,3,42286.90000000596,484192.09999999404,8003,ATS,B,17
16,test,3,C,haborder.png,1,m,Fri May 30 2025 10:34:34 GMT-0500 (Central Daylight Time),528744.599999994,CFD-WF-011-006-HC.jpg,1000,solid,I,m,1243,12,3,44552.5,484192.09999999404,8003,ATS,B,18
17,test,3,C,haborder.png,1,z,Fri May 30 2025 10:34:34 GMT-0500 (Central Daylight Time),530994.2000000179,CFD-WM-009-009-A.jpg,1400,solid,I,z,824,7,3,46802.10000002384,484192.09999999404,8003,ATS,B,19
18,test,3,C,mfborder.png,1,m,Fri May 30 2025 10:34:34 GMT-0500 (Central Daylight Time),534259.599999994,CFD-WM-037-060-A.jpg,2000,dash,I,m,1239,5,3,50067.5,484192.09999999404,8003,ATS,B,20
18,test,3,C,haborder.png,0,z,Fri May 30 2025 10:34:34 GMT-0500 (Central Daylight Time),537492.3000000119,CFD-BM-041-048-A.jpg,1700,solid,I,None,1516,9,3,53300.20000001788,484192.09999999404,8003,ATS,B,21
19,test,3,C,haborder.png,1,m,Fri May 30 2025 10:34:34 GMT-0500 (Central Daylight Time),540090.900000006,CFD-WF-027-007-HC.jpg,1500,solid,I,m,1081,11,3,55898.80000001192,484192.09999999404,8003,ATS,B,22
20,test,3,C,haborder.png,1,m,Fri May 30 2025 10:34:34 GMT-0500 (Central Daylight Time),542240.2000000179,CFD-WF-027-007-HC.jpg,1500,solid,I,m,626,11,3,58048.10000002384,484192.09999999404,8003,ATS,B,23
21,test,3,C,haborder.png,1,m,Fri May 30 2025 10:34:34 GMT-0500 (Central Daylight Time),544623.099999994,CFD-BF-035-007-HC.jpg,1600,solid,I,m,753,10,3,60431.0,484192.09999999404,8003,ATS,B,24
0,test,4,C,haborder.png,0,z,Fri May 30 2025 10:34:34 GMT-0500 (Central Daylight Time),554020.2000000179,CFD-WF-026-008-A.jpg,1700,solid,I,m,972,9,3,2699.0,551321.2000000179,8003,ATS,B,1
1,test,4,C,haborder.png,1,m,Fri May 30 2025 10:34:34 GMT-0500 (Central Daylight Time),556019.5,CFD-WM-011-006-HC.jpg,1000,solid,I,m,969,12,3,4698.299999982119,551321.2000000179,8003,ATS,B,2
2,test,4,C,haborder.png,1,m,Fri May 30 2025 10:34:34 GMT-0500 (Central Daylight Time),557652.3000000119,CFD-WM-011-006-HC.jpg,1000,solid,I,m,614,12,3,6331.0999999940395,551321.2000000179,8003,ATS,B,3
2,test,4,C,haborder.png,0,m,Fri May 30 2025 10:34:34 GMT-0500 (Central Daylight Time),560784.599999994,CFD-BM-020-024-HC.jpg,1600,solid,I,None,1516,10,3,9463.399999976158,551321.2000000179,8003,ATS,B,4
3,test,4,C,haborder.png,1,m,Fri May 30 2025 10:34:34 GMT-0500 (Central Daylight Time),562917.2000000179,CFD-WM-011-006-HC.jpg,1500,solid,I,m,605,11,3,11596.0,551321.2000000179,8003,ATS,B,5
4,test,4,C,mfborder.png,1,z,Fri May 30 2025 10:34:34 GMT-0500 (Central Daylight Time),565682.900000006,CFD-WF-011-006-HC.jpg,1700,dash,I,z,1048,1,3,14361.699999988079,551321.2000000179,8003,ATS,B,6
5,test,4,C,mfborder.png,1,z,Fri May 30 2025 10:34:34 GMT-0500 (Central Daylight Time),567998.900000006,CFD-WF-011-006-HC.jpg,1700,dash,I,z,594,1,3,16677.69999998808,551321.2000000179,8003,ATS,B,7
6,test,4,C,mfborder.png,1,m,Fri May 30 2025 10:34:34 GMT-0500 (Central Daylight Time),570165.099999994,CFD-WM-009-009-A.jpg,1200,dash,I,m,946,6,3,18843.899999976158,551321.2000000179,8003,ATS,B,8
7,test,4,C,mfborder.png,1,m,Fri May 30 2025 10:34:34 GMT-0500 (Central Daylight Time),571914.5,CFD-BM-015-017-HC.jpg,1000,dash,I,m,716,4,3,20593.29999998212,551321.2000000179,8003,ATS,B,9
8,test,4,C,mfborder.png,1,z,Fri May 30 2025 10:34:34 GMT-0500 (Central Daylight Time),574246.8000000119,CFD-WF-013-015-A.jpg,1600,dash,I,z,711,2,3,22925.59999999404,551321.2000000179,8003,ATS,B,10
9,test,4,C,haborder.png,1,z,Fri May 30 2025 10:34:34 GMT-0500 (Central Daylight Time),576296.3000000119,CFD-BF-051-043-A.jpg,1400,solid,I,z,618,7,3,24975.09999999404,551321.2000000179,8003,ATS,B,11
10,test,4,C,mfborder.png,1,z,Fri May 30 2025 10:34:34 GMT-0500 (Central Daylight Time),579145.400000006,CFD-WF-013-015-A.jpg,1600,dash,I,z,1225,2,3,27824.19999998808,551321.2000000179,8003,ATS,B,12
11,test,4,C,haborder.png,1,z,Fri May 30 2025 10:34:34 GMT-0500 (Central Daylight Time),581261.7000000179,CFD-BF-051-043-A.jpg,1400,solid,I,z,696,7,3,29940.5,551321.2000000179,8003,ATS,B,13
12,test,4,C,haborder.png,1,z,Fri May 30 2025 10:34:34 GMT-0500 (Central Daylight Time),584194.099999994,CFD-BF-050-012-A.jpg,1900,solid,I,z,1000,8,3,32872.89999997616,551321.2000000179,8003,ATS,B,14
13,test,4,C,haborder.png,1,m,Fri May 30 2025 10:34:34 GMT-0500 (Central Daylight Time),586593.099999994,CFD-BM-020-024-HC.jpg,1600,solid,I,m,768,10,3,35271.89999997616,551321.2000000179,8003,ATS,B,15
13,test,4,C,mfborder.png,0,z,Fri May 30 2025 10:34:34 GMT-0500 (Central Daylight Time),589075.8000000119,CFD-BF-035-007-HC.jpg,1500,dash,I,m,957,3,3,37754.59999999404,551321.2000000179,8003,ATS,B,16
14,test,4,C,mfborder.png,1,z,Fri May 30 2025 10:34:34 GMT-0500 (Central Daylight Time),591241.8000000119,CFD-BF-035-007-HC.jpg,1500,dash,I,z,633,3,3,39920.59999999404,551321.2000000179,8003,ATS,B,17
15,test,4,C,mfborder.png,1,m,Fri May 30 2025 10:34:34 GMT-0500 (Central Daylight Time),593990.900000006,CFD-BM-037-041-A.jpg,2000,dash,I,m,728,5,3,42669.69999998808,551321.2000000179,8003,ATS,B,18
16,test,4,C,mfborder.png,1,m,Fri May 30 2025 10:34:34 GMT-0500 (Central Daylight Time),596623.2000000179,CFD-BM-037-041-A.jpg,2000,dash,I,m,599,5,3,45302.0,551321.2000000179,8003,ATS,B,19
17,test,4,C,mfborder.png,1,m,Fri May 30 2025 10:34:34 GMT-0500 (Central Daylight Time),598989.3000000119,CFD-WM-009-009-A.jpg,1200,dash,I,m,1138,6,3,47668.09999999404,551321.2000000179,8003,ATS,B,20
18,test,4,C,haborder.png,1,m,Fri May 30 2025 10:34:34 GMT-0500 (Central Daylight Time),601988.5,CFD-WM-011-006-HC.jpg,1500,solid,I,m,1479,11,3,50667.29999998212,551321.2000000179,8003,ATS,B,21
19,test,4,C,haborder.png,1,z,Fri May 30 2025 10:34:34 GMT-0500 (Central Daylight Time),604654.3000000119,CFD-BF-050-012-A.jpg,1900,solid,I,z,737,8,3,53333.09999999404,551321.2000000179,8003,ATS,B,22
20,test,4,C,mfborder.png,1,m,Fri May 30 2025 10:34:34 GMT-0500 (Central Daylight Time),606903.400000006,CFD-BM-015-017-HC.jpg,1000,dash,I,m,1227,4,3,55582.19999998808,551321.2000000179,8003,ATS,B,23
21,test,4,C,haborder.png,1,z,Fri May 30 2025 10:34:34 GMT-0500 (Central Daylight Time),609552.8000000119,CFD-WF-026-008-A.jpg,1700,solid,I,z,926,9,3,58231.59999999404,551321.2000000179,8003,ATS,B,24
