acc_sum,block,block_c,condition,correct,correct_response,datetime,endtime,flanker,jitter,project,response,response_test_buffer_response,response_test_target_response,response_time,response_time_test_buffer_response,response_time_test_target_response,row_sel,session_number,start_end,starttime,subject_id,target,task,task_vers,time_test_buffer,time_test_buffer_response,time_test_constants,time_test_flanker,time_test_jitter,time_test_logger,time_test_target,time_test_target_response,time_test_variables,trial
1,prac,1,inc,1,z,Fri Jan 16 2026 09:37:15 GMT-0600 (Central Standard Time),150195.90000009537,film,900,O,z,,,1166,,,14,1,3361.100000143051,146834.79999995232,7745,hate,AF,A,,,,,,,,,,1
2,prac,1,inc,1,z,Fri Jan 16 2026 09:37:15 GMT-0600 (Central Standard Time),153309.79999995232,napkin,1100,O,z,,,735,,,12,1,3110.0999999046326,150199.70000004768,7745,friend,AF,A,,,,,,,,,,2
3,prac,1,con,1,m,Fri Jan 16 2026 09:37:15 GMT-0600 (Central Standard Time),156359.09999990463,bell,1000,O,m,,,743,,,3,1,3041.2999999523163,153317.79999995232,7745,bell,AF,A,,,,,,,,,,3
4,prac,1,con,1,z,Fri Jan 16 2026 09:37:15 GMT-0600 (Central Standard Time),159257.70000004768,brutal,800,O,z,,,789,,,13,1,2893.7999999523163,156363.90000009537,7745,brutal,AF,A,,,,,,,,,,4
5,prac,1,con,1,m,Fri Jan 16 2026 09:37:15 GMT-0600 (Central Standard Time),161857.5,jacket,800,O,m,,,485,,,5,1,2591.5,159266.0,7745,jacket,AF,A,,,,,,,,,,5
6,prac,1,inc,1,z,Fri Jan 16 2026 09:37:15 GMT-0600 (Central Standard Time),164973.40000009537,window,1100,O,z,,,710,,,16,1,3107.800000190735,161865.59999990463,7745,temper,AF,A,,,,,,,,,,6
7,prac,1,inc,1,m,Fri Jan 16 2026 09:37:15 GMT-0600 (Central Standard Time),167826.70000004768,kind,900,O,m,,,659,,,2,1,2843.7000000476837,164983.0,7745,rock,AF,A,,,,,,,,,,7
8,prac,1,con,1,m,Fri Jan 16 2026 09:37:15 GMT-0600 (Central Standard Time),171105.5,remote,1000,O,m,,,974,,,7,1,3273.0999999046326,167832.40000009537,7745,remote,AF,A,,,,,,,,,,8
9,prac,1,inc,1,m,Fri Jan 16 2026 09:37:15 GMT-0600 (Central Standard Time),174337.29999995232,brutal,1100,O,m,,,816,,,8,1,3226.7000000476837,171110.59999990463,7745,window,AF,A,,,,,,,,,,9
10,prac,1,con,1,z,Fri Jan 16 2026 09:37:15 GMT-0600 (Central Standard Time),177152.09999990463,love,1000,O,z,,,507,,,11,1,2807.5999999046326,174344.5,7745,love,AF,A,,,,,,,,,,10
11,prac,1,con,1,m,Fri Jan 16 2026 09:37:15 GMT-0600 (Central Standard Time),180056.90000009537,step,800,O,m,,,787,,,1,1,2898.2000000476837,177158.70000004768,7745,step,AF,A,,,,,,,,,,11
12,prac,1,inc,1,z,Fri Jan 16 2026 09:37:15 GMT-0600 (Central Standard Time),182883.90000009537,rock,900,O,z,,,621,,,10,1,2821.800000190735,180062.09999990463,7745,kind,AF,A,,,,,,,,,,12
13,prac,1,con,1,z,Fri Jan 16 2026 09:37:15 GMT-0600 (Central Standard Time),186016.09999990463,rage,1000,O,z,,,848,,,15,1,3125.5,182890.59999990463,7745,rage,AF,A,,,,,,,,,,13
14,prac,1,inc,1,m,Fri Jan 16 2026 09:37:15 GMT-0600 (Central Standard Time),188899.59999990463,elated,900,O,m,,,680,,,6,1,2879.899999856949,186019.70000004768,7745,napkin,AF,A,,,,,,,,,,14
15,prac,1,inc,1,m,Fri Jan 16 2026 09:37:15 GMT-0600 (Central Standard Time),191898.79999995232,hate,1100,O,m,,,589,,,4,1,2992.899999856949,188905.90000009537,7745,film,AF,A,,,,,,,,,,15
16,prac,1,con,1,z,Fri Jan 16 2026 09:37:15 GMT-0600 (Central Standard Time),194663.70000004768,elated,800,O,z,,,659,,,9,1,2759.5,191904.20000004768,7745,elated,AF,A,,,,,,,,,,16
1,test,1,con,1,z,Fri Jan 16 2026 09:37:15 GMT-0600 (Central Standard Time),206680.20000004768,friend,1100,O,z,z,None,1699,1500.0,199.0,28,1,3348.5,203331.70000004768,7745,friend,AF,A,203078,203078,201249,202362,201249,204597,202878,202878,204597,1
2,test,1,con,1,m,Fri Jan 16 2026 09:37:15 GMT-0600 (Central Standard Time),208643.70000004768,rock,1000,O,m,m,None,432,233.0,199.0,75,1,1958.7000000476837,206685.0,7745,rock,AF,A,206327,206327,204602,205613,204602,206561,206127,206127,206561,2
3,test,1,inc,1,m,Fri Jan 16 2026 09:37:15 GMT-0600 (Central Standard Time),210892.20000004768,hate,1100,O,m,m,None,606,407.0,199.0,96,1,2241.9000000953674,208650.29999995232,7745,film,AF,A,208392,208392,206567,207678,206568,208809,208193,208193,208809,3
4,test,1,con,1,z,Fri Jan 16 2026 09:37:15 GMT-0600 (Central Standard Time),213074.0,brutal,1100,O,z,z,None,548,348.0,200.0,36,1,2178.7999999523163,210895.20000004768,7745,brutal,AF,A,210626,210626,208812,209924,208812,210991,210426,210426,210991,4
5,test,1,inc,1,m,Fri Jan 16 2026 09:37:15 GMT-0600 (Central Standard Time),215009.09999990463,elated,800,O,m,m,None,586,385.0,201.0,125,1,1931.8999998569489,213077.20000004768,7745,window,AF,A,212526,212526,210994,211809,210995,212926,212324,212324,212926,5
6,test,1,con,1,z,Fri Jan 16 2026 09:37:15 GMT-0600 (Central Standard Time),216923.90000009537,hate,900,O,z,z,None,483,282.0,201.0,42,1,1911.6000001430511,215012.29999995232,7745,hate,AF,A,214557,214557,212929,213841,212930,214841,214356,214356,214841,6
7,test,1,con,1,m,Fri Jan 16 2026 09:37:15 GMT-0600 (Central Standard Time),218706.0,rock,800,O,m,m,None,442,242.0,200.0,73,1,1779.2999999523163,216926.70000004768,7745,rock,AF,A,216373,216373,214844,215657,214844,216623,216173,216173,216623,7
8,test,1,inc,1,z,Fri Jan 16 2026 09:37:15 GMT-0600 (Central Standard Time),220820.90000009537,napkin,900,O,z,z,None,679,480.0,199.0,38,1,2111.9000000953674,218709.0,7745,brutal,AF,A,218255,218255,216626,217540,216626,218738,218055,218055,218738,8
9,test,1,inc,1,z,Fri Jan 16 2026 09:37:15 GMT-0600 (Central Standard Time),223154.09999990463,window,1100,O,z,z,None,690,475.0,215.0,40,1,2329.0999999046326,220825.0,7745,brutal,AF,A,220588,220588,218742,219856,218742,221071,220372,220372,221071,9
10,test,1,inc,1,m,Fri Jan 16 2026 09:37:15 GMT-0600 (Central Standard Time),225419.79999995232,hate,1100,O,m,m,None,629,428.0,201.0,72,1,2262.5,223157.29999995232,7745,step,AF,A,222906,222906,221074,222188,221074,223337,222705,222705,223337,10
11,test,1,inc,1,z,Fri Jan 16 2026 09:37:15 GMT-0600 (Central Standard Time),227387.40000009537,step,800,O,z,z,None,618,418.0,200.0,13,1,1964.0,225423.40000009537,7745,kind,AF,A,224871,224871,223340,224154,223341,225304,224670,224670,225304,11
12,test,1,con,1,z,Fri Jan 16 2026 09:37:15 GMT-0600 (Central Standard Time),229503.0,elated,900,O,z,z,None,685,484.0,201.0,2,1,2112.7000000476837,227390.29999995232,7745,elated,AF,A,226923,226923,225307,226220,225308,227420,226722,226722,227420,12
13,test,1,inc,1,z,Fri Jan 16 2026 09:37:15 GMT-0600 (Central Standard Time),231635.20000004768,bell,1000,O,z,z,None,608,408.0,200.0,47,1,2126.9000000953674,229508.29999995232,7745,hate,AF,A,229136,229136,227425,228435,227426,229552,228936,228936,229552,13
14,test,1,con,1,z,Fri Jan 16 2026 09:37:15 GMT-0600 (Central Standard Time),233633.90000009537,love,1000,O,z,z,None,457,241.0,216.0,19,1,1995.0,231638.90000009537,7745,love,AF,A,231302,231302,229556,230570,229556,231551,231086,231086,231551,14
15,test,1,inc,1,m,Fri Jan 16 2026 09:37:15 GMT-0600 (Central Standard Time),235533.40000009537,rage,800,O,m,m,None,552,338.0,214.0,77,1,1895.5,233637.90000009537,7745,rock,AF,A,233100,233100,231555,232369,231555,233450,232886,232886,233450,15
16,test,1,con,1,z,Fri Jan 16 2026 09:37:15 GMT-0600 (Central Standard Time),237565.70000004768,hate,800,O,z,z,None,694,495.0,199.0,41,1,2027.2000000476837,235538.5,7745,hate,AF,A,234984,234984,233456,234268,233456,235483,234784,234784,235483,16
17,test,1,con,1,m,Fri Jan 16 2026 09:37:15 GMT-0600 (Central Standard Time),239332.0,jacket,800,O,m,m,None,428,229.0,199.0,97,1,1761.9000000953674,237570.09999990463,7745,jacket,AF,A,237017,237017,235487,236301,235487,237249,236817,236817,237249,17
18,test,1,inc,1,m,Fri Jan 16 2026 09:37:15 GMT-0600 (Central Standard Time),241599.0,hate,1100,O,m,m,None,637,437.0,200.0,88,1,2264.2999999523163,239334.70000004768,7745,bell,AF,A,239066,239066,237252,238365,237252,239516,238866,238866,239516,18
19,test,1,inc,1,z,Fri Jan 16 2026 09:37:15 GMT-0600 (Central Standard Time),243797.59999990463,film,1100,O,z,z,None,562,348.0,214.0,24,1,2193.7999999523163,241603.79999995232,7745,love,AF,A,241364,241364,239521,240632,239521,241715,241150,241150,241715,19
20,test,1,con,1,z,Fri Jan 16 2026 09:37:15 GMT-0600 (Central Standard Time),245914.59999990463,rage,800,O,z,z,None,797,582.0,215.0,49,1,2112.5,243802.09999990463,7745,rage,AF,A,243249,243249,241719,242531,241719,243832,243034,243034,243832,20
21,test,1,inc,1,z,Fri Jan 16 2026 09:37:15 GMT-0600 (Central Standard Time),247913.20000004768,jacket,800,O,z,z,None,665,451.0,214.0,61,1,1993.7999999523163,245919.40000009537,7745,temper,AF,A,245364,245364,243836,244648,243837,245830,245149,245149,245830,21
22,test,1,inc,1,m,Fri Jan 16 2026 09:37:15 GMT-0600 (Central Standard Time),250195.79999995232,hate,1100,O,m,m,None,649,450.0,199.0,80,1,2278.2999999523163,247917.5,7745,rock,AF,A,247663,247663,245835,246947,245835,248113,247463,247463,248113,22
23,test,1,con,1,m,Fri Jan 16 2026 09:37:15 GMT-0600 (Central Standard Time),252562.70000004768,remote,800,O,m,m,None,1033,831.0,202.0,113,1,2364.0,250198.70000004768,7745,remote,AF,A,249648,249648,248116,248931,248116,250480,249446,249446,250480,23
24,test,1,con,1,z,Fri Jan 16 2026 09:37:15 GMT-0600 (Central Standard Time),254643.79999995232,kind,1100,O,z,z,None,439,239.0,200.0,12,1,2076.899999856949,252566.90000009537,7745,kind,AF,A,252312,252312,250484,251595,250484,252561,252112,252112,252561,24
25,test,1,inc,1,m,Fri Jan 16 2026 09:37:15 GMT-0600 (Central Standard Time),256760.70000004768,love,1000,O,m,m,None,593,378.0,215.0,95,1,2114.0,254646.70000004768,7745,film,AF,A,254294,254294,252564,253578,252564,254678,254079,254079,254678,25
26,test,1,inc,1,m,Fri Jan 16 2026 09:37:15 GMT-0600 (Central Standard Time),258693.79999995232,rage,800,O,m,m,None,596,396.0,200.0,85,1,1930.0,256763.79999995232,7745,bell,AF,A,256211,256211,254681,255495,254681,256611,256011,256011,256611,26
27,test,1,con,1,m,Fri Jan 16 2026 09:37:15 GMT-0600 (Central Standard Time),260726.90000009537,film,1000,O,m,m,None,487,287.0,200.0,91,1,2029.8000001907349,258697.09999990463,7745,film,AF,A,258344,258344,256614,257629,256614,258644,258143,258143,258644,27
28,test,1,inc,1,z,Fri Jan 16 2026 09:37:15 GMT-0600 (Central Standard Time),263011.2999999523,window,1100,O,z,z,None,642,427.0,215.0,64,1,2279.5999999046326,260731.70000004768,7745,temper,AF,A,260492,260492,258649,259761,258649,260928,260276,260276,260928,28
29,test,1,con,1,m,Fri Jan 16 2026 09:37:15 GMT-0600 (Central Standard Time),265058.2999999523,rock,1100,O,m,m,None,400,185.0,215.0,76,1,2042.5,263015.7999999523,7745,rock,AF,A,262775,262775,260933,262043,260933,262975,262560,262560,262975,29
30,test,1,con,1,z,Fri Jan 16 2026 09:37:15 GMT-0600 (Central Standard Time),266990.5,rage,1000,O,z,z,None,396,195.0,201.0,51,1,1926.7999999523163,265063.7000000477,7745,rage,AF,A,264708,264708,262981,263991,262981,264908,264507,264507,264908,30
31,test,1,inc,1,m,Fri Jan 16 2026 09:37:15 GMT-0600 (Central Standard Time),269039.7000000477,brutal,900,O,m,m,None,618,415.0,203.0,110,1,2046.2000000476837,266993.5,7745,napkin,AF,A,266527,266527,264911,265823,264911,266957,266324,266324,266957,31
32,test,1,inc,1,z,Fri Jan 16 2026 09:37:15 GMT-0600 (Central Standard Time),271255.7999999523,bell,1000,O,z,z,None,676,477.0,199.0,55,1,2212.5,269043.2999999523,7745,rage,AF,A,268690,268690,266960,267974,266960,269173,268490,268490,269173,32
33,test,1,inc,1,m,Fri Jan 16 2026 09:37:15 GMT-0600 (Central Standard Time),273253.7999999523,elated,800,O,m,m,None,674,459.0,215.0,109,1,1993.5999999046326,271260.2000000477,7745,napkin,AF,A,270706,270707,269177,269988,269177,271171,270491,270491,271171,33
34,test,1,con,1,m,Fri Jan 16 2026 09:37:15 GMT-0600 (Central Standard Time),275171.7999999523,window,800,O,m,m,None,572,357.0,215.0,121,1,1915.0999999046326,273256.7000000477,7745,window,AF,A,272722,272722,271174,271988,271175,273089,272506,272506,273089,34
35,test,1,con,1,z,Fri Jan 16 2026 09:37:15 GMT-0600 (Central Standard Time),277071.09999990463,temper,900,O,z,z,None,459,260.0,199.0,58,1,1892.5,275178.59999990463,7745,temper,AF,A,274722,274723,273096,274007,273096,274988,274523,274523,274988,35
36,test,1,con,1,m,Fri Jan 16 2026 09:37:15 GMT-0600 (Central Standard Time),279352.90000009537,bell,1000,O,m,m,None,736,536.0,200.0,83,1,2278.0,277074.90000009537,7745,bell,AF,A,276721,276721,274992,276004,274992,277270,276520,276520,277270,36
37,test,1,con,1,z,Fri Jan 16 2026 09:37:15 GMT-0600 (Central Standard Time),281452.7999999523,hate,1100,O,z,z,None,450,250.0,200.0,44,1,2093.399999856949,279359.40000009537,7745,hate,AF,A,279103,279103,277276,278387,277277,279370,278903,278903,279370,37
38,test,1,con,1,z,Fri Jan 16 2026 09:37:15 GMT-0600 (Central Standard Time),283453.7000000477,elated,1000,O,z,z,None,452,252.0,200.0,3,1,1996.2000000476837,281457.5,7745,elated,AF,A,281103,281103,279375,280386,279375,281371,280903,280903,281371,38
39,test,1,con,1,z,Fri Jan 16 2026 09:37:15 GMT-0600 (Central Standard Time),285468.2999999523,hate,1000,O,z,z,None,472,273.0,199.0,43,1,2007.5,283460.7999999523,7745,hate,AF,A,283102,283102,281378,282385,281378,283385,282902,282902,283385,39
40,test,1,con,1,m,Fri Jan 16 2026 09:37:15 GMT-0600 (Central Standard Time),287549.7999999523,napkin,1100,O,m,m,None,446,245.0,201.0,108,1,2074.0,285475.7999999523,7745,napkin,AF,A,285218,285218,283393,284501,283393,285467,285017,285017,285467,40
41,test,1,inc,1,m,Fri Jan 16 2026 09:37:15 GMT-0600 (Central Standard Time),289683.0,love,1000,O,m,m,None,598,397.0,201.0,87,1,2128.2000000476837,287554.7999999523,7745,bell,AF,A,287202,287202,285472,286487,285472,287600,287000,287000,287600,41
42,test,1,con,1,z,Fri Jan 16 2026 09:37:15 GMT-0600 (Central Standard Time),291915.40000009537,brutal,900,O,z,z,None,804,591.0,213.0,34,1,2229.2000000476837,289686.2000000477,7745,brutal,AF,A,289232,289232,287603,288517,287603,289833,289019,289019,289832,42
43,test,1,inc,1,z,Fri Jan 16 2026 09:37:15 GMT-0600 (Central Standard Time),293964.5,napkin,900,O,z,z,None,604,389.0,215.0,6,1,2042.4000000953674,291922.09999990463,7745,elated,AF,A,291482,291482,289839,290750,289840,291882,291267,291267,291882,43
44,test,1,inc,1,m,Fri Jan 16 2026 09:37:15 GMT-0600 (Central Standard Time),296331.2000000477,friend,1100,O,m,m,None,722,523.0,199.0,112,1,2362.0,293969.2000000477,7745,napkin,AF,A,293715,293716,291886,293001,291886,294248,293516,293516,294248,44
45,test,1,con,1,z,Fri Jan 16 2026 09:37:15 GMT-0600 (Central Standard Time),298446.7999999523,brutal,1000,O,z,z,None,576,361.0,215.0,35,1,2112.2999999523163,296334.5,7745,brutal,AF,A,295998,295998,294252,295265,294252,296364,295782,295782,296364,45
46,test,1,inc,1,z,Fri Jan 16 2026 09:37:15 GMT-0600 (Central Standard Time),300545.7999999523,rock,900,O,z,z,None,649,447.0,202.0,14,1,2092.0999999046326,298453.7000000477,7745,kind,AF,A,298000,298000,296371,297280,296371,298463,297797,297797,298463,46
47,test,1,con,1,m,Fri Jan 16 2026 09:37:15 GMT-0600 (Central Standard Time),302744.90000009537,jacket,1100,O,m,m,None,553,352.0,201.0,100,1,2192.2000000476837,300552.7000000477,7745,jacket,AF,A,300296,300296,298470,299581,298470,300662,300095,300095,300662,47
48,test,1,inc,1,m,Fri Jan 16 2026 09:37:15 GMT-0600 (Central Standard Time),304912.0,love,1000,O,m,m,None,626,411.0,215.0,71,1,2161.7000000476837,302750.2999999523,7745,step,AF,A,302412,302412,300667,301680,300667,302829,302197,302197,302829,48
49,test,1,inc,1,z,Fri Jan 16 2026 09:37:15 GMT-0600 (Central Standard Time),307210.7999999523,film,1100,O,z,z,None,664,449.0,215.0,56,1,2295.5999999046326,304915.2000000477,7745,rage,AF,A,304663,304663,302832,303945,302832,305128,304447,304447,305128,49
50,test,1,con,1,z,Fri Jan 16 2026 09:37:15 GMT-0600 (Central Standard Time),309293.0,friend,900,O,z,z,None,645,446.0,199.0,26,1,2079.2000000476837,307213.7999999523,7745,friend,AF,A,306761,306761,305131,306045,305131,307210,306562,306562,307210,50
51,test,1,inc,1,z,Fri Jan 16 2026 09:37:15 GMT-0600 (Central Standard Time),311243.40000009537,jacket,800,O,z,z,None,615,416.0,199.0,29,1,1944.2000000476837,309299.2000000477,7745,friend,AF,A,308743,308743,307216,308028,307217,309161,308544,308544,309160,51
52,test,1,con,1,m,Fri Jan 16 2026 09:37:15 GMT-0600 (Central Standard Time),313043.09999990463,step,800,O,m,m,None,458,258.0,200.0,65,1,1795.5999999046326,311247.5,7745,step,AF,A,310693,310693,309165,309981,309165,310960,310493,310493,310960,52
53,test,1,con,1,m,Fri Jan 16 2026 09:37:15 GMT-0600 (Central Standard Time),315090.59999990463,napkin,800,O,m,m,None,705,498.0,207.0,105,1,2041.8999998569489,313048.7000000477,7745,napkin,AF,A,312499,312500,310966,311776,310966,313008,312292,312292,313008,53
54,test,1,con,1,m,Fri Jan 16 2026 09:37:15 GMT-0600 (Central Standard Time),317073.90000009537,film,900,O,m,m,None,540,325.0,215.0,90,1,1980.5,315093.40000009537,7745,film,AF,A,314658,314658,313010,313926,313011,314991,314443,314443,314991,54
55,test,1,inc,1,m,Fri Jan 16 2026 09:37:15 GMT-0600 (Central Standard Time),319490.90000009537,friend,1100,O,m,m,None,782,583.0,199.0,120,1,2412.600000143051,317078.2999999523,7745,remote,AF,A,316824,316824,314995,316108,314996,317408,316625,316625,317408,55
56,test,1,inc,1,m,Fri Jan 16 2026 09:37:15 GMT-0600 (Central Standard Time),321606.2000000477,love,1000,O,m,m,None,580,379.0,201.0,79,1,2109.5,319496.7000000477,7745,rock,AF,A,319141,319141,317414,318424,317414,319523,318939,318939,319523,56
57,test,1,inc,1,z,Fri Jan 16 2026 09:37:15 GMT-0600 (Central Standard Time),323987.7999999523,film,1100,O,z,z,None,747,547.0,200.0,48,1,2377.0,321610.7999999523,7745,hate,AF,A,321356,321356,319528,320643,319528,321905,321156,321156,321905,57
58,test,1,con,1,m,Fri Jan 16 2026 09:37:15 GMT-0600 (Central Standard Time),326204.5,remote,1000,O,m,m,None,686,472.0,214.0,115,1,2213.4000000953674,323991.09999990463,7745,remote,AF,A,323639,323639,321908,322923,321908,324122,323424,323424,324122,58
59,test,1,con,1,m,Fri Jan 16 2026 09:37:15 GMT-0600 (Central Standard Time),328270.7999999523,bell,1100,O,m,m,None,419,220.0,199.0,84,1,2059.2000000476837,326211.59999990463,7745,bell,AF,A,325954,325954,324129,325239,324129,326188,325755,325755,326188,59
60,test,1,inc,1,z,Fri Jan 16 2026 09:37:15 GMT-0600 (Central Standard Time),330419.90000009537,remote,1000,O,z,z,None,615,414.0,201.0,7,1,2145.5,328274.40000009537,7745,elated,AF,A,327922,327922,326191,327205,326192,328337,327720,327720,328337,60
61,test,1,inc,1,z,Fri Jan 16 2026 09:37:15 GMT-0600 (Central Standard Time),332488.0,step,800,O,z,z,None,729,528.0,201.0,53,1,2064.0999999046326,330423.90000009537,7745,rage,AF,A,329871,329871,328341,329153,328341,330405,329670,329670,330405,61
62,test,1,inc,1,z,Fri Jan 16 2026 09:37:15 GMT-0600 (Central Standard Time),334585.40000009537,napkin,900,O,z,z,None,650,450.0,200.0,62,1,2093.4000000953674,332492.0,7745,temper,AF,A,332037,332037,330409,331322,330409,332503,331837,331837,332502,62
63,test,1,con,1,z,Fri Jan 16 2026 09:37:15 GMT-0600 (Central Standard Time),336600.40000009537,friend,1000,O,z,z,None,475,275.0,200.0,27,1,2012.1000001430511,334588.2999999523,7745,friend,AF,A,334236,334236,332505,333520,332506,334517,334036,334036,334517,63
64,test,1,con,1,z,Fri Jan 16 2026 09:37:15 GMT-0600 (Central Standard Time),338400.40000009537,elated,800,O,z,z,None,474,274.0,200.0,1,1,1796.7000000476837,336603.7000000477,7745,elated,AF,A,336036,336036,334521,335335,334521,336317,335836,335836,336317,64
65,test,1,con,1,z,Fri Jan 16 2026 09:37:15 GMT-0600 (Central Standard Time),340233.7999999523,temper,800,O,z,z,None,491,277.0,214.0,57,1,1830.5,338403.2999999523,7745,temper,AF,A,337866,337866,336320,337136,336321,338151,337651,337652,338151,65
66,test,1,inc,1,m,Fri Jan 16 2026 09:37:15 GMT-0600 (Central Standard Time),342366.7000000477,temper,1000,O,m,m,None,602,403.0,199.0,119,1,2129.7000000476837,340237.0,7745,remote,AF,A,339868,339868,338154,339167,338154,340284,339668,339668,340284,66
67,test,1,inc,1,m,Fri Jan 16 2026 09:37:15 GMT-0600 (Central Standard Time),344298.5,elated,800,O,m,m,None,598,399.0,199.0,101,1,1927.0,342371.5,7745,jacket,AF,A,341801,341801,340289,341100,340289,342216,341601,341601,342216,67
68,test,1,con,1,m,Fri Jan 16 2026 09:37:15 GMT-0600 (Central Standard Time),346381.2999999523,remote,1100,O,m,m,None,443,228.0,215.0,116,1,2080.2000000476837,344301.09999990463,7745,remote,AF,A,344066,344066,342218,343334,342218,344298,343850,343850,344298,68
69,test,1,con,1,z,Fri Jan 16 2026 09:37:15 GMT-0600 (Central Standard Time),348364.2999999523,friend,800,O,z,z,None,665,464.0,201.0,25,1,1980.5,346383.7999999523,7745,friend,AF,A,345817,345817,344301,345115,344301,346281,345616,345616,346281,69
70,test,1,inc,1,m,Fri Jan 16 2026 09:37:15 GMT-0600 (Central Standard Time),350681.0,temper,1000,O,m,m,None,775,576.0,199.0,127,1,2312.5,348368.5,7745,window,AF,A,348015,348015,346286,347300,346286,348598,347815,347815,348598,70
71,test,1,con,1,z,Fri Jan 16 2026 09:37:15 GMT-0600 (Central Standard Time),352429.2999999523,brutal,800,O,z,z,None,427,213.0,214.0,33,1,1745.5,350683.7999999523,7745,brutal,AF,A,350130,350130,348601,349412,348601,350346,349916,349916,350346,71
72,test,1,inc,1,z,Fri Jan 16 2026 09:37:15 GMT-0600 (Central Standard Time),354496.7999999523,napkin,900,O,z,z,None,619,418.0,201.0,30,1,2064.7000000476837,352432.09999990463,7745,friend,AF,A,351981,351981,350349,351263,350349,352414,351780,351780,352414,72
73,test,1,inc,1,m,Fri Jan 16 2026 09:37:15 GMT-0600 (Central Standard Time),356561.7000000477,kind,900,O,m,m,None,624,406.0,218.0,94,1,2060.2000000476837,354501.5,7745,film,AF,A,354065,354065,352419,353330,352419,354479,353847,353847,354479,73
74,test,1,inc,1,m,Fri Jan 16 2026 09:37:15 GMT-0600 (Central Standard Time),358561.2999999523,kind,900,O,m,m,None,574,373.0,201.0,78,1,1996.7999999523163,356564.5,7745,rock,AF,A,356098,356098,354482,355395,354482,356478,355896,355896,356478,74
75,test,1,inc,1,z,Fri Jan 16 2026 09:37:15 GMT-0600 (Central Standard Time),360776.7999999523,window,1100,O,z,z,None,576,375.0,201.0,32,1,2212.5,358564.2999999523,7745,friend,AF,A,358312,358312,356481,357596,356482,358694,358111,358111,358694,75
76,test,1,inc,1,m,Fri Jan 16 2026 09:37:15 GMT-0600 (Central Standard Time),362960.09999990463,kind,900,O,m,m,None,735,536.0,199.0,70,1,2179.7999999523163,360780.2999999523,7745,step,AF,A,360327,360327,358697,359611,358697,360877,360128,360128,360877,76
77,test,1,inc,1,m,Fri Jan 16 2026 09:37:15 GMT-0600 (Central Standard Time),365076.09999990463,temper,1000,O,m,m,None,573,373.0,200.0,103,1,2110.399999856949,362965.7000000477,7745,jacket,AF,A,362611,362611,360883,361895,360883,362993,362411,362411,362993,77
78,test,1,inc,1,z,Fri Jan 16 2026 09:37:15 GMT-0600 (Central Standard Time),367242.7000000477,remote,1000,O,z,z,None,624,425.0,199.0,63,1,2162.0,365080.7000000477,7745,temper,AF,A,364726,364726,362998,364010,362998,365160,364527,364527,365160,78
79,test,1,inc,1,m,Fri Jan 16 2026 09:37:15 GMT-0600 (Central Standard Time),369357.40000009537,temper,1000,O,m,m,None,581,380.0,201.0,111,1,2109.300000190735,367248.09999990463,7745,napkin,AF,A,366892,366892,365165,366176,365165,367274,366691,366691,367274,79
80,test,1,inc,1,z,Fri Jan 16 2026 09:37:15 GMT-0600 (Central Standard Time),371439.40000009537,step,800,O,z,z,None,731,517.0,214.0,21,1,2078.7000000476837,369360.7000000477,7745,love,AF,A,368825,368825,367278,368092,367278,369356,368610,368610,369356,80
81,test,1,inc,1,z,Fri Jan 16 2026 09:37:15 GMT-0600 (Central Standard Time),373506.7999999523,rock,900,O,z,z,None,647,448.0,199.0,22,1,2064.399999856949,371442.40000009537,7745,love,AF,A,370975,370975,369359,370274,369360,371424,370775,370775,371424,81
82,test,1,con,1,m,Fri Jan 16 2026 09:37:15 GMT-0600 (Central Standard Time),375306.09999990463,bell,800,O,m,m,None,456,256.0,200.0,81,1,1793.7999999523163,373512.2999999523,7745,bell,AF,A,372958,372958,371429,372240,371430,373223,372758,372758,373223,82
83,test,1,con,1,m,Fri Jan 16 2026 09:37:15 GMT-0600 (Central Standard Time),377404.90000009537,remote,900,O,m,m,None,661,461.0,200.0,114,1,2095.300000190735,375309.59999990463,7745,remote,AF,A,374857,374857,373227,374142,373227,375322,374656,374656,375322,83
84,test,1,con,1,m,Fri Jan 16 2026 09:37:15 GMT-0600 (Central Standard Time),379421.59999990463,step,900,O,m,m,None,582,383.0,199.0,66,1,2013.5999999046326,377408.0,7745,step,AF,A,376955,376955,375325,376239,375325,377339,376756,376756,377338,84
85,test,1,inc,1,z,Fri Jan 16 2026 09:37:15 GMT-0600 (Central Standard Time),381288.0,jacket,800,O,z,z,None,527,326.0,201.0,37,1,1861.0,379427.0,7745,brutal,AF,A,378873,378874,377344,378155,377344,379205,378672,378672,379205,85
86,test,1,con,1,z,Fri Jan 16 2026 09:37:15 GMT-0600 (Central Standard Time),383336.09999990463,love,900,O,z,z,None,607,407.0,200.0,18,1,2043.6999998092651,381292.40000009537,7745,love,AF,A,380839,380839,379209,380121,379210,381253,380638,380638,381253,86
87,test,1,inc,1,z,Fri Jan 16 2026 09:37:15 GMT-0600 (Central Standard Time),385567.7000000477,film,1100,O,z,z,None,591,391.0,200.0,16,1,2228.0,383339.7000000477,7745,kind,AF,A,383087,383087,381257,382371,381257,383485,382887,382887,383485,87
88,test,1,con,1,z,Fri Jan 16 2026 09:37:15 GMT-0600 (Central Standard Time),387485.2999999523,kind,900,O,z,z,None,496,296.0,200.0,10,1,1914.5999999046326,385570.7000000477,7745,kind,AF,A,385104,385104,383488,384403,383488,385402,384904,384904,385402,88
89,test,1,con,1,m,Fri Jan 16 2026 09:37:15 GMT-0600 (Central Standard Time),389351.2999999523,bell,900,O,m,m,None,436,235.0,201.0,82,1,1863.0999999046326,387488.2000000477,7745,bell,AF,A,387020,387020,385405,386318,385405,387268,386819,386819,387268,89
90,test,1,con,1,m,Fri Jan 16 2026 09:37:15 GMT-0600 (Central Standard Time),391200.90000009537,window,900,O,m,m,None,422,209.0,213.0,122,1,1845.6000001430511,389355.2999999523,7745,window,AF,A,388901,388902,387272,388185,387273,389118,388688,388688,389118,90
91,test,1,inc,1,m,Fri Jan 16 2026 09:37:15 GMT-0600 (Central Standard Time),393183.59999990463,elated,800,O,m,m,None,644,444.0,200.0,117,1,1977.8999998569489,391205.7000000477,7745,remote,AF,A,390651,390651,389123,389934,389123,391101,390451,390451,391101,91
92,test,1,inc,1,z,Fri Jan 16 2026 09:37:15 GMT-0600 (Central Standard Time),395334.5,bell,1000,O,z,z,None,613,414.0,199.0,15,1,2146.2999999523163,393188.2000000477,7745,kind,AF,A,392833,392833,391105,392117,391105,393252,392634,392634,393252,92
93,test,1,con,1,m,Fri Jan 16 2026 09:37:15 GMT-0600 (Central Standard Time),397685.7999999523,window,1100,O,m,m,None,708,507.0,201.0,124,1,2345.7000000476837,395340.09999990463,7745,window,AF,A,395085,395085,393257,394366,393257,395603,394883,394883,395603,93
94,test,1,inc,1,m,Fri Jan 16 2026 09:37:15 GMT-0600 (Central Standard Time),399715.40000009537,brutal,900,O,m,m,None,596,380.0,216.0,102,1,2025.9000000953674,397689.5,7745,jacket,AF,A,397236,397236,395607,396516,395607,397632,397020,397020,397632,94
95,test,1,inc,1,z,Fri Jan 16 2026 09:37:15 GMT-0600 (Central Standard Time),401862.90000009537,remote,1000,O,z,z,None,601,401.0,200.0,39,1,2142.4000000953674,399720.5,7745,brutal,AF,A,399365,399365,397638,398649,397638,399780,399165,399165,399780,95
96,test,1,inc,1,m,Fri Jan 16 2026 09:37:15 GMT-0600 (Central Standard Time),404229.7000000477,friend,1100,O,m,m,None,716,504.0,212.0,104,1,2363.4000000953674,401866.2999999523,7745,jacket,AF,A,401631,401631,399783,400898,399783,402147,401418,401418,402147,96
97,test,1,inc,1,z,Fri Jan 16 2026 09:37:15 GMT-0600 (Central Standard Time),406279.0,rock,900,O,z,z,None,606,394.0,212.0,46,1,2042.5999999046326,404236.40000009537,7745,hate,AF,A,403797,403797,402153,403063,402154,404196,403584,403584,404196,97
98,test,1,con,1,m,Fri Jan 16 2026 09:37:15 GMT-0600 (Central Standard Time),408064.7000000477,film,800,O,m,m,None,445,231.0,214.0,89,1,1779.1000001430511,406285.59999990463,7745,film,AF,A,405746,405746,404203,405013,404203,405982,405531,405531,405982,98
99,test,1,con,1,z,Fri Jan 16 2026 09:37:15 GMT-0600 (Central Standard Time),410161.5,rage,1100,O,z,z,None,474,275.0,199.0,52,1,2091.2999999523163,408070.2000000477,7745,rage,AF,A,407796,407796,405987,407094,405987,408079,407596,407596,408079,99
100,test,1,con,1,m,Fri Jan 16 2026 09:37:15 GMT-0600 (Central Standard Time),412460.90000009537,film,1100,O,m,m,None,668,468.0,200.0,92,1,2295.800000190735,410165.09999990463,7745,film,AF,A,409910,409910,408082,409195,408082,410378,409710,409710,410378,100
101,test,1,con,1,m,Fri Jan 16 2026 09:37:15 GMT-0600 (Central Standard Time),414410.5,napkin,1000,O,m,m,None,425,226.0,199.0,107,1,1945.0,412465.5,7745,napkin,AF,A,412094,412094,410383,411393,410383,412328,411895,411895,412328,101
102,test,1,inc,1,z,Fri Jan 16 2026 09:37:15 GMT-0600 (Central Standard Time),416442.90000009537,rock,900,O,z,z,None,598,397.0,201.0,54,1,2027.2000000476837,414415.7000000477,7745,rage,AF,A,413962,413962,412333,413244,412333,414360,413760,413760,414360,102
103,test,1,inc,1,z,Fri Jan 16 2026 09:37:15 GMT-0600 (Central Standard Time),418662.7000000477,remote,1000,O,z,z,None,682,482.0,200.0,31,1,2215.5,416447.2000000477,7745,friend,AF,A,416094,416094,414364,415375,414364,416580,415893,415893,416580,103
104,test,1,con,1,z,Fri Jan 16 2026 09:37:15 GMT-0600 (Central Standard Time),420675.59999990463,love,1100,O,z,z,None,373,174.0,199.0,20,1,2007.0999999046326,418668.5,7745,love,AF,A,418409,418409,416586,417692,416586,418593,418210,418210,418593,104
105,test,1,inc,1,z,Fri Jan 16 2026 09:37:15 GMT-0600 (Central Standard Time),422708.2999999523,bell,1000,O,z,z,None,487,271.0,216.0,23,1,2027.0999999046326,420681.2000000477,7745,love,AF,A,420344,420344,418598,419608,418598,420625,420127,420127,420625,105
106,test,1,inc,1,m,Fri Jan 16 2026 09:37:15 GMT-0600 (Central Standard Time),424624.59999990463,rage,800,O,m,m,None,578,378.0,200.0,69,1,1913.2999999523163,422711.2999999523,7745,step,AF,A,422157,422157,420628,421445,420629,422542,421957,421957,422542,106
107,test,1,con,1,z,Fri Jan 16 2026 09:37:15 GMT-0600 (Central Standard Time),426709.09999990463,rage,900,O,z,z,None,664,465.0,199.0,50,1,2079.7999999523163,424629.2999999523,7745,rage,AF,A,424157,424157,422546,423457,422547,424626,423958,423958,424626,107
108,test,1,inc,1,m,Fri Jan 16 2026 09:37:15 GMT-0600 (Central Standard Time),428688.5,rage,800,O,m,m,None,633,432.0,201.0,93,1,1974.5999999046326,426713.90000009537,7745,film,AF,A,426158,426158,424631,425440,424631,426606,425956,425956,426606,108
109,test,1,con,1,m,Fri Jan 16 2026 09:37:15 GMT-0600 (Central Standard Time),430922.7999999523,window,1000,O,m,m,None,700,501.0,199.0,123,1,2231.399999856949,428691.40000009537,7745,window,AF,A,428339,428339,426608,427623,426609,428840,428139,428139,428840,109
110,test,1,con,1,m,Fri Jan 16 2026 09:37:15 GMT-0600 (Central Standard Time),433053.09999990463,jacket,1000,O,m,m,None,600,398.0,202.0,99,1,2124.899999856949,430928.2000000477,7745,jacket,AF,A,430560,430560,428845,429855,428845,430970,430358,430358,430970,110
111,test,1,con,1,m,Fri Jan 16 2026 09:37:15 GMT-0600 (Central Standard Time),434936.5,jacket,900,O,m,m,None,435,235.0,200.0,98,1,1879.5999999046326,433056.90000009537,7745,jacket,AF,A,432604,432604,430974,431888,430974,432854,432404,432404,432853,111
112,test,1,con,1,m,Fri Jan 16 2026 09:37:15 GMT-0600 (Central Standard Time),436821.2000000477,rock,900,O,m,m,None,440,241.0,199.0,74,1,1880.6000001430511,434940.59999990463,7745,rock,AF,A,434486,434486,432858,433771,432858,434738,434287,434287,434738,112
113,test,1,con,1,m,Fri Jan 16 2026 09:37:15 GMT-0600 (Central Standard Time),438686.59999990463,napkin,900,O,m,m,None,431,229.0,202.0,106,1,1860.3999998569489,436826.2000000477,7745,napkin,AF,A,436371,436371,434743,435653,434743,436604,436169,436169,436604,113
114,test,1,con,1,z,Fri Jan 16 2026 09:37:15 GMT-0600 (Central Standard Time),440701.2000000477,elated,1100,O,z,z,None,379,177.0,202.0,4,1,2010.2000000476837,438691.0,7745,elated,AF,A,438437,438438,436608,437721,436608,438618,438235,438235,438618,114
115,test,1,con,1,z,Fri Jan 16 2026 09:37:15 GMT-0600 (Central Standard Time),442784.2999999523,kind,800,O,z,z,None,733,515.0,218.0,9,1,2078.2000000476837,440706.09999990463,7745,kind,AF,A,440171,440171,438623,439437,438623,440701,439953,439953,440701,115
116,test,1,inc,1,m,Fri Jan 16 2026 09:37:15 GMT-0600 (Central Standard Time),444766.5,brutal,900,O,m,m,None,544,343.0,201.0,126,1,1979.2999999523163,442787.2000000477,7745,window,AF,A,442336,442336,440704,441618,440704,442684,442134,442134,442683,116
117,test,1,con,1,z,Fri Jan 16 2026 09:37:15 GMT-0600 (Central Standard Time),446699.40000009537,temper,1000,O,z,z,None,389,189.0,200.0,59,1,1927.3000001907349,444772.09999990463,7745,temper,AF,A,444418,444418,442689,443704,442689,444616,444217,444217,444616,117
118,test,1,inc,1,z,Fri Jan 16 2026 09:37:15 GMT-0600 (Central Standard Time),448952.2000000477,window,1100,O,z,z,None,612,400.0,212.0,8,1,2248.100000143051,446704.09999990463,7745,elated,AF,A,446466,446466,444621,445734,444621,446869,446253,446253,446869,118
119,test,1,inc,1,z,Fri Jan 16 2026 09:37:15 GMT-0600 (Central Standard Time),450848.7000000477,jacket,800,O,z,z,None,566,351.0,215.0,5,1,1893.2000000476837,448955.5,7745,elated,AF,A,448400,448400,446873,447683,446873,448766,448184,448184,448766,119
120,test,1,inc,1,m,Fri Jan 16 2026 09:37:15 GMT-0600 (Central Standard Time),452896.7999999523,kind,900,O,m,m,None,606,407.0,199.0,86,1,2043.7999999523163,450853.0,7745,bell,AF,A,450399,450399,448770,449682,448770,450814,450200,450200,450814,120
121,test,1,con,1,z,Fri Jan 16 2026 09:37:15 GMT-0600 (Central Standard Time),455047.2999999523,kind,1000,O,z,z,None,626,411.0,215.0,11,1,2147.7000000476837,452899.59999990463,7745,kind,AF,A,452548,452548,450817,451830,450817,452964,452333,452333,452964,121
122,test,1,con,1,z,Fri Jan 16 2026 09:37:15 GMT-0600 (Central Standard Time),457315.09999990463,temper,1100,O,z,z,None,643,443.0,200.0,60,1,2263.699999809265,455051.40000009537,7745,temper,AF,A,454780,454780,452968,454079,452969,455232,454580,454580,455232,122
123,test,1,inc,1,z,Fri Jan 16 2026 09:37:15 GMT-0600 (Central Standard Time),459261.40000009537,step,800,O,z,z,None,609,393.0,216.0,45,1,1943.1000001430511,457318.2999999523,7745,hate,AF,A,456781,456781,455235,456047,455235,457179,456565,456565,457178,123
124,test,1,inc,1,m,Fri Jan 16 2026 09:37:15 GMT-0600 (Central Standard Time),461444.7999999523,friend,1100,O,m,m,None,561,346.0,215.0,128,1,2180.7000000476837,459264.09999990463,7745,window,AF,A,459012,459012,457181,458296,457181,459362,458797,458797,459362,124
125,test,1,con,1,m,Fri Jan 16 2026 09:37:15 GMT-0600 (Central Standard Time),463811.09999990463,step,1100,O,m,m,None,733,532.0,201.0,68,1,2363.0,461448.09999990463,7745,step,AF,A,461195,461195,459365,460480,459365,461728,460994,460994,461728,125
126,test,1,inc,1,m,Fri Jan 16 2026 09:37:15 GMT-0600 (Central Standard Time),465844.7999999523,brutal,900,O,m,m,None,591,391.0,200.0,118,1,2029.2999999523163,463815.5,7745,remote,AF,A,463361,463361,461733,462645,461733,463762,463161,463161,463762,126
127,test,1,con,1,z,Fri Jan 16 2026 09:37:15 GMT-0600 (Central Standard Time),467626.0,love,800,O,z,z,None,442,241.0,201.0,17,1,1777.5999999046326,465848.40000009537,7745,love,AF,A,465293,465293,463765,464577,463766,465543,465092,465092,465543,127
128,test,1,con,1,m,Fri Jan 16 2026 09:37:15 GMT-0600 (Central Standard Time),469660.09999990463,step,1000,O,m,m,None,499,300.0,199.0,67,1,2031.5,467628.59999990463,7745,step,AF,A,467277,467277,465546,466562,465546,467577,467077,467077,467577,128
