Number,acc_sum,block,block_c,block_cond,con_img,correct,correct_response,datetime,endtime,jitter,project,response,response_time,row_sel,session_number,start_end,starttime,subject_id,task,task_vers,trial
2,1,prac,1,A,circle.png,1,z,Mon Jul 14 2025 13:10:57 GMT-0500 (Central Daylight Time),59983.09999999404,2000,I,z,742,2,2,3527.0,56456.09999999404,8039,NTS,A,1
8,2,prac,1,A,circle.png,1,m,Mon Jul 14 2025 13:10:57 GMT-0500 (Central Daylight Time),63098.5,1600,I,m,722,7,2,3109.0999999940395,59989.40000000596,8039,NTS,A,2
3,3,prac,1,A,circle.png,1,z,Mon Jul 14 2025 13:10:57 GMT-0500 (Central Daylight Time),65697.59999999404,1200,I,z,606,3,2,2593.0999999940395,63104.5,8039,NTS,A,3
9,4,prac,1,A,circle.png,1,m,Mon Jul 14 2025 13:10:57 GMT-0500 (Central Daylight Time),68480.29999998212,1500,I,m,492,8,2,2777.2999999821186,65703.0,8039,NTS,A,4
1,5,prac,1,A,circle.png,1,z,Mon Jul 14 2025 13:10:57 GMT-0500 (Central Daylight Time),70879.40000000596,1000,I,z,609,1,2,2393.5,68485.90000000596,8039,NTS,A,5
7,6,prac,1,A,circle.png,1,m,Mon Jul 14 2025 13:10:57 GMT-0500 (Central Daylight Time),73945.29999998212,1700,I,m,567,6,2,3060.699999988079,70884.59999999404,8039,NTS,A,6
4,7,prac,1,A,circle.png,1,z,Mon Jul 14 2025 13:10:57 GMT-0500 (Central Daylight Time),76712.19999998808,1400,I,z,576,4,2,2761.5999999940395,73950.59999999404,8039,NTS,A,7
7,8,prac,1,A,circle.png,1,m,Mon Jul 14 2025 13:10:57 GMT-0500 (Central Daylight Time),79693.40000000596,1700,I,m,495,6,2,2976.100000023842,76717.29999998212,8039,NTS,A,8
1,9,prac,1,A,circle.png,1,z,Mon Jul 14 2025 13:10:57 GMT-0500 (Central Daylight Time),82059.29999998212,1000,I,z,573,1,2,2360.5999999940395,79698.69999998808,8039,NTS,A,9
6,10,prac,1,A,circle.png,1,m,Mon Jul 14 2025 13:10:57 GMT-0500 (Central Daylight Time),85241.90000000596,1900,I,m,491,5,2,3177.2000000178814,82064.69999998808,8039,NTS,A,10
3,11,prac,1,A,circle.png,1,z,Mon Jul 14 2025 13:10:57 GMT-0500 (Central Daylight Time),87757.59999999404,1200,I,z,519,3,2,2510.5,85247.09999999404,8039,NTS,A,11
9,12,prac,1,A,circle.png,1,m,Mon Jul 14 2025 13:10:57 GMT-0500 (Central Daylight Time),90573.19999998808,1500,I,m,518,8,2,2810.699999988079,87762.5,8039,NTS,A,12
8,1,prac,1,B,triangle.png,1,m,Mon Jul 14 2025 13:10:57 GMT-0500 (Central Daylight Time),118798.79999998212,1200,I,m,986,7,2,2962.5999999940395,115836.19999998808,8039,NTS,A,1
1,2,prac,1,B,triangle.png,1,z,Mon Jul 14 2025 13:10:57 GMT-0500 (Central Daylight Time),121964.0,1900,I,z,479,1,2,3159.800000011921,118804.19999998808,8039,NTS,A,2
4,3,prac,1,B,triangle.png,1,m,Mon Jul 14 2025 13:10:57 GMT-0500 (Central Daylight Time),125045.90000000596,1500,I,m,795,4,2,3076.9000000059605,121969.0,8039,NTS,A,3
7,4,prac,1,B,triangle.png,1,z,Mon Jul 14 2025 13:10:57 GMT-0500 (Central Daylight Time),128494.69999998808,2000,I,z,652,6,2,3443.2999999821186,125051.40000000596,8039,NTS,A,4
2,5,prac,1,B,triangle.png,1,m,Mon Jul 14 2025 13:10:57 GMT-0500 (Central Daylight Time),131644.79999998212,1700,I,m,672,2,2,3144.5999999940395,128500.19999998808,8039,NTS,A,5
7,6,prac,1,B,triangle.png,1,z,Mon Jul 14 2025 13:10:57 GMT-0500 (Central Daylight Time),134892.59999999404,2000,I,z,455,6,2,3242.199999988079,131650.40000000596,8039,NTS,A,6
9,7,prac,1,B,triangle.png,1,z,Mon Jul 14 2025 13:10:57 GMT-0500 (Central Daylight Time),137958.40000000596,1400,I,z,868,8,2,3060.800000011921,134897.59999999404,8039,NTS,A,7
1,8,prac,1,B,triangle.png,1,z,Mon Jul 14 2025 13:10:57 GMT-0500 (Central Daylight Time),141407.5,1900,I,z,760,1,2,3444.2000000178814,137963.29999998212,8039,NTS,A,8
2,9,prac,1,B,triangle.png,1,m,Mon Jul 14 2025 13:10:57 GMT-0500 (Central Daylight Time),144373.19999998808,1700,I,m,479,2,2,2960.7999999821186,141412.40000000596,8039,NTS,A,9
3,10,prac,1,B,triangle.png,1,z,Mon Jul 14 2025 13:10:57 GMT-0500 (Central Daylight Time),147572.29999998212,1600,I,z,813,3,2,3194.0999999940395,144378.19999998808,8039,NTS,A,10
9,11,prac,1,B,triangle.png,1,z,Mon Jul 14 2025 13:10:57 GMT-0500 (Central Daylight Time),150404.29999998212,1400,I,z,645,8,2,2827.2999999821186,147577.0,8039,NTS,A,11
6,12,prac,1,B,triangle.png,1,m,Mon Jul 14 2025 13:10:57 GMT-0500 (Central Daylight Time),152853.90000000596,1000,I,m,662,5,2,2444.9000000059605,150409.0,8039,NTS,A,12
1,1,test,1,A,circle.png,1,z,Mon Jul 14 2025 13:10:57 GMT-0500 (Central Daylight Time),173480.79999998212,1000,I,z,694,1,2,1712.0,171768.79999998212,8039,NTS,A,1
9,2,test,1,A,circle.png,1,m,Mon Jul 14 2025 13:10:57 GMT-0500 (Central Daylight Time),175729.79999998212,1500,I,m,716,8,2,2244.899999976158,173484.90000000596,8039,NTS,A,2
7,3,test,1,A,circle.png,1,m,Mon Jul 14 2025 13:10:57 GMT-0500 (Central Daylight Time),177995.69999998808,1700,I,m,547,6,2,2262.5,175733.19999998808,8039,NTS,A,3
2,4,test,1,A,circle.png,1,z,Mon Jul 14 2025 13:10:57 GMT-0500 (Central Daylight Time),180644.79999998212,2000,I,z,630,2,2,2645.5,177999.29999998212,8039,NTS,A,4
2,5,test,1,A,circle.png,1,z,Mon Jul 14 2025 13:10:57 GMT-0500 (Central Daylight Time),183144.0,2000,I,z,477,2,2,2495.2000000178814,180648.79999998212,8039,NTS,A,5
3,6,test,1,A,circle.png,1,z,Mon Jul 14 2025 13:10:57 GMT-0500 (Central Daylight Time),185443.0,1200,I,z,984,3,2,2295.300000011921,183147.69999998808,8039,NTS,A,6
4,7,test,1,A,circle.png,1,z,Mon Jul 14 2025 13:10:57 GMT-0500 (Central Daylight Time),187459.59999999404,1400,I,z,590,4,2,2012.4000000059605,185447.19999998808,8039,NTS,A,7
4,8,test,1,A,circle.png,1,z,Mon Jul 14 2025 13:10:57 GMT-0500 (Central Daylight Time),189408.69999998808,1400,I,z,526,4,2,1945.2999999821186,187463.40000000596,8039,NTS,A,8
7,9,test,1,A,circle.png,1,m,Mon Jul 14 2025 13:10:57 GMT-0500 (Central Daylight Time),191591.59999999404,1700,I,m,461,6,2,2179.5999999940395,189412.0,8039,NTS,A,9
8,10,test,1,A,circle.png,1,m,Mon Jul 14 2025 13:10:57 GMT-0500 (Central Daylight Time),193774.09999999404,1600,I,m,562,7,2,2178.699999988079,191595.40000000596,8039,NTS,A,10
1,11,test,1,A,circle.png,1,z,Mon Jul 14 2025 13:10:57 GMT-0500 (Central Daylight Time),195357.09999999404,1000,I,z,563,1,2,1579.199999988079,193777.90000000596,8039,NTS,A,11
4,12,test,1,A,circle.png,1,z,Mon Jul 14 2025 13:10:57 GMT-0500 (Central Daylight Time),197406.29999998212,1400,I,z,628,4,2,2045.7999999821186,195360.5,8039,NTS,A,12
7,13,test,1,A,circle.png,1,m,Mon Jul 14 2025 13:10:57 GMT-0500 (Central Daylight Time),199839.0,1700,I,m,712,6,2,2429.0,197410.0,8039,NTS,A,13
8,14,test,1,A,circle.png,1,m,Mon Jul 14 2025 13:10:57 GMT-0500 (Central Daylight Time),202021.5,1600,I,m,555,7,2,2178.9000000059605,199842.59999999404,8039,NTS,A,14
6,15,test,1,A,circle.png,1,m,Mon Jul 14 2025 13:10:57 GMT-0500 (Central Daylight Time),204471.0,1900,I,m,521,5,2,2445.5999999940395,202025.40000000596,8039,NTS,A,15
4,16,test,1,A,circle.png,1,z,Mon Jul 14 2025 13:10:57 GMT-0500 (Central Daylight Time),206286.79999998212,1400,I,z,395,4,2,1812.0999999940395,204474.69999998808,8039,NTS,A,16
9,17,test,1,A,circle.png,1,m,Mon Jul 14 2025 13:10:57 GMT-0500 (Central Daylight Time),208238.5,1500,I,m,416,8,2,1947.9000000059605,206290.59999999404,8039,NTS,A,17
8,18,test,1,A,circle.png,1,m,Mon Jul 14 2025 13:10:57 GMT-0500 (Central Daylight Time),210385.5,1600,I,m,517,7,2,2142.7000000178814,208242.79999998212,8039,NTS,A,18
1,19,test,1,A,circle.png,1,z,Mon Jul 14 2025 13:10:57 GMT-0500 (Central Daylight Time),211901.69999998808,1000,I,z,496,1,2,1512.4000000059605,210389.29999998212,8039,NTS,A,19
3,20,test,1,A,circle.png,1,z,Mon Jul 14 2025 13:10:57 GMT-0500 (Central Daylight Time),213567.90000000596,1200,I,z,435,3,2,1662.5,211905.40000000596,8039,NTS,A,20
7,21,test,1,A,circle.png,1,m,Mon Jul 14 2025 13:10:57 GMT-0500 (Central Daylight Time),215700.59999999404,1700,I,m,414,6,2,2129.199999988079,213571.40000000596,8039,NTS,A,21
6,22,test,1,A,circle.png,1,m,Mon Jul 14 2025 13:10:57 GMT-0500 (Central Daylight Time),218133.0,1900,I,m,505,5,2,2428.9000000059605,215704.09999999404,8039,NTS,A,22
6,23,test,1,A,circle.png,1,m,Mon Jul 14 2025 13:10:57 GMT-0500 (Central Daylight Time),220515.69999998808,1900,I,m,465,5,2,2379.4000000059605,218136.29999998212,8039,NTS,A,23
9,24,test,1,A,circle.png,1,m,Mon Jul 14 2025 13:10:57 GMT-0500 (Central Daylight Time),222615.0,1500,I,m,570,8,2,2095.5999999940395,220519.40000000596,8039,NTS,A,24
8,1,test,1,B,triangle.png,1,m,Mon Jul 14 2025 13:10:57 GMT-0500 (Central Daylight Time),238493.40000000596,1700,I,m,629,15,2,2346.100000023842,236147.29999998212,8039,NTS,A,1
4,2,test,1,B,triangle.png,1,m,Mon Jul 14 2025 13:10:57 GMT-0500 (Central Daylight Time),240076.09999999404,1000,I,m,564,12,2,1579.0,238497.09999999404,8039,NTS,A,2
9,3,test,1,B,triangle.png,1,z,Mon Jul 14 2025 13:10:57 GMT-0500 (Central Daylight Time),242558.69999998808,1900,I,z,553,16,2,2479.2999999821186,240079.40000000596,8039,NTS,A,3
2,4,test,1,B,triangle.png,1,m,Mon Jul 14 2025 13:10:57 GMT-0500 (Central Daylight Time),244424.59999999404,1200,I,m,635,10,2,1862.300000011921,242562.29999998212,8039,NTS,A,4
2,5,test,1,B,triangle.png,1,m,Mon Jul 14 2025 13:10:57 GMT-0500 (Central Daylight Time),246740.79999998212,1700,I,m,589,2,2,2312.7999999821186,244428.0,8039,NTS,A,5
8,6,test,1,B,triangle.png,1,m,Mon Jul 14 2025 13:10:57 GMT-0500 (Central Daylight Time),248556.5,1200,I,m,597,7,2,1811.5999999940395,246744.90000000596,8039,NTS,A,6
7,7,test,1,B,triangle.png,1,z,Mon Jul 14 2025 13:10:57 GMT-0500 (Central Daylight Time),250622.79999998212,1600,I,z,437,14,2,2063.199999988079,248559.59999999404,8039,NTS,A,7
3,8,test,1,B,triangle.png,1,z,Mon Jul 14 2025 13:10:57 GMT-0500 (Central Daylight Time),253105.5,2000,I,z,450,11,2,2479.0999999940395,250626.40000000596,8039,NTS,A,8
1,9,test,1,B,triangle.png,1,z,Mon Jul 14 2025 13:10:57 GMT-0500 (Central Daylight Time),255638.79999998212,1900,I,z,549,1,2,2529.699999988079,253109.09999999404,8039,NTS,A,9
7,10,test,1,B,triangle.png,1,z,Mon Jul 14 2025 13:10:57 GMT-0500 (Central Daylight Time),257720.59999999404,1600,I,z,452,14,2,2078.0,255642.59999999404,8039,NTS,A,10
4,11,test,1,B,triangle.png,1,m,Mon Jul 14 2025 13:10:57 GMT-0500 (Central Daylight Time),259387.09999999404,1000,I,m,633,12,2,1662.800000011921,257724.29999998212,8039,NTS,A,11
3,12,test,1,B,triangle.png,1,z,Mon Jul 14 2025 13:10:57 GMT-0500 (Central Daylight Time),261502.69999998808,1600,I,z,495,3,2,2111.9000000059605,259390.79999998212,8039,NTS,A,12
1,13,test,1,B,triangle.png,1,z,Mon Jul 14 2025 13:10:57 GMT-0500 (Central Daylight Time),264118.90000000596,1900,I,z,686,1,2,2612.7000000178814,261506.19999998808,8039,NTS,A,13
4,14,test,1,B,triangle.png,1,m,Mon Jul 14 2025 13:10:57 GMT-0500 (Central Daylight Time),266151.40000000596,1500,I,m,504,4,2,2029.1000000238419,264122.2999999821,8039,NTS,A,14
1,15,test,1,B,triangle.png,1,z,Mon Jul 14 2025 13:10:57 GMT-0500 (Central Daylight Time),268067.5,1400,I,z,491,9,2,1912.4000000059605,266155.09999999404,8039,NTS,A,15
6,16,test,1,B,triangle.png,1,m,Mon Jul 14 2025 13:10:57 GMT-0500 (Central Daylight Time),270133.40000000596,1500,I,m,539,13,2,2062.2000000178814,268071.1999999881,8039,NTS,A,16
9,17,test,1,B,triangle.png,1,z,Mon Jul 14 2025 13:10:57 GMT-0500 (Central Daylight Time),272032.90000000596,1400,I,z,477,8,2,1895.4000000059605,270137.5,8039,NTS,A,17
3,18,test,1,B,triangle.png,1,z,Mon Jul 14 2025 13:10:57 GMT-0500 (Central Daylight Time),274565.40000000596,2000,I,z,514,11,2,2529.100000023842,272036.2999999821,8039,NTS,A,18
7,19,test,1,B,triangle.png,1,z,Mon Jul 14 2025 13:10:57 GMT-0500 (Central Daylight Time),276981.40000000596,2000,I,z,397,6,2,2412.300000011921,274569.09999999404,8039,NTS,A,19
6,20,test,1,B,triangle.png,1,m,Mon Jul 14 2025 13:10:57 GMT-0500 (Central Daylight Time),279280.5,1500,I,m,656,13,2,2295.5999999940395,276984.90000000596,8039,NTS,A,20
7,21,test,1,B,triangle.png,1,z,Mon Jul 14 2025 13:10:57 GMT-0500 (Central Daylight Time),281696.6999999881,2000,I,z,394,6,2,2412.4000000059605,279284.2999999821,8039,NTS,A,21
2,22,test,1,B,triangle.png,1,m,Mon Jul 14 2025 13:10:57 GMT-0500 (Central Daylight Time),283879.2999999821,1700,I,m,462,2,2,2179.0999999940395,281700.1999999881,8039,NTS,A,22
6,23,test,1,B,triangle.png,1,m,Mon Jul 14 2025 13:10:57 GMT-0500 (Central Daylight Time),285413.1999999881,1000,I,m,507,5,2,1530.2999999821186,283882.90000000596,8039,NTS,A,23
9,24,test,1,B,triangle.png,1,z,Mon Jul 14 2025 13:10:57 GMT-0500 (Central Daylight Time),287794.6999999881,1900,I,z,459,16,2,2377.9000000059605,285416.7999999821,8039,NTS,A,24
7,0,prac,1,C,triangle.png,0,z,Mon Jul 14 2025 13:10:57 GMT-0500 (Central Daylight Time),331081.0,1200,I,None,1515,6,2,3494.7000000178814,327586.2999999821,8039,NTS,A,1
6,1,prac,1,C,circle.png,1,m,Mon Jul 14 2025 13:10:57 GMT-0500 (Central Daylight Time),334846.5,2000,I,m,969,5,2,3759.9000000059605,331086.59999999404,8039,NTS,A,2
8,2,prac,1,C,triangle.png,1,m,Mon Jul 14 2025 13:10:57 GMT-0500 (Central Daylight Time),337929.0,1400,I,m,891,7,2,3077.5999999940395,334851.40000000596,8039,NTS,A,3
4,3,prac,1,C,circle.png,1,z,Mon Jul 14 2025 13:10:57 GMT-0500 (Central Daylight Time),340661.5,1000,I,z,945,4,2,2724.9000000059605,337936.59999999404,8039,NTS,A,4
9,4,prac,1,C,circle.png,1,m,Mon Jul 14 2025 13:10:57 GMT-0500 (Central Daylight Time),344310.0,1900,I,m,960,8,2,3643.9000000059605,340666.09999999404,8039,NTS,A,5
4,4,prac,1,C,circle.png,0,z,Mon Jul 14 2025 13:10:57 GMT-0500 (Central Daylight Time),347176.1999999881,1000,I,m,1068,4,2,2861.0999999940395,344315.09999999404,8039,NTS,A,6
7,5,prac,1,C,triangle.png,1,z,Mon Jul 14 2025 13:10:57 GMT-0500 (Central Daylight Time),349841.6999999881,1200,I,z,673,6,2,2660.7999999821186,347180.90000000596,8039,NTS,A,7
2,6,prac,1,C,triangle.png,1,m,Mon Jul 14 2025 13:10:57 GMT-0500 (Central Daylight Time),352808.40000000596,1600,I,m,568,2,2,2962.0,349846.40000000596,8039,NTS,A,8
3,7,prac,1,C,triangle.png,1,z,Mon Jul 14 2025 13:10:57 GMT-0500 (Central Daylight Time),355956.5,1500,I,z,862,3,2,3143.0,352813.5,8039,NTS,A,9
1,8,prac,1,C,circle.png,1,z,Mon Jul 14 2025 13:10:57 GMT-0500 (Central Daylight Time),359172.09999999404,1700,I,z,721,1,2,3210.5999999940395,355961.5,8039,NTS,A,10
8,9,prac,1,C,triangle.png,1,m,Mon Jul 14 2025 13:10:57 GMT-0500 (Central Daylight Time),361904.59999999404,1400,I,m,533,7,2,2727.5,359177.09999999404,8039,NTS,A,11
1,10,prac,1,C,circle.png,1,z,Mon Jul 14 2025 13:10:57 GMT-0500 (Central Daylight Time),365020.09999999404,1700,I,z,622,1,2,3110.699999988079,361909.40000000596,8039,NTS,A,12
7,1,test,1,C,circle.png,1,m,Mon Jul 14 2025 13:10:57 GMT-0500 (Central Daylight Time),384114.40000000596,2000,I,m,958,14,2,2979.4000000059605,381135.0,8039,NTS,A,1
2,2,test,1,C,circle.png,1,z,Mon Jul 14 2025 13:10:57 GMT-0500 (Central Daylight Time),386730.1999999881,1700,I,z,892,10,2,2611.699999988079,384118.5,8039,NTS,A,2
3,3,test,1,C,circle.png,1,z,Mon Jul 14 2025 13:10:57 GMT-0500 (Central Daylight Time),389229.40000000596,1600,I,z,872,19,2,2495.600000023842,386733.7999999821,8039,NTS,A,3
9,4,test,1,C,circle.png,1,m,Mon Jul 14 2025 13:10:57 GMT-0500 (Central Daylight Time),391362.09999999404,1500,I,m,600,24,2,2127.300000011921,389234.7999999821,8039,NTS,A,4
1,5,test,1,C,triangle.png,1,z,Mon Jul 14 2025 13:10:57 GMT-0500 (Central Daylight Time),393911.1999999881,1900,I,z,619,17,2,2544.199999988079,391367.0,8039,NTS,A,5
6,6,test,1,C,triangle.png,1,m,Mon Jul 14 2025 13:10:57 GMT-0500 (Central Daylight Time),395527.1999999881,1000,I,m,595,13,2,1612.199999988079,393915.0,8039,NTS,A,6
8,6,test,1,C,triangle.png,0,m,Mon Jul 14 2025 13:10:57 GMT-0500 (Central Daylight Time),397859.7999999821,1600,I,z,715,7,2,2329.0,395530.7999999821,8039,NTS,A,7
2,7,test,1,C,triangle.png,1,m,Mon Jul 14 2025 13:10:57 GMT-0500 (Central Daylight Time),400808.90000000596,2000,I,m,918,2,2,2945.7000000178814,397863.1999999881,8039,NTS,A,8
8,8,test,1,C,circle.png,1,m,Mon Jul 14 2025 13:10:57 GMT-0500 (Central Daylight Time),402658.6999999881,1200,I,m,632,15,2,1845.699999988079,400813.0,8039,NTS,A,9
9,9,test,1,C,circle.png,1,m,Mon Jul 14 2025 13:10:57 GMT-0500 (Central Daylight Time),404724.5,1500,I,m,547,8,2,2062.2000000178814,402662.2999999821,8039,NTS,A,10
7,10,test,1,C,triangle.png,1,z,Mon Jul 14 2025 13:10:57 GMT-0500 (Central Daylight Time),407040.40000000596,1700,I,z,585,6,2,2312.2000000178814,404728.1999999881,8039,NTS,A,11
3,11,test,1,C,circle.png,1,z,Mon Jul 14 2025 13:10:57 GMT-0500 (Central Daylight Time),409489.6999999881,1600,I,z,817,11,2,2445.5999999940395,407044.09999999404,8039,NTS,A,12
6,12,test,1,C,circle.png,1,m,Mon Jul 14 2025 13:10:57 GMT-0500 (Central Daylight Time),411922.2999999821,1900,I,m,508,5,2,2428.899999976158,409493.40000000596,8039,NTS,A,13
4,13,test,1,C,circle.png,1,z,Mon Jul 14 2025 13:10:57 GMT-0500 (Central Daylight Time),414004.90000000596,1400,I,z,664,4,2,2078.9000000059605,411926.0,8039,NTS,A,14
1,14,test,1,C,triangle.png,1,z,Mon Jul 14 2025 13:10:57 GMT-0500 (Central Daylight Time),416570.6999999881,1900,I,z,641,9,2,2562.199999988079,414008.5,8039,NTS,A,15
4,14,test,1,C,triangle.png,0,m,Mon Jul 14 2025 13:10:57 GMT-0500 (Central Daylight Time),419086.5,1500,I,z,986,20,2,2512.300000011921,416574.1999999881,8039,NTS,A,16
1,15,test,1,C,circle.png,1,z,Mon Jul 14 2025 13:10:57 GMT-0500 (Central Daylight Time),421252.59999999404,1000,I,z,1148,1,2,2162.199999988079,419090.40000000596,8039,NTS,A,17
2,16,test,1,C,circle.png,1,z,Mon Jul 14 2025 13:10:57 GMT-0500 (Central Daylight Time),423885.0,1700,I,z,906,18,2,2628.7000000178814,421256.2999999821,8039,NTS,A,18
6,17,test,1,C,circle.png,1,m,Mon Jul 14 2025 13:10:57 GMT-0500 (Central Daylight Time),426534.5,1900,I,m,721,21,2,2645.5999999940395,423888.90000000596,8039,NTS,A,19
7,18,test,1,C,triangle.png,1,z,Mon Jul 14 2025 13:10:57 GMT-0500 (Central Daylight Time),428933.6999999881,1700,I,z,672,22,2,2395.5,426538.1999999881,8039,NTS,A,20
8,19,test,1,C,triangle.png,1,m,Mon Jul 14 2025 13:10:57 GMT-0500 (Central Daylight Time),431183.0,1600,I,m,621,23,2,2245.4000000059605,428937.59999999404,8039,NTS,A,21
3,20,test,1,C,triangle.png,1,z,Mon Jul 14 2025 13:10:57 GMT-0500 (Central Daylight Time),433181.90000000596,1200,I,z,772,3,2,1995.0,431186.90000000596,8039,NTS,A,22
9,21,test,1,C,triangle.png,1,z,Mon Jul 14 2025 13:10:57 GMT-0500 (Central Daylight Time),435498.0,1400,I,z,883,16,2,2312.2000000178814,433185.7999999821,8039,NTS,A,23
4,22,test,1,C,triangle.png,1,m,Mon Jul 14 2025 13:10:57 GMT-0500 (Central Daylight Time),437847.40000000596,1500,I,m,820,12,2,2346.0,435501.40000000596,8039,NTS,A,24
2,1,test,2,C,circle.png,1,z,Mon Jul 14 2025 13:10:57 GMT-0500 (Central Daylight Time),443795.40000000596,1700,I,z,806,18,2,2529.4000000059605,441266.0,8039,NTS,A,1
3,2,test,2,C,triangle.png,1,z,Mon Jul 14 2025 13:10:57 GMT-0500 (Central Daylight Time),445744.7999999821,1200,I,z,719,3,2,1945.3999999761581,443799.40000000596,8039,NTS,A,2
9,2,test,2,C,triangle.png,0,z,Mon Jul 14 2025 13:10:57 GMT-0500 (Central Daylight Time),447844.5,1400,I,m,673,16,2,2095.9000000059605,445748.59999999404,8039,NTS,A,3
6,3,test,2,C,circle.png,1,m,Mon Jul 14 2025 13:10:57 GMT-0500 (Central Daylight Time),450509.7999999821,1900,I,m,746,5,2,2661.5,447848.2999999821,8039,NTS,A,4
1,4,test,2,C,circle.png,1,z,Mon Jul 14 2025 13:10:57 GMT-0500 (Central Daylight Time),452176.2999999821,1000,I,z,644,1,2,1663.0,450513.2999999821,8039,NTS,A,5
4,5,test,2,C,circle.png,1,z,Mon Jul 14 2025 13:10:57 GMT-0500 (Central Daylight Time),454259.09999999404,1400,I,z,650,4,2,2078.4000000059605,452180.6999999881,8039,NTS,A,6
8,6,test,2,C,circle.png,1,m,Mon Jul 14 2025 13:10:57 GMT-0500 (Central Daylight Time),456124.6999999881,1200,I,m,646,15,2,1862.0,454262.6999999881,8039,NTS,A,7
9,7,test,2,C,triangle.png,1,z,Mon Jul 14 2025 13:10:57 GMT-0500 (Central Daylight Time),458291.09999999404,1400,I,z,733,24,2,2162.300000011921,456128.7999999821,8039,NTS,A,8
3,8,test,2,C,circle.png,1,z,Mon Jul 14 2025 13:10:57 GMT-0500 (Central Daylight Time),460656.59999999404,1600,I,z,743,11,2,2362.0,458294.59999999404,8039,NTS,A,9
6,9,test,2,C,triangle.png,1,m,Mon Jul 14 2025 13:10:57 GMT-0500 (Central Daylight Time),462423.0,1000,I,m,736,13,2,1762.7000000178814,460660.2999999821,8039,NTS,A,10
8,10,test,2,C,circle.png,1,m,Mon Jul 14 2025 13:10:57 GMT-0500 (Central Daylight Time),464588.90000000596,1200,I,m,947,23,2,2161.9000000059605,462427.0,8039,NTS,A,11
7,11,test,2,C,circle.png,1,m,Mon Jul 14 2025 13:10:57 GMT-0500 (Central Daylight Time),467454.59999999404,2000,I,m,837,14,2,2861.9000000059605,464592.6999999881,8039,NTS,A,12
4,12,test,2,C,triangle.png,1,m,Mon Jul 14 2025 13:10:57 GMT-0500 (Central Daylight Time),470153.6999999881,1500,I,m,1166,20,2,2695.4000000059605,467458.2999999821,8039,NTS,A,13
8,13,test,2,C,triangle.png,1,m,Mon Jul 14 2025 13:10:57 GMT-0500 (Central Daylight Time),472436.5,1600,I,m,664,7,2,2279.0999999940395,470157.40000000596,8039,NTS,A,14
4,14,test,2,C,triangle.png,1,m,Mon Jul 14 2025 13:10:57 GMT-0500 (Central Daylight Time),474619.09999999404,1500,I,m,666,12,2,2177.5999999940395,472441.5,8039,NTS,A,15
6,15,test,2,C,triangle.png,1,m,Mon Jul 14 2025 13:10:57 GMT-0500 (Central Daylight Time),476318.5,1000,I,m,670,21,2,1695.5,474623.0,8039,NTS,A,16
2,15,test,2,C,triangle.png,0,m,Mon Jul 14 2025 13:10:57 GMT-0500 (Central Daylight Time),479118.0,2000,I,z,771,2,2,2796.0999999940395,476321.90000000596,8039,NTS,A,17
9,16,test,2,C,circle.png,1,m,Mon Jul 14 2025 13:10:57 GMT-0500 (Central Daylight Time),481283.6999999881,1500,I,m,640,8,2,2162.0999999940395,479121.59999999404,8039,NTS,A,18
3,17,test,2,C,circle.png,1,z,Mon Jul 14 2025 13:10:57 GMT-0500 (Central Daylight Time),483666.2999999821,1600,I,z,751,19,2,2379.0999999940395,481287.1999999881,8039,NTS,A,19
2,18,test,2,C,circle.png,1,z,Mon Jul 14 2025 13:10:57 GMT-0500 (Central Daylight Time),486098.7999999821,1700,I,z,716,10,2,2428.899999976158,483669.90000000596,8039,NTS,A,20
1,19,test,2,C,triangle.png,1,z,Mon Jul 14 2025 13:10:57 GMT-0500 (Central Daylight Time),488781.2999999821,1900,I,z,764,17,2,2678.5999999940395,486102.6999999881,8039,NTS,A,21
1,20,test,2,C,triangle.png,1,z,Mon Jul 14 2025 13:10:57 GMT-0500 (Central Daylight Time),491297.2999999821,1900,I,z,540,9,2,2512.399999976158,488784.90000000596,8039,NTS,A,22
7,21,test,2,C,triangle.png,1,z,Mon Jul 14 2025 13:10:57 GMT-0500 (Central Daylight Time),493563.0,1700,I,z,549,6,2,2261.9000000059605,491301.09999999404,8039,NTS,A,23
7,22,test,2,C,circle.png,1,m,Mon Jul 14 2025 13:10:57 GMT-0500 (Central Daylight Time),496295.6999999881,2000,I,m,711,22,2,2729.0,493566.6999999881,8039,NTS,A,24
7,1,test,3,C,circle.png,1,m,Mon Jul 14 2025 13:10:57 GMT-0500 (Central Daylight Time),501494.0,2000,I,m,671,14,2,2696.2000000178814,498797.7999999821,8039,NTS,A,1
9,2,test,3,C,triangle.png,1,z,Mon Jul 14 2025 13:10:57 GMT-0500 (Central Daylight Time),503743.40000000596,1400,I,z,828,16,2,2245.5,501497.90000000596,8039,NTS,A,2
3,3,test,3,C,triangle.png,1,z,Mon Jul 14 2025 13:10:57 GMT-0500 (Central Daylight Time),505443.0,1200,I,z,483,19,2,1696.0,503747.0,8039,NTS,A,3
9,4,test,3,C,circle.png,1,m,Mon Jul 14 2025 13:10:57 GMT-0500 (Central Daylight Time),507575.59999999404,1500,I,m,612,8,2,2129.0,505446.59999999404,8039,NTS,A,4
3,5,test,3,C,triangle.png,1,z,Mon Jul 14 2025 13:10:57 GMT-0500 (Central Daylight Time),509558.1999999881,1200,I,z,755,3,2,1978.7999999821186,507579.40000000596,8039,NTS,A,5
8,5,test,3,C,triangle.png,0,m,Mon Jul 14 2025 13:10:57 GMT-0500 (Central Daylight Time),511674.1999999881,1600,I,z,492,7,2,2112.0999999940395,509562.09999999404,8039,NTS,A,6
2,6,test,3,C,circle.png,1,z,Mon Jul 14 2025 13:10:57 GMT-0500 (Central Daylight Time),514309.59999999404,1700,I,z,772,10,2,2631.5999999940395,511678.0,8039,NTS,A,7
7,7,test,3,C,triangle.png,1,z,Mon Jul 14 2025 13:10:57 GMT-0500 (Central Daylight Time),516739.09999999404,1700,I,z,716,6,2,2424.800000011921,514314.2999999821,8039,NTS,A,8
3,8,test,3,C,circle.png,1,z,Mon Jul 14 2025 13:10:57 GMT-0500 (Central Daylight Time),519188.59999999404,1600,I,z,831,11,2,2446.0999999940395,516742.5,8039,NTS,A,9
7,9,test,3,C,triangle.png,1,z,Mon Jul 14 2025 13:10:57 GMT-0500 (Central Daylight Time),521604.2999999821,1700,I,z,689,22,2,2411.899999976158,519192.40000000596,8039,NTS,A,10
8,10,test,3,C,circle.png,1,m,Mon Jul 14 2025 13:10:57 GMT-0500 (Central Daylight Time),523503.59999999404,1200,I,m,677,15,2,1895.5999999940395,521608.0,8039,NTS,A,11
1,11,test,3,C,circle.png,1,z,Mon Jul 14 2025 13:10:57 GMT-0500 (Central Daylight Time),525303.1999999881,1000,I,z,770,17,2,1795.0999999940395,523508.09999999404,8039,NTS,A,12
2,12,test,3,C,triangle.png,1,m,Mon Jul 14 2025 13:10:57 GMT-0500 (Central Daylight Time),527952.5,2000,I,m,627,2,2,2645.5,525307.0,8039,NTS,A,13
4,13,test,3,C,triangle.png,1,m,Mon Jul 14 2025 13:10:57 GMT-0500 (Central Daylight Time),530068.2999999821,1500,I,m,590,12,2,2112.399999976158,527955.900000006,8039,NTS,A,14
4,14,test,3,C,circle.png,1,z,Mon Jul 14 2025 13:10:57 GMT-0500 (Central Daylight Time),532251.1999999881,1400,I,z,749,20,2,2179.2999999821186,530071.900000006,8039,NTS,A,15
2,15,test,3,C,triangle.png,1,m,Mon Jul 14 2025 13:10:57 GMT-0500 (Central Daylight Time),535183.5,2000,I,m,902,18,2,2928.7000000178814,532254.7999999821,8039,NTS,A,16
6,16,test,3,C,circle.png,1,m,Mon Jul 14 2025 13:10:57 GMT-0500 (Central Daylight Time),537911.400000006,1900,I,m,811,5,2,2724.100000023842,535187.2999999821,8039,NTS,A,17
9,17,test,3,C,circle.png,1,m,Mon Jul 14 2025 13:10:57 GMT-0500 (Central Daylight Time),540098.599999994,1500,I,m,666,24,2,2183.4000000059605,537915.1999999881,8039,NTS,A,18
8,18,test,3,C,triangle.png,1,m,Mon Jul 14 2025 13:10:57 GMT-0500 (Central Daylight Time),542381.5,1600,I,m,656,23,2,2278.800000011921,540102.6999999881,8039,NTS,A,19
6,19,test,3,C,triangle.png,1,m,Mon Jul 14 2025 13:10:57 GMT-0500 (Central Daylight Time),543964.0,1000,I,m,557,13,2,1578.4000000059605,542385.599999994,8039,NTS,A,20
1,20,test,3,C,circle.png,1,z,Mon Jul 14 2025 13:10:57 GMT-0500 (Central Daylight Time),545713.2999999821,1000,I,z,725,1,2,1745.699999988079,543967.599999994,8039,NTS,A,21
6,21,test,3,C,circle.png,1,m,Mon Jul 14 2025 13:10:57 GMT-0500 (Central Daylight Time),548329.2999999821,1900,I,m,692,21,2,2612.0,545717.2999999821,8039,NTS,A,22
1,22,test,3,C,triangle.png,1,z,Mon Jul 14 2025 13:10:57 GMT-0500 (Central Daylight Time),550895.099999994,1900,I,z,645,9,2,2562.300000011921,548332.7999999821,8039,NTS,A,23
4,23,test,3,C,circle.png,1,z,Mon Jul 14 2025 13:10:57 GMT-0500 (Central Daylight Time),553061.099999994,1400,I,z,748,4,2,2162.199999988079,550898.900000006,8039,NTS,A,24
8,1,test,4,C,circle.png,1,m,Mon Jul 14 2025 13:10:57 GMT-0500 (Central Daylight Time),557593.1999999881,1200,I,m,710,15,2,1929.699999988079,555663.5,8039,NTS,A,1
7,2,test,4,C,triangle.png,1,z,Mon Jul 14 2025 13:10:57 GMT-0500 (Central Daylight Time),559925.6999999881,1700,I,z,605,6,2,2329.0999999940395,557596.599999994,8039,NTS,A,2
6,3,test,4,C,triangle.png,1,m,Mon Jul 14 2025 13:10:57 GMT-0500 (Central Daylight Time),561503.400000006,1000,I,m,543,13,2,1574.1000000238419,559929.2999999821,8039,NTS,A,3
3,4,test,4,C,triangle.png,1,z,Mon Jul 14 2025 13:10:57 GMT-0500 (Central Daylight Time),563357.900000006,1200,I,z,621,19,2,1850.7000000178814,561507.1999999881,8039,NTS,A,4
3,5,test,4,C,circle.png,1,z,Mon Jul 14 2025 13:10:57 GMT-0500 (Central Daylight Time),565723.5,1600,I,z,748,11,2,2362.0,563361.5,8039,NTS,A,5
9,6,test,4,C,triangle.png,1,z,Mon Jul 14 2025 13:10:57 GMT-0500 (Central Daylight Time),567923.0,1400,I,z,766,16,2,2194.5999999940395,565728.400000006,8039,NTS,A,6
9,7,test,4,C,circle.png,1,m,Mon Jul 14 2025 13:10:57 GMT-0500 (Central Daylight Time),570005.6999999881,1500,I,m,563,24,2,2078.9000000059605,567926.7999999821,8039,NTS,A,7
3,8,test,4,C,triangle.png,1,z,Mon Jul 14 2025 13:10:57 GMT-0500 (Central Daylight Time),571705.400000006,1200,I,z,477,3,2,1695.9000000059605,570009.5,8039,NTS,A,8
7,9,test,4,C,triangle.png,1,z,Mon Jul 14 2025 13:10:57 GMT-0500 (Central Daylight Time),574121.2999999821,1700,I,z,692,22,2,2412.0999999940395,571709.1999999881,8039,NTS,A,9
4,10,test,4,C,circle.png,1,z,Mon Jul 14 2025 13:10:57 GMT-0500 (Central Daylight Time),576237.1999999881,1400,I,z,688,20,2,2112.0999999940395,574125.099999994,8039,NTS,A,10
6,11,test,4,C,circle.png,1,m,Mon Jul 14 2025 13:10:57 GMT-0500 (Central Daylight Time),578769.599999994,1900,I,m,609,21,2,2527.5999999940395,576242.0,8039,NTS,A,11
4,12,test,4,C,circle.png,1,z,Mon Jul 14 2025 13:10:57 GMT-0500 (Central Daylight Time),580952.5,1400,I,z,752,4,2,2179.2000000178814,578773.2999999821,8039,NTS,A,12
6,13,test,4,C,circle.png,1,m,Mon Jul 14 2025 13:10:57 GMT-0500 (Central Daylight Time),583484.7999999821,1900,I,m,606,5,2,2528.399999976158,580956.400000006,8039,NTS,A,13
1,14,test,4,C,circle.png,1,z,Mon Jul 14 2025 13:10:57 GMT-0500 (Central Daylight Time),585167.599999994,1000,I,z,652,1,2,1677.0999999940395,583490.5,8039,NTS,A,14
7,15,test,4,C,circle.png,1,m,Mon Jul 14 2025 13:10:57 GMT-0500 (Central Daylight Time),587900.099999994,2000,I,m,707,14,2,2728.4000000059605,585171.6999999881,8039,NTS,A,15
8,16,test,4,C,triangle.png,1,m,Mon Jul 14 2025 13:10:57 GMT-0500 (Central Daylight Time),590499.2999999821,1600,I,m,982,7,2,2595.0,587904.2999999821,8039,NTS,A,16
8,17,test,4,C,triangle.png,1,m,Mon Jul 14 2025 13:10:57 GMT-0500 (Central Daylight Time),592781.900000006,1600,I,m,655,23,2,2279.0,590502.900000006,8039,NTS,A,17
4,17,test,4,C,triangle.png,0,m,Mon Jul 14 2025 13:10:57 GMT-0500 (Central Daylight Time),594981.400000006,1500,I,z,680,12,2,2195.800000011921,592785.599999994,8039,NTS,A,18
1,18,test,4,C,circle.png,1,z,Mon Jul 14 2025 13:10:57 GMT-0500 (Central Daylight Time),596630.599999994,1000,I,z,621,17,2,1645.5,594985.099999994,8039,NTS,A,19
9,19,test,4,C,circle.png,1,m,Mon Jul 14 2025 13:10:57 GMT-0500 (Central Daylight Time),598813.400000006,1500,I,m,654,8,2,2179.2000000178814,596634.1999999881,8039,NTS,A,20
1,20,test,4,C,triangle.png,1,z,Mon Jul 14 2025 13:10:57 GMT-0500 (Central Daylight Time),601329.400000006,1900,I,z,592,9,2,2512.4000000059605,598817.0,8039,NTS,A,21
2,21,test,4,C,triangle.png,1,m,Mon Jul 14 2025 13:10:57 GMT-0500 (Central Daylight Time),604095.1999999881,2000,I,m,745,18,2,2762.2999999821186,601332.900000006,8039,NTS,A,22
2,22,test,4,C,circle.png,1,z,Mon Jul 14 2025 13:10:57 GMT-0500 (Central Daylight Time),606527.6999999881,1700,I,z,702,10,2,2428.2999999821186,604099.400000006,8039,NTS,A,23
2,23,test,4,C,triangle.png,1,m,Mon Jul 14 2025 13:10:57 GMT-0500 (Central Daylight Time),609376.6999999881,2000,I,m,798,2,2,2844.9000000059605,606531.7999999821,8039,NTS,A,24
