Number,acc_sum,block,block_c,block_cond,con_img,correct,correct_response,datetime,endtime,jitter,project,response,response_time,row_sel,session_number,start_end,starttime,subject_id,task,task_vers,trial
3,1,prac,1,A,circle.png,1,z,Wed May 14 2025 13:07:18 GMT-0500 (Central Daylight Time),57013.40000003576,1200,I,z,1094,3,1,3077.300000011921,53936.10000002384,8039,NTS,C,1
6,1,prac,1,A,circle.png,0,m,Wed May 14 2025 13:07:18 GMT-0500 (Central Daylight Time),60162.200000047684,1900,I,z,455,5,1,3142.900000035763,57019.30000001192,8039,NTS,C,2
7,2,prac,1,A,circle.png,1,m,Wed May 14 2025 13:07:18 GMT-0500 (Central Daylight Time),63344.40000003576,1700,I,m,700,6,1,3177.0,60167.40000003576,8039,NTS,C,3
7,3,prac,1,A,circle.png,1,m,Wed May 14 2025 13:07:18 GMT-0500 (Central Daylight Time),66326.70000004768,1700,I,m,492,6,1,2976.7000000476837,63350.0,8039,NTS,C,4
4,4,prac,1,A,circle.png,1,z,Wed May 14 2025 13:07:18 GMT-0500 (Central Daylight Time),69059.40000003576,1400,I,z,538,4,1,2726.800000011921,66332.60000002384,8039,NTS,C,5
9,4,prac,1,A,circle.png,0,m,Wed May 14 2025 13:07:18 GMT-0500 (Central Daylight Time),71958.60000002384,1500,I,z,611,8,1,2894.0,69064.60000002384,8039,NTS,C,6
6,5,prac,1,A,circle.png,1,m,Wed May 14 2025 13:07:18 GMT-0500 (Central Daylight Time),75324.0,1900,I,m,671,5,1,3359.699999988079,71964.30000001192,8039,NTS,C,7
8,6,prac,1,A,circle.png,1,m,Wed May 14 2025 13:07:18 GMT-0500 (Central Daylight Time),78573.10000002384,1600,I,m,861,7,1,3243.800000011921,75329.30000001192,8039,NTS,C,8
2,7,prac,1,A,circle.png,1,z,Wed May 14 2025 13:07:18 GMT-0500 (Central Daylight Time),81888.60000002384,2000,I,z,516,2,1,3310.199999988079,78578.40000003576,8039,NTS,C,9
1,8,prac,1,A,circle.png,1,z,Wed May 14 2025 13:07:18 GMT-0500 (Central Daylight Time),84137.60000002384,1000,I,z,466,1,1,2242.899999976158,81894.70000004768,8039,NTS,C,10
1,9,prac,1,A,circle.png,1,z,Wed May 14 2025 13:07:18 GMT-0500 (Central Daylight Time),86337.20000004768,1000,I,z,400,1,1,2193.100000023842,84144.10000002384,8039,NTS,C,11
9,10,prac,1,A,circle.png,1,m,Wed May 14 2025 13:07:18 GMT-0500 (Central Daylight Time),89019.60000002384,1500,I,m,389,8,1,2677.300000011921,86342.30000001192,8039,NTS,C,12
4,1,prac,1,B,triangle.png,1,m,Wed May 14 2025 13:07:18 GMT-0500 (Central Daylight Time),119344.80000001192,1500,I,m,609,4,1,2895.899999976158,116448.90000003576,8039,NTS,C,1
3,2,prac,1,B,triangle.png,1,z,Wed May 14 2025 13:07:18 GMT-0500 (Central Daylight Time),122309.40000003576,1600,I,z,570,3,1,2959.300000011921,119350.10000002384,8039,NTS,C,2
6,3,prac,1,B,triangle.png,1,m,Wed May 14 2025 13:07:18 GMT-0500 (Central Daylight Time),124758.5,1000,I,m,660,5,1,2444.099999964237,122314.40000003576,8039,NTS,C,3
7,4,prac,1,B,triangle.png,1,z,Wed May 14 2025 13:07:18 GMT-0500 (Central Daylight Time),127974.20000004768,2000,I,z,419,6,1,3210.800000011921,124763.40000003576,8039,NTS,C,4
8,5,prac,1,B,triangle.png,1,m,Wed May 14 2025 13:07:18 GMT-0500 (Central Daylight Time),130640.10000002384,1200,I,m,675,7,1,2660.600000023842,127979.5,8039,NTS,C,5
6,6,prac,1,B,triangle.png,1,m,Wed May 14 2025 13:07:18 GMT-0500 (Central Daylight Time),132939.30000001192,1000,I,m,513,5,1,2294.199999988079,130645.10000002384,8039,NTS,C,6
2,7,prac,1,B,triangle.png,1,m,Wed May 14 2025 13:07:18 GMT-0500 (Central Daylight Time),135901.60000002384,1700,I,m,474,2,1,2957.100000023842,132944.5,8039,NTS,C,7
4,8,prac,1,B,triangle.png,1,m,Wed May 14 2025 13:07:18 GMT-0500 (Central Daylight Time),138704.0,1500,I,m,509,4,1,2797.199999988079,135906.80000001192,8039,NTS,C,8
9,9,prac,1,B,triangle.png,1,z,Wed May 14 2025 13:07:18 GMT-0500 (Central Daylight Time),141286.60000002384,1400,I,z,393,8,1,2577.899999976158,138708.70000004768,8039,NTS,C,9
3,9,prac,1,B,triangle.png,0,z,Wed May 14 2025 13:07:18 GMT-0500 (Central Daylight Time),144152.40000003576,1600,I,m,475,3,1,2860.900000035763,141291.5,8039,NTS,C,10
1,10,prac,1,B,triangle.png,1,z,Wed May 14 2025 13:07:18 GMT-0500 (Central Daylight Time),147484.70000004768,1900,I,z,646,1,1,3327.300000011921,144157.40000003576,8039,NTS,C,11
2,11,prac,1,B,triangle.png,1,m,Wed May 14 2025 13:07:18 GMT-0500 (Central Daylight Time),150583.80000001192,1700,I,m,608,2,1,3094.0,147489.80000001192,8039,NTS,C,12
9,1,test,1,A,circle.png,1,m,Wed May 14 2025 13:07:18 GMT-0500 (Central Daylight Time),173243.60000002384,1500,I,m,723,8,1,2245.100000023842,170998.5,8039,NTS,C,1
7,2,test,1,A,circle.png,1,m,Wed May 14 2025 13:07:18 GMT-0500 (Central Daylight Time),175409.30000001192,1700,I,m,441,6,1,2161.699999988079,173247.60000002384,8039,NTS,C,2
2,3,test,1,A,circle.png,1,z,Wed May 14 2025 13:07:18 GMT-0500 (Central Daylight Time),177775.20000004768,2000,I,z,336,2,1,2362.5,175412.70000004768,8039,NTS,C,3
3,4,test,1,A,circle.png,1,z,Wed May 14 2025 13:07:18 GMT-0500 (Central Daylight Time),179408.0,1200,I,z,409,3,1,1628.0,177780.0,8039,NTS,C,4
6,5,test,1,A,circle.png,1,m,Wed May 14 2025 13:07:18 GMT-0500 (Central Daylight Time),181857.30000001192,1900,I,m,517,5,1,2445.5,179411.80000001192,8039,NTS,C,5
7,6,test,1,A,circle.png,1,m,Wed May 14 2025 13:07:18 GMT-0500 (Central Daylight Time),184006.70000004768,1700,I,m,429,6,1,2145.800000011921,181860.90000003576,8039,NTS,C,6
8,7,test,1,A,circle.png,1,m,Wed May 14 2025 13:07:18 GMT-0500 (Central Daylight Time),186089.0,1600,I,m,450,7,1,2078.699999988079,184010.30000001192,8039,NTS,C,7
9,8,test,1,A,circle.png,1,m,Wed May 14 2025 13:07:18 GMT-0500 (Central Daylight Time),188005.20000004768,1500,I,m,387,8,1,1912.4000000357628,186092.80000001192,8039,NTS,C,8
9,9,test,1,A,circle.png,1,m,Wed May 14 2025 13:07:18 GMT-0500 (Central Daylight Time),189971.20000004768,1500,I,m,439,8,1,1962.5,188008.70000004768,8039,NTS,C,9
4,10,test,1,A,circle.png,1,z,Wed May 14 2025 13:07:18 GMT-0500 (Central Daylight Time),191804.20000004768,1400,I,z,406,4,1,1829.4000000357628,189974.80000001192,8039,NTS,C,10
3,11,test,1,A,circle.png,1,z,Wed May 14 2025 13:07:18 GMT-0500 (Central Daylight Time),193420.40000003576,1200,I,z,397,3,1,1612.5,191807.90000003576,8039,NTS,C,11
6,12,test,1,A,circle.png,1,m,Wed May 14 2025 13:07:18 GMT-0500 (Central Daylight Time),195736.30000001192,1900,I,m,393,5,1,2312.099999964237,193424.20000004768,8039,NTS,C,12
7,13,test,1,A,circle.png,1,m,Wed May 14 2025 13:07:18 GMT-0500 (Central Daylight Time),197885.70000004768,1700,I,m,420,6,1,2145.800000011921,195739.90000003576,8039,NTS,C,13
1,14,test,1,A,circle.png,1,z,Wed May 14 2025 13:07:18 GMT-0500 (Central Daylight Time),199451.80000001192,1000,I,z,547,1,1,1562.3999999761581,197889.40000003576,8039,NTS,C,14
1,15,test,1,A,circle.png,1,z,Wed May 14 2025 13:07:18 GMT-0500 (Central Daylight Time),200867.70000004768,1000,I,z,398,1,1,1412.1000000238419,199455.60000002384,8039,NTS,C,15
2,16,test,1,A,circle.png,1,z,Wed May 14 2025 13:07:18 GMT-0500 (Central Daylight Time),203267.10000002384,2000,I,z,374,2,1,2395.699999988079,200871.40000003576,8039,NTS,C,16
7,17,test,1,A,circle.png,1,m,Wed May 14 2025 13:07:18 GMT-0500 (Central Daylight Time),205366.60000002384,1700,I,m,379,6,1,2095.899999976158,203270.70000004768,8039,NTS,C,17
2,18,test,1,A,circle.png,1,z,Wed May 14 2025 13:07:18 GMT-0500 (Central Daylight Time),207782.5,2000,I,z,395,2,1,2411.899999976158,205370.60000002384,8039,NTS,C,18
3,19,test,1,A,circle.png,1,z,Wed May 14 2025 13:07:18 GMT-0500 (Central Daylight Time),209381.80000001192,1200,I,z,379,3,1,1595.3999999761581,207786.40000003576,8039,NTS,C,19
6,20,test,1,A,circle.png,1,m,Wed May 14 2025 13:07:18 GMT-0500 (Central Daylight Time),211781.30000001192,1900,I,m,479,5,1,2395.899999976158,209385.40000003576,8039,NTS,C,20
4,21,test,1,A,circle.png,1,z,Wed May 14 2025 13:07:18 GMT-0500 (Central Daylight Time),213647.40000003576,1400,I,z,436,4,1,1862.6000000238419,211784.80000001192,8039,NTS,C,21
8,22,test,1,A,circle.png,1,m,Wed May 14 2025 13:07:18 GMT-0500 (Central Daylight Time),215696.90000003576,1600,I,m,426,7,1,2046.0,213650.90000003576,8039,NTS,C,22
1,23,test,1,A,circle.png,1,z,Wed May 14 2025 13:07:18 GMT-0500 (Central Daylight Time),217179.40000003576,1000,I,z,456,1,1,1478.9000000357628,215700.5,8039,NTS,C,23
4,24,test,1,A,circle.png,1,z,Wed May 14 2025 13:07:18 GMT-0500 (Central Daylight Time),219079.10000002384,1400,I,z,477,4,1,1896.300000011921,217182.80000001192,8039,NTS,C,24
2,1,test,1,B,triangle.png,1,m,Wed May 14 2025 13:07:18 GMT-0500 (Central Daylight Time),236090.0,1200,I,m,516,10,1,1746.199999988079,234343.80000001192,8039,NTS,C,1
9,2,test,1,B,triangle.png,1,z,Wed May 14 2025 13:07:18 GMT-0500 (Central Daylight Time),238389.5,1900,I,z,371,16,1,2295.599999964237,236093.90000003576,8039,NTS,C,2
2,3,test,1,B,triangle.png,1,m,Wed May 14 2025 13:07:18 GMT-0500 (Central Daylight Time),240022.5,1200,I,m,404,10,1,1629.0999999642372,238393.40000003576,8039,NTS,C,3
4,4,test,1,B,triangle.png,1,m,Wed May 14 2025 13:07:18 GMT-0500 (Central Daylight Time),242038.30000001192,1500,I,m,487,4,1,2012.0,240026.30000001192,8039,NTS,C,4
6,5,test,1,B,triangle.png,1,m,Wed May 14 2025 13:07:18 GMT-0500 (Central Daylight Time),243537.90000003576,1000,I,m,475,5,1,1496.0,242041.90000003576,8039,NTS,C,5
4,6,test,1,B,triangle.png,1,m,Wed May 14 2025 13:07:18 GMT-0500 (Central Daylight Time),245520.40000003576,1500,I,m,460,4,1,1979.0,243541.40000003576,8039,NTS,C,6
9,7,test,1,B,triangle.png,1,z,Wed May 14 2025 13:07:18 GMT-0500 (Central Daylight Time),247303.20000004768,1400,I,z,361,8,1,1779.4000000357628,245523.80000001192,8039,NTS,C,7
7,8,test,1,B,triangle.png,1,z,Wed May 14 2025 13:07:18 GMT-0500 (Central Daylight Time),249269.40000003576,1600,I,z,346,14,1,1962.4000000357628,247307.0,8039,NTS,C,8
7,9,test,1,B,triangle.png,1,z,Wed May 14 2025 13:07:18 GMT-0500 (Central Daylight Time),251718.5,2000,I,z,420,6,1,2445.2999999523163,249273.20000004768,8039,NTS,C,9
1,10,test,1,B,triangle.png,1,z,Wed May 14 2025 13:07:18 GMT-0500 (Central Daylight Time),254184.40000003576,1900,I,z,440,1,1,2462.0,251722.40000003576,8039,NTS,C,10
8,11,test,1,B,triangle.png,1,m,Wed May 14 2025 13:07:18 GMT-0500 (Central Daylight Time),255900.70000004768,1200,I,m,496,7,1,1712.4000000357628,254188.30000001192,8039,NTS,C,11
9,12,test,1,B,triangle.png,1,z,Wed May 14 2025 13:07:18 GMT-0500 (Central Daylight Time),257783.5,1400,I,z,452,8,1,1879.2999999523163,255904.20000004768,8039,NTS,C,12
1,13,test,1,B,triangle.png,1,z,Wed May 14 2025 13:07:18 GMT-0500 (Central Daylight Time),259682.70000004768,1400,I,z,482,9,1,1895.6000000238419,257787.10000002384,8039,NTS,C,13
2,14,test,1,B,triangle.png,1,m,Wed May 14 2025 13:07:18 GMT-0500 (Central Daylight Time),261832.40000003576,1700,I,m,426,2,1,2146.400000035763,259686.0,8039,NTS,C,14
3,15,test,1,B,triangle.png,1,z,Wed May 14 2025 13:07:18 GMT-0500 (Central Daylight Time),263898.10000002384,1600,I,z,433,3,1,2062.0,261836.10000002384,8039,NTS,C,15
7,16,test,1,B,triangle.png,1,z,Wed May 14 2025 13:07:18 GMT-0500 (Central Daylight Time),266081.10000002384,1600,I,z,560,14,1,2179.199999988079,263901.90000003576,8039,NTS,C,16
8,17,test,1,B,triangle.png,1,m,Wed May 14 2025 13:07:18 GMT-0500 (Central Daylight Time),267813.7000000477,1200,I,m,504,7,1,1729.1000000238419,266084.60000002384,8039,NTS,C,17
4,18,test,1,B,triangle.png,1,m,Wed May 14 2025 13:07:18 GMT-0500 (Central Daylight Time),269712.90000003576,1000,I,m,876,12,1,1895.6000000238419,267817.3000000119,8039,NTS,C,18
6,19,test,1,B,triangle.png,1,m,Wed May 14 2025 13:07:18 GMT-0500 (Central Daylight Time),271712.2000000477,1500,I,m,468,13,1,1995.6000000238419,269716.60000002384,8039,NTS,C,19
3,20,test,1,B,triangle.png,1,z,Wed May 14 2025 13:07:18 GMT-0500 (Central Daylight Time),274194.90000003576,2000,I,z,466,11,1,2479.400000035763,271715.5,8039,NTS,C,20
2,21,test,1,B,triangle.png,1,m,Wed May 14 2025 13:07:18 GMT-0500 (Central Daylight Time),276361.10000002384,1700,I,m,442,2,1,2162.600000023842,274198.5,8039,NTS,C,21
6,22,test,1,B,triangle.png,1,m,Wed May 14 2025 13:07:18 GMT-0500 (Central Daylight Time),278327.2000000477,1500,I,m,444,13,1,1962.7000000476837,276364.5,8039,NTS,C,22
7,23,test,1,B,triangle.png,1,z,Wed May 14 2025 13:07:18 GMT-0500 (Central Daylight Time),280793.0,2000,I,z,442,6,1,2462.0,278331.0,8039,NTS,C,23
8,24,test,1,B,triangle.png,1,m,Wed May 14 2025 13:07:18 GMT-0500 (Central Daylight Time),283008.90000003576,1700,I,m,492,15,1,2212.600000023842,280796.3000000119,8039,NTS,C,24
1,0,prac,1,C,circle.png,0,z,Wed May 14 2025 13:07:18 GMT-0500 (Central Daylight Time),341673.7000000477,1700,I,m,881,1,1,3360.900000035763,338312.8000000119,8039,NTS,C,1
7,0,prac,1,C,triangle.png,0,z,Wed May 14 2025 13:07:18 GMT-0500 (Central Daylight Time),344472.90000003576,1200,I,m,816,6,1,2794.100000023842,341678.8000000119,8039,NTS,C,2
7,1,prac,1,C,triangle.png,1,z,Wed May 14 2025 13:07:18 GMT-0500 (Central Daylight Time),347935.7000000477,1200,I,z,1472,6,1,3457.900000035763,344477.8000000119,8039,NTS,C,3
2,1,prac,1,C,triangle.png,0,m,Wed May 14 2025 13:07:18 GMT-0500 (Central Daylight Time),351787.40000003576,1600,I,z,1464,2,1,3846.800000011921,347940.60000002384,8039,NTS,C,4
3,2,prac,1,C,triangle.png,1,z,Wed May 14 2025 13:07:18 GMT-0500 (Central Daylight Time),355153.10000002384,1500,I,z,1082,3,1,3360.800000011921,351792.3000000119,8039,NTS,C,5
4,2,prac,1,C,circle.png,0,z,Wed May 14 2025 13:07:18 GMT-0500 (Central Daylight Time),357485.5,1000,I,m,536,4,1,2327.7999999523163,355157.7000000477,8039,NTS,C,6
8,3,prac,1,C,triangle.png,1,m,Wed May 14 2025 13:07:18 GMT-0500 (Central Daylight Time),360867.90000003576,1400,I,m,1188,7,1,3377.400000035763,357490.5,8039,NTS,C,7
9,3,prac,1,C,circle.png,0,m,Wed May 14 2025 13:07:18 GMT-0500 (Central Daylight Time),364749.90000003576,1900,I,z,1195,8,1,3877.600000023842,360872.3000000119,8039,NTS,C,8
6,4,prac,1,C,circle.png,1,m,Wed May 14 2025 13:07:18 GMT-0500 (Central Daylight Time),368432.10000002384,2000,I,m,892,5,1,3677.300000011921,364754.8000000119,8039,NTS,C,9
2,5,prac,1,C,triangle.png,1,m,Wed May 14 2025 13:07:18 GMT-0500 (Central Daylight Time),371734.2000000477,1600,I,m,929,2,1,3297.2000000476837,368437.0,8039,NTS,C,10
9,5,prac,1,C,circle.png,0,m,Wed May 14 2025 13:07:18 GMT-0500 (Central Daylight Time),375579.8000000119,1900,I,z,1154,8,1,3840.399999976158,371739.40000003576,8039,NTS,C,11
3,5,prac,1,C,triangle.png,0,z,Wed May 14 2025 13:07:18 GMT-0500 (Central Daylight Time),378379.0,1500,I,m,505,3,1,2794.199999988079,375584.8000000119,8039,NTS,C,12
6,1,prac,2,C,circle.png,1,m,Wed May 14 2025 13:07:18 GMT-0500 (Central Daylight Time),399922.10000002384,2000,I,m,1465,5,1,4244.199999988079,395677.90000003576,8039,NTS,C,1
7,2,prac,2,C,triangle.png,1,z,Wed May 14 2025 13:07:18 GMT-0500 (Central Daylight Time),402721.40000003576,1200,I,z,799,6,1,2793.800000011921,399927.60000002384,8039,NTS,C,2
2,3,prac,2,C,triangle.png,1,m,Wed May 14 2025 13:07:18 GMT-0500 (Central Daylight Time),406520.10000002384,1600,I,m,1408,2,1,3794.300000011921,402725.8000000119,8039,NTS,C,3
4,3,prac,2,C,circle.png,0,z,Wed May 14 2025 13:07:18 GMT-0500 (Central Daylight Time),409036.0,1000,I,m,730,4,1,2511.099999964237,406524.90000003576,8039,NTS,C,4
3,3,prac,2,C,triangle.png,0,z,Wed May 14 2025 13:07:18 GMT-0500 (Central Daylight Time),412751.7000000477,1500,I,m,1417,3,1,3710.800000011921,409040.90000003576,8039,NTS,C,5
1,3,prac,2,C,circle.png,0,z,Wed May 14 2025 13:07:18 GMT-0500 (Central Daylight Time),416750.2000000477,1700,I,None,1516,1,1,3993.900000035763,412756.3000000119,8039,NTS,C,6
8,4,prac,2,C,triangle.png,1,m,Wed May 14 2025 13:07:18 GMT-0500 (Central Daylight Time),419932.60000002384,1400,I,m,995,7,1,3177.300000011921,416755.3000000119,8039,NTS,C,7
7,4,prac,2,C,triangle.png,0,z,Wed May 14 2025 13:07:18 GMT-0500 (Central Daylight Time),422682.0,1200,I,m,765,6,1,2744.599999964237,419937.40000003576,8039,NTS,C,8
9,4,prac,2,C,circle.png,0,m,Wed May 14 2025 13:07:18 GMT-0500 (Central Daylight Time),426614.0,1900,I,z,1244,8,1,3927.099999964237,422686.90000003576,8039,NTS,C,9
6,5,prac,2,C,circle.png,1,m,Wed May 14 2025 13:07:18 GMT-0500 (Central Daylight Time),430146.2000000477,2000,I,m,749,5,1,3527.400000035763,426618.8000000119,8039,NTS,C,10
3,6,prac,2,C,triangle.png,1,z,Wed May 14 2025 13:07:18 GMT-0500 (Central Daylight Time),433029.5,1500,I,z,588,3,1,2878.199999988079,430151.3000000119,8039,NTS,C,11
1,6,prac,2,C,circle.png,0,z,Wed May 14 2025 13:07:18 GMT-0500 (Central Daylight Time),436260.90000003576,1700,I,m,737,1,1,3226.5,433034.40000003576,8039,NTS,C,12
9,1,test,1,C,triangle.png,1,z,Wed May 14 2025 13:07:18 GMT-0500 (Central Daylight Time),455854.7000000477,1400,I,z,786,16,1,2211.7000000476837,453643.0,8039,NTS,C,1
8,2,test,1,C,triangle.png,1,m,Wed May 14 2025 13:07:18 GMT-0500 (Central Daylight Time),458420.40000003576,1600,I,m,939,7,1,2561.699999988079,455858.7000000477,8039,NTS,C,2
9,2,test,1,C,circle.png,0,m,Wed May 14 2025 13:07:18 GMT-0500 (Central Daylight Time),461003.0,1500,I,z,1050,8,1,2578.7999999523163,458424.2000000477,8039,NTS,C,3
1,2,test,1,C,triangle.png,0,z,Wed May 14 2025 13:07:18 GMT-0500 (Central Daylight Time),463768.8000000119,1900,I,m,843,9,1,2761.899999976158,461006.90000003576,8039,NTS,C,4
6,3,test,1,C,circle.png,1,m,Wed May 14 2025 13:07:18 GMT-0500 (Central Daylight Time),466568.10000002384,1900,I,m,839,5,1,2795.699999988079,463772.40000003576,8039,NTS,C,5
2,4,test,1,C,triangle.png,1,m,Wed May 14 2025 13:07:18 GMT-0500 (Central Daylight Time),469500.60000002384,2000,I,m,906,2,1,2928.300000011921,466572.3000000119,8039,NTS,C,6
4,4,test,1,C,circle.png,0,z,Wed May 14 2025 13:07:18 GMT-0500 (Central Daylight Time),471749.60000002384,1400,I,m,821,4,1,2245.399999976158,469504.2000000477,8039,NTS,C,7
1,5,test,1,C,circle.png,1,z,Wed May 14 2025 13:07:18 GMT-0500 (Central Daylight Time),473699.10000002384,1000,I,z,924,1,1,1945.699999988079,471753.40000003576,8039,NTS,C,8
7,6,test,1,C,triangle.png,1,z,Wed May 14 2025 13:07:18 GMT-0500 (Central Daylight Time),476132.7000000477,1700,I,z,715,6,1,2429.800000011921,473702.90000003576,8039,NTS,C,9
6,7,test,1,C,circle.png,1,m,Wed May 14 2025 13:07:18 GMT-0500 (Central Daylight Time),478914.0,1900,I,m,850,21,1,2777.599999964237,476136.40000003576,8039,NTS,C,10
1,8,test,1,C,triangle.png,1,z,Wed May 14 2025 13:07:18 GMT-0500 (Central Daylight Time),481813.2000000477,1900,I,z,979,17,1,2895.400000035763,478917.8000000119,8039,NTS,C,11
9,9,test,1,C,circle.png,1,m,Wed May 14 2025 13:07:18 GMT-0500 (Central Daylight Time),484680.0,1500,I,m,1344,24,1,2863.199999988079,481816.8000000119,8039,NTS,C,12
7,10,test,1,C,triangle.png,1,z,Wed May 14 2025 13:07:18 GMT-0500 (Central Daylight Time),487428.10000002384,1700,I,z,1022,22,1,2744.100000023842,484684.0,8039,NTS,C,13
4,11,test,1,C,triangle.png,1,m,Wed May 14 2025 13:07:18 GMT-0500 (Central Daylight Time),490027.2000000477,1500,I,m,1074,20,1,2595.400000035763,487431.8000000119,8039,NTS,C,14
8,11,test,1,C,triangle.png,0,m,Wed May 14 2025 13:07:18 GMT-0500 (Central Daylight Time),493043.2000000477,1600,I,z,1382,23,1,3012.100000023842,490031.10000002384,8039,NTS,C,15
2,11,test,1,C,circle.png,0,z,Wed May 14 2025 13:07:18 GMT-0500 (Central Daylight Time),495575.60000002384,1700,I,m,803,18,1,2528.5,493047.10000002384,8039,NTS,C,16
3,11,test,1,C,circle.png,0,z,Wed May 14 2025 13:07:18 GMT-0500 (Central Daylight Time),498407.8000000119,1600,I,m,1211,11,1,2828.0,495579.8000000119,8039,NTS,C,17
6,12,test,1,C,triangle.png,1,m,Wed May 14 2025 13:07:18 GMT-0500 (Central Daylight Time),500473.90000003576,1000,I,m,1041,13,1,2062.300000011921,498411.60000002384,8039,NTS,C,18
2,12,test,1,C,circle.png,0,z,Wed May 14 2025 13:07:18 GMT-0500 (Central Daylight Time),503172.7000000477,1700,I,m,980,10,1,2695.100000023842,500477.60000002384,8039,NTS,C,19
8,13,test,1,C,circle.png,1,m,Wed May 14 2025 13:07:18 GMT-0500 (Central Daylight Time),505139.40000003576,1200,I,m,741,15,1,1962.9000000357628,503176.5,8039,NTS,C,20
3,14,test,1,C,circle.png,1,z,Wed May 14 2025 13:07:18 GMT-0500 (Central Daylight Time),507721.90000003576,1600,I,z,950,19,1,2578.600000023842,505143.3000000119,8039,NTS,C,21
7,14,test,1,C,circle.png,0,m,Wed May 14 2025 13:07:18 GMT-0500 (Central Daylight Time),511087.2000000477,2000,I,z,1337,14,1,3361.5,507725.7000000477,8039,NTS,C,22
3,15,test,1,C,triangle.png,1,z,Wed May 14 2025 13:07:18 GMT-0500 (Central Daylight Time),513153.2000000477,1200,I,z,834,3,1,2061.900000035763,511091.3000000119,8039,NTS,C,23
4,16,test,1,C,triangle.png,1,m,Wed May 14 2025 13:07:18 GMT-0500 (Central Daylight Time),515802.60000002384,1500,I,m,1132,12,1,2645.600000023842,513157.0,8039,NTS,C,24
8,1,test,2,C,circle.png,1,m,Wed May 14 2025 13:07:18 GMT-0500 (Central Daylight Time),521017.7000000477,1200,I,m,950,23,1,2180.100000023842,518837.60000002384,8039,NTS,C,1
3,2,test,2,C,circle.png,1,z,Wed May 14 2025 13:07:18 GMT-0500 (Central Daylight Time),523450.3000000119,1600,I,z,809,19,1,2428.5,521021.8000000119,8039,NTS,C,2
7,2,test,2,C,circle.png,0,m,Wed May 14 2025 13:07:18 GMT-0500 (Central Daylight Time),526332.7000000477,2000,I,z,863,14,1,2878.600000023842,523454.10000002384,8039,NTS,C,3
4,2,test,2,C,circle.png,0,z,Wed May 14 2025 13:07:18 GMT-0500 (Central Daylight Time),528750.3000000119,1400,I,m,997,4,1,2414.099999964237,526336.2000000477,8039,NTS,C,4
1,3,test,2,C,circle.png,1,z,Wed May 14 2025 13:07:18 GMT-0500 (Central Daylight Time),530797.8000000119,1000,I,z,1021,1,1,2043.5999999642372,528754.2000000477,8039,NTS,C,5
9,3,test,2,C,circle.png,0,m,Wed May 14 2025 13:07:18 GMT-0500 (Central Daylight Time),533197.0,1500,I,z,879,8,1,2395.599999964237,530801.4000000358,8039,NTS,C,6
9,3,test,2,C,triangle.png,0,z,Wed May 14 2025 13:07:18 GMT-0500 (Central Daylight Time),536096.2000000477,1400,I,m,1469,16,1,2895.400000035763,533200.8000000119,8039,NTS,C,7
1,4,test,2,C,triangle.png,1,z,Wed May 14 2025 13:07:18 GMT-0500 (Central Daylight Time),538961.8000000119,1900,I,z,933,17,1,2861.899999976158,536099.9000000358,8039,NTS,C,8
4,5,test,2,C,triangle.png,1,m,Wed May 14 2025 13:07:18 GMT-0500 (Central Daylight Time),541377.7000000477,1500,I,m,891,12,1,2412.100000023842,538965.6000000238,8039,NTS,C,9
7,6,test,2,C,triangle.png,1,z,Wed May 14 2025 13:07:18 GMT-0500 (Central Daylight Time),544143.7000000477,1700,I,z,1034,6,1,2761.800000011921,541381.9000000358,8039,NTS,C,10
3,7,test,2,C,triangle.png,1,z,Wed May 14 2025 13:07:18 GMT-0500 (Central Daylight Time),546059.4000000358,1200,I,z,699,3,1,1911.800000011921,544147.6000000238,8039,NTS,C,11
6,8,test,2,C,circle.png,1,m,Wed May 14 2025 13:07:18 GMT-0500 (Central Daylight Time),548725.5,1900,I,m,746,5,1,2662.599999964237,546062.9000000358,8039,NTS,C,12
2,9,test,2,C,circle.png,1,z,Wed May 14 2025 13:07:18 GMT-0500 (Central Daylight Time),551491.3000000119,1700,I,z,1040,10,1,2762.199999988079,548729.1000000238,8039,NTS,C,13
8,10,test,2,C,triangle.png,1,m,Wed May 14 2025 13:07:18 GMT-0500 (Central Daylight Time),554173.7000000477,1600,I,m,1062,7,1,2678.800000011921,551494.9000000358,8039,NTS,C,14
2,10,test,2,C,circle.png,0,z,Wed May 14 2025 13:07:18 GMT-0500 (Central Daylight Time),556973.0,1700,I,m,1071,18,1,2795.399999976158,554177.6000000238,8039,NTS,C,15
1,11,test,2,C,triangle.png,1,z,Wed May 14 2025 13:07:18 GMT-0500 (Central Daylight Time),559605.5,1900,I,z,704,9,1,2628.699999988079,556976.8000000119,8039,NTS,C,16
8,12,test,2,C,circle.png,1,m,Wed May 14 2025 13:07:18 GMT-0500 (Central Daylight Time),561521.4000000358,1200,I,m,692,15,1,1912.4000000357628,559609.0,8039,NTS,C,17
2,12,test,2,C,triangle.png,0,m,Wed May 14 2025 13:07:18 GMT-0500 (Central Daylight Time),564337.5,2000,I,z,784,2,1,2812.599999964237,561524.9000000358,8039,NTS,C,18
3,12,test,2,C,circle.png,0,z,Wed May 14 2025 13:07:18 GMT-0500 (Central Daylight Time),567469.7000000477,1600,I,None,1516,11,1,3128.2000000476837,564341.5,8039,NTS,C,19
9,13,test,2,C,triangle.png,1,z,Wed May 14 2025 13:07:18 GMT-0500 (Central Daylight Time),569768.8000000119,1400,I,z,876,24,1,2295.300000011921,567473.5,8039,NTS,C,20
6,13,test,2,C,triangle.png,0,m,Wed May 14 2025 13:07:18 GMT-0500 (Central Daylight Time),571868.3000000119,1000,I,z,1072,21,1,2095.800000011921,569772.5,8039,NTS,C,21
6,14,test,2,C,triangle.png,1,m,Wed May 14 2025 13:07:18 GMT-0500 (Central Daylight Time),574001.0,1000,I,m,1110,13,1,2129.199999988079,571871.8000000119,8039,NTS,C,22
7,14,test,2,C,circle.png,0,m,Wed May 14 2025 13:07:18 GMT-0500 (Central Daylight Time),577316.5,2000,I,z,1288,22,1,3311.699999988079,574004.8000000119,8039,NTS,C,23
4,15,test,2,C,triangle.png,1,m,Wed May 14 2025 13:07:18 GMT-0500 (Central Daylight Time),579832.5,1500,I,m,986,20,1,2512.5,577320.0,8039,NTS,C,24
8,1,test,3,C,circle.png,1,m,Wed May 14 2025 13:07:18 GMT-0500 (Central Daylight Time),586180.5,1200,I,m,473,15,1,1696.8999999761581,584483.6000000238,8039,NTS,C,1
9,1,test,3,C,circle.png,0,m,Wed May 14 2025 13:07:18 GMT-0500 (Central Daylight Time),588646.6000000238,1500,I,z,945,8,1,2462.399999976158,586184.2000000477,8039,NTS,C,2
3,2,test,3,C,triangle.png,1,z,Wed May 14 2025 13:07:18 GMT-0500 (Central Daylight Time),590645.6000000238,1200,I,z,779,3,1,1995.5,588650.1000000238,8039,NTS,C,3
7,3,test,3,C,circle.png,1,m,Wed May 14 2025 13:07:18 GMT-0500 (Central Daylight Time),593628.3000000119,2000,I,m,956,14,1,2979.199999988079,590649.1000000238,8039,NTS,C,4
7,3,test,3,C,triangle.png,0,z,Wed May 14 2025 13:07:18 GMT-0500 (Central Daylight Time),596760.5,1700,I,m,1401,22,1,3128.599999964237,593631.9000000358,8039,NTS,C,5
3,4,test,3,C,triangle.png,1,z,Wed May 14 2025 13:07:18 GMT-0500 (Central Daylight Time),598759.6000000238,1200,I,z,777,19,1,1995.3999999761581,596764.2000000477,8039,NTS,C,6
8,5,test,3,C,triangle.png,1,m,Wed May 14 2025 13:07:18 GMT-0500 (Central Daylight Time),601375.8000000119,1600,I,m,994,7,1,2612.699999988079,598763.1000000238,8039,NTS,C,7
8,6,test,3,C,triangle.png,1,m,Wed May 14 2025 13:07:18 GMT-0500 (Central Daylight Time),604108.2000000477,1600,I,m,1114,23,1,2728.7000000476837,601379.5,8039,NTS,C,8
6,7,test,3,C,circle.png,1,m,Wed May 14 2025 13:07:18 GMT-0500 (Central Daylight Time),606774.0,1900,I,m,737,5,1,2662.099999964237,604111.9000000358,8039,NTS,C,9
2,7,test,3,C,circle.png,0,z,Wed May 14 2025 13:07:18 GMT-0500 (Central Daylight Time),609239.7000000477,1700,I,m,736,10,1,2462.0,606777.7000000477,8039,NTS,C,10
7,8,test,3,C,triangle.png,1,z,Wed May 14 2025 13:07:18 GMT-0500 (Central Daylight Time),612088.9000000358,1700,I,z,1118,6,1,2843.900000035763,609245.0,8039,NTS,C,11
1,9,test,3,C,circle.png,1,z,Wed May 14 2025 13:07:18 GMT-0500 (Central Daylight Time),613888.3000000119,1000,I,z,768,1,1,1795.3999999761581,612092.9000000358,8039,NTS,C,12
2,10,test,3,C,triangle.png,1,m,Wed May 14 2025 13:07:18 GMT-0500 (Central Daylight Time),617254.0,2000,I,m,1337,18,1,3362.0,613892.0,8039,NTS,C,13
9,10,test,3,C,circle.png,0,m,Wed May 14 2025 13:07:18 GMT-0500 (Central Daylight Time),619886.6000000238,1500,I,z,1103,24,1,2628.600000023842,617258.0,8039,NTS,C,14
1,11,test,3,C,circle.png,1,z,Wed May 14 2025 13:07:18 GMT-0500 (Central Daylight Time),621585.8000000119,1000,I,z,668,17,1,1694.8999999761581,619890.9000000358,8039,NTS,C,15
4,11,test,3,C,circle.png,0,z,Wed May 14 2025 13:07:18 GMT-0500 (Central Daylight Time),623768.6000000238,1400,I,m,753,20,1,2178.899999976158,621589.7000000477,8039,NTS,C,16
3,12,test,3,C,circle.png,1,z,Wed May 14 2025 13:07:18 GMT-0500 (Central Daylight Time),626317.7000000477,1600,I,z,921,11,1,2545.300000011921,623772.4000000358,8039,NTS,C,17
6,13,test,3,C,circle.png,1,m,Wed May 14 2025 13:07:18 GMT-0500 (Central Daylight Time),629050.3000000119,1900,I,m,809,21,1,2728.599999964237,626321.7000000477,8039,NTS,C,18
1,14,test,3,C,triangle.png,1,z,Wed May 14 2025 13:07:18 GMT-0500 (Central Daylight Time),631783.9000000358,1900,I,z,803,9,1,2729.699999988079,629054.2000000477,8039,NTS,C,19
4,15,test,3,C,circle.png,1,z,Wed May 14 2025 13:07:18 GMT-0500 (Central Daylight Time),634465.2000000477,1400,I,z,1259,4,1,2677.400000035763,631787.8000000119,8039,NTS,C,20
4,15,test,3,C,triangle.png,0,m,Wed May 14 2025 13:07:18 GMT-0500 (Central Daylight Time),637097.9000000358,1500,I,z,1108,12,1,2627.400000035763,634470.5,8039,NTS,C,21
6,16,test,3,C,triangle.png,1,m,Wed May 14 2025 13:07:18 GMT-0500 (Central Daylight Time),639380.5,1000,I,m,1264,13,1,2278.899999976158,637101.6000000238,8039,NTS,C,22
2,16,test,3,C,triangle.png,0,m,Wed May 14 2025 13:07:18 GMT-0500 (Central Daylight Time),642179.3000000119,2000,I,z,781,2,1,2794.800000011921,639384.5,8039,NTS,C,23
9,17,test,3,C,triangle.png,1,z,Wed May 14 2025 13:07:18 GMT-0500 (Central Daylight Time),644478.9000000358,1400,I,z,878,16,1,2296.199999988079,642182.7000000477,8039,NTS,C,24
6,1,test,4,C,triangle.png,1,m,Wed May 14 2025 13:07:18 GMT-0500 (Central Daylight Time),648744.2000000477,1000,I,m,1252,13,1,2279.7000000476837,646464.5,8039,NTS,C,1
4,1,test,4,C,triangle.png,0,m,Wed May 14 2025 13:07:18 GMT-0500 (Central Daylight Time),651310.2000000477,1500,I,z,1046,12,1,2560.5,648749.7000000477,8039,NTS,C,2
4,1,test,4,C,circle.png,0,z,Wed May 14 2025 13:07:18 GMT-0500 (Central Daylight Time),654335.9000000358,1400,I,None,1609,4,1,3021.800000011921,651314.1000000238,8039,NTS,C,3
7,2,test,4,C,triangle.png,1,z,Wed May 14 2025 13:07:18 GMT-0500 (Central Daylight Time),656858.2000000477,1700,I,z,809,22,1,2518.2000000476837,654340.0,8039,NTS,C,4
1,3,test,4,C,circle.png,1,z,Wed May 14 2025 13:07:18 GMT-0500 (Central Daylight Time),659091.0,1000,I,z,1208,1,1,2229.0,656862.0,8039,NTS,C,5
4,3,test,4,C,circle.png,0,z,Wed May 14 2025 13:07:18 GMT-0500 (Central Daylight Time),661506.5,1400,I,m,982,20,1,2412.199999988079,659094.3000000119,8039,NTS,C,6
3,4,test,4,C,triangle.png,1,z,Wed May 14 2025 13:07:18 GMT-0500 (Central Daylight Time),663339.7000000477,1200,I,z,606,3,1,1828.1000000238419,661511.6000000238,8039,NTS,C,7
7,5,test,4,C,triangle.png,1,z,Wed May 14 2025 13:07:18 GMT-0500 (Central Daylight Time),665772.1000000238,1700,I,z,707,6,1,2429.100000023842,663343.0,8039,NTS,C,8
1,5,test,4,C,circle.png,0,z,Wed May 14 2025 13:07:18 GMT-0500 (Central Daylight Time),667771.6000000238,1000,I,m,973,17,1,1996.0,665775.6000000238,8039,NTS,C,9
3,6,test,4,C,circle.png,1,z,Wed May 14 2025 13:07:18 GMT-0500 (Central Daylight Time),670304.0,1600,I,z,910,11,1,2528.699999988079,667775.3000000119,8039,NTS,C,10
9,6,test,4,C,circle.png,0,m,Wed May 14 2025 13:07:18 GMT-0500 (Central Daylight Time),673336.2000000477,1500,I,None,1515,8,1,3028.600000023842,670307.6000000238,8039,NTS,C,11
7,6,test,4,C,circle.png,0,m,Wed May 14 2025 13:07:18 GMT-0500 (Central Daylight Time),676635.1000000238,2000,I,z,1281,14,1,3295.399999976158,673339.7000000477,8039,NTS,C,12
2,6,test,4,C,triangle.png,0,m,Wed May 14 2025 13:07:18 GMT-0500 (Central Daylight Time),679451.3000000119,2000,I,z,799,2,1,2812.599999964237,676638.7000000477,8039,NTS,C,13
6,7,test,4,C,circle.png,1,m,Wed May 14 2025 13:07:18 GMT-0500 (Central Daylight Time),682000.4000000358,1900,I,m,618,21,1,2545.0,679455.4000000358,8039,NTS,C,14
9,8,test,4,C,triangle.png,1,z,Wed May 14 2025 13:07:18 GMT-0500 (Central Daylight Time),684066.5,1400,I,z,633,16,1,2062.5,682004.0,8039,NTS,C,15
8,9,test,4,C,circle.png,1,m,Wed May 14 2025 13:07:18 GMT-0500 (Central Daylight Time),685999.2000000477,1200,I,m,704,15,1,1929.1000000238419,684070.1000000238,8039,NTS,C,16
8,9,test,4,C,triangle.png,0,m,Wed May 14 2025 13:07:18 GMT-0500 (Central Daylight Time),688331.5,1600,I,z,706,23,1,2328.599999964237,686002.9000000358,8039,NTS,C,17
6,10,test,4,C,circle.png,1,m,Wed May 14 2025 13:07:18 GMT-0500 (Central Daylight Time),690981.2000000477,1900,I,m,723,5,1,2646.300000011921,688334.9000000358,8039,NTS,C,18
1,11,test,4,C,triangle.png,1,z,Wed May 14 2025 13:07:18 GMT-0500 (Central Daylight Time),693613.5,1900,I,z,714,9,1,2628.599999964237,690984.9000000358,8039,NTS,C,19
2,12,test,4,C,circle.png,1,z,Wed May 14 2025 13:07:18 GMT-0500 (Central Daylight Time),696529.2000000477,1700,I,z,1192,10,1,2912.100000023842,693617.1000000238,8039,NTS,C,20
3,13,test,4,C,triangle.png,1,z,Wed May 14 2025 13:07:18 GMT-0500 (Central Daylight Time),698478.4000000358,1200,I,z,720,19,1,1945.5,696532.9000000358,8039,NTS,C,21
8,14,test,4,C,triangle.png,1,m,Wed May 14 2025 13:07:18 GMT-0500 (Central Daylight Time),701027.5,1600,I,m,932,7,1,2545.599999964237,698481.9000000358,8039,NTS,C,22
9,15,test,4,C,circle.png,1,m,Wed May 14 2025 13:07:18 GMT-0500 (Central Daylight Time),703526.9000000358,1500,I,m,979,24,1,2494.300000011921,701032.6000000238,8039,NTS,C,23
2,15,test,4,C,triangle.png,0,m,Wed May 14 2025 13:07:18 GMT-0500 (Central Daylight Time),706159.5,2000,I,z,612,18,1,2628.699999988079,703530.8000000119,8039,NTS,C,24
