Q,Q1,Q2,Q3,Q4,acc_sum,block,block_c,correct,correct_response,datetime,endtime,project,response,response_time,row_sel,session_number,squiggle1,squiggle1x,squiggle1y,squiggle2,squiggle2x,squiggle2y,squiggle3,squiggle3x,squiggle3y,squiggle4,squiggle4x,squiggle4y,start_end,starttime,subject_id,target_congruent,task,task_vers,testsquiggle,testsquigglex,testsquiggley,time_practice_delay,time_practice_fixation,time_practice_stimuli,time_practice_study,time_test_delay,time_test_fixation,time_test_stimuli,time_test_study,trial
1,1,0,0,0,1,prac,1,1,z,Fri Oct 10 2025 14:24:13 GMT-0500 (Central Daylight Time),162997.09999990463,O,z,1070,1,1,66.bmp,-120,-120,67.bmp,120,-120,68.bmp,-120,120,69.bmp,120,120,9898.799999952316,153098.29999995232,7226,yes,SM,C,66.bmp,-120,-120,156743,150711,158760,152729,,,,,1
3,0,0,1,0,1,prac,1,0,m,Fri Oct 10 2025 14:24:13 GMT-0500 (Central Daylight Time),173176.70000004768,O,z,1343,2,1,70.bmp,-120,-120,71.bmp,120,-120,72.bmp,-120,120,73.bmp,120,120,10161.700000047684,163015.0,7226,no,SM,C,73.bmp,-120,120,166656,160627,168673,162642,,,,,2
4,0,0,0,1,2,prac,1,1,m,Fri Oct 10 2025 14:24:13 GMT-0500 (Central Daylight Time),183005.89999985695,O,m,993,3,1,74.bmp,-120,-120,75.bmp,120,-120,76.bmp,-120,120,77.bmp,120,120,9813.199999809265,173192.70000004768,7226,no,SM,C,74.bmp,120,120,176837,170806,178853,172822,,,,,3
2,0,1,0,0,2,prac,1,0,z,Fri Oct 10 2025 14:24:13 GMT-0500 (Central Daylight Time),192986.89999985695,O,m,1157,4,1,78.bmp,-120,-120,79.bmp,120,-120,80.bmp,-120,120,81.bmp,120,120,9976.899999856949,183010.0,7226,yes,SM,C,79.bmp,120,-120,186650,180622,188667,182636,,,,,4
3,0,0,1,0,3,prac,1,1,z,Fri Oct 10 2025 14:24:13 GMT-0500 (Central Daylight Time),202616.89999985695,O,z,800,5,1,82.bmp,-120,-120,83.bmp,120,-120,84.bmp,-120,120,85.bmp,120,120,9615.099999904633,193001.79999995232,7226,yes,SM,C,84.bmp,-120,120,196630,190614,198647,192616,,,,,5
1,1,0,0,0,4,prac,1,1,m,Fri Oct 10 2025 14:24:13 GMT-0500 (Central Daylight Time),212530.5,O,m,1083,6,1,86.bmp,-120,-120,87.bmp,120,-120,88.bmp,-120,120,89.bmp,120,120,9900.600000143051,202629.89999985695,7226,no,SM,C,89.bmp,-120,-120,206261,200243,208277,202246,,,,,6
2,0,1,0,0,5,prac,1,1,m,Fri Oct 10 2025 14:24:13 GMT-0500 (Central Daylight Time),222610.59999990463,O,m,1233,7,1,90.bmp,-120,-120,91.bmp,120,-120,92.bmp,-120,120,93.bmp,120,120,10066.599999904633,212544.0,7226,no,SM,C,90.bmp,120,-120,216191,210158,218207,212174,,,,,7
4,0,0,0,1,6,prac,1,1,z,Fri Oct 10 2025 14:24:13 GMT-0500 (Central Daylight Time),232872.79999995232,O,z,1442,8,1,94.bmp,-120,-120,95.bmp,120,-120,96.bmp,-120,120,97.bmp,120,120,10248.200000047684,222624.59999990463,7226,yes,SM,C,97.bmp,120,120,226254,220237,228270,222239,,,,,8
4,0,0,0,1,1,test,1,1,m,Fri Oct 10 2025 14:24:13 GMT-0500 (Central Daylight Time),246719.29999995232,O,m,1129,1,1,98.bmp,-120,-120,99.bmp,120,-120,100.bmp,-120,120,93.bmp,120,120,9173.200000047684,237546.09999990463,7226,yes,SM,C,100.bmp,120,120,226254,220237,228270,222239,241182.0,235159.0,243199.0,237167.0,1
2,0,1,0,0,2,test,1,1,m,Fri Oct 10 2025 14:24:13 GMT-0500 (Central Daylight Time),255782.59999990463,O,m,1013,2,1,51.bmp,-120,-120,52.bmp,120,-120,53.bmp,-120,120,54.bmp,120,120,9050.299999952316,246732.29999995232,7226,yes,SM,C,53.bmp,120,-120,226254,220237,228270,222239,250362.0,244345.0,252379.0,246347.0,2
1,1,0,0,0,2,test,1,0,z,Fri Oct 10 2025 14:24:13 GMT-0500 (Central Daylight Time),265846.5,O,None,2015,3,1,55.bmp,-120,-120,56.bmp,120,-120,57.bmp,-120,120,58.bmp,120,120,10049.299999952316,255797.20000004768,7226,yes,SM,C,55.bmp,-120,-120,226254,220237,228270,222239,259426.0,253410.0,261443.0,255411.0,3
3,0,0,1,0,3,test,1,1,m,Fri Oct 10 2025 14:24:13 GMT-0500 (Central Daylight Time),274875.59999990463,O,m,973,4,1,59.bmp,-120,-120,60.bmp,120,-120,61.bmp,-120,120,62.bmp,120,120,9014.899999856949,265860.7000000477,7226,yes,SM,C,59.bmp,-120,120,226254,220237,228270,222239,269490.0,263474.0,271505.0,265479.0,4
2,0,1,0,0,4,test,1,1,z,Fri Oct 10 2025 14:24:13 GMT-0500 (Central Daylight Time),284406.7999999523,O,z,1473,5,1,63.bmp,-120,-120,64.bmp,120,-120,65.bmp,-120,120,66.bmp,120,120,9527.599999904633,274879.2000000477,7226,yes,SM,C,64.bmp,120,-120,226254,220237,228270,222239,278520.0,272492.0,280535.0,274504.0,5
3,0,0,1,0,5,test,1,1,z,Fri Oct 10 2025 14:24:13 GMT-0500 (Central Daylight Time),294120.09999990463,O,z,1636,6,1,67.bmp,-120,-120,68.bmp,120,-120,69.bmp,-120,120,70.bmp,120,120,9697.799999952316,284422.2999999523,7226,yes,SM,C,69.bmp,-120,120,226254,220237,228270,222239,288066.0,282035.0,290084.0,284052.0,6
4,0,0,0,1,6,test,1,1,z,Fri Oct 10 2025 14:24:13 GMT-0500 (Central Daylight Time),303150.09999990463,O,z,971,7,1,71.bmp,-120,-120,72.bmp,120,-120,73.bmp,-120,120,74.bmp,120,120,9016.099999904633,294134.0,7226,yes,SM,C,74.bmp,120,120,226254,220237,228270,222239,297764.0,291747.0,299779.0,293749.0,7
2,0,1,0,0,7,test,1,1,m,Fri Oct 10 2025 14:24:13 GMT-0500 (Central Daylight Time),312481.0,O,m,1267,8,1,75.bmp,-120,-120,76.bmp,120,-120,77.bmp,-120,120,78.bmp,120,120,9319.200000047684,303161.7999999523,7226,yes,SM,C,75.bmp,120,-120,226254,220237,228270,222239,306794.0,300774.0,308811.0,302778.0,8
3,0,0,1,0,8,test,1,1,m,Fri Oct 10 2025 14:24:13 GMT-0500 (Central Daylight Time),321543.59999990463,O,m,1010,9,1,79.bmp,-120,-120,80.bmp,120,-120,81.bmp,-120,120,82.bmp,120,120,9049.899999856949,312493.7000000477,7226,yes,SM,C,80.bmp,-120,120,226254,220237,228270,222239,316124.0,310107.0,318141.0,312109.0,9
4,0,0,0,1,9,test,1,1,z,Fri Oct 10 2025 14:24:13 GMT-0500 (Central Daylight Time),330973.89999985695,O,z,1371,10,1,87.bmp,-120,-120,88.bmp,120,-120,89.bmp,-120,120,90.bmp,120,120,9426.5,321547.39999985695,7226,yes,SM,C,90.bmp,120,120,226254,220237,228270,222239,325188.0,319160.0,327203.0,321172.0,10
3,0,0,1,0,10,test,1,1,z,Fri Oct 10 2025 14:24:13 GMT-0500 (Central Daylight Time),340187.5,O,z,1164,11,1,83.bmp,-120,-120,84.bmp,120,-120,85.bmp,-120,120,86.bmp,120,120,9208.799999952316,330978.7000000477,7226,yes,SM,C,85.bmp,-120,120,226254,220237,228270,222239,334617.0,328591.0,336635.0,330604.0,11
2,0,1,0,0,11,test,1,1,m,Fri Oct 10 2025 14:24:13 GMT-0500 (Central Daylight Time),349418.59999990463,O,m,1167,12,1,91.bmp,-120,-120,92.bmp,120,-120,93.bmp,-120,120,94.bmp,120,120,9227.599999904633,340191.0,7226,yes,SM,C,91.bmp,120,-120,226254,220237,228270,222239,343832.0,337803.0,345849.0,339816.0,12
3,0,0,1,0,12,test,1,1,m,Fri Oct 10 2025 14:24:13 GMT-0500 (Central Daylight Time),358499.2999999523,O,m,1025,13,1,95.bmp,-120,-120,96.bmp,120,-120,97.bmp,-120,120,98.bmp,120,120,9067.0,349432.2999999523,7226,yes,SM,C,96.bmp,-120,120,226254,220237,228270,222239,353062.0,347045.0,355079.0,349046.0,13
1,1,0,0,0,13,test,1,1,z,Fri Oct 10 2025 14:24:13 GMT-0500 (Central Daylight Time),367979.2999999523,O,z,1400,14,1,99.bmp,-120,-120,100.bmp,120,-120,54.bmp,-120,120,51.bmp,120,120,9462.700000047684,358516.59999990463,7226,yes,SM,C,99.bmp,-120,-120,226254,220237,228270,222239,362159.0,356129.0,364176.0,358145.0,14
4,0,0,0,1,14,test,1,1,m,Fri Oct 10 2025 14:24:13 GMT-0500 (Central Daylight Time),377592.89999985695,O,m,1561,15,1,60.bmp,-120,-120,61.bmp,120,-120,62.bmp,-120,120,63.bmp,120,120,9600.199999809265,367992.7000000477,7226,yes,SM,C,61.bmp,120,120,226254,220237,228270,222239,371622.0,365606.0,373639.0,367608.0,15
1,1,0,0,0,15,test,1,1,m,Fri Oct 10 2025 14:24:13 GMT-0500 (Central Daylight Time),386889.7999999523,O,m,1243,16,1,52.bmp,-120,-120,53.bmp,120,-120,54.bmp,-120,120,55.bmp,120,120,9283.599999904633,377606.2000000477,7226,yes,SM,C,55.bmp,-120,-120,226254,220237,228270,222239,381237.0,375219.0,383253.0,377222.0,16
3,0,0,1,0,15,test,1,0,m,Fri Oct 10 2025 14:24:13 GMT-0500 (Central Daylight Time),396954.59999990463,O,None,2016,17,1,72.bmp,-120,-120,73.bmp,120,-120,74.bmp,-120,120,75.bmp,120,120,10050.899999856949,386903.7000000477,7226,yes,SM,C,72.bmp,-120,120,226254,220237,228270,222239,390534.0,384517.0,392550.0,386518.0,17
1,1,0,0,0,16,test,1,1,z,Fri Oct 10 2025 14:24:13 GMT-0500 (Central Daylight Time),406850.0,O,z,1826,18,1,56.bmp,-120,-120,57.bmp,120,-120,58.bmp,-120,120,59.bmp,120,120,9879.0,396971.0,7226,yes,SM,C,56.bmp,-120,-120,226254,220237,228270,222239,400613.0,394584.0,402630.0,396598.0,18
2,0,1,0,0,16,test,1,0,z,Fri Oct 10 2025 14:24:13 GMT-0500 (Central Daylight Time),416913.39999985695,O,None,2015,19,1,76.bmp,-120,-120,77.bmp,120,-120,78.bmp,-120,120,79.bmp,120,120,10050.699999809265,406862.7000000477,7226,yes,SM,C,77.bmp,120,-120,226254,220237,228270,222239,410493.0,404476.0,412510.0,406479.0,19
3,0,0,1,0,17,test,1,1,z,Fri Oct 10 2025 14:24:13 GMT-0500 (Central Daylight Time),426393.59999990463,O,z,1410,20,1,80.bmp,-120,-120,81.bmp,120,-120,82.bmp,-120,120,83.bmp,120,120,9465.899999856949,416927.7000000477,7226,yes,SM,C,82.bmp,-120,120,226254,220237,228270,222239,420573.0,414541.0,422589.0,416559.0,20
1,1,0,0,0,18,test,1,1,m,Fri Oct 10 2025 14:24:13 GMT-0500 (Central Daylight Time),435740.59999990463,O,m,1298,21,1,64.bmp,-120,-120,65.bmp,120,-120,66.bmp,-120,120,67.bmp,120,120,9333.0,426407.59999990463,7226,yes,SM,C,66.bmp,-120,-120,226254,220237,228270,222239,430037.0,424020.0,432054.0,426022.0,21
4,0,0,0,1,19,test,1,1,z,Fri Oct 10 2025 14:24:13 GMT-0500 (Central Daylight Time),445170.7000000477,O,z,1375,22,1,68.bmp,-120,-120,69.bmp,120,-120,70.bmp,-120,120,71.bmp,120,120,9417.900000095367,435752.7999999523,7226,yes,SM,C,71.bmp,120,120,226254,220237,228270,222239,439384.0,433365.0,441401.0,435369.0,22
1,1,0,0,0,20,test,1,1,m,Fri Oct 10 2025 14:24:13 GMT-0500 (Central Daylight Time),454584.2999999523,O,m,1353,23,1,84.bmp,-120,-120,85.bmp,120,-120,86.bmp,-120,120,87.bmp,120,120,9398.799999952316,445185.5,7226,yes,SM,C,87.bmp,-120,-120,226254,220237,228270,222239,448814.0,442798.0,450831.0,444799.0,23
2,0,1,0,0,21,test,1,1,z,Fri Oct 10 2025 14:24:13 GMT-0500 (Central Daylight Time),463764.7000000477,O,z,1123,24,1,92.bmp,-120,-120,93.bmp,120,-120,94.bmp,-120,120,95.bmp,120,120,9166.900000095367,454597.7999999523,7226,yes,SM,C,93.bmp,120,-120,226254,220237,228270,222239,458228.0,452210.0,460244.0,454213.0,24
4,0,0,0,1,22,test,1,1,m,Fri Oct 10 2025 14:24:13 GMT-0500 (Central Daylight Time),472661.7000000477,O,m,839,25,1,96.bmp,-120,-120,97.bmp,120,-120,98.bmp,-120,120,99.bmp,120,120,8884.700000047684,463777.0,7226,yes,SM,C,98.bmp,120,120,226254,220237,228270,222239,467408.0,461390.0,469425.0,463393.0,25
1,1,0,0,0,23,test,1,1,z,Fri Oct 10 2025 14:24:13 GMT-0500 (Central Daylight Time),481858.89999985695,O,z,1142,26,1,88.bmp,-120,-120,89.bmp,120,-120,90.bmp,-120,120,91.bmp,120,120,9184.799999952316,472674.09999990463,7226,yes,SM,C,88.bmp,-120,-120,226254,220237,228270,222239,476305.0,470287.0,478322.0,472291.0,26
4,0,0,0,1,24,test,1,1,z,Fri Oct 10 2025 14:24:13 GMT-0500 (Central Daylight Time),490905.59999990463,O,z,993,27,1,100.bmp,-120,-120,61.bmp,120,-120,51.bmp,-120,120,52.bmp,120,120,9033.099999904633,481872.5,7226,yes,SM,C,52.bmp,120,120,226254,220237,228270,222239,485502.0,479485.0,487519.0,481487.0,27
3,0,0,1,0,25,test,1,1,m,Fri Oct 10 2025 14:24:13 GMT-0500 (Central Daylight Time),500152.7000000477,O,m,1186,28,1,53.bmp,-120,-120,54.bmp,120,-120,55.bmp,-120,120,56.bmp,120,120,9234.600000143051,490918.09999990463,7226,yes,SM,C,53.bmp,-120,120,226254,220237,228270,222239,494549.0,488531.0,496566.0,490534.0,28
2,0,1,0,0,26,test,1,1,z,Fri Oct 10 2025 14:24:13 GMT-0500 (Central Daylight Time),509599.39999985695,O,z,1395,29,1,57.bmp,-120,-120,58.bmp,120,-120,59.bmp,-120,120,60.bmp,120,120,9434.599999904633,500164.7999999523,7226,yes,SM,C,58.bmp,120,-120,226254,220237,228270,222239,503796.0,497778.0,505813.0,499780.0,29
3,0,0,1,0,27,test,1,1,z,Fri Oct 10 2025 14:24:13 GMT-0500 (Central Daylight Time),518629.7999999523,O,z,955,30,1,61.bmp,-120,-120,62.bmp,120,-120,63.bmp,-120,120,64.bmp,120,120,9013.5,509616.2999999523,7226,yes,SM,C,63.bmp,-120,120,226254,220237,228270,222239,513259.0,507229.0,515276.0,509245.0,30
1,1,0,0,0,28,test,1,1,z,Fri Oct 10 2025 14:24:13 GMT-0500 (Central Daylight Time),528043.2999999523,O,z,1358,31,1,65.bmp,-120,-120,66.bmp,120,-120,67.bmp,-120,120,68.bmp,120,120,9400.900000095367,518642.39999985695,7226,yes,SM,C,65.bmp,-120,-120,226254,220237,228270,222239,522273.0,516255.0,524290.0,518258.0,31
2,0,1,0,0,29,test,1,1,m,Fri Oct 10 2025 14:24:13 GMT-0500 (Central Daylight Time),537807.0999999046,O,m,1706,32,1,69.bmp,-120,-120,70.bmp,120,-120,71.bmp,-120,120,72.bmp,120,120,9754.700000047684,528052.399999857,7226,yes,SM,C,69.bmp,120,-120,226254,220237,228270,222239,531687.0,525665.0,533702.0,527672.0,32
4,0,0,0,1,30,test,1,1,z,Fri Oct 10 2025 14:24:13 GMT-0500 (Central Daylight Time),547220.0,O,z,1357,33,1,81.bmp,-120,-120,82.bmp,120,-120,83.bmp,-120,120,84.bmp,120,120,9400.200000047684,537819.7999999523,7226,yes,SM,C,84.bmp,120,120,226254,220237,228270,222239,541450.0,535432.0,543467.0,537436.0,33
2,0,1,0,0,31,test,1,1,z,Fri Oct 10 2025 14:24:13 GMT-0500 (Central Daylight Time),556334.0,O,z,1055,34,1,73.bmp,-120,-120,74.bmp,120,-120,75.bmp,-120,120,76.bmp,120,120,9105.900000095367,547228.0999999046,7226,yes,SM,C,74.bmp,120,-120,226254,220237,228270,222239,550864.0,544841.0,552881.0,546849.0,34
4,0,0,0,1,32,test,1,1,m,Fri Oct 10 2025 14:24:13 GMT-0500 (Central Daylight Time),565613.5999999046,O,m,1230,35,1,77.bmp,-120,-120,78.bmp,120,-120,79.bmp,-120,120,80.bmp,120,120,9265.599999904633,556348.0,7226,yes,SM,C,79.bmp,120,120,226254,220237,228270,222239,559977.0,553961.0,561993.0,555963.0,35
3,0,0,1,0,32,test,1,0,m,Fri Oct 10 2025 14:24:13 GMT-0500 (Central Daylight Time),575143.899999857,O,z,1478,36,1,85.bmp,-120,-120,86.bmp,120,-120,87.bmp,-120,120,88.bmp,120,120,9526.599999904633,565617.2999999523,7226,yes,SM,C,85.bmp,-120,120,226254,220237,228270,222239,569257.0,563229.0,571273.0,565242.0,36
1,1,0,0,0,33,test,1,1,m,Fri Oct 10 2025 14:24:13 GMT-0500 (Central Daylight Time),584007.7000000477,O,m,811,37,1,89.bmp,-120,-120,90.bmp,120,-120,91.bmp,-120,120,92.bmp,120,120,8859.400000095367,575148.2999999523,7226,yes,SM,C,90.bmp,-120,-120,226254,220237,228270,222239,578787.0,572761.0,580803.0,574772.0,37
2,0,1,0,0,34,test,1,1,m,Fri Oct 10 2025 14:24:13 GMT-0500 (Central Daylight Time),593437.7999999523,O,m,1371,38,1,93.bmp,-120,-120,94.bmp,120,-120,95.bmp,-120,120,96.bmp,120,120,9426.0,584011.7999999523,7226,yes,SM,C,95.bmp,120,-120,226254,220237,228270,222239,587651.0,581625.0,589668.0,583636.0,38
4,0,0,0,1,35,test,1,1,z,Fri Oct 10 2025 14:24:13 GMT-0500 (Central Daylight Time),603368.0,O,z,1878,39,1,97.bmp,-120,-120,98.bmp,120,-120,99.bmp,-120,120,100.bmp,120,120,9926.0,593442.0,7226,yes,SM,C,100.bmp,120,120,226254,220237,228270,222239,597081.0,591054.0,599097.0,593066.0,39
3,0,0,1,0,36,test,1,1,m,Fri Oct 10 2025 14:24:13 GMT-0500 (Central Daylight Time),612231.5999999046,O,m,803,40,1,54.bmp,-120,-120,55.bmp,120,-120,56.bmp,-120,120,57.bmp,120,120,8859.700000047684,603371.899999857,7226,yes,SM,C,55.bmp,-120,120,226254,220237,228270,222239,607011.0,600984.0,609028.0,602996.0,40
1,1,0,0,0,37,test,1,1,z,Fri Oct 10 2025 14:24:13 GMT-0500 (Central Daylight Time),621379.0999999046,O,z,1092,41,1,58.bmp,-120,-120,59.bmp,120,-120,60.bmp,-120,120,61.bmp,120,120,9143.599999904633,612235.5,7226,yes,SM,C,58.bmp,-120,-120,226254,220237,228270,222239,615876.0,609848.0,617892.0,611860.0,41
4,0,0,0,1,38,test,1,1,z,Fri Oct 10 2025 14:24:13 GMT-0500 (Central Daylight Time),630426.5999999046,O,z,984,42,1,62.bmp,-120,-120,63.bmp,120,-120,64.bmp,-120,120,65.bmp,120,120,9040.899999856949,621385.7000000477,7226,yes,SM,C,65.bmp,120,120,226254,220237,228270,222239,625023.0,618998.0,627040.0,621007.0,42
1,1,0,0,0,39,test,1,1,z,Fri Oct 10 2025 14:24:13 GMT-0500 (Central Daylight Time),639840.0999999046,O,z,1362,43,1,66.bmp,-120,-120,67.bmp,120,-120,68.bmp,-120,120,69.bmp,120,120,9399.799999952316,630440.2999999523,7226,yes,SM,C,66.bmp,-120,-120,226254,220237,228270,222239,634070.0,628053.0,636086.0,630054.0,43
4,0,0,0,1,39,test,1,0,m,Fri Oct 10 2025 14:24:13 GMT-0500 (Central Daylight Time),649907.2999999523,O,None,2016,44,1,54.bmp,-120,-120,51.bmp,120,-120,52.bmp,-120,120,53.bmp,120,120,10054.400000095367,639852.899999857,7226,yes,SM,C,54.bmp,120,120,226254,220237,228270,222239,643483.0,637466.0,645499.0,639469.0,44
1,1,0,0,0,40,test,1,1,m,Fri Oct 10 2025 14:24:13 GMT-0500 (Central Daylight Time),659117.0,O,m,1148,45,1,78.bmp,-120,-120,79.bmp,120,-120,80.bmp,-120,120,81.bmp,120,120,9197.299999952316,649919.7000000477,7226,yes,SM,C,81.bmp,-120,-120,226254,220237,228270,222239,653563.0,647532.0,655580.0,649549.0,45
1,1,0,0,0,41,test,1,1,m,Fri Oct 10 2025 14:24:13 GMT-0500 (Central Daylight Time),668014.2000000477,O,m,848,46,1,70.bmp,-120,-120,71.bmp,120,-120,72.bmp,-120,120,73.bmp,120,120,8885.100000143051,659129.0999999046,7226,yes,SM,C,71.bmp,-120,-120,226254,220237,228270,222239,662761.0,656742.0,664777.0,658746.0,46
3,0,0,1,0,42,test,1,1,z,Fri Oct 10 2025 14:24:13 GMT-0500 (Central Daylight Time),676828.0,O,z,749,47,1,74.bmp,-120,-120,75.bmp,120,-120,76.bmp,-120,120,77.bmp,120,120,8802.799999952316,668025.2000000477,7226,yes,SM,C,76.bmp,-120,120,226254,220237,228270,222239,671658.0,665638.0,673674.0,667642.0,47
3,0,0,1,0,43,test,1,1,z,Fri Oct 10 2025 14:24:13 GMT-0500 (Central Daylight Time),685591.7999999523,O,z,712,48,1,90.bmp,-120,-120,91.bmp,120,-120,92.bmp,-120,120,93.bmp,120,120,8752.099999904633,676839.7000000477,7226,yes,SM,C,92.bmp,-120,120,226254,220237,228270,222239,680471.0,674452.0,682488.0,676456.0,48
2,0,1,0,0,44,test,1,1,z,Fri Oct 10 2025 14:24:13 GMT-0500 (Central Daylight Time),694655.7999999523,O,z,1004,49,1,86.bmp,-120,-120,87.bmp,120,-120,88.bmp,-120,120,89.bmp,120,120,9051.099999904633,685604.7000000477,7226,yes,SM,C,87.bmp,120,-120,226254,220237,228270,222239,689236.0,683217.0,691252.0,685221.0,49
3,0,0,1,0,45,test,1,1,m,Fri Oct 10 2025 14:24:13 GMT-0500 (Central Daylight Time),703819.2000000477,O,m,1100,50,1,82.bmp,-120,-120,83.bmp,120,-120,84.bmp,-120,120,85.bmp,120,120,9150.900000095367,694668.2999999523,7226,yes,SM,C,82.bmp,-120,120,226254,220237,228270,222239,698299.0,692281.0,700316.0,694284.0,50
2,0,1,0,0,46,test,1,1,z,Fri Oct 10 2025 14:24:13 GMT-0500 (Central Daylight Time),712916.2999999523,O,z,1041,51,1,94.bmp,-120,-120,95.bmp,120,-120,96.bmp,-120,120,97.bmp,120,120,9084.5,703831.7999999523,7226,yes,SM,C,95.bmp,120,-120,226254,220237,228270,222239,707463.0,701445.0,709479.0,703448.0,51
4,0,0,0,1,47,test,1,1,m,Fri Oct 10 2025 14:24:13 GMT-0500 (Central Daylight Time),721763.399999857,O,m,784,52,1,98.bmp,-120,-120,99.bmp,120,-120,100.bmp,-120,120,81.bmp,120,120,8835.799999952316,712927.5999999046,7226,yes,SM,C,98.bmp,120,120,226254,220237,228270,222239,716560.0,710540.0,718576.0,712545.0,52
3,0,0,1,0,48,test,1,1,z,Fri Oct 10 2025 14:24:13 GMT-0500 (Central Daylight Time),731343.5999999046,O,z,1521,53,1,51.bmp,-120,-120,52.bmp,120,-120,53.bmp,-120,120,54.bmp,120,120,9567.899999856949,721775.7000000477,7226,yes,SM,C,53.bmp,-120,120,226254,220237,228270,222239,725407.0,719388.0,727423.0,721392.0,53
1,1,0,0,0,49,test,1,1,m,Fri Oct 10 2025 14:24:13 GMT-0500 (Central Daylight Time),740740.5,O,m,1342,54,1,55.bmp,-120,-120,56.bmp,120,-120,57.bmp,-120,120,58.bmp,120,120,9383.799999952316,731356.7000000477,7226,yes,SM,C,57.bmp,-120,-120,226254,220237,228270,222239,734987.0,728969.0,737003.0,730972.0,54
4,0,0,0,1,50,test,1,1,z,Fri Oct 10 2025 14:24:13 GMT-0500 (Central Daylight Time),749904.0,O,z,1104,55,1,59.bmp,-120,-120,60.bmp,120,-120,61.bmp,-120,120,62.bmp,120,120,9151.200000047684,740752.7999999523,7226,yes,SM,C,62.bmp,120,120,226254,220237,228270,222239,744384.0,738366.0,746400.0,740369.0,55
2,0,1,0,0,51,test,1,1,m,Fri Oct 10 2025 14:24:13 GMT-0500 (Central Daylight Time),759101.0999999046,O,m,1133,56,1,63.bmp,-120,-120,64.bmp,120,-120,65.bmp,-120,120,66.bmp,120,120,9185.099999904633,749916.0,7226,yes,SM,C,63.bmp,120,-120,226254,220237,228270,222239,753548.0,747529.0,755564.0,749531.0,56
4,0,0,0,1,52,test,1,1,m,Fri Oct 10 2025 14:24:13 GMT-0500 (Central Daylight Time),768114.5999999046,O,m,951,57,1,67.bmp,-120,-120,68.bmp,120,-120,69.bmp,-120,120,70.bmp,120,120,9001.599999904633,759113.0,7226,yes,SM,C,68.bmp,120,120,226254,220237,228270,222239,762745.0,756726.0,764761.0,758729.0,57
3,0,0,1,0,52,test,1,0,z,Fri Oct 10 2025 14:24:13 GMT-0500 (Central Daylight Time),777361.7999999523,O,m,1193,58,1,71.bmp,-120,-120,72.bmp,120,-120,73.bmp,-120,120,74.bmp,120,120,9234.900000095367,768126.899999857,7226,yes,SM,C,73.bmp,-120,120,226254,220237,228270,222239,771759.0,765739.0,773775.0,767743.0,58
2,0,1,0,0,53,test,1,1,m,Fri Oct 10 2025 14:24:13 GMT-0500 (Central Daylight Time),786308.7999999523,O,m,898,59,1,75.bmp,-120,-120,76.bmp,120,-120,77.bmp,-120,120,78.bmp,120,120,8935.200000047684,777373.5999999046,7226,yes,SM,C,78.bmp,120,-120,226254,220237,228270,222239,781005.0,774986.0,783022.0,776990.0,59
1,1,0,0,0,54,test,1,1,z,Fri Oct 10 2025 14:24:13 GMT-0500 (Central Daylight Time),794973.0999999046,O,z,616,60,1,79.bmp,-120,-120,80.bmp,120,-120,81.bmp,-120,120,82.bmp,120,120,8651.099999904633,786322.0,7226,yes,SM,C,79.bmp,-120,-120,226254,220237,228270,222239,789952.0,783935.0,791969.0,785937.0,60
2,0,1,0,0,55,test,1,1,z,Fri Oct 10 2025 14:24:13 GMT-0500 (Central Daylight Time),803952.899999857,O,z,927,61,1,83.bmp,-120,-120,84.bmp,120,-120,85.bmp,-120,120,86.bmp,120,120,8967.399999856949,794985.5,7226,yes,SM,C,84.bmp,120,-120,226254,220237,228270,222239,798616.0,792598.0,800633.0,794601.0,61
4,0,0,0,1,56,test,1,1,z,Fri Oct 10 2025 14:24:13 GMT-0500 (Central Daylight Time),812900.2000000477,O,z,892,62,1,91.bmp,-120,-120,92.bmp,120,-120,93.bmp,-120,120,94.bmp,120,120,8936.100000143051,803964.0999999046,7226,yes,SM,C,94.bmp,120,120,226254,220237,228270,222239,807597.0,801577.0,809613.0,803582.0,62
1,1,0,0,0,57,test,1,1,m,Fri Oct 10 2025 14:24:13 GMT-0500 (Central Daylight Time),821763.7000000477,O,m,808,63,1,95.bmp,-120,-120,96.bmp,120,-120,97.bmp,-120,120,98.bmp,120,120,8849.900000095367,812913.7999999523,7226,yes,SM,C,95.bmp,-120,120,226254,220237,228270,222239,816544.0,810527.0,818560.0,812529.0,63
2,0,1,0,0,58,test,1,1,z,Fri Oct 10 2025 14:24:13 GMT-0500 (Central Daylight Time),830494.2999999523,O,z,673,64,1,99.bmp,-120,-120,100.bmp,120,-120,62.bmp,-120,120,51.bmp,120,120,8718.200000047684,821776.0999999046,7226,yes,SM,C,100.bmp,120,-120,226254,220237,228270,222239,825408.0,819389.0,827424.0,821393.0,64
4,0,0,0,1,58,test,1,0,m,Fri Oct 10 2025 14:24:13 GMT-0500 (Central Daylight Time),839724.7000000477,O,z,1173,65,1,52.bmp,-120,-120,53.bmp,120,-120,54.bmp,-120,120,55.bmp,120,120,9218.700000047684,830506.0,7226,yes,SM,C,54.bmp,120,120,226254,220237,228270,222239,834138.0,828119.0,836155.0,830123.0,65
3,0,0,1,0,59,test,1,1,m,Fri Oct 10 2025 14:24:13 GMT-0500 (Central Daylight Time),848988.2999999523,O,m,1199,66,1,56.bmp,-120,-120,57.bmp,120,-120,58.bmp,-120,120,59.bmp,120,120,9250.5,839737.7999999523,7226,yes,SM,C,59.bmp,-120,120,226254,220237,228270,222239,843368.0,837351.0,845385.0,839353.0,66
2,0,1,0,0,60,test,1,1,m,Fri Oct 10 2025 14:24:13 GMT-0500 (Central Daylight Time),858235.2999999523,O,m,1192,67,1,87.bmp,-120,-120,88.bmp,120,-120,89.bmp,-120,120,90.bmp,120,120,9234.200000047684,849001.0999999046,7226,yes,SM,C,89.bmp,120,-120,226254,220237,228270,222239,852632.0,846614.0,854648.0,848617.0,67
3,0,0,1,0,61,test,1,1,z,Fri Oct 10 2025 14:24:13 GMT-0500 (Central Daylight Time),867298.7000000477,O,z,1010,68,1,60.bmp,-120,-120,61.bmp,120,-120,62.bmp,-120,120,63.bmp,120,120,9051.900000095367,858246.7999999523,7226,yes,SM,C,62.bmp,-120,120,226254,220237,228270,222239,861879.0,855860.0,863895.0,857864.0,68
1,1,0,0,0,62,test,1,1,m,Fri Oct 10 2025 14:24:13 GMT-0500 (Central Daylight Time),876296.0999999046,O,m,937,69,1,64.bmp,-120,-120,65.bmp,120,-120,66.bmp,-120,120,67.bmp,120,120,8991.799999952316,867304.2999999523,7226,yes,SM,C,65.bmp,-120,-120,226254,220237,228270,222239,870943.0,864917.0,872959.0,866928.0,69
2,0,1,0,0,63,test,1,1,m,Fri Oct 10 2025 14:24:13 GMT-0500 (Central Daylight Time),885276.5,O,m,925,70,1,68.bmp,-120,-120,69.bmp,120,-120,70.bmp,-120,120,71.bmp,120,120,8967.400000095367,876309.0999999046,7226,yes,SM,C,70.bmp,120,-120,226254,220237,228270,222239,879940.0,873922.0,881956.0,875923.0,70
4,0,0,0,1,64,test,1,1,z,Fri Oct 10 2025 14:24:13 GMT-0500 (Central Daylight Time),894240.2000000477,O,z,904,71,1,72.bmp,-120,-120,73.bmp,120,-120,74.bmp,-120,120,75.bmp,120,120,8951.300000190735,885288.899999857,7226,yes,SM,C,75.bmp,120,120,226254,220237,228270,222239,888920.0,882902.0,890936.0,884905.0,71
1,1,0,0,0,65,test,1,1,z,Fri Oct 10 2025 14:24:13 GMT-0500 (Central Daylight Time),903053.0,O,z,763,72,1,76.bmp,-120,-120,77.bmp,120,-120,78.bmp,-120,120,79.bmp,120,120,8801.299999952316,894251.7000000477,7226,yes,SM,C,76.bmp,-120,-120,226254,220237,228270,222239,897884.0,891864.0,899900.0,893869.0,72
2,0,1,0,0,66,test,1,1,z,Fri Oct 10 2025 14:24:13 GMT-0500 (Central Daylight Time),911801.0,O,z,694,73,1,80.bmp,-120,-120,81.bmp,120,-120,82.bmp,-120,120,83.bmp,120,120,8744.5,903056.5,7226,yes,SM,C,81.bmp,120,-120,226254,220237,228270,222239,906697.0,900669.0,908714.0,902682.0,73
4,0,0,0,1,67,test,1,1,m,Fri Oct 10 2025 14:24:13 GMT-0500 (Central Daylight Time),920881.5,O,m,1028,74,1,84.bmp,-120,-120,85.bmp,120,-120,86.bmp,-120,120,87.bmp,120,120,9067.0,911814.5,7226,yes,SM,C,86.bmp,120,120,226254,220237,228270,222239,915445.0,909427.0,917461.0,911430.0,74
2,0,1,0,0,67,test,1,0,m,Fri Oct 10 2025 14:24:13 GMT-0500 (Central Daylight Time),930428.2999999523,O,z,1491,75,1,88.bmp,-120,-120,89.bmp,120,-120,90.bmp,-120,120,91.bmp,120,120,9534.5,920893.7999999523,7226,yes,SM,C,91.bmp,120,-120,226254,220237,228270,222239,924525.0,918507.0,926541.0,920510.0,75
1,1,0,0,0,68,test,1,1,z,Fri Oct 10 2025 14:24:13 GMT-0500 (Central Daylight Time),939225.399999857,O,z,746,76,1,92.bmp,-120,-120,93.bmp,120,-120,94.bmp,-120,120,95.bmp,120,120,8785.199999809265,930440.2000000477,7226,yes,SM,C,92.bmp,-120,-120,226254,220237,228270,222239,934072.0,928053.0,936087.0,930057.0,76
3,0,0,1,0,69,test,1,1,z,Fri Oct 10 2025 14:24:13 GMT-0500 (Central Daylight Time),947972.5,O,z,691,77,1,100.bmp,-120,-120,61.bmp,120,-120,51.bmp,-120,120,52.bmp,120,120,8733.799999952316,939238.7000000477,7226,yes,SM,C,51.bmp,-120,120,226254,220237,228270,222239,942869.0,936851.0,944885.0,938854.0,77
1,1,0,0,0,70,test,1,1,m,Fri Oct 10 2025 14:24:13 GMT-0500 (Central Daylight Time),957236.2000000477,O,m,1185,78,1,96.bmp,-120,-120,97.bmp,120,-120,98.bmp,-120,120,99.bmp,120,120,9246.700000047684,947989.5,7226,yes,SM,C,97.bmp,-120,-120,226254,220237,228270,222239,951633.0,945602.0,953648.0,947617.0,78
4,0,0,0,1,71,test,1,1,m,Fri Oct 10 2025 14:24:13 GMT-0500 (Central Daylight Time),966283.2000000477,O,m,975,79,1,57.bmp,-120,-120,58.bmp,120,-120,59.bmp,-120,120,60.bmp,120,120,9031.800000190735,957251.399999857,7226,yes,SM,C,57.bmp,120,120,226254,220237,228270,222239,960896.0,954864.0,962913.0,956881.0,79
3,0,0,1,0,72,test,1,1,m,Fri Oct 10 2025 14:24:13 GMT-0500 (Central Daylight Time),975530.0,O,m,1194,80,1,53.bmp,-120,-120,54.bmp,120,-120,55.bmp,-120,120,56.bmp,120,120,9233.299999952316,966296.7000000477,7226,yes,SM,C,56.bmp,-120,120,226254,220237,228270,222239,969927.0,963909.0,971943.0,965912.0,80
