acc_sum,block,block_c,change,condition,correct,correct_response,datetime,endtime,face,project,response,response_time,row_sel,session_number,start_end,starttime,subject_id,task,task_vers,trial
0,prac,1,,1-Back,,,Mon Jun 01 2026 14:53:22 GMT-0400 (Eastern Daylight Time),,093_m_f_n_a.png,I,space,13679,1,1,,,9080,NNB,C,0
1,prac,1,0.0,1-Back,1.0,m,Mon Jun 01 2026 14:53:22 GMT-0400 (Eastern Daylight Time),171659.69999980927,098_y_f_n_a.png,I,m,836,2,1,1790.0,169869.69999980927,9080,NNB,C,1
1,prac,1,1.0,1-Back,0.0,z,Mon Jun 01 2026 14:53:22 GMT-0400 (Eastern Daylight Time),173676.09999990463,098_y_f_n_a.png,I,m,1228,3,1,2002.8000001907349,171673.2999997139,9080,NNB,C,2
1,prac,1,0.0,1-Back,0.0,m,Mon Jun 01 2026 14:53:22 GMT-0400 (Eastern Daylight Time),175759.39999961853,059_o_m_n_a.png,I,z,1171,4,1,2073.2999997138977,173686.09999990463,9080,NNB,C,3
1,prac,1,0.0,1-Back,0.0,m,Mon Jun 01 2026 14:53:22 GMT-0400 (Eastern Daylight Time),177926.19999980927,092_m_m_n_a.png,I,z,1199,5,1,2158.199999809265,175768.0,9080,NNB,C,4
2,prac,1,1.0,1-Back,1.0,z,Mon Jun 01 2026 14:53:22 GMT-0400 (Eastern Daylight Time),180559.69999980927,092_m_m_n_a.png,I,z,1841,6,1,2619.4000000953674,177940.2999997139,9080,NNB,C,5
3,prac,1,0.0,1-Back,1.0,m,Mon Jun 01 2026 14:53:22 GMT-0400 (Eastern Daylight Time),183126.19999980927,130_o_f_n_a.png,I,m,1564,7,1,2557.9000000953674,180568.2999997139,9080,NNB,C,6
4,prac,1,0.0,1-Back,1.0,m,Mon Jun 01 2026 14:53:22 GMT-0400 (Eastern Daylight Time),185826.19999980927,082_m_m_n_a.png,I,m,1789,8,1,2691.5,183134.69999980927,9080,NNB,C,7
5,prac,1,0.0,1-Back,1.0,m,Mon Jun 01 2026 14:53:22 GMT-0400 (Eastern Daylight Time),188443.0,093_m_f_n_a.png,I,m,1833,9,1,2605.1000003814697,185837.89999961853,9080,NNB,C,8
6,prac,1,1.0,1-Back,1.0,z,Mon Jun 01 2026 14:53:22 GMT-0400 (Eastern Daylight Time),190009.5,093_m_f_n_a.png,I,z,786,10,1,1557.9000000953674,188451.59999990463,9080,NNB,C,9
7,prac,1,0.0,1-Back,1.0,m,Mon Jun 01 2026 14:53:22 GMT-0400 (Eastern Daylight Time),192026.2999997139,059_o_m_n_a.png,I,m,1236,11,1,2008.5999999046326,190017.69999980927,9080,NNB,C,10
7,prac,1,0.0,1-Back,0.0,m,Mon Jun 01 2026 14:53:22 GMT-0400 (Eastern Daylight Time),194292.89999961853,028_y_f_n_a.png,I,z,1342,12,1,2251.0,192041.89999961853,9080,NNB,C,11
0,test,1,0.0,1-Back,,,Mon Jun 01 2026 14:53:22 GMT-0400 (Eastern Daylight Time),194292.89999961853,098_y_f_n_a.png,I,space,21289,1,1,2251.0,192041.89999961853,9080,NNB,C,0
0,test,1,0.0,1-Back,0.0,m,Mon Jun 01 2026 14:53:22 GMT-0400 (Eastern Daylight Time),236109.59999990463,006_m_f_n_a.png,I,z,742,2,1,1760.0999999046326,234349.5,9080,NNB,C,1
0,test,1,0.0,1-Back,0.0,m,Mon Jun 01 2026 14:53:22 GMT-0400 (Eastern Daylight Time),238209.39999961853,028_y_f_n_a.png,I,z,1071,3,1,2092.8999996185303,236116.5,9080,NNB,C,2
0,test,1,1.0,1-Back,0.0,z,Mon Jun 01 2026 14:53:22 GMT-0400 (Eastern Daylight Time),239859.39999961853,028_y_f_n_a.png,I,m,619,4,1,1642.6999998092651,238216.69999980927,9080,NNB,C,3
0,test,1,0.0,1-Back,0.0,m,Mon Jun 01 2026 14:53:22 GMT-0400 (Eastern Daylight Time),241575.89999961853,006_m_f_n_a.png,I,z,697,5,1,1711.0999999046326,239864.7999997139,9080,NNB,C,4
0,test,1,0.0,1-Back,0.0,m,Mon Jun 01 2026 14:53:22 GMT-0400 (Eastern Daylight Time),243359.2999997139,059_o_m_n_a.png,I,z,757,6,1,1777.2999997138977,241582.0,9080,NNB,C,5
0,test,1,1.0,1-Back,0.0,z,Mon Jun 01 2026 14:53:22 GMT-0400 (Eastern Daylight Time),246393.0,059_o_m_n_a.png,I,None,2016,7,1,3025.800000190735,243367.19999980927,9080,NNB,C,6
1,test,1,0.0,1-Back,1.0,m,Mon Jun 01 2026 14:53:22 GMT-0400 (Eastern Daylight Time),249259.2999997139,092_m_m_n_a.png,I,m,1844,8,1,2860.2999997138977,246399.0,9080,NNB,C,7
1,test,1,0.0,1-Back,0.0,m,Mon Jun 01 2026 14:53:22 GMT-0400 (Eastern Daylight Time),252009.2999997139,130_o_f_n_a.png,I,z,1728,9,1,2744.199999809265,249265.09999990463,9080,NNB,C,8
1,test,1,0.0,1-Back,0.0,m,Mon Jun 01 2026 14:53:22 GMT-0400 (Eastern Daylight Time),255042.89999961853,092_m_m_n_a.png,I,None,2016,10,1,3027.0,252015.89999961853,9080,NNB,C,9
2,test,1,0.0,1-Back,1.0,m,Mon Jun 01 2026 14:53:22 GMT-0400 (Eastern Daylight Time),257309.09999990463,057_y_m_n_a.png,I,m,1243,11,1,2259.9000000953674,255049.19999980927,9080,NNB,C,10
3,test,1,1.0,1-Back,1.0,z,Mon Jun 01 2026 14:53:22 GMT-0400 (Eastern Daylight Time),259192.69999980927,057_y_m_n_a.png,I,z,863,12,1,1879.4000000953674,257313.2999997139,9080,NNB,C,11
4,test,1,0.0,1-Back,1.0,m,Mon Jun 01 2026 14:53:22 GMT-0400 (Eastern Daylight Time),261559.09999990463,030_o_f_n_a.png,I,m,1348,13,1,2356.800000190735,259202.2999997139,9080,NNB,C,12
5,test,1,1.0,1-Back,1.0,z,Mon Jun 01 2026 14:53:22 GMT-0400 (Eastern Daylight Time),263809.5,030_o_f_n_a.png,I,z,1221,14,1,2243.4000000953674,261566.09999990463,9080,NNB,C,13
6,test,1,0.0,1-Back,1.0,m,Mon Jun 01 2026 14:53:22 GMT-0400 (Eastern Daylight Time),265809.39999961853,031_y_m_n_a.png,I,m,971,15,1,1991.1999998092651,263818.19999980927,9080,NNB,C,14
7,test,1,0.0,1-Back,1.0,m,Mon Jun 01 2026 14:53:22 GMT-0400 (Eastern Daylight Time),267992.69999980927,093_m_f_n_a.png,I,m,1164,16,1,2176.0999999046326,265816.59999990463,9080,NNB,C,15
7,test,1,0.0,1-Back,0.0,m,Mon Jun 01 2026 14:53:22 GMT-0400 (Eastern Daylight Time),270742.89999961853,146_o_m_n_a.png,I,z,1732,17,1,2742.0999999046326,268000.7999997139,9080,NNB,C,16
8,test,1,0.0,1-Back,1.0,m,Mon Jun 01 2026 14:53:22 GMT-0400 (Eastern Daylight Time),273226.0,093_m_f_n_a.png,I,m,1462,18,1,2475.2000002861023,270750.7999997139,9080,NNB,C,17
0,test,2,0.0,1-Back,,,Mon Jun 01 2026 14:53:22 GMT-0400 (Eastern Daylight Time),273226.0,092_m_m_n_a.png,I,space,5499,1,1,2475.2000002861023,270750.7999997139,9080,NNB,C,0
1,test,2,0.0,1-Back,1.0,m,Mon Jun 01 2026 14:53:22 GMT-0400 (Eastern Daylight Time),283575.7999997139,006_m_f_n_a.png,I,m,1798,2,1,2813.5,280762.2999997139,9080,NNB,C,1
2,test,2,1.0,1-Back,1.0,z,Mon Jun 01 2026 14:53:22 GMT-0400 (Eastern Daylight Time),285342.89999961853,006_m_f_n_a.png,I,z,740,3,1,1759.8999996185303,283583.0,9080,NNB,C,2
3,test,2,0.0,1-Back,1.0,m,Mon Jun 01 2026 14:53:22 GMT-0400 (Eastern Daylight Time),287326.0,092_m_m_n_a.png,I,m,958,4,1,1973.9000000953674,285352.09999990463,9080,NNB,C,3
4,test,2,0.0,1-Back,1.0,m,Mon Jun 01 2026 14:53:22 GMT-0400 (Eastern Daylight Time),289542.59999990463,057_y_m_n_a.png,I,m,1184,5,1,2209.2000002861023,287333.39999961853,9080,NNB,C,4
5,test,2,0.0,1-Back,1.0,m,Mon Jun 01 2026 14:53:22 GMT-0400 (Eastern Daylight Time),292009.2999997139,098_y_f_n_a.png,I,m,1446,6,1,2459.7999997138977,289549.5,9080,NNB,C,5
6,test,2,1.0,1-Back,1.0,z,Mon Jun 01 2026 14:53:22 GMT-0400 (Eastern Daylight Time),293759.2999997139,098_y_f_n_a.png,I,z,723,7,1,1742.7999997138977,292016.5,9080,NNB,C,6
7,test,2,0.0,1-Back,1.0,m,Mon Jun 01 2026 14:53:22 GMT-0400 (Eastern Daylight Time),295626.09999990463,057_y_m_n_a.png,I,m,845,8,1,1859.8000001907349,293766.2999997139,9080,NNB,C,7
8,test,2,0.0,1-Back,1.0,m,Mon Jun 01 2026 14:53:22 GMT-0400 (Eastern Daylight Time),297809.5,030_o_f_n_a.png,I,m,1154,9,1,2174.6000003814697,295634.89999961853,9080,NNB,C,8
9,test,2,0.0,1-Back,1.0,m,Mon Jun 01 2026 14:53:22 GMT-0400 (Eastern Daylight Time),299509.09999990463,082_m_m_n_a.png,I,m,667,10,1,1690.4000000953674,297818.69999980927,9080,NNB,C,9
10,test,2,1.0,1-Back,1.0,z,Mon Jun 01 2026 14:53:22 GMT-0400 (Eastern Daylight Time),301359.5,082_m_m_n_a.png,I,z,824,11,1,1845.6000003814697,299513.89999961853,9080,NNB,C,10
11,test,2,0.0,1-Back,1.0,m,Mon Jun 01 2026 14:53:22 GMT-0400 (Eastern Daylight Time),303460.09999990463,030_o_f_n_a.png,I,m,1070,12,1,2093.0999999046326,301367.0,9080,NNB,C,11
12,test,2,0.0,1-Back,1.0,m,Mon Jun 01 2026 14:53:22 GMT-0400 (Eastern Daylight Time),305359.39999961853,130_o_f_n_a.png,I,m,873,13,1,1895.2999997138977,303464.09999990463,9080,NNB,C,12
13,test,2,0.0,1-Back,1.0,m,Mon Jun 01 2026 14:53:22 GMT-0400 (Eastern Daylight Time),307359.39999961853,059_o_m_n_a.png,I,m,973,14,1,1991.8999996185303,305367.5,9080,NNB,C,13
14,test,2,0.0,1-Back,1.0,m,Mon Jun 01 2026 14:53:22 GMT-0400 (Eastern Daylight Time),309226.09999990463,146_o_m_n_a.png,I,m,845,15,1,1861.3000001907349,307364.7999997139,9080,NNB,C,14
15,test,2,1.0,1-Back,1.0,z,Mon Jun 01 2026 14:53:22 GMT-0400 (Eastern Daylight Time),310942.7999997139,146_o_m_n_a.png,I,z,690,16,1,1710.5,309232.2999997139,9080,NNB,C,15
16,test,2,0.0,1-Back,1.0,m,Mon Jun 01 2026 14:53:22 GMT-0400 (Eastern Daylight Time),312626.09999990463,031_y_m_n_a.png,I,m,655,17,1,1675.2000002861023,310950.89999961853,9080,NNB,C,16
17,test,2,1.0,1-Back,1.0,z,Mon Jun 01 2026 14:53:22 GMT-0400 (Eastern Daylight Time),314542.7999997139,031_y_m_n_a.png,I,z,891,18,1,1909.5999999046326,312633.19999980927,9080,NNB,C,17
0,test,3,1.0,1-Back,,,Mon Jun 01 2026 14:53:22 GMT-0400 (Eastern Daylight Time),314542.7999997139,028_y_f_n_a.png,I,space,1909,1,1,1909.5999999046326,312633.19999980927,9080,NNB,C,0
1,test,3,0.0,1-Back,1.0,m,Mon Jun 01 2026 14:53:22 GMT-0400 (Eastern Daylight Time),320476.09999990463,146_o_m_n_a.png,I,m,860,1,1,1876.7000002861023,318599.39999961853,9080,NNB,C,1
2,test,3,1.0,1-Back,1.0,z,Mon Jun 01 2026 14:53:22 GMT-0400 (Eastern Daylight Time),322276.19999980927,146_o_m_n_a.png,I,z,768,1,1,1793.1999998092651,320483.0,9080,NNB,C,2
3,test,3,0.0,1-Back,1.0,m,Mon Jun 01 2026 14:53:22 GMT-0400 (Eastern Daylight Time),324242.7999997139,093_m_f_n_a.png,I,m,937,1,1,1960.0999999046326,322282.69999980927,9080,NNB,C,3
4,test,3,1.0,1-Back,1.0,z,Mon Jun 01 2026 14:53:22 GMT-0400 (Eastern Daylight Time),326009.2999997139,093_m_f_n_a.png,I,z,746,1,1,1760.4000000953674,324248.89999961853,9080,NNB,C,4
5,test,3,0.0,1-Back,1.0,m,Mon Jun 01 2026 14:53:22 GMT-0400 (Eastern Daylight Time),327842.7999997139,030_o_f_n_a.png,I,m,803,1,1,1826.7999997138977,326016.0,9080,NNB,C,5
6,test,3,0.0,1-Back,1.0,m,Mon Jun 01 2026 14:53:22 GMT-0400 (Eastern Daylight Time),330109.5,057_y_m_n_a.png,I,m,1243,1,1,2259.5,327850.0,9080,NNB,C,6
7,test,3,0.0,1-Back,1.0,m,Mon Jun 01 2026 14:53:22 GMT-0400 (Eastern Daylight Time),331909.39999961853,030_o_f_n_a.png,I,m,767,1,1,1791.0,330118.39999961853,9080,NNB,C,7
8,test,3,0.0,1-Back,1.0,m,Mon Jun 01 2026 14:53:22 GMT-0400 (Eastern Daylight Time),333942.89999961853,031_y_m_n_a.png,I,m,1000,1,1,2026.6999998092651,331916.19999980927,9080,NNB,C,8
9,test,3,1.0,1-Back,1.0,z,Mon Jun 01 2026 14:53:22 GMT-0400 (Eastern Daylight Time),335692.7999997139,031_y_m_n_a.png,I,z,727,1,1,1742.5,333950.2999997139,9080,NNB,C,9
10,test,3,0.0,1-Back,1.0,m,Mon Jun 01 2026 14:53:22 GMT-0400 (Eastern Daylight Time),337609.2999997139,006_m_f_n_a.png,I,m,896,1,1,1910.5999999046326,335698.69999980927,9080,NNB,C,10
11,test,3,0.0,1-Back,1.0,m,Mon Jun 01 2026 14:53:22 GMT-0400 (Eastern Daylight Time),339492.7999997139,098_y_f_n_a.png,I,m,851,1,1,1876.9000000953674,337615.89999961853,9080,NNB,C,11
12,test,3,1.0,1-Back,1.0,z,Mon Jun 01 2026 14:53:22 GMT-0400 (Eastern Daylight Time),341242.7999997139,098_y_f_n_a.png,I,z,728,1,1,1742.7999997138977,339500.0,9080,NNB,C,12
13,test,3,0.0,1-Back,1.0,m,Mon Jun 01 2026 14:53:22 GMT-0400 (Eastern Daylight Time),343143.0,006_m_f_n_a.png,I,m,883,1,1,1893.6000003814697,341249.39999961853,9080,NNB,C,13
14,test,3,0.0,1-Back,1.0,m,Mon Jun 01 2026 14:53:22 GMT-0400 (Eastern Daylight Time),344959.5,092_m_m_n_a.png,I,m,791,1,1,1811.2000002861023,343148.2999997139,9080,NNB,C,14
15,test,3,1.0,1-Back,1.0,z,Mon Jun 01 2026 14:53:22 GMT-0400 (Eastern Daylight Time),346742.7999997139,092_m_m_n_a.png,I,z,750,1,1,1777.0999999046326,344965.69999980927,9080,NNB,C,15
16,test,3,0.0,1-Back,1.0,m,Mon Jun 01 2026 14:53:22 GMT-0400 (Eastern Daylight Time),348592.7999997139,130_o_f_n_a.png,I,m,822,1,1,1843.4000000953674,346749.39999961853,9080,NNB,C,16
17,test,3,1.0,1-Back,1.0,z,Mon Jun 01 2026 14:53:22 GMT-0400 (Eastern Daylight Time),350326.19999980927,130_o_f_n_a.png,I,z,700,1,1,1727.0,348599.19999980927,9080,NNB,C,17
0,test,4,1.0,1-Back,,,Mon Jun 01 2026 14:53:22 GMT-0400 (Eastern Daylight Time),350326.19999980927,093_m_f_n_a.png,I,space,1886,1,1,1727.0,348599.19999980927,9080,NNB,C,0
1,test,4,0.0,1-Back,1.0,m,Mon Jun 01 2026 14:53:22 GMT-0400 (Eastern Daylight Time),356309.39999961853,146_o_m_n_a.png,I,m,917,2,1,1942.8999996185303,354366.5,9080,NNB,C,1
2,test,4,0.0,1-Back,1.0,m,Mon Jun 01 2026 14:53:22 GMT-0400 (Eastern Daylight Time),358409.2999997139,093_m_f_n_a.png,I,m,1080,3,1,2093.0,356316.2999997139,9080,NNB,C,2
3,test,4,0.0,1-Back,1.0,m,Mon Jun 01 2026 14:53:22 GMT-0400 (Eastern Daylight Time),360076.09999990463,030_o_f_n_a.png,I,m,643,4,1,1657.7000002861023,358418.39999961853,9080,NNB,C,3
4,test,4,1.0,1-Back,1.0,z,Mon Jun 01 2026 14:53:22 GMT-0400 (Eastern Daylight Time),361726.19999980927,030_o_f_n_a.png,I,z,625,5,1,1643.6999998092651,360082.5,9080,NNB,C,4
5,test,4,0.0,1-Back,1.0,m,Mon Jun 01 2026 14:53:22 GMT-0400 (Eastern Daylight Time),363575.89999961853,098_y_f_n_a.png,I,m,830,6,1,1844.0999999046326,361731.7999997139,9080,NNB,C,5
6,test,4,0.0,1-Back,1.0,m,Mon Jun 01 2026 14:53:22 GMT-0400 (Eastern Daylight Time),365342.89999961853,057_y_m_n_a.png,I,m,741,7,1,1757.7999997138977,363585.09999990463,9080,NNB,C,6
6,test,4,1.0,1-Back,0.0,z,Mon Jun 01 2026 14:53:22 GMT-0400 (Eastern Daylight Time),367309.39999961853,057_y_m_n_a.png,I,m,943,8,1,1959.1999998092651,365350.19999980927,9080,NNB,C,7
7,test,4,0.0,1-Back,1.0,m,Mon Jun 01 2026 14:53:22 GMT-0400 (Eastern Daylight Time),368992.7999997139,098_y_f_n_a.png,I,m,656,9,1,1676.1999998092651,367316.59999990463,9080,NNB,C,8
8,test,4,0.0,1-Back,1.0,m,Mon Jun 01 2026 14:53:22 GMT-0400 (Eastern Daylight Time),370676.19999980927,082_m_m_n_a.png,I,m,653,10,1,1676.0999999046326,369000.09999990463,9080,NNB,C,9
9,test,4,1.0,1-Back,1.0,z,Mon Jun 01 2026 14:53:22 GMT-0400 (Eastern Daylight Time),372375.89999961853,082_m_m_n_a.png,I,z,680,11,1,1687.7999997138977,370688.09999990463,9080,NNB,C,10
10,test,4,0.0,1-Back,1.0,m,Mon Jun 01 2026 14:53:22 GMT-0400 (Eastern Daylight Time),374142.89999961853,130_o_f_n_a.png,I,m,740,12,1,1761.0,372381.89999961853,9080,NNB,C,11
11,test,4,0.0,1-Back,1.0,m,Mon Jun 01 2026 14:53:22 GMT-0400 (Eastern Daylight Time),375975.7999997139,059_o_m_n_a.png,I,m,814,13,1,1825.5999999046326,374150.19999980927,9080,NNB,C,12
12,test,4,0.0,1-Back,1.0,m,Mon Jun 01 2026 14:53:22 GMT-0400 (Eastern Daylight Time),377575.7999997139,130_o_f_n_a.png,I,m,580,14,1,1592.0999999046326,375983.69999980927,9080,NNB,C,13
13,test,4,0.0,1-Back,1.0,m,Mon Jun 01 2026 14:53:22 GMT-0400 (Eastern Daylight Time),379093.0,028_y_f_n_a.png,I,m,485,15,1,1507.8000001907349,377585.19999980927,9080,NNB,C,14
14,test,4,1.0,1-Back,1.0,z,Mon Jun 01 2026 14:53:22 GMT-0400 (Eastern Daylight Time),380777.09999990463,028_y_f_n_a.png,I,z,665,16,1,1677.3000001907349,379099.7999997139,9080,NNB,C,15
15,test,4,0.0,1-Back,1.0,m,Mon Jun 01 2026 14:53:22 GMT-0400 (Eastern Daylight Time),382426.0,006_m_f_n_a.png,I,m,629,17,1,1640.6000003814697,380785.39999961853,9080,NNB,C,16
15,test,4,1.0,1-Back,0.0,z,Mon Jun 01 2026 14:53:22 GMT-0400 (Eastern Daylight Time),384292.89999961853,006_m_f_n_a.png,I,m,835,18,1,1858.0,382434.89999961853,9080,NNB,C,17
0,test,5,1.0,1-Back,,,Mon Jun 01 2026 14:53:22 GMT-0400 (Eastern Daylight Time),384292.89999961853,059_o_m_n_a.png,I,space,1424,1,1,1858.0,382434.89999961853,9080,NNB,C,0
1,test,5,1.0,1-Back,1.0,z,Mon Jun 01 2026 14:53:22 GMT-0400 (Eastern Daylight Time),389509.39999961853,059_o_m_n_a.png,I,z,735,2,1,1760.5999999046326,387748.7999997139,9080,NNB,C,1
2,test,5,0.0,1-Back,1.0,m,Mon Jun 01 2026 14:53:22 GMT-0400 (Eastern Daylight Time),391109.59999990463,098_y_f_n_a.png,I,m,567,3,1,1593.0,389516.59999990463,9080,NNB,C,2
3,test,5,0.0,1-Back,1.0,m,Mon Jun 01 2026 14:53:22 GMT-0400 (Eastern Daylight Time),392759.2999997139,057_y_m_n_a.png,I,m,632,4,1,1643.6999998092651,391115.59999990463,9080,NNB,C,3
3,test,5,0.0,1-Back,0.0,m,Mon Jun 01 2026 14:53:22 GMT-0400 (Eastern Daylight Time),394509.59999990463,098_y_f_n_a.png,I,z,725,5,1,1740.5,392769.09999990463,9080,NNB,C,4
4,test,5,0.0,1-Back,1.0,m,Mon Jun 01 2026 14:53:22 GMT-0400 (Eastern Daylight Time),396226.19999980927,092_m_m_n_a.png,I,m,688,6,1,1710.0,394516.19999980927,9080,NNB,C,5
5,test,5,1.0,1-Back,1.0,z,Mon Jun 01 2026 14:53:22 GMT-0400 (Eastern Daylight Time),398559.5,092_m_m_n_a.png,I,z,1308,7,1,2326.5,396233.0,9080,NNB,C,6
6,test,5,0.0,1-Back,1.0,m,Mon Jun 01 2026 14:53:22 GMT-0400 (Eastern Daylight Time),400359.5,028_y_f_n_a.png,I,m,766,8,1,1793.4000000953674,398566.09999990463,9080,NNB,C,7
7,test,5,0.0,1-Back,1.0,m,Mon Jun 01 2026 14:53:22 GMT-0400 (Eastern Daylight Time),401976.0,031_y_m_n_a.png,I,m,598,9,1,1610.2000002861023,400365.7999997139,9080,NNB,C,8
7,test,5,0.0,1-Back,0.0,m,Mon Jun 01 2026 14:53:22 GMT-0400 (Eastern Daylight Time),403709.5,028_y_f_n_a.png,I,z,709,10,1,1726.4000000953674,401983.09999990463,9080,NNB,C,9
8,test,5,0.0,1-Back,1.0,m,Mon Jun 01 2026 14:53:22 GMT-0400 (Eastern Daylight Time),405476.19999980927,130_o_f_n_a.png,I,m,736,11,1,1759.6999998092651,403716.5,9080,NNB,C,10
9,test,5,1.0,1-Back,1.0,z,Mon Jun 01 2026 14:53:22 GMT-0400 (Eastern Daylight Time),407792.89999961853,130_o_f_n_a.png,I,z,1289,12,1,2310.3999996185303,405482.5,9080,NNB,C,11
10,test,5,0.0,1-Back,1.0,m,Mon Jun 01 2026 14:53:22 GMT-0400 (Eastern Daylight Time),409543.19999980927,146_o_m_n_a.png,I,m,733,13,1,1743.0,407800.19999980927,9080,NNB,C,12
11,test,5,0.0,1-Back,1.0,m,Mon Jun 01 2026 14:53:22 GMT-0400 (Eastern Daylight Time),411192.59999990463,093_m_f_n_a.png,I,m,631,14,1,1640.9000000953674,409551.69999980927,9080,NNB,C,13
11,test,5,1.0,1-Back,0.0,z,Mon Jun 01 2026 14:53:22 GMT-0400 (Eastern Daylight Time),413292.7999997139,093_m_f_n_a.png,I,m,1076,15,1,2091.9000000953674,411200.89999961853,9080,NNB,C,14
12,test,5,0.0,1-Back,1.0,m,Mon Jun 01 2026 14:53:22 GMT-0400 (Eastern Daylight Time),414959.59999990463,146_o_m_n_a.png,I,m,641,16,1,1659.0,413300.59999990463,9080,NNB,C,15
13,test,5,0.0,1-Back,1.0,m,Mon Jun 01 2026 14:53:22 GMT-0400 (Eastern Daylight Time),416876.09999990463,006_m_f_n_a.png,I,m,893,17,1,1910.5,414965.59999990463,9080,NNB,C,16
14,test,5,0.0,1-Back,1.0,m,Mon Jun 01 2026 14:53:22 GMT-0400 (Eastern Daylight Time),418543.0,082_m_m_n_a.png,I,m,641,18,1,1657.2000002861023,416885.7999997139,9080,NNB,C,17
0,prac,1,0.0,2-Back,,,Mon Jun 01 2026 14:53:22 GMT-0400 (Eastern Daylight Time),418543.0,031_y_m_n_a.png,I,space,24024,1,1,1657.2000002861023,416885.7999997139,9080,NNB,C,0
0,prac,1,0.0,2-Back,,,Mon Jun 01 2026 14:53:22 GMT-0400 (Eastern Daylight Time),418543.0,006_m_f_n_a.png,I,space,24024,2,1,1657.2000002861023,416885.7999997139,9080,NNB,C,0
1,prac,1,1.0,2-Back,1.0,m,Mon Jun 01 2026 14:53:22 GMT-0400 (Eastern Daylight Time),902543.5,146_o_m_n_a.png,I,m,934,3,1,1841.6000003814697,900701.8999996185,9080,NNB,C,1
2,prac,1,0.0,2-Back,1.0,m,Mon Jun 01 2026 14:53:22 GMT-0400 (Eastern Daylight Time),905110.0999999046,130_o_f_n_a.png,I,m,1641,4,1,2557.2000002861023,902552.8999996185,9080,NNB,C,2
3,prac,1,0.0,2-Back,1.0,z,Mon Jun 01 2026 14:53:22 GMT-0400 (Eastern Daylight Time),907193.3999996185,146_o_m_n_a.png,I,z,1300,5,1,2070.5999999046326,905122.7999997139,9080,NNB,C,3
4,prac,1,1.0,2-Back,1.0,z,Mon Jun 01 2026 14:53:22 GMT-0400 (Eastern Daylight Time),909176.6999998093,130_o_f_n_a.png,I,z,1199,6,1,1969.0,907207.6999998093,9080,NNB,C,4
5,prac,1,0.0,2-Back,1.0,m,Mon Jun 01 2026 14:53:22 GMT-0400 (Eastern Daylight Time),912010.0999999046,082_m_m_n_a.png,I,m,1930,7,1,2824.800000190735,909185.2999997139,9080,NNB,C,5
6,prac,1,0.0,2-Back,1.0,m,Mon Jun 01 2026 14:53:22 GMT-0400 (Eastern Daylight Time),914210.2999997139,059_o_m_n_a.png,I,m,1286,8,1,2191.199999809265,912019.0999999046,9080,NNB,C,6
7,prac,1,0.0,2-Back,1.0,m,Mon Jun 01 2026 14:53:22 GMT-0400 (Eastern Daylight Time),916276.5999999046,028_y_f_n_a.png,I,m,1154,9,1,2058.800000190735,914217.7999997139,9080,NNB,C,7
8,prac,1,1.0,2-Back,1.0,z,Mon Jun 01 2026 14:53:22 GMT-0400 (Eastern Daylight Time),918026.5999999046,059_o_m_n_a.png,I,z,964,10,1,1735.5,916291.0999999046,9080,NNB,C,8
9,prac,1,0.0,2-Back,1.0,m,Mon Jun 01 2026 14:53:22 GMT-0400 (Eastern Daylight Time),920026.6999998093,098_y_f_n_a.png,I,m,1097,11,1,1991.4000000953674,918035.2999997139,9080,NNB,C,9
10,prac,1,0.0,2-Back,1.0,m,Mon Jun 01 2026 14:53:22 GMT-0400 (Eastern Daylight Time),921759.8999996185,082_m_m_n_a.png,I,m,948,12,1,1725.0999999046326,920034.7999997139,9080,NNB,C,10
0,test,1,0.0,2-Back,,,Mon Jun 01 2026 14:53:22 GMT-0400 (Eastern Daylight Time),921759.8999996185,057_y_m_n_a.png,I,space,8780,1,1,1725.0999999046326,920034.7999997139,9080,NNB,C,0
0,test,1,0.0,2-Back,,,Mon Jun 01 2026 14:53:22 GMT-0400 (Eastern Daylight Time),921759.8999996185,057_y_m_n_a.png,I,space,8780,2,1,1725.0999999046326,920034.7999997139,9080,NNB,C,0
1,test,1,0.0,2-Back,1.0,m,Mon Jun 01 2026 14:53:22 GMT-0400 (Eastern Daylight Time),945493.5,130_o_f_n_a.png,I,m,668,3,1,1691.7000002861023,943801.7999997139,9080,NNB,C,1
2,test,1,0.0,2-Back,1.0,m,Mon Jun 01 2026 14:53:22 GMT-0400 (Eastern Daylight Time),947393.2999997139,092_m_m_n_a.png,I,m,872,4,1,1894.0,945499.2999997139,9080,NNB,C,2
3,test,1,1.0,2-Back,1.0,z,Mon Jun 01 2026 14:53:22 GMT-0400 (Eastern Daylight Time),949176.5999999046,130_o_f_n_a.png,I,z,749,5,1,1775.0,947401.5999999046,9080,NNB,C,3
4,test,1,0.0,2-Back,1.0,m,Mon Jun 01 2026 14:53:22 GMT-0400 (Eastern Daylight Time),951526.5999999046,098_y_f_n_a.png,I,m,1317,6,1,2343.4000000953674,949183.1999998093,9080,NNB,C,4
4,test,1,0.0,2-Back,0.0,m,Mon Jun 01 2026 14:53:22 GMT-0400 (Eastern Daylight Time),953926.5999999046,092_m_m_n_a.png,I,z,1367,7,1,2391.5,951535.0999999046,9080,NNB,C,5
5,test,1,1.0,2-Back,1.0,z,Mon Jun 01 2026 14:53:22 GMT-0400 (Eastern Daylight Time),956026.0,098_y_f_n_a.png,I,z,1078,8,1,2092.9000000953674,953933.0999999046,9080,NNB,C,6
6,test,1,0.0,2-Back,1.0,m,Mon Jun 01 2026 14:53:22 GMT-0400 (Eastern Daylight Time),957943.2999997139,031_y_m_n_a.png,I,m,867,9,1,1884.6999998092651,956058.5999999046,9080,NNB,C,7
7,test,1,0.0,2-Back,1.0,m,Mon Jun 01 2026 14:53:22 GMT-0400 (Eastern Daylight Time),959976.2999997139,030_o_f_n_a.png,I,m,1014,10,1,2025.6999998092651,957950.5999999046,9080,NNB,C,8
8,test,1,1.0,2-Back,1.0,z,Mon Jun 01 2026 14:53:22 GMT-0400 (Eastern Daylight Time),961743.2999997139,031_y_m_n_a.png,I,z,741,11,1,1762.4000000953674,959980.8999996185,9080,NNB,C,9
9,test,1,0.0,2-Back,1.0,m,Mon Jun 01 2026 14:53:22 GMT-0400 (Eastern Daylight Time),963726.5999999046,006_m_f_n_a.png,I,m,958,12,1,1976.0,961750.5999999046,9080,NNB,C,10
9,test,1,0.0,2-Back,0.0,m,Mon Jun 01 2026 14:53:22 GMT-0400 (Eastern Daylight Time),966760.1999998093,006_m_f_n_a.png,I,None,2016,13,1,3027.5,963732.6999998093,9080,NNB,C,11
10,test,1,0.0,2-Back,1.0,m,Mon Jun 01 2026 14:53:22 GMT-0400 (Eastern Daylight Time),968909.8999996185,146_o_m_n_a.png,I,m,1126,14,1,2144.199999809265,966765.6999998093,9080,NNB,C,12
11,test,1,0.0,2-Back,1.0,m,Mon Jun 01 2026 14:53:22 GMT-0400 (Eastern Daylight Time),970793.0,030_o_f_n_a.png,I,m,864,15,1,1873.1000003814697,968919.8999996185,9080,NNB,C,13
12,test,1,1.0,2-Back,1.0,z,Mon Jun 01 2026 14:53:22 GMT-0400 (Eastern Daylight Time),972459.8999996185,146_o_m_n_a.png,I,z,645,16,1,1658.1999998092651,970801.6999998093,9080,NNB,C,14
13,test,1,0.0,2-Back,1.0,m,Mon Jun 01 2026 14:53:22 GMT-0400 (Eastern Daylight Time),974326.3999996185,093_m_f_n_a.png,I,m,833,17,1,1860.0,972466.3999996185,9080,NNB,C,15
14,test,1,0.0,2-Back,1.0,m,Mon Jun 01 2026 14:53:22 GMT-0400 (Eastern Daylight Time),976460.0,082_m_m_n_a.png,I,m,1111,18,1,2128.6000003814697,974331.3999996185,9080,NNB,C,16
0,test,2,0.0,2-Back,,,Mon Jun 01 2026 14:53:22 GMT-0400 (Eastern Daylight Time),976460.0,082_m_m_n_a.png,I,space,3130,1,1,2128.6000003814697,974331.3999996185,9080,NNB,C,0
0,test,2,0.0,2-Back,,,Mon Jun 01 2026 14:53:22 GMT-0400 (Eastern Daylight Time),976460.0,028_y_f_n_a.png,I,space,3130,2,1,2128.6000003814697,974331.3999996185,9080,NNB,C,0
1,test,2,1.0,2-Back,1.0,z,Mon Jun 01 2026 14:53:22 GMT-0400 (Eastern Daylight Time),986643.1999998093,082_m_m_n_a.png,I,z,854,3,1,1880.0,984763.1999998093,9080,NNB,C,1
2,test,2,0.0,2-Back,1.0,m,Mon Jun 01 2026 14:53:22 GMT-0400 (Eastern Daylight Time),988576.5999999046,093_m_f_n_a.png,I,m,906,4,1,1926.4000000953674,986650.1999998093,9080,NNB,C,2
2,test,2,0.0,2-Back,0.0,m,Mon Jun 01 2026 14:53:22 GMT-0400 (Eastern Daylight Time),990743.2999997139,028_y_f_n_a.png,I,z,1133,5,1,2160.9000000953674,988582.3999996185,9080,NNB,C,3
3,test,2,0.0,2-Back,1.0,m,Mon Jun 01 2026 14:53:22 GMT-0400 (Eastern Daylight Time),992559.8999996185,146_o_m_n_a.png,I,m,790,6,1,1809.8999996185303,990750.0,9080,NNB,C,4
4,test,2,0.0,2-Back,1.0,m,Mon Jun 01 2026 14:53:22 GMT-0400 (Eastern Daylight Time),994560.0,098_y_f_n_a.png,I,m,974,7,1,1993.1000003814697,992566.8999996185,9080,NNB,C,5
5,test,2,1.0,2-Back,1.0,z,Mon Jun 01 2026 14:53:22 GMT-0400 (Eastern Daylight Time),996593.2999997139,146_o_m_n_a.png,I,z,1006,8,1,2026.1999998092651,994567.0999999046,9080,NNB,C,6
6,test,2,0.0,2-Back,1.0,m,Mon Jun 01 2026 14:53:22 GMT-0400 (Eastern Daylight Time),998943.0999999046,031_y_m_n_a.png,I,m,1324,9,1,2342.5,996600.5999999046,9080,NNB,C,7
7,test,2,0.0,2-Back,1.0,m,Mon Jun 01 2026 14:53:22 GMT-0400 (Eastern Daylight Time),1001176.3999996185,031_y_m_n_a.png,I,m,1214,10,1,2227.2999997138977,998949.0999999046,9080,NNB,C,8
8,test,2,0.0,2-Back,1.0,m,Mon Jun 01 2026 14:53:22 GMT-0400 (Eastern Daylight Time),1003309.8999996185,006_m_f_n_a.png,I,m,1109,11,1,2125.3999996185303,1001184.5,9080,NNB,C,9
9,test,2,0.0,2-Back,1.0,m,Mon Jun 01 2026 14:53:22 GMT-0400 (Eastern Daylight Time),1005543.5,028_y_f_n_a.png,I,m,1216,12,1,2226.4000000953674,1003317.0999999046,9080,NNB,C,10
10,test,2,1.0,2-Back,1.0,z,Mon Jun 01 2026 14:53:22 GMT-0400 (Eastern Daylight Time),1007776.6999998093,006_m_f_n_a.png,I,z,1206,13,1,2227.300000190735,1005549.3999996185,9080,NNB,C,11
11,test,2,0.0,2-Back,1.0,m,Mon Jun 01 2026 14:53:22 GMT-0400 (Eastern Daylight Time),1009643.1999998093,059_o_m_n_a.png,I,m,845,14,1,1858.3000001907349,1007784.8999996185,9080,NNB,C,12
12,test,2,0.0,2-Back,1.0,m,Mon Jun 01 2026 14:53:22 GMT-0400 (Eastern Daylight Time),1011993.0,059_o_m_n_a.png,I,m,1330,15,1,2343.5,1009649.5,9080,NNB,C,13
13,test,2,0.0,2-Back,1.0,m,Mon Jun 01 2026 14:53:22 GMT-0400 (Eastern Daylight Time),1013943.5999999046,030_o_f_n_a.png,I,m,932,16,1,1943.4000000953674,1012000.1999998093,9080,NNB,C,14
14,test,2,0.0,2-Back,1.0,m,Mon Jun 01 2026 14:53:22 GMT-0400 (Eastern Daylight Time),1016109.5999999046,092_m_m_n_a.png,I,m,1142,17,1,2157.9000000953674,1013951.6999998093,9080,NNB,C,15
15,test,2,1.0,2-Back,1.0,z,Mon Jun 01 2026 14:53:22 GMT-0400 (Eastern Daylight Time),1018043.2999997139,030_o_f_n_a.png,I,z,912,18,1,1929.7999997138977,1016113.5,9080,NNB,C,16
0,test,3,1.0,2-Back,,,Mon Jun 01 2026 14:53:22 GMT-0400 (Eastern Daylight Time),1018043.2999997139,057_y_m_n_a.png,I,space,1563,1,1,1929.7999997138977,1016113.5,9080,NNB,C,0
0,test,3,1.0,2-Back,,,Mon Jun 01 2026 14:53:22 GMT-0400 (Eastern Daylight Time),1018043.2999997139,057_y_m_n_a.png,I,space,1563,2,1,1929.7999997138977,1016113.5,9080,NNB,C,0
1,test,3,0.0,2-Back,1.0,m,Mon Jun 01 2026 14:53:22 GMT-0400 (Eastern Daylight Time),1026693.2999997139,030_o_f_n_a.png,I,m,852,3,1,1877.5,1024815.7999997139,9080,NNB,C,1
2,test,3,0.0,2-Back,1.0,m,Mon Jun 01 2026 14:53:22 GMT-0400 (Eastern Daylight Time),1028660.0999999046,082_m_m_n_a.png,I,m,937,4,1,1960.4000000953674,1026699.6999998093,9080,NNB,C,2
3,test,3,1.0,2-Back,1.0,z,Mon Jun 01 2026 14:53:22 GMT-0400 (Eastern Daylight Time),1030526.6999998093,030_o_f_n_a.png,I,z,842,5,1,1858.4000000953674,1028668.2999997139,9080,NNB,C,3
4,test,3,0.0,2-Back,1.0,m,Mon Jun 01 2026 14:53:22 GMT-0400 (Eastern Daylight Time),1032559.6999998093,031_y_m_n_a.png,I,m,1006,6,1,2026.4000000953674,1030533.2999997139,9080,NNB,C,4
4,test,3,0.0,2-Back,0.0,m,Mon Jun 01 2026 14:53:22 GMT-0400 (Eastern Daylight Time),1035226.5999999046,082_m_m_n_a.png,I,z,1646,7,1,2663.300000190735,1032563.2999997139,9080,NNB,C,5
4,test,3,1.0,2-Back,0.0,z,Mon Jun 01 2026 14:53:22 GMT-0400 (Eastern Daylight Time),1037760.0999999046,031_y_m_n_a.png,I,m,1508,8,1,2527.7000002861023,1035232.3999996185,9080,NNB,C,6
5,test,3,0.0,2-Back,1.0,m,Mon Jun 01 2026 14:53:22 GMT-0400 (Eastern Daylight Time),1040576.5999999046,028_y_f_n_a.png,I,m,1790,9,1,2808.0,1037768.5999999046,9080,NNB,C,7
6,test,3,0.0,2-Back,1.0,m,Mon Jun 01 2026 14:53:22 GMT-0400 (Eastern Daylight Time),1042726.6999998093,092_m_m_n_a.png,I,m,1117,10,1,2144.9000000953674,1040581.7999997139,9080,NNB,C,8
7,test,3,1.0,2-Back,1.0,z,Mon Jun 01 2026 14:53:22 GMT-0400 (Eastern Daylight Time),1045276.6999998093,028_y_f_n_a.png,I,z,1527,11,1,2541.300000190735,1042735.3999996185,9080,NNB,C,9
8,test,3,1.0,2-Back,1.0,z,Mon Jun 01 2026 14:53:22 GMT-0400 (Eastern Daylight Time),1047343.2999997139,092_m_m_n_a.png,I,z,1041,12,1,2060.2999997138977,1045283.0,9080,NNB,C,10
9,test,3,0.0,2-Back,1.0,m,Mon Jun 01 2026 14:53:22 GMT-0400 (Eastern Daylight Time),1049326.799999714,030_o_f_n_a.png,I,m,958,13,1,1976.7999997138977,1047350.0,9080,NNB,C,11
10,test,3,0.0,2-Back,1.0,m,Mon Jun 01 2026 14:53:22 GMT-0400 (Eastern Daylight Time),1051293.299999714,093_m_f_n_a.png,I,m,943,14,1,1959.5999999046326,1049333.6999998093,9080,NNB,C,12
11,test,3,0.0,2-Back,1.0,m,Mon Jun 01 2026 14:53:22 GMT-0400 (Eastern Daylight Time),1053526.5,146_o_m_n_a.png,I,m,1201,15,1,2226.800000190735,1051299.6999998093,9080,NNB,C,13
11,test,3,1.0,2-Back,0.0,z,Mon Jun 01 2026 14:53:22 GMT-0400 (Eastern Daylight Time),1055460.0,093_m_f_n_a.png,I,m,903,16,1,1926.8000001907349,1053533.1999998093,9080,NNB,C,14
12,test,3,0.0,2-Back,1.0,m,Mon Jun 01 2026 14:53:22 GMT-0400 (Eastern Daylight Time),1057393.3999996185,130_o_f_n_a.png,I,m,906,17,1,1924.7999997138977,1055468.5999999046,9080,NNB,C,15
13,test,3,0.0,2-Back,1.0,m,Mon Jun 01 2026 14:53:22 GMT-0400 (Eastern Daylight Time),1059759.8999996185,130_o_f_n_a.png,I,m,1289,18,1,2360.3999996185303,1057399.5,9080,NNB,C,16
0,test,4,0.0,2-Back,,,Mon Jun 01 2026 14:53:22 GMT-0400 (Eastern Daylight Time),1059759.8999996185,059_o_m_n_a.png,I,space,1446,1,1,2360.3999996185303,1057399.5,9080,NNB,C,0
0,test,4,0.0,2-Back,,,Mon Jun 01 2026 14:53:22 GMT-0400 (Eastern Daylight Time),1059759.8999996185,098_y_f_n_a.png,I,space,1446,2,1,2360.3999996185303,1057399.5,9080,NNB,C,0
1,test,4,1.0,2-Back,1.0,z,Mon Jun 01 2026 14:53:22 GMT-0400 (Eastern Daylight Time),1068409.8999996185,059_o_m_n_a.png,I,z,830,3,1,1844.5,1066565.3999996185,9080,NNB,C,1
1,test,4,1.0,2-Back,0.0,z,Mon Jun 01 2026 14:53:22 GMT-0400 (Eastern Daylight Time),1070243.5,098_y_f_n_a.png,I,m,805,4,1,1825.4000000953674,1068418.0999999046,9080,NNB,C,2
2,test,4,0.0,2-Back,1.0,m,Mon Jun 01 2026 14:53:22 GMT-0400 (Eastern Daylight Time),1073159.6999998093,030_o_f_n_a.png,I,m,1890,5,1,2909.300000190735,1070250.3999996185,9080,NNB,C,3
3,test,4,0.0,2-Back,1.0,m,Mon Jun 01 2026 14:53:22 GMT-0400 (Eastern Daylight Time),1075493.3999996185,030_o_f_n_a.png,I,m,1302,6,1,2326.5999999046326,1073166.799999714,9080,NNB,C,4
4,test,4,0.0,2-Back,1.0,m,Mon Jun 01 2026 14:53:22 GMT-0400 (Eastern Daylight Time),1078193.5,006_m_f_n_a.png,I,m,1674,7,1,2693.9000000953674,1075499.5999999046,9080,NNB,C,5
5,test,4,0.0,2-Back,1.0,m,Mon Jun 01 2026 14:53:22 GMT-0400 (Eastern Daylight Time),1080110.0,031_y_m_n_a.png,I,m,892,8,1,1909.7000002861023,1078200.299999714,9080,NNB,C,6
6,test,4,1.0,2-Back,1.0,z,Mon Jun 01 2026 14:53:22 GMT-0400 (Eastern Daylight Time),1082210.0,006_m_f_n_a.png,I,z,1072,9,1,2093.9000000953674,1080116.0999999046,9080,NNB,C,7
7,test,4,0.0,2-Back,1.0,m,Mon Jun 01 2026 14:53:22 GMT-0400 (Eastern Daylight Time),1084110.0,092_m_m_n_a.png,I,m,876,10,1,1891.5,1082218.5,9080,NNB,C,8
7,test,4,0.0,2-Back,0.0,m,Mon Jun 01 2026 14:53:22 GMT-0400 (Eastern Daylight Time),1086409.8999996185,031_y_m_n_a.png,I,z,1279,11,1,2291.3999996185303,1084118.5,9080,NNB,C,9
8,test,4,0.0,2-Back,1.0,m,Mon Jun 01 2026 14:53:22 GMT-0400 (Eastern Daylight Time),1088826.5999999046,130_o_f_n_a.png,I,m,1395,12,1,2407.9000000953674,1086418.6999998093,9080,NNB,C,10
8,test,4,0.0,2-Back,0.0,m,Mon Jun 01 2026 14:53:22 GMT-0400 (Eastern Daylight Time),1090976.6999998093,057_y_m_n_a.png,I,z,1123,13,1,2142.5999999046326,1088834.0999999046,9080,NNB,C,11
8,test,4,1.0,2-Back,0.0,z,Mon Jun 01 2026 14:53:22 GMT-0400 (Eastern Daylight Time),1093143.3999996185,130_o_f_n_a.png,I,m,1134,14,1,2160.199999809265,1090983.1999998093,9080,NNB,C,12
9,test,4,1.0,2-Back,1.0,z,Mon Jun 01 2026 14:53:22 GMT-0400 (Eastern Daylight Time),1096143.299999714,057_y_m_n_a.png,I,z,1974,15,1,2993.699999809265,1093149.5999999046,9080,NNB,C,13
10,test,4,0.0,2-Back,1.0,m,Mon Jun 01 2026 14:53:22 GMT-0400 (Eastern Daylight Time),1098693.299999714,082_m_m_n_a.png,I,m,1518,16,1,2543.5,1096149.799999714,9080,NNB,C,14
11,test,4,0.0,2-Back,1.0,m,Mon Jun 01 2026 14:53:22 GMT-0400 (Eastern Daylight Time),1100793.0999999046,093_m_f_n_a.png,I,m,1080,17,1,2092.5,1098700.5999999046,9080,NNB,C,15
12,test,4,1.0,2-Back,1.0,z,Mon Jun 01 2026 14:53:22 GMT-0400 (Eastern Daylight Time),1102976.6999998093,082_m_m_n_a.png,I,z,1156,18,1,2175.5999999046326,1100801.0999999046,9080,NNB,C,16
0,test,5,1.0,2-Back,,,Mon Jun 01 2026 14:53:22 GMT-0400 (Eastern Daylight Time),1102976.6999998093,057_y_m_n_a.png,I,space,1461,1,1,2175.5999999046326,1100801.0999999046,9080,NNB,C,0
0,test,5,1.0,2-Back,,,Mon Jun 01 2026 14:53:22 GMT-0400 (Eastern Daylight Time),1102976.6999998093,093_m_f_n_a.png,I,space,1461,2,1,2175.5999999046326,1100801.0999999046,9080,NNB,C,0
0,test,5,1.0,2-Back,0.0,z,Mon Jun 01 2026 14:53:22 GMT-0400 (Eastern Daylight Time),1112193.299999714,057_y_m_n_a.png,I,m,1672,3,1,2693.2999997138977,1109500.0,9080,NNB,C,1
1,test,5,1.0,2-Back,1.0,z,Mon Jun 01 2026 14:53:22 GMT-0400 (Eastern Daylight Time),1114326.6999998093,093_m_f_n_a.png,I,z,1100,4,1,2125.0999999046326,1112201.5999999046,9080,NNB,C,2
2,test,5,0.0,2-Back,1.0,m,Mon Jun 01 2026 14:53:22 GMT-0400 (Eastern Daylight Time),1116343.3999996185,130_o_f_n_a.png,I,m,984,5,1,2009.6999998092651,1114333.6999998093,9080,NNB,C,3
3,test,5,0.0,2-Back,1.0,m,Mon Jun 01 2026 14:53:22 GMT-0400 (Eastern Daylight Time),1118860.0,057_y_m_n_a.png,I,m,1495,6,1,2508.0,1116352.0,9080,NNB,C,4
3,test,5,0.0,2-Back,0.0,m,Mon Jun 01 2026 14:53:22 GMT-0400 (Eastern Daylight Time),1121893.5999999046,028_y_f_n_a.png,I,None,2016,7,1,3024.0999999046326,1118869.5,9080,NNB,C,5
4,test,5,0.0,2-Back,1.0,m,Mon Jun 01 2026 14:53:22 GMT-0400 (Eastern Daylight Time),1123326.3999996185,130_o_f_n_a.png,I,m,319,8,1,1421.8999996185303,1121904.5,9080,NNB,C,6
5,test,5,1.0,2-Back,1.0,z,Mon Jun 01 2026 14:53:22 GMT-0400 (Eastern Daylight Time),1125893.1999998093,028_y_f_n_a.png,I,z,1289,9,1,2564.0999999046326,1123329.0999999046,9080,NNB,C,7
6,test,5,0.0,2-Back,1.0,m,Mon Jun 01 2026 14:53:22 GMT-0400 (Eastern Daylight Time),1128009.799999714,146_o_m_n_a.png,I,m,1097,10,1,2110.699999809265,1125899.0999999046,9080,NNB,C,8
7,test,5,0.0,2-Back,1.0,m,Mon Jun 01 2026 14:53:22 GMT-0400 (Eastern Daylight Time),1130460.0,006_m_f_n_a.png,I,m,1428,11,1,2443.4000000953674,1128016.5999999046,9080,NNB,C,9
8,test,5,0.0,2-Back,1.0,m,Mon Jun 01 2026 14:53:22 GMT-0400 (Eastern Daylight Time),1132443.3999996185,092_m_m_n_a.png,I,m,962,12,1,1977.3999996185303,1130466.0,9080,NNB,C,10
8,test,5,0.0,2-Back,0.0,m,Mon Jun 01 2026 14:53:22 GMT-0400 (Eastern Daylight Time),1134476.6999998093,146_o_m_n_a.png,I,z,1010,13,1,2027.0,1132449.6999998093,9080,NNB,C,11
8,test,5,1.0,2-Back,0.0,z,Mon Jun 01 2026 14:53:22 GMT-0400 (Eastern Daylight Time),1136710.0,092_m_m_n_a.png,I,m,1201,14,1,2224.6000003814697,1134485.3999996185,9080,NNB,C,12
9,test,5,0.0,2-Back,1.0,m,Mon Jun 01 2026 14:53:22 GMT-0400 (Eastern Daylight Time),1138993.3999996185,098_y_f_n_a.png,I,m,1256,15,1,2276.3999996185303,1136717.0,9080,NNB,C,13
10,test,5,0.0,2-Back,1.0,m,Mon Jun 01 2026 14:53:22 GMT-0400 (Eastern Daylight Time),1140894.0,059_o_m_n_a.png,I,m,875,16,1,1892.0,1139002.0,9080,NNB,C,14
11,test,5,0.0,2-Back,1.0,m,Mon Jun 01 2026 14:53:22 GMT-0400 (Eastern Daylight Time),1142860.0,006_m_f_n_a.png,I,m,944,17,1,1960.5,1140899.5,9080,NNB,C,15
12,test,5,1.0,2-Back,1.0,z,Mon Jun 01 2026 14:53:22 GMT-0400 (Eastern Daylight Time),1145310.0,059_o_m_n_a.png,I,z,1426,18,1,2442.0,1142868.0,9080,NNB,C,16
