block_c,block_dur,condition,countdown,datetime,endtime,list,multichar_response,project,response,response_time,session_number,start_end,starttime,subject_id,task,task_vers,trial
,,,,Wed Feb 11 2026 15:52:18 GMT-0600 (Central Standard Time),,,,O,space,395,1,,,7742,WL,B,
prac,,0,,Wed Feb 11 2026 15:52:18 GMT-0600 (Central Standard Time),,NA,b,O,b,10428,1,,,7742,WL,B,1.0
prac,,0,,Wed Feb 11 2026 15:52:18 GMT-0600 (Central Standard Time),,NA,bo,O,o,319,1,,,7742,WL,B,1.0
prac,,0,,Wed Feb 11 2026 15:52:18 GMT-0600 (Central Standard Time),,NA,boo,O,o,96,1,,,7742,WL,B,1.0
prac,,0,,Wed Feb 11 2026 15:52:18 GMT-0600 (Central Standard Time),,NA,boos,O,s,325,1,,,7742,WL,B,1.0
prac,,0,,Wed Feb 11 2026 15:52:18 GMT-0600 (Central Standard Time),,NA,boost,O,t,477,1,,,7742,WL,B,1.0
prac,,0,,Wed Feb 11 2026 15:52:18 GMT-0600 (Central Standard Time),,NA,boostenter,O,enter,5930,1,,,7742,WL,B,1.0
1,2.182000160217285,learn,57817.999839782715,Wed Feb 11 2026 15:52:18 GMT-0600 (Central Standard Time),215738.10000000894,A,s,O,s,2159,1,2182.5,213555.60000000894,7742,WL,B,1.0
1,2.631999969482422,learn,57368.00003051758,Wed Feb 11 2026 15:52:18 GMT-0600 (Central Standard Time),216187.70000000298,A,st,O,t,427,1,2632.0999999940395,213555.60000000894,7742,WL,B,1.0
1,2.7820000648498535,learn,57217.99993515015,Wed Feb 11 2026 15:52:18 GMT-0600 (Central Standard Time),216337.70000000298,A,sta,O,a,136,1,2782.0999999940395,213555.60000000894,7742,WL,B,1.0
1,3.267000198364258,learn,56732.99980163574,Wed Feb 11 2026 15:52:18 GMT-0600 (Central Standard Time),216822.0,A,star,O,r,467,1,3266.3999999910593,213555.60000000894,7742,WL,B,1.0
1,7.680999994277954,learn,52319.000005722046,Wed Feb 11 2026 15:52:18 GMT-0600 (Central Standard Time),221236.29999999702,A,starenter,O,enter,4407,1,7680.699999988079,213555.60000000894,7742,WL,B,1.0
1,10.680000066757202,learn,49319.9999332428,Wed Feb 11 2026 15:52:18 GMT-0600 (Central Standard Time),224235.29999999702,A,c,O,c,2985,1,2998.699999988079,221236.60000000894,7742,WL,B,2.0
1,10.930000066757202,learn,49069.9999332428,Wed Feb 11 2026 15:52:18 GMT-0600 (Central Standard Time),224485.60000000894,A,ca,O,a,233,1,3249.0,221236.60000000894,7742,WL,B,2.0
1,11.265000104904175,learn,48734.999895095825,Wed Feb 11 2026 15:52:18 GMT-0600 (Central Standard Time),224820.20000000298,A,cab,O,b,309,1,3583.5999999940395,221236.60000000894,7742,WL,B,2.0
1,11.396000146865845,learn,48603.999853134155,Wed Feb 11 2026 15:52:18 GMT-0600 (Central Standard Time),224951.60000000894,A,cabi,O,i,119,1,3715.0,221236.60000000894,7742,WL,B,2.0
1,11.546000003814697,learn,48453.9999961853,Wed Feb 11 2026 15:52:18 GMT-0600 (Central Standard Time),225101.29999999702,A,cabin,O,n,130,1,3864.699999988079,221236.60000000894,7742,WL,B,2.0
1,12.66100001335144,learn,47338.99998664856,Wed Feb 11 2026 15:52:18 GMT-0600 (Central Standard Time),226216.79999999702,A,cabinenter,O,enter,1103,1,4980.199999988079,221236.60000000894,7742,WL,B,2.0
1,13.662000179290771,learn,46337.99982070923,Wed Feb 11 2026 15:52:18 GMT-0600 (Central Standard Time),227217.60000000894,A,s,O,s,990,1,1000.4000000059605,226217.20000000298,7742,WL,B,3.0
1,14.01200008392334,learn,45987.99991607666,Wed Feb 11 2026 15:52:18 GMT-0600 (Central Standard Time),227567.40000000596,A,st,O,t,330,1,1350.2000000029802,226217.20000000298,7742,WL,B,3.0
1,14.297000169754028,learn,45702.99983024597,Wed Feb 11 2026 15:52:18 GMT-0600 (Central Standard Time),227853.0,A,str,O,r,277,1,1635.7999999970198,226217.20000000298,7742,WL,B,3.0
1,14.57800006866455,learn,45421.99993133545,Wed Feb 11 2026 15:52:18 GMT-0600 (Central Standard Time),228133.70000000298,A,stre,O,e,265,1,1916.5,226217.20000000298,7742,WL,B,3.0
1,14.712000131607056,learn,45287.999868392944,Wed Feb 11 2026 15:52:18 GMT-0600 (Central Standard Time),228267.20000000298,A,stree,O,e,116,1,2050.0,226217.20000000298,7742,WL,B,3.0
1,15.412000179290771,learn,44587.99982070923,Wed Feb 11 2026 15:52:18 GMT-0600 (Central Standard Time),228967.79999999702,A,street,O,t,682,1,2750.5999999940395,226217.20000000298,7742,WL,B,3.0
1,15.844000101089478,learn,44155.99989891052,Wed Feb 11 2026 15:52:18 GMT-0600 (Central Standard Time),229400.0,A,streetenter,O,enter,421,1,3182.7999999970198,226217.20000000298,7742,WL,B,3.0
1,16.213000059127808,learn,43786.99994087219,Wed Feb 11 2026 15:52:18 GMT-0600 (Central Standard Time),229768.0,A,g,O,g,357,1,367.70000000298023,229400.29999999702,7742,WL,B,4.0
1,16.478000164031982,learn,43521.99983596802,Wed Feb 11 2026 15:52:18 GMT-0600 (Central Standard Time),230033.20000000298,A,gr,O,r,251,1,632.9000000059605,229400.29999999702,7742,WL,B,4.0
1,16.728000164031982,learn,43271.99983596802,Wed Feb 11 2026 15:52:18 GMT-0600 (Central Standard Time),230283.5,A,gra,O,a,227,1,883.2000000029802,229400.29999999702,7742,WL,B,4.0
1,17.044000148773193,learn,42955.99985122681,Wed Feb 11 2026 15:52:18 GMT-0600 (Central Standard Time),230599.29999999702,A,gras,O,s,298,1,1199.0,229400.29999999702,7742,WL,B,4.0
1,17.177000045776367,learn,42822.99995422363,Wed Feb 11 2026 15:52:18 GMT-0600 (Central Standard Time),230732.90000000596,A,grass,O,s,126,1,1332.6000000089407,229400.29999999702,7742,WL,B,4.0
1,17.74400019645691,learn,42255.99980354309,Wed Feb 11 2026 15:52:18 GMT-0600 (Central Standard Time),231299.5,A,grassenter,O,enter,545,1,1899.2000000029802,229400.29999999702,7742,WL,B,4.0
1,19.528000116348267,learn,40471.99988365173,Wed Feb 11 2026 15:52:18 GMT-0600 (Central Standard Time),233084.0,A,w,O,w,1772,1,1784.2000000029802,231299.79999999702,7742,WL,B,5.0
1,19.795000076293945,learn,40204.999923706055,Wed Feb 11 2026 15:52:18 GMT-0600 (Central Standard Time),233350.0,A,wi,O,i,249,1,2050.2000000029802,231299.79999999702,7742,WL,B,5.0
1,20.127000093460083,learn,39872.99990653992,Wed Feb 11 2026 15:52:18 GMT-0600 (Central Standard Time),233682.70000000298,A,wif,O,f,309,1,2382.9000000059605,231299.79999999702,7742,WL,B,5.0
1,20.344000101089478,learn,39655.99989891052,Wed Feb 11 2026 15:52:18 GMT-0600 (Central Standard Time),233899.10000000894,A,wife,O,e,198,1,2599.300000011921,231299.79999999702,7742,WL,B,5.0
1,20.993000030517578,learn,39006.99996948242,Wed Feb 11 2026 15:52:18 GMT-0600 (Central Standard Time),234548.90000000596,A,wifeenter,O,enter,632,1,3249.1000000089407,231299.79999999702,7742,WL,B,5.0
1,22.39400005340576,learn,37605.99994659424,Wed Feb 11 2026 15:52:18 GMT-0600 (Central Standard Time),235949.79999999702,A,s,O,s,1392,1,1400.699999988079,234549.10000000894,7742,WL,B,6.0
1,22.70900011062622,learn,37290.99988937378,Wed Feb 11 2026 15:52:18 GMT-0600 (Central Standard Time),236264.60000000894,A,st,O,t,295,1,1715.5,234549.10000000894,7742,WL,B,6.0
1,22.963000059127808,learn,37036.99994087219,Wed Feb 11 2026 15:52:18 GMT-0600 (Central Standard Time),236518.10000000894,A,str,O,r,236,1,1969.0,234549.10000000894,7742,WL,B,6.0
1,23.24400019645691,learn,36755.99980354309,Wed Feb 11 2026 15:52:18 GMT-0600 (Central Standard Time),236799.20000000298,A,stre,O,e,264,1,2250.0999999940395,234549.10000000894,7742,WL,B,6.0
1,23.39300012588501,learn,36606.99987411499,Wed Feb 11 2026 15:52:18 GMT-0600 (Central Standard Time),236948.29999999702,A,stree,O,e,135,1,2399.199999988079,234549.10000000894,7742,WL,B,6.0
1,23.62600016593933,learn,36373.99983406067,Wed Feb 11 2026 15:52:18 GMT-0600 (Central Standard Time),237181.60000000894,A,street,O,t,228,1,2632.5,234549.10000000894,7742,WL,B,6.0
1,24.290000200271606,learn,35709.99979972839,Wed Feb 11 2026 15:52:18 GMT-0600 (Central Standard Time),237846.10000000894,A,streetenter,O,enter,657,1,3297.0,234549.10000000894,7742,WL,B,6.0
1,26.475000143051147,learn,33524.99985694885,Wed Feb 11 2026 15:52:18 GMT-0600 (Central Standard Time),240030.70000000298,A,l,O,l,2169,1,2184.2000000029802,237846.5,7742,WL,B,7.0
1,26.641000032424927,learn,33358.99996757507,Wed Feb 11 2026 15:52:18 GMT-0600 (Central Standard Time),240196.70000000298,A,la,O,a,160,1,2350.2000000029802,237846.5,7742,WL,B,7.0
1,26.907999992370605,learn,33092.000007629395,Wed Feb 11 2026 15:52:18 GMT-0600 (Central Standard Time),240463.60000000894,A,lak,O,k,246,1,2617.1000000089407,237846.5,7742,WL,B,7.0
1,27.026000022888184,learn,32973.99997711182,Wed Feb 11 2026 15:52:18 GMT-0600 (Central Standard Time),240581.5,A,lake,O,e,111,1,2735.0,237846.5,7742,WL,B,7.0
1,27.73900008201599,learn,32260.99991798401,Wed Feb 11 2026 15:52:18 GMT-0600 (Central Standard Time),241295.20000000298,A,lakeenter,O,enter,696,1,3448.7000000029802,237846.5,7742,WL,B,7.0
1,46.76800012588501,learn,13231.99987411499,Wed Feb 11 2026 15:52:18 GMT-0600 (Central Standard Time),260324.10000000894,A,d,O,d,19015,1,19028.60000000894,241295.5,7742,WL,B,8.0
1,47.16900014877319,learn,12830.999851226807,Wed Feb 11 2026 15:52:18 GMT-0600 (Central Standard Time),260725.29999999702,A,do,O,o,395,1,19429.79999999702,241295.5,7742,WL,B,8.0
1,47.318000078201294,learn,12681.999921798706,Wed Feb 11 2026 15:52:18 GMT-0600 (Central Standard Time),260874.29999999702,A,doo,O,o,136,1,19578.79999999702,241295.5,7742,WL,B,8.0
1,47.450000047683716,learn,12549.999952316284,Wed Feb 11 2026 15:52:18 GMT-0600 (Central Standard Time),261005.90000000596,A,door,O,r,124,1,19710.40000000596,241295.5,7742,WL,B,8.0
1,48.18500018119812,learn,11814.99981880188,Wed Feb 11 2026 15:52:18 GMT-0600 (Central Standard Time),261740.60000000894,A,doorenter,O,enter,713,1,20445.10000000894,241295.5,7742,WL,B,8.0
1,48.51800012588501,learn,11481.99987411499,Wed Feb 11 2026 15:52:18 GMT-0600 (Central Standard Time),262074.20000000298,A,w,O,w,313,1,333.29999999701977,261740.90000000596,7742,WL,B,9.0
1,48.700000047683716,learn,11299.999952316284,Wed Feb 11 2026 15:52:18 GMT-0600 (Central Standard Time),262256.200000003,A,wi,O,i,171,1,515.2999999970198,261740.90000000596,7742,WL,B,9.0
1,48.902000188827515,learn,11097.999811172485,Wed Feb 11 2026 15:52:18 GMT-0600 (Central Standard Time),262457.5,A,win,O,n,182,1,716.5999999940395,261740.90000000596,7742,WL,B,9.0
1,49.08400011062622,learn,10915.99988937378,Wed Feb 11 2026 15:52:18 GMT-0600 (Central Standard Time),262640.40000000596,A,wind,O,d,164,1,899.5,261740.90000000596,7742,WL,B,9.0
1,49.16700005531311,learn,10832.99994468689,Wed Feb 11 2026 15:52:18 GMT-0600 (Central Standard Time),262722.90000000596,A,windo,O,o,69,1,982.0,261740.90000000596,7742,WL,B,9.0
1,49.66700005531311,learn,10332.99994468689,Wed Feb 11 2026 15:52:18 GMT-0600 (Central Standard Time),263222.799999997,A,window,O,w,491,1,1481.8999999910593,261740.90000000596,7742,WL,B,9.0
1,50.182000160217285,learn,9817.999839782715,Wed Feb 11 2026 15:52:18 GMT-0600 (Central Standard Time),263738.200000003,A,windowenter,O,enter,504,1,1997.2999999970198,261740.90000000596,7742,WL,B,9.0
1,59.56400012969971,learn,435.99987030029297,Wed Feb 11 2026 15:52:18 GMT-0600 (Central Standard Time),273120.299999997,A,p,O,p,9373,1,9381.79999999702,263738.5,7742,WL,B,10.0
1,59.83300018310547,learn,166.99981689453125,Wed Feb 11 2026 15:52:18 GMT-0600 (Central Standard Time),273388.60000000894,A,pu,O,u,263,1,9650.10000000894,263738.5,7742,WL,B,10.0
1,60.01400017738342,learn,-14.000177383422852,Wed Feb 11 2026 15:52:18 GMT-0600 (Central Standard Time),273569.40000000596,A,puNone,O,None,174,1,9830.90000000596,263738.5,7742,WL,B,10.0
2,1.0,learn,59000.0,Wed Feb 11 2026 15:52:18 GMT-0600 (Central Standard Time),348345.60000000894,A,s,O,s,980,1,999.6000000089407,347346.0,7742,WL,B,1.0
2,1.4010000228881836,learn,58598.99997711182,Wed Feb 11 2026 15:52:18 GMT-0600 (Central Standard Time),348746.60000000894,A,st,O,t,389,1,1400.6000000089407,347346.0,7742,WL,B,1.0
2,1.684000015258789,learn,58315.99998474121,Wed Feb 11 2026 15:52:18 GMT-0600 (Central Standard Time),349029.60000000894,A,str,O,r,277,1,1683.6000000089407,347346.0,7742,WL,B,1.0
2,1.9830000400543213,learn,58016.99995994568,Wed Feb 11 2026 15:52:18 GMT-0600 (Central Standard Time),349328.5,A,stre,O,e,293,1,1982.5,347346.0,7742,WL,B,1.0
2,2.118000030517578,learn,57881.99996948242,Wed Feb 11 2026 15:52:18 GMT-0600 (Central Standard Time),349463.0,A,stree,O,e,127,1,2117.0,347346.0,7742,WL,B,1.0
2,2.367000102996826,learn,57632.999897003174,Wed Feb 11 2026 15:52:18 GMT-0600 (Central Standard Time),349712.700000003,A,street,O,t,237,1,2366.7000000029802,347346.0,7742,WL,B,1.0
2,3.5820000171661377,learn,56417.99998283386,Wed Feb 11 2026 15:52:18 GMT-0600 (Central Standard Time),350927.40000000596,A,streetenter,O,enter,1202,1,3581.4000000059605,347346.0,7742,WL,B,1.0
2,4.348999977111816,learn,55651.00002288818,Wed Feb 11 2026 15:52:18 GMT-0600 (Central Standard Time),351694.5,A,g,O,g,759,1,766.7999999970198,350927.700000003,7742,WL,B,2.0
2,4.631999969482422,learn,55368.00003051758,Wed Feb 11 2026 15:52:18 GMT-0600 (Central Standard Time),351977.60000000894,A,gr,O,r,271,1,1049.9000000059605,350927.700000003,7742,WL,B,2.0
2,4.91700005531311,learn,55082.99994468689,Wed Feb 11 2026 15:52:18 GMT-0600 (Central Standard Time),352262.5,A,gra,O,a,276,1,1334.7999999970198,350927.700000003,7742,WL,B,2.0
2,5.235000133514404,learn,54764.999866485596,Wed Feb 11 2026 15:52:18 GMT-0600 (Central Standard Time),352580.200000003,A,gras,O,s,310,1,1652.5,350927.700000003,7742,WL,B,2.0
2,5.365000009536743,learn,54634.99999046326,Wed Feb 11 2026 15:52:18 GMT-0600 (Central Standard Time),352710.200000003,A,grass,O,s,122,1,1782.5,350927.700000003,7742,WL,B,2.0
2,5.916000127792358,learn,54083.99987220764,Wed Feb 11 2026 15:52:18 GMT-0600 (Central Standard Time),353261.200000003,A,grassenter,O,enter,536,1,2333.5,350927.700000003,7742,WL,B,2.0
2,10.065999984741211,learn,49934.00001525879,Wed Feb 11 2026 15:52:18 GMT-0600 (Central Standard Time),357411.700000003,A,s,O,s,4146,1,4150.29999999702,353261.40000000596,7742,WL,B,3.0
2,10.430000066757202,learn,49569.9999332428,Wed Feb 11 2026 15:52:18 GMT-0600 (Central Standard Time),357775.5,A,st,O,t,344,1,4514.0999999940395,353261.40000000596,7742,WL,B,3.0
2,10.647000074386597,learn,49352.9999256134,Wed Feb 11 2026 15:52:18 GMT-0600 (Central Standard Time),357992.90000000596,A,sta,O,a,200,1,4731.5,353261.40000000596,7742,WL,B,3.0
2,11.246999979019165,learn,48753.000020980835,Wed Feb 11 2026 15:52:18 GMT-0600 (Central Standard Time),358592.90000000596,A,star,O,r,583,1,5331.5,353261.40000000596,7742,WL,B,3.0
2,11.763000011444092,learn,48236.99998855591,Wed Feb 11 2026 15:52:18 GMT-0600 (Central Standard Time),359109.0,A,starenter,O,enter,500,1,5847.5999999940395,353261.40000000596,7742,WL,B,3.0
2,15.462000131607056,learn,44537.999868392944,Wed Feb 11 2026 15:52:18 GMT-0600 (Central Standard Time),362807.90000000596,A,w,O,w,3681,1,3698.6000000089407,359109.299999997,7742,WL,B,4.0
2,15.611999988555908,learn,44388.00001144409,Wed Feb 11 2026 15:52:18 GMT-0600 (Central Standard Time),362958.0,A,wi,O,i,135,1,3848.7000000029802,359109.299999997,7742,WL,B,4.0
2,15.844000101089478,learn,44155.99989891052,Wed Feb 11 2026 15:52:18 GMT-0600 (Central Standard Time),363190.10000000894,A,win,O,n,216,1,4080.800000011921,359109.299999997,7742,WL,B,4.0
2,16.111999988555908,learn,43888.00001144409,Wed Feb 11 2026 15:52:18 GMT-0600 (Central Standard Time),363457.40000000596,A,wind,O,d,250,1,4348.100000008941,359109.299999997,7742,WL,B,4.0
2,16.212000131607056,learn,43787.999868392944,Wed Feb 11 2026 15:52:18 GMT-0600 (Central Standard Time),363557.299999997,A,windo,O,o,93,1,4448.0,359109.299999997,7742,WL,B,4.0
2,16.444999933242798,learn,43555.0000667572,Wed Feb 11 2026 15:52:18 GMT-0600 (Central Standard Time),363790.90000000596,A,window,O,w,224,1,4681.600000008941,359109.299999997,7742,WL,B,4.0
2,17.111999988555908,learn,42888.00001144409,Wed Feb 11 2026 15:52:18 GMT-0600 (Central Standard Time),364457.5,A,windowenter,O,enter,647,1,5348.20000000298,359109.299999997,7742,WL,B,4.0
2,19.478000164031982,learn,40521.99983596802,Wed Feb 11 2026 15:52:18 GMT-0600 (Central Standard Time),366823.299999997,A,w,O,w,2350,1,2365.5999999940395,364457.700000003,7742,WL,B,5.0
2,19.710999965667725,learn,40289.000034332275,Wed Feb 11 2026 15:52:18 GMT-0600 (Central Standard Time),367056.40000000596,A,wi,O,i,213,1,2598.7000000029802,364457.700000003,7742,WL,B,5.0
2,19.927000045776367,learn,40072.99995422363,Wed Feb 11 2026 15:52:18 GMT-0600 (Central Standard Time),367273.0,A,wif,O,f,197,1,2815.2999999970198,364457.700000003,7742,WL,B,5.0
2,20.094000101089478,learn,39905.99989891052,Wed Feb 11 2026 15:52:18 GMT-0600 (Central Standard Time),367439.40000000596,A,wife,O,e,156,1,2981.7000000029802,364457.700000003,7742,WL,B,5.0
2,20.646000146865845,learn,39353.999853134155,Wed Feb 11 2026 15:52:18 GMT-0600 (Central Standard Time),367991.700000003,A,wifeenter,O,enter,537,1,3534.0,364457.700000003,7742,WL,B,5.0
2,21.676000118255615,learn,38323.999881744385,Wed Feb 11 2026 15:52:18 GMT-0600 (Central Standard Time),369022.10000000894,A,p,O,p,1023,1,1030.0,367992.10000000894,7742,WL,B,6.0
2,21.993000030517578,learn,38006.99996948242,Wed Feb 11 2026 15:52:18 GMT-0600 (Central Standard Time),369338.90000000596,A,pu,O,u,303,1,1346.7999999970198,367992.10000000894,7742,WL,B,6.0
2,22.360000133514404,learn,37639.999866485596,Wed Feb 11 2026 15:52:18 GMT-0600 (Central Standard Time),369705.200000003,A,pup,O,p,354,1,1713.0999999940395,367992.10000000894,7742,WL,B,6.0
2,22.677000045776367,learn,37322.99995422363,Wed Feb 11 2026 15:52:18 GMT-0600 (Central Standard Time),370022.299999997,A,pupi,O,i,308,1,2030.199999988079,367992.10000000894,7742,WL,B,6.0
2,23.061000108718872,learn,36938.99989128113,Wed Feb 11 2026 15:52:18 GMT-0600 (Central Standard Time),370406.200000003,A,pupil,O,l,379,1,2414.0999999940395,367992.10000000894,7742,WL,B,6.0
2,23.676000118255615,learn,36323.999881744385,Wed Feb 11 2026 15:52:18 GMT-0600 (Central Standard Time),371021.40000000596,A,pupilenter,O,enter,607,1,3029.2999999970198,367992.10000000894,7742,WL,B,6.0
2,24.792999982833862,learn,35207.00001716614,Wed Feb 11 2026 15:52:18 GMT-0600 (Central Standard Time),372138.40000000596,A,l,O,l,1106,1,1116.7000000029802,371021.700000003,7742,WL,B,7.0
2,25.159000158309937,learn,34840.99984169006,Wed Feb 11 2026 15:52:18 GMT-0600 (Central Standard Time),372504.700000003,A,la,O,a,346,1,1483.0,371021.700000003,7742,WL,B,7.0
2,25.342000007629395,learn,34657.999992370605,Wed Feb 11 2026 15:52:18 GMT-0600 (Central Standard Time),372687.60000000894,A,lak,O,k,165,1,1665.9000000059605,371021.700000003,7742,WL,B,7.0
2,25.526000022888184,learn,34473.99997711182,Wed Feb 11 2026 15:52:18 GMT-0600 (Central Standard Time),372871.40000000596,A,lake,O,e,172,1,1849.7000000029802,371021.700000003,7742,WL,B,7.0
2,26.026000022888184,learn,33973.99997711182,Wed Feb 11 2026 15:52:18 GMT-0600 (Central Standard Time),373371.5,A,lakeenter,O,enter,494,1,2349.7999999970198,371021.700000003,7742,WL,B,7.0
2,26.725000143051147,learn,33274.99985694885,Wed Feb 11 2026 15:52:18 GMT-0600 (Central Standard Time),374070.10000000894,A,d,O,d,690,1,698.4000000059605,373371.700000003,7742,WL,B,8.0
2,27.04200005531311,learn,32957.99994468689,Wed Feb 11 2026 15:52:18 GMT-0600 (Central Standard Time),374387.5,A,do,O,o,303,1,1015.7999999970198,373371.700000003,7742,WL,B,8.0
2,27.192000150680542,learn,32807.99984931946,Wed Feb 11 2026 15:52:18 GMT-0600 (Central Standard Time),374537.700000003,A,doo,O,o,131,1,1166.0,373371.700000003,7742,WL,B,8.0
2,27.358999967575073,learn,32641.000032424927,Wed Feb 11 2026 15:52:18 GMT-0600 (Central Standard Time),374704.299999997,A,door,O,r,148,1,1332.5999999940395,373371.700000003,7742,WL,B,8.0
2,27.740999937057495,learn,32259.000062942505,Wed Feb 11 2026 15:52:18 GMT-0600 (Central Standard Time),375086.200000003,A,doorenter,O,enter,373,1,1714.5,373371.700000003,7742,WL,B,8.0
2,28.125,learn,31875.0,Wed Feb 11 2026 15:52:18 GMT-0600 (Central Standard Time),375470.40000000596,A,s,O,s,369,1,383.90000000596046,375086.5,7742,WL,B,9.0
2,28.324000120162964,learn,31675.999879837036,Wed Feb 11 2026 15:52:18 GMT-0600 (Central Standard Time),375669.799999997,A,sk,O,k,193,1,583.2999999970198,375086.5,7742,WL,B,9.0
2,28.5239999294281,learn,31476.0000705719,Wed Feb 11 2026 15:52:18 GMT-0600 (Central Standard Time),375869.799999997,A,ski,O,i,181,1,783.2999999970198,375086.5,7742,WL,B,9.0
2,28.723999977111816,learn,31276.000022888184,Wed Feb 11 2026 15:52:18 GMT-0600 (Central Standard Time),376069.10000000894,A,skin,O,n,183,1,982.6000000089407,375086.5,7742,WL,B,9.0
2,28.990999937057495,learn,31009.000062942505,Wed Feb 11 2026 15:52:18 GMT-0600 (Central Standard Time),376336.90000000596,A,skinenter,O,enter,258,1,1250.4000000059605,375086.5,7742,WL,B,9.0
2,30.542999982833862,learn,29457.000017166138,Wed Feb 11 2026 15:52:18 GMT-0600 (Central Standard Time),377888.10000000894,A,f,O,f,1542,1,1551.0,376337.10000000894,7742,WL,B,10.0
2,30.707000017166138,learn,29292.999982833862,Wed Feb 11 2026 15:52:18 GMT-0600 (Central Standard Time),378052.90000000596,A,fi,O,i,158,1,1715.7999999970198,376337.10000000894,7742,WL,B,10.0
2,30.891000032424927,learn,29108.999967575073,Wed Feb 11 2026 15:52:18 GMT-0600 (Central Standard Time),378236.700000003,A,fir,O,r,177,1,1899.5999999940395,376337.10000000894,7742,WL,B,10.0
2,31.124000072479248,learn,28875.999927520752,Wed Feb 11 2026 15:52:18 GMT-0600 (Central Standard Time),378469.299999997,A,fire,O,e,217,1,2132.199999988079,376337.10000000894,7742,WL,B,10.0
2,31.723000049591064,learn,28276.999950408936,Wed Feb 11 2026 15:52:18 GMT-0600 (Central Standard Time),379069.10000000894,A,fireenter,O,enter,595,1,2732.0,376337.10000000894,7742,WL,B,10.0
2,35.28999996185303,learn,24710.000038146973,Wed Feb 11 2026 15:52:18 GMT-0600 (Central Standard Time),382635.799999997,A,s,O,s,3553,1,3566.5,379069.299999997,7742,WL,B,11.0
2,35.67199993133545,learn,24328.00006866455,Wed Feb 11 2026 15:52:18 GMT-0600 (Central Standard Time),383017.5,A,st,O,t,361,1,3948.2000000029802,379069.299999997,7742,WL,B,11.0
2,35.855000019073486,learn,24144.999980926514,Wed Feb 11 2026 15:52:18 GMT-0600 (Central Standard Time),383200.799999997,A,sta,O,a,164,1,4131.5,379069.299999997,7742,WL,B,11.0
2,36.123000144958496,learn,23876.999855041504,Wed Feb 11 2026 15:52:18 GMT-0600 (Central Standard Time),383468.799999997,A,star,O,r,255,1,4399.5,379069.299999997,7742,WL,B,11.0
2,36.98900008201599,learn,23010.99991798401,Wed Feb 11 2026 15:52:18 GMT-0600 (Central Standard Time),384334.40000000596,A,starenter,O,enter,851,1,5265.100000008941,379069.299999997,7742,WL,B,11.0
2,49.799999952316284,learn,10200.000047683716,Wed Feb 11 2026 15:52:18 GMT-0600 (Central Standard Time),397146.0,A,a,O,a,12802,1,12811.39999999106,384334.60000000894,7742,WL,B,12.0
2,50.301000118255615,learn,9698.999881744385,Wed Feb 11 2026 15:52:18 GMT-0600 (Central Standard Time),397647.10000000894,A,ar,O,r,485,1,13312.5,384334.60000000894,7742,WL,B,12.0
2,50.519999980926514,learn,9480.000019073486,Wed Feb 11 2026 15:52:18 GMT-0600 (Central Standard Time),397865.40000000596,A,arm,O,m,208,1,13530.79999999702,384334.60000000894,7742,WL,B,12.0
2,51.15000009536743,learn,8849.999904632568,Wed Feb 11 2026 15:52:18 GMT-0600 (Central Standard Time),398496.10000000894,A,armenter,O,enter,614,1,14161.5,384334.60000000894,7742,WL,B,12.0
2,60.015000104904175,learn,-15.000104904174805,Wed Feb 11 2026 15:52:18 GMT-0600 (Central Standard Time),407360.90000000596,A,None,O,None,8860,1,8864.60000000894,398496.299999997,7742,WL,B,13.0
3,1.8149998188018799,learn,58185.00018119812,Wed Feb 11 2026 15:52:18 GMT-0600 (Central Standard Time),479520.90000000596,A,s,O,s,1805,1,1814.7000000029802,477706.200000003,7742,WL,B,1.0
3,2.2309999465942383,learn,57769.00005340576,Wed Feb 11 2026 15:52:18 GMT-0600 (Central Standard Time),479937.700000003,A,st,O,t,406,1,2231.5,477706.200000003,7742,WL,B,1.0
3,2.5309998989105225,learn,57469.00010108948,Wed Feb 11 2026 15:52:18 GMT-0600 (Central Standard Time),480236.90000000596,A,str,O,r,285,1,2530.7000000029802,477706.200000003,7742,WL,B,1.0
3,2.7960000038146973,learn,57203.9999961853,Wed Feb 11 2026 15:52:18 GMT-0600 (Central Standard Time),480502.799999997,A,stre,O,e,249,1,2796.5999999940395,477706.200000003,7742,WL,B,1.0
3,2.9639999866485596,learn,57036.00001335144,Wed Feb 11 2026 15:52:18 GMT-0600 (Central Standard Time),480670.40000000596,A,stree,O,e,150,1,2964.2000000029802,477706.200000003,7742,WL,B,1.0
3,3.197999954223633,learn,56802.00004577637,Wed Feb 11 2026 15:52:18 GMT-0600 (Central Standard Time),480904.10000000894,A,street,O,t,222,1,3197.9000000059605,477706.200000003,7742,WL,B,1.0
3,4.413999795913696,learn,55586.000204086304,Wed Feb 11 2026 15:52:18 GMT-0600 (Central Standard Time),482120.10000000894,A,streetenter,O,enter,1198,1,4413.9000000059605,477706.200000003,7742,WL,B,1.0
3,5.4629998207092285,learn,54537.00017929077,Wed Feb 11 2026 15:52:18 GMT-0600 (Central Standard Time),483169.200000003,A,g,O,g,1038,1,1048.9000000059605,482120.299999997,7742,WL,B,2.0
3,5.763999938964844,learn,54236.000061035156,Wed Feb 11 2026 15:52:18 GMT-0600 (Central Standard Time),483470.0,A,gr,O,r,292,1,1349.7000000029802,482120.299999997,7742,WL,B,2.0
3,5.995999813079834,learn,54004.000186920166,Wed Feb 11 2026 15:52:18 GMT-0600 (Central Standard Time),483702.700000003,A,gra,O,a,224,1,1582.4000000059605,482120.299999997,7742,WL,B,2.0
3,6.395999908447266,learn,53604.000091552734,Wed Feb 11 2026 15:52:18 GMT-0600 (Central Standard Time),484102.10000000894,A,gras,O,s,392,1,1981.800000011921,482120.299999997,7742,WL,B,2.0
3,6.546000003814697,learn,53453.9999961853,Wed Feb 11 2026 15:52:18 GMT-0600 (Central Standard Time),484252.299999997,A,grass,O,s,137,1,2132.0,482120.299999997,7742,WL,B,2.0
3,7.128000020980835,learn,52871.999979019165,Wed Feb 11 2026 15:52:18 GMT-0600 (Central Standard Time),484834.40000000596,A,grassenter,O,enter,568,1,2714.1000000089407,482120.299999997,7742,WL,B,2.0
3,7.662999868392944,learn,52337.000131607056,Wed Feb 11 2026 15:52:18 GMT-0600 (Central Standard Time),485369.799999997,A,d,O,d,516,1,535.0999999940395,484834.700000003,7742,WL,B,3.0
3,7.928999900817871,learn,52071.00009918213,Wed Feb 11 2026 15:52:18 GMT-0600 (Central Standard Time),485635.10000000894,A,do,O,o,252,1,800.4000000059605,484834.700000003,7742,WL,B,3.0
3,8.078999996185303,learn,51921.0000038147,Wed Feb 11 2026 15:52:18 GMT-0600 (Central Standard Time),485785.40000000596,A,doo,O,o,130,1,950.7000000029802,484834.700000003,7742,WL,B,3.0
3,8.230000019073486,learn,51769.999980926514,Wed Feb 11 2026 15:52:18 GMT-0600 (Central Standard Time),485935.90000000596,A,door,O,r,139,1,1101.2000000029802,484834.700000003,7742,WL,B,3.0
3,8.595999956130981,learn,51404.00004386902,Wed Feb 11 2026 15:52:18 GMT-0600 (Central Standard Time),486301.90000000596,A,doorenter,O,enter,359,1,1467.2000000029802,484834.700000003,7742,WL,B,3.0
3,10.361999988555908,learn,49638.00001144409,Wed Feb 11 2026 15:52:18 GMT-0600 (Central Standard Time),488068.60000000894,A,w,O,w,1761,1,1766.4000000059605,486302.200000003,7742,WL,B,4.0
3,10.527999877929688,learn,49472.00012207031,Wed Feb 11 2026 15:52:18 GMT-0600 (Central Standard Time),488234.40000000596,A,wi,O,i,145,1,1932.2000000029802,486302.200000003,7742,WL,B,4.0
3,10.76199984550476,learn,49238.00015449524,Wed Feb 11 2026 15:52:18 GMT-0600 (Central Standard Time),488468.40000000596,A,win,O,n,212,1,2166.2000000029802,486302.200000003,7742,WL,B,4.0
3,10.92799997329712,learn,49072.00002670288,Wed Feb 11 2026 15:52:18 GMT-0600 (Central Standard Time),488634.60000000894,A,wind,O,d,147,1,2332.4000000059605,486302.200000003,7742,WL,B,4.0
3,11.060999870300293,learn,48939.00012969971,Wed Feb 11 2026 15:52:18 GMT-0600 (Central Standard Time),488767.60000000894,A,windo,O,o,117,1,2465.4000000059605,486302.200000003,7742,WL,B,4.0
3,11.560999870300293,learn,48439.00012969971,Wed Feb 11 2026 15:52:18 GMT-0600 (Central Standard Time),489267.700000003,A,window,O,w,485,1,2965.5,486302.200000003,7742,WL,B,4.0
3,12.060999870300293,learn,47939.00012969971,Wed Feb 11 2026 15:52:18 GMT-0600 (Central Standard Time),489767.40000000596,A,windowenter,O,enter,483,1,3465.2000000029802,486302.200000003,7742,WL,B,4.0
3,12.610999822616577,learn,47389.00017738342,Wed Feb 11 2026 15:52:18 GMT-0600 (Central Standard Time),490317.10000000894,A,s,O,s,543,1,549.5,489767.60000000894,7742,WL,B,5.0
3,12.942999839782715,learn,47057.000160217285,Wed Feb 11 2026 15:52:18 GMT-0600 (Central Standard Time),490649.700000003,A,st,O,t,312,1,882.0999999940395,489767.60000000894,7742,WL,B,5.0
3,13.144999980926514,learn,46855.000019073486,Wed Feb 11 2026 15:52:18 GMT-0600 (Central Standard Time),490851.200000003,A,sta,O,a,181,1,1083.5999999940395,489767.60000000894,7742,WL,B,5.0
3,13.378000020980835,learn,46621.999979019165,Wed Feb 11 2026 15:52:18 GMT-0600 (Central Standard Time),491084.10000000894,A,star,O,r,219,1,1316.5,489767.60000000894,7742,WL,B,5.0
3,14.342999935150146,learn,45657.00006484985,Wed Feb 11 2026 15:52:18 GMT-0600 (Central Standard Time),492048.90000000596,A,starenter,O,enter,956,1,2281.2999999970198,489767.60000000894,7742,WL,B,5.0
3,15.426999807357788,learn,44573.00019264221,Wed Feb 11 2026 15:52:18 GMT-0600 (Central Standard Time),493133.0,A,w,O,w,1077,1,1083.7000000029802,492049.299999997,7742,WL,B,6.0
3,15.592999935150146,learn,44407.00006484985,Wed Feb 11 2026 15:52:18 GMT-0600 (Central Standard Time),493299.799999997,A,wi,O,i,153,1,1250.5,492049.299999997,7742,WL,B,6.0
3,16.14299988746643,learn,43857.00011253357,Wed Feb 11 2026 15:52:18 GMT-0600 (Central Standard Time),493848.90000000596,A,wif,O,f,530,1,1799.6000000089407,492049.299999997,7742,WL,B,6.0
3,16.30999994277954,learn,43690.00005722046,Wed Feb 11 2026 15:52:18 GMT-0600 (Central Standard Time),494016.200000003,A,wife,O,e,146,1,1966.9000000059605,492049.299999997,7742,WL,B,6.0
3,16.691999912261963,learn,43308.00008773804,Wed Feb 11 2026 15:52:18 GMT-0600 (Central Standard Time),494398.700000003,A,wifeenter,O,enter,366,1,2349.4000000059605,492049.299999997,7742,WL,B,6.0
3,16.959999799728394,learn,43040.00020027161,Wed Feb 11 2026 15:52:18 GMT-0600 (Central Standard Time),494666.0,A,f,O,f,255,1,267.09999999403954,494398.90000000596,7742,WL,B,7.0
3,17.209999799728394,learn,42790.00020027161,Wed Feb 11 2026 15:52:18 GMT-0600 (Central Standard Time),494916.799999997,A,fi,O,i,246,1,517.8999999910593,494398.90000000596,7742,WL,B,7.0
3,17.358999967575073,learn,42641.00003242493,Wed Feb 11 2026 15:52:18 GMT-0600 (Central Standard Time),495065.299999997,A,fir,O,r,134,1,666.3999999910593,494398.90000000596,7742,WL,B,7.0
3,17.54199981689453,learn,42458.00018310547,Wed Feb 11 2026 15:52:18 GMT-0600 (Central Standard Time),495248.5,A,fire,O,e,173,1,849.5999999940395,494398.90000000596,7742,WL,B,7.0
3,17.925999879837036,learn,42074.000120162964,Wed Feb 11 2026 15:52:18 GMT-0600 (Central Standard Time),495632.5,A,fireenter,O,enter,372,1,1233.5999999940395,494398.90000000596,7742,WL,B,7.0
3,18.508999824523926,learn,41491.000175476074,Wed Feb 11 2026 15:52:18 GMT-0600 (Central Standard Time),496215.10000000894,A,c,O,c,574,1,582.3000000119209,495632.799999997,7742,WL,B,8.0
3,18.658999919891357,learn,41341.00008010864,Wed Feb 11 2026 15:52:18 GMT-0600 (Central Standard Time),496365.0,A,cl,O,l,136,1,732.2000000029802,495632.799999997,7742,WL,B,8.0
3,18.858999967575073,learn,41141.00003242493,Wed Feb 11 2026 15:52:18 GMT-0600 (Central Standard Time),496565.299999997,A,clo,O,o,185,1,932.5,495632.799999997,7742,WL,B,8.0
3,19.209999799728394,learn,40790.00020027161,Wed Feb 11 2026 15:52:18 GMT-0600 (Central Standard Time),496916.299999997,A,cloc,O,c,346,1,1283.5,495632.799999997,7742,WL,B,8.0
3,19.358999967575073,learn,40641.00003242493,Wed Feb 11 2026 15:52:18 GMT-0600 (Central Standard Time),497065.60000000894,A,clock,O,k,137,1,1432.800000011921,495632.799999997,7742,WL,B,8.0
3,19.993000030517578,learn,40006.99996948242,Wed Feb 11 2026 15:52:18 GMT-0600 (Central Standard Time),497699.40000000596,A,clockenter,O,enter,621,1,2066.6000000089407,495632.799999997,7742,WL,B,8.0
3,21.391000032424927,learn,38608.99996757507,Wed Feb 11 2026 15:52:18 GMT-0600 (Central Standard Time),499097.200000003,A,l,O,l,1388,1,1397.5999999940395,497699.60000000894,7742,WL,B,9.0
3,21.657999992370605,learn,38342.000007629395,Wed Feb 11 2026 15:52:18 GMT-0600 (Central Standard Time),499364.40000000596,A,la,O,a,262,1,1664.7999999970198,497699.60000000894,7742,WL,B,9.0
3,21.842000007629395,learn,38157.999992370605,Wed Feb 11 2026 15:52:18 GMT-0600 (Central Standard Time),499548.0,A,lak,O,k,168,1,1848.3999999910593,497699.60000000894,7742,WL,B,9.0
3,22.026000022888184,learn,37973.99997711182,Wed Feb 11 2026 15:52:18 GMT-0600 (Central Standard Time),499731.90000000596,A,lake,O,e,180,1,2032.2999999970198,497699.60000000894,7742,WL,B,9.0
3,22.340999841690063,learn,37659.00015830994,Wed Feb 11 2026 15:52:18 GMT-0600 (Central Standard Time),500047.60000000894,A,lakeenter,O,enter,298,1,2348.0,497699.60000000894,7742,WL,B,9.0
3,22.641000032424927,learn,37358.99996757507,Wed Feb 11 2026 15:52:18 GMT-0600 (Central Standard Time),500347.299999997,A,c,O,c,287,1,299.5,500047.799999997,7742,WL,B,10.0
3,23.107999801635742,learn,36892.00019836426,Wed Feb 11 2026 15:52:18 GMT-0600 (Central Standard Time),500814.40000000596,A,ci,O,i,447,1,766.6000000089407,500047.799999997,7742,WL,B,10.0
3,23.389999866485596,learn,36610.000133514404,Wed Feb 11 2026 15:52:18 GMT-0600 (Central Standard Time),501096.200000003,A,cit,O,t,263,1,1048.4000000059605,500047.799999997,7742,WL,B,10.0
3,23.493000030517578,learn,36506.99996948242,Wed Feb 11 2026 15:52:18 GMT-0600 (Central Standard Time),501198.799999997,A,city,O,y,98,1,1151.0,500047.799999997,7742,WL,B,10.0
3,24.090999841690063,learn,35909.00015830994,Wed Feb 11 2026 15:52:18 GMT-0600 (Central Standard Time),501796.90000000596,A,cityenter,O,enter,584,1,1749.1000000089407,500047.799999997,7742,WL,B,10.0
3,24.990000009536743,learn,35009.99999046326,Wed Feb 11 2026 15:52:18 GMT-0600 (Central Standard Time),502696.40000000596,A,p,O,p,883,1,899.2000000029802,501797.200000003,7742,WL,B,11.0
3,25.20799994468689,learn,34792.00005531311,Wed Feb 11 2026 15:52:18 GMT-0600 (Central Standard Time),502914.0,A,pu,O,u,197,1,1116.7999999970198,501797.200000003,7742,WL,B,11.0
3,25.43999981880188,learn,34560.00018119812,Wed Feb 11 2026 15:52:18 GMT-0600 (Central Standard Time),503146.60000000894,A,pup,O,p,220,1,1349.4000000059605,501797.200000003,7742,WL,B,11.0
3,25.973999977111816,learn,34026.00002288818,Wed Feb 11 2026 15:52:18 GMT-0600 (Central Standard Time),503680.799999997,A,pupi,O,i,516,1,1883.5999999940395,501797.200000003,7742,WL,B,11.0
3,26.222999811172485,learn,33777.000188827515,Wed Feb 11 2026 15:52:18 GMT-0600 (Central Standard Time),503929.60000000894,A,pupil,O,l,230,1,2132.4000000059605,501797.200000003,7742,WL,B,11.0
3,26.57200002670288,learn,33427.99997329712,Wed Feb 11 2026 15:52:18 GMT-0600 (Central Standard Time),504278.700000003,A,pupilenter,O,enter,341,1,2481.5,501797.200000003,7742,WL,B,11.0
3,51.448999881744385,learn,8551.000118255615,Wed Feb 11 2026 15:52:18 GMT-0600 (Central Standard Time),529155.0,A,w,O,w,24866,1,24876.09999999404,504278.90000000596,7742,WL,B,12.0
3,51.930999994277954,learn,8069.000005722046,Wed Feb 11 2026 15:52:18 GMT-0600 (Central Standard Time),529637.799999997,A,wi,O,i,478,1,25358.89999999106,504278.90000000596,7742,WL,B,12.0
3,52.06599998474121,learn,7934.000015258789,Wed Feb 11 2026 15:52:18 GMT-0600 (Central Standard Time),529772.400000006,A,wif,O,f,115,1,25493.5,504278.90000000596,7742,WL,B,12.0
3,52.24799990653992,learn,7752.000093460083,Wed Feb 11 2026 15:52:18 GMT-0600 (Central Standard Time),529954.700000003,A,wife,O,e,161,1,25675.79999999702,504278.90000000596,7742,WL,B,12.0
3,52.89800000190735,learn,7101.999998092651,Wed Feb 11 2026 15:52:18 GMT-0600 (Central Standard Time),530604.200000003,A,wifeenter,O,enter,643,1,26325.29999999702,504278.90000000596,7742,WL,B,12.0
3,59.730000019073486,learn,269.9999809265137,Wed Feb 11 2026 15:52:18 GMT-0600 (Central Standard Time),537436.1000000089,A,d,O,d,6818,1,6831.70000000298,530604.400000006,7742,WL,B,13.0
3,60.01199984550476,learn,-11.999845504760742,Wed Feb 11 2026 15:52:18 GMT-0600 (Central Standard Time),537718.5,A,dNone,O,None,279,1,7114.0999999940395,530604.400000006,7742,WL,B,13.0
4,1.4839999675750732,learn,58516.00003242493,Wed Feb 11 2026 15:52:18 GMT-0600 (Central Standard Time),623226.400000006,A,s,O,s,1463,1,1483.5,621742.900000006,7742,WL,B,1.0
4,1.8489999771118164,learn,58151.00002288818,Wed Feb 11 2026 15:52:18 GMT-0600 (Central Standard Time),623591.1000000089,A,st,O,t,349,1,1848.2000000029802,621742.900000006,7742,WL,B,1.0
4,2.117000102996826,learn,57882.999897003174,Wed Feb 11 2026 15:52:18 GMT-0600 (Central Standard Time),623859.299999997,A,str,O,r,247,1,2116.3999999910593,621742.900000006,7742,WL,B,1.0
4,2.5160000324249268,learn,57483.99996757507,Wed Feb 11 2026 15:52:18 GMT-0600 (Central Standard Time),624258.400000006,A,stre,O,e,379,1,2515.5,621742.900000006,7742,WL,B,1.0
4,2.683000087738037,learn,57316.99991226196,Wed Feb 11 2026 15:52:18 GMT-0600 (Central Standard Time),624424.900000006,A,stree,O,e,147,1,2682.0,621742.900000006,7742,WL,B,1.0
4,2.949000120162964,learn,57050.999879837036,Wed Feb 11 2026 15:52:18 GMT-0600 (Central Standard Time),624690.900000006,A,street,O,t,244,1,2948.0,621742.900000006,7742,WL,B,1.0
4,4.148000001907349,learn,55851.99999809265,Wed Feb 11 2026 15:52:18 GMT-0600 (Central Standard Time),625890.5,A,streetd,O,d,1180,1,4147.5999999940395,621742.900000006,7742,WL,B,1.0
4,4.400000095367432,learn,55599.99990463257,Wed Feb 11 2026 15:52:18 GMT-0600 (Central Standard Time),626142.0,A,streetdo,O,o,246,1,4399.0999999940395,621742.900000006,7742,WL,B,1.0
4,4.5340001583099365,learn,55465.99984169006,Wed Feb 11 2026 15:52:18 GMT-0600 (Central Standard Time),626276.1000000089,A,streetdoo,O,o,128,1,4533.20000000298,621742.900000006,7742,WL,B,1.0
4,4.715000152587891,learn,55284.99984741211,Wed Feb 11 2026 15:52:18 GMT-0600 (Central Standard Time),626457.299999997,A,streetdoor,O,r,170,1,4714.399999991059,621742.900000006,7742,WL,B,1.0
4,5.164999961853027,learn,54835.00003814697,Wed Feb 11 2026 15:52:18 GMT-0600 (Central Standard Time),626907.299999997,A,streetdoo,O,backspace,429,1,5164.399999991059,621742.900000006,7742,WL,B,1.0
4,5.481000185012817,learn,54518.99981498718,Wed Feb 11 2026 15:52:18 GMT-0600 (Central Standard Time),627222.900000006,A,streetdo,O,backspace,307,1,5480.0,621742.900000006,7742,WL,B,1.0
4,5.648000001907349,learn,54351.99999809265,Wed Feb 11 2026 15:52:18 GMT-0600 (Central Standard Time),627390.0,A,streetd,O,backspace,147,1,5647.0999999940395,621742.900000006,7742,WL,B,1.0
4,5.781000137329102,learn,54218.9998626709,Wed Feb 11 2026 15:52:18 GMT-0600 (Central Standard Time),627523.0,A,street,O,backspace,130,1,5780.0999999940395,621742.900000006,7742,WL,B,1.0
4,6.763000011444092,learn,53236.99998855591,Wed Feb 11 2026 15:52:18 GMT-0600 (Central Standard Time),628504.900000006,A,streetenter,O,enter,973,1,6762.0,621742.900000006,7742,WL,B,1.0
4,7.128999948501587,learn,52871.00005149841,Wed Feb 11 2026 15:52:18 GMT-0600 (Central Standard Time),628871.5,A,d,O,d,351,1,366.3999999910593,628505.1000000089,7742,WL,B,2.0
4,7.447000026702881,learn,52552.99997329712,Wed Feb 11 2026 15:52:18 GMT-0600 (Central Standard Time),629189.1000000089,A,do,O,o,304,1,684.0,628505.1000000089,7742,WL,B,2.0
4,7.5959999561309814,learn,52404.00004386902,Wed Feb 11 2026 15:52:18 GMT-0600 (Central Standard Time),629338.299999997,A,doo,O,o,138,1,833.1999999880791,628505.1000000089,7742,WL,B,2.0
4,7.763000011444092,learn,52236.99998855591,Wed Feb 11 2026 15:52:18 GMT-0600 (Central Standard Time),629505.5,A,door,O,r,149,1,1000.3999999910593,628505.1000000089,7742,WL,B,2.0
4,8.61300015449524,learn,51386.99984550476,Wed Feb 11 2026 15:52:18 GMT-0600 (Central Standard Time),630355.0,A,doorenter,O,enter,838,1,1849.8999999910593,628505.1000000089,7742,WL,B,2.0
4,9.663000106811523,learn,50336.99989318848,Wed Feb 11 2026 15:52:18 GMT-0600 (Central Standard Time),631405.299999997,A,g,O,g,1037,1,1050.0,630355.299999997,7742,WL,B,3.0
4,9.946000099182129,learn,50053.99990081787,Wed Feb 11 2026 15:52:18 GMT-0600 (Central Standard Time),631688.200000003,A,gr,O,r,274,1,1332.9000000059605,630355.299999997,7742,WL,B,3.0
4,10.245000123977661,learn,49754.99987602234,Wed Feb 11 2026 15:52:18 GMT-0600 (Central Standard Time),631987.400000006,A,gra,O,a,286,1,1632.1000000089407,630355.299999997,7742,WL,B,3.0
4,10.61300015449524,learn,49386.99984550476,Wed Feb 11 2026 15:52:18 GMT-0600 (Central Standard Time),632354.900000006,A,gras,O,s,365,1,1999.6000000089407,630355.299999997,7742,WL,B,3.0
4,10.77999997138977,learn,49220.00002861023,Wed Feb 11 2026 15:52:18 GMT-0600 (Central Standard Time),632522.0,A,grass,O,s,148,1,2166.7000000029802,630355.299999997,7742,WL,B,3.0
4,11.34500002861023,learn,48654.99997138977,Wed Feb 11 2026 15:52:18 GMT-0600 (Central Standard Time),633087.400000006,A,grassenter,O,enter,557,1,2732.1000000089407,630355.299999997,7742,WL,B,3.0
4,14.611999988555908,learn,45388.00001144409,Wed Feb 11 2026 15:52:18 GMT-0600 (Central Standard Time),636354.5,A,a,O,a,3249,1,3266.8999999910593,633087.6000000089,7742,WL,B,4.0
4,15.278000116348267,learn,44721.99988365173,Wed Feb 11 2026 15:52:18 GMT-0600 (Central Standard Time),637020.200000003,A,ar,O,r,660,1,3932.5999999940395,633087.6000000089,7742,WL,B,4.0
4,15.42900013923645,learn,44570.99986076355,Wed Feb 11 2026 15:52:18 GMT-0600 (Central Standard Time),637170.700000003,A,arm,O,m,131,1,4083.0999999940395,633087.6000000089,7742,WL,B,4.0
4,16.213000059127808,learn,43786.99994087219,Wed Feb 11 2026 15:52:18 GMT-0600 (Central Standard Time),637955.5,A,armenter,O,enter,771,1,4867.899999991059,633087.6000000089,7742,WL,B,4.0
4,16.944000005722046,learn,43055.999994277954,Wed Feb 11 2026 15:52:18 GMT-0600 (Central Standard Time),638685.799999997,A,s,O,s,714,1,730.0999999940395,637955.700000003,7742,WL,B,5.0
4,17.24500012397766,learn,42754.99987602234,Wed Feb 11 2026 15:52:18 GMT-0600 (Central Standard Time),638986.700000003,A,st,O,t,290,1,1031.0,637955.700000003,7742,WL,B,5.0
4,17.462000131607056,learn,42537.999868392944,Wed Feb 11 2026 15:52:18 GMT-0600 (Central Standard Time),639204.6000000089,A,sta,O,a,213,1,1248.9000000059605,637955.700000003,7742,WL,B,5.0
4,17.67799997329712,learn,42322.00002670288,Wed Feb 11 2026 15:52:18 GMT-0600 (Central Standard Time),639420.400000006,A,star,O,r,200,1,1464.7000000029802,637955.700000003,7742,WL,B,5.0
4,18.24399995803833,learn,41756.00004196167,Wed Feb 11 2026 15:52:18 GMT-0600 (Central Standard Time),639986.1000000089,A,starenter,O,enter,548,1,2030.4000000059605,637955.700000003,7742,WL,B,5.0
4,18.561000108718872,learn,41438.99989128113,Wed Feb 11 2026 15:52:18 GMT-0600 (Central Standard Time),640303.0,A,w,O,w,300,1,316.79999999701977,639986.200000003,7742,WL,B,6.0
4,18.72699999809265,learn,41273.00000190735,Wed Feb 11 2026 15:52:18 GMT-0600 (Central Standard Time),640469.200000003,A,wi,O,i,159,1,483.0,639986.200000003,7742,WL,B,6.0
4,18.91100001335144,learn,41088.99998664856,Wed Feb 11 2026 15:52:18 GMT-0600 (Central Standard Time),640653.200000003,A,wif,O,f,177,1,667.0,639986.200000003,7742,WL,B,6.0
4,19.09500002861023,learn,40904.99997138977,Wed Feb 11 2026 15:52:18 GMT-0600 (Central Standard Time),640837.0,A,wife,O,e,162,1,850.7999999970198,639986.200000003,7742,WL,B,6.0
4,19.460000038146973,learn,40539.99996185303,Wed Feb 11 2026 15:52:18 GMT-0600 (Central Standard Time),641202.5,A,wifeenter,O,enter,344,1,1216.2999999970198,639986.200000003,7742,WL,B,6.0
4,24.758000135421753,learn,35241.99986457825,Wed Feb 11 2026 15:52:18 GMT-0600 (Central Standard Time),646500.0,A,w,O,w,5284,1,5297.29999999702,641202.700000003,7742,WL,B,7.0
4,24.89199995994568,learn,35108.00004005432,Wed Feb 11 2026 15:52:18 GMT-0600 (Central Standard Time),646634.1000000089,A,wi,O,i,123,1,5431.4000000059605,641202.700000003,7742,WL,B,7.0
4,25.125,learn,34875.0,Wed Feb 11 2026 15:52:18 GMT-0600 (Central Standard Time),646867.0,A,win,O,n,220,1,5664.29999999702,641202.700000003,7742,WL,B,7.0
4,25.64400005340576,learn,34355.99994659424,Wed Feb 11 2026 15:52:18 GMT-0600 (Central Standard Time),647385.700000003,A,wind,O,d,509,1,6183.0,641202.700000003,7742,WL,B,7.0
4,25.825999975204468,learn,34174.00002479553,Wed Feb 11 2026 15:52:18 GMT-0600 (Central Standard Time),647567.700000003,A,windo,O,o,173,1,6365.0,641202.700000003,7742,WL,B,7.0
4,26.108999967575073,learn,33891.00003242493,Wed Feb 11 2026 15:52:18 GMT-0600 (Central Standard Time),647850.6000000089,A,window,O,w,271,1,6647.9000000059605,641202.700000003,7742,WL,B,7.0
4,26.723000049591064,learn,33276.999950408936,Wed Feb 11 2026 15:52:18 GMT-0600 (Central Standard Time),648465.5,A,windowenter,O,enter,604,1,7262.79999999702,641202.700000003,7742,WL,B,7.0
4,27.192000150680542,learn,32807.99984931946,Wed Feb 11 2026 15:52:18 GMT-0600 (Central Standard Time),648934.1000000089,A,c,O,c,463,1,468.5,648465.6000000089,7742,WL,B,8.0
4,27.374000072479248,learn,32625.999927520752,Wed Feb 11 2026 15:52:18 GMT-0600 (Central Standard Time),649116.400000006,A,ci,O,i,166,1,650.7999999970198,648465.6000000089,7742,WL,B,8.0
4,27.54200005531311,learn,32457.99994468689,Wed Feb 11 2026 15:52:18 GMT-0600 (Central Standard Time),649284.299999997,A,cit,O,t,155,1,818.6999999880791,648465.6000000089,7742,WL,B,8.0
4,27.657999992370605,learn,32342.000007629395,Wed Feb 11 2026 15:52:18 GMT-0600 (Central Standard Time),649399.900000006,A,city,O,y,107,1,934.2999999970198,648465.6000000089,7742,WL,B,8.0
4,28.04100012779236,learn,31958.99987220764,Wed Feb 11 2026 15:52:18 GMT-0600 (Central Standard Time),649783.200000003,A,cityenter,O,enter,367,1,1317.5999999940395,648465.6000000089,7742,WL,B,8.0
4,30.990000009536743,learn,29009.999990463257,Wed Feb 11 2026 15:52:18 GMT-0600 (Central Standard Time),652731.799999997,A,l,O,l,2944,1,2948.3999999910593,649783.400000006,7742,WL,B,9.0
4,31.141000032424927,learn,28858.999967575073,Wed Feb 11 2026 15:52:18 GMT-0600 (Central Standard Time),652882.900000006,A,la,O,a,131,1,3099.5,649783.400000006,7742,WL,B,9.0
4,31.305999994277954,learn,28694.000005722046,Wed Feb 11 2026 15:52:18 GMT-0600 (Central Standard Time),653048.5,A,lak,O,k,152,1,3265.0999999940395,649783.400000006,7742,WL,B,9.0
4,31.44000005722046,learn,28559.99994277954,Wed Feb 11 2026 15:52:18 GMT-0600 (Central Standard Time),653181.799999997,A,lake,O,e,118,1,3398.3999999910593,649783.400000006,7742,WL,B,9.0
4,31.822999954223633,learn,28177.000045776367,Wed Feb 11 2026 15:52:18 GMT-0600 (Central Standard Time),653565.200000003,A,lakeenter,O,enter,368,1,3781.7999999970198,649783.400000006,7742,WL,B,9.0
4,32.49000000953674,learn,27509.999990463257,Wed Feb 11 2026 15:52:18 GMT-0600 (Central Standard Time),654231.900000006,A,p,O,p,650,1,666.5,653565.400000006,7742,WL,B,10.0
4,32.69000005722046,learn,27309.99994277954,Wed Feb 11 2026 15:52:18 GMT-0600 (Central Standard Time),654432.1000000089,A,pu,O,u,191,1,866.7000000029802,653565.400000006,7742,WL,B,10.0
4,33.02300000190735,learn,26976.99999809265,Wed Feb 11 2026 15:52:18 GMT-0600 (Central Standard Time),654765.1000000089,A,pup,O,p,326,1,1199.7000000029802,653565.400000006,7742,WL,B,10.0
4,33.289000034332275,learn,26710.999965667725,Wed Feb 11 2026 15:52:18 GMT-0600 (Central Standard Time),655030.799999997,A,pupi,O,i,257,1,1465.3999999910593,653565.400000006,7742,WL,B,10.0
4,33.6560001373291,learn,26343.9998626709,Wed Feb 11 2026 15:52:18 GMT-0600 (Central Standard Time),655398.299999997,A,pupil,O,l,363,1,1832.8999999910593,653565.400000006,7742,WL,B,10.0
4,34.07100009918213,learn,25928.99990081787,Wed Feb 11 2026 15:52:18 GMT-0600 (Central Standard Time),655813.5,A,pupilenter,O,enter,407,1,2248.0999999940395,653565.400000006,7742,WL,B,10.0
4,34.35600018501282,learn,25643.999814987183,Wed Feb 11 2026 15:52:18 GMT-0600 (Central Standard Time),656098.5,A,c,O,c,274,1,284.79999999701977,655813.700000003,7742,WL,B,11.0
4,34.539000034332275,learn,25460.999965667725,Wed Feb 11 2026 15:52:18 GMT-0600 (Central Standard Time),656281.299999997,A,ca,O,a,171,1,467.59999999403954,655813.700000003,7742,WL,B,11.0
4,34.8050000667572,learn,25194.999933242798,Wed Feb 11 2026 15:52:18 GMT-0600 (Central Standard Time),656547.5,A,cab,O,b,244,1,733.7999999970198,655813.700000003,7742,WL,B,11.0
4,34.9060001373291,learn,25093.9998626709,Wed Feb 11 2026 15:52:18 GMT-0600 (Central Standard Time),656648.200000003,A,cabi,O,i,92,1,834.5,655813.700000003,7742,WL,B,11.0
4,35.105000019073486,learn,24894.999980926514,Wed Feb 11 2026 15:52:18 GMT-0600 (Central Standard Time),656847.400000006,A,cabin,O,n,182,1,1033.7000000029802,655813.700000003,7742,WL,B,11.0
4,35.73800015449524,learn,24261.99984550476,Wed Feb 11 2026 15:52:18 GMT-0600 (Central Standard Time),657480.200000003,A,cabinenter,O,enter,614,1,1666.5,655813.700000003,7742,WL,B,11.0
4,36.17200016975403,learn,23827.99983024597,Wed Feb 11 2026 15:52:18 GMT-0600 (Central Standard Time),657914.200000003,A,l,O,l,415,1,433.79999999701977,657480.400000006,7742,WL,B,12.0
4,36.32100009918213,learn,23678.99990081787,Wed Feb 11 2026 15:52:18 GMT-0600 (Central Standard Time),658063.400000006,A,la,O,a,140,1,583.0,657480.400000006,7742,WL,B,12.0
4,36.53700017929077,learn,23462.99982070923,Wed Feb 11 2026 15:52:18 GMT-0600 (Central Standard Time),658279.799999997,A,lak,O,k,208,1,799.3999999910593,657480.400000006,7742,WL,B,12.0
4,36.706000089645386,learn,23293.999910354614,Wed Feb 11 2026 15:52:18 GMT-0600 (Central Standard Time),658448.400000006,A,lake,O,e,159,1,968.0,657480.400000006,7742,WL,B,12.0
4,37.65499997138977,learn,22345.00002861023,Wed Feb 11 2026 15:52:18 GMT-0600 (Central Standard Time),659397.0,A,lakeenter,O,enter,944,1,1916.5999999940395,657480.400000006,7742,WL,B,12.0
4,37.98800015449524,learn,22011.99984550476,Wed Feb 11 2026 15:52:18 GMT-0600 (Central Standard Time),659730.700000003,A,f,O,f,330,1,333.5,659397.200000003,7742,WL,B,13.0
4,38.15499997138977,learn,21845.00002861023,Wed Feb 11 2026 15:52:18 GMT-0600 (Central Standard Time),659897.5,A,fi,O,i,156,1,500.29999999701977,659397.200000003,7742,WL,B,13.0
4,38.271000146865845,learn,21728.999853134155,Wed Feb 11 2026 15:52:18 GMT-0600 (Central Standard Time),660013.900000006,A,fir,O,r,107,1,616.7000000029802,659397.200000003,7742,WL,B,13.0
4,38.437999963760376,learn,21562.000036239624,Wed Feb 11 2026 15:52:18 GMT-0600 (Central Standard Time),660180.200000003,A,fire,O,e,152,1,783.0,659397.200000003,7742,WL,B,13.0
4,38.88800001144409,learn,21111.99998855591,Wed Feb 11 2026 15:52:18 GMT-0600 (Central Standard Time),660630.700000003,A,fireenter,O,enter,435,1,1233.5,659397.200000003,7742,WL,B,13.0
4,50.26699995994568,learn,9733.000040054321,Wed Feb 11 2026 15:52:18 GMT-0600 (Central Standard Time),672009.299999997,A,p,O,p,11369,1,11378.39999999106,660630.900000006,7742,WL,B,14.0
4,50.51699995994568,learn,9483.000040054321,Wed Feb 11 2026 15:52:18 GMT-0600 (Central Standard Time),672259.1000000089,A,pi,O,i,230,1,11628.20000000298,660630.900000006,7742,WL,B,14.0
4,50.73399996757507,learn,9266.000032424927,Wed Feb 11 2026 15:52:18 GMT-0600 (Central Standard Time),672476.0,A,pip,O,p,196,1,11845.09999999404,660630.900000006,7742,WL,B,14.0
4,51.0,learn,9000.0,Wed Feb 11 2026 15:52:18 GMT-0600 (Central Standard Time),672742.1000000089,A,pipe,O,e,251,1,12111.20000000298,660630.900000006,7742,WL,B,14.0
4,51.366000175476074,learn,8633.999824523926,Wed Feb 11 2026 15:52:18 GMT-0600 (Central Standard Time),673109.0,A,pipeenter,O,enter,352,1,12478.09999999404,660630.900000006,7742,WL,B,14.0
4,60.01400017738342,learn,-14.000177383422852,Wed Feb 11 2026 15:52:18 GMT-0600 (Central Standard Time),681757.0,A,None,O,None,8644,1,8647.79999999702,673109.200000003,7742,WL,B,15.0
5,3.4649999141693115,learn,60000.0,Wed Feb 11 2026 15:52:18 GMT-0600 (Central Standard Time),760565.0,A,s,O,s,3452,1,3464.7999999970198,757100.200000003,7742,WL,B,1.0
5,4.131999969482422,learn,60000.0,Wed Feb 11 2026 15:52:18 GMT-0600 (Central Standard Time),761231.6000000089,A,st,O,t,659,1,4131.4000000059605,757100.200000003,7742,WL,B,1.0
5,4.415999889373779,learn,60000.0,Wed Feb 11 2026 15:52:18 GMT-0600 (Central Standard Time),761516.299999997,A,str,O,r,264,1,4416.0999999940395,757100.200000003,7742,WL,B,1.0
5,4.664000034332275,learn,60000.0,Wed Feb 11 2026 15:52:18 GMT-0600 (Central Standard Time),761763.6000000089,A,stre,O,e,226,1,4663.4000000059605,757100.200000003,7742,WL,B,1.0
5,4.796999931335449,learn,60000.0,Wed Feb 11 2026 15:52:18 GMT-0600 (Central Standard Time),761896.700000003,A,stree,O,e,123,1,4796.5,757100.200000003,7742,WL,B,1.0
5,5.063999891281128,learn,60000.0,Wed Feb 11 2026 15:52:18 GMT-0600 (Central Standard Time),762163.6000000089,A,street,O,t,247,1,5063.4000000059605,757100.200000003,7742,WL,B,1.0
5,5.496999979019165,learn,60000.0,Wed Feb 11 2026 15:52:18 GMT-0600 (Central Standard Time),762597.200000003,A,streetenter,O,enter,414,1,5497.0,757100.200000003,7742,WL,B,1.0
5,5.879999876022339,learn,60000.0,Wed Feb 11 2026 15:52:18 GMT-0600 (Central Standard Time),762980.299999997,A,g,O,g,377,1,382.79999999701977,762597.5,7742,WL,B,2.0
5,6.146999835968018,learn,60000.0,Wed Feb 11 2026 15:52:18 GMT-0600 (Central Standard Time),763246.6000000089,A,gr,O,r,247,1,649.1000000089407,762597.5,7742,WL,B,2.0
5,6.3480000495910645,learn,60000.0,Wed Feb 11 2026 15:52:18 GMT-0600 (Central Standard Time),763447.900000006,A,gra,O,a,192,1,850.4000000059605,762597.5,7742,WL,B,2.0
5,6.629999876022339,learn,60000.0,Wed Feb 11 2026 15:52:18 GMT-0600 (Central Standard Time),763729.6000000089,A,gras,O,s,270,1,1132.1000000089407,762597.5,7742,WL,B,2.0
5,6.763000011444092,learn,60000.0,Wed Feb 11 2026 15:52:18 GMT-0600 (Central Standard Time),763862.900000006,A,grass,O,s,126,1,1265.4000000059605,762597.5,7742,WL,B,2.0
5,7.253000020980835,learn,60000.0,Wed Feb 11 2026 15:52:18 GMT-0600 (Central Standard Time),764352.700000003,A,grassenter,O,enter,479,1,1755.2000000029802,762597.5,7742,WL,B,2.0
5,7.895999908447266,learn,60000.0,Wed Feb 11 2026 15:52:18 GMT-0600 (Central Standard Time),764995.900000006,A,d,O,d,639,1,643.1000000089407,764352.799999997,7742,WL,B,3.0
5,8.228999853134155,learn,60000.0,Wed Feb 11 2026 15:52:18 GMT-0600 (Central Standard Time),765328.5,A,do,O,o,315,1,975.7000000029802,764352.799999997,7742,WL,B,3.0
5,8.363999843597412,learn,60000.0,Wed Feb 11 2026 15:52:18 GMT-0600 (Central Standard Time),765463.6000000089,A,doo,O,o,119,1,1110.800000011921,764352.799999997,7742,WL,B,3.0
5,8.513000011444092,learn,60000.0,Wed Feb 11 2026 15:52:18 GMT-0600 (Central Standard Time),765612.799999997,A,door,O,r,144,1,1260.0,764352.799999997,7742,WL,B,3.0
5,8.928999900817871,learn,60000.0,Wed Feb 11 2026 15:52:18 GMT-0600 (Central Standard Time),766028.799999997,A,doorenter,O,enter,400,1,1676.0,764352.799999997,7742,WL,B,3.0
5,9.29699993133545,learn,60000.0,Wed Feb 11 2026 15:52:18 GMT-0600 (Central Standard Time),766397.200000003,A,a,O,a,365,1,368.29999999701977,766028.900000006,7742,WL,B,4.0
5,9.763000011444092,learn,60000.0,Wed Feb 11 2026 15:52:18 GMT-0600 (Central Standard Time),766862.6000000089,A,ar,O,r,457,1,833.7000000029802,766028.900000006,7742,WL,B,4.0
5,9.896999835968018,learn,60000.0,Wed Feb 11 2026 15:52:18 GMT-0600 (Central Standard Time),766997.1000000089,A,arm,O,m,121,1,968.2000000029802,766028.900000006,7742,WL,B,4.0
5,10.328999996185303,learn,60000.0,Wed Feb 11 2026 15:52:18 GMT-0600 (Central Standard Time),767428.700000003,A,armenter,O,enter,426,1,1399.7999999970198,766028.900000006,7742,WL,B,4.0
5,10.661999940872192,learn,60000.0,Wed Feb 11 2026 15:52:18 GMT-0600 (Central Standard Time),767762.200000003,A,s,O,s,314,1,333.29999999701977,767428.900000006,7742,WL,B,5.0
5,10.895999908447266,learn,60000.0,Wed Feb 11 2026 15:52:18 GMT-0600 (Central Standard Time),767995.799999997,A,st,O,t,214,1,566.8999999910593,767428.900000006,7742,WL,B,5.0
5,11.060999870300293,learn,60000.0,Wed Feb 11 2026 15:52:18 GMT-0600 (Central Standard Time),768161.1000000089,A,sta,O,a,156,1,732.2000000029802,767428.900000006,7742,WL,B,5.0
5,11.246999979019165,learn,60000.0,Wed Feb 11 2026 15:52:18 GMT-0600 (Central Standard Time),768346.700000003,A,star,O,r,165,1,917.7999999970198,767428.900000006,7742,WL,B,5.0
5,11.812000036239624,learn,60000.0,Wed Feb 11 2026 15:52:18 GMT-0600 (Central Standard Time),768911.900000006,A,starenter,O,enter,556,1,1483.0,767428.900000006,7742,WL,B,5.0
5,12.345999956130981,learn,60000.0,Wed Feb 11 2026 15:52:18 GMT-0600 (Central Standard Time),769445.400000006,A,w,O,w,512,1,533.2999999970198,768912.1000000089,7742,WL,B,6.0
5,12.444999933242798,learn,60000.0,Wed Feb 11 2026 15:52:18 GMT-0600 (Central Standard Time),769544.400000006,A,wi,O,i,89,1,632.2999999970198,768912.1000000089,7742,WL,B,6.0
5,12.694999933242798,learn,60000.0,Wed Feb 11 2026 15:52:18 GMT-0600 (Central Standard Time),769794.5,A,wif,O,f,238,1,882.3999999910593,768912.1000000089,7742,WL,B,6.0
5,12.878000020980835,learn,60000.0,Wed Feb 11 2026 15:52:18 GMT-0600 (Central Standard Time),769978.1000000089,A,wife,O,e,163,1,1066.0,768912.1000000089,7742,WL,B,6.0
5,13.277999877929688,learn,60000.0,Wed Feb 11 2026 15:52:18 GMT-0600 (Central Standard Time),770378.200000003,A,wifeenter,O,enter,390,1,1466.0999999940395,768912.1000000089,7742,WL,B,6.0
5,15.57800006866455,learn,60000.0,Wed Feb 11 2026 15:52:18 GMT-0600 (Central Standard Time),772678.0,A,w,O,w,2285,1,2299.5,770378.5,7742,WL,B,7.0
5,15.744999885559082,learn,60000.0,Wed Feb 11 2026 15:52:18 GMT-0600 (Central Standard Time),772844.700000003,A,wi,O,i,161,1,2466.2000000029802,770378.5,7742,WL,B,7.0
5,15.99399995803833,learn,60000.0,Wed Feb 11 2026 15:52:18 GMT-0600 (Central Standard Time),773094.0,A,win,O,n,244,1,2715.5,770378.5,7742,WL,B,7.0
5,16.26099991798401,learn,60000.0,Wed Feb 11 2026 15:52:18 GMT-0600 (Central Standard Time),773360.900000006,A,wind,O,d,255,1,2982.4000000059605,770378.5,7742,WL,B,7.0
5,16.359999895095825,learn,60000.0,Wed Feb 11 2026 15:52:18 GMT-0600 (Central Standard Time),773459.6000000089,A,windo,O,o,85,1,3081.1000000089407,770378.5,7742,WL,B,7.0
5,16.675999879837036,learn,60000.0,Wed Feb 11 2026 15:52:18 GMT-0600 (Central Standard Time),773776.299999997,A,window,O,w,309,1,3397.7999999970198,770378.5,7742,WL,B,7.0
5,16.97699999809265,learn,60000.0,Wed Feb 11 2026 15:52:18 GMT-0600 (Central Standard Time),774076.700000003,A,windowenter,O,enter,293,1,3698.2000000029802,770378.5,7742,WL,B,7.0
5,17.427000045776367,learn,60000.0,Wed Feb 11 2026 15:52:18 GMT-0600 (Central Standard Time),774526.900000006,A,c,O,c,434,1,450.0,774076.900000006,7742,WL,B,8.0
5,17.628000020980835,learn,60000.0,Wed Feb 11 2026 15:52:18 GMT-0600 (Central Standard Time),774727.6000000089,A,ci,O,i,183,1,650.7000000029802,774076.900000006,7742,WL,B,8.0
5,17.859999895095825,learn,60000.0,Wed Feb 11 2026 15:52:18 GMT-0600 (Central Standard Time),774959.6000000089,A,cit,O,t,216,1,882.7000000029802,774076.900000006,7742,WL,B,8.0
5,17.97699999809265,learn,60000.0,Wed Feb 11 2026 15:52:18 GMT-0600 (Central Standard Time),775076.799999997,A,city,O,y,97,1,999.8999999910593,774076.900000006,7742,WL,B,8.0
5,18.509999990463257,learn,60000.0,Wed Feb 11 2026 15:52:18 GMT-0600 (Central Standard Time),775609.700000003,A,cityenter,O,enter,521,1,1532.7999999970198,774076.900000006,7742,WL,B,8.0
5,22.858999967575073,learn,60000.0,Wed Feb 11 2026 15:52:18 GMT-0600 (Central Standard Time),779959.200000003,A,l,O,l,4328,1,4349.0999999940395,775610.1000000089,7742,WL,B,9.0
5,22.95799994468689,learn,60000.0,Wed Feb 11 2026 15:52:18 GMT-0600 (Central Standard Time),780058.299999997,A,la,O,a,80,1,4448.199999988079,775610.1000000089,7742,WL,B,9.0
5,23.125,learn,60000.0,Wed Feb 11 2026 15:52:18 GMT-0600 (Central Standard Time),780224.799999997,A,lak,O,k,154,1,4614.699999988079,775610.1000000089,7742,WL,B,9.0
5,23.240999937057495,learn,60000.0,Wed Feb 11 2026 15:52:18 GMT-0600 (Central Standard Time),780340.900000006,A,lake,O,e,111,1,4730.79999999702,775610.1000000089,7742,WL,B,9.0
5,23.757999897003174,learn,60000.0,Wed Feb 11 2026 15:52:18 GMT-0600 (Central Standard Time),780858.299999997,A,lakeenter,O,enter,508,1,5248.199999988079,775610.1000000089,7742,WL,B,9.0
5,24.590999841690063,learn,60000.0,Wed Feb 11 2026 15:52:18 GMT-0600 (Central Standard Time),781690.900000006,A,p,O,p,813,1,832.5,780858.400000006,7742,WL,B,10.0
5,24.79099988937378,learn,60000.0,Wed Feb 11 2026 15:52:18 GMT-0600 (Central Standard Time),781891.5,A,pu,O,u,190,1,1033.0999999940395,780858.400000006,7742,WL,B,10.0
5,25.007999897003174,learn,60000.0,Wed Feb 11 2026 15:52:18 GMT-0600 (Central Standard Time),782108.299999997,A,pup,O,p,194,1,1249.8999999910593,780858.400000006,7742,WL,B,10.0
5,25.556999921798706,learn,60000.0,Wed Feb 11 2026 15:52:18 GMT-0600 (Central Standard Time),782657.0,A,pupi,O,i,528,1,1798.5999999940395,780858.400000006,7742,WL,B,10.0
5,25.858999967575073,learn,60000.0,Wed Feb 11 2026 15:52:18 GMT-0600 (Central Standard Time),782958.799999997,A,pupil,O,l,286,1,2100.3999999910593,780858.400000006,7742,WL,B,10.0
5,26.289999961853027,learn,60000.0,Wed Feb 11 2026 15:52:18 GMT-0600 (Central Standard Time),783390.299999997,A,pupilenter,O,enter,423,1,2531.8999999910593,780858.400000006,7742,WL,B,10.0
5,27.657999992370605,learn,60000.0,Wed Feb 11 2026 15:52:18 GMT-0600 (Central Standard Time),784757.799999997,A,c,O,c,1363,1,1367.2999999970198,783390.5,7742,WL,B,11.0
5,27.92199993133545,learn,60000.0,Wed Feb 11 2026 15:52:18 GMT-0600 (Central Standard Time),785022.5,A,ca,O,a,256,1,1632.0,783390.5,7742,WL,B,11.0
5,28.240999937057495,learn,60000.0,Wed Feb 11 2026 15:52:18 GMT-0600 (Central Standard Time),785340.900000006,A,cab,O,b,304,1,1950.4000000059605,783390.5,7742,WL,B,11.0
5,28.35599994659424,learn,60000.0,Wed Feb 11 2026 15:52:18 GMT-0600 (Central Standard Time),785456.700000003,A,cabi,O,i,98,1,2066.2000000029802,783390.5,7742,WL,B,11.0
5,28.473999977111816,learn,60000.0,Wed Feb 11 2026 15:52:18 GMT-0600 (Central Standard Time),785574.200000003,A,cabin,O,n,96,1,2183.7000000029802,783390.5,7742,WL,B,11.0
5,29.056999921798706,learn,60000.0,Wed Feb 11 2026 15:52:18 GMT-0600 (Central Standard Time),786156.900000006,A,cabinenter,O,enter,561,1,2766.4000000059605,783390.5,7742,WL,B,11.0
5,31.488999843597412,learn,60000.0,Wed Feb 11 2026 15:52:18 GMT-0600 (Central Standard Time),788588.799999997,A,c,O,c,2427,1,2431.699999988079,786157.1000000089,7742,WL,B,12.0
5,31.621000051498413,learn,60000.0,Wed Feb 11 2026 15:52:18 GMT-0600 (Central Standard Time),788721.6000000089,A,cl,O,l,122,1,2564.5,786157.1000000089,7742,WL,B,12.0
5,31.82099986076355,learn,60000.0,Wed Feb 11 2026 15:52:18 GMT-0600 (Central Standard Time),788921.6000000089,A,clo,O,o,190,1,2764.5,786157.1000000089,7742,WL,B,12.0
5,32.105000019073486,learn,60000.0,Wed Feb 11 2026 15:52:18 GMT-0600 (Central Standard Time),789205.299999997,A,cloc,O,c,278,1,3048.199999988079,786157.1000000089,7742,WL,B,12.0
5,32.204999923706055,learn,60000.0,Wed Feb 11 2026 15:52:18 GMT-0600 (Central Standard Time),789304.900000006,A,clock,O,k,80,1,3147.7999999970198,786157.1000000089,7742,WL,B,12.0
5,32.50600004196167,learn,60000.0,Wed Feb 11 2026 15:52:18 GMT-0600 (Central Standard Time),789605.900000006,A,clockenter,O,enter,280,1,3448.7999999970198,786157.1000000089,7742,WL,B,12.0
5,33.15400004386902,learn,60000.0,Wed Feb 11 2026 15:52:18 GMT-0600 (Central Standard Time),790254.0,A,p,O,p,632,1,647.7999999970198,789606.200000003,7742,WL,B,13.0
5,33.537999868392944,learn,60000.0,Wed Feb 11 2026 15:52:18 GMT-0600 (Central Standard Time),790637.799999997,A,pi,O,i,368,1,1031.5999999940395,789606.200000003,7742,WL,B,13.0
5,33.704999923706055,learn,60000.0,Wed Feb 11 2026 15:52:18 GMT-0600 (Central Standard Time),790805.0,A,pip,O,p,153,1,1198.7999999970198,789606.200000003,7742,WL,B,13.0
5,34.5699999332428,learn,60000.0,Wed Feb 11 2026 15:52:18 GMT-0600 (Central Standard Time),791670.200000003,A,pipenter,O,enter,858,1,2064.0,789606.200000003,7742,WL,B,13.0
5,94.58500003814697,learn,60000.0,Wed Feb 11 2026 15:52:18 GMT-0600 (Central Standard Time),851685.6000000089,A,None,O,None,60011,1,60015.20000000298,791670.400000006,7742,WL,B,14.0
6,3.797999858856201,distr,56202.0001411438,Wed Feb 11 2026 15:52:18 GMT-0600 (Central Standard Time),941088.900000006,B,l,O,l,3789,1,3798.2000000029802,937290.700000003,7742,WL,B,1.0
6,4.015999794006348,distr,55984.00020599365,Wed Feb 11 2026 15:52:18 GMT-0600 (Central Standard Time),941306.6000000089,B,li,O,i,207,1,4015.9000000059605,937290.700000003,7742,WL,B,1.0
6,4.431999921798706,distr,55568.000078201294,Wed Feb 11 2026 15:52:18 GMT-0600 (Central Standard Time),941722.400000006,B,lip,O,p,403,1,4431.70000000298,937290.700000003,7742,WL,B,1.0
6,4.914999961853027,distr,55085.00003814697,Wed Feb 11 2026 15:52:18 GMT-0600 (Central Standard Time),942205.799999997,B,lipenter,O,enter,470,1,4915.0999999940395,937290.700000003,7742,WL,B,1.0
6,5.46399998664856,distr,54536.00001335144,Wed Feb 11 2026 15:52:18 GMT-0600 (Central Standard Time),942755.299999997,B,o,O,o,538,1,549.3999999910593,942205.900000006,7742,WL,B,2.0
6,5.680999994277954,distr,54319.000005722046,Wed Feb 11 2026 15:52:18 GMT-0600 (Central Standard Time),942972.0,B,oc,O,c,212,1,766.0999999940395,942205.900000006,7742,WL,B,2.0
6,5.9659998416900635,distr,54034.00015830994,Wed Feb 11 2026 15:52:18 GMT-0600 (Central Standard Time),943257.0,B,oce,O,e,276,1,1051.0999999940395,942205.900000006,7742,WL,B,2.0
6,6.181999921798706,distr,53818.000078201294,Wed Feb 11 2026 15:52:18 GMT-0600 (Central Standard Time),943472.900000006,B,ocea,O,a,206,1,1267.0,942205.900000006,7742,WL,B,2.0
6,6.31499981880188,distr,53685.00018119812,Wed Feb 11 2026 15:52:18 GMT-0600 (Central Standard Time),943605.799999997,B,ocean,O,n,127,1,1399.8999999910593,942205.900000006,7742,WL,B,2.0
6,6.648000001907349,distr,53351.99999809265,Wed Feb 11 2026 15:52:18 GMT-0600 (Central Standard Time),943939.1000000089,B,oceanenter,O,enter,322,1,1733.2000000029802,942205.900000006,7742,WL,B,2.0
6,7.0309998989105225,distr,52969.00010108948,Wed Feb 11 2026 15:52:18 GMT-0600 (Central Standard Time),944322.0,B,b,O,b,373,1,382.70000000298023,943939.299999997,7742,WL,B,3.0
6,7.230999946594238,distr,52769.00005340576,Wed Feb 11 2026 15:52:18 GMT-0600 (Central Standard Time),944521.6000000089,B,ba,O,a,189,1,582.3000000119209,943939.299999997,7742,WL,B,3.0
6,7.363999843597412,distr,52636.00015640259,Wed Feb 11 2026 15:52:18 GMT-0600 (Central Standard Time),944654.799999997,B,bab,O,b,126,1,715.5,943939.299999997,7742,WL,B,3.0
6,7.880999803543091,distr,52119.00019645691,Wed Feb 11 2026 15:52:18 GMT-0600 (Central Standard Time),945171.400000006,B,baby,O,y,505,1,1232.1000000089407,943939.299999997,7742,WL,B,3.0
6,8.480999946594238,distr,51519.00005340576,Wed Feb 11 2026 15:52:18 GMT-0600 (Central Standard Time),945771.6000000089,B,babyenter,O,enter,597,1,1832.300000011921,943939.299999997,7742,WL,B,3.0
6,10.77999997138977,distr,49220.00002861023,Wed Feb 11 2026 15:52:18 GMT-0600 (Central Standard Time),948070.400000006,B,c,O,c,2284,1,2298.7000000029802,945771.700000003,7742,WL,B,4.0
6,10.879999876022339,distr,49120.00012397766,Wed Feb 11 2026 15:52:18 GMT-0600 (Central Standard Time),948171.0,B,co,O,o,97,1,2399.2999999970198,945771.700000003,7742,WL,B,4.0
6,10.962999820709229,distr,49037.00017929077,Wed Feb 11 2026 15:52:18 GMT-0600 (Central Standard Time),948253.5,B,coi,O,i,76,1,2481.7999999970198,945771.700000003,7742,WL,B,4.0
6,11.096999883651733,distr,48903.00011634827,Wed Feb 11 2026 15:52:18 GMT-0600 (Central Standard Time),948387.799999997,B,coin,O,n,130,1,2616.0999999940395,945771.700000003,7742,WL,B,4.0
6,11.679999828338623,distr,48320.00017166138,Wed Feb 11 2026 15:52:18 GMT-0600 (Central Standard Time),948971.200000003,B,coinenter,O,enter,562,1,3199.5,945771.700000003,7742,WL,B,4.0
6,14.378999948501587,distr,45621.00005149841,Wed Feb 11 2026 15:52:18 GMT-0600 (Central Standard Time),951669.700000003,B,b,O,b,2678,1,2698.2000000029802,948971.5,7742,WL,B,5.0
6,14.577999830245972,distr,45422.00016975403,Wed Feb 11 2026 15:52:18 GMT-0600 (Central Standard Time),951869.200000003,B,bu,O,u,184,1,2897.7000000029802,948971.5,7742,WL,B,5.0
6,14.728999853134155,distr,45271.000146865845,Wed Feb 11 2026 15:52:18 GMT-0600 (Central Standard Time),952020.299999997,B,bui,O,i,147,1,3048.7999999970198,948971.5,7742,WL,B,5.0
6,14.961999893188477,distr,45038.00010681152,Wed Feb 11 2026 15:52:18 GMT-0600 (Central Standard Time),952253.1000000089,B,buil,O,l,228,1,3281.6000000089407,948971.5,7742,WL,B,5.0
6,15.143999814987183,distr,44856.00018501282,Wed Feb 11 2026 15:52:18 GMT-0600 (Central Standard Time),952435.400000006,B,build,O,d,178,1,3463.9000000059605,948971.5,7742,WL,B,5.0
6,15.227999925613403,distr,44772.0000743866,Wed Feb 11 2026 15:52:18 GMT-0600 (Central Standard Time),952518.5,B,buildi,O,i,68,1,3547.0,948971.5,7742,WL,B,5.0
6,15.310999870300293,distr,44689.00012969971,Wed Feb 11 2026 15:52:18 GMT-0600 (Central Standard Time),952602.299999997,B,buildin,O,n,73,1,3630.7999999970198,948971.5,7742,WL,B,5.0
6,15.426999807357788,distr,44573.00019264221,Wed Feb 11 2026 15:52:18 GMT-0600 (Central Standard Time),952718.400000006,B,building,O,g,113,1,3746.9000000059605,948971.5,7742,WL,B,5.0
6,15.944999933242798,distr,44055.0000667572,Wed Feb 11 2026 15:52:18 GMT-0600 (Central Standard Time),953235.5,B,buildingenter,O,enter,512,1,4264.0,948971.5,7742,WL,B,5.0
6,19.811999797821045,distr,40188.000202178955,Wed Feb 11 2026 15:52:18 GMT-0600 (Central Standard Time),957102.700000003,B,c,O,c,3862,1,3867.0,953235.700000003,7742,WL,B,6.0
6,20.32699990272522,distr,39673.00009727478,Wed Feb 11 2026 15:52:18 GMT-0600 (Central Standard Time),957618.1000000089,B,ce,O,e,502,1,4382.4000000059605,953235.700000003,7742,WL,B,6.0
6,20.860999822616577,distr,39139.00017738342,Wed Feb 11 2026 15:52:18 GMT-0600 (Central Standard Time),958152.1000000089,B,cel,O,l,526,1,4916.4000000059605,953235.700000003,7742,WL,B,6.0
6,20.99399995803833,distr,39006.00004196167,Wed Feb 11 2026 15:52:18 GMT-0600 (Central Standard Time),958285.200000003,B,cell,O,l,117,1,5049.5,953235.700000003,7742,WL,B,6.0
6,21.526999950408936,distr,38473.000049591064,Wed Feb 11 2026 15:52:18 GMT-0600 (Central Standard Time),958818.1000000089,B,cellenter,O,enter,512,1,5582.4000000059605,953235.700000003,7742,WL,B,6.0
6,28.806999921798706,distr,31193.000078201294,Wed Feb 11 2026 15:52:18 GMT-0600 (Central Standard Time),966098.400000006,B,s,O,s,7268,1,7280.100000008941,958818.299999997,7742,WL,B,7.0
6,29.29099988937378,distr,30709.00011062622,Wed Feb 11 2026 15:52:18 GMT-0600 (Central Standard Time),966582.0,B,st,O,t,474,1,7763.70000000298,958818.299999997,7742,WL,B,7.0
6,29.47499990463257,distr,30525.00009536743,Wed Feb 11 2026 15:52:18 GMT-0600 (Central Standard Time),966766.400000006,B,sta,O,a,181,1,7948.100000008941,958818.299999997,7742,WL,B,7.0
6,29.62399983406067,distr,30376.00016593933,Wed Feb 11 2026 15:52:18 GMT-0600 (Central Standard Time),966915.700000003,B,star,O,r,133,1,8097.4000000059605,958818.299999997,7742,WL,B,7.0
6,30.222999811172485,distr,29777.000188827515,Wed Feb 11 2026 15:52:18 GMT-0600 (Central Standard Time),967514.6000000089,B,starenter,O,enter,587,1,8696.300000011921,958818.299999997,7742,WL,B,7.0
6,36.53699994087219,distr,23463.000059127808,Wed Feb 11 2026 15:52:18 GMT-0600 (Central Standard Time),973828.400000006,B,d,O,d,6299,1,6313.5,967514.900000006,7742,WL,B,8.0
6,36.93899989128113,distr,23061.000108718872,Wed Feb 11 2026 15:52:18 GMT-0600 (Central Standard Time),974230.6000000089,B,dr,O,r,387,1,6715.70000000298,967514.900000006,7742,WL,B,8.0
6,37.121999979019165,distr,22878.000020980835,Wed Feb 11 2026 15:52:18 GMT-0600 (Central Standard Time),974413.400000006,B,dre,O,e,177,1,6898.5,967514.900000006,7742,WL,B,8.0
6,37.472999811172485,distr,22527.000188827515,Wed Feb 11 2026 15:52:18 GMT-0600 (Central Standard Time),974764.0,B,dres,O,s,337,1,7249.0999999940395,967514.900000006,7742,WL,B,8.0
6,37.65599989891052,distr,22344.000101089478,Wed Feb 11 2026 15:52:18 GMT-0600 (Central Standard Time),974947.200000003,B,dress,O,s,172,1,7432.29999999702,967514.900000006,7742,WL,B,8.0
6,37.92199993133545,distr,22078.00006866455,Wed Feb 11 2026 15:52:18 GMT-0600 (Central Standard Time),975213.200000003,B,dressenter,O,enter,252,1,7698.29999999702,967514.900000006,7742,WL,B,8.0
6,38.22099995613098,distr,21779.00004386902,Wed Feb 11 2026 15:52:18 GMT-0600 (Central Standard Time),975512.6000000089,B,s,O,s,281,1,299.1000000089407,975213.5,7742,WL,B,9.0
6,38.47199988365173,distr,21528.000116348267,Wed Feb 11 2026 15:52:18 GMT-0600 (Central Standard Time),975763.0,B,st,O,t,237,1,549.5,975213.5,7742,WL,B,9.0
6,38.704999923706055,distr,21295.000076293945,Wed Feb 11 2026 15:52:18 GMT-0600 (Central Standard Time),975996.0,B,ste,O,e,220,1,782.5,975213.5,7742,WL,B,9.0
6,38.88800001144409,distr,21111.99998855591,Wed Feb 11 2026 15:52:18 GMT-0600 (Central Standard Time),976179.1000000089,B,stea,O,a,167,1,965.6000000089407,975213.5,7742,WL,B,9.0
6,39.08699989318848,distr,20913.000106811523,Wed Feb 11 2026 15:52:18 GMT-0600 (Central Standard Time),976377.900000006,B,steam,O,m,186,1,1164.4000000059605,975213.5,7742,WL,B,9.0
6,39.36999988555908,distr,20630.000114440918,Wed Feb 11 2026 15:52:18 GMT-0600 (Central Standard Time),976660.900000006,B,steamenter,O,enter,276,1,1447.4000000059605,975213.5,7742,WL,B,9.0
6,60.01599979400635,distr,-15.999794006347656,Wed Feb 11 2026 15:52:18 GMT-0600 (Central Standard Time),997306.799999997,B,None,O,None,20641,1,20645.59999999404,976661.200000003,7742,WL,B,10.0
7,1.3660001754760742,immed,58633.999824523926,Wed Feb 11 2026 15:52:18 GMT-0600 (Central Standard Time),1013333.900000006,A,s,O,s,1359,1,1365.5,1011968.400000006,7742,WL,B,1.0
7,1.749000072479248,immed,58250.99992752075,Wed Feb 11 2026 15:52:18 GMT-0600 (Central Standard Time),1013717.200000003,A,st,O,t,375,1,1748.7999999970198,1011968.400000006,7742,WL,B,1.0
7,1.9820001125335693,immed,58017.99988746643,Wed Feb 11 2026 15:52:18 GMT-0600 (Central Standard Time),1013950.200000003,A,str,O,r,224,1,1981.7999999970198,1011968.400000006,7742,WL,B,1.0
7,2.249000072479248,immed,57750.99992752075,Wed Feb 11 2026 15:52:18 GMT-0600 (Central Standard Time),1014217.299999997,A,stre,O,e,257,1,2248.8999999910593,1011968.400000006,7742,WL,B,1.0
7,2.4010000228881836,immed,57598.99997711182,Wed Feb 11 2026 15:52:18 GMT-0600 (Central Standard Time),1014369.0,A,stree,O,e,133,1,2400.5999999940395,1011968.400000006,7742,WL,B,1.0
7,2.632000207901001,immed,57367.999792099,Wed Feb 11 2026 15:52:18 GMT-0600 (Central Standard Time),1014599.799999997,A,street,O,t,214,1,2631.3999999910593,1011968.400000006,7742,WL,B,1.0
7,3.0310001373291016,immed,56968.9998626709,Wed Feb 11 2026 15:52:18 GMT-0600 (Central Standard Time),1014999.700000003,A,streetenter,O,enter,392,1,3031.2999999970198,1011968.400000006,7742,WL,B,1.0
7,3.4810001850128174,immed,56518.99981498718,Wed Feb 11 2026 15:52:18 GMT-0600 (Central Standard Time),1015449.0,A,d,O,d,439,1,449.09999999403954,1014999.900000006,7742,WL,B,2.0
7,3.748000144958496,immed,56251.999855041504,Wed Feb 11 2026 15:52:18 GMT-0600 (Central Standard Time),1015716.5,A,do,O,o,262,1,716.5999999940395,1014999.900000006,7742,WL,B,2.0
7,3.8980000019073486,immed,56101.99999809265,Wed Feb 11 2026 15:52:18 GMT-0600 (Central Standard Time),1015866.400000006,A,doo,O,o,135,1,866.5,1014999.900000006,7742,WL,B,2.0
7,3.9639999866485596,immed,56036.00001335144,Wed Feb 11 2026 15:52:18 GMT-0600 (Central Standard Time),1015932.0,A,door,O,r,57,1,932.0999999940395,1014999.900000006,7742,WL,B,2.0
7,4.332000017166138,immed,55667.99998283386,Wed Feb 11 2026 15:52:18 GMT-0600 (Central Standard Time),1016299.900000006,A,doorenter,O,enter,354,1,1300.0,1014999.900000006,7742,WL,B,2.0
7,4.732000112533569,immed,55267.99988746643,Wed Feb 11 2026 15:52:18 GMT-0600 (Central Standard Time),1016700.1000000089,A,g,O,g,387,1,400.0,1016300.1000000089,7742,WL,B,3.0
7,4.968000173568726,immed,55031.999826431274,Wed Feb 11 2026 15:52:18 GMT-0600 (Central Standard Time),1016936.1000000089,A,gr,O,r,226,1,636.0,1016300.1000000089,7742,WL,B,3.0
7,5.38100004196167,immed,54618.99995803833,Wed Feb 11 2026 15:52:18 GMT-0600 (Central Standard Time),1017349.200000003,A,gra,O,a,398,1,1049.0999999940395,1016300.1000000089,7742,WL,B,3.0
7,5.680999994277954,immed,54319.000005722046,Wed Feb 11 2026 15:52:18 GMT-0600 (Central Standard Time),1017649.400000006,A,gran,O,n,279,1,1349.2999999970198,1016300.1000000089,7742,WL,B,3.0
7,5.79800009727478,immed,54201.99990272522,Wed Feb 11 2026 15:52:18 GMT-0600 (Central Standard Time),1017766.1000000089,A,grann,O,n,100,1,1466.0,1016300.1000000089,7742,WL,B,3.0
7,6.164000034332275,immed,53835.999965667725,Wed Feb 11 2026 15:52:18 GMT-0600 (Central Standard Time),1018133.1000000089,A,grannenter,O,enter,360,1,1833.0,1016300.1000000089,7742,WL,B,3.0
7,14.628000020980835,immed,45371.999979019165,Wed Feb 11 2026 15:52:18 GMT-0600 (Central Standard Time),1026596.900000006,A,d,O,d,8458,1,8463.70000000298,1018133.200000003,7742,WL,B,4.0
7,14.944000005722046,immed,45055.999994277954,Wed Feb 11 2026 15:52:18 GMT-0600 (Central Standard Time),1026912.900000006,A,do,O,o,298,1,8779.70000000298,1018133.200000003,7742,WL,B,4.0
7,15.078999996185303,immed,44921.0000038147,Wed Feb 11 2026 15:52:18 GMT-0600 (Central Standard Time),1027047.1000000089,A,doo,O,o,118,1,8913.90000000596,1018133.200000003,7742,WL,B,4.0
7,15.210000038146973,immed,44789.99996185303,Wed Feb 11 2026 15:52:18 GMT-0600 (Central Standard Time),1027178.799999997,A,door,O,r,118,1,9045.59999999404,1018133.200000003,7742,WL,B,4.0
7,15.710000038146973,immed,44289.99996185303,Wed Feb 11 2026 15:52:18 GMT-0600 (Central Standard Time),1027679.1000000089,A,doorw,O,w,482,1,9545.90000000596,1018133.200000003,7742,WL,B,4.0
7,15.794000148773193,immed,44205.99985122681,Wed Feb 11 2026 15:52:18 GMT-0600 (Central Standard Time),1027763.0,A,doorwi,O,i,72,1,9629.79999999702,1018133.200000003,7742,WL,B,4.0
7,15.944000005722046,immed,44055.999994277954,Wed Feb 11 2026 15:52:18 GMT-0600 (Central Standard Time),1027913.0,A,doorwin,O,n,138,1,9779.79999999702,1018133.200000003,7742,WL,B,4.0
7,16.128000020980835,immed,43871.999979019165,Wed Feb 11 2026 15:52:18 GMT-0600 (Central Standard Time),1028096.900000006,A,doorwind,O,d,166,1,9963.70000000298,1018133.200000003,7742,WL,B,4.0
7,16.22699999809265,immed,43773.00000190735,Wed Feb 11 2026 15:52:18 GMT-0600 (Central Standard Time),1028195.6000000089,A,doorwindo,O,o,93,1,10062.40000000596,1018133.200000003,7742,WL,B,4.0
7,16.72699999809265,immed,43273.00000190735,Wed Feb 11 2026 15:52:18 GMT-0600 (Central Standard Time),1028695.400000006,A,doorwind,O,backspace,482,1,10562.20000000298,1018133.200000003,7742,WL,B,4.0
7,16.89300012588501,immed,43106.99987411499,Wed Feb 11 2026 15:52:18 GMT-0600 (Central Standard Time),1028862.0,A,doorwin,O,backspace,147,1,10728.79999999702,1018133.200000003,7742,WL,B,4.0
7,17.027000188827515,immed,42972.999811172485,Wed Feb 11 2026 15:52:18 GMT-0600 (Central Standard Time),1028995.400000006,A,doorwi,O,backspace,119,1,10862.20000000298,1018133.200000003,7742,WL,B,4.0
7,17.177000045776367,immed,42822.99995422363,Wed Feb 11 2026 15:52:18 GMT-0600 (Central Standard Time),1029145.200000003,A,doorw,O,backspace,137,1,11012.0,1018133.200000003,7742,WL,B,4.0
7,17.31000018119812,immed,42689.99981880188,Wed Feb 11 2026 15:52:18 GMT-0600 (Central Standard Time),1029278.6000000089,A,door,O,backspace,124,1,11145.40000000596,1018133.200000003,7742,WL,B,4.0
7,18.212000131607056,immed,41787.999868392944,Wed Feb 11 2026 15:52:18 GMT-0600 (Central Standard Time),1030180.0,A,doorenter,O,enter,887,1,12046.79999999702,1018133.200000003,7742,WL,B,4.0
7,18.943000078201294,immed,41056.999921798706,Wed Feb 11 2026 15:52:18 GMT-0600 (Central Standard Time),1030911.6000000089,A,w,O,w,715,1,731.3000000119209,1030180.299999997,7742,WL,B,5.0
7,19.109000205993652,immed,40890.99979400635,Wed Feb 11 2026 15:52:18 GMT-0600 (Central Standard Time),1031077.299999997,A,wi,O,i,151,1,897.0,1030180.299999997,7742,WL,B,5.0
7,19.259000062942505,immed,40740.999937057495,Wed Feb 11 2026 15:52:18 GMT-0600 (Central Standard Time),1031227.700000003,A,win,O,n,144,1,1047.4000000059605,1030180.299999997,7742,WL,B,5.0
7,19.444000005722046,immed,40555.999994277954,Wed Feb 11 2026 15:52:18 GMT-0600 (Central Standard Time),1031412.400000006,A,wind,O,d,169,1,1232.1000000089407,1030180.299999997,7742,WL,B,5.0
7,19.575999975204468,immed,40424.00002479553,Wed Feb 11 2026 15:52:18 GMT-0600 (Central Standard Time),1031544.299999997,A,windo,O,o,121,1,1364.0,1030180.299999997,7742,WL,B,5.0
7,19.7260000705719,immed,40273.9999294281,Wed Feb 11 2026 15:52:18 GMT-0600 (Central Standard Time),1031694.700000003,A,window,O,w,142,1,1514.4000000059605,1030180.299999997,7742,WL,B,5.0
7,20.06000018119812,immed,39939.99981880188,Wed Feb 11 2026 15:52:18 GMT-0600 (Central Standard Time),1032028.5,A,windowenter,O,enter,328,1,1848.2000000029802,1030180.299999997,7742,WL,B,5.0
7,21.443000078201294,immed,38556.999921798706,Wed Feb 11 2026 15:52:18 GMT-0600 (Central Standard Time),1033411.200000003,A,w,O,w,1371,1,1382.4000000059605,1032028.799999997,7742,WL,B,6.0
7,21.54200005531311,immed,38457.99994468689,Wed Feb 11 2026 15:52:18 GMT-0600 (Central Standard Time),1033510.299999997,A,wi,O,i,91,1,1481.5,1032028.799999997,7742,WL,B,6.0
7,21.777000188827515,immed,38222.999811172485,Wed Feb 11 2026 15:52:18 GMT-0600 (Central Standard Time),1033745.6000000089,A,wif,O,f,215,1,1716.800000011921,1032028.799999997,7742,WL,B,6.0
7,21.942000150680542,immed,38057.99984931946,Wed Feb 11 2026 15:52:18 GMT-0600 (Central Standard Time),1033910.6000000089,A,wife,O,e,146,1,1881.800000011921,1032028.799999997,7742,WL,B,6.0
7,22.44099998474121,immed,37559.00001525879,Wed Feb 11 2026 15:52:18 GMT-0600 (Central Standard Time),1034410.0,A,wifeenter,O,enter,486,1,2381.2000000029802,1032028.799999997,7742,WL,B,6.0
7,25.70900011062622,immed,34290.99988937378,Wed Feb 11 2026 15:52:18 GMT-0600 (Central Standard Time),1037677.400000006,A,a,O,a,3262,1,3267.2000000029802,1034410.200000003,7742,WL,B,7.0
7,25.924000024795532,immed,34075.99997520447,Wed Feb 11 2026 15:52:18 GMT-0600 (Central Standard Time),1037892.200000003,A,ar,O,r,196,1,3482.0,1034410.200000003,7742,WL,B,7.0
7,26.157000064849854,immed,33842.99993515015,Wed Feb 11 2026 15:52:18 GMT-0600 (Central Standard Time),1038126.0,A,arm,O,m,213,1,3715.7999999970198,1034410.200000003,7742,WL,B,7.0
7,26.841000080108643,immed,33158.99991989136,Wed Feb 11 2026 15:52:18 GMT-0600 (Central Standard Time),1038809.5,A,armenter,O,enter,672,1,4399.29999999702,1034410.200000003,7742,WL,B,7.0
7,30.740000009536743,immed,29259.999990463257,Wed Feb 11 2026 15:52:18 GMT-0600 (Central Standard Time),1042709.0,A,c,O,c,3894,1,3898.3999999910593,1038810.6000000089,7742,WL,B,8.0
7,30.891000032424927,immed,29108.999967575073,Wed Feb 11 2026 15:52:18 GMT-0600 (Central Standard Time),1042859.5,A,ci,O,i,142,1,4048.8999999910593,1038810.6000000089,7742,WL,B,8.0
7,31.10700011253357,immed,28892.99988746643,Wed Feb 11 2026 15:52:18 GMT-0600 (Central Standard Time),1043075.5,A,cit,O,t,212,1,4264.899999991059,1038810.6000000089,7742,WL,B,8.0
7,31.240000009536743,immed,28759.999990463257,Wed Feb 11 2026 15:52:18 GMT-0600 (Central Standard Time),1043208.299999997,A,city,O,y,113,1,4397.699999988079,1038810.6000000089,7742,WL,B,8.0
7,31.955000162124634,immed,28044.999837875366,Wed Feb 11 2026 15:52:18 GMT-0600 (Central Standard Time),1043923.900000006,A,cityenter,O,enter,694,1,5113.29999999702,1038810.6000000089,7742,WL,B,8.0
7,34.88900017738342,immed,25110.999822616577,Wed Feb 11 2026 15:52:18 GMT-0600 (Central Standard Time),1046857.200000003,A,l,O,l,2924,1,2933.2000000029802,1043924.0,7742,WL,B,9.0
7,35.43900012969971,immed,24560.999870300293,Wed Feb 11 2026 15:52:18 GMT-0600 (Central Standard Time),1047407.5,A,la,O,a,545,1,3483.5,1043924.0,7742,WL,B,9.0
7,35.5550000667572,immed,24444.999933242798,Wed Feb 11 2026 15:52:18 GMT-0600 (Central Standard Time),1047523.200000003,A,lak,O,k,110,1,3599.2000000029802,1043924.0,7742,WL,B,9.0
7,35.73800015449524,immed,24261.99984550476,Wed Feb 11 2026 15:52:18 GMT-0600 (Central Standard Time),1047706.799999997,A,lake,O,e,162,1,3782.7999999970198,1043924.0,7742,WL,B,9.0
7,36.23800015449524,immed,23761.99984550476,Wed Feb 11 2026 15:52:18 GMT-0600 (Central Standard Time),1048206.900000006,A,lakeenter,O,enter,491,1,4282.9000000059605,1043924.0,7742,WL,B,9.0
7,37.45300006866455,immed,22546.99993133545,Wed Feb 11 2026 15:52:18 GMT-0600 (Central Standard Time),1049421.900000006,A,p,O,p,1199,1,1214.7000000029802,1048207.200000003,7742,WL,B,10.0
7,37.688000202178955,immed,22311.999797821045,Wed Feb 11 2026 15:52:18 GMT-0600 (Central Standard Time),1049656.799999997,A,pu,O,u,216,1,1449.5999999940395,1048207.200000003,7742,WL,B,10.0
7,37.9210000038147,immed,22078.999996185303,Wed Feb 11 2026 15:52:18 GMT-0600 (Central Standard Time),1049889.200000003,A,pup,O,p,213,1,1682.0,1048207.200000003,7742,WL,B,10.0
7,38.13700008392334,immed,21862.99991607666,Wed Feb 11 2026 15:52:18 GMT-0600 (Central Standard Time),1050105.799999997,A,pupi,O,i,204,1,1898.5999999940395,1048207.200000003,7742,WL,B,10.0
7,38.40499997138977,immed,21595.00002861023,Wed Feb 11 2026 15:52:18 GMT-0600 (Central Standard Time),1050373.299999997,A,pupil,O,l,253,1,2166.0999999940395,1048207.200000003,7742,WL,B,10.0
7,38.66900014877319,immed,21330.999851226807,Wed Feb 11 2026 15:52:18 GMT-0600 (Central Standard Time),1050637.600000009,A,pupilenter,O,enter,243,1,2430.4000000059605,1048207.200000003,7742,WL,B,10.0
7,39.40400004386902,immed,20595.99995613098,Wed Feb 11 2026 15:52:18 GMT-0600 (Central Standard Time),1051372.5,A,c,O,c,717,1,734.7000000029802,1050637.799999997,7742,WL,B,11.0
7,39.60300016403198,immed,20396.999835968018,Wed Feb 11 2026 15:52:18 GMT-0600 (Central Standard Time),1051571.400000006,A,ca,O,a,186,1,933.6000000089407,1050637.799999997,7742,WL,B,11.0
7,40.604000091552734,immed,19395.999908447266,Wed Feb 11 2026 15:52:18 GMT-0600 (Central Standard Time),1052572.900000006,A,cab,O,b,987,1,1935.1000000089407,1050637.799999997,7742,WL,B,11.0
7,40.688000202178955,immed,19311.999797821045,Wed Feb 11 2026 15:52:18 GMT-0600 (Central Standard Time),1052656.700000003,A,cabi,O,i,71,1,2018.9000000059605,1050637.799999997,7742,WL,B,11.0
7,40.78600001335144,immed,19213.99998664856,Wed Feb 11 2026 15:52:18 GMT-0600 (Central Standard Time),1052754.700000003,A,cabin,O,n,77,1,2116.9000000059605,1050637.799999997,7742,WL,B,11.0
7,41.736000061035156,immed,18263.999938964844,Wed Feb 11 2026 15:52:18 GMT-0600 (Central Standard Time),1053704.600000009,A,cabinenter,O,enter,938,1,3066.800000011921,1050637.799999997,7742,WL,B,11.0
7,44.134000062942505,immed,15865.999937057495,Wed Feb 11 2026 15:52:18 GMT-0600 (Central Standard Time),1056103.0,A,c,O,c,2382,1,2398.2000000029802,1053704.799999997,7742,WL,B,12.0
7,44.28400015830994,immed,15715.999841690063,Wed Feb 11 2026 15:52:18 GMT-0600 (Central Standard Time),1056252.799999997,A,cl,O,l,136,1,2548.0,1053704.799999997,7742,WL,B,12.0
7,44.486000061035156,immed,15513.999938964844,Wed Feb 11 2026 15:52:18 GMT-0600 (Central Standard Time),1056454.900000006,A,clo,O,o,180,1,2750.1000000089407,1053704.799999997,7742,WL,B,12.0
7,44.818000078201294,immed,15181.999921798706,Wed Feb 11 2026 15:52:18 GMT-0600 (Central Standard Time),1056786.799999997,A,cloc,O,c,310,1,3082.0,1053704.799999997,7742,WL,B,12.0
7,44.95099997520447,immed,15049.000024795532,Wed Feb 11 2026 15:52:18 GMT-0600 (Central Standard Time),1056919.799999997,A,clock,O,k,114,1,3215.0,1053704.799999997,7742,WL,B,12.0
7,45.25200009346008,immed,14747.999906539917,Wed Feb 11 2026 15:52:18 GMT-0600 (Central Standard Time),1057220.200000003,A,clockenter,O,enter,276,1,3515.4000000059605,1053704.799999997,7742,WL,B,12.0
7,45.96900010108948,immed,14030.999898910522,Wed Feb 11 2026 15:52:18 GMT-0600 (Central Standard Time),1057938.100000009,A,p,O,p,708,1,717.7000000029802,1057220.400000006,7742,WL,B,13.0
7,46.2020001411438,immed,13797.999858856201,Wed Feb 11 2026 15:52:18 GMT-0600 (Central Standard Time),1058170.900000006,A,pi,O,i,226,1,950.5,1057220.400000006,7742,WL,B,13.0
7,46.38499999046326,immed,13615.000009536743,Wed Feb 11 2026 15:52:18 GMT-0600 (Central Standard Time),1058353.5,A,pip,O,p,165,1,1133.0999999940395,1057220.400000006,7742,WL,B,13.0
7,46.76700019836426,immed,13232.999801635742,Wed Feb 11 2026 15:52:18 GMT-0600 (Central Standard Time),1058735.600000009,A,pipe,O,e,372,1,1515.2000000029802,1057220.400000006,7742,WL,B,13.0
7,47.301000118255615,immed,12698.999881744385,Wed Feb 11 2026 15:52:18 GMT-0600 (Central Standard Time),1059269.5,A,pipeenter,O,enter,511,1,2049.0999999940395,1057220.400000006,7742,WL,B,13.0
7,52.598999977111816,immed,7401.000022888184,Wed Feb 11 2026 15:52:18 GMT-0600 (Central Standard Time),1064567.900000006,A,f,O,f,5289,1,5298.20000000298,1059269.700000003,7742,WL,B,14.0
7,52.782999992370605,immed,7217.0000076293945,Wed Feb 11 2026 15:52:18 GMT-0600 (Central Standard Time),1064751.100000009,A,fi,O,i,168,1,5481.4000000059605,1059269.700000003,7742,WL,B,14.0
7,52.950000047683716,immed,7049.999952316284,Wed Feb 11 2026 15:52:18 GMT-0600 (Central Standard Time),1064918.5,A,fie,O,e,162,1,5648.79999999702,1059269.700000003,7742,WL,B,14.0
7,54.03200006484985,immed,5967.9999351501465,Wed Feb 11 2026 15:52:18 GMT-0600 (Central Standard Time),1066000.799999997,A,fi,O,backspace,1070,1,6731.0999999940395,1059269.700000003,7742,WL,B,14.0
7,54.265000104904175,immed,5734.999895095825,Wed Feb 11 2026 15:52:18 GMT-0600 (Central Standard Time),1066233.799999997,A,fir,O,r,222,1,6964.0999999940395,1059269.700000003,7742,WL,B,14.0
7,54.41600012779236,immed,5583.999872207642,Wed Feb 11 2026 15:52:18 GMT-0600 (Central Standard Time),1066384.299999997,A,fire,O,e,139,1,7114.5999999940395,1059269.700000003,7742,WL,B,14.0
7,54.882000207901,immed,5117.999792098999,Wed Feb 11 2026 15:52:18 GMT-0600 (Central Standard Time),1066850.100000009,A,fireenter,O,enter,448,1,7580.4000000059605,1059269.700000003,7742,WL,B,14.0
7,60.01300001144409,immed,-13.000011444091797,Wed Feb 11 2026 15:52:18 GMT-0600 (Central Standard Time),1071981.600000009,A,None,O,None,5126,1,5131.20000000298,1066850.400000006,7742,WL,B,15.0
