block_c,block_dur,condition,countdown,datetime,endtime,list,multichar_response,project,response,response_time,session_number,start_end,starttime,subject_id,task,task_vers,trial
,,,,Mon Jan 26 2026 16:29:29 GMT-0600 (Central Standard Time),,,,I,space,646,1,,,8092,WL,C,
prac,,0,,Mon Jan 26 2026 16:29:29 GMT-0600 (Central Standard Time),,NA,b,I,b,2215,1,,,8092,WL,C,1.0
prac,,0,,Mon Jan 26 2026 16:29:29 GMT-0600 (Central Standard Time),,NA,bo,I,o,124,1,,,8092,WL,C,1.0
prac,,0,,Mon Jan 26 2026 16:29:29 GMT-0600 (Central Standard Time),,NA,boo,I,o,270,1,,,8092,WL,C,1.0
prac,,0,,Mon Jan 26 2026 16:29:29 GMT-0600 (Central Standard Time),,NA,booa,I,a,171,1,,,8092,WL,C,1.0
prac,,0,,Mon Jan 26 2026 16:29:29 GMT-0600 (Central Standard Time),,NA,boo,I,backspace,810,1,,,8092,WL,C,1.0
prac,,0,,Mon Jan 26 2026 16:29:29 GMT-0600 (Central Standard Time),,NA,boos,I,s,404,1,,,8092,WL,C,1.0
prac,,0,,Mon Jan 26 2026 16:29:29 GMT-0600 (Central Standard Time),,NA,boost,I,t,298,1,,,8092,WL,C,1.0
prac,,0,,Mon Jan 26 2026 16:29:29 GMT-0600 (Central Standard Time),,NA,boostenter,I,enter,246,1,,,8092,WL,C,1.0
1,0.9160001277923584,learn,59083.99987220764,Mon Jan 26 2026 16:29:29 GMT-0600 (Central Standard Time),132275.90000009537,A,s,I,s,907,1,916.1000001430511,131359.79999995232,8092,WL,C,1.0
1,1.315999984741211,learn,58684.00001525879,Mon Jan 26 2026 16:29:29 GMT-0600 (Central Standard Time),132675.79999995232,A,su,I,u,390,1,1316.0,131359.79999995232,8092,WL,C,1.0
1,1.999000072479248,learn,58000.99992752075,Mon Jan 26 2026 16:29:29 GMT-0600 (Central Standard Time),133358.59999990463,A,sug,I,g,672,1,1998.7999999523163,131359.79999995232,8092,WL,C,1.0
1,2.450000047683716,learn,57549.999952316284,Mon Jan 26 2026 16:29:29 GMT-0600 (Central Standard Time),133809.70000004768,A,suga,I,a,444,1,2449.9000000953674,131359.79999995232,8092,WL,C,1.0
1,2.699000120162964,learn,57300.999879837036,Mon Jan 26 2026 16:29:29 GMT-0600 (Central Standard Time),134058.59999990463,A,sugar,I,r,234,1,2698.7999999523163,131359.79999995232,8092,WL,C,1.0
1,3.4160001277923584,learn,56583.99987220764,Mon Jan 26 2026 16:29:29 GMT-0600 (Central Standard Time),134775.09999990463,A,sugarenter,I,enter,696,1,3415.2999999523163,131359.79999995232,8092,WL,C,1.0
1,3.9650001525878906,learn,56034.99984741211,Mon Jan 26 2026 16:29:29 GMT-0600 (Central Standard Time),135324.79999995232,A,t,I,t,539,1,549.0999999046326,134775.70000004768,8092,WL,C,2.0
1,4.098999977111816,learn,55901.00002288818,Mon Jan 26 2026 16:29:29 GMT-0600 (Central Standard Time),135458.20000004768,A,to,I,o,127,1,682.5,134775.70000004768,8092,WL,C,2.0
1,4.249000072479248,learn,55750.99992752075,Mon Jan 26 2026 16:29:29 GMT-0600 (Central Standard Time),135608.09999990463,A,tow,I,w,137,1,832.3999998569489,134775.70000004768,8092,WL,C,2.0
1,4.499000072479248,learn,55500.99992752075,Mon Jan 26 2026 16:29:29 GMT-0600 (Central Standard Time),135858.0,A,towe,I,e,243,1,1082.2999999523163,134775.70000004768,8092,WL,C,2.0
1,4.632000207901001,learn,55367.999792099,Mon Jan 26 2026 16:29:29 GMT-0600 (Central Standard Time),135991.29999995232,A,tower,I,r,121,1,1215.5999999046326,134775.70000004768,8092,WL,C,2.0
1,5.182000160217285,learn,54817.999839782715,Mon Jan 26 2026 16:29:29 GMT-0600 (Central Standard Time),136541.29999995232,A,towerenter,I,enter,539,1,1765.5999999046326,134775.70000004768,8092,WL,C,2.0
1,5.5320000648498535,learn,54467.99993515015,Mon Jan 26 2026 16:29:29 GMT-0600 (Central Standard Time),136891.20000004768,A,w,I,w,342,1,349.5,136541.70000004768,8092,WL,C,3.0
1,5.648000001907349,learn,54351.99999809265,Mon Jan 26 2026 16:29:29 GMT-0600 (Central Standard Time),137007.79999995232,A,wh,I,h,96,1,466.09999990463257,136541.70000004768,8092,WL,C,3.0
1,5.79800009727478,learn,54201.99990272522,Mon Jan 26 2026 16:29:29 GMT-0600 (Central Standard Time),137157.59999990463,A,whe,I,e,132,1,615.8999998569489,136541.70000004768,8092,WL,C,3.0
1,6.365000009536743,learn,53634.99999046326,Mon Jan 26 2026 16:29:29 GMT-0600 (Central Standard Time),137724.29999995232,A,whea,I,a,549,1,1182.5999999046326,136541.70000004768,8092,WL,C,3.0
1,6.581000089645386,learn,53418.999910354614,Mon Jan 26 2026 16:29:29 GMT-0600 (Central Standard Time),137940.70000004768,A,wheat,I,t,200,1,1399.0,136541.70000004768,8092,WL,C,3.0
1,6.9150002002716064,learn,53084.99979972839,Mon Jan 26 2026 16:29:29 GMT-0600 (Central Standard Time),138274.09999990463,A,wheatenter,I,enter,326,1,1732.3999998569489,136541.70000004768,8092,WL,C,3.0
1,7.764000177383423,learn,52235.99982261658,Mon Jan 26 2026 16:29:29 GMT-0600 (Central Standard Time),139123.79999995232,A,q,I,q,842,1,849.2000000476837,138274.59999990463,8092,WL,C,4.0
1,8.065000057220459,learn,51934.99994277954,Mon Jan 26 2026 16:29:29 GMT-0600 (Central Standard Time),139424.0,A,qu,I,u,288,1,1149.4000000953674,138274.59999990463,8092,WL,C,4.0
1,8.148000001907349,learn,51851.99999809265,Mon Jan 26 2026 16:29:29 GMT-0600 (Central Standard Time),139506.90000009537,A,que,I,e,76,1,1232.3000001907349,138274.59999990463,8092,WL,C,4.0
1,8.597000122070312,learn,51402.99987792969,Mon Jan 26 2026 16:29:29 GMT-0600 (Central Standard Time),139956.79999995232,A,quee,I,e,433,1,1682.2000000476837,138274.59999990463,8092,WL,C,4.0
1,8.781000137329102,learn,51218.9998626709,Mon Jan 26 2026 16:29:29 GMT-0600 (Central Standard Time),140140.70000004768,A,queen,I,n,166,1,1866.1000001430511,138274.59999990463,8092,WL,C,4.0
1,9.147000074386597,learn,50852.9999256134,Mon Jan 26 2026 16:29:29 GMT-0600 (Central Standard Time),140506.5,A,queenenter,I,enter,349,1,2231.9000000953674,138274.59999990463,8092,WL,C,4.0
1,9.53000020980835,learn,50469.99979019165,Mon Jan 26 2026 16:29:29 GMT-0600 (Central Standard Time),140889.79999995232,A,h,I,h,366,1,382.7000000476837,140507.09999990463,8092,WL,C,5.0
1,9.614000082015991,learn,50385.99991798401,Mon Jan 26 2026 16:29:29 GMT-0600 (Central Standard Time),140973.09999990463,A,ho,I,o,66,1,466.0,140507.09999990463,8092,WL,C,5.0
1,9.847000122070312,learn,50152.99987792969,Mon Jan 26 2026 16:29:29 GMT-0600 (Central Standard Time),141206.40000009537,A,hom,I,m,214,1,699.3000001907349,140507.09999990463,8092,WL,C,5.0
1,9.963000059127808,learn,50036.99994087219,Mon Jan 26 2026 16:29:29 GMT-0600 (Central Standard Time),141322.59999990463,A,home,I,e,108,1,815.5,140507.09999990463,8092,WL,C,5.0
1,10.313000202178955,learn,49686.999797821045,Mon Jan 26 2026 16:29:29 GMT-0600 (Central Standard Time),141672.90000009537,A,homeenter,I,enter,345,1,1165.8000001907349,140507.09999990463,8092,WL,C,5.0
1,11.347000122070312,learn,48652.99987792969,Mon Jan 26 2026 16:29:29 GMT-0600 (Central Standard Time),142706.20000004768,A,b,I,b,1020,1,1033.1000001430511,141673.09999990463,8092,WL,C,6.0
1,11.413000106811523,learn,48586.99989318848,Mon Jan 26 2026 16:29:29 GMT-0600 (Central Standard Time),142772.59999990463,A,bo,I,o,48,1,1099.5,141673.09999990463,8092,WL,C,6.0
1,11.598000049591064,learn,48401.999950408936,Mon Jan 26 2026 16:29:29 GMT-0600 (Central Standard Time),142957.20000004768,A,bou,I,u,176,1,1284.1000001430511,141673.09999990463,8092,WL,C,6.0
1,12.463000059127808,learn,47536.99994087219,Mon Jan 26 2026 16:29:29 GMT-0600 (Central Standard Time),143822.29999995232,A,bo,I,backspace,846,1,2149.2000000476837,141673.09999990463,8092,WL,C,6.0
1,13.146000146865845,learn,46853.999853134155,Mon Jan 26 2026 16:29:29 GMT-0600 (Central Standard Time),144505.40000009537,A,boy,I,y,669,1,2832.300000190735,141673.09999990463,8092,WL,C,6.0
1,13.413000106811523,learn,46586.99989318848,Mon Jan 26 2026 16:29:29 GMT-0600 (Central Standard Time),144771.90000009537,A,boyenter,I,enter,259,1,3098.800000190735,141673.09999990463,8092,WL,C,6.0
1,18.17799997329712,learn,41822.00002670288,Mon Jan 26 2026 16:29:29 GMT-0600 (Central Standard Time),149537.09999990463,A,s,I,s,4744,1,4764.899999856949,144772.20000004768,8092,WL,C,7.0
1,18.311000108718872,learn,41688.99989128113,Mon Jan 26 2026 16:29:29 GMT-0600 (Central Standard Time),149670.40000009537,A,sh,I,h,115,1,4898.200000047684,144772.20000004768,8092,WL,C,7.0
1,18.41100001335144,learn,41588.99998664856,Mon Jan 26 2026 16:29:29 GMT-0600 (Central Standard Time),149770.59999990463,A,sho,I,o,84,1,4998.399999856949,144772.20000004768,8092,WL,C,7.0
1,18.611000061035156,learn,41388.999938964844,Mon Jan 26 2026 16:29:29 GMT-0600 (Central Standard Time),149970.20000004768,A,shor,I,r,193,1,5198.0,144772.20000004768,8092,WL,C,7.0
1,18.67799997329712,learn,41322.00002670288,Mon Jan 26 2026 16:29:29 GMT-0600 (Central Standard Time),150037.0,A,shore,I,e,57,1,5264.799999952316,144772.20000004768,8092,WL,C,7.0
1,19.16100001335144,learn,40838.99998664856,Mon Jan 26 2026 16:29:29 GMT-0600 (Central Standard Time),150520.09999990463,A,shoreenter,I,enter,462,1,5747.899999856949,144772.20000004768,8092,WL,C,7.0
1,30.374000072479248,learn,29625.999927520752,Mon Jan 26 2026 16:29:29 GMT-0600 (Central Standard Time),161733.40000009537,A,enter,I,enter,11204,1,11213.0,150520.40000009537,8092,WL,C,8.0
1,31.057000160217285,learn,28942.999839782715,Mon Jan 26 2026 16:29:29 GMT-0600 (Central Standard Time),162416.29999995232,A,enter,I,enter,678,1,682.3999998569489,161733.90000009537,8092,WL,C,9.0
1,31.307000160217285,learn,28692.999839782715,Mon Jan 26 2026 16:29:29 GMT-0600 (Central Standard Time),162666.5,A,enter,I,enter,234,1,249.79999995231628,162416.70000004768,8092,WL,C,10.0
1,31.657000064849854,learn,28342.999935150146,Mon Jan 26 2026 16:29:29 GMT-0600 (Central Standard Time),163016.09999990463,A,enter,I,enter,337,1,349.19999980926514,162666.90000009537,8092,WL,C,11.0
1,31.874000072479248,learn,28125.999927520752,Mon Jan 26 2026 16:29:29 GMT-0600 (Central Standard Time),163233.0,A,enter,I,enter,204,1,216.40000009536743,163016.59999990463,8092,WL,C,12.0
1,32.25600004196167,learn,27743.99995803833,Mon Jan 26 2026 16:29:29 GMT-0600 (Central Standard Time),163615.79999995232,A,enter,I,enter,371,1,382.5,163233.29999995232,8092,WL,C,13.0
1,32.69000005722046,learn,27309.99994277954,Mon Jan 26 2026 16:29:29 GMT-0600 (Central Standard Time),164049.09999990463,A,enter,I,enter,420,1,433.0,163616.09999990463,8092,WL,C,14.0
1,33.206000089645386,learn,26793.999910354614,Mon Jan 26 2026 16:29:29 GMT-0600 (Central Standard Time),164565.59999990463,A,enter,I,enter,498,1,516.0,164049.59999990463,8092,WL,C,15.0
2,0.7990000247955322,learn,59200.99997520447,Mon Jan 26 2026 16:29:29 GMT-0600 (Central Standard Time),233994.40000009537,A,s,I,s,785,1,798.9000000953674,233195.5,8092,WL,C,1.0
2,1.0320000648498535,learn,58967.99993515015,Mon Jan 26 2026 16:29:29 GMT-0600 (Central Standard Time),234227.20000004768,A,su,I,u,216,1,1031.7000000476837,233195.5,8092,WL,C,1.0
2,1.6480000019073486,learn,58351.99999809265,Mon Jan 26 2026 16:29:29 GMT-0600 (Central Standard Time),234843.29999995232,A,sug,I,g,608,1,1647.7999999523163,233195.5,8092,WL,C,1.0
2,1.7650001049041748,learn,58234.999895095825,Mon Jan 26 2026 16:29:29 GMT-0600 (Central Standard Time),234960.0,A,suga,I,a,96,1,1764.5,233195.5,8092,WL,C,1.0
2,1.9820001125335693,learn,58017.99988746643,Mon Jan 26 2026 16:29:29 GMT-0600 (Central Standard Time),235177.09999990463,A,sugar,I,r,203,1,1981.5999999046326,233195.5,8092,WL,C,1.0
2,2.631999969482422,learn,57368.00003051758,Mon Jan 26 2026 16:29:29 GMT-0600 (Central Standard Time),235826.90000009537,A,sugarenter,I,enter,636,1,2631.4000000953674,233195.5,8092,WL,C,1.0
2,2.9809999465942383,learn,57019.00005340576,Mon Jan 26 2026 16:29:29 GMT-0600 (Central Standard Time),236176.40000009537,A,t,I,t,345,1,349.10000014305115,235827.29999995232,8092,WL,C,2.0
2,3.131999969482422,learn,56868.00003051758,Mon Jan 26 2026 16:29:29 GMT-0600 (Central Standard Time),236326.90000009537,A,to,I,o,139,1,499.60000014305115,235827.29999995232,8092,WL,C,2.0
2,3.2980000972747803,learn,56701.99990272522,Mon Jan 26 2026 16:29:29 GMT-0600 (Central Standard Time),236493.0,A,tow,I,w,156,1,665.7000000476837,235827.29999995232,8092,WL,C,2.0
2,3.5320000648498535,learn,56467.99993515015,Mon Jan 26 2026 16:29:29 GMT-0600 (Central Standard Time),236726.70000004768,A,towe,I,e,214,1,899.4000000953674,235827.29999995232,8092,WL,C,2.0
2,3.6480000019073486,learn,56351.99999809265,Mon Jan 26 2026 16:29:29 GMT-0600 (Central Standard Time),236843.5,A,tower,I,r,101,1,1016.2000000476837,235827.29999995232,8092,WL,C,2.0
2,4.248000144958496,learn,55751.999855041504,Mon Jan 26 2026 16:29:29 GMT-0600 (Central Standard Time),237443.09999990463,A,towerenter,I,enter,584,1,1615.7999999523163,235827.29999995232,8092,WL,C,2.0
2,4.680999994277954,learn,55319.000005722046,Mon Jan 26 2026 16:29:29 GMT-0600 (Central Standard Time),237876.20000004768,A,w,I,w,417,1,432.7999999523163,237443.40000009537,8092,WL,C,3.0
2,4.781000137329102,learn,55218.9998626709,Mon Jan 26 2026 16:29:29 GMT-0600 (Central Standard Time),237976.20000004768,A,wh,I,h,79,1,532.7999999523163,237443.40000009537,8092,WL,C,3.0
2,4.930999994277954,learn,55069.000005722046,Mon Jan 26 2026 16:29:29 GMT-0600 (Central Standard Time),238126.09999990463,A,whe,I,e,131,1,682.6999998092651,237443.40000009537,8092,WL,C,3.0
2,5.081000089645386,learn,54918.999910354614,Mon Jan 26 2026 16:29:29 GMT-0600 (Central Standard Time),238276.09999990463,A,whea,I,a,141,1,832.6999998092651,237443.40000009537,8092,WL,C,3.0
2,5.281000137329102,learn,54718.9998626709,Mon Jan 26 2026 16:29:29 GMT-0600 (Central Standard Time),238476.09999990463,A,wheat,I,t,191,1,1032.6999998092651,237443.40000009537,8092,WL,C,3.0
2,5.513999938964844,learn,54486.000061035156,Mon Jan 26 2026 16:29:29 GMT-0600 (Central Standard Time),238709.20000004768,A,wheatenter,I,enter,224,1,1265.7999999523163,237443.40000009537,8092,WL,C,3.0
2,6.164000034332275,learn,53835.999965667725,Mon Jan 26 2026 16:29:29 GMT-0600 (Central Standard Time),239359.09999990463,A,c,I,c,639,1,649.5,238709.59999990463,8092,WL,C,4.0
2,6.2799999713897705,learn,53720.00002861023,Mon Jan 26 2026 16:29:29 GMT-0600 (Central Standard Time),239475.79999995232,A,co,I,o,101,1,766.2000000476837,238709.59999990463,8092,WL,C,4.0
2,6.480000019073486,learn,53519.999980926514,Mon Jan 26 2026 16:29:29 GMT-0600 (Central Standard Time),239675.90000009537,A,cor,I,r,183,1,966.3000001907349,238709.59999990463,8092,WL,C,4.0
2,6.663000106811523,learn,53336.99989318848,Mon Jan 26 2026 16:29:29 GMT-0600 (Central Standard Time),239858.59999990463,A,corn,I,n,177,1,1149.0,238709.59999990463,8092,WL,C,4.0
2,7.0970001220703125,learn,52902.99987792969,Mon Jan 26 2026 16:29:29 GMT-0600 (Central Standard Time),240292.20000004768,A,cornenter,I,enter,418,1,1582.6000001430511,238709.59999990463,8092,WL,C,4.0
2,8.845999956130981,learn,51154.00004386902,Mon Jan 26 2026 16:29:29 GMT-0600 (Central Standard Time),242041.20000004768,A,d,I,d,1743,1,1748.7000000476837,240292.5,8092,WL,C,5.0
2,8.963000059127808,learn,51036.99994087219,Mon Jan 26 2026 16:29:29 GMT-0600 (Central Standard Time),242158.20000004768,A,do,I,o,99,1,1865.7000000476837,240292.5,8092,WL,C,5.0
2,9.213000059127808,learn,50786.99994087219,Mon Jan 26 2026 16:29:29 GMT-0600 (Central Standard Time),242408.29999995232,A,doc,I,c,229,1,2115.7999999523163,240292.5,8092,WL,C,5.0
2,9.529000043869019,learn,50470.99995613098,Mon Jan 26 2026 16:29:29 GMT-0600 (Central Standard Time),242724.59999990463,A,doct,I,t,308,1,2432.0999999046326,240292.5,8092,WL,C,5.0
2,9.644999980926514,learn,50355.000019073486,Mon Jan 26 2026 16:29:29 GMT-0600 (Central Standard Time),242840.90000009537,A,docto,I,o,104,1,2548.4000000953674,240292.5,8092,WL,C,5.0
2,9.855999946594238,learn,50144.00005340576,Mon Jan 26 2026 16:29:29 GMT-0600 (Central Standard Time),243051.09999990463,A,doctor,I,r,202,1,2758.5999999046326,240292.5,8092,WL,C,5.0
2,10.111999988555908,learn,49888.00001144409,Mon Jan 26 2026 16:29:29 GMT-0600 (Central Standard Time),243307.70000004768,A,doctorenter,I,enter,248,1,3015.2000000476837,240292.5,8092,WL,C,5.0
2,10.729000091552734,learn,49270.999908447266,Mon Jan 26 2026 16:29:29 GMT-0600 (Central Standard Time),243924.5,A,c,I,c,600,1,616.4000000953674,243308.09999990463,8092,WL,C,6.0
2,10.796000003814697,learn,49203.9999961853,Mon Jan 26 2026 16:29:29 GMT-0600 (Central Standard Time),243991.29999995232,A,ca,I,a,56,1,683.2000000476837,243308.09999990463,8092,WL,C,6.0
2,11.01200008392334,learn,48987.99991607666,Mon Jan 26 2026 16:29:29 GMT-0600 (Central Standard Time),244207.70000004768,A,cam,I,m,196,1,899.6000001430511,243308.09999990463,8092,WL,C,6.0
2,11.180000066757202,learn,48819.9999332428,Mon Jan 26 2026 16:29:29 GMT-0600 (Central Standard Time),244375.09999990463,A,camp,I,p,149,1,1067.0,243308.09999990463,8092,WL,C,6.0
2,11.578999996185303,learn,48421.0000038147,Mon Jan 26 2026 16:29:29 GMT-0600 (Central Standard Time),244774.09999990463,A,campenter,I,enter,380,1,1466.0,243308.09999990463,8092,WL,C,6.0
2,13.09500002861023,learn,46904.99997138977,Mon Jan 26 2026 16:29:29 GMT-0600 (Central Standard Time),246290.20000004768,A,q,I,q,1510,1,1515.7000000476837,244774.5,8092,WL,C,7.0
2,13.228000164031982,learn,46771.99983596802,Mon Jan 26 2026 16:29:29 GMT-0600 (Central Standard Time),246423.59999990463,A,qu,I,u,113,1,1649.0999999046326,244774.5,8092,WL,C,7.0
2,13.394999980926514,learn,46605.000019073486,Mon Jan 26 2026 16:29:29 GMT-0600 (Central Standard Time),246590.20000004768,A,que,I,e,156,1,1815.7000000476837,244774.5,8092,WL,C,7.0
2,13.628000020980835,learn,46371.999979019165,Mon Jan 26 2026 16:29:29 GMT-0600 (Central Standard Time),246823.40000009537,A,quee,I,e,222,1,2048.9000000953674,244774.5,8092,WL,C,7.0
2,13.794000148773193,learn,46205.99985122681,Mon Jan 26 2026 16:29:29 GMT-0600 (Central Standard Time),246989.79999995232,A,queen,I,n,149,1,2215.2999999523163,244774.5,8092,WL,C,7.0
2,14.077000141143799,learn,45922.9998588562,Mon Jan 26 2026 16:29:29 GMT-0600 (Central Standard Time),247272.90000009537,A,queenenter,I,enter,278,1,2498.4000000953674,244774.5,8092,WL,C,7.0
2,17.194000005722046,learn,42805.999994277954,Mon Jan 26 2026 16:29:29 GMT-0600 (Central Standard Time),250389.29999995232,A,c,I,c,3100,1,3116.0999999046326,247273.20000004768,8092,WL,C,8.0
2,17.292999982833862,learn,42707.00001716614,Mon Jan 26 2026 16:29:29 GMT-0600 (Central Standard Time),250488.79999995232,A,ca,I,a,94,1,3215.5999999046326,247273.20000004768,8092,WL,C,8.0
2,17.542999982833862,learn,42457.00001716614,Mon Jan 26 2026 16:29:29 GMT-0600 (Central Standard Time),250738.90000009537,A,cat,I,t,243,1,3465.7000000476837,247273.20000004768,8092,WL,C,8.0
2,17.72699999809265,learn,42273.00000190735,Mon Jan 26 2026 16:29:29 GMT-0600 (Central Standard Time),250922.09999990463,A,catt,I,t,170,1,3648.899999856949,247273.20000004768,8092,WL,C,8.0
2,17.89300012588501,learn,42106.99987411499,Mon Jan 26 2026 16:29:29 GMT-0600 (Central Standard Time),251088.79999995232,A,cattl,I,l,146,1,3815.5999999046326,247273.20000004768,8092,WL,C,8.0
2,17.993000030517578,learn,42006.99996948242,Mon Jan 26 2026 16:29:29 GMT-0600 (Central Standard Time),251188.59999990463,A,cattle,I,e,91,1,3915.399999856949,247273.20000004768,8092,WL,C,8.0
2,18.37600016593933,learn,41623.99983406067,Mon Jan 26 2026 16:29:29 GMT-0600 (Central Standard Time),251571.90000009537,A,cattleenter,I,enter,375,1,4298.700000047684,247273.20000004768,8092,WL,C,8.0
2,20.092999935150146,learn,39907.00006484985,Mon Jan 26 2026 16:29:29 GMT-0600 (Central Standard Time),253288.09999990463,A,t,I,t,1695,1,1715.7999999523163,251572.29999995232,8092,WL,C,9.0
2,20.176000118255615,learn,39823.999881744385,Mon Jan 26 2026 16:29:29 GMT-0600 (Central Standard Time),253371.5,A,to,I,o,75,1,1799.2000000476837,251572.29999995232,8092,WL,C,9.0
2,20.37600016593933,learn,39623.99983406067,Mon Jan 26 2026 16:29:29 GMT-0600 (Central Standard Time),253571.40000009537,A,tow,I,w,184,1,1999.1000001430511,251572.29999995232,8092,WL,C,9.0
2,20.592000007629395,learn,39407.999992370605,Mon Jan 26 2026 16:29:29 GMT-0600 (Central Standard Time),253788.0,A,towe,I,e,209,1,2215.7000000476837,251572.29999995232,8092,WL,C,9.0
2,20.7260000705719,learn,39273.9999294281,Mon Jan 26 2026 16:29:29 GMT-0600 (Central Standard Time),253921.40000009537,A,tower,I,r,112,1,2349.100000143051,251572.29999995232,8092,WL,C,9.0
2,21.04200005531311,learn,38957.99994468689,Mon Jan 26 2026 16:29:29 GMT-0600 (Central Standard Time),254237.90000009537,A,towerenter,I,enter,307,1,2665.600000143051,251572.29999995232,8092,WL,C,9.0
2,21.742000102996826,learn,38257.999897003174,Mon Jan 26 2026 16:29:29 GMT-0600 (Central Standard Time),254937.20000004768,A,c,I,c,693,1,698.9000000953674,254238.29999995232,8092,WL,C,10.0
2,21.842000007629395,learn,38157.999992370605,Mon Jan 26 2026 16:29:29 GMT-0600 (Central Standard Time),255037.40000009537,A,ca,I,a,83,1,799.1000001430511,254238.29999995232,8092,WL,C,10.0
2,22.009000062942505,learn,37990.999937057495,Mon Jan 26 2026 16:29:29 GMT-0600 (Central Standard Time),255204.40000009537,A,cam,I,m,150,1,966.1000001430511,254238.29999995232,8092,WL,C,10.0
2,22.20900011062622,learn,37790.99988937378,Mon Jan 26 2026 16:29:29 GMT-0600 (Central Standard Time),255404.09999990463,A,camp,I,p,183,1,1165.7999999523163,254238.29999995232,8092,WL,C,10.0
2,22.475000143051147,learn,37524.99985694885,Mon Jan 26 2026 16:29:29 GMT-0600 (Central Standard Time),255670.5,A,campenter,I,enter,247,1,1432.2000000476837,254238.29999995232,8092,WL,C,10.0
2,23.558000087738037,learn,36441.99991226196,Mon Jan 26 2026 16:29:29 GMT-0600 (Central Standard Time),256753.5,A,enter,I,enter,1069,1,1082.5999999046326,255670.90000009537,8092,WL,C,11.0
2,23.740999937057495,learn,36259.000062942505,Mon Jan 26 2026 16:29:29 GMT-0600 (Central Standard Time),256936.79999995232,A,enter,I,enter,179,1,182.89999985694885,256753.90000009537,8092,WL,C,12.0
2,23.924999952316284,learn,36075.000047683716,Mon Jan 26 2026 16:29:29 GMT-0600 (Central Standard Time),257120.29999995232,A,enter,I,enter,171,1,183.20000004768372,256937.09999990463,8092,WL,C,13.0
2,24.341000080108643,learn,35658.99991989136,Mon Jan 26 2026 16:29:29 GMT-0600 (Central Standard Time),257536.40000009537,A,enter,I,enter,411,1,415.7000000476837,257120.70000004768,8092,WL,C,14.0
2,24.907000064849854,learn,35092.99993515015,Mon Jan 26 2026 16:29:29 GMT-0600 (Central Standard Time),258103.09999990463,A,enter,I,enter,557,1,566.5,257536.59999990463,8092,WL,C,15.0
3,1.0999999046325684,learn,58900.00009536743,Mon Jan 26 2026 16:29:29 GMT-0600 (Central Standard Time),324399.40000009537,A,s,I,s,1081,1,1099.7000000476837,323299.7000000477,8092,WL,C,1.0
3,1.4169998168945312,learn,58583.00018310547,Mon Jan 26 2026 16:29:29 GMT-0600 (Central Standard Time),324715.7999999523,A,su,I,u,299,1,1416.0999999046326,323299.7000000477,8092,WL,C,1.0
3,1.7329998016357422,learn,58267.00019836426,Mon Jan 26 2026 16:29:29 GMT-0600 (Central Standard Time),325032.2999999523,A,sug,I,g,311,1,1732.5999999046326,323299.7000000477,8092,WL,C,1.0
3,1.8829998970031738,learn,58117.000102996826,Mon Jan 26 2026 16:29:29 GMT-0600 (Central Standard Time),325182.2000000477,A,suga,I,a,140,1,1882.5,323299.7000000477,8092,WL,C,1.0
3,2.049999952316284,learn,57950.000047683716,Mon Jan 26 2026 16:29:29 GMT-0600 (Central Standard Time),325348.7999999523,A,sugar,I,r,158,1,2049.0999999046326,323299.7000000477,8092,WL,C,1.0
3,2.5329999923706055,learn,57467.000007629395,Mon Jan 26 2026 16:29:29 GMT-0600 (Central Standard Time),325832.0,A,sugarenter,I,enter,471,1,2532.2999999523163,323299.7000000477,8092,WL,C,1.0
3,2.865999937057495,learn,57134.000062942505,Mon Jan 26 2026 16:29:29 GMT-0600 (Central Standard Time),326165.40000009537,A,t,I,t,325,1,333.0,325832.40000009537,8092,WL,C,2.0
3,3.0159997940063477,learn,56984.00020599365,Mon Jan 26 2026 16:29:29 GMT-0600 (Central Standard Time),326315.2000000477,A,to,I,o,135,1,482.7999999523163,325832.40000009537,8092,WL,C,2.0
3,3.0999999046325684,learn,56900.00009536743,Mon Jan 26 2026 16:29:29 GMT-0600 (Central Standard Time),326398.7000000477,A,tow,I,w,73,1,566.2999999523163,325832.40000009537,8092,WL,C,2.0
3,3.6659998893737793,learn,56334.00011062622,Mon Jan 26 2026 16:29:29 GMT-0600 (Central Standard Time),326965.09999990463,A,towe,I,e,550,1,1132.6999998092651,325832.40000009537,8092,WL,C,2.0
3,3.748999834060669,learn,56251.00016593933,Mon Jan 26 2026 16:29:29 GMT-0600 (Central Standard Time),327048.40000009537,A,tower,I,r,70,1,1216.0,325832.40000009537,8092,WL,C,2.0
3,3.9659998416900635,learn,56034.00015830994,Mon Jan 26 2026 16:29:29 GMT-0600 (Central Standard Time),327265.09999990463,A,towerenter,I,enter,203,1,1432.6999998092651,325832.40000009537,8092,WL,C,2.0
3,4.348999977111816,learn,55651.00002288818,Mon Jan 26 2026 16:29:29 GMT-0600 (Central Standard Time),327648.2999999523,A,w,I,w,379,1,382.89999985694885,327265.40000009537,8092,WL,C,3.0
3,4.515999794006348,learn,55484.00020599365,Mon Jan 26 2026 16:29:29 GMT-0600 (Central Standard Time),327814.90000009537,A,wh,I,h,148,1,549.5,327265.40000009537,8092,WL,C,3.0
3,4.615999937057495,learn,55384.000062942505,Mon Jan 26 2026 16:29:29 GMT-0600 (Central Standard Time),327914.7000000477,A,whe,I,e,94,1,649.2999999523163,327265.40000009537,8092,WL,C,3.0
3,4.765999794006348,learn,55234.00020599365,Mon Jan 26 2026 16:29:29 GMT-0600 (Central Standard Time),328064.7000000477,A,whea,I,a,130,1,799.2999999523163,327265.40000009537,8092,WL,C,3.0
3,4.931999921798706,learn,55068.000078201294,Mon Jan 26 2026 16:29:29 GMT-0600 (Central Standard Time),328231.2999999523,A,wheat,I,t,147,1,965.8999998569489,327265.40000009537,8092,WL,C,3.0
3,5.414999961853027,learn,54585.00003814697,Mon Jan 26 2026 16:29:29 GMT-0600 (Central Standard Time),328714.40000009537,A,wheatenter,I,enter,469,1,1449.0,327265.40000009537,8092,WL,C,3.0
3,6.56499981880188,learn,53435.00018119812,Mon Jan 26 2026 16:29:29 GMT-0600 (Central Standard Time),329864.0,A,q,I,q,1129,1,1149.2999999523163,328714.7000000477,8092,WL,C,4.0
3,6.697999954223633,learn,53302.00004577637,Mon Jan 26 2026 16:29:29 GMT-0600 (Central Standard Time),329997.40000009537,A,qu,I,u,124,1,1282.7000000476837,328714.7000000477,8092,WL,C,4.0
3,7.06499981880188,learn,52935.00018119812,Mon Jan 26 2026 16:29:29 GMT-0600 (Central Standard Time),330363.7999999523,A,que,I,e,351,1,1649.0999999046326,328714.7000000477,8092,WL,C,4.0
3,7.264999866485596,learn,52735.000133514404,Mon Jan 26 2026 16:29:29 GMT-0600 (Central Standard Time),330563.7000000477,A,quee,I,e,184,1,1849.0,328714.7000000477,8092,WL,C,4.0
3,7.648000001907349,learn,52351.99999809265,Mon Jan 26 2026 16:29:29 GMT-0600 (Central Standard Time),330947.2000000477,A,queen,I,n,368,1,2232.5,328714.7000000477,8092,WL,C,4.0
3,7.997999906539917,learn,52002.00009346008,Mon Jan 26 2026 16:29:29 GMT-0600 (Central Standard Time),331297.09999990463,A,queenenter,I,enter,337,1,2582.399999856949,328714.7000000477,8092,WL,C,4.0
3,8.63099980354309,learn,51369.00019645691,Mon Jan 26 2026 16:29:29 GMT-0600 (Central Standard Time),331930.09999990463,A,c,I,c,619,1,632.5999999046326,331297.5,8092,WL,C,5.0
3,8.697999954223633,learn,51302.00004577637,Mon Jan 26 2026 16:29:29 GMT-0600 (Central Standard Time),331996.59999990463,A,co,I,o,58,1,699.0999999046326,331297.5,8092,WL,C,5.0
3,8.930999994277954,learn,51069.000005722046,Mon Jan 26 2026 16:29:29 GMT-0600 (Central Standard Time),332230.09999990463,A,cor,I,r,223,1,932.5999999046326,331297.5,8092,WL,C,5.0
3,9.063999891281128,learn,50936.00010871887,Mon Jan 26 2026 16:29:29 GMT-0600 (Central Standard Time),332363.2000000477,A,corn,I,n,117,1,1065.7000000476837,331297.5,8092,WL,C,5.0
3,9.496999979019165,learn,50503.000020980835,Mon Jan 26 2026 16:29:29 GMT-0600 (Central Standard Time),332796.2999999523,A,cornenter,I,enter,425,1,1498.7999999523163,331297.5,8092,WL,C,5.0
3,10.480999946594238,learn,49519.00005340576,Mon Jan 26 2026 16:29:29 GMT-0600 (Central Standard Time),333779.59999990463,A,c,I,c,977,1,983.0999999046326,332796.5,8092,WL,C,6.0
3,10.596999883651733,learn,49403.00011634827,Mon Jan 26 2026 16:29:29 GMT-0600 (Central Standard Time),333896.0,A,ca,I,a,105,1,1099.5,332796.5,8092,WL,C,6.0
3,10.747999906539917,learn,49252.00009346008,Mon Jan 26 2026 16:29:29 GMT-0600 (Central Standard Time),334046.7000000477,A,cam,I,m,131,1,1250.2000000476837,332796.5,8092,WL,C,6.0
3,10.96399998664856,learn,49036.00001335144,Mon Jan 26 2026 16:29:29 GMT-0600 (Central Standard Time),334262.7000000477,A,camp,I,p,205,1,1466.2000000476837,332796.5,8092,WL,C,6.0
3,11.29699993133545,learn,48703.00006866455,Mon Jan 26 2026 16:29:29 GMT-0600 (Central Standard Time),334595.7000000477,A,campenter,I,enter,326,1,1799.2000000476837,332796.5,8092,WL,C,6.0
3,11.962999820709229,learn,48037.00017929077,Mon Jan 26 2026 16:29:29 GMT-0600 (Central Standard Time),335262.2999999523,A,n,I,n,648,1,666.2000000476837,334596.09999990463,8092,WL,C,7.0
3,12.079999923706055,learn,47920.000076293945,Mon Jan 26 2026 16:29:29 GMT-0600 (Central Standard Time),335379.09999990463,A,na,I,a,101,1,783.0,334596.09999990463,8092,WL,C,7.0
3,12.212999820709229,learn,47787.00017929077,Mon Jan 26 2026 16:29:29 GMT-0600 (Central Standard Time),335512.09999990463,A,nai,I,i,129,1,916.0,334596.09999990463,8092,WL,C,7.0
3,12.395999908447266,learn,47604.000091552734,Mon Jan 26 2026 16:29:29 GMT-0600 (Central Standard Time),335695.5,A,nail,I,l,171,1,1099.4000000953674,334596.09999990463,8092,WL,C,7.0
3,12.662999868392944,learn,47337.000131607056,Mon Jan 26 2026 16:29:29 GMT-0600 (Central Standard Time),335962.2000000477,A,nailenter,I,enter,260,1,1366.1000001430511,334596.09999990463,8092,WL,C,7.0
3,13.77999997138977,learn,46220.00002861023,Mon Jan 26 2026 16:29:29 GMT-0600 (Central Standard Time),337078.59999990463,A,d,I,d,1099,1,1116.0,335962.59999990463,8092,WL,C,8.0
3,14.069999933242798,learn,45930.0000667572,Mon Jan 26 2026 16:29:29 GMT-0600 (Central Standard Time),337369.2999999523,A,do,I,o,286,1,1406.7000000476837,335962.59999990463,8092,WL,C,8.0
3,14.978999853134155,learn,45021.000146865845,Mon Jan 26 2026 16:29:29 GMT-0600 (Central Standard Time),338278.2999999523,A,doc,I,c,899,1,2315.7000000476837,335962.59999990463,8092,WL,C,8.0
3,15.228999853134155,learn,44771.000146865845,Mon Jan 26 2026 16:29:29 GMT-0600 (Central Standard Time),338528.09999990463,A,doct,I,t,239,1,2565.5,335962.59999990463,8092,WL,C,8.0
3,15.361999988555908,learn,44638.00001144409,Mon Jan 26 2026 16:29:29 GMT-0600 (Central Standard Time),338661.40000009537,A,docto,I,o,115,1,2698.800000190735,335962.59999990463,8092,WL,C,8.0
3,15.495999813079834,learn,44504.000186920166,Mon Jan 26 2026 16:29:29 GMT-0600 (Central Standard Time),338794.7000000477,A,doctor,I,r,118,1,2832.100000143051,335962.59999990463,8092,WL,C,8.0
3,15.728999853134155,learn,44271.000146865845,Mon Jan 26 2026 16:29:29 GMT-0600 (Central Standard Time),339028.09999990463,A,doctorenter,I,enter,218,1,3065.5,335962.59999990463,8092,WL,C,8.0
3,15.978999853134155,learn,44021.000146865845,Mon Jan 26 2026 16:29:29 GMT-0600 (Central Standard Time),339277.90000009537,A,f,I,f,241,1,249.5,339028.40000009537,8092,WL,C,9.0
3,16.128999948501587,learn,43871.00005149841,Mon Jan 26 2026 16:29:29 GMT-0600 (Central Standard Time),339427.7999999523,A,fl,I,l,133,1,399.39999985694885,339028.40000009537,8092,WL,C,9.0
3,16.311999797821045,learn,43688.000202178955,Mon Jan 26 2026 16:29:29 GMT-0600 (Central Standard Time),339611.09999990463,A,fla,I,a,168,1,582.6999998092651,339028.40000009537,8092,WL,C,9.0
3,16.894999980926514,learn,43105.000019073486,Mon Jan 26 2026 16:29:29 GMT-0600 (Central Standard Time),340194.2999999523,A,flag,I,g,568,1,1165.8999998569489,339028.40000009537,8092,WL,C,9.0
3,17.59499979019165,learn,42405.00020980835,Mon Jan 26 2026 16:29:29 GMT-0600 (Central Standard Time),340894.0,A,flagc,I,c,690,1,1865.5999999046326,339028.40000009537,8092,WL,C,9.0
3,17.67799997329712,learn,42322.00002670288,Mon Jan 26 2026 16:29:29 GMT-0600 (Central Standard Time),340977.2000000477,A,flagca,I,a,71,1,1948.7999999523163,339028.40000009537,8092,WL,C,9.0
3,17.82799983024597,learn,42172.00016975403,Mon Jan 26 2026 16:29:29 GMT-0600 (Central Standard Time),341127.09999990463,A,flagcam,I,m,130,1,2098.699999809265,339028.40000009537,8092,WL,C,9.0
3,18.277999877929688,learn,41722.00012207031,Mon Jan 26 2026 16:29:29 GMT-0600 (Central Standard Time),341576.7999999523,A,flagca,I,backspace,445,1,2548.399999856949,339028.40000009537,8092,WL,C,9.0
3,18.444999933242798,learn,41555.0000667572,Mon Jan 26 2026 16:29:29 GMT-0600 (Central Standard Time),341743.7000000477,A,flagc,I,backspace,155,1,2715.2999999523163,339028.40000009537,8092,WL,C,9.0
3,19.07699990272522,learn,40923.00009727478,Mon Jan 26 2026 16:29:29 GMT-0600 (Central Standard Time),342376.5,A,flag,I,backspace,612,1,3348.0999999046326,339028.40000009537,8092,WL,C,9.0
3,19.72699999809265,learn,40273.00000190735,Mon Jan 26 2026 16:29:29 GMT-0600 (Central Standard Time),343026.5,A,flagenter,I,enter,634,1,3998.0999999046326,339028.40000009537,8092,WL,C,9.0
3,21.643999814987183,learn,38356.00018501282,Mon Jan 26 2026 16:29:29 GMT-0600 (Central Standard Time),344942.7000000477,A,l,I,l,1897,1,1915.9000000953674,343026.7999999523,8092,WL,C,10.0
3,21.74399995803833,learn,38256.00004196167,Mon Jan 26 2026 16:29:29 GMT-0600 (Central Standard Time),345042.59999990463,A,le,I,e,93,1,2015.7999999523163,343026.7999999523,8092,WL,C,10.0
3,21.944000005722046,learn,38055.999994277954,Mon Jan 26 2026 16:29:29 GMT-0600 (Central Standard Time),345242.59999990463,A,let,I,t,185,1,2215.7999999523163,343026.7999999523,8092,WL,C,10.0
3,22.15999984741211,learn,37840.00015258789,Mon Jan 26 2026 16:29:29 GMT-0600 (Central Standard Time),345459.40000009537,A,lett,I,t,202,1,2432.600000143051,343026.7999999523,8092,WL,C,10.0
3,22.359999895095825,learn,37640.000104904175,Mon Jan 26 2026 16:29:29 GMT-0600 (Central Standard Time),345659.40000009537,A,lette,I,e,184,1,2632.600000143051,343026.7999999523,8092,WL,C,10.0
3,22.442999839782715,learn,37557.000160217285,Mon Jan 26 2026 16:29:29 GMT-0600 (Central Standard Time),345742.40000009537,A,letter,I,r,64,1,2715.600000143051,343026.7999999523,8092,WL,C,10.0
3,23.15999984741211,learn,36840.00015258789,Mon Jan 26 2026 16:29:29 GMT-0600 (Central Standard Time),346459.0,A,letters,I,s,701,1,3432.2000000476837,343026.7999999523,8092,WL,C,10.0
3,23.30999994277954,learn,36690.00005722046,Mon Jan 26 2026 16:29:29 GMT-0600 (Central Standard Time),346608.59999990463,A,lettersh,I,h,145,1,3581.7999999523163,343026.7999999523,8092,WL,C,10.0
3,23.376999855041504,learn,36623.000144958496,Mon Jan 26 2026 16:29:29 GMT-0600 (Central Standard Time),346675.7999999523,A,lettersho,I,o,52,1,3649.0,343026.7999999523,8092,WL,C,10.0
3,23.509999990463257,learn,36490.00000953674,Mon Jan 26 2026 16:29:29 GMT-0600 (Central Standard Time),346808.7000000477,A,lettershor,I,r,121,1,3781.9000000953674,343026.7999999523,8092,WL,C,10.0
3,23.609999895095825,learn,36390.000104904175,Mon Jan 26 2026 16:29:29 GMT-0600 (Central Standard Time),346908.7999999523,A,lettershore,I,e,84,1,3882.0,343026.7999999523,8092,WL,C,10.0
3,24.325999975204468,learn,35674.00002479553,Mon Jan 26 2026 16:29:29 GMT-0600 (Central Standard Time),347625.5,A,lettershor,I,backspace,704,1,4598.700000047684,343026.7999999523,8092,WL,C,10.0
3,24.491999864578247,learn,35508.00013542175,Mon Jan 26 2026 16:29:29 GMT-0600 (Central Standard Time),347791.5,A,lettersho,I,backspace,154,1,4764.700000047684,343026.7999999523,8092,WL,C,10.0
3,24.658999919891357,learn,35341.00008010864,Mon Jan 26 2026 16:29:29 GMT-0600 (Central Standard Time),347958.0,A,lettersh,I,backspace,148,1,4931.200000047684,343026.7999999523,8092,WL,C,10.0
3,24.79199981689453,learn,35208.00018310547,Mon Jan 26 2026 16:29:29 GMT-0600 (Central Standard Time),348091.2999999523,A,letters,I,backspace,118,1,5064.5,343026.7999999523,8092,WL,C,10.0
3,24.941999912261963,learn,35058.00008773804,Mon Jan 26 2026 16:29:29 GMT-0600 (Central Standard Time),348241.2000000477,A,letter,I,backspace,144,1,5214.400000095367,343026.7999999523,8092,WL,C,10.0
3,25.842000007629395,learn,34157.999992370605,Mon Jan 26 2026 16:29:29 GMT-0600 (Central Standard Time),349141.09999990463,A,letterenter,I,enter,882,1,6114.299999952316,343026.7999999523,8092,WL,C,10.0
3,26.941999912261963,learn,33058.00008773804,Mon Jan 26 2026 16:29:29 GMT-0600 (Central Standard Time),350240.7000000477,A,s,I,s,1094,1,1099.2999999523163,349141.40000009537,8092,WL,C,11.0
3,27.05899977684021,learn,32941.00022315979,Mon Jan 26 2026 16:29:29 GMT-0600 (Central Standard Time),350357.7000000477,A,sh,I,h,107,1,1216.2999999523163,349141.40000009537,8092,WL,C,11.0
3,27.14199995994568,learn,32858.00004005432,Mon Jan 26 2026 16:29:29 GMT-0600 (Central Standard Time),350441.09999990463,A,sho,I,o,71,1,1299.6999998092651,349141.40000009537,8092,WL,C,11.0
3,27.29199981689453,learn,32708.00018310547,Mon Jan 26 2026 16:29:29 GMT-0600 (Central Standard Time),350591.0,A,shor,I,r,131,1,1449.5999999046326,349141.40000009537,8092,WL,C,11.0
3,27.375999927520752,learn,32624.000072479248,Mon Jan 26 2026 16:29:29 GMT-0600 (Central Standard Time),350675.2999999523,A,shore,I,e,77,1,1533.8999998569489,349141.40000009537,8092,WL,C,11.0
3,28.45799994468689,learn,31542.00005531311,Mon Jan 26 2026 16:29:29 GMT-0600 (Central Standard Time),351757.40000009537,A,shoreenter,I,enter,1065,1,2616.0,349141.40000009537,8092,WL,C,11.0
3,35.75599980354309,learn,24244.00019645691,Mon Jan 26 2026 16:29:29 GMT-0600 (Central Standard Time),359055.0,A,q,I,q,7287,1,7297.099999904633,351757.90000009537,8092,WL,C,12.0
3,35.888999938964844,learn,24111.000061035156,Mon Jan 26 2026 16:29:29 GMT-0600 (Central Standard Time),359188.2999999523,A,qu,I,u,117,1,7430.399999856949,351757.90000009537,8092,WL,C,12.0
3,36.056999921798706,learn,23943.000078201294,Mon Jan 26 2026 16:29:29 GMT-0600 (Central Standard Time),359355.90000009537,A,que,I,e,159,1,7598.0,351757.90000009537,8092,WL,C,12.0
3,36.27199983596802,learn,23728.000164031982,Mon Jan 26 2026 16:29:29 GMT-0600 (Central Standard Time),359571.40000009537,A,quee,I,e,199,1,7813.5,351757.90000009537,8092,WL,C,12.0
3,36.42199993133545,learn,23578.00006866455,Mon Jan 26 2026 16:29:29 GMT-0600 (Central Standard Time),359721.2999999523,A,queen,I,n,145,1,7963.399999856949,351757.90000009537,8092,WL,C,12.0
3,36.67199993133545,learn,23328.00006866455,Mon Jan 26 2026 16:29:29 GMT-0600 (Central Standard Time),359971.0,A,queenenter,I,enter,242,1,8213.099999904633,351757.90000009537,8092,WL,C,12.0
3,40.00499987602234,learn,19995.00012397766,Mon Jan 26 2026 16:29:29 GMT-0600 (Central Standard Time),363304.0,A,enter,I,enter,3322,1,3332.7999999523163,359971.2000000477,8092,WL,C,13.0
3,40.63699984550476,learn,19363.00015449524,Mon Jan 26 2026 16:29:29 GMT-0600 (Central Standard Time),363936.7999999523,A,enter,I,enter,612,1,632.5,363304.2999999523,8092,WL,C,14.0
3,41.0699999332428,learn,18930.000066757202,Mon Jan 26 2026 16:29:29 GMT-0600 (Central Standard Time),364369.7999999523,A,enter,I,enter,418,1,432.59999990463257,363937.2000000477,8092,WL,C,15.0
4,0.6830000877380371,learn,59316.99991226196,Mon Jan 26 2026 16:29:29 GMT-0600 (Central Standard Time),429683.0,A,d,I,d,668,1,683.0,429000.0,8092,WL,C,1.0
4,0.9500000476837158,learn,59049.999952316284,Mon Jan 26 2026 16:29:29 GMT-0600 (Central Standard Time),429949.59999990463,A,do,I,o,248,1,949.5999999046326,429000.0,8092,WL,C,1.0
4,1.315999984741211,learn,58684.00001525879,Mon Jan 26 2026 16:29:29 GMT-0600 (Central Standard Time),430316.0,A,doc,I,c,359,1,1316.0,429000.0,8092,WL,C,1.0
4,1.633000135421753,learn,58366.99986457825,Mon Jan 26 2026 16:29:29 GMT-0600 (Central Standard Time),430632.7000000477,A,doct,I,t,312,1,1632.7000000476837,429000.0,8092,WL,C,1.0
4,1.7829999923706055,learn,58217.000007629395,Mon Jan 26 2026 16:29:29 GMT-0600 (Central Standard Time),430782.59999990463,A,docto,I,o,131,1,1782.5999999046326,429000.0,8092,WL,C,1.0
4,1.933000087738037,learn,58066.99991226196,Mon Jan 26 2026 16:29:29 GMT-0600 (Central Standard Time),430932.5,A,doctor,I,r,134,1,1932.5,429000.0,8092,WL,C,1.0
4,2.3000001907348633,learn,57699.99980926514,Mon Jan 26 2026 16:29:29 GMT-0600 (Central Standard Time),431299.09999990463,A,doctorenter,I,enter,359,1,2299.0999999046326,429000.0,8092,WL,C,1.0
4,2.6710000038146973,learn,57328.9999961853,Mon Jan 26 2026 16:29:29 GMT-0600 (Central Standard Time),431670.7000000477,A,b,I,b,366,1,371.2000000476837,431299.5,8092,WL,C,2.0
4,2.819000005722046,learn,57180.999994277954,Mon Jan 26 2026 16:29:29 GMT-0600 (Central Standard Time),431818.7000000477,A,bo,I,o,143,1,519.2000000476837,431299.5,8092,WL,C,2.0
4,3.0160000324249268,learn,56983.99996757507,Mon Jan 26 2026 16:29:29 GMT-0600 (Central Standard Time),432015.59999990463,A,bod,I,d,186,1,716.0999999046326,431299.5,8092,WL,C,2.0
4,3.199000120162964,learn,56800.999879837036,Mon Jan 26 2026 16:29:29 GMT-0600 (Central Standard Time),432198.7999999523,A,body,I,y,172,1,899.2999999523163,431299.5,8092,WL,C,2.0
4,3.5490000247955322,learn,56450.99997520447,Mon Jan 26 2026 16:29:29 GMT-0600 (Central Standard Time),432548.59999990463,A,bodyenter,I,enter,341,1,1249.0999999046326,431299.5,8092,WL,C,2.0
4,4.166000127792358,learn,55833.99987220764,Mon Jan 26 2026 16:29:29 GMT-0600 (Central Standard Time),433165.2999999523,A,c,I,c,599,1,616.3999998569489,432548.90000009537,8092,WL,C,3.0
4,4.232000112533569,learn,55767.99988746643,Mon Jan 26 2026 16:29:29 GMT-0600 (Central Standard Time),433231.90000009537,A,ca,I,a,46,1,683.0,432548.90000009537,8092,WL,C,3.0
4,4.39900016784668,learn,55600.99983215332,Mon Jan 26 2026 16:29:29 GMT-0600 (Central Standard Time),433398.40000009537,A,cam,I,m,148,1,849.5,432548.90000009537,8092,WL,C,3.0
4,4.615000009536743,learn,55384.99999046326,Mon Jan 26 2026 16:29:29 GMT-0600 (Central Standard Time),433615.0,A,camp,I,p,206,1,1066.0999999046326,432548.90000009537,8092,WL,C,3.0
4,5.049000024795532,learn,54950.99997520447,Mon Jan 26 2026 16:29:29 GMT-0600 (Central Standard Time),434048.40000009537,A,campenter,I,enter,421,1,1499.5,432548.90000009537,8092,WL,C,3.0
4,7.815000057220459,learn,52184.99994277954,Mon Jan 26 2026 16:29:29 GMT-0600 (Central Standard Time),436814.2000000477,A,f,I,f,2749,1,2765.5,434048.7000000477,8092,WL,C,4.0
4,7.898000001907349,learn,52101.99999809265,Mon Jan 26 2026 16:29:29 GMT-0600 (Central Standard Time),436897.2999999523,A,fl,I,l,71,1,2848.5999999046326,434048.7000000477,8092,WL,C,4.0
4,8.064000129699707,learn,51935.99987030029,Mon Jan 26 2026 16:29:29 GMT-0600 (Central Standard Time),437064.0,A,fla,I,a,146,1,3015.2999999523163,434048.7000000477,8092,WL,C,4.0
4,8.29800009727478,learn,51701.99990272522,Mon Jan 26 2026 16:29:29 GMT-0600 (Central Standard Time),437297.2000000477,A,flag,I,g,213,1,3248.5,434048.7000000477,8092,WL,C,4.0
4,8.564000129699707,learn,51435.99987030029,Mon Jan 26 2026 16:29:29 GMT-0600 (Central Standard Time),437563.90000009537,A,flagenter,I,enter,260,1,3515.2000000476837,434048.7000000477,8092,WL,C,4.0
4,9.264000177383423,learn,50735.99982261658,Mon Jan 26 2026 16:29:29 GMT-0600 (Central Standard Time),438263.5,A,w,I,w,689,1,699.4000000953674,437564.09999990463,8092,WL,C,5.0
4,9.364000082015991,learn,50635.99991798401,Mon Jan 26 2026 16:29:29 GMT-0600 (Central Standard Time),438363.5,A,wh,I,h,93,1,799.4000000953674,437564.09999990463,8092,WL,C,5.0
4,9.514000177383423,learn,50485.99982261658,Mon Jan 26 2026 16:29:29 GMT-0600 (Central Standard Time),438513.2000000477,A,whe,I,e,144,1,949.1000001430511,437564.09999990463,8092,WL,C,5.0
4,9.647000074386597,learn,50352.9999256134,Mon Jan 26 2026 16:29:29 GMT-0600 (Central Standard Time),438646.59999990463,A,whea,I,a,123,1,1082.5,437564.09999990463,8092,WL,C,5.0
4,9.830000162124634,learn,50169.999837875366,Mon Jan 26 2026 16:29:29 GMT-0600 (Central Standard Time),438830.09999990463,A,wheat,I,t,165,1,1266.0,437564.09999990463,8092,WL,C,5.0
4,10.097000122070312,learn,49902.99987792969,Mon Jan 26 2026 16:29:29 GMT-0600 (Central Standard Time),439096.59999990463,A,wheatenter,I,enter,262,1,1532.5,437564.09999990463,8092,WL,C,5.0
4,10.397000074386597,learn,49602.9999256134,Mon Jan 26 2026 16:29:29 GMT-0600 (Central Standard Time),439396.5,A,s,I,s,283,1,299.7000000476837,439096.7999999523,8092,WL,C,6.0
4,10.547000169754028,learn,49452.99983024597,Mon Jan 26 2026 16:29:29 GMT-0600 (Central Standard Time),439546.40000009537,A,su,I,u,135,1,449.60000014305115,439096.7999999523,8092,WL,C,6.0
4,11.147000074386597,learn,48852.9999256134,Mon Jan 26 2026 16:29:29 GMT-0600 (Central Standard Time),440146.2000000477,A,sug,I,g,585,1,1049.4000000953674,439096.7999999523,8092,WL,C,6.0
4,11.264000177383423,learn,48735.99982261658,Mon Jan 26 2026 16:29:29 GMT-0600 (Central Standard Time),440263.2000000477,A,suga,I,a,97,1,1166.4000000953674,439096.7999999523,8092,WL,C,6.0
4,11.480000019073486,learn,48519.999980926514,Mon Jan 26 2026 16:29:29 GMT-0600 (Central Standard Time),440479.5,A,sugar,I,r,206,1,1382.7000000476837,439096.7999999523,8092,WL,C,6.0
4,11.763000011444092,learn,48236.99998855591,Mon Jan 26 2026 16:29:29 GMT-0600 (Central Standard Time),440762.7999999523,A,sugarenter,I,enter,269,1,1666.0,439096.7999999523,8092,WL,C,6.0
4,12.297000169754028,learn,47702.99983024597,Mon Jan 26 2026 16:29:29 GMT-0600 (Central Standard Time),441296.09999990463,A,c,I,c,513,1,533.0,440763.09999990463,8092,WL,C,7.0
4,12.413000106811523,learn,47586.99989318848,Mon Jan 26 2026 16:29:29 GMT-0600 (Central Standard Time),441412.40000009537,A,co,I,o,108,1,649.3000001907349,440763.09999990463,8092,WL,C,7.0
4,12.61300015449524,learn,47386.99984550476,Mon Jan 26 2026 16:29:29 GMT-0600 (Central Standard Time),441612.5,A,cor,I,r,184,1,849.4000000953674,440763.09999990463,8092,WL,C,7.0
4,12.763000011444092,learn,47236.99998855591,Mon Jan 26 2026 16:29:29 GMT-0600 (Central Standard Time),441762.5,A,corn,I,n,135,1,999.4000000953674,440763.09999990463,8092,WL,C,7.0
4,13.078999996185303,learn,46921.0000038147,Mon Jan 26 2026 16:29:29 GMT-0600 (Central Standard Time),442078.90000009537,A,cornenter,I,enter,297,1,1315.8000001907349,440763.09999990463,8092,WL,C,7.0
4,18.5770001411438,learn,41422.9998588562,Mon Jan 26 2026 16:29:29 GMT-0600 (Central Standard Time),447577.09999990463,A,b,I,b,5493,1,5497.899999856949,442079.2000000477,8092,WL,C,8.0
4,18.66100001335144,learn,41338.99998664856,Mon Jan 26 2026 16:29:29 GMT-0600 (Central Standard Time),447660.7000000477,A,bo,I,o,75,1,5581.5,442079.2000000477,8092,WL,C,8.0
4,18.91100001335144,learn,41088.99998664856,Mon Jan 26 2026 16:29:29 GMT-0600 (Central Standard Time),447910.7000000477,A,bod,I,d,240,1,5831.5,442079.2000000477,8092,WL,C,8.0
4,19.128000020980835,learn,40871.999979019165,Mon Jan 26 2026 16:29:29 GMT-0600 (Central Standard Time),448127.2999999523,A,body,I,y,206,1,6048.099999904633,442079.2000000477,8092,WL,C,8.0
4,19.66100001335144,learn,40338.99998664856,Mon Jan 26 2026 16:29:29 GMT-0600 (Central Standard Time),448660.2000000477,A,bod,I,backspace,517,1,6581.0,442079.2000000477,8092,WL,C,8.0
4,19.8270001411438,learn,40172.9998588562,Mon Jan 26 2026 16:29:29 GMT-0600 (Central Standard Time),448827.0,A,bo,I,backspace,152,1,6747.799999952316,442079.2000000477,8092,WL,C,8.0
4,19.97699999809265,learn,40023.00000190735,Mon Jan 26 2026 16:29:29 GMT-0600 (Central Standard Time),448976.7000000477,A,b,I,backspace,145,1,6897.5,442079.2000000477,8092,WL,C,8.0
4,20.14400005340576,learn,39855.99994659424,Mon Jan 26 2026 16:29:29 GMT-0600 (Central Standard Time),449143.7999999523,A,,I,backspace,147,1,7064.599999904633,442079.2000000477,8092,WL,C,8.0
4,21.343000173568726,learn,38656.999826431274,Mon Jan 26 2026 16:29:29 GMT-0600 (Central Standard Time),450343.09999990463,A,s,I,s,1180,1,8263.899999856949,442079.2000000477,8092,WL,C,8.0
4,21.427000045776367,learn,38572.99995422363,Mon Jan 26 2026 16:29:29 GMT-0600 (Central Standard Time),450426.40000009537,A,sh,I,h,77,1,8347.200000047684,442079.2000000477,8092,WL,C,8.0
4,21.509999990463257,learn,38490.00000953674,Mon Jan 26 2026 16:29:29 GMT-0600 (Central Standard Time),450509.7999999523,A,sho,I,o,74,1,8430.599999904633,442079.2000000477,8092,WL,C,8.0
4,21.710000038146973,learn,38289.99996185303,Mon Jan 26 2026 16:29:29 GMT-0600 (Central Standard Time),450709.7000000477,A,shor,I,r,182,1,8630.5,442079.2000000477,8092,WL,C,8.0
4,21.792999982833862,learn,38207.00001716614,Mon Jan 26 2026 16:29:29 GMT-0600 (Central Standard Time),450792.7999999523,A,shore,I,e,63,1,8713.599999904633,442079.2000000477,8092,WL,C,8.0
4,21.97699999809265,learn,38023.00000190735,Mon Jan 26 2026 16:29:29 GMT-0600 (Central Standard Time),450976.2999999523,A,shoreenter,I,enter,163,1,8897.099999904633,442079.2000000477,8092,WL,C,8.0
4,22.87600016593933,learn,37123.99983406067,Mon Jan 26 2026 16:29:29 GMT-0600 (Central Standard Time),451875.7999999523,A,c,I,c,892,1,899.2000000476837,450976.59999990463,8092,WL,C,9.0
4,22.960000038146973,learn,37039.99996185303,Mon Jan 26 2026 16:29:29 GMT-0600 (Central Standard Time),451959.2999999523,A,ca,I,a,71,1,982.7000000476837,450976.59999990463,8092,WL,C,9.0
4,23.075999975204468,learn,36924.00002479553,Mon Jan 26 2026 16:29:29 GMT-0600 (Central Standard Time),452075.90000009537,A,cam,I,m,101,1,1099.3000001907349,450976.59999990463,8092,WL,C,9.0
4,23.292999982833862,learn,36707.00001716614,Mon Jan 26 2026 16:29:29 GMT-0600 (Central Standard Time),452292.5,A,camp,I,p,209,1,1315.9000000953674,450976.59999990463,8092,WL,C,9.0
4,23.593000173568726,learn,36406.999826431274,Mon Jan 26 2026 16:29:29 GMT-0600 (Central Standard Time),452592.2000000477,A,campenter,I,enter,279,1,1615.6000001430511,450976.59999990463,8092,WL,C,9.0
4,23.858999967575073,learn,36141.00003242493,Mon Jan 26 2026 16:29:29 GMT-0600 (Central Standard Time),452859.0,A,l,I,l,259,1,266.5,452592.5,8092,WL,C,10.0
4,23.95900011062622,learn,36040.99988937378,Mon Jan 26 2026 16:29:29 GMT-0600 (Central Standard Time),452959.0,A,le,I,e,89,1,366.5,452592.5,8092,WL,C,10.0
4,24.14300012588501,learn,35856.99987411499,Mon Jan 26 2026 16:29:29 GMT-0600 (Central Standard Time),453142.2999999523,A,let,I,t,164,1,549.7999999523163,452592.5,8092,WL,C,10.0
4,24.325999975204468,learn,35674.00002479553,Mon Jan 26 2026 16:29:29 GMT-0600 (Central Standard Time),453325.59999990463,A,lett,I,t,174,1,733.0999999046326,452592.5,8092,WL,C,10.0
4,24.526000022888184,learn,35473.99997711182,Mon Jan 26 2026 16:29:29 GMT-0600 (Central Standard Time),453525.7000000477,A,lette,I,e,182,1,933.2000000476837,452592.5,8092,WL,C,10.0
4,24.62600016593933,learn,35373.99983406067,Mon Jan 26 2026 16:29:29 GMT-0600 (Central Standard Time),453625.2000000477,A,letter,I,r,79,1,1032.7000000476837,452592.5,8092,WL,C,10.0
4,24.825999975204468,learn,35174.00002479553,Mon Jan 26 2026 16:29:29 GMT-0600 (Central Standard Time),453825.59999990463,A,letterenter,I,enter,186,1,1233.0999999046326,452592.5,8092,WL,C,10.0
4,25.176000118255615,learn,34823.999881744385,Mon Jan 26 2026 16:29:29 GMT-0600 (Central Standard Time),454175.09999990463,A,b,I,b,330,1,349.09999990463257,453826.0,8092,WL,C,11.0
4,25.29200005531311,learn,34707.99994468689,Mon Jan 26 2026 16:29:29 GMT-0600 (Central Standard Time),454292.09999990463,A,bo,I,o,100,1,466.09999990463257,453826.0,8092,WL,C,11.0
4,25.509000062942505,learn,34490.999937057495,Mon Jan 26 2026 16:29:29 GMT-0600 (Central Standard Time),454508.2999999523,A,boy,I,y,200,1,682.2999999523163,453826.0,8092,WL,C,11.0
4,25.825999975204468,learn,34174.00002479553,Mon Jan 26 2026 16:29:29 GMT-0600 (Central Standard Time),454825.09999990463,A,boyenter,I,enter,303,1,999.0999999046326,453826.0,8092,WL,C,11.0
4,37.63900017738342,learn,22360.999822616577,Mon Jan 26 2026 16:29:29 GMT-0600 (Central Standard Time),466638.09999990463,A,enter,I,enter,11795,1,11812.599999904633,454825.5,8092,WL,C,12.0
4,38.00500011444092,learn,21994.999885559082,Mon Jan 26 2026 16:29:29 GMT-0600 (Central Standard Time),467004.59999990463,A,enter,I,enter,350,1,366.09999990463257,466638.5,8092,WL,C,13.0
4,38.33899998664856,learn,21661.00001335144,Mon Jan 26 2026 16:29:29 GMT-0600 (Central Standard Time),467338.7999999523,A,enter,I,enter,328,1,333.7999999523163,467005.0,8092,WL,C,14.0
4,38.87100005149841,learn,21128.999948501587,Mon Jan 26 2026 16:29:29 GMT-0600 (Central Standard Time),467870.7000000477,A,enter,I,enter,521,1,531.2999999523163,467339.40000009537,8092,WL,C,15.0
5,0.6499998569488525,learn,60000.0,Mon Jan 26 2026 16:29:29 GMT-0600 (Central Standard Time),533650.5999999046,A,n,I,n,643,1,649.5999999046326,533001.0,8092,WL,C,1.0
5,0.7329998016357422,learn,60000.0,Mon Jan 26 2026 16:29:29 GMT-0600 (Central Standard Time),533734.0,A,na,I,a,73,1,733.0,533001.0,8092,WL,C,1.0
5,0.9159998893737793,learn,60000.0,Mon Jan 26 2026 16:29:29 GMT-0600 (Central Standard Time),533916.9000000954,A,nai,I,i,174,1,915.9000000953674,533001.0,8092,WL,C,1.0
5,1.0999999046325684,learn,60000.0,Mon Jan 26 2026 16:29:29 GMT-0600 (Central Standard Time),534100.4000000954,A,nail,I,l,168,1,1099.4000000953674,533001.0,8092,WL,C,1.0
5,1.4659998416900635,learn,60000.0,Mon Jan 26 2026 16:29:29 GMT-0600 (Central Standard Time),534466.7999999523,A,nailenter,I,enter,352,1,1465.7999999523163,533001.0,8092,WL,C,1.0
5,1.932999849319458,learn,60000.0,Mon Jan 26 2026 16:29:29 GMT-0600 (Central Standard Time),534933.5,A,b,I,b,457,1,466.2999999523163,534467.2000000477,8092,WL,C,2.0
5,2.0319998264312744,learn,60000.0,Mon Jan 26 2026 16:29:29 GMT-0600 (Central Standard Time),535032.9000000954,A,bo,I,o,94,1,565.7000000476837,534467.2000000477,8092,WL,C,2.0
5,2.4489998817443848,learn,60000.0,Mon Jan 26 2026 16:29:29 GMT-0600 (Central Standard Time),535449.7999999523,A,bod,I,d,411,1,982.5999999046326,534467.2000000477,8092,WL,C,2.0
5,3.56499981880188,learn,60000.0,Mon Jan 26 2026 16:29:29 GMT-0600 (Central Standard Time),536566.2999999523,A,body,I,y,1098,1,2099.0999999046326,534467.2000000477,8092,WL,C,2.0
5,3.8320000171661377,learn,60000.0,Mon Jan 26 2026 16:29:29 GMT-0600 (Central Standard Time),536832.7000000477,A,bodyenter,I,enter,245,1,2365.5,534467.2000000477,8092,WL,C,2.0
5,4.264999866485596,learn,60000.0,Mon Jan 26 2026 16:29:29 GMT-0600 (Central Standard Time),537266.0,A,d,I,d,427,1,432.90000009536743,536833.0999999046,8092,WL,C,3.0
5,4.414999961853027,learn,60000.0,Mon Jan 26 2026 16:29:29 GMT-0600 (Central Standard Time),537415.7000000477,A,do,I,o,130,1,582.6000001430511,536833.0999999046,8092,WL,C,3.0
5,4.56499981880188,learn,60000.0,Mon Jan 26 2026 16:29:29 GMT-0600 (Central Standard Time),537565.7999999523,A,doc,I,c,133,1,732.7000000476837,536833.0999999046,8092,WL,C,3.0
5,4.865000009536743,learn,60000.0,Mon Jan 26 2026 16:29:29 GMT-0600 (Central Standard Time),537865.5999999046,A,doct,I,t,295,1,1032.5,536833.0999999046,8092,WL,C,3.0
5,4.9649999141693115,learn,60000.0,Mon Jan 26 2026 16:29:29 GMT-0600 (Central Standard Time),537965.7000000477,A,docto,I,o,91,1,1132.6000001430511,536833.0999999046,8092,WL,C,3.0
5,5.130999803543091,learn,60000.0,Mon Jan 26 2026 16:29:29 GMT-0600 (Central Standard Time),538132.2999999523,A,doctor,I,r,150,1,1299.2000000476837,536833.0999999046,8092,WL,C,3.0
5,5.297999858856201,learn,60000.0,Mon Jan 26 2026 16:29:29 GMT-0600 (Central Standard Time),538299.0,A,doctorenter,I,enter,151,1,1465.9000000953674,536833.0999999046,8092,WL,C,3.0
5,6.113999843597412,learn,60000.0,Mon Jan 26 2026 16:29:29 GMT-0600 (Central Standard Time),539115.4000000954,A,b,I,b,809,1,816.0,538299.4000000954,8092,WL,C,4.0
5,6.197000026702881,learn,60000.0,Mon Jan 26 2026 16:29:29 GMT-0600 (Central Standard Time),539198.5,A,bo,I,o,64,1,899.0999999046326,538299.4000000954,8092,WL,C,4.0
5,6.380999803543091,learn,60000.0,Mon Jan 26 2026 16:29:29 GMT-0600 (Central Standard Time),539382.2000000477,A,boy,I,y,174,1,1082.7999999523163,538299.4000000954,8092,WL,C,4.0
5,6.813999891281128,learn,60000.0,Mon Jan 26 2026 16:29:29 GMT-0600 (Central Standard Time),539815.0999999046,A,boyenter,I,enter,421,1,1515.6999998092651,538299.4000000954,8092,WL,C,4.0
5,8.179999828338623,learn,60000.0,Mon Jan 26 2026 16:29:29 GMT-0600 (Central Standard Time),541181.4000000954,A,h,I,h,1358,1,1366.0,539815.4000000954,8092,WL,C,5.0
5,8.263000011444092,learn,60000.0,Mon Jan 26 2026 16:29:29 GMT-0600 (Central Standard Time),541264.7000000477,A,ho,I,o,63,1,1449.2999999523163,539815.4000000954,8092,WL,C,5.0
5,8.46399998664856,learn,60000.0,Mon Jan 26 2026 16:29:29 GMT-0600 (Central Standard Time),541464.7000000477,A,hom,I,m,180,1,1649.2999999523163,539815.4000000954,8092,WL,C,5.0
5,8.61299991607666,learn,60000.0,Mon Jan 26 2026 16:29:29 GMT-0600 (Central Standard Time),541614.5,A,home,I,e,139,1,1799.0999999046326,539815.4000000954,8092,WL,C,5.0
5,8.863999843597412,learn,60000.0,Mon Jan 26 2026 16:29:29 GMT-0600 (Central Standard Time),541864.7999999523,A,homeenter,I,enter,238,1,2049.399999856949,539815.4000000954,8092,WL,C,5.0
5,9.929999828338623,learn,60000.0,Mon Jan 26 2026 16:29:29 GMT-0600 (Central Standard Time),542930.9000000954,A,c,I,c,1059,1,1065.7000000476837,541865.2000000477,8092,WL,C,6.0
5,10.013000011444092,learn,60000.0,Mon Jan 26 2026 16:29:29 GMT-0600 (Central Standard Time),543014.2000000477,A,ca,I,a,73,1,1149.0,541865.2000000477,8092,WL,C,6.0
5,10.162999868392944,learn,60000.0,Mon Jan 26 2026 16:29:29 GMT-0600 (Central Standard Time),543163.9000000954,A,cam,I,m,142,1,1298.7000000476837,541865.2000000477,8092,WL,C,6.0
5,10.395999908447266,learn,60000.0,Mon Jan 26 2026 16:29:29 GMT-0600 (Central Standard Time),543397.4000000954,A,camp,I,p,225,1,1532.2000000476837,541865.2000000477,8092,WL,C,6.0
5,10.895999908447266,learn,60000.0,Mon Jan 26 2026 16:29:29 GMT-0600 (Central Standard Time),543897.0999999046,A,campenter,I,enter,487,1,2031.8999998569489,541865.2000000477,8092,WL,C,6.0
5,11.728999853134155,learn,60000.0,Mon Jan 26 2026 16:29:29 GMT-0600 (Central Standard Time),544730.2999999523,A,s,I,s,818,1,833.0,543897.2999999523,8092,WL,C,7.0
5,11.878999948501587,learn,60000.0,Mon Jan 26 2026 16:29:29 GMT-0600 (Central Standard Time),544880.2999999523,A,su,I,u,145,1,983.0,543897.2999999523,8092,WL,C,7.0
5,12.27899980545044,learn,60000.0,Mon Jan 26 2026 16:29:29 GMT-0600 (Central Standard Time),545280.2000000477,A,sug,I,g,387,1,1382.9000000953674,543897.2999999523,8092,WL,C,7.0
5,12.411999940872192,learn,60000.0,Mon Jan 26 2026 16:29:29 GMT-0600 (Central Standard Time),545413.2999999523,A,suga,I,a,115,1,1516.0,543897.2999999523,8092,WL,C,7.0
5,12.611999988555908,learn,60000.0,Mon Jan 26 2026 16:29:29 GMT-0600 (Central Standard Time),545613.4000000954,A,sugar,I,r,182,1,1716.1000001430511,543897.2999999523,8092,WL,C,7.0
5,12.928999900817871,learn,60000.0,Mon Jan 26 2026 16:29:29 GMT-0600 (Central Standard Time),545929.5999999046,A,sugarenter,I,enter,310,1,2032.2999999523163,543897.2999999523,8092,WL,C,7.0
5,14.144999980926514,learn,60000.0,Mon Jan 26 2026 16:29:29 GMT-0600 (Central Standard Time),547146.5,A,w,I,w,1203,1,1216.5999999046326,545929.9000000954,8092,WL,C,8.0
5,14.260999917984009,learn,60000.0,Mon Jan 26 2026 16:29:29 GMT-0600 (Central Standard Time),547262.5999999046,A,wh,I,h,97,1,1332.6999998092651,545929.9000000954,8092,WL,C,8.0
5,14.411999940872192,learn,60000.0,Mon Jan 26 2026 16:29:29 GMT-0600 (Central Standard Time),547412.7000000477,A,whe,I,e,134,1,1482.7999999523163,545929.9000000954,8092,WL,C,8.0
5,14.577999830245972,learn,60000.0,Mon Jan 26 2026 16:29:29 GMT-0600 (Central Standard Time),547579.5999999046,A,whea,I,a,159,1,1649.6999998092651,545929.9000000954,8092,WL,C,8.0
5,14.760999917984009,learn,60000.0,Mon Jan 26 2026 16:29:29 GMT-0600 (Central Standard Time),547762.5999999046,A,wheat,I,t,177,1,1832.6999998092651,545929.9000000954,8092,WL,C,8.0
5,15.027999877929688,learn,60000.0,Mon Jan 26 2026 16:29:29 GMT-0600 (Central Standard Time),548029.2000000477,A,wheatenter,I,enter,258,1,2099.2999999523163,545929.9000000954,8092,WL,C,8.0
5,15.343999862670898,learn,60000.0,Mon Jan 26 2026 16:29:29 GMT-0600 (Central Standard Time),548345.5,A,c,I,c,311,1,315.90000009536743,548029.5999999046,8092,WL,C,9.0
5,15.42799997329712,learn,60000.0,Mon Jan 26 2026 16:29:29 GMT-0600 (Central Standard Time),548429.2000000477,A,ca,I,a,74,1,399.60000014305115,548029.5999999046,8092,WL,C,9.0
5,15.643999814987183,learn,60000.0,Mon Jan 26 2026 16:29:29 GMT-0600 (Central Standard Time),548645.5999999046,A,cat,I,t,198,1,616.0,548029.5999999046,8092,WL,C,9.0
5,15.84500002861023,learn,60000.0,Mon Jan 26 2026 16:29:29 GMT-0600 (Central Standard Time),548845.7999999523,A,catt,I,t,191,1,816.2000000476837,548029.5999999046,8092,WL,C,9.0
5,15.944999933242798,learn,60000.0,Mon Jan 26 2026 16:29:29 GMT-0600 (Central Standard Time),548946.5999999046,A,cattl,I,l,94,1,917.0,548029.5999999046,8092,WL,C,9.0
5,16.0939998626709,learn,60000.0,Mon Jan 26 2026 16:29:29 GMT-0600 (Central Standard Time),549095.5999999046,A,cattle,I,e,137,1,1066.0,548029.5999999046,8092,WL,C,9.0
5,16.3439998626709,learn,60000.0,Mon Jan 26 2026 16:29:29 GMT-0600 (Central Standard Time),549345.5,A,cattleenter,I,enter,236,1,1315.9000000953674,548029.5999999046,8092,WL,C,9.0
5,19.575999975204468,learn,60000.0,Mon Jan 26 2026 16:29:29 GMT-0600 (Central Standard Time),552577.5,A,q,I,q,3227,1,3231.7999999523163,549345.7000000477,8092,WL,C,10.0
5,19.72699999809265,learn,60000.0,Mon Jan 26 2026 16:29:29 GMT-0600 (Central Standard Time),552728.0999999046,A,qu,I,u,138,1,3382.399999856949,549345.7000000477,8092,WL,C,10.0
5,19.89299988746643,learn,60000.0,Mon Jan 26 2026 16:29:29 GMT-0600 (Central Standard Time),552894.4000000954,A,que,I,e,148,1,3548.7000000476837,549345.7000000477,8092,WL,C,10.0
5,20.092999935150146,learn,60000.0,Mon Jan 26 2026 16:29:29 GMT-0600 (Central Standard Time),553094.2999999523,A,quee,I,e,181,1,3748.5999999046326,549345.7000000477,8092,WL,C,10.0
5,20.276000022888184,learn,60000.0,Mon Jan 26 2026 16:29:29 GMT-0600 (Central Standard Time),553277.5,A,queen,I,n,173,1,3931.7999999523163,549345.7000000477,8092,WL,C,10.0
5,20.64299988746643,learn,60000.0,Mon Jan 26 2026 16:29:29 GMT-0600 (Central Standard Time),553644.0999999046,A,queenenter,I,enter,359,1,4298.399999856949,549345.7000000477,8092,WL,C,10.0
5,28.090999841690063,learn,60000.0,Mon Jan 26 2026 16:29:29 GMT-0600 (Central Standard Time),561091.7999999523,A,f,I,f,7441,1,7447.399999856949,553644.4000000954,8092,WL,C,11.0
5,28.19099998474121,learn,60000.0,Mon Jan 26 2026 16:29:29 GMT-0600 (Central Standard Time),561192.0999999046,A,fl,I,l,79,1,7547.699999809265,553644.4000000954,8092,WL,C,11.0
5,28.323999881744385,learn,60000.0,Mon Jan 26 2026 16:29:29 GMT-0600 (Central Standard Time),561325.2999999523,A,fla,I,a,125,1,7680.899999856949,553644.4000000954,8092,WL,C,11.0
5,28.556999921798706,learn,60000.0,Mon Jan 26 2026 16:29:29 GMT-0600 (Central Standard Time),561558.2999999523,A,flag,I,g,222,1,7913.899999856949,553644.4000000954,8092,WL,C,11.0
5,28.806999921798706,learn,60000.0,Mon Jan 26 2026 16:29:29 GMT-0600 (Central Standard Time),561808.4000000954,A,flagenter,I,enter,237,1,8164.0,553644.4000000954,8092,WL,C,11.0
5,31.705999851226807,learn,60000.0,Mon Jan 26 2026 16:29:29 GMT-0600 (Central Standard Time),564707.2999999523,A,l,I,l,2892,1,2898.5999999046326,561808.7000000477,8092,WL,C,12.0
5,31.822999954223633,learn,60000.0,Mon Jan 26 2026 16:29:29 GMT-0600 (Central Standard Time),564824.0,A,le,I,e,105,1,3015.2999999523163,561808.7000000477,8092,WL,C,12.0
5,31.972999811172485,learn,60000.0,Mon Jan 26 2026 16:29:29 GMT-0600 (Central Standard Time),564974.2000000477,A,let,I,t,141,1,3165.5,561808.7000000477,8092,WL,C,12.0
5,32.139999866485596,learn,60000.0,Mon Jan 26 2026 16:29:29 GMT-0600 (Central Standard Time),565140.7000000477,A,lett,I,t,158,1,3332.0,561808.7000000477,8092,WL,C,12.0
5,32.33899998664856,learn,60000.0,Mon Jan 26 2026 16:29:29 GMT-0600 (Central Standard Time),565340.5,A,lette,I,e,191,1,3531.7999999523163,561808.7000000477,8092,WL,C,12.0
5,32.43899989128113,learn,60000.0,Mon Jan 26 2026 16:29:29 GMT-0600 (Central Standard Time),565440.4000000954,A,letter,I,r,87,1,3631.7000000476837,561808.7000000477,8092,WL,C,12.0
5,32.65599989891052,learn,60000.0,Mon Jan 26 2026 16:29:29 GMT-0600 (Central Standard Time),565657.0,A,letterenter,I,enter,203,1,3848.2999999523163,561808.7000000477,8092,WL,C,12.0
5,33.288999795913696,learn,60000.0,Mon Jan 26 2026 16:29:29 GMT-0600 (Central Standard Time),566289.7999999523,A,enter,I,enter,628,1,632.3999998569489,565657.4000000954,8092,WL,C,13.0
5,33.50599980354309,learn,60000.0,Mon Jan 26 2026 16:29:29 GMT-0600 (Central Standard Time),566506.9000000954,A,enter,I,enter,203,1,216.80000019073486,566290.0999999046,8092,WL,C,14.0
5,33.888999938964844,learn,60000.0,Mon Jan 26 2026 16:29:29 GMT-0600 (Central Standard Time),566889.7999999523,A,enter,I,enter,368,1,382.2999999523163,566507.5,8092,WL,C,15.0
6,1.1329998970031738,distr,58867.000102996826,Mon Jan 26 2026 16:29:29 GMT-0600 (Central Standard Time),632569.5,B,w,I,w,1127,1,1132.5999999046326,631436.9000000954,8092,WL,C,1.0
6,1.2170000076293945,distr,58782.999992370605,Mon Jan 26 2026 16:29:29 GMT-0600 (Central Standard Time),632653.9000000954,B,wi,I,i,74,1,1217.0,631436.9000000954,8092,WL,C,1.0
6,1.433000087738037,distr,58566.99991226196,Mon Jan 26 2026 16:29:29 GMT-0600 (Central Standard Time),632869.4000000954,B,win,I,n,199,1,1432.5,631436.9000000954,8092,WL,C,1.0
6,1.5499999523162842,distr,58450.000047683716,Mon Jan 26 2026 16:29:29 GMT-0600 (Central Standard Time),632986.5999999046,B,wint,I,t,110,1,1549.6999998092651,631436.9000000954,8092,WL,C,1.0
6,1.749000072479248,distr,58250.99992752075,Mon Jan 26 2026 16:29:29 GMT-0600 (Central Standard Time),633185.7999999523,B,winte,I,e,194,1,1748.8999998569489,631436.9000000954,8092,WL,C,1.0
6,1.8329999446868896,distr,58167.00005531311,Mon Jan 26 2026 16:29:29 GMT-0600 (Central Standard Time),633269.5999999046,B,winter,I,r,66,1,1832.6999998092651,631436.9000000954,8092,WL,C,1.0
6,2.1659998893737793,distr,57834.00011062622,Mon Jan 26 2026 16:29:29 GMT-0600 (Central Standard Time),633602.5999999046,B,winterenter,I,enter,326,1,2165.699999809265,631436.9000000954,8092,WL,C,1.0
6,3.3989999294281006,distr,56601.0000705719,Mon Jan 26 2026 16:29:29 GMT-0600 (Central Standard Time),634835.4000000954,B,s,I,s,1225,1,1232.5,633602.9000000954,8092,WL,C,2.0
6,3.881999969482422,distr,56118.00003051758,Mon Jan 26 2026 16:29:29 GMT-0600 (Central Standard Time),635318.5999999046,B,,I,backspace,465,1,1715.6999998092651,633602.9000000954,8092,WL,C,2.0
6,4.014999866485596,distr,55985.000133514404,Mon Jan 26 2026 16:29:29 GMT-0600 (Central Standard Time),635451.7999999523,B,c,I,c,117,1,1848.8999998569489,633602.9000000954,8092,WL,C,2.0
6,4.598999977111816,distr,55401.00002288818,Mon Jan 26 2026 16:29:29 GMT-0600 (Central Standard Time),636035.0999999046,B,ch,I,h,569,1,2432.199999809265,633602.9000000954,8092,WL,C,2.0
6,4.914999961853027,distr,55085.00003814697,Mon Jan 26 2026 16:29:29 GMT-0600 (Central Standard Time),636351.7000000477,B,chr,I,r,296,1,2748.7999999523163,633602.9000000954,8092,WL,C,2.0
6,4.999000072479248,distr,55000.99992752075,Mon Jan 26 2026 16:29:29 GMT-0600 (Central Standard Time),636435.0999999046,B,chri,I,i,69,1,2832.199999809265,633602.9000000954,8092,WL,C,2.0
6,5.197999954223633,distr,54802.00004577637,Mon Jan 26 2026 16:29:29 GMT-0600 (Central Standard Time),636634.7000000477,B,chris,I,s,193,1,3031.7999999523163,633602.9000000954,8092,WL,C,2.0
6,5.365000009536743,distr,54634.99999046326,Mon Jan 26 2026 16:29:29 GMT-0600 (Central Standard Time),636801.4000000954,B,christ,I,t,153,1,3198.5,633602.9000000954,8092,WL,C,2.0
6,5.648000001907349,distr,54351.99999809265,Mon Jan 26 2026 16:29:29 GMT-0600 (Central Standard Time),637084.7000000477,B,christm,I,m,267,1,3481.7999999523163,633602.9000000954,8092,WL,C,2.0
6,5.73199987411499,distr,54268.00012588501,Mon Jan 26 2026 16:29:29 GMT-0600 (Central Standard Time),637168.2000000477,B,christma,I,a,70,1,3565.2999999523163,633602.9000000954,8092,WL,C,2.0
6,6.3480000495910645,distr,53651.999950408936,Mon Jan 26 2026 16:29:29 GMT-0600 (Central Standard Time),637784.7999999523,B,christmas,I,s,603,1,4181.899999856949,633602.9000000954,8092,WL,C,2.0
6,6.547999858856201,distr,53452.0001411438,Mon Jan 26 2026 16:29:29 GMT-0600 (Central Standard Time),637984.9000000954,B,christmasenter,I,enter,187,1,4382.0,633602.9000000954,8092,WL,C,2.0
6,7.065000057220459,distr,52934.99994277954,Mon Jan 26 2026 16:29:29 GMT-0600 (Central Standard Time),638501.0,B,s,I,s,500,1,515.7999999523163,637985.2000000477,8092,WL,C,3.0
6,7.7809998989105225,distr,52219.00010108948,Mon Jan 26 2026 16:29:29 GMT-0600 (Central Standard Time),639217.2999999523,B,sk,I,k,703,1,1232.0999999046326,637985.2000000477,8092,WL,C,3.0
6,7.930999994277954,distr,52069.000005722046,Mon Jan 26 2026 16:29:29 GMT-0600 (Central Standard Time),639367.4000000954,B,ske,I,e,130,1,1382.2000000476837,637985.2000000477,8092,WL,C,3.0
6,8.63100004196167,distr,51368.99995803833,Mon Jan 26 2026 16:29:29 GMT-0600 (Central Standard Time),640067.0,B,sk,I,backspace,692,1,2081.7999999523163,637985.2000000477,8092,WL,C,3.0
6,9.430000066757202,distr,50569.9999332428,Mon Jan 26 2026 16:29:29 GMT-0600 (Central Standard Time),640866.7999999523,B,sky,I,y,793,1,2881.5999999046326,637985.2000000477,8092,WL,C,3.0
6,9.829999923706055,distr,50170.000076293945,Mon Jan 26 2026 16:29:29 GMT-0600 (Central Standard Time),641266.7999999523,B,skyb,I,b,386,1,3281.5999999046326,637985.2000000477,8092,WL,C,3.0
6,9.897000074386597,distr,50102.9999256134,Mon Jan 26 2026 16:29:29 GMT-0600 (Central Standard Time),641333.7000000477,B,skyba,I,a,49,1,3348.5,637985.2000000477,8092,WL,C,3.0
6,10.379999876022339,distr,49620.00012397766,Mon Jan 26 2026 16:29:29 GMT-0600 (Central Standard Time),641816.7000000477,B,skyb,I,backspace,462,1,3831.5,637985.2000000477,8092,WL,C,3.0
6,10.52999997138977,distr,49470.00002861023,Mon Jan 26 2026 16:29:29 GMT-0600 (Central Standard Time),641966.7000000477,B,sky,I,backspace,140,1,3981.5,637985.2000000477,8092,WL,C,3.0
6,11.062999963760376,distr,48937.000036239624,Mon Jan 26 2026 16:29:29 GMT-0600 (Central Standard Time),642499.7999999523,B,skyenter,I,enter,525,1,4514.599999904633,637985.2000000477,8092,WL,C,3.0
6,11.812999963760376,distr,48187.000036239624,Mon Jan 26 2026 16:29:29 GMT-0600 (Central Standard Time),643249.2999999523,B,v,I,v,745,1,749.2000000476837,642500.0999999046,8092,WL,C,4.0
6,11.912999868392944,distr,48087.000131607056,Mon Jan 26 2026 16:29:29 GMT-0600 (Central Standard Time),643349.4000000954,B,va,I,a,90,1,849.3000001907349,642500.0999999046,8092,WL,C,4.0
6,12.029000043869019,distr,47970.99995613098,Mon Jan 26 2026 16:29:29 GMT-0600 (Central Standard Time),643465.7000000477,B,val,I,l,111,1,965.6000001430511,642500.0999999046,8092,WL,C,4.0
6,12.19599986076355,distr,47804.00013923645,Mon Jan 26 2026 16:29:29 GMT-0600 (Central Standard Time),643632.5,B,vall,I,l,147,1,1132.4000000953674,642500.0999999046,8092,WL,C,4.0
6,12.282000064849854,distr,47717.99993515015,Mon Jan 26 2026 16:29:29 GMT-0600 (Central Standard Time),643718.0,B,valle,I,e,64,1,1217.9000000953674,642500.0999999046,8092,WL,C,4.0
6,12.467000007629395,distr,47532.999992370605,Mon Jan 26 2026 16:29:29 GMT-0600 (Central Standard Time),643903.2999999523,B,valley,I,y,180,1,1403.2000000476837,642500.0999999046,8092,WL,C,4.0
6,13.395999908447266,distr,46604.000091552734,Mon Jan 26 2026 16:29:29 GMT-0600 (Central Standard Time),644832.4000000954,B,valleyenter,I,enter,915,1,2332.300000190735,642500.0999999046,8092,WL,C,4.0
6,13.878999948501587,distr,46121.00005149841,Mon Jan 26 2026 16:29:29 GMT-0600 (Central Standard Time),645315.7000000477,B,h,I,h,468,1,483.0,644832.7000000477,8092,WL,C,5.0
6,14.01200008392334,distr,45987.99991607666,Mon Jan 26 2026 16:29:29 GMT-0600 (Central Standard Time),645448.7999999523,B,ha,I,a,113,1,616.0999999046326,644832.7000000477,8092,WL,C,5.0
6,14.178999900817871,distr,45821.00009918213,Mon Jan 26 2026 16:29:29 GMT-0600 (Central Standard Time),645615.5,B,hal,I,l,147,1,782.7999999523163,644832.7000000477,8092,WL,C,5.0
6,14.328999996185303,distr,45671.0000038147,Mon Jan 26 2026 16:29:29 GMT-0600 (Central Standard Time),645765.4000000954,B,hall,I,l,132,1,932.7000000476837,644832.7000000477,8092,WL,C,5.0
6,15.145999908447266,distr,44854.000091552734,Mon Jan 26 2026 16:29:29 GMT-0600 (Central Standard Time),646582.0,B,hallenter,I,enter,799,1,1749.2999999523163,644832.7000000477,8092,WL,C,5.0
6,16.84500002861023,distr,43154.99997138977,Mon Jan 26 2026 16:29:29 GMT-0600 (Central Standard Time),648281.5999999046,B,m,I,m,1678,1,1699.2999999523163,646582.2999999523,8092,WL,C,6.0
6,16.977999925613403,distr,43022.0000743866,Mon Jan 26 2026 16:29:29 GMT-0600 (Central Standard Time),648414.5,B,mo,I,o,114,1,1832.2000000476837,646582.2999999523,8092,WL,C,6.0
6,17.17799997329712,distr,42822.00002670288,Mon Jan 26 2026 16:29:29 GMT-0600 (Central Standard Time),648614.7999999523,B,mon,I,n,189,1,2032.5,646582.2999999523,8092,WL,C,6.0
6,17.26099991798401,distr,42739.00008201599,Mon Jan 26 2026 16:29:29 GMT-0600 (Central Standard Time),648697.7000000477,B,mone,I,e,78,1,2115.4000000953674,646582.2999999523,8092,WL,C,6.0
6,19.16100001335144,distr,40838.99998664856,Mon Jan 26 2026 16:29:29 GMT-0600 (Central Standard Time),650597.4000000954,B,money,I,y,1883,1,4015.100000143051,646582.2999999523,8092,WL,C,6.0
6,19.47699999809265,distr,40523.00000190735,Mon Jan 26 2026 16:29:29 GMT-0600 (Central Standard Time),650913.7000000477,B,moneyenter,I,enter,302,1,4331.400000095367,646582.2999999523,8092,WL,C,6.0
6,25.108999967575073,distr,34891.00003242493,Mon Jan 26 2026 16:29:29 GMT-0600 (Central Standard Time),656545.5,B,m,I,m,5611,1,5631.400000095367,650914.0999999046,8092,WL,C,7.0
6,25.20899987220764,distr,34791.00012779236,Mon Jan 26 2026 16:29:29 GMT-0600 (Central Standard Time),656645.2999999523,B,me,I,e,81,1,5731.200000047684,650914.0999999046,8092,WL,C,7.0
6,25.325000047683716,distr,34674.999952316284,Mon Jan 26 2026 16:29:29 GMT-0600 (Central Standard Time),656762.0,B,mea,I,a,103,1,5847.900000095367,650914.0999999046,8092,WL,C,7.0
6,25.54200005531311,distr,34457.99994468689,Mon Jan 26 2026 16:29:29 GMT-0600 (Central Standard Time),656978.2000000477,B,meat,I,t,211,1,6064.100000143051,650914.0999999046,8092,WL,C,7.0
6,25.925999879837036,distr,34074.000120162964,Mon Jan 26 2026 16:29:29 GMT-0600 (Central Standard Time),657362.2000000477,B,meatenter,I,enter,370,1,6448.100000143051,650914.0999999046,8092,WL,C,7.0
6,27.325000047683716,distr,32674.999952316284,Mon Jan 26 2026 16:29:29 GMT-0600 (Central Standard Time),658761.4000000954,B,f,I,f,1386,1,1398.9000000953674,657362.5,8092,WL,C,8.0
6,27.424999952316284,distr,32575.000047683716,Mon Jan 26 2026 16:29:29 GMT-0600 (Central Standard Time),658861.2000000477,B,fo,I,o,91,1,1498.7000000476837,657362.5,8092,WL,C,8.0
6,27.575000047683716,distr,32424.999952316284,Mon Jan 26 2026 16:29:29 GMT-0600 (Central Standard Time),659011.5,B,for,I,r,135,1,1649.0,657362.5,8092,WL,C,8.0
6,27.657999992370605,distr,32342.000007629395,Mon Jan 26 2026 16:29:29 GMT-0600 (Central Standard Time),659094.4000000954,B,fore,I,e,72,1,1731.9000000953674,657362.5,8092,WL,C,8.0
6,27.94099998474121,distr,32059.00001525879,Mon Jan 26 2026 16:29:29 GMT-0600 (Central Standard Time),659377.4000000954,B,fores,I,s,278,1,2014.9000000953674,657362.5,8092,WL,C,8.0
6,28.091000080108643,distr,31908.999919891357,Mon Jan 26 2026 16:29:29 GMT-0600 (Central Standard Time),659527.7999999523,B,forest,I,t,139,1,2165.2999999523163,657362.5,8092,WL,C,8.0
6,28.29099988937378,distr,31709.00011062622,Mon Jan 26 2026 16:29:29 GMT-0600 (Central Standard Time),659727.7999999523,B,forestenter,I,enter,189,1,2365.2999999523163,657362.5,8092,WL,C,8.0
6,28.591000080108643,distr,31408.999919891357,Mon Jan 26 2026 16:29:29 GMT-0600 (Central Standard Time),660027.7000000477,B,p,I,p,284,1,299.5,659728.2000000477,8092,WL,C,9.0
6,28.841000080108643,distr,31158.999919891357,Mon Jan 26 2026 16:29:29 GMT-0600 (Central Standard Time),660277.0999999046,B,pl,I,l,239,1,548.8999998569489,659728.2000000477,8092,WL,C,9.0
6,28.907000064849854,distr,31092.999935150146,Mon Jan 26 2026 16:29:29 GMT-0600 (Central Standard Time),660343.7999999523,B,pla,I,a,54,1,615.5999999046326,659728.2000000477,8092,WL,C,9.0
6,29.174000024795532,distr,30825.999975204468,Mon Jan 26 2026 16:29:29 GMT-0600 (Central Standard Time),660610.7999999523,B,plan,I,n,261,1,882.5999999046326,659728.2000000477,8092,WL,C,9.0
6,29.2739999294281,distr,30726.0000705719,Mon Jan 26 2026 16:29:29 GMT-0600 (Central Standard Time),660710.7000000477,B,plant,I,t,89,1,982.5,659728.2000000477,8092,WL,C,9.0
6,29.5239999294281,distr,30476.0000705719,Mon Jan 26 2026 16:29:29 GMT-0600 (Central Standard Time),660960.2999999523,B,plantenter,I,enter,245,1,1232.0999999046326,659728.2000000477,8092,WL,C,9.0
6,30.77300000190735,distr,29226.99999809265,Mon Jan 26 2026 16:29:29 GMT-0600 (Central Standard Time),662209.9000000954,B,enter,I,enter,1243,1,1249.3000001907349,660960.5999999046,8092,WL,C,10.0
6,31.306999921798706,distr,28693.000078201294,Mon Jan 26 2026 16:29:29 GMT-0600 (Central Standard Time),662743.0999999046,B,enter,I,enter,521,1,533.0,662210.0999999046,8092,WL,C,11.0
6,31.52300000190735,distr,28476.99999809265,Mon Jan 26 2026 16:29:29 GMT-0600 (Central Standard Time),662959.9000000954,B,enter,I,enter,196,1,216.40000009536743,662743.5,8092,WL,C,12.0
6,31.69000005722046,distr,28309.99994277954,Mon Jan 26 2026 16:29:29 GMT-0600 (Central Standard Time),663126.5,B,enter,I,enter,148,1,166.20000004768372,662960.2999999523,8092,WL,C,13.0
6,32.03999996185303,distr,27960.000038146973,Mon Jan 26 2026 16:29:29 GMT-0600 (Central Standard Time),663476.4000000954,B,enter,I,enter,341,1,349.5,663126.9000000954,8092,WL,C,14.0
6,32.49000000953674,distr,27509.999990463257,Mon Jan 26 2026 16:29:29 GMT-0600 (Central Standard Time),663926.7000000477,B,enter,I,enter,440,1,449.90000009536743,663476.7999999523,8092,WL,C,15.0
7,6.781999826431274,immed,53218.000173568726,Mon Jan 26 2026 16:29:29 GMT-0600 (Central Standard Time),672257.2000000477,A,c,I,c,6769,1,6781.0,665476.2000000477,8092,WL,C,1.0
7,6.865000009536743,immed,53134.99999046326,Mon Jan 26 2026 16:29:29 GMT-0600 (Central Standard Time),672340.2999999523,A,ca,I,a,66,1,6864.099999904633,665476.2000000477,8092,WL,C,1.0
7,7.047999858856201,immed,52952.0001411438,Mon Jan 26 2026 16:29:29 GMT-0600 (Central Standard Time),672523.7999999523,A,cam,I,m,168,1,7047.599999904633,665476.2000000477,8092,WL,C,1.0
7,7.247999906539917,immed,52752.00009346008,Mon Jan 26 2026 16:29:29 GMT-0600 (Central Standard Time),672723.7000000477,A,camp,I,p,192,1,7247.5,665476.2000000477,8092,WL,C,1.0
7,7.56499981880188,immed,52435.00018119812,Mon Jan 26 2026 16:29:29 GMT-0600 (Central Standard Time),673040.2000000477,A,campenter,I,enter,296,1,7564.0,665476.2000000477,8092,WL,C,1.0
7,13.728999853134155,immed,46271.000146865845,Mon Jan 26 2026 16:29:29 GMT-0600 (Central Standard Time),679204.9000000954,A,d,I,d,6155,1,6164.400000095367,673040.5,8092,WL,C,2.0
7,13.828999996185303,immed,46171.0000038147,Mon Jan 26 2026 16:29:29 GMT-0600 (Central Standard Time),679304.9000000954,A,do,I,o,95,1,6264.400000095367,673040.5,8092,WL,C,2.0
7,14.529000043869019,immed,45470.99995613098,Mon Jan 26 2026 16:29:29 GMT-0600 (Central Standard Time),680004.7999999523,A,doc,I,c,692,1,6964.299999952316,673040.5,8092,WL,C,2.0
7,14.779000043869019,immed,45220.99995613098,Mon Jan 26 2026 16:29:29 GMT-0600 (Central Standard Time),680254.5,A,doct,I,t,240,1,7214.0,673040.5,8092,WL,C,2.0
7,14.861999988555908,immed,45138.00001144409,Mon Jan 26 2026 16:29:29 GMT-0600 (Central Standard Time),680337.7999999523,A,docto,I,o,69,1,7297.299999952316,673040.5,8092,WL,C,2.0
7,15.044999837875366,immed,44955.000162124634,Mon Jan 26 2026 16:29:29 GMT-0600 (Central Standard Time),680520.9000000954,A,doctor,I,r,178,1,7480.400000095367,673040.5,8092,WL,C,2.0
7,15.244999885559082,immed,44755.00011444092,Mon Jan 26 2026 16:29:29 GMT-0600 (Central Standard Time),680720.7999999523,A,doctorenter,I,enter,195,1,7680.299999952316,673040.5,8092,WL,C,2.0
7,17.01199984550476,immed,42988.00015449524,Mon Jan 26 2026 16:29:29 GMT-0600 (Central Standard Time),682487.5,A,w,I,w,1756,1,1766.5,680721.0,8092,WL,C,3.0
7,17.09500002861023,immed,42904.99997138977,Mon Jan 26 2026 16:29:29 GMT-0600 (Central Standard Time),682570.5,A,wh,I,h,69,1,1849.5,680721.0,8092,WL,C,3.0
7,17.26099991798401,immed,42739.00008201599,Mon Jan 26 2026 16:29:29 GMT-0600 (Central Standard Time),682737.0,A,whe,I,e,154,1,2016.0,680721.0,8092,WL,C,3.0
7,17.394999980926514,immed,42605.000019073486,Mon Jan 26 2026 16:29:29 GMT-0600 (Central Standard Time),682870.7000000477,A,whea,I,a,114,1,2149.7000000476837,680721.0,8092,WL,C,3.0
7,17.544999837875366,immed,42455.000162124634,Mon Jan 26 2026 16:29:29 GMT-0600 (Central Standard Time),683020.7000000477,A,wheat,I,t,134,1,2299.7000000476837,680721.0,8092,WL,C,3.0
7,17.727999925613403,immed,42272.0000743866,Mon Jan 26 2026 16:29:29 GMT-0600 (Central Standard Time),683203.9000000954,A,wheatenter,I,enter,166,1,2482.9000000953674,680721.0,8092,WL,C,3.0
7,18.044999837875366,immed,41955.000162124634,Mon Jan 26 2026 16:29:29 GMT-0600 (Central Standard Time),683520.2999999523,A,c,I,c,304,1,316.09999990463257,683204.2000000477,8092,WL,C,4.0
7,18.144999980926514,immed,41855.000019073486,Mon Jan 26 2026 16:29:29 GMT-0600 (Central Standard Time),683620.0999999046,A,co,I,o,84,1,415.89999985694885,683204.2000000477,8092,WL,C,4.0
7,18.32799983024597,immed,41672.00016975403,Mon Jan 26 2026 16:29:29 GMT-0600 (Central Standard Time),683803.0999999046,A,cor,I,r,177,1,598.8999998569489,683204.2000000477,8092,WL,C,4.0
7,18.51099991798401,immed,41489.00008201599,Mon Jan 26 2026 16:29:29 GMT-0600 (Central Standard Time),683986.7999999523,A,corn,I,n,169,1,782.5999999046326,683204.2000000477,8092,WL,C,4.0
7,18.84500002861023,immed,41154.99997138977,Mon Jan 26 2026 16:29:29 GMT-0600 (Central Standard Time),684320.2999999523,A,cornenter,I,enter,322,1,1116.0999999046326,683204.2000000477,8092,WL,C,4.0
7,19.360999822616577,immed,40639.00017738342,Mon Jan 26 2026 16:29:29 GMT-0600 (Central Standard Time),684836.5,A,s,I,s,508,1,515.9000000953674,684320.5999999046,8092,WL,C,5.0
7,19.51099991798401,immed,40489.00008201599,Mon Jan 26 2026 16:29:29 GMT-0600 (Central Standard Time),684986.2000000477,A,su,I,u,144,1,665.6000001430511,684320.5999999046,8092,WL,C,5.0
7,19.99399995803833,immed,40006.00004196167,Mon Jan 26 2026 16:29:29 GMT-0600 (Central Standard Time),685469.5999999046,A,sug,I,g,475,1,1149.0,684320.5999999046,8092,WL,C,5.0
7,20.110999822616577,immed,39889.00017738342,Mon Jan 26 2026 16:29:29 GMT-0600 (Central Standard Time),685586.5,A,suga,I,a,103,1,1265.9000000953674,684320.5999999046,8092,WL,C,5.0
7,20.310999870300293,immed,39689.00012969971,Mon Jan 26 2026 16:29:29 GMT-0600 (Central Standard Time),685786.2000000477,A,sugar,I,r,186,1,1465.6000001430511,684320.5999999046,8092,WL,C,5.0
7,20.51099991798401,immed,39489.00008201599,Mon Jan 26 2026 16:29:29 GMT-0600 (Central Standard Time),685986.4000000954,A,sugarenter,I,enter,186,1,1665.8000001907349,684320.5999999046,8092,WL,C,5.0
7,20.99399995803833,immed,39006.00004196167,Mon Jan 26 2026 16:29:29 GMT-0600 (Central Standard Time),686469.5999999046,A,q,I,q,465,1,482.7999999523163,685986.7999999523,8092,WL,C,6.0
7,21.14299988746643,immed,38857.00011253357,Mon Jan 26 2026 16:29:29 GMT-0600 (Central Standard Time),686619.0,A,qu,I,u,143,1,632.2000000476837,685986.7999999523,8092,WL,C,6.0
7,21.32699990272522,immed,38673.00009727478,Mon Jan 26 2026 16:29:29 GMT-0600 (Central Standard Time),686802.7000000477,A,que,I,e,170,1,815.9000000953674,685986.7999999523,8092,WL,C,6.0
7,21.842999935150146,immed,38157.00006484985,Mon Jan 26 2026 16:29:29 GMT-0600 (Central Standard Time),687319.0,A,quee,I,e,505,1,1332.2000000476837,685986.7999999523,8092,WL,C,6.0
7,22.14299988746643,immed,37857.00011253357,Mon Jan 26 2026 16:29:29 GMT-0600 (Central Standard Time),687618.7000000477,A,queen,I,n,293,1,1631.9000000953674,685986.7999999523,8092,WL,C,6.0
7,22.40999984741211,immed,37590.00015258789,Mon Jan 26 2026 16:29:29 GMT-0600 (Central Standard Time),687885.5,A,queenenter,I,enter,250,1,1898.7000000476837,685986.7999999523,8092,WL,C,6.0
7,22.792999982833862,immed,37207.00001716614,Mon Jan 26 2026 16:29:29 GMT-0600 (Central Standard Time),688268.7999999523,A,f,I,f,367,1,383.0,687885.7999999523,8092,WL,C,7.0
7,22.960000038146973,immed,37039.99996185303,Mon Jan 26 2026 16:29:29 GMT-0600 (Central Standard Time),688435.0999999046,A,fl,I,l,160,1,549.2999999523163,687885.7999999523,8092,WL,C,7.0
7,23.092999935150146,immed,36907.00006484985,Mon Jan 26 2026 16:29:29 GMT-0600 (Central Standard Time),688568.7000000477,A,fla,I,a,120,1,682.9000000953674,687885.7999999523,8092,WL,C,7.0
7,23.39299988746643,immed,36607.00011253357,Mon Jan 26 2026 16:29:29 GMT-0600 (Central Standard Time),688868.7999999523,A,flag,I,g,283,1,983.0,687885.7999999523,8092,WL,C,7.0
7,23.542999982833862,immed,36457.00001716614,Mon Jan 26 2026 16:29:29 GMT-0600 (Central Standard Time),689018.2000000477,A,flagenter,I,enter,143,1,1132.4000000953674,687885.7999999523,8092,WL,C,7.0
7,23.825999975204468,immed,36174.00002479553,Mon Jan 26 2026 16:29:29 GMT-0600 (Central Standard Time),689302.0,A,l,I,l,274,1,283.5,689018.5,8092,WL,C,8.0
7,23.925999879837036,immed,36074.000120162964,Mon Jan 26 2026 16:29:29 GMT-0600 (Central Standard Time),689401.5999999046,A,le,I,e,86,1,383.09999990463257,689018.5,8092,WL,C,8.0
7,24.092999935150146,immed,35907.00006484985,Mon Jan 26 2026 16:29:29 GMT-0600 (Central Standard Time),689568.2000000477,A,let,I,t,162,1,549.7000000476837,689018.5,8092,WL,C,8.0
7,24.30900001525879,immed,35690.99998474121,Mon Jan 26 2026 16:29:29 GMT-0600 (Central Standard Time),689784.7000000477,A,lett,I,t,211,1,766.2000000476837,689018.5,8092,WL,C,8.0
7,24.493000030517578,immed,35506.99996948242,Mon Jan 26 2026 16:29:29 GMT-0600 (Central Standard Time),689968.2999999523,A,lette,I,e,163,1,949.7999999523163,689018.5,8092,WL,C,8.0
7,24.608999967575073,immed,35391.00003242493,Mon Jan 26 2026 16:29:29 GMT-0600 (Central Standard Time),690084.7000000477,A,letter,I,r,107,1,1066.2000000476837,689018.5,8092,WL,C,8.0
7,24.776000022888184,immed,35223.99997711182,Mon Jan 26 2026 16:29:29 GMT-0600 (Central Standard Time),690251.0999999046,A,letterenter,I,enter,160,1,1232.5999999046326,689018.5,8092,WL,C,8.0
7,30.10699987411499,immed,29893.00012588501,Mon Jan 26 2026 16:29:29 GMT-0600 (Central Standard Time),695582.9000000954,A,c,I,c,5313,1,5331.600000143051,690251.2999999523,8092,WL,C,9.0
7,30.19099998474121,immed,29809.00001525879,Mon Jan 26 2026 16:29:29 GMT-0600 (Central Standard Time),695666.2999999523,A,ca,I,a,69,1,5415.0,690251.2999999523,8092,WL,C,9.0
7,30.307999849319458,immed,29692.000150680542,Mon Jan 26 2026 16:29:29 GMT-0600 (Central Standard Time),695783.0999999046,A,cam,I,m,105,1,5531.799999952316,690251.2999999523,8092,WL,C,9.0
7,30.506999969482422,immed,29493.000030517578,Mon Jan 26 2026 16:29:29 GMT-0600 (Central Standard Time),695982.9000000954,A,camp,I,p,190,1,5731.600000143051,690251.2999999523,8092,WL,C,9.0
7,30.79099988937378,immed,29209.00011062622,Mon Jan 26 2026 16:29:29 GMT-0600 (Central Standard Time),696266.5,A,campenter,I,enter,269,1,6015.200000047684,690251.2999999523,8092,WL,C,9.0
7,31.60699987411499,immed,28393.00012588501,Mon Jan 26 2026 16:29:29 GMT-0600 (Central Standard Time),697082.4000000954,A,d,I,d,809,1,815.5,696266.9000000954,8092,WL,C,10.0
7,31.7739999294281,immed,28226.0000705719,Mon Jan 26 2026 16:29:29 GMT-0600 (Central Standard Time),697249.0999999046,A,do,I,o,154,1,982.1999998092651,696266.9000000954,8092,WL,C,10.0
7,32.17400002479553,immed,27825.999975204468,Mon Jan 26 2026 16:29:29 GMT-0600 (Central Standard Time),697649.2999999523,A,doc,I,c,387,1,1382.3999998569489,696266.9000000954,8092,WL,C,10.0
7,32.43999981880188,immed,27560.00018119812,Mon Jan 26 2026 16:29:29 GMT-0600 (Central Standard Time),697916.0,A,doct,I,t,251,1,1649.0999999046326,696266.9000000954,8092,WL,C,10.0
7,32.5239999294281,immed,27476.0000705719,Mon Jan 26 2026 16:29:29 GMT-0600 (Central Standard Time),697999.0999999046,A,docto,I,o,72,1,1732.1999998092651,696266.9000000954,8092,WL,C,10.0
7,32.70700001716614,immed,27292.999982833862,Mon Jan 26 2026 16:29:29 GMT-0600 (Central Standard Time),698182.5,A,doctor,I,r,165,1,1915.5999999046326,696266.9000000954,8092,WL,C,10.0
7,32.87299990653992,immed,27127.000093460083,Mon Jan 26 2026 16:29:29 GMT-0600 (Central Standard Time),698348.9000000954,A,doctorenter,I,enter,157,1,2082.0,696266.9000000954,8092,WL,C,10.0
7,40.75399994850159,immed,19246.000051498413,Mon Jan 26 2026 16:29:29 GMT-0600 (Central Standard Time),706229.7000000477,A,f,I,f,7871,1,7880.5,698349.2000000477,8092,WL,C,11.0
7,40.853999853134155,immed,19146.000146865845,Mon Jan 26 2026 16:29:29 GMT-0600 (Central Standard Time),706329.5999999046,A,fl,I,l,85,1,7980.399999856949,698349.2000000477,8092,WL,C,11.0
7,41.00399994850159,immed,18996.000051498413,Mon Jan 26 2026 16:29:29 GMT-0600 (Central Standard Time),706479.7999999523,A,fla,I,a,130,1,8130.599999904633,698349.2000000477,8092,WL,C,11.0
7,41.437000036239624,immed,18562.999963760376,Mon Jan 26 2026 16:29:29 GMT-0600 (Central Standard Time),706912.5999999046,A,flag,I,g,428,1,8563.399999856949,698349.2000000477,8092,WL,C,11.0
7,41.63699984550476,immed,18363.00015449524,Mon Jan 26 2026 16:29:29 GMT-0600 (Central Standard Time),707112.7999999523,A,flagenter,I,enter,180,1,8763.599999904633,698349.2000000477,8092,WL,C,11.0
7,42.63699984550476,immed,17363.00015449524,Mon Jan 26 2026 16:29:29 GMT-0600 (Central Standard Time),708112.7000000477,A,enter,I,enter,980,1,999.4000000953674,707113.2999999523,8092,WL,C,12.0
7,42.78699994087219,immed,17213.000059127808,Mon Jan 26 2026 16:29:29 GMT-0600 (Central Standard Time),708262.7000000477,A,enter,I,enter,138,1,149.60000014305115,708113.0999999046,8092,WL,C,13.0
7,42.937000036239624,immed,17062.999963760376,Mon Jan 26 2026 16:29:29 GMT-0600 (Central Standard Time),708412.4000000954,A,enter,I,enter,140,1,149.30000019073486,708263.0999999046,8092,WL,C,14.0
7,43.3199999332428,immed,16680.000066757202,Mon Jan 26 2026 16:29:29 GMT-0600 (Central Standard Time),708795.9000000954,A,enter,I,enter,376,1,383.10000014305115,708412.7999999523,8092,WL,C,15.0
