acc_sum,block_c,block_dur,condition,correct,correct_response,countdown,datetime,endtime,project,response,response_time,response_time_test1_response,response_time_test2_response,row_sel,same,session_number,start_end,starttime,stim1,stim2,subject_id,task,task_vers,time_test1,time_test2,trial
1,1,0.0,prac,1,z,30000.0,Tue Oct 28 2025 11:28:49 GMT-0500 (Central Daylight Time),79306.19999992847,I,z,1003,,,3,yes,,2525.899999976158,76780.29999995232,practrial3.png,practrial3.png,9999,PC,A,,,1
2,1,0.0,prac,1,z,30000.0,Tue Oct 28 2025 11:28:49 GMT-0500 (Central Daylight Time),81637.89999997616,I,z,807,,,5,yes,,2323.3000000715256,79314.59999990463,practrial5.png,practrial5.png,9999,PC,A,,,2
3,1,0.0,prac,1,m,30000.0,Tue Oct 28 2025 11:28:49 GMT-0500 (Central Daylight Time),83954.19999992847,I,m,779,,,2,no,,2311.2999999523163,81642.89999997616,practrial2.png,practrial2b.png,9999,PC,A,,,3
3,1,0.0,prac,0,m,30000.0,Tue Oct 28 2025 11:28:49 GMT-0500 (Central Daylight Time),86237.39999997616,I,z,761,,,4,no,,2278.899999976158,83958.5,practrial4.png,practrial4b.png,9999,PC,A,,,4
4,1,0.0,prac,1,z,30000.0,Tue Oct 28 2025 11:28:49 GMT-0500 (Central Daylight Time),89736.79999995232,I,z,1973,,,1,yes,,3494.7000000476837,86242.09999990463,practrial1.png,practrial1.png,9999,PC,A,,,5
5,1,0.0,prac,1,m,30000.0,Tue Oct 28 2025 11:28:49 GMT-0500 (Central Daylight Time),92234.69999992847,I,m,962,,,6,no,,2494.100000023842,89740.59999990463,practrial6.png,practrial6b.png,9999,PC,A,,,6
1,1,0.7669999599456787,test,1,z,29233.00004005432,Tue Oct 28 2025 11:28:49 GMT-0500 (Central Daylight Time),98133.0,I,z,756,756,,1,yes,,762.6000000238419,97370.39999997616,test1trial1.png,test1trial1.png,9999,PC,A,94905,,1
2,1,1.6170001029968262,test,1,m,28382.999897003174,Tue Oct 28 2025 11:28:49 GMT-0500 (Central Daylight Time),98983.0,I,m,840,840,,2,no,,847.9000000953674,98135.09999990463,test1trial2.png,test1trial2b.png,9999,PC,A,95670,,2
3,1,2.4830000400543213,test,1,z,27516.99995994568,Tue Oct 28 2025 11:28:49 GMT-0500 (Central Daylight Time),99849.59999990463,I,z,854,854,,3,yes,,864.0,98985.59999990463,test1trial3.png,test1trial3.png,9999,PC,A,96520,,3
4,1,3.250999927520752,test,1,m,26749.000072479248,Tue Oct 28 2025 11:28:49 GMT-0500 (Central Daylight Time),100617.19999992847,I,m,763,763,,4,no,,764.5,99852.69999992847,test1trial4.png,test1trial4b.png,9999,PC,A,97388,,4
5,1,4.33299994468689,test,1,z,25667.00005531311,Tue Oct 28 2025 11:28:49 GMT-0500 (Central Daylight Time),101699.5,I,z,1067,1067,,5,yes,,1080.0,100619.5,test1trial5.png,test1trial5.png,9999,PC,A,98154,,5
6,1,4.999000072479248,test,1,m,25000.999927520752,Tue Oct 28 2025 11:28:49 GMT-0500 (Central Daylight Time),102364.79999995232,I,m,654,654,,6,no,,661.8999999761581,101702.89999997616,test1trial6.png,test1trial6b.png,9999,PC,A,99239,,6
7,1,5.683000087738037,test,1,z,24316.999912261963,Tue Oct 28 2025 11:28:49 GMT-0500 (Central Daylight Time),103049.5,I,z,671,671,,7,yes,,681.8000000715256,102367.69999992847,test1trial7.png,test1trial7.png,9999,PC,A,99902,,7
8,1,7.04800009727478,test,1,m,22951.99990272522,Tue Oct 28 2025 11:28:49 GMT-0500 (Central Daylight Time),104414.59999990463,I,m,1345,1345,,8,no,,1361.8999999761581,103052.69999992847,test1trial8.png,test1trial8b.png,9999,PC,A,100588,,8
9,1,7.8480000495910645,test,1,z,22151.999950408936,Tue Oct 28 2025 11:28:49 GMT-0500 (Central Daylight Time),105214.19999992847,I,z,791,791,,9,yes,,797.5,104416.69999992847,test1trial9.png,test1trial9.png,9999,PC,A,101951,,9
10,1,8.664999961853027,test,1,m,21335.000038146973,Tue Oct 28 2025 11:28:49 GMT-0500 (Central Daylight Time),106030.89999997616,I,m,797,797,,10,no,,812.8999999761581,105218.0,test1trial10.png,test1trial10b.png,9999,PC,A,102753,,10
11,1,9.449000120162964,test,1,z,20550.999879837036,Tue Oct 28 2025 11:28:49 GMT-0500 (Central Daylight Time),106815.69999992847,I,z,765,765,,11,yes,,782.1999999284744,106033.5,test1trial11.png,test1trial11.png,9999,PC,A,103568,,11
11,1,10.479000091552734,test,0,m,19520.999908447266,Tue Oct 28 2025 11:28:49 GMT-0500 (Central Daylight Time),107845.0,I,z,1012,1012,,12,no,,1026.0,106819.0,test1trial12.png,test1trial12b.png,9999,PC,A,104354,,12
12,1,11.328999996185303,test,1,m,18671.000003814697,Tue Oct 28 2025 11:28:49 GMT-0500 (Central Daylight Time),108695.0,I,m,835,835,,13,no,,843.6000000238419,107851.39999997616,test1trial13.png,test1trial13b.png,9999,PC,A,105387,,13
13,1,12.463000059127808,test,1,m,17536.999940872192,Tue Oct 28 2025 11:28:49 GMT-0500 (Central Daylight Time),109829.09999990463,I,m,1114,1114,,14,no,,1127.5999999046326,108701.5,test1trial14.png,test1trial14b.png,9999,PC,A,106237,,14
14,1,13.213000059127808,test,1,z,16786.999940872192,Tue Oct 28 2025 11:28:49 GMT-0500 (Central Daylight Time),110579.09999990463,I,z,741,741,,15,yes,,745.2999999523163,109833.79999995232,test1trial15.png,test1trial15.png,9999,PC,A,107368,,15
15,1,14.013000011444092,test,1,m,15986.999988555908,Tue Oct 28 2025 11:28:49 GMT-0500 (Central Daylight Time),111378.79999995232,I,m,794,794,,16,no,,797.7999999523163,110581.0,test1trial16.png,test1trial16b.png,9999,PC,A,108116,,16
16,1,14.763000011444092,test,1,z,15236.999988555908,Tue Oct 28 2025 11:28:49 GMT-0500 (Central Daylight Time),112129.39999997616,I,z,746,746,,17,yes,,748.1000000238419,111381.29999995232,test1trial17.png,test1trial17.png,9999,PC,A,108916,,17
17,1,15.529000043869019,test,1,m,14470.999956130981,Tue Oct 28 2025 11:28:49 GMT-0500 (Central Daylight Time),112895.59999990463,I,m,754,754,,18,no,,763.0,112132.59999990463,test1trial18.png,test1trial18b.png,9999,PC,A,109668,,18
18,1,16.74500012397766,test,1,m,13254.999876022339,Tue Oct 28 2025 11:28:49 GMT-0500 (Central Daylight Time),114111.5,I,m,1196,1196,,19,no,,1213.7000000476837,112897.79999995232,test1trial19.png,test1trial19b.png,9999,PC,A,110433,,19
19,1,17.562000036239624,test,1,z,12437.999963760376,Tue Oct 28 2025 11:28:49 GMT-0500 (Central Daylight Time),114928.59999990463,I,z,813,813,,20,yes,,814.6999999284744,114113.89999997616,test1trial20.png,test1trial20.png,9999,PC,A,111649,,20
20,1,18.261000156402588,test,1,z,11738.999843597412,Tue Oct 28 2025 11:28:49 GMT-0500 (Central Daylight Time),115627.29999995232,I,z,692,692,,21,yes,,696.7000000476837,114930.59999990463,test1trial21.png,test1trial21.png,9999,PC,A,112465,,21
21,1,19.24399995803833,test,1,z,10756.00004196167,Tue Oct 28 2025 11:28:49 GMT-0500 (Central Daylight Time),116610.89999997616,I,z,977,977,,22,yes,,980.6000000238419,115630.29999995232,test1trial22.png,test1trial22.png,9999,PC,A,113165,,22
22,1,19.960000038146973,test,1,z,10039.999961853027,Tue Oct 28 2025 11:28:49 GMT-0500 (Central Daylight Time),117326.5,I,z,705,705,,23,yes,,713.4000000953674,116613.09999990463,test1trial23.png,test1trial23.png,9999,PC,A,114148,,23
23,1,20.74399995803833,test,1,z,9256.00004196167,Tue Oct 28 2025 11:28:49 GMT-0500 (Central Daylight Time),118110.39999997616,I,z,766,766,,24,yes,,781.8999999761581,117328.5,test1trial24.png,test1trial24.png,9999,PC,A,114863,,24
24,1,21.64400005340576,test,1,m,8355.999946594238,Tue Oct 28 2025 11:28:49 GMT-0500 (Central Daylight Time),119010.29999995232,I,m,885,885,,25,no,,897.2000000476837,118113.09999990463,test1trial25.png,test1trial25b.png,9999,PC,A,115648,,25
25,1,22.361000061035156,test,1,m,7638.999938964844,Tue Oct 28 2025 11:28:49 GMT-0500 (Central Daylight Time),119727.59999990463,I,m,698,698,,26,no,,715.2999999523163,119012.29999995232,test1trial26.png,test1trial26b.png,9999,PC,A,116547,,26
26,1,23.259999990463257,test,1,m,6740.000009536743,Tue Oct 28 2025 11:28:49 GMT-0500 (Central Daylight Time),120626.39999997616,I,m,884,884,,27,no,,895.0,119731.39999997616,practrial6.png,practrial6b.png,9999,PC,A,117266,,27
27,1,24.2260000705719,test,1,z,5773.999929428101,Tue Oct 28 2025 11:28:49 GMT-0500 (Central Daylight Time),121592.09999990463,I,z,953,953,,28,yes,,962.2999999523163,120629.79999995232,practrial1.png,practrial1.png,9999,PC,A,118164,,28
28,1,24.97699999809265,test,1,m,5023.000001907349,Tue Oct 28 2025 11:28:49 GMT-0500 (Central Daylight Time),122343.09999990463,I,m,733,733,,29,no,,748.8999999761581,121594.19999992847,practrial2.png,practrial2b.png,9999,PC,A,119129,,29
29,1,25.80999994277954,test,1,z,4190.000057220459,Tue Oct 28 2025 11:28:49 GMT-0500 (Central Daylight Time),123176.69999992847,I,z,820,820,,30,yes,,829.7999999523163,122346.89999997616,test1trial30.png,test1trial30.png,9999,PC,A,119882,,30
1,2,1.3989999294281006,test,1,m,28601.0000705719,Tue Oct 28 2025 11:28:49 GMT-0500 (Central Daylight Time),125991.89999997616,I,m,1386,,1386.0,1,no,,3645.0,122346.89999997616,test2trial1.png,test2trial1b.png,9999,PC,A,,122132.0,1
2,2,2.2660000324249268,test,1,m,27733.999967575073,Tue Oct 28 2025 11:28:49 GMT-0500 (Central Daylight Time),126858.59999990463,I,m,860,,860.0,2,no,,4511.699999928474,122346.89999997616,test2trial2.png,test2trial2b.png,9999,PC,A,,123530.0,2
3,2,2.9819998741149902,test,1,z,27018.00012588501,Tue Oct 28 2025 11:28:49 GMT-0500 (Central Daylight Time),127574.19999992847,I,z,706,,706.0,3,yes,,5227.299999952316,122346.89999997616,test2trial3.png,test2trial3.png,9999,PC,A,,124396.0,3
4,2,3.680999994277954,test,1,z,26319.000005722046,Tue Oct 28 2025 11:28:49 GMT-0500 (Central Daylight Time),128273.29999995232,I,z,686,,686.0,4,yes,,5926.399999976158,122346.89999997616,test2trial4.png,test2trial4.png,9999,PC,A,,125111.0,4
5,2,4.414000034332275,test,1,z,25585.999965667725,Tue Oct 28 2025 11:28:49 GMT-0500 (Central Daylight Time),129006.39999997616,I,z,722,,722.0,5,yes,,6659.5,122346.89999997616,test2trial5.png,test2trial5.png,9999,PC,A,,125810.0,5
6,2,5.447000026702881,test,1,z,24552.99997329712,Tue Oct 28 2025 11:28:49 GMT-0500 (Central Daylight Time),130039.29999995232,I,z,1024,,1024.0,6,yes,,7692.399999976158,122346.89999997616,test2trial6.png,test2trial6.png,9999,PC,A,,126543.0,6
7,2,6.365000009536743,test,1,m,23634.999990463257,Tue Oct 28 2025 11:28:49 GMT-0500 (Central Daylight Time),130957.29999995232,I,m,909,,909.0,7,no,,8610.399999976158,122346.89999997616,test2trial7.png,test2trial7b.png,9999,PC,A,,127577.0,7
8,2,7.296999931335449,test,1,m,22703.00006866455,Tue Oct 28 2025 11:28:49 GMT-0500 (Central Daylight Time),131889.79999995232,I,m,929,,929.0,8,no,,9542.899999976158,122346.89999997616,test2trial8.png,test2trial8b.png,9999,PC,A,,128494.0,8
9,2,8.030999898910522,test,1,z,21969.000101089478,Tue Oct 28 2025 11:28:49 GMT-0500 (Central Daylight Time),132623.19999992847,I,z,713,,713.0,9,yes,,10276.299999952316,122346.89999997616,test2trial9.png,test2trial9.png,9999,PC,A,,129428.0,9
10,2,9.046000003814697,test,1,z,20953.999996185303,Tue Oct 28 2025 11:28:49 GMT-0500 (Central Daylight Time),133638.69999992847,I,z,1005,,1005.0,10,yes,,11291.799999952316,122346.89999997616,test2trial10.png,test2trial10.png,9999,PC,A,,130160.0,10
11,2,9.895999908447266,test,1,m,20104.000091552734,Tue Oct 28 2025 11:28:49 GMT-0500 (Central Daylight Time),134488.19999992847,I,m,844,,844.0,11,no,,12141.299999952316,122346.89999997616,test2trial11.png,test2trial11b.png,9999,PC,A,,131177.0,11
11,2,10.845999956130981,test,0,m,19154.00004386902,Tue Oct 28 2025 11:28:49 GMT-0500 (Central Daylight Time),135438.79999995232,I,z,941,,941.0,12,no,,13091.899999976158,122346.89999997616,test2trial12.png,test2trial12b.png,9999,PC,A,,132025.0,12
12,2,12.046000003814697,test,1,z,17953.999996185303,Tue Oct 28 2025 11:28:49 GMT-0500 (Central Daylight Time),136638.59999990463,I,z,1181,,1181.0,13,yes,,14291.699999928474,122346.89999997616,test2trial13.png,test2trial13.png,9999,PC,A,,132976.0,13
13,2,12.888000011444092,test,1,m,17111.99998855591,Tue Oct 28 2025 11:28:49 GMT-0500 (Central Daylight Time),137480.29999995232,I,m,829,,829.0,14,no,,15133.399999976158,122346.89999997616,test2trial14.png,test2trial14b.png,9999,PC,A,,134176.0,14
14,2,13.67799997329712,test,1,m,16322.00002670288,Tue Oct 28 2025 11:28:49 GMT-0500 (Central Daylight Time),138270.89999997616,I,m,781,,781.0,15,no,,15924.0,122346.89999997616,test2trial15.png,test2trial15b.png,9999,PC,A,,135017.0,15
15,2,14.977999925613403,test,1,m,15022.000074386597,Tue Oct 28 2025 11:28:49 GMT-0500 (Central Daylight Time),139570.5,I,m,1284,,1284.0,16,no,,17223.600000023842,122346.89999997616,test2trial16.png,test2trial16b.png,9999,PC,A,,135809.0,16
16,2,15.861999988555908,test,1,z,14138.000011444092,Tue Oct 28 2025 11:28:49 GMT-0500 (Central Daylight Time),140454.5,I,z,866,,866.0,17,yes,,18107.600000023842,122346.89999997616,test2trial17.png,test2trial17.png,9999,PC,A,,137107.0,17
17,2,16.711999893188477,test,1,z,13288.000106811523,Tue Oct 28 2025 11:28:49 GMT-0500 (Central Daylight Time),141304.79999995232,I,z,837,,837.0,18,yes,,18957.899999976158,122346.89999997616,test2trial18.png,test2trial18.png,9999,PC,A,,137992.0,18
17,2,17.562000036239624,test,0,z,12437.999963760376,Tue Oct 28 2025 11:28:49 GMT-0500 (Central Daylight Time),142154.19999992847,I,m,844,,844.0,19,yes,,19807.299999952316,122346.89999997616,test2trial19.png,test2trial19.png,9999,PC,A,,138842.0,19
18,2,18.543999910354614,test,1,z,11456.000089645386,Tue Oct 28 2025 11:28:49 GMT-0500 (Central Daylight Time),143136.89999997616,I,z,961,,961.0,20,yes,,20790.0,122346.89999997616,test2trial20.png,test2trial20.png,9999,PC,A,,139693.0,20
19,2,20.009999990463257,test,1,z,9990.000009536743,Tue Oct 28 2025 11:28:49 GMT-0500 (Central Daylight Time),144602.29999995232,I,z,1459,,1459.0,21,yes,,22255.399999976158,122346.89999997616,test2trial21.png,test2trial21.png,9999,PC,A,,140675.0,21
20,2,20.858999967575073,test,1,m,9141.000032424927,Tue Oct 28 2025 11:28:49 GMT-0500 (Central Daylight Time),145451.79999995232,I,m,843,,843.0,22,no,,23104.899999976158,122346.89999997616,test2trial22.png,test2trial22b.png,9999,PC,A,,142139.0,22
21,2,22.14199995994568,test,1,m,7858.000040054321,Tue Oct 28 2025 11:28:49 GMT-0500 (Central Daylight Time),146734.79999995232,I,m,1264,,1264.0,23,no,,24387.899999976158,122346.89999997616,test2trial23.png,test2trial23b.png,9999,PC,A,,142989.0,23
22,2,23.157999992370605,test,1,m,6842.0000076293945,Tue Oct 28 2025 11:28:49 GMT-0500 (Central Daylight Time),147750.69999992847,I,m,997,,997.0,24,no,,25403.799999952316,122346.89999997616,test2trial24.png,test2trial24b.png,9999,PC,A,,144273.0,24
23,2,24.20899987220764,test,1,z,5791.000127792358,Tue Oct 28 2025 11:28:49 GMT-0500 (Central Daylight Time),148801.29999995232,I,z,1046,,1046.0,25,yes,,26454.399999976158,122346.89999997616,test2trial25.png,test2trial25.png,9999,PC,A,,145288.0,25
24,2,25.057999849319458,test,1,z,4942.000150680542,Tue Oct 28 2025 11:28:49 GMT-0500 (Central Daylight Time),149650.5,I,z,830,,830.0,26,no,,27303.600000023842,122346.89999997616,test2trial26.png,test2trial26b.png,9999,PC,A,,146338.0,26
24,2,25.990999937057495,test,0,z,4009.000062942505,Tue Oct 28 2025 11:28:49 GMT-0500 (Central Daylight Time),150583.79999995232,I,m,914,,914.0,27,no,,28236.899999976158,122346.89999997616,test2trial27.png,test2trial27b.png,9999,PC,A,,147187.0,27
24,2,26.875,test,0,m,3125.0,Tue Oct 28 2025 11:28:49 GMT-0500 (Central Daylight Time),151467.19999992847,I,z,877,,877.0,28,yes,,29120.299999952316,122346.89999997616,practrial5.png,practrial5.png,9999,PC,A,,148121.0,28
24,2,27.573999881744385,test,0,m,2426.0001182556152,Tue Oct 28 2025 11:28:49 GMT-0500 (Central Daylight Time),152166.5,I,z,681,,681.0,29,yes,,29819.600000023842,122346.89999997616,practrial3.png,practrial3.png,9999,PC,A,,149004.0,29
24,2,28.707000017166138,test,0,z,1292.9999828338623,Tue Oct 28 2025 11:28:49 GMT-0500 (Central Daylight Time),153299.09999990463,I,m,1117,,1117.0,30,no,,30952.199999928474,122346.89999997616,practrial6.png,practrial6b.png,9999,PC,A,,149705.0,30
