acc_sum,block,block_c,change,condition,correct,correct_response,datetime,endtime,face,project,response,response_time,row_sel,session_number,start_end,starttime,subject_id,task,task_vers,trial
0,prac,1,,1-Back,,,Tue Oct 14 2025 17:46:13 GMT-0500 (Central Daylight Time),,012_o_f_d_a.png,O,space,7532,1,1,,,7227,VNB,C,0
1,prac,1,0.0,1-Back,1.0,m,Tue Oct 14 2025 17:46:13 GMT-0500 (Central Daylight Time),131531.10000014305,022_y_f_n_a.png,O,m,1026,2,1,1871.4000000953674,129659.70000004768,7227,VNB,C,1
2,prac,1,0.0,1-Back,1.0,m,Tue Oct 14 2025 17:46:13 GMT-0500 (Central Daylight Time),133729.70000004768,014_m_m_h_a.png,O,m,1335,3,1,2189.399999856949,131540.30000019073,7227,VNB,C,2
3,prac,1,0.0,1-Back,1.0,m,Tue Oct 14 2025 17:46:13 GMT-0500 (Central Daylight Time),135862.0,025_y_m_d_a.png,O,m,1278,4,1,2121.7999999523163,133740.20000004768,7227,VNB,C,3
4,prac,1,0.0,1-Back,1.0,m,Tue Oct 14 2025 17:46:13 GMT-0500 (Central Daylight Time),138110.5,012_o_f_n_a.png,O,m,1390,5,1,2238.199999809265,135872.30000019073,7227,VNB,C,4
5,prac,1,1.0,1-Back,1.0,z,Tue Oct 14 2025 17:46:13 GMT-0500 (Central Daylight Time),140127.30000019073,025_y_m_n_a.png,O,z,1163,6,1,2005.7000000476837,138121.60000014305,7227,VNB,C,5
6,prac,1,0.0,1-Back,1.0,m,Tue Oct 14 2025 17:46:13 GMT-0500 (Central Daylight Time),142258.80000019073,015_o_m_h_a.png,O,m,1255,7,1,2115.0,140143.80000019073,7227,VNB,C,6
7,prac,1,0.0,1-Back,1.0,m,Tue Oct 14 2025 17:46:13 GMT-0500 (Central Daylight Time),144693.10000014305,019_m_f_d_a.png,O,m,1561,8,1,2422.7999999523163,142270.30000019073,7227,VNB,C,7
8,prac,1,1.0,1-Back,1.0,z,Tue Oct 14 2025 17:46:13 GMT-0500 (Central Daylight Time),146839.0,022_y_f_d_a.png,O,z,1280,9,1,2135.7999999523163,144703.20000004768,7227,VNB,C,8
8,prac,1,0.0,1-Back,0.0,m,Tue Oct 14 2025 17:46:13 GMT-0500 (Central Daylight Time),149706.10000014305,014_m_m_n_a.png,O,None,2012,10,1,2859.9000000953674,146846.20000004768,7227,VNB,C,9
9,prac,1,0.0,1-Back,1.0,m,Tue Oct 14 2025 17:46:13 GMT-0500 (Central Daylight Time),152255.5,012_o_f_h_a.png,O,m,1686,11,1,2537.399999856949,149718.10000014305,7227,VNB,C,10
10,prac,1,0.0,1-Back,1.0,m,Tue Oct 14 2025 17:46:13 GMT-0500 (Central Daylight Time),154572.30000019073,025_y_m_d_a.png,O,m,1460,12,1,2310.0,152262.30000019073,7227,VNB,C,11
0,test,1,0.0,1-Back,,,Tue Oct 14 2025 17:46:13 GMT-0500 (Central Daylight Time),154572.30000019073,022_y_f_d_a.png,O,space,3116,1,1,2310.0,152262.30000019073,7227,VNB,C,0
1,test,1,0.0,1-Back,1.0,m,Tue Oct 14 2025 17:46:13 GMT-0500 (Central Daylight Time),167401.60000014305,019_m_f_n_a.png,O,m,1462,2,1,2477.9000000953674,164923.70000004768,7227,VNB,C,1
2,test,1,0.0,1-Back,1.0,m,Tue Oct 14 2025 17:46:13 GMT-0500 (Central Daylight Time),169733.70000004768,015_o_m_h_a.png,O,m,1300,3,1,2321.5,167412.20000004768,7227,VNB,C,2
3,test,1,1.0,1-Back,1.0,z,Tue Oct 14 2025 17:46:13 GMT-0500 (Central Daylight Time),171751.30000019073,014_m_m_h_a.png,O,z,984,4,1,2007.6000001430511,169743.70000004768,7227,VNB,C,3
4,test,1,0.0,1-Back,1.0,m,Tue Oct 14 2025 17:46:13 GMT-0500 (Central Daylight Time),174148.30000019073,012_o_f_n_a.png,O,m,1375,5,1,2389.100000143051,171759.20000004768,7227,VNB,C,4
5,test,1,0.0,1-Back,1.0,m,Tue Oct 14 2025 17:46:13 GMT-0500 (Central Daylight Time),176414.30000019073,025_y_m_d_a.png,O,m,1248,6,1,2258.4000000953674,174155.90000009537,7227,VNB,C,5
6,test,1,1.0,1-Back,1.0,z,Tue Oct 14 2025 17:46:13 GMT-0500 (Central Daylight Time),178546.60000014305,019_m_f_d_a.png,O,z,1108,7,1,2123.2999999523163,176423.30000019073,7227,VNB,C,6
7,test,1,0.0,1-Back,1.0,m,Tue Oct 14 2025 17:46:13 GMT-0500 (Central Daylight Time),181384.30000019073,022_y_f_h_a.png,O,m,1820,8,1,2828.0,178556.30000019073,7227,VNB,C,7
7,test,1,0.0,1-Back,0.0,m,Tue Oct 14 2025 17:46:13 GMT-0500 (Central Daylight Time),184412.60000014305,015_o_m_n_a.png,O,None,2014,9,1,3020.100000143051,181392.5,7227,VNB,C,8
8,test,1,0.0,1-Back,1.0,m,Tue Oct 14 2025 17:46:13 GMT-0500 (Central Daylight Time),186994.60000014305,025_y_m_h_a.png,O,m,1559,10,1,2573.0,184421.60000014305,7227,VNB,C,9
9,test,1,0.0,1-Back,1.0,m,Tue Oct 14 2025 17:46:13 GMT-0500 (Central Daylight Time),189896.0,015_o_m_d_a.png,O,m,1882,11,1,2892.399999856949,187003.60000014305,7227,VNB,C,10
10,test,1,1.0,1-Back,1.0,z,Tue Oct 14 2025 17:46:13 GMT-0500 (Central Daylight Time),191843.60000014305,012_o_f_d_a.png,O,z,926,12,1,1939.9000000953674,189903.70000004768,7227,VNB,C,11
11,test,1,0.0,1-Back,1.0,m,Tue Oct 14 2025 17:46:13 GMT-0500 (Central Daylight Time),194125.60000014305,014_m_m_n_a.png,O,m,1265,13,1,2274.5,191851.10000014305,7227,VNB,C,12
12,test,1,1.0,1-Back,1.0,z,Tue Oct 14 2025 17:46:13 GMT-0500 (Central Daylight Time),196524.70000004768,022_y_f_n_a.png,O,z,1375,14,1,2392.0,194132.70000004768,7227,VNB,C,13
12,test,1,0.0,1-Back,0.0,m,Tue Oct 14 2025 17:46:13 GMT-0500 (Central Daylight Time),199557.5,019_m_f_h_a.png,O,None,2014,15,1,3024.399999856949,196533.10000014305,7227,VNB,C,14
13,test,1,0.0,1-Back,1.0,m,Tue Oct 14 2025 17:46:13 GMT-0500 (Central Daylight Time),202240.0,014_m_m_d_a.png,O,m,1656,16,1,2674.0999999046326,199565.90000009537,7227,VNB,C,15
14,test,1,0.0,1-Back,1.0,m,Tue Oct 14 2025 17:46:13 GMT-0500 (Central Daylight Time),204838.70000004768,025_y_m_n_a.png,O,m,1579,17,1,2589.7999999523163,202248.90000009537,7227,VNB,C,16
15,test,1,0.0,1-Back,1.0,m,Tue Oct 14 2025 17:46:13 GMT-0500 (Central Daylight Time),207172.0,012_o_f_h_a.png,O,m,1300,18,1,2323.199999809265,204848.80000019073,7227,VNB,C,17
0,test,2,0.0,1-Back,,,Tue Oct 14 2025 17:46:13 GMT-0500 (Central Daylight Time),207172.0,025_y_m_n_a.png,O,space,1348,1,1,2323.199999809265,204848.80000019073,7227,VNB,C,0
1,test,2,0.0,1-Back,1.0,m,Tue Oct 14 2025 17:46:13 GMT-0500 (Central Daylight Time),212653.0,022_y_f_h_a.png,O,m,1089,2,1,2107.0,210546.0,7227,VNB,C,1
2,test,2,1.0,1-Back,1.0,m,Tue Oct 14 2025 17:46:13 GMT-0500 (Central Daylight Time),215402.90000009537,015_o_m_n_a.png,O,m,1718,3,1,2746.2999999523163,212656.60000014305,7227,VNB,C,2
3,test,2,0.0,1-Back,1.0,m,Tue Oct 14 2025 17:46:13 GMT-0500 (Central Daylight Time),217618.90000009537,019_m_f_d_a.png,O,m,1194,4,1,2207.5,215411.40000009537,7227,VNB,C,3
4,test,2,0.0,1-Back,1.0,z,Tue Oct 14 2025 17:46:13 GMT-0500 (Central Daylight Time),219535.30000019073,014_m_m_d_a.png,O,z,900,5,1,1910.2000000476837,217625.10000014305,7227,VNB,C,4
5,test,2,0.0,1-Back,1.0,m,Tue Oct 14 2025 17:46:13 GMT-0500 (Central Daylight Time),221801.40000009537,025_y_m_h_a.png,O,m,1245,6,1,2260.4000000953674,219541.0,7227,VNB,C,5
6,test,2,1.0,1-Back,1.0,z,Tue Oct 14 2025 17:46:13 GMT-0500 (Central Daylight Time),224016.40000009537,012_o_f_h_a.png,O,z,1188,7,1,2207.7999999523163,221808.60000014305,7227,VNB,C,6
7,test,2,0.0,1-Back,1.0,m,Tue Oct 14 2025 17:46:13 GMT-0500 (Central Daylight Time),226131.70000004768,019_m_f_n_a.png,O,m,1083,8,1,2106.2000000476837,224025.5,7227,VNB,C,7
8,test,2,0.0,1-Back,1.0,m,Tue Oct 14 2025 17:46:13 GMT-0500 (Central Daylight Time),228664.60000014305,022_y_f_d_a.png,O,m,1503,9,1,2525.7999999523163,226138.80000019073,7227,VNB,C,8
9,test,2,0.0,1-Back,1.0,m,Tue Oct 14 2025 17:46:13 GMT-0500 (Central Daylight Time),231012.90000009537,014_m_m_n_a.png,O,m,1323,10,1,2341.0999999046326,228671.80000019073,7227,VNB,C,9
10,test,2,1.0,1-Back,1.0,m,Tue Oct 14 2025 17:46:13 GMT-0500 (Central Daylight Time),233096.40000009537,019_m_f_h_a.png,O,m,1054,11,1,2075.5,231020.90000009537,7227,VNB,C,10
11,test,2,0.0,1-Back,1.0,z,Tue Oct 14 2025 17:46:13 GMT-0500 (Central Daylight Time),235063.30000019073,015_o_m_h_a.png,O,z,941,12,1,1962.1000001430511,233101.20000004768,7227,VNB,C,11
12,test,2,0.0,1-Back,1.0,m,Tue Oct 14 2025 17:46:13 GMT-0500 (Central Daylight Time),237179.70000004768,025_y_m_d_a.png,O,m,1094,13,1,2108.899999856949,235070.80000019073,7227,VNB,C,12
13,test,2,0.0,1-Back,1.0,m,Tue Oct 14 2025 17:46:13 GMT-0500 (Central Daylight Time),239650.70000004768,012_o_f_n_a.png,O,m,1451,14,1,2463.2000000476837,237187.5,7227,VNB,C,13
14,test,2,0.0,1-Back,1.0,z,Tue Oct 14 2025 17:46:13 GMT-0500 (Central Daylight Time),241894.70000004768,022_y_f_n_a.png,O,z,1222,15,1,2236.7999999523163,239657.90000009537,7227,VNB,C,14
15,test,2,1.0,1-Back,1.0,m,Tue Oct 14 2025 17:46:13 GMT-0500 (Central Daylight Time),243893.60000014305,014_m_m_h_a.png,O,m,976,16,1,1989.4000000953674,241904.20000004768,7227,VNB,C,15
16,test,2,0.0,1-Back,1.0,m,Tue Oct 14 2025 17:46:13 GMT-0500 (Central Daylight Time),246226.5,012_o_f_d_a.png,O,m,1301,17,1,2325.0999999046326,243901.40000009537,7227,VNB,C,16
16,test,2,1.0,1-Back,0.0,z,Tue Oct 14 2025 17:46:13 GMT-0500 (Central Daylight Time),247992.20000004768,015_o_m_d_a.png,O,m,734,18,1,1759.3999998569489,246232.80000019073,7227,VNB,C,17
0,test,3,1.0,1-Back,,,Tue Oct 14 2025 17:46:13 GMT-0500 (Central Daylight Time),247992.20000004768,012_o_f_h_a.png,O,space,949,1,1,1759.3999998569489,246232.80000019073,7227,VNB,C,0
1,test,3,0.0,1-Back,1.0,m,Tue Oct 14 2025 17:46:13 GMT-0500 (Central Daylight Time),253542.5,019_m_f_d_a.png,O,m,1467,2,1,2494.399999856949,251048.10000014305,7227,VNB,C,1
2,test,3,1.0,1-Back,1.0,m,Tue Oct 14 2025 17:46:13 GMT-0500 (Central Daylight Time),255723.60000014305,014_m_m_n_a.png,O,m,1150,3,1,2166.9000000953674,253556.70000004768,7227,VNB,C,2
3,test,3,0.0,1-Back,1.0,z,Tue Oct 14 2025 17:46:13 GMT-0500 (Central Daylight Time),257873.0,012_o_f_n_a.png,O,z,1130,4,1,2143.0,255730.0,7227,VNB,C,3
4,test,3,1.0,1-Back,1.0,m,Tue Oct 14 2025 17:46:13 GMT-0500 (Central Daylight Time),259822.80000019073,015_o_m_d_a.png,O,m,933,5,1,1941.8000001907349,257881.0,7227,VNB,C,4
5,test,3,0.0,1-Back,1.0,m,Tue Oct 14 2025 17:46:13 GMT-0500 (Central Daylight Time),262404.30000019073,022_y_f_h_a.png,O,m,1558,6,1,2574.300000190735,259830.0,7227,VNB,C,5
6,test,3,0.0,1-Back,1.0,z,Tue Oct 14 2025 17:46:13 GMT-0500 (Central Daylight Time),264354.0,025_y_m_h_a.png,O,z,922,7,1,1941.6999998092651,262412.30000019073,7227,VNB,C,6
7,test,3,0.0,1-Back,1.0,m,Tue Oct 14 2025 17:46:13 GMT-0500 (Central Daylight Time),266453.5,019_m_f_n_a.png,O,m,1065,8,1,2090.7999999523163,264362.7000000477,7227,VNB,C,7
8,test,3,0.0,1-Back,1.0,m,Tue Oct 14 2025 17:46:13 GMT-0500 (Central Daylight Time),268518.90000009537,022_y_f_d_a.png,O,m,1038,9,1,2056.5,266462.40000009537,7227,VNB,C,8
9,test,3,1.0,1-Back,1.0,m,Tue Oct 14 2025 17:46:13 GMT-0500 (Central Daylight Time),270602.0,015_o_m_n_a.png,O,m,1052,10,1,2073.7999999523163,268528.2000000477,7227,VNB,C,9
10,test,3,0.0,1-Back,1.0,m,Tue Oct 14 2025 17:46:13 GMT-0500 (Central Daylight Time),272549.80000019073,014_m_m_h_a.png,O,m,931,11,1,1940.4000000953674,270609.40000009537,7227,VNB,C,10
11,test,3,0.0,1-Back,1.0,z,Tue Oct 14 2025 17:46:13 GMT-0500 (Central Daylight Time),274149.40000009537,019_m_f_h_a.png,O,z,582,12,1,1596.5999999046326,272552.80000019073,7227,VNB,C,11
12,test,3,1.0,1-Back,1.0,m,Tue Oct 14 2025 17:46:13 GMT-0500 (Central Daylight Time),276115.80000019073,012_o_f_d_a.png,O,m,942,13,1,1963.2000000476837,274152.60000014305,7227,VNB,C,12
13,test,3,0.0,1-Back,1.0,z,Tue Oct 14 2025 17:46:13 GMT-0500 (Central Daylight Time),278431.0,014_m_m_d_a.png,O,z,1296,14,1,2311.0999999046326,276119.90000009537,7227,VNB,C,13
14,test,3,0.0,1-Back,1.0,m,Tue Oct 14 2025 17:46:13 GMT-0500 (Central Daylight Time),280414.7000000477,025_y_m_n_a.png,O,m,963,15,1,1981.0999999046326,278433.60000014305,7227,VNB,C,14
15,test,3,1.0,1-Back,1.0,m,Tue Oct 14 2025 17:46:13 GMT-0500 (Central Daylight Time),282762.90000009537,015_o_m_h_a.png,O,m,1316,16,1,2345.5,280417.40000009537,7227,VNB,C,15
16,test,3,0.0,1-Back,1.0,m,Tue Oct 14 2025 17:46:13 GMT-0500 (Central Daylight Time),285078.90000009537,025_y_m_d_a.png,O,m,1296,17,1,2310.2999999523163,282768.60000014305,7227,VNB,C,16
17,test,3,1.0,1-Back,1.0,m,Tue Oct 14 2025 17:46:13 GMT-0500 (Central Daylight Time),287279.10000014305,022_y_f_n_a.png,O,m,1173,18,1,2190.9000000953674,285088.2000000477,7227,VNB,C,17
0,test,4,1.0,1-Back,,,Tue Oct 14 2025 17:46:13 GMT-0500 (Central Daylight Time),287279.10000014305,014_m_m_d_a.png,O,space,1069,1,1,2190.9000000953674,285088.2000000477,7227,VNB,C,0
1,test,4,0.0,1-Back,1.0,z,Tue Oct 14 2025 17:46:13 GMT-0500 (Central Daylight Time),292910.0,015_o_m_d_a.png,O,z,1513,2,1,2529.2999999523163,290380.7000000477,7227,VNB,C,1
2,test,4,0.0,1-Back,1.0,m,Tue Oct 14 2025 17:46:13 GMT-0500 (Central Daylight Time),294677.0,025_y_m_h_a.png,O,m,746,3,1,1764.3999998569489,292912.60000014305,7227,VNB,C,2
3,test,4,0.0,1-Back,1.0,m,Tue Oct 14 2025 17:46:13 GMT-0500 (Central Daylight Time),296875.40000009537,019_m_f_n_a.png,O,m,1165,4,1,2195.4000000953674,294680.0,7227,VNB,C,3
4,test,4,1.0,1-Back,1.0,m,Tue Oct 14 2025 17:46:13 GMT-0500 (Central Daylight Time),298975.7000000477,012_o_f_h_a.png,O,m,1072,5,1,2097.2999999523163,296878.40000009537,7227,VNB,C,4
5,test,4,0.0,1-Back,1.0,m,Tue Oct 14 2025 17:46:13 GMT-0500 (Central Daylight Time),300758.0,014_m_m_n_a.png,O,m,767,6,1,1779.2999999523163,298978.7000000477,7227,VNB,C,5
6,test,4,0.0,1-Back,1.0,m,Tue Oct 14 2025 17:46:13 GMT-0500 (Central Daylight Time),302940.90000009537,025_y_m_d_a.png,O,m,1157,7,1,2179.9000000953674,300761.0,7227,VNB,C,6
7,test,4,1.0,1-Back,1.0,z,Tue Oct 14 2025 17:46:13 GMT-0500 (Central Daylight Time),304839.90000009537,022_y_f_d_a.png,O,z,869,8,1,1890.2999999523163,302949.60000014305,7227,VNB,C,7
8,test,4,0.0,1-Back,1.0,m,Tue Oct 14 2025 17:46:13 GMT-0500 (Central Daylight Time),306672.90000009537,019_m_f_h_a.png,O,m,813,9,1,1830.0999999046326,304842.80000019073,7227,VNB,C,8
9,test,4,0.0,1-Back,1.0,z,Tue Oct 14 2025 17:46:13 GMT-0500 (Central Daylight Time),308673.10000014305,015_o_m_h_a.png,O,z,980,10,1,1996.5,306676.60000014305,7227,VNB,C,9
10,test,4,1.0,1-Back,1.0,m,Tue Oct 14 2025 17:46:13 GMT-0500 (Central Daylight Time),310772.80000019073,012_o_f_n_a.png,O,m,1067,11,1,2090.9000000953674,308681.90000009537,7227,VNB,C,10
11,test,4,0.0,1-Back,1.0,m,Tue Oct 14 2025 17:46:13 GMT-0500 (Central Daylight Time),312837.5,019_m_f_d_a.png,O,m,1040,12,1,2054.0999999046326,310783.40000009537,7227,VNB,C,11
12,test,4,0.0,1-Back,1.0,m,Tue Oct 14 2025 17:46:13 GMT-0500 (Central Daylight Time),315070.0,022_y_f_n_a.png,O,m,1203,13,1,2224.0,312846.0,7227,VNB,C,12
13,test,4,0.0,1-Back,1.0,m,Tue Oct 14 2025 17:46:13 GMT-0500 (Central Daylight Time),317135.7000000477,012_o_f_d_a.png,O,m,1044,14,1,2058.7999999523163,315076.90000009537,7227,VNB,C,13
14,test,4,0.0,1-Back,1.0,m,Tue Oct 14 2025 17:46:13 GMT-0500 (Central Daylight Time),319219.40000009537,022_y_f_h_a.png,O,m,1051,15,1,2076.7000000476837,317142.7000000477,7227,VNB,C,14
15,test,4,1.0,1-Back,1.0,z,Tue Oct 14 2025 17:46:13 GMT-0500 (Central Daylight Time),321151.2000000477,014_m_m_h_a.png,O,z,903,16,1,1923.2999999523163,319227.90000009537,7227,VNB,C,15
16,test,4,0.0,1-Back,1.0,m,Tue Oct 14 2025 17:46:13 GMT-0500 (Central Daylight Time),323053.90000009537,015_o_m_n_a.png,O,m,883,17,1,1898.5999999046326,321155.30000019073,7227,VNB,C,16
17,test,4,1.0,1-Back,1.0,z,Tue Oct 14 2025 17:46:13 GMT-0500 (Central Daylight Time),325084.7000000477,025_y_m_n_a.png,O,z,1017,18,1,2022.2000000476837,323062.5,7227,VNB,C,17
0,test,5,1.0,1-Back,,,Tue Oct 14 2025 17:46:13 GMT-0500 (Central Daylight Time),325084.7000000477,015_o_m_n_a.png,O,space,992,1,1,2022.2000000476837,323062.5,7227,VNB,C,0
1,test,5,1.0,1-Back,1.0,m,Tue Oct 14 2025 17:46:13 GMT-0500 (Central Daylight Time),330334.30000019073,012_o_f_h_a.png,O,m,1217,2,1,2227.0,328107.30000019073,7227,VNB,C,1
2,test,5,0.0,1-Back,1.0,m,Tue Oct 14 2025 17:46:13 GMT-0500 (Central Daylight Time),332281.7000000477,025_y_m_d_a.png,O,m,927,3,1,1942.2999999523163,330339.40000009537,7227,VNB,C,2
3,test,5,0.0,1-Back,1.0,z,Tue Oct 14 2025 17:46:13 GMT-0500 (Central Daylight Time),334314.80000019073,015_o_m_d_a.png,O,z,1011,4,1,2025.9000000953674,332288.90000009537,7227,VNB,C,3
4,test,5,0.0,1-Back,1.0,m,Tue Oct 14 2025 17:46:13 GMT-0500 (Central Daylight Time),336297.0,019_m_f_h_a.png,O,m,954,5,1,1971.8999998569489,334325.10000014305,7227,VNB,C,4
5,test,5,0.0,1-Back,1.0,m,Tue Oct 14 2025 17:46:13 GMT-0500 (Central Daylight Time),338313.60000014305,022_y_f_n_a.png,O,m,986,6,1,2011.2999999523163,336302.30000019073,7227,VNB,C,5
6,test,5,1.0,1-Back,1.0,z,Tue Oct 14 2025 17:46:13 GMT-0500 (Central Daylight Time),340481.2000000477,012_o_f_n_a.png,O,z,1152,7,1,2159.7000000476837,338321.5,7227,VNB,C,6
7,test,5,0.0,1-Back,1.0,m,Tue Oct 14 2025 17:46:13 GMT-0500 (Central Daylight Time),342261.5,019_m_f_d_a.png,O,m,757,8,1,1771.6999998092651,340489.80000019073,7227,VNB,C,7
8,test,5,0.0,1-Back,1.0,m,Tue Oct 14 2025 17:46:13 GMT-0500 (Central Daylight Time),344611.80000019073,025_y_m_h_a.png,O,m,1318,9,1,2344.4000000953674,342267.40000009537,7227,VNB,C,8
9,test,5,0.0,1-Back,1.0,m,Tue Oct 14 2025 17:46:13 GMT-0500 (Central Daylight Time),346895.60000014305,022_y_f_d_a.png,O,m,1266,10,1,2276.7999999523163,344618.80000019073,7227,VNB,C,9
10,test,5,0.0,1-Back,1.0,m,Tue Oct 14 2025 17:46:13 GMT-0500 (Central Daylight Time),348943.80000019073,014_m_m_n_a.png,O,m,1032,11,1,2039.3000001907349,346904.5,7227,VNB,C,10
11,test,5,1.0,1-Back,1.0,z,Tue Oct 14 2025 17:46:13 GMT-0500 (Central Daylight Time),350943.30000019073,019_m_f_n_a.png,O,z,982,12,1,1985.1000001430511,348958.2000000477,7227,VNB,C,11
12,test,5,0.0,1-Back,1.0,m,Tue Oct 14 2025 17:46:13 GMT-0500 (Central Daylight Time),352792.0,015_o_m_h_a.png,O,m,828,13,1,1844.0999999046326,350947.90000009537,7227,VNB,C,12
12,test,5,0.0,1-Back,0.0,z,Tue Oct 14 2025 17:46:13 GMT-0500 (Central Daylight Time),354591.40000009537,014_m_m_h_a.png,O,m,774,14,1,1794.7999999523163,352796.60000014305,7227,VNB,C,13
13,test,5,1.0,1-Back,1.0,m,Tue Oct 14 2025 17:46:13 GMT-0500 (Central Daylight Time),356623.90000009537,012_o_f_d_a.png,O,m,1016,15,1,2024.9000000953674,354599.0,7227,VNB,C,14
14,test,5,0.0,1-Back,1.0,m,Tue Oct 14 2025 17:46:13 GMT-0500 (Central Daylight Time),358973.40000009537,025_y_m_n_a.png,O,m,1325,16,1,2343.9000000953674,356629.5,7227,VNB,C,15
15,test,5,0.0,1-Back,1.0,m,Tue Oct 14 2025 17:46:13 GMT-0500 (Central Daylight Time),361021.5,022_y_f_h_a.png,O,m,1019,17,1,2040.5,358981.0,7227,VNB,C,16
16,test,5,0.0,1-Back,1.0,m,Tue Oct 14 2025 17:46:13 GMT-0500 (Central Daylight Time),362839.10000014305,014_m_m_d_a.png,O,m,789,18,1,1815.1000001430511,361024.0,7227,VNB,C,17
0,prac,1,0.0,2-Back,,,Tue Oct 14 2025 17:46:13 GMT-0500 (Central Daylight Time),362839.10000014305,019_m_f_n_a.png,O,space,3714,1,1,1815.1000001430511,361024.0,7227,VNB,C,0
0,prac,1,0.0,2-Back,,,Tue Oct 14 2025 17:46:13 GMT-0500 (Central Daylight Time),362839.10000014305,012_o_f_h_a.png,O,space,3714,2,1,1815.1000001430511,361024.0,7227,VNB,C,0
1,prac,1,0.0,2-Back,1.0,m,Tue Oct 14 2025 17:46:13 GMT-0500 (Central Daylight Time),455142.80000019073,015_o_m_d_a.png,O,m,1795,3,1,2634.4000000953674,452508.40000009537,7227,VNB,C,1
1,prac,1,1.0,2-Back,0.0,z,Tue Oct 14 2025 17:46:13 GMT-0500 (Central Daylight Time),458008.90000009537,014_m_m_h_a.png,O,None,2011,4,1,2853.7999999523163,455155.10000014305,7227,VNB,C,2
1,prac,1,0.0,2-Back,0.0,m,Tue Oct 14 2025 17:46:13 GMT-0500 (Central Daylight Time),460409.0,022_y_f_n_a.png,O,z,1536,5,1,2390.899999856949,458018.10000014305,7227,VNB,C,3
1,prac,1,1.0,2-Back,0.0,z,Tue Oct 14 2025 17:46:13 GMT-0500 (Central Daylight Time),463258.30000019073,015_o_m_h_a.png,O,None,2004,6,1,2841.100000143051,460417.2000000477,7227,VNB,C,4
2,prac,1,1.0,2-Back,1.0,z,Tue Oct 14 2025 17:46:13 GMT-0500 (Central Daylight Time),465375.2000000477,025_y_m_n_a.png,O,z,1277,7,1,2107.0,463268.2000000477,7227,VNB,C,5
3,prac,1,0.0,2-Back,1.0,m,Tue Oct 14 2025 17:46:13 GMT-0500 (Central Daylight Time),467706.90000009537,019_m_f_d_a.png,O,m,1463,8,1,2321.5999999046326,465385.30000019073,7227,VNB,C,6
4,prac,1,0.0,2-Back,1.0,m,Tue Oct 14 2025 17:46:13 GMT-0500 (Central Daylight Time),470373.10000014305,012_o_f_d_a.png,O,m,1808,9,1,2653.600000143051,467719.5,7227,VNB,C,7
5,prac,1,0.0,2-Back,1.0,m,Tue Oct 14 2025 17:46:13 GMT-0500 (Central Daylight Time),472303.30000019073,014_m_m_h_a.png,O,m,1142,10,1,1919.6000001430511,470383.7000000477,7227,VNB,C,8
6,prac,1,1.0,2-Back,1.0,z,Tue Oct 14 2025 17:46:13 GMT-0500 (Central Daylight Time),474404.30000019073,022_y_f_d_a.png,O,z,1232,11,1,2088.600000143051,472315.7000000477,7227,VNB,C,9
7,prac,1,0.0,2-Back,1.0,m,Tue Oct 14 2025 17:46:13 GMT-0500 (Central Daylight Time),476569.7000000477,015_o_m_n_a.png,O,m,1292,12,1,2153.7999999523163,474415.90000009537,7227,VNB,C,10
0,test,1,0.0,2-Back,,,Tue Oct 14 2025 17:46:13 GMT-0500 (Central Daylight Time),476569.7000000477,025_y_m_h_a.png,O,space,2977,1,1,2153.7999999523163,474415.90000009537,7227,VNB,C,0
0,test,1,0.0,2-Back,,,Tue Oct 14 2025 17:46:13 GMT-0500 (Central Daylight Time),476569.7000000477,012_o_f_n_a.png,O,space,2977,2,1,2153.7999999523163,474415.90000009537,7227,VNB,C,0
1,test,1,0.0,2-Back,1.0,z,Tue Oct 14 2025 17:46:13 GMT-0500 (Central Daylight Time),492415.2000000477,015_o_m_h_a.png,O,z,1357,3,1,2372.899999856949,490042.30000019073,7227,VNB,C,1
2,test,1,0.0,2-Back,1.0,m,Tue Oct 14 2025 17:46:13 GMT-0500 (Central Daylight Time),494631.7000000477,019_m_f_d_a.png,O,m,1200,4,1,2204.0999999046326,492427.60000014305,7227,VNB,C,2
3,test,1,1.0,2-Back,1.0,m,Tue Oct 14 2025 17:46:13 GMT-0500 (Central Daylight Time),497495.30000019073,025_y_m_n_a.png,O,m,1829,5,1,2848.100000143051,494647.2000000477,7227,VNB,C,3
3,test,1,0.0,2-Back,0.0,z,Tue Oct 14 2025 17:46:13 GMT-0500 (Central Daylight Time),500528.30000019073,022_y_f_d_a.png,O,None,2015,6,1,3025.2000000476837,497503.10000014305,7227,VNB,C,4
3,test,1,0.0,2-Back,0.0,m,Tue Oct 14 2025 17:46:13 GMT-0500 (Central Daylight Time),502994.2000000477,014_m_m_h_a.png,O,z,1447,7,1,2458.0,500536.2000000477,7227,VNB,C,5
3,test,1,1.0,2-Back,0.0,m,Tue Oct 14 2025 17:46:13 GMT-0500 (Central Daylight Time),506026.10000014305,022_y_f_n_a.png,O,None,2016,8,1,3022.2999999523163,503003.80000019073,7227,VNB,C,6
4,test,1,0.0,2-Back,1.0,z,Tue Oct 14 2025 17:46:13 GMT-0500 (Central Daylight Time),508710.0,012_o_f_h_a.png,O,z,1658,9,1,2673.5999999046326,506036.40000009537,7227,VNB,C,7
5,test,1,0.0,2-Back,1.0,m,Tue Oct 14 2025 17:46:13 GMT-0500 (Central Daylight Time),510625.60000014305,015_o_m_d_a.png,O,m,885,10,1,1909.2999999523163,508716.30000019073,7227,VNB,C,8
5,test,1,1.0,2-Back,0.0,m,Tue Oct 14 2025 17:46:13 GMT-0500 (Central Daylight Time),513657.80000019073,014_m_m_d_a.png,O,None,2016,11,1,3024.5,510633.30000019073,7227,VNB,C,9
6,test,1,0.0,2-Back,1.0,m,Tue Oct 14 2025 17:46:13 GMT-0500 (Central Daylight Time),515893.0,019_m_f_n_a.png,O,m,1204,12,1,2225.399999856949,513667.60000014305,7227,VNB,C,10
6,test,1,0.0,2-Back,0.0,m,Tue Oct 14 2025 17:46:13 GMT-0500 (Central Daylight Time),518923.90000009537,022_y_f_h_a.png,O,None,2016,13,1,3022.7999999523163,515901.10000014305,7227,VNB,C,11
6,test,1,0.0,2-Back,0.0,z,Tue Oct 14 2025 17:46:13 GMT-0500 (Central Daylight Time),521955.0,014_m_m_n_a.png,O,None,2015,14,1,3020.2999999523163,518934.7000000477,7227,VNB,C,12
6,test,1,0.0,2-Back,0.0,m,Tue Oct 14 2025 17:46:13 GMT-0500 (Central Daylight Time),524987.5,025_y_m_d_a.png,O,None,2014,15,1,3023.7999999523163,521963.7000000477,7227,VNB,C,13
7,test,1,1.0,2-Back,1.0,m,Tue Oct 14 2025 17:46:13 GMT-0500 (Central Daylight Time),527752.7000000477,019_m_f_h_a.png,O,m,1745,16,1,2755.7999999523163,524996.9000000954,7227,VNB,C,14
8,test,1,0.0,2-Back,1.0,z,Tue Oct 14 2025 17:46:13 GMT-0500 (Central Daylight Time),530203.7000000477,012_o_f_d_a.png,O,z,1420,17,1,2437.899999856949,527765.8000001907,7227,VNB,C,15
9,test,1,0.0,2-Back,1.0,m,Tue Oct 14 2025 17:46:13 GMT-0500 (Central Daylight Time),532951.7000000477,015_o_m_n_a.png,O,m,1720,18,1,2740.899999856949,530210.8000001907,7227,VNB,C,16
0,test,2,0.0,2-Back,,,Tue Oct 14 2025 17:46:13 GMT-0500 (Central Daylight Time),532951.7000000477,014_m_m_h_a.png,O,space,1189,1,1,2740.899999856949,530210.8000001907,7227,VNB,C,0
0,test,2,0.0,2-Back,,,Tue Oct 14 2025 17:46:13 GMT-0500 (Central Daylight Time),532951.7000000477,022_y_f_n_a.png,O,space,1189,2,1,2740.899999856949,530210.8000001907,7227,VNB,C,0
1,test,2,1.0,2-Back,1.0,z,Tue Oct 14 2025 17:46:13 GMT-0500 (Central Daylight Time),542248.8000001907,012_o_f_h_a.png,O,z,1898,3,1,2905.800000190735,539343.0,7227,VNB,C,1
2,test,2,0.0,2-Back,1.0,m,Tue Oct 14 2025 17:46:13 GMT-0500 (Central Daylight Time),545064.7000000477,015_o_m_d_a.png,O,m,1796,4,1,2808.0,542256.7000000477,7227,VNB,C,2
2,test,2,0.0,2-Back,0.0,m,Tue Oct 14 2025 17:46:13 GMT-0500 (Central Daylight Time),548097.600000143,019_m_f_d_a.png,O,None,2017,5,1,3022.0,545075.600000143,7227,VNB,C,3
2,test,2,0.0,2-Back,0.0,m,Tue Oct 14 2025 17:46:13 GMT-0500 (Central Daylight Time),551044.9000000954,025_y_m_h_a.png,O,z,1923,6,1,2936.0,548108.9000000954,7227,VNB,C,4
2,test,2,0.0,2-Back,0.0,m,Tue Oct 14 2025 17:46:13 GMT-0500 (Central Daylight Time),553878.600000143,012_o_f_n_a.png,O,z,1800,7,1,2826.7000000476837,551051.9000000954,7227,VNB,C,5
2,test,2,1.0,2-Back,0.0,z,Tue Oct 14 2025 17:46:13 GMT-0500 (Central Daylight Time),556877.8000001907,015_o_m_h_a.png,O,m,1975,8,1,2991.7000000476837,553886.100000143,7227,VNB,C,6
3,test,2,0.0,2-Back,1.0,m,Tue Oct 14 2025 17:46:13 GMT-0500 (Central Daylight Time),559692.8000001907,022_y_f_d_a.png,O,m,1791,9,1,2808.5,556884.3000001907,7227,VNB,C,7
4,test,2,0.0,2-Back,1.0,m,Tue Oct 14 2025 17:46:13 GMT-0500 (Central Daylight Time),562275.2000000477,025_y_m_d_a.png,O,m,1558,10,1,2571.899999856949,559703.3000001907,7227,VNB,C,8
5,test,2,0.0,2-Back,1.0,m,Tue Oct 14 2025 17:46:13 GMT-0500 (Central Daylight Time),564225.2000000477,014_m_m_n_a.png,O,m,920,11,1,1941.3999998569489,562283.8000001907,7227,VNB,C,9
6,test,2,0.0,2-Back,1.0,m,Tue Oct 14 2025 17:46:13 GMT-0500 (Central Daylight Time),566740.2000000477,019_m_f_h_a.png,O,m,1491,12,1,2505.399999856949,564234.8000001907,7227,VNB,C,10
7,test,2,1.0,2-Back,1.0,z,Tue Oct 14 2025 17:46:13 GMT-0500 (Central Daylight Time),568924.2000000477,015_o_m_n_a.png,O,z,1159,13,1,2174.2999999523163,566749.9000000954,7227,VNB,C,11
8,test,2,0.0,2-Back,1.0,m,Tue Oct 14 2025 17:46:13 GMT-0500 (Central Daylight Time),571889.4000000954,012_o_f_d_a.png,O,m,1937,14,1,2957.9000000953674,568931.5,7227,VNB,C,12
8,test,2,0.0,2-Back,0.0,m,Tue Oct 14 2025 17:46:13 GMT-0500 (Central Daylight Time),574422.100000143,022_y_f_h_a.png,O,z,1508,15,1,2526.600000143051,571895.5,7227,VNB,C,13
8,test,2,0.0,2-Back,0.0,z,Tue Oct 14 2025 17:46:13 GMT-0500 (Central Daylight Time),577454.3000001907,014_m_m_d_a.png,O,None,2015,16,1,3026.2000000476837,574428.100000143,7227,VNB,C,14
9,test,2,0.0,2-Back,1.0,m,Tue Oct 14 2025 17:46:13 GMT-0500 (Central Daylight Time),580002.5,025_y_m_n_a.png,O,m,1527,17,1,2544.199999809265,577458.3000001907,7227,VNB,C,15
10,test,2,1.0,2-Back,1.0,m,Tue Oct 14 2025 17:46:13 GMT-0500 (Central Daylight Time),582003.3000001907,019_m_f_n_a.png,O,m,978,18,1,1992.8000001907349,580010.5,7227,VNB,C,16
0,test,3,1.0,2-Back,,,Tue Oct 14 2025 17:46:13 GMT-0500 (Central Daylight Time),582003.3000001907,015_o_m_n_a.png,O,space,1331,1,1,1992.8000001907349,580010.5,7227,VNB,C,0
0,test,3,1.0,2-Back,,,Tue Oct 14 2025 17:46:13 GMT-0500 (Central Daylight Time),582003.3000001907,012_o_f_d_a.png,O,space,1331,2,1,1992.8000001907349,580010.5,7227,VNB,C,0
1,test,3,0.0,2-Back,1.0,m,Tue Oct 14 2025 17:46:13 GMT-0500 (Central Daylight Time),591117.600000143,022_y_f_h_a.png,O,m,1699,3,1,2725.7000000476837,588391.9000000954,7227,VNB,C,1
2,test,3,0.0,2-Back,1.0,z,Tue Oct 14 2025 17:46:13 GMT-0500 (Central Daylight Time),593233.0,019_m_f_d_a.png,O,z,1089,4,1,2107.5,591125.5,7227,VNB,C,2
3,test,3,1.0,2-Back,1.0,m,Tue Oct 14 2025 17:46:13 GMT-0500 (Central Daylight Time),595514.100000143,025_y_m_n_a.png,O,m,1254,5,1,2271.7999999523163,593242.3000001907,7227,VNB,C,3
3,test,3,0.0,2-Back,0.0,m,Tue Oct 14 2025 17:46:13 GMT-0500 (Central Daylight Time),597798.600000143,015_o_m_h_a.png,O,z,1250,6,1,2279.2000000476837,595519.4000000954,7227,VNB,C,4
4,test,3,0.0,2-Back,1.0,z,Tue Oct 14 2025 17:46:13 GMT-0500 (Central Daylight Time),600013.5,022_y_f_n_a.png,O,z,1191,7,1,2203.5,597810.0,7227,VNB,C,5
5,test,3,1.0,2-Back,1.0,m,Tue Oct 14 2025 17:46:13 GMT-0500 (Central Daylight Time),602496.100000143,014_m_m_d_a.png,O,m,1454,8,1,2478.9000000953674,600017.2000000477,7227,VNB,C,6
5,test,3,0.0,2-Back,0.0,m,Tue Oct 14 2025 17:46:13 GMT-0500 (Central Daylight Time),605528.4000000954,025_y_m_d_a.png,O,None,2015,9,1,3025.5,602502.9000000954,7227,VNB,C,7
6,test,3,0.0,2-Back,1.0,m,Tue Oct 14 2025 17:46:13 GMT-0500 (Central Daylight Time),607694.5,012_o_f_h_a.png,O,m,1148,10,1,2160.7999999523163,605533.7000000477,7227,VNB,C,8
7,test,3,1.0,2-Back,1.0,m,Tue Oct 14 2025 17:46:13 GMT-0500 (Central Daylight Time),610027.2000000477,019_m_f_n_a.png,O,m,1300,11,1,2324.0,607703.2000000477,7227,VNB,C,9
8,test,3,1.0,2-Back,1.0,z,Tue Oct 14 2025 17:46:13 GMT-0500 (Central Daylight Time),611993.8000001907,014_m_m_h_a.png,O,z,944,12,1,1959.1000001430511,610034.7000000477,7227,VNB,C,10
9,test,3,0.0,2-Back,1.0,m,Tue Oct 14 2025 17:46:13 GMT-0500 (Central Daylight Time),614859.100000143,022_y_f_d_a.png,O,m,1844,13,1,2860.100000143051,611999.0,7227,VNB,C,11
9,test,3,0.0,2-Back,0.0,m,Tue Oct 14 2025 17:46:13 GMT-0500 (Central Daylight Time),617891.7000000477,012_o_f_n_a.png,O,None,2017,14,1,3025.2000000476837,614866.5,7227,VNB,C,12
10,test,3,0.0,2-Back,1.0,z,Tue Oct 14 2025 17:46:13 GMT-0500 (Central Daylight Time),620007.4000000954,015_o_m_d_a.png,O,z,1088,15,1,2105.5,617901.9000000954,7227,VNB,C,13
10,test,3,1.0,2-Back,0.0,m,Tue Oct 14 2025 17:46:13 GMT-0500 (Central Daylight Time),623039.7000000477,019_m_f_h_a.png,O,None,2016,16,1,3027.899999856949,620011.8000001907,7227,VNB,C,14
10,test,3,0.0,2-Back,0.0,m,Tue Oct 14 2025 17:46:13 GMT-0500 (Central Daylight Time),626057.8000001907,014_m_m_n_a.png,O,None,2002,17,1,3009.600000143051,623048.2000000477,7227,VNB,C,15
11,test,3,0.0,2-Back,1.0,z,Tue Oct 14 2025 17:46:13 GMT-0500 (Central Daylight Time),628556.600000143,025_y_m_h_a.png,O,z,1479,18,1,2488.2999999523163,626068.3000001907,7227,VNB,C,16
0,test,4,0.0,2-Back,,,Tue Oct 14 2025 17:46:13 GMT-0500 (Central Daylight Time),628556.600000143,019_m_f_n_a.png,O,space,994,1,1,2488.2999999523163,626068.3000001907,7227,VNB,C,0
0,test,4,0.0,2-Back,,,Tue Oct 14 2025 17:46:13 GMT-0500 (Central Daylight Time),628556.600000143,015_o_m_n_a.png,O,space,994,2,1,2488.2999999523163,626068.3000001907,7227,VNB,C,0
1,test,4,1.0,2-Back,1.0,m,Tue Oct 14 2025 17:46:13 GMT-0500 (Central Daylight Time),636702.600000143,025_y_m_h_a.png,O,m,915,3,1,1923.6000001430511,634779.0,7227,VNB,C,1
2,test,4,1.0,2-Back,1.0,m,Tue Oct 14 2025 17:46:13 GMT-0500 (Central Daylight Time),639050.8000001907,012_o_f_d_a.png,O,m,1318,4,1,2337.600000143051,636713.2000000477,7227,VNB,C,2
3,test,4,0.0,2-Back,1.0,z,Tue Oct 14 2025 17:46:13 GMT-0500 (Central Daylight Time),640885.0,015_o_m_h_a.png,O,z,810,5,1,1826.6999998092651,639058.3000001907,7227,VNB,C,3
4,test,4,0.0,2-Back,1.0,m,Tue Oct 14 2025 17:46:13 GMT-0500 (Central Daylight Time),642949.9000000954,014_m_m_n_a.png,O,m,1041,6,1,2053.5999999046326,640896.3000001907,7227,VNB,C,4
5,test,4,0.0,2-Back,1.0,m,Tue Oct 14 2025 17:46:13 GMT-0500 (Central Daylight Time),645916.0,019_m_f_d_a.png,O,m,1934,7,1,2952.5,642963.5,7227,VNB,C,5
6,test,4,0.0,2-Back,1.0,z,Tue Oct 14 2025 17:46:13 GMT-0500 (Central Daylight Time),648481.100000143,022_y_f_n_a.png,O,z,1538,8,1,2554.4000000953674,645926.7000000477,7227,VNB,C,6
7,test,4,1.0,2-Back,1.0,m,Tue Oct 14 2025 17:46:13 GMT-0500 (Central Daylight Time),650614.8000001907,012_o_f_h_a.png,O,m,1116,9,1,2124.5,648490.3000001907,7227,VNB,C,7
7,test,4,0.0,2-Back,0.0,m,Tue Oct 14 2025 17:46:13 GMT-0500 (Central Daylight Time),653646.5,014_m_m_h_a.png,O,None,2015,10,1,3025.7999999523163,650620.7000000477,7227,VNB,C,8
8,test,4,0.0,2-Back,1.0,m,Tue Oct 14 2025 17:46:13 GMT-0500 (Central Daylight Time),655979.5,022_y_f_d_a.png,O,m,1310,11,1,2326.0999999046326,653653.4000000954,7227,VNB,C,9
9,test,4,0.0,2-Back,1.0,m,Tue Oct 14 2025 17:46:13 GMT-0500 (Central Daylight Time),658378.7000000477,025_y_m_n_a.png,O,m,1370,12,1,2392.899999856949,655985.8000001907,7227,VNB,C,10
10,test,4,0.0,2-Back,1.0,z,Tue Oct 14 2025 17:46:13 GMT-0500 (Central Daylight Time),660277.9000000954,015_o_m_d_a.png,O,z,875,13,1,1886.7000000476837,658391.2000000477,7227,VNB,C,11
10,test,4,1.0,2-Back,0.0,m,Tue Oct 14 2025 17:46:13 GMT-0500 (Central Daylight Time),663294.100000143,019_m_f_h_a.png,O,None,2001,14,1,3006.100000143051,660288.0,7227,VNB,C,12
11,test,4,1.0,2-Back,1.0,m,Tue Oct 14 2025 17:46:13 GMT-0500 (Central Daylight Time),666126.4000000954,022_y_f_h_a.png,O,m,1808,15,1,2822.2999999523163,663304.100000143,7227,VNB,C,13
12,test,4,0.0,2-Back,1.0,m,Tue Oct 14 2025 17:46:13 GMT-0500 (Central Daylight Time),668173.8000001907,012_o_f_n_a.png,O,m,1021,16,1,2035.3000001907349,666138.5,7227,VNB,C,14
13,test,4,0.0,2-Back,1.0,m,Tue Oct 14 2025 17:46:13 GMT-0500 (Central Daylight Time),670324.4000000954,025_y_m_d_a.png,O,m,1117,17,1,2145.0,668179.4000000954,7227,VNB,C,15
14,test,4,1.0,2-Back,1.0,m,Tue Oct 14 2025 17:46:13 GMT-0500 (Central Daylight Time),672590.0,014_m_m_d_a.png,O,m,1248,18,1,2254.899999856949,670335.100000143,7227,VNB,C,16
0,test,5,1.0,2-Back,,,Tue Oct 14 2025 17:46:13 GMT-0500 (Central Daylight Time),672590.0,022_y_f_d_a.png,O,space,1096,1,1,2254.899999856949,670335.100000143,7227,VNB,C,0
0,test,5,1.0,2-Back,,,Tue Oct 14 2025 17:46:13 GMT-0500 (Central Daylight Time),672590.0,012_o_f_h_a.png,O,space,1096,2,1,2254.899999856949,670335.100000143,7227,VNB,C,0
1,test,5,1.0,2-Back,1.0,z,Tue Oct 14 2025 17:46:13 GMT-0500 (Central Daylight Time),681320.2000000477,015_o_m_d_a.png,O,z,1395,3,1,2406.7999999523163,678913.4000000954,7227,VNB,C,1
1,test,5,1.0,2-Back,0.0,m,Tue Oct 14 2025 17:46:13 GMT-0500 (Central Daylight Time),684354.0,019_m_f_n_a.png,O,None,2015,4,1,3031.0999999046326,681322.9000000954,7227,VNB,C,2
2,test,5,0.0,2-Back,1.0,m,Tue Oct 14 2025 17:46:13 GMT-0500 (Central Daylight Time),687252.8000001907,014_m_m_h_a.png,O,m,1868,5,1,2887.4000000953674,684365.4000000954,7227,VNB,C,3
3,test,5,0.0,2-Back,1.0,z,Tue Oct 14 2025 17:46:13 GMT-0500 (Central Daylight Time),689469.0,022_y_f_n_a.png,O,z,1193,6,1,2207.899999856949,687261.100000143,7227,VNB,C,4
4,test,5,0.0,2-Back,1.0,m,Tue Oct 14 2025 17:46:13 GMT-0500 (Central Daylight Time),692336.2000000477,012_o_f_d_a.png,O,m,1833,7,1,2859.7000000476837,689476.5,7227,VNB,C,5
4,test,5,0.0,2-Back,0.0,m,Tue Oct 14 2025 17:46:13 GMT-0500 (Central Daylight Time),694266.8000001907,015_o_m_h_a.png,O,z,911,8,1,1921.9000000953674,692344.9000000954,7227,VNB,C,6
4,test,5,1.0,2-Back,0.0,z,Tue Oct 14 2025 17:46:13 GMT-0500 (Central Daylight Time),697301.5,019_m_f_d_a.png,O,None,2018,9,1,3028.0999999046326,694273.4000000954,7227,VNB,C,7
5,test,5,0.0,2-Back,1.0,m,Tue Oct 14 2025 17:46:13 GMT-0500 (Central Daylight Time),699583.4000000954,025_y_m_n_a.png,O,m,1266,10,1,2273.7999999523163,697309.600000143,7227,VNB,C,8
6,test,5,0.0,2-Back,1.0,m,Tue Oct 14 2025 17:46:13 GMT-0500 (Central Daylight Time),701465.3000001907,014_m_m_n_a.png,O,m,863,11,1,1874.4000000953674,699590.9000000954,7227,VNB,C,9
7,test,5,0.0,2-Back,1.0,m,Tue Oct 14 2025 17:46:13 GMT-0500 (Central Daylight Time),703464.2000000477,022_y_f_h_a.png,O,m,979,12,1,1991.5,701472.7000000477,7227,VNB,C,10
8,test,5,0.0,2-Back,1.0,m,Tue Oct 14 2025 17:46:13 GMT-0500 (Central Daylight Time),705812.7000000477,025_y_m_d_a.png,O,m,1316,13,1,2343.5,703469.2000000477,7227,VNB,C,11
9,test,5,1.0,2-Back,1.0,z,Tue Oct 14 2025 17:46:13 GMT-0500 (Central Daylight Time),707648.0,019_m_f_h_a.png,O,z,817,14,1,1827.8999998569489,705820.100000143,7227,VNB,C,12
9,test,5,0.0,2-Back,0.0,m,Tue Oct 14 2025 17:46:13 GMT-0500 (Central Daylight Time),710678.8000001907,015_o_m_n_a.png,O,None,2016,15,1,3021.300000190735,707657.5,7227,VNB,C,13
10,test,5,0.0,2-Back,1.0,m,Tue Oct 14 2025 17:46:13 GMT-0500 (Central Daylight Time),713528.2000000477,014_m_m_d_a.png,O,m,1821,16,1,2842.7000000476837,710685.5,7227,VNB,C,14
11,test,5,0.0,2-Back,1.0,z,Tue Oct 14 2025 17:46:13 GMT-0500 (Central Daylight Time),715726.9000000954,012_o_f_n_a.png,O,z,1172,17,1,2190.2999999523163,713536.600000143,7227,VNB,C,15
12,test,5,1.0,2-Back,1.0,m,Tue Oct 14 2025 17:46:13 GMT-0500 (Central Daylight Time),717726.2000000477,025_y_m_h_a.png,O,m,975,18,1,1990.7000000476837,715735.5,7227,VNB,C,16
