block_c,block_dur,condition,countdown,datetime,endtime,list,multichar_response,project,response,response_time,session_number,start_end,starttime,subject_id,task,task_vers,trial
,,,,Tue May 13 2025 13:37:26 GMT-0500 (Central Daylight Time),,,,I,space,534,1,,,8047,WL,B,
prac,,0,,Tue May 13 2025 13:37:26 GMT-0500 (Central Daylight Time),,NA,b,I,b,8849,1,,,8047,WL,B,1.0
prac,,0,,Tue May 13 2025 13:37:26 GMT-0500 (Central Daylight Time),,NA,bo,I,o,987,1,,,8047,WL,B,1.0
prac,,0,,Tue May 13 2025 13:37:26 GMT-0500 (Central Daylight Time),,NA,boo,I,o,205,1,,,8047,WL,B,1.0
prac,,0,,Tue May 13 2025 13:37:26 GMT-0500 (Central Daylight Time),,NA,boos,I,s,204,1,,,8047,WL,B,1.0
prac,,0,,Tue May 13 2025 13:37:26 GMT-0500 (Central Daylight Time),,NA,boost,I,t,460,1,,,8047,WL,B,1.0
prac,,0,,Tue May 13 2025 13:37:26 GMT-0500 (Central Daylight Time),,NA,boostenter,I,enter,1585,1,,,8047,WL,B,1.0
1,0.7659997940063477,learn,59234.00020599365,Tue May 13 2025 13:37:26 GMT-0500 (Central Daylight Time),148359.39999997616,A,s,I,s,756,1,766.1999999880791,147593.19999998808,8047,WL,B,1.0
1,1.0829999446868896,learn,58917.00005531311,Tue May 13 2025 13:37:26 GMT-0500 (Central Daylight Time),148676.0,A,st,I,t,300,1,1082.800000011921,147593.19999998808,8047,WL,B,1.0
1,1.3489999771118164,learn,58651.00002288818,Tue May 13 2025 13:37:26 GMT-0500 (Central Daylight Time),148942.39999997616,A,str,I,r,248,1,1349.199999988079,147593.19999998808,8047,WL,B,1.0
1,1.5829999446868896,learn,58417.00005531311,Tue May 13 2025 13:37:26 GMT-0500 (Central Daylight Time),149175.69999998808,A,stre,I,e,214,1,1582.5,147593.19999998808,8047,WL,B,1.0
1,2.365999937057495,learn,57634.000062942505,Tue May 13 2025 13:37:26 GMT-0500 (Central Daylight Time),149958.80000001192,A,stree,I,e,765,1,2365.600000023842,147593.19999998808,8047,WL,B,1.0
1,2.631999969482422,learn,57368.00003051758,Tue May 13 2025 13:37:26 GMT-0500 (Central Daylight Time),150225.30000001192,A,street,I,t,254,1,2632.100000023842,147593.19999998808,8047,WL,B,1.0
1,3.3319997787475586,learn,56668.00022125244,Tue May 13 2025 13:37:26 GMT-0500 (Central Daylight Time),150925.0,A,streetenter,I,enter,683,1,3331.800000011921,147593.19999998808,8047,WL,B,1.0
1,4.014999866485596,learn,55985.000133514404,Tue May 13 2025 13:37:26 GMT-0500 (Central Daylight Time),151608.10000002384,A,d,I,d,671,1,682.3000000119209,150925.80000001192,8047,WL,B,2.0
1,4.198999881744385,learn,55801.000118255615,Tue May 13 2025 13:37:26 GMT-0500 (Central Daylight Time),151791.69999998808,A,do,I,o,164,1,865.8999999761581,150925.80000001192,8047,WL,B,2.0
1,4.347999811172485,learn,55652.000188827515,Tue May 13 2025 13:37:26 GMT-0500 (Central Daylight Time),151941.5,A,doo,I,o,133,1,1015.6999999880791,150925.80000001192,8047,WL,B,2.0
1,4.56499981880188,learn,55435.00018119812,Tue May 13 2025 13:37:26 GMT-0500 (Central Daylight Time),152158.30000001192,A,door,I,r,206,1,1232.5,150925.80000001192,8047,WL,B,2.0
1,4.931999921798706,learn,55068.000078201294,Tue May 13 2025 13:37:26 GMT-0500 (Central Daylight Time),152524.69999998808,A,doorenter,I,enter,358,1,1598.8999999761581,150925.80000001192,8047,WL,B,2.0
1,5.23199987411499,learn,54768.00012588501,Tue May 13 2025 13:37:26 GMT-0500 (Central Daylight Time),152824.60000002384,A,g,I,g,280,1,299.4000000357628,152525.19999998808,8047,WL,B,3.0
1,5.4649999141693115,learn,54535.00008583069,Tue May 13 2025 13:37:26 GMT-0500 (Central Daylight Time),153057.89999997616,A,gr,I,r,212,1,532.6999999880791,152525.19999998808,8047,WL,B,3.0
1,5.580999851226807,learn,54419.00014877319,Tue May 13 2025 13:37:26 GMT-0500 (Central Daylight Time),153174.30000001192,A,gra,I,a,99,1,649.1000000238419,152525.19999998808,8047,WL,B,3.0
1,5.830999851226807,learn,54169.00014877319,Tue May 13 2025 13:37:26 GMT-0500 (Central Daylight Time),153424.39999997616,A,gras,I,s,238,1,899.1999999880791,152525.19999998808,8047,WL,B,3.0
1,6.014999866485596,learn,53985.000133514404,Tue May 13 2025 13:37:26 GMT-0500 (Central Daylight Time),153607.80000001192,A,grass,I,s,165,1,1082.6000000238419,152525.19999998808,8047,WL,B,3.0
1,6.742999792098999,learn,53257.000207901,Tue May 13 2025 13:37:26 GMT-0500 (Central Daylight Time),154336.19999998808,A,grassenter,I,enter,576,1,1811.0,152525.19999998808,8047,WL,B,3.0
1,7.396999835968018,learn,52603.00016403198,Tue May 13 2025 13:37:26 GMT-0500 (Central Daylight Time),154990.60000002384,A,w,I,w,636,1,654.1000000238419,154336.5,8047,WL,B,4.0
1,7.546999931335449,learn,52453.00006866455,Tue May 13 2025 13:37:26 GMT-0500 (Central Daylight Time),155140.5,A,wi,I,i,142,1,804.0,154336.5,8047,WL,B,4.0
1,7.71399998664856,learn,52286.00001335144,Tue May 13 2025 13:37:26 GMT-0500 (Central Daylight Time),155307.0,A,wif,I,f,152,1,970.5,154336.5,8047,WL,B,4.0
1,7.930999994277954,learn,52069.000005722046,Tue May 13 2025 13:37:26 GMT-0500 (Central Daylight Time),155523.80000001192,A,wife,I,e,210,1,1187.300000011921,154336.5,8047,WL,B,4.0
1,8.21399998664856,learn,51786.00001335144,Tue May 13 2025 13:37:26 GMT-0500 (Central Daylight Time),155806.69999998808,A,wifeenter,I,enter,273,1,1470.199999988079,154336.5,8047,WL,B,4.0
1,8.396999835968018,learn,51603.00016403198,Tue May 13 2025 13:37:26 GMT-0500 (Central Daylight Time),155990.0,A,s,I,s,174,1,182.89999997615814,155807.10000002384,8047,WL,B,5.0
1,8.629999876022339,learn,51370.00012397766,Tue May 13 2025 13:37:26 GMT-0500 (Central Daylight Time),156223.39999997616,A,st,I,t,215,1,416.2999999523163,155807.10000002384,8047,WL,B,5.0
1,8.746999979019165,learn,51253.000020980835,Tue May 13 2025 13:37:26 GMT-0500 (Central Daylight Time),156340.10000002384,A,sta,I,a,109,1,533.0,155807.10000002384,8047,WL,B,5.0
1,8.929999828338623,learn,51070.00017166138,Tue May 13 2025 13:37:26 GMT-0500 (Central Daylight Time),156523.30000001192,A,star,I,r,177,1,716.1999999880791,155807.10000002384,8047,WL,B,5.0
1,9.229999780654907,learn,50770.00021934509,Tue May 13 2025 13:37:26 GMT-0500 (Central Daylight Time),156823.10000002384,A,stars,I,s,281,1,1016.0,155807.10000002384,8047,WL,B,5.0
1,9.729999780654907,learn,50270.00021934509,Tue May 13 2025 13:37:26 GMT-0500 (Central Daylight Time),157323.10000002384,A,starsenter,I,enter,486,1,1516.0,155807.10000002384,8047,WL,B,5.0
1,10.347999811172485,learn,49652.000188827515,Tue May 13 2025 13:37:26 GMT-0500 (Central Daylight Time),157940.69999998808,A,p,I,p,601,1,617.1999999880791,157323.5,8047,WL,B,6.0
1,10.52999997138977,learn,49470.00002861023,Tue May 13 2025 13:37:26 GMT-0500 (Central Daylight Time),158123.0,A,pu,I,u,168,1,799.5,157323.5,8047,WL,B,6.0
1,10.745999813079834,learn,49254.000186920166,Tue May 13 2025 13:37:26 GMT-0500 (Central Daylight Time),158339.30000001192,A,pul,I,l,202,1,1015.8000000119209,157323.5,8047,WL,B,6.0
1,11.012999773025513,learn,48987.00022697449,Tue May 13 2025 13:37:26 GMT-0500 (Central Daylight Time),158606.10000002384,A,puli,I,i,250,1,1282.6000000238419,157323.5,8047,WL,B,6.0
1,11.328999996185303,learn,48671.0000038147,Tue May 13 2025 13:37:26 GMT-0500 (Central Daylight Time),158922.5,A,pulip,I,p,311,1,1599.0,157323.5,8047,WL,B,6.0
1,11.795999765396118,learn,48204.00023460388,Tue May 13 2025 13:37:26 GMT-0500 (Central Daylight Time),159389.19999998808,A,pulipenter,I,enter,458,1,2065.699999988079,157323.5,8047,WL,B,6.0
1,12.145999908447266,learn,47854.000091552734,Tue May 13 2025 13:37:26 GMT-0500 (Central Daylight Time),159738.69999998808,A,c,I,c,344,1,349.0999999642372,159389.60000002384,8047,WL,B,7.0
1,12.328999996185303,learn,47671.0000038147,Tue May 13 2025 13:37:26 GMT-0500 (Central Daylight Time),159922.30000001192,A,ci,I,i,162,1,532.6999999880791,159389.60000002384,8047,WL,B,7.0
1,12.52899980545044,learn,47471.00019454956,Tue May 13 2025 13:37:26 GMT-0500 (Central Daylight Time),160122.19999998808,A,cit,I,t,179,1,732.5999999642372,159389.60000002384,8047,WL,B,7.0
1,13.461999893188477,learn,46538.00010681152,Tue May 13 2025 13:37:26 GMT-0500 (Central Daylight Time),161055.19999998808,A,city,I,y,923,1,1665.5999999642372,159389.60000002384,8047,WL,B,7.0
1,13.744999885559082,learn,46255.00011444092,Tue May 13 2025 13:37:26 GMT-0500 (Central Daylight Time),161338.5,A,cityenter,I,enter,278,1,1948.8999999761581,159389.60000002384,8047,WL,B,7.0
1,13.961999893188477,learn,46038.00010681152,Tue May 13 2025 13:37:26 GMT-0500 (Central Daylight Time),161555.0,A,c,I,c,211,1,216.19999998807907,161338.80000001192,8047,WL,B,8.0
1,14.128999948501587,learn,45871.00005149841,Tue May 13 2025 13:37:26 GMT-0500 (Central Daylight Time),161721.89999997616,A,ca,I,a,146,1,383.0999999642372,161338.80000001192,8047,WL,B,8.0
1,14.244999885559082,learn,45755.00011444092,Tue May 13 2025 13:37:26 GMT-0500 (Central Daylight Time),161838.30000001192,A,cab,I,b,107,1,499.5,161338.80000001192,8047,WL,B,8.0
1,14.494999885559082,learn,45505.00011444092,Tue May 13 2025 13:37:26 GMT-0500 (Central Daylight Time),162087.89999997616,A,cabi,I,i,230,1,749.0999999642372,161338.80000001192,8047,WL,B,8.0
1,14.744999885559082,learn,45255.00011444092,Tue May 13 2025 13:37:26 GMT-0500 (Central Daylight Time),162337.80000001192,A,cabin,I,n,244,1,999.0,161338.80000001192,8047,WL,B,8.0
1,15.194999933242798,learn,44805.0000667572,Tue May 13 2025 13:37:26 GMT-0500 (Central Daylight Time),162787.89999997616,A,cabinenter,I,enter,435,1,1449.0999999642372,161338.80000001192,8047,WL,B,8.0
1,15.67799997329712,learn,44322.00002670288,Tue May 13 2025 13:37:26 GMT-0500 (Central Daylight Time),163271.19999998808,A,s,I,s,465,1,483.0,162788.19999998808,8047,WL,B,9.0
1,15.860999822616577,learn,44139.00017738342,Tue May 13 2025 13:37:26 GMT-0500 (Central Daylight Time),163454.5,A,sm,I,m,174,1,666.3000000119209,162788.19999998808,8047,WL,B,9.0
1,16.210999965667725,learn,43789.000034332275,Tue May 13 2025 13:37:26 GMT-0500 (Central Daylight Time),163804.39999997616,A,smo,I,o,343,1,1016.1999999880791,162788.19999998808,8047,WL,B,9.0
1,16.477999925613403,learn,43522.0000743866,Tue May 13 2025 13:37:26 GMT-0500 (Central Daylight Time),164071.0,A,smot,I,t,257,1,1282.800000011921,162788.19999998808,8047,WL,B,9.0
1,16.627999782562256,learn,43372.000217437744,Tue May 13 2025 13:37:26 GMT-0500 (Central Daylight Time),164221.0,A,smoth,I,h,142,1,1432.800000011921,162788.19999998808,8047,WL,B,9.0
1,18.443999767303467,learn,41556.00023269653,Tue May 13 2025 13:37:26 GMT-0500 (Central Daylight Time),166037.0,A,smot,I,backspace,1808,1,3248.800000011921,162788.19999998808,8047,WL,B,9.0
1,18.72699999809265,learn,41273.00000190735,Tue May 13 2025 13:37:26 GMT-0500 (Central Daylight Time),166320.39999997616,A,smo,I,backspace,264,1,3532.199999988079,162788.19999998808,8047,WL,B,9.0
1,19.393999814987183,learn,40606.00018501282,Tue May 13 2025 13:37:26 GMT-0500 (Central Daylight Time),166986.80000001192,A,smok,I,k,653,1,4198.600000023842,162788.19999998808,8047,WL,B,9.0
1,19.509999990463257,learn,40490.00000953674,Tue May 13 2025 13:37:26 GMT-0500 (Central Daylight Time),167103.30000001192,A,smoke,I,e,107,1,4315.100000023842,162788.19999998808,8047,WL,B,9.0
1,20.55999994277954,learn,39440.00005722046,Tue May 13 2025 13:37:26 GMT-0500 (Central Daylight Time),168153.0,A,smokeenter,I,enter,1038,1,5364.800000011921,162788.19999998808,8047,WL,B,9.0
1,20.926999807357788,learn,39073.00019264221,Tue May 13 2025 13:37:26 GMT-0500 (Central Daylight Time),168519.60000002384,A,s,I,s,348,1,366.2000000476837,168153.39999997616,8047,WL,B,10.0
1,21.092999935150146,learn,38907.00006484985,Tue May 13 2025 13:37:26 GMT-0500 (Central Daylight Time),168686.30000001192,A,sk,I,k,150,1,532.9000000357628,168153.39999997616,8047,WL,B,10.0
1,21.275999784469604,learn,38724.000215530396,Tue May 13 2025 13:37:26 GMT-0500 (Central Daylight Time),168869.39999997616,A,ski,I,i,167,1,716.0,168153.39999997616,8047,WL,B,10.0
1,21.542999982833862,learn,38457.00001716614,Tue May 13 2025 13:37:26 GMT-0500 (Central Daylight Time),169135.89999997616,A,skin,I,n,248,1,982.5,168153.39999997616,8047,WL,B,10.0
1,22.592999935150146,learn,37407.00006484985,Tue May 13 2025 13:37:26 GMT-0500 (Central Daylight Time),170185.69999998808,A,skinenter,I,enter,1030,1,2032.300000011921,168153.39999997616,8047,WL,B,10.0
1,28.122999906539917,learn,31877.000093460083,Tue May 13 2025 13:37:26 GMT-0500 (Central Daylight Time),175717.30000001192,A,s,I,s,5523,1,5531.199999988079,170186.10000002384,8047,WL,B,11.0
1,28.33999991416931,learn,31660.00008583069,Tue May 13 2025 13:37:26 GMT-0500 (Central Daylight Time),175934.0,A,st,I,t,208,1,5747.899999976158,170186.10000002384,8047,WL,B,11.0
1,28.472999811172485,learn,31527.000188827515,Tue May 13 2025 13:37:26 GMT-0500 (Central Daylight Time),176067.30000001192,A,sta,I,a,119,1,5881.199999988079,170186.10000002384,8047,WL,B,11.0
1,28.85599994659424,learn,31144.00005340576,Tue May 13 2025 13:37:26 GMT-0500 (Central Daylight Time),176450.39999997616,A,star,I,r,362,1,6264.299999952316,170186.10000002384,8047,WL,B,11.0
1,29.35599994659424,learn,30644.00005340576,Tue May 13 2025 13:37:26 GMT-0500 (Central Daylight Time),176950.39999997616,A,starenter,I,enter,483,1,6764.299999952316,170186.10000002384,8047,WL,B,11.0
1,35.38799977302551,learn,24612.000226974487,Tue May 13 2025 13:37:26 GMT-0500 (Central Daylight Time),182981.80000001192,A,c,I,c,6023,1,6031.0,176950.80000001192,8047,WL,B,12.0
1,35.537999868392944,learn,24462.000131607056,Tue May 13 2025 13:37:26 GMT-0500 (Central Daylight Time),183131.60000002384,A,ci,I,i,143,1,6180.800000011921,176950.80000001192,8047,WL,B,12.0
1,35.7039999961853,learn,24296.000003814697,Tue May 13 2025 13:37:26 GMT-0500 (Central Daylight Time),183298.5,A,cit,I,t,146,1,6347.699999988079,176950.80000001192,8047,WL,B,12.0
1,35.90399980545044,learn,24096.00019454956,Tue May 13 2025 13:37:26 GMT-0500 (Central Daylight Time),183498.5,A,city,I,y,195,1,6547.699999988079,176950.80000001192,8047,WL,B,12.0
1,36.25399994850159,learn,23746.000051498413,Tue May 13 2025 13:37:26 GMT-0500 (Central Daylight Time),183848.10000002384,A,cityenter,I,enter,339,1,6897.300000011921,176950.80000001192,8047,WL,B,12.0
1,40.93599987030029,learn,19064.000129699707,Tue May 13 2025 13:37:26 GMT-0500 (Central Daylight Time),188530.0,A,f,I,f,4669,1,4681.399999976158,183848.60000002384,8047,WL,B,13.0
1,41.20199990272522,learn,18798.00009727478,Tue May 13 2025 13:37:26 GMT-0500 (Central Daylight Time),188796.60000002384,A,fi,I,i,259,1,4948.0,183848.60000002384,8047,WL,B,13.0
1,41.335999965667725,learn,18664.000034332275,Tue May 13 2025 13:37:26 GMT-0500 (Central Daylight Time),188929.89999997616,A,fir,I,r,113,1,5081.299999952316,183848.60000002384,8047,WL,B,13.0
1,41.56899976730347,learn,18431.000232696533,Tue May 13 2025 13:37:26 GMT-0500 (Central Daylight Time),189162.89999997616,A,fire,I,e,219,1,5314.299999952316,183848.60000002384,8047,WL,B,13.0
1,41.78499984741211,learn,18215.00015258789,Tue May 13 2025 13:37:26 GMT-0500 (Central Daylight Time),189379.39999997616,A,fireenter,I,enter,210,1,5530.799999952316,183848.60000002384,8047,WL,B,13.0
1,45.03499984741211,learn,14965.00015258789,Tue May 13 2025 13:37:26 GMT-0500 (Central Daylight Time),192628.69999998808,A,a,I,a,3242,1,3248.800000011921,189379.89999997616,8047,WL,B,14.0
1,45.26799988746643,learn,14732.00011253357,Tue May 13 2025 13:37:26 GMT-0500 (Central Daylight Time),192861.89999997616,A,ar,I,r,216,1,3482.0,189379.89999997616,8047,WL,B,14.0
1,45.51799988746643,learn,14482.00011253357,Tue May 13 2025 13:37:26 GMT-0500 (Central Daylight Time),193112.10000002384,A,arm,I,m,231,1,3732.2000000476837,189379.89999997616,8047,WL,B,14.0
1,45.85099983215332,learn,14149.00016784668,Tue May 13 2025 13:37:26 GMT-0500 (Central Daylight Time),193445.0,A,armenter,I,enter,317,1,4065.100000023842,189379.89999997616,8047,WL,B,14.0
1,55.49799990653992,learn,4502.000093460083,Tue May 13 2025 13:37:26 GMT-0500 (Central Daylight Time),203092.19999998808,A,enter,I,enter,9640,1,9646.800000011921,193445.39999997616,8047,WL,B,15.0
2,2.932000160217285,learn,57067.999839782715,Tue May 13 2025 13:37:26 GMT-0500 (Central Daylight Time),276635.8000000119,A,g,I,g,2926,1,2932.300000011921,273703.5,8047,WL,B,1.0
2,3.1490001678466797,learn,56850.99983215332,Tue May 13 2025 13:37:26 GMT-0500 (Central Daylight Time),276852.3000000119,A,gr,I,r,209,1,3148.800000011921,273703.5,8047,WL,B,1.0
2,3.2829999923706055,learn,56717.000007629395,Tue May 13 2025 13:37:26 GMT-0500 (Central Daylight Time),276986.0,A,gra,I,a,113,1,3282.5,273703.5,8047,WL,B,1.0
2,3.517000198364258,learn,56482.99980163574,Tue May 13 2025 13:37:26 GMT-0500 (Central Daylight Time),277219.89999997616,A,gras,I,s,227,1,3516.399999976158,273703.5,8047,WL,B,1.0
2,3.699000120162964,learn,56300.999879837036,Tue May 13 2025 13:37:26 GMT-0500 (Central Daylight Time),277402.1999999881,A,grass,I,s,169,1,3698.699999988079,273703.5,8047,WL,B,1.0
2,4.232000112533569,learn,55767.99988746643,Tue May 13 2025 13:37:26 GMT-0500 (Central Daylight Time),277935.3000000119,A,grassenter,I,enter,523,1,4231.800000011921,273703.5,8047,WL,B,1.0
2,5.14900016784668,learn,54850.99983215332,Tue May 13 2025 13:37:26 GMT-0500 (Central Daylight Time),278851.89999997616,A,d,I,d,902,1,916.1999999880791,277935.6999999881,8047,WL,B,2.0
2,5.315000057220459,learn,54684.99994277954,Tue May 13 2025 13:37:26 GMT-0500 (Central Daylight Time),279018.1999999881,A,do,I,o,153,1,1082.5,277935.6999999881,8047,WL,B,2.0
2,5.482000112533569,learn,54517.99988746643,Tue May 13 2025 13:37:26 GMT-0500 (Central Daylight Time),279185.0,A,doo,I,o,147,1,1249.300000011921,277935.6999999881,8047,WL,B,2.0
2,5.765000104904175,learn,54234.999895095825,Tue May 13 2025 13:37:26 GMT-0500 (Central Daylight Time),279468.3000000119,A,door,I,r,276,1,1532.6000000238419,277935.6999999881,8047,WL,B,2.0
2,6.430999994277954,learn,53569.000005722046,Tue May 13 2025 13:37:26 GMT-0500 (Central Daylight Time),280134.6999999881,A,doorenter,I,enter,657,1,2199.0,277935.6999999881,8047,WL,B,2.0
2,7.430999994277954,learn,52569.000005722046,Tue May 13 2025 13:37:26 GMT-0500 (Central Daylight Time),281134.60000002384,A,s,I,s,983,1,999.6000000238419,280135.0,8047,WL,B,3.0
2,7.63100004196167,learn,52368.99995803833,Tue May 13 2025 13:37:26 GMT-0500 (Central Daylight Time),281334.39999997616,A,st,I,t,191,1,1199.3999999761581,280135.0,8047,WL,B,3.0
2,7.8480000495910645,learn,52151.999950408936,Tue May 13 2025 13:37:26 GMT-0500 (Central Daylight Time),281551.0,A,str,I,r,207,1,1416.0,280135.0,8047,WL,B,3.0
2,8.04800009727478,learn,51951.99990272522,Tue May 13 2025 13:37:26 GMT-0500 (Central Daylight Time),281750.8000000119,A,stre,I,e,190,1,1615.800000011921,280135.0,8047,WL,B,3.0
2,8.21399998664856,learn,51786.00001335144,Tue May 13 2025 13:37:26 GMT-0500 (Central Daylight Time),281917.3000000119,A,stree,I,e,150,1,1782.300000011921,280135.0,8047,WL,B,3.0
2,8.44700002670288,learn,51552.99997329712,Tue May 13 2025 13:37:26 GMT-0500 (Central Daylight Time),282150.3000000119,A,street,I,t,215,1,2015.300000011921,280135.0,8047,WL,B,3.0
2,8.764000177383423,learn,51235.99982261658,Tue May 13 2025 13:37:26 GMT-0500 (Central Daylight Time),282466.89999997616,A,streetenter,I,enter,302,1,2331.899999976158,280135.0,8047,WL,B,3.0
2,9.130000114440918,learn,50869.99988555908,Tue May 13 2025 13:37:26 GMT-0500 (Central Daylight Time),282833.39999997616,A,a,I,a,345,1,366.19999998807907,282467.1999999881,8047,WL,B,4.0
2,9.413000106811523,learn,50586.99989318848,Tue May 13 2025 13:37:26 GMT-0500 (Central Daylight Time),283116.60000002384,A,ar,I,r,276,1,649.4000000357628,282467.1999999881,8047,WL,B,4.0
2,9.664000034332275,learn,50335.999965667725,Tue May 13 2025 13:37:26 GMT-0500 (Central Daylight Time),283366.89999997616,A,are,I,e,233,1,899.6999999880791,282467.1999999881,8047,WL,B,4.0
2,9.830000162124634,learn,50169.999837875366,Tue May 13 2025 13:37:26 GMT-0500 (Central Daylight Time),283533.60000002384,A,arem,I,m,150,1,1066.4000000357628,282467.1999999881,8047,WL,B,4.0
2,10.180999994277954,learn,49819.000005722046,Tue May 13 2025 13:37:26 GMT-0500 (Central Daylight Time),283884.5,A,arementer,I,enter,344,1,1417.300000011921,282467.1999999881,8047,WL,B,4.0
2,10.580000162124634,learn,49419.999837875366,Tue May 13 2025 13:37:26 GMT-0500 (Central Daylight Time),284283.1999999881,A,w,I,w,393,1,398.39999997615814,283884.8000000119,8047,WL,B,5.0
2,10.730000019073486,learn,49269.999980926514,Tue May 13 2025 13:37:26 GMT-0500 (Central Daylight Time),284433.3000000119,A,wi,I,i,138,1,548.5,283884.8000000119,8047,WL,B,5.0
2,10.880000114440918,learn,49119.99988555908,Tue May 13 2025 13:37:26 GMT-0500 (Central Daylight Time),284583.5,A,wif,I,f,131,1,698.6999999880791,283884.8000000119,8047,WL,B,5.0
2,11.163000106811523,learn,48836.99989318848,Tue May 13 2025 13:37:26 GMT-0500 (Central Daylight Time),284866.39999997616,A,wife,I,e,262,1,981.5999999642372,283884.8000000119,8047,WL,B,5.0
2,11.580000162124634,learn,48419.999837875366,Tue May 13 2025 13:37:26 GMT-0500 (Central Daylight Time),285283.1999999881,A,wifeenter,I,enter,403,1,1398.3999999761581,283884.8000000119,8047,WL,B,5.0
2,12.213000059127808,learn,47786.99994087219,Tue May 13 2025 13:37:26 GMT-0500 (Central Daylight Time),285916.10000002384,A,s,I,s,618,1,632.5,285283.60000002384,8047,WL,B,6.0
2,12.413000106811523,learn,47586.99989318848,Tue May 13 2025 13:37:26 GMT-0500 (Central Daylight Time),286116.1999999881,A,st,I,t,185,1,832.5999999642372,285283.60000002384,8047,WL,B,6.0
2,12.529000043869019,learn,47470.99995613098,Tue May 13 2025 13:37:26 GMT-0500 (Central Daylight Time),286232.8000000119,A,sta,I,a,105,1,949.1999999880791,285283.60000002384,8047,WL,B,6.0
2,12.913000106811523,learn,47086.99989318848,Tue May 13 2025 13:37:26 GMT-0500 (Central Daylight Time),286615.89999997616,A,star,I,r,365,1,1332.2999999523163,285283.60000002384,8047,WL,B,6.0
2,13.578999996185303,learn,46421.0000038147,Tue May 13 2025 13:37:26 GMT-0500 (Central Daylight Time),287282.3000000119,A,starenter,I,enter,646,1,1998.699999988079,285283.60000002384,8047,WL,B,6.0
2,13.92900013923645,learn,46070.99986076355,Tue May 13 2025 13:37:26 GMT-0500 (Central Daylight Time),287632.5,A,w,I,w,339,1,349.89999997615814,287282.60000002384,8047,WL,B,7.0
2,14.078999996185303,learn,45921.0000038147,Tue May 13 2025 13:37:26 GMT-0500 (Central Daylight Time),287782.39999997616,A,wi,I,i,141,1,499.7999999523163,287282.60000002384,8047,WL,B,7.0
2,14.195000171661377,learn,45804.99982833862,Tue May 13 2025 13:37:26 GMT-0500 (Central Daylight Time),287898.6999999881,A,win,I,n,111,1,616.0999999642372,287282.60000002384,8047,WL,B,7.0
2,14.312000036239624,learn,45687.999963760376,Tue May 13 2025 13:37:26 GMT-0500 (Central Daylight Time),288015.5,A,wind,I,d,106,1,732.8999999761581,287282.60000002384,8047,WL,B,7.0
2,14.562000036239624,learn,45437.999963760376,Tue May 13 2025 13:37:26 GMT-0500 (Central Daylight Time),288265.39999997616,A,windo,I,o,230,1,982.7999999523163,287282.60000002384,8047,WL,B,7.0
2,14.76200008392334,learn,45237.99991607666,Tue May 13 2025 13:37:26 GMT-0500 (Central Daylight Time),288465.39999997616,A,window,I,w,188,1,1182.7999999523163,287282.60000002384,8047,WL,B,7.0
2,15.34500002861023,learn,44654.99997138977,Tue May 13 2025 13:37:26 GMT-0500 (Central Daylight Time),289048.60000002384,A,windowenter,I,enter,572,1,1766.0,287282.60000002384,8047,WL,B,7.0
2,18.66100001335144,learn,41338.99998664856,Tue May 13 2025 13:37:26 GMT-0500 (Central Daylight Time),292364.10000002384,A,c,I,c,3301,1,3315.2000000476837,289048.89999997616,8047,WL,B,8.0
2,18.794000148773193,learn,41205.99985122681,Tue May 13 2025 13:37:26 GMT-0500 (Central Daylight Time),292497.1999999881,A,ca,I,a,121,1,3448.300000011921,289048.89999997616,8047,WL,B,8.0
2,18.944000005722046,learn,41055.999994277954,Tue May 13 2025 13:37:26 GMT-0500 (Central Daylight Time),292647.60000002384,A,cab,I,b,140,1,3598.7000000476837,289048.89999997616,8047,WL,B,8.0
2,19.16100001335144,learn,40838.99998664856,Tue May 13 2025 13:37:26 GMT-0500 (Central Daylight Time),292863.89999997616,A,cabi,I,i,198,1,3815.0,289048.89999997616,8047,WL,B,8.0
2,19.3270001411438,learn,40672.9998588562,Tue May 13 2025 13:37:26 GMT-0500 (Central Daylight Time),293030.5,A,cabin,I,n,149,1,3981.600000023842,289048.89999997616,8047,WL,B,8.0
2,19.5770001411438,learn,40422.9998588562,Tue May 13 2025 13:37:26 GMT-0500 (Central Daylight Time),293280.39999997616,A,cabinenter,I,enter,231,1,4231.5,289048.89999997616,8047,WL,B,8.0
2,19.877000093460083,learn,40122.99990653992,Tue May 13 2025 13:37:26 GMT-0500 (Central Daylight Time),293580.3000000119,A,l,I,l,293,1,299.60000002384186,293280.6999999881,8047,WL,B,9.0
2,20.027000188827515,learn,39972.999811172485,Tue May 13 2025 13:37:26 GMT-0500 (Central Daylight Time),293730.3000000119,A,la,I,a,145,1,449.60000002384186,293280.6999999881,8047,WL,B,9.0
2,20.22699999809265,learn,39773.00000190735,Tue May 13 2025 13:37:26 GMT-0500 (Central Daylight Time),293930.39999997616,A,lak,I,k,187,1,649.6999999880791,293280.6999999881,8047,WL,B,9.0
2,20.460000038146973,learn,39539.99996185303,Tue May 13 2025 13:37:26 GMT-0500 (Central Daylight Time),294163.60000002384,A,lake,I,e,227,1,882.9000000357628,293280.6999999881,8047,WL,B,9.0
2,20.777000188827515,learn,39222.999811172485,Tue May 13 2025 13:37:26 GMT-0500 (Central Daylight Time),294480.3000000119,A,lakeenter,I,enter,306,1,1199.6000000238419,293280.6999999881,8047,WL,B,9.0
2,21.027000188827515,learn,38972.999811172485,Tue May 13 2025 13:37:26 GMT-0500 (Central Daylight Time),294730.0,A,c,I,c,245,1,249.30000001192093,294480.6999999881,8047,WL,B,10.0
2,21.193000078201294,learn,38806.999921798706,Tue May 13 2025 13:37:26 GMT-0500 (Central Daylight Time),294896.60000002384,A,cl,I,l,148,1,415.9000000357628,294480.6999999881,8047,WL,B,10.0
2,21.39300012588501,learn,38606.99987411499,Tue May 13 2025 13:37:26 GMT-0500 (Central Daylight Time),295096.60000002384,A,clo,I,o,181,1,615.9000000357628,294480.6999999881,8047,WL,B,10.0
2,21.544000148773193,learn,38455.99985122681,Tue May 13 2025 13:37:26 GMT-0500 (Central Daylight Time),295246.8000000119,A,cloc,I,c,132,1,766.1000000238419,294480.6999999881,8047,WL,B,10.0
2,21.610000133514404,learn,38389.999866485596,Tue May 13 2025 13:37:26 GMT-0500 (Central Daylight Time),295313.5,A,clock,I,k,55,1,832.8000000119209,294480.6999999881,8047,WL,B,10.0
2,22.442000150680542,learn,37557.99984931946,Tue May 13 2025 13:37:26 GMT-0500 (Central Daylight Time),296146.3000000119,A,clockenter,I,enter,828,1,1665.6000000238419,294480.6999999881,8047,WL,B,10.0
2,25.70800018310547,learn,34291.99981689453,Tue May 13 2025 13:37:26 GMT-0500 (Central Daylight Time),299412.0,A,p,I,p,3259,1,3265.399999976158,296146.60000002384,8047,WL,B,11.0
2,25.924000024795532,learn,34075.99997520447,Tue May 13 2025 13:37:26 GMT-0500 (Central Daylight Time),299628.5,A,pi,I,i,201,1,3481.899999976158,296146.60000002384,8047,WL,B,11.0
2,26.124000072479248,learn,33875.99992752075,Tue May 13 2025 13:37:26 GMT-0500 (Central Daylight Time),299828.39999997616,A,pip,I,p,193,1,3681.7999999523163,296146.60000002384,8047,WL,B,11.0
2,26.59000015258789,learn,33409.99984741211,Tue May 13 2025 13:37:26 GMT-0500 (Central Daylight Time),300294.8000000119,A,pipe,I,e,457,1,4148.199999988079,296146.60000002384,8047,WL,B,11.0
2,27.174000024795532,learn,32825.99997520447,Tue May 13 2025 13:37:26 GMT-0500 (Central Daylight Time),300878.3000000119,A,pipeenter,I,enter,575,1,4731.699999988079,296146.60000002384,8047,WL,B,11.0
2,27.506999969482422,learn,32493.000030517578,Tue May 13 2025 13:37:26 GMT-0500 (Central Daylight Time),301211.39999997616,A,f,I,f,327,1,332.69999998807907,300878.6999999881,8047,WL,B,12.0
2,27.69000005722046,learn,32309.99994277954,Tue May 13 2025 13:37:26 GMT-0500 (Central Daylight Time),301394.6999999881,A,fi,I,i,170,1,516.0,300878.6999999881,8047,WL,B,12.0
2,27.84000015258789,learn,32159.99984741211,Tue May 13 2025 13:37:26 GMT-0500 (Central Daylight Time),301544.6999999881,A,fir,I,r,131,1,666.0,300878.6999999881,8047,WL,B,12.0
2,27.990000009536743,learn,32009.999990463257,Tue May 13 2025 13:37:26 GMT-0500 (Central Daylight Time),301694.6999999881,A,fire,I,e,141,1,816.0,300878.6999999881,8047,WL,B,12.0
2,28.50600004196167,learn,31493.99995803833,Tue May 13 2025 13:37:26 GMT-0500 (Central Daylight Time),302210.8000000119,A,fireenter,I,enter,511,1,1332.1000000238419,300878.6999999881,8047,WL,B,12.0
2,29.27300000190735,learn,30726.99999809265,Tue May 13 2025 13:37:26 GMT-0500 (Central Daylight Time),302977.60000002384,A,p,I,p,755,1,766.5,302211.10000002384,8047,WL,B,13.0
2,29.456000089645386,learn,30543.999910354614,Tue May 13 2025 13:37:26 GMT-0500 (Central Daylight Time),303160.89999997616,A,pu,I,u,172,1,949.7999999523163,302211.10000002384,8047,WL,B,13.0
2,29.6560001373291,learn,30343.9998626709,Tue May 13 2025 13:37:26 GMT-0500 (Central Daylight Time),303360.6999999881,A,pul,I,l,181,1,1149.5999999642372,302211.10000002384,8047,WL,B,13.0
2,30.123000144958496,learn,29876.999855041504,Tue May 13 2025 13:37:26 GMT-0500 (Central Daylight Time),303827.0,A,puli,I,i,452,1,1615.8999999761581,302211.10000002384,8047,WL,B,13.0
2,30.456000089645386,learn,29543.999910354614,Tue May 13 2025 13:37:26 GMT-0500 (Central Daylight Time),304160.5,A,pulip,I,p,323,1,1949.3999999761581,302211.10000002384,8047,WL,B,13.0
2,31.50600004196167,learn,28493.99995803833,Tue May 13 2025 13:37:26 GMT-0500 (Central Daylight Time),305210.3000000119,A,puli,I,backspace,1028,1,2999.199999988079,302211.10000002384,8047,WL,B,13.0
2,31.722000122070312,learn,28277.999877929688,Tue May 13 2025 13:37:26 GMT-0500 (Central Daylight Time),305426.60000002384,A,pul,I,backspace,211,1,3215.5,302211.10000002384,8047,WL,B,13.0
2,32.00600004196167,learn,27993.99995803833,Tue May 13 2025 13:37:26 GMT-0500 (Central Daylight Time),305710.10000002384,A,pu,I,backspace,275,1,3499.0,302211.10000002384,8047,WL,B,13.0
2,32.75500011444092,learn,27244.999885559082,Tue May 13 2025 13:37:26 GMT-0500 (Central Daylight Time),306459.8000000119,A,pup,I,p,743,1,4248.699999988079,302211.10000002384,8047,WL,B,13.0
2,33.039000034332275,learn,26960.999965667725,Tue May 13 2025 13:37:26 GMT-0500 (Central Daylight Time),306743.0,A,pupi,I,i,265,1,4531.899999976158,302211.10000002384,8047,WL,B,13.0
2,33.2720000743866,learn,26727.999925613403,Tue May 13 2025 13:37:26 GMT-0500 (Central Daylight Time),306976.1999999881,A,pupil,I,l,222,1,4765.099999964237,302211.10000002384,8047,WL,B,13.0
2,33.82200002670288,learn,26177.99997329712,Tue May 13 2025 13:37:26 GMT-0500 (Central Daylight Time),307526.0,A,pupilenter,I,enter,541,1,5314.899999976158,302211.10000002384,8047,WL,B,13.0
2,38.37000012397766,learn,21629.99987602234,Tue May 13 2025 13:37:26 GMT-0500 (Central Daylight Time),312074.39999997616,A,w,I,w,4543,1,4548.099999964237,307526.3000000119,8047,WL,B,14.0
2,38.47000002861023,learn,21529.99997138977,Tue May 13 2025 13:37:26 GMT-0500 (Central Daylight Time),312174.60000002384,A,wi,I,i,83,1,4648.300000011921,307526.3000000119,8047,WL,B,14.0
2,38.769999980926514,learn,21230.000019073486,Tue May 13 2025 13:37:26 GMT-0500 (Central Daylight Time),312474.3000000119,A,win,I,n,295,1,4948.0,307526.3000000119,8047,WL,B,14.0
2,39.15400004386902,learn,20845.99995613098,Tue May 13 2025 13:37:26 GMT-0500 (Central Daylight Time),312858.0,A,wind,I,d,363,1,5331.699999988079,307526.3000000119,8047,WL,B,14.0
2,39.253000020980835,learn,20746.999979019165,Tue May 13 2025 13:37:26 GMT-0500 (Central Daylight Time),312957.8000000119,A,windo,I,o,91,1,5431.5,307526.3000000119,8047,WL,B,14.0
2,39.47000002861023,learn,20529.99997138977,Tue May 13 2025 13:37:26 GMT-0500 (Central Daylight Time),313174.1999999881,A,window,I,w,199,1,5647.899999976158,307526.3000000119,8047,WL,B,14.0
2,39.87000012397766,learn,20129.99987602234,Tue May 13 2025 13:37:26 GMT-0500 (Central Daylight Time),313574.1999999881,A,windowenter,I,enter,383,1,6047.899999976158,307526.3000000119,8047,WL,B,14.0
2,46.16799998283386,learn,13832.000017166138,Tue May 13 2025 13:37:26 GMT-0500 (Central Daylight Time),319872.3000000119,A,c,I,c,6279,1,6297.800000011921,313574.5,8047,WL,B,15.0
2,46.26800012588501,learn,13731.99987411499,Tue May 13 2025 13:37:26 GMT-0500 (Central Daylight Time),319972.10000002384,A,ci,I,i,85,1,6397.600000023842,313574.5,8047,WL,B,15.0
2,46.48399996757507,learn,13516.000032424927,Tue May 13 2025 13:37:26 GMT-0500 (Central Daylight Time),320188.60000002384,A,cit,I,t,210,1,6614.100000023842,313574.5,8047,WL,B,15.0
2,46.617000102996826,learn,13382.999897003174,Tue May 13 2025 13:37:26 GMT-0500 (Central Daylight Time),320321.89999997616,A,city,I,y,113,1,6747.399999976158,313574.5,8047,WL,B,15.0
2,46.98399996757507,learn,13016.000032424927,Tue May 13 2025 13:37:26 GMT-0500 (Central Daylight Time),320688.5,A,cityenter,I,enter,348,1,7114.0,313574.5,8047,WL,B,15.0
3,1.4159998893737793,learn,58584.00011062622,Tue May 13 2025 13:37:26 GMT-0500 (Central Daylight Time),396814.60000002384,A,s,I,s,1407,1,1415.9000000357628,395398.6999999881,8047,WL,B,1.0
3,1.749000072479248,learn,58250.99992752075,Tue May 13 2025 13:37:26 GMT-0500 (Central Daylight Time),397147.89999997616,A,st,I,t,317,1,1749.199999988079,395398.6999999881,8047,WL,B,1.0
3,1.9830000400543213,learn,58016.99995994568,Tue May 13 2025 13:37:26 GMT-0500 (Central Daylight Time),397381.1999999881,A,str,I,r,225,1,1982.5,395398.6999999881,8047,WL,B,1.0
3,2.199000120162964,learn,57800.999879837036,Tue May 13 2025 13:37:26 GMT-0500 (Central Daylight Time),397597.89999997616,A,stre,I,e,208,1,2199.199999988079,395398.6999999881,8047,WL,B,1.0
3,2.365999937057495,learn,57634.000062942505,Tue May 13 2025 13:37:26 GMT-0500 (Central Daylight Time),397764.5,A,stree,I,e,151,1,2365.800000011921,395398.6999999881,8047,WL,B,1.0
3,2.7160000801086426,learn,57283.99991989136,Tue May 13 2025 13:37:26 GMT-0500 (Central Daylight Time),398114.3000000119,A,street,I,t,329,1,2715.600000023842,395398.6999999881,8047,WL,B,1.0
3,3.181999921798706,learn,56818.000078201294,Tue May 13 2025 13:37:26 GMT-0500 (Central Daylight Time),398580.89999997616,A,streetenter,I,enter,451,1,3182.199999988079,395398.6999999881,8047,WL,B,1.0
3,3.631999969482422,learn,56368.00003051758,Tue May 13 2025 13:37:26 GMT-0500 (Central Daylight Time),399030.89999997616,A,g,I,g,432,1,449.5999999642372,398581.3000000119,8047,WL,B,2.0
3,3.865000009536743,learn,56134.99999046326,Tue May 13 2025 13:37:26 GMT-0500 (Central Daylight Time),399263.89999997616,A,gr,I,r,223,1,682.5999999642372,398581.3000000119,8047,WL,B,2.0
3,3.9649999141693115,learn,56035.00008583069,Tue May 13 2025 13:37:26 GMT-0500 (Central Daylight Time),399363.89999997616,A,gra,I,a,86,1,782.5999999642372,398581.3000000119,8047,WL,B,2.0
3,4.249000072479248,learn,55750.99992752075,Tue May 13 2025 13:37:26 GMT-0500 (Central Daylight Time),399647.0,A,gras,I,s,266,1,1065.699999988079,398581.3000000119,8047,WL,B,2.0
3,4.414999961853027,learn,55585.00003814697,Tue May 13 2025 13:37:26 GMT-0500 (Central Daylight Time),399813.89999997616,A,grass,I,s,158,1,1232.5999999642372,398581.3000000119,8047,WL,B,2.0
3,4.732000112533569,learn,55267.99988746643,Tue May 13 2025 13:37:26 GMT-0500 (Central Daylight Time),400130.5,A,grassenter,I,enter,312,1,1549.199999988079,398581.3000000119,8047,WL,B,2.0
3,5.2149999141693115,learn,54785.00008583069,Tue May 13 2025 13:37:26 GMT-0500 (Central Daylight Time),400613.39999997616,A,s,I,s,467,1,482.5999999642372,400130.8000000119,8047,WL,B,3.0
3,5.63100004196167,learn,54368.99995803833,Tue May 13 2025 13:37:26 GMT-0500 (Central Daylight Time),401030.0,A,so,I,o,408,1,899.1999999880791,400130.8000000119,8047,WL,B,3.0
3,6.29800009727478,learn,53701.99990272522,Tue May 13 2025 13:37:26 GMT-0500 (Central Daylight Time),401696.39999997616,A,s,I,backspace,647,1,1565.5999999642372,400130.8000000119,8047,WL,B,3.0
3,6.581000089645386,learn,53418.999910354614,Tue May 13 2025 13:37:26 GMT-0500 (Central Daylight Time),401979.8000000119,A,,I,backspace,277,1,1849.0,400130.8000000119,8047,WL,B,3.0
3,7.180999994277954,learn,52819.000005722046,Tue May 13 2025 13:37:26 GMT-0500 (Central Daylight Time),402579.1999999881,A,d,I,d,586,1,2448.399999976158,400130.8000000119,8047,WL,B,3.0
3,7.546999931335449,learn,52453.00006866455,Tue May 13 2025 13:37:26 GMT-0500 (Central Daylight Time),402945.6999999881,A,do,I,o,346,1,2814.899999976158,400130.8000000119,8047,WL,B,3.0
3,7.697000026702881,learn,52302.99997329712,Tue May 13 2025 13:37:26 GMT-0500 (Central Daylight Time),403095.6999999881,A,doo,I,o,132,1,2964.899999976158,400130.8000000119,8047,WL,B,3.0
3,7.96399998664856,learn,52036.00001335144,Tue May 13 2025 13:37:26 GMT-0500 (Central Daylight Time),403362.5,A,door,I,r,261,1,3231.699999988079,400130.8000000119,8047,WL,B,3.0
3,8.54699993133545,learn,51453.00006866455,Tue May 13 2025 13:37:26 GMT-0500 (Central Daylight Time),403945.89999997616,A,doorenter,I,enter,563,1,3815.099999964237,400130.8000000119,8047,WL,B,3.0
3,9.914000034332275,learn,50085.999965667725,Tue May 13 2025 13:37:26 GMT-0500 (Central Daylight Time),405312.1999999881,A,w,I,w,1356,1,1366.0,403946.1999999881,8047,WL,B,4.0
3,10.081000089645386,learn,49918.999910354614,Tue May 13 2025 13:37:26 GMT-0500 (Central Daylight Time),405479.1999999881,A,wi,I,i,149,1,1533.0,403946.1999999881,8047,WL,B,4.0
3,10.230000019073486,learn,49769.999980926514,Tue May 13 2025 13:37:26 GMT-0500 (Central Daylight Time),405628.6999999881,A,wif,I,f,142,1,1682.5,403946.1999999881,8047,WL,B,4.0
3,10.54699993133545,learn,49453.00006866455,Tue May 13 2025 13:37:26 GMT-0500 (Central Daylight Time),405945.0,A,wife,I,e,305,1,1998.800000011921,403946.1999999881,8047,WL,B,4.0
3,11.263000011444092,learn,48736.99998855591,Tue May 13 2025 13:37:26 GMT-0500 (Central Daylight Time),406661.6999999881,A,wifeenter,I,enter,708,1,2715.5,403946.1999999881,8047,WL,B,4.0
3,11.680000066757202,learn,48319.9999332428,Tue May 13 2025 13:37:26 GMT-0500 (Central Daylight Time),407078.3000000119,A,w,I,w,400,1,416.19999998807907,406662.10000002384,8047,WL,B,5.0
3,11.813999891281128,learn,48186.00010871887,Tue May 13 2025 13:37:26 GMT-0500 (Central Daylight Time),407212.60000002384,A,wi,I,i,127,1,550.5,406662.10000002384,8047,WL,B,5.0
3,11.963000059127808,learn,48036.99994087219,Tue May 13 2025 13:37:26 GMT-0500 (Central Daylight Time),407361.6999999881,A,win,I,n,137,1,699.5999999642372,406662.10000002384,8047,WL,B,5.0
3,12.095999956130981,learn,47904.00004386902,Tue May 13 2025 13:37:26 GMT-0500 (Central Daylight Time),407494.8000000119,A,wind,I,d,124,1,832.6999999880791,406662.10000002384,8047,WL,B,5.0
3,12.246000051498413,learn,47753.99994850159,Tue May 13 2025 13:37:26 GMT-0500 (Central Daylight Time),407644.6999999881,A,windo,I,o,143,1,982.5999999642372,406662.10000002384,8047,WL,B,5.0
3,12.529000043869019,learn,47470.99995613098,Tue May 13 2025 13:37:26 GMT-0500 (Central Daylight Time),407927.89999997616,A,window,I,w,273,1,1265.7999999523163,406662.10000002384,8047,WL,B,5.0
3,13.01200008392334,learn,46987.99991607666,Tue May 13 2025 13:37:26 GMT-0500 (Central Daylight Time),408410.8000000119,A,windowenter,I,enter,477,1,1748.699999988079,406662.10000002384,8047,WL,B,5.0
3,13.263000011444092,learn,46736.99998855591,Tue May 13 2025 13:37:26 GMT-0500 (Central Daylight Time),408661.10000002384,A,s,I,s,243,1,250.0,408411.10000002384,8047,WL,B,6.0
3,13.513000011444092,learn,46486.99998855591,Tue May 13 2025 13:37:26 GMT-0500 (Central Daylight Time),408911.0,A,st,I,t,232,1,499.89999997615814,408411.10000002384,8047,WL,B,6.0
3,13.661999940872192,learn,46338.00005912781,Tue May 13 2025 13:37:26 GMT-0500 (Central Daylight Time),409060.89999997616,A,sta,I,a,142,1,649.7999999523163,408411.10000002384,8047,WL,B,6.0
3,14.029000043869019,learn,45970.99995613098,Tue May 13 2025 13:37:26 GMT-0500 (Central Daylight Time),409427.1999999881,A,star,I,r,353,1,1016.0999999642372,408411.10000002384,8047,WL,B,6.0
3,14.428999900817871,learn,45571.00009918213,Tue May 13 2025 13:37:26 GMT-0500 (Central Daylight Time),409827.5,A,starenter,I,enter,386,1,1416.3999999761581,408411.10000002384,8047,WL,B,6.0
3,15.244999885559082,learn,44755.00011444092,Tue May 13 2025 13:37:26 GMT-0500 (Central Daylight Time),410643.8000000119,A,p,I,p,809,1,816.0,409827.8000000119,8047,WL,B,7.0
3,15.51200008392334,learn,44487.99991607666,Tue May 13 2025 13:37:26 GMT-0500 (Central Daylight Time),410910.1999999881,A,pu,I,u,258,1,1082.3999999761581,409827.8000000119,8047,WL,B,7.0
3,16.01200008392334,learn,43987.99991607666,Tue May 13 2025 13:37:26 GMT-0500 (Central Daylight Time),411410.39999997616,A,pup,I,p,495,1,1582.5999999642372,409827.8000000119,8047,WL,B,7.0
3,16.312000036239624,learn,43687.999963760376,Tue May 13 2025 13:37:26 GMT-0500 (Central Daylight Time),411710.10000002384,A,pupi,I,i,291,1,1882.300000011921,409827.8000000119,8047,WL,B,7.0
3,16.611000061035156,learn,43388.999938964844,Tue May 13 2025 13:37:26 GMT-0500 (Central Daylight Time),412010.0,A,pupil,I,l,287,1,2182.199999988079,409827.8000000119,8047,WL,B,7.0
3,17.611000061035156,learn,42388.999938964844,Tue May 13 2025 13:37:26 GMT-0500 (Central Daylight Time),413009.60000002384,A,pupilenter,I,enter,979,1,3181.800000011921,409827.8000000119,8047,WL,B,7.0
3,18.477999925613403,learn,41522.0000743866,Tue May 13 2025 13:37:26 GMT-0500 (Central Daylight Time),413876.1999999881,A,w,I,w,860,1,866.1999999880791,413010.0,8047,WL,B,8.0
3,18.594000101089478,learn,41405.99989891052,Tue May 13 2025 13:37:26 GMT-0500 (Central Daylight Time),413992.6999999881,A,wi,I,i,97,1,982.6999999880791,413010.0,8047,WL,B,8.0
3,18.76099991798401,learn,41239.00008201599,Tue May 13 2025 13:37:26 GMT-0500 (Central Daylight Time),414159.1999999881,A,win,I,n,156,1,1149.199999988079,413010.0,8047,WL,B,8.0
3,18.844000101089478,learn,41155.99989891052,Tue May 13 2025 13:37:26 GMT-0500 (Central Daylight Time),414242.60000002384,A,wind,I,d,78,1,1232.6000000238419,413010.0,8047,WL,B,8.0
3,19.026999950408936,learn,40973.000049591064,Tue May 13 2025 13:37:26 GMT-0500 (Central Daylight Time),414425.89999997616,A,windo,I,o,171,1,1415.8999999761581,413010.0,8047,WL,B,8.0
3,19.194000005722046,learn,40805.999994277954,Tue May 13 2025 13:37:26 GMT-0500 (Central Daylight Time),414592.39999997616,A,window,I,w,156,1,1582.3999999761581,413010.0,8047,WL,B,8.0
3,19.710999965667725,learn,40289.000034332275,Tue May 13 2025 13:37:26 GMT-0500 (Central Daylight Time),415109.10000002384,A,windowenter,I,enter,509,1,2099.100000023842,413010.0,8047,WL,B,8.0
3,20.691999912261963,learn,39308.00008773804,Tue May 13 2025 13:37:26 GMT-0500 (Central Daylight Time),416091.89999997616,A,c,I,c,976,1,982.3999999761581,415109.5,8047,WL,B,9.0
3,20.80900001525879,learn,39190.99998474121,Tue May 13 2025 13:37:26 GMT-0500 (Central Daylight Time),416208.8000000119,A,ci,I,i,97,1,1099.300000011921,415109.5,8047,WL,B,9.0
3,21.009000062942505,learn,38990.999937057495,Tue May 13 2025 13:37:26 GMT-0500 (Central Daylight Time),416408.60000002384,A,cit,I,t,181,1,1299.1000000238419,415109.5,8047,WL,B,9.0
3,21.20900011062622,learn,38790.99988937378,Tue May 13 2025 13:37:26 GMT-0500 (Central Daylight Time),416608.5,A,city,I,y,189,1,1499.0,415109.5,8047,WL,B,9.0
3,21.691999912261963,learn,38308.00008773804,Tue May 13 2025 13:37:26 GMT-0500 (Central Daylight Time),417091.6999999881,A,cityenter,I,enter,477,1,1982.199999988079,415109.5,8047,WL,B,9.0
3,21.97499990463257,learn,38025.00009536743,Tue May 13 2025 13:37:26 GMT-0500 (Central Daylight Time),417374.89999997616,A,c,I,c,274,1,282.89999997615814,417092.0,8047,WL,B,10.0
3,22.125,learn,37875.0,Tue May 13 2025 13:37:26 GMT-0500 (Central Daylight Time),417524.89999997616,A,ca,I,a,142,1,432.89999997615814,417092.0,8047,WL,B,10.0
3,22.358999967575073,learn,37641.00003242493,Tue May 13 2025 13:37:26 GMT-0500 (Central Daylight Time),417758.10000002384,A,cab,I,b,216,1,666.1000000238419,417092.0,8047,WL,B,10.0
3,22.507999897003174,learn,37492.000102996826,Tue May 13 2025 13:37:26 GMT-0500 (Central Daylight Time),417908.10000002384,A,cabi,I,i,135,1,816.1000000238419,417092.0,8047,WL,B,10.0
3,22.77500009536743,learn,37224.99990463257,Tue May 13 2025 13:37:26 GMT-0500 (Central Daylight Time),418174.6999999881,A,cabin,I,n,257,1,1082.699999988079,417092.0,8047,WL,B,10.0
3,23.575000047683716,learn,36424.999952316284,Tue May 13 2025 13:37:26 GMT-0500 (Central Daylight Time),418974.3000000119,A,cabinenter,I,enter,782,1,1882.300000011921,417092.0,8047,WL,B,10.0
3,23.875,learn,36125.0,Tue May 13 2025 13:37:26 GMT-0500 (Central Daylight Time),419274.1999999881,A,f,I,f,295,1,299.5999999642372,418974.60000002384,8047,WL,B,11.0
3,24.075000047683716,learn,35924.999952316284,Tue May 13 2025 13:37:26 GMT-0500 (Central Daylight Time),419474.39999997616,A,fi,I,i,179,1,499.7999999523163,418974.60000002384,8047,WL,B,11.0
3,24.990999937057495,learn,35009.000062942505,Tue May 13 2025 13:37:26 GMT-0500 (Central Daylight Time),420390.8000000119,A,fir,I,r,907,1,1416.199999988079,418974.60000002384,8047,WL,B,11.0
3,25.240999937057495,learn,34759.000062942505,Tue May 13 2025 13:37:26 GMT-0500 (Central Daylight Time),420640.5,A,fire,I,e,239,1,1665.8999999761581,418974.60000002384,8047,WL,B,11.0
3,25.574000120162964,learn,34425.999879837036,Tue May 13 2025 13:37:26 GMT-0500 (Central Daylight Time),420973.8000000119,A,fireenter,I,enter,317,1,1999.199999988079,418974.60000002384,8047,WL,B,11.0
3,26.2739999294281,learn,33726.0000705719,Tue May 13 2025 13:37:26 GMT-0500 (Central Daylight Time),421673.6999999881,A,p,I,p,687,1,699.5999999642372,420974.10000002384,8047,WL,B,12.0
3,26.574000120162964,learn,33425.999879837036,Tue May 13 2025 13:37:26 GMT-0500 (Central Daylight Time),421973.39999997616,A,pi,I,i,283,1,999.2999999523163,420974.10000002384,8047,WL,B,12.0
3,26.907999992370605,learn,33092.000007629395,Tue May 13 2025 13:37:26 GMT-0500 (Central Daylight Time),422307.89999997616,A,pip,I,p,328,1,1333.7999999523163,420974.10000002384,8047,WL,B,12.0
3,27.60700011253357,learn,32392.99988746643,Tue May 13 2025 13:37:26 GMT-0500 (Central Daylight Time),423006.39999997616,A,pipe,I,e,689,1,2032.2999999523163,420974.10000002384,8047,WL,B,12.0
3,28.85599994659424,learn,31144.00005340576,Tue May 13 2025 13:37:26 GMT-0500 (Central Daylight Time),424256.0,A,pipeenter,I,enter,1231,1,3281.899999976158,420974.10000002384,8047,WL,B,12.0
3,29.456000089645386,learn,30543.999910354614,Tue May 13 2025 13:37:26 GMT-0500 (Central Daylight Time),424856.0,A,l,I,l,589,1,599.6999999880791,424256.3000000119,8047,WL,B,13.0
3,29.572999954223633,learn,30427.000045776367,Tue May 13 2025 13:37:26 GMT-0500 (Central Daylight Time),424972.39999997616,A,la,I,a,101,1,716.0999999642372,424256.3000000119,8047,WL,B,13.0
3,29.706000089645386,learn,30293.999910354614,Tue May 13 2025 13:37:26 GMT-0500 (Central Daylight Time),425105.8000000119,A,lak,I,k,113,1,849.5,424256.3000000119,8047,WL,B,13.0
3,29.98900008201599,learn,30010.99991798401,Tue May 13 2025 13:37:26 GMT-0500 (Central Daylight Time),425389.10000002384,A,lake,I,e,268,1,1132.800000011921,424256.3000000119,8047,WL,B,13.0
3,30.85599994659424,learn,29144.00005340576,Tue May 13 2025 13:37:26 GMT-0500 (Central Daylight Time),426255.39999997616,A,lakeenter,I,enter,848,1,1999.0999999642372,424256.3000000119,8047,WL,B,13.0
3,31.289000034332275,learn,28710.999965667725,Tue May 13 2025 13:37:26 GMT-0500 (Central Daylight Time),426688.5,A,s,I,s,421,1,432.69999998807907,426255.8000000119,8047,WL,B,14.0
3,31.50600004196167,learn,28493.99995803833,Tue May 13 2025 13:37:26 GMT-0500 (Central Daylight Time),426905.10000002384,A,sk,I,k,205,1,649.3000000119209,426255.8000000119,8047,WL,B,14.0
3,31.688999891281128,learn,28311.000108718872,Tue May 13 2025 13:37:26 GMT-0500 (Central Daylight Time),427088.6999999881,A,ski,I,i,172,1,832.8999999761581,426255.8000000119,8047,WL,B,14.0
3,31.871999979019165,learn,28128.000020980835,Tue May 13 2025 13:37:26 GMT-0500 (Central Daylight Time),427271.8000000119,A,skin,I,n,173,1,1016.0,426255.8000000119,8047,WL,B,14.0
3,32.47199988365173,learn,27528.000116348267,Tue May 13 2025 13:37:26 GMT-0500 (Central Daylight Time),427871.6999999881,A,skinenter,I,enter,590,1,1615.8999999761581,426255.8000000119,8047,WL,B,14.0
3,35.22099995613098,learn,24779.00004386902,Tue May 13 2025 13:37:26 GMT-0500 (Central Daylight Time),430620.89999997616,A,s,I,s,2742,1,2748.899999976158,427872.0,8047,WL,B,15.0
3,35.82100009918213,learn,24178.99990081787,Tue May 13 2025 13:37:26 GMT-0500 (Central Daylight Time),431220.5,A,,I,backspace,584,1,3348.5,427872.0,8047,WL,B,15.0
3,35.98799991607666,learn,24012.00008392334,Tue May 13 2025 13:37:26 GMT-0500 (Central Daylight Time),431387.1999999881,A,c,I,c,153,1,3515.199999988079,427872.0,8047,WL,B,15.0
3,36.1710000038147,learn,23828.999996185303,Tue May 13 2025 13:37:26 GMT-0500 (Central Daylight Time),431570.39999997616,A,cl,I,l,170,1,3698.399999976158,427872.0,8047,WL,B,15.0
3,36.37100005149841,learn,23628.999948501587,Tue May 13 2025 13:37:26 GMT-0500 (Central Daylight Time),431770.3000000119,A,clo,I,o,195,1,3898.300000011921,427872.0,8047,WL,B,15.0
3,36.520999908447266,learn,23479.000091552734,Tue May 13 2025 13:37:26 GMT-0500 (Central Daylight Time),431920.3000000119,A,cloc,I,c,131,1,4048.300000011921,427872.0,8047,WL,B,15.0
3,36.63800001144409,learn,23361.99998855591,Tue May 13 2025 13:37:26 GMT-0500 (Central Daylight Time),432037.10000002384,A,clock,I,k,109,1,4165.100000023842,427872.0,8047,WL,B,15.0
3,37.2039999961853,learn,22796.000003814697,Tue May 13 2025 13:37:26 GMT-0500 (Central Daylight Time),432603.39999997616,A,clockenter,I,enter,560,1,4731.399999976158,427872.0,8047,WL,B,15.0
4,0.8329999446868896,learn,59167.00005531311,Tue May 13 2025 13:37:26 GMT-0500 (Central Daylight Time),503381.60000002384,A,s,I,s,826,1,833.0,502548.60000002384,8047,WL,B,1.0
4,1.1159999370574951,learn,58884.000062942505,Tue May 13 2025 13:37:26 GMT-0500 (Central Daylight Time),503664.5,A,st,I,t,264,1,1115.8999999761581,502548.60000002384,8047,WL,B,1.0
4,1.3659999370574951,learn,58634.000062942505,Tue May 13 2025 13:37:26 GMT-0500 (Central Daylight Time),503914.3000000119,A,str,I,r,244,1,1365.699999988079,502548.60000002384,8047,WL,B,1.0
4,1.6329998970031738,learn,58367.000102996826,Tue May 13 2025 13:37:26 GMT-0500 (Central Daylight Time),504181.0,A,stre,I,e,251,1,1632.3999999761581,502548.60000002384,8047,WL,B,1.0
4,1.7660000324249268,learn,58233.99996757507,Tue May 13 2025 13:37:26 GMT-0500 (Central Daylight Time),504314.3000000119,A,stree,I,e,128,1,1765.699999988079,502548.60000002384,8047,WL,B,1.0
4,2.1500000953674316,learn,57849.99990463257,Tue May 13 2025 13:37:26 GMT-0500 (Central Daylight Time),504697.8000000119,A,street,I,t,363,1,2149.199999988079,502548.60000002384,8047,WL,B,1.0
4,2.815999984741211,learn,57184.00001525879,Tue May 13 2025 13:37:26 GMT-0500 (Central Daylight Time),505364.1999999881,A,streetenter,I,enter,652,1,2815.599999964237,502548.60000002384,8047,WL,B,1.0
4,3.75,learn,56250.0,Tue May 13 2025 13:37:26 GMT-0500 (Central Daylight Time),506298.1999999881,A,g,I,g,913,1,933.6999999880791,505364.5,8047,WL,B,2.0
4,4.049000024795532,learn,55950.99997520447,Tue May 13 2025 13:37:26 GMT-0500 (Central Daylight Time),506597.0,A,gr,I,r,283,1,1232.5,505364.5,8047,WL,B,2.0
4,4.115000009536743,learn,55884.99999046326,Tue May 13 2025 13:37:26 GMT-0500 (Central Daylight Time),506663.60000002384,A,gra,I,a,48,1,1299.1000000238419,505364.5,8047,WL,B,2.0
4,5.08899998664856,learn,54911.00001335144,Tue May 13 2025 13:37:26 GMT-0500 (Central Daylight Time),507637.3000000119,A,graa,I,a,829,1,2272.800000011921,505364.5,8047,WL,B,2.0
4,5.615000009536743,learn,54384.99999046326,Tue May 13 2025 13:37:26 GMT-0500 (Central Daylight Time),508163.3000000119,A,gra,I,backspace,512,1,2798.800000011921,505364.5,8047,WL,B,2.0
4,5.9649999141693115,learn,54035.00008583069,Tue May 13 2025 13:37:26 GMT-0500 (Central Daylight Time),508513.10000002384,A,gras,I,s,330,1,3148.600000023842,505364.5,8047,WL,B,2.0
4,6.164999961853027,learn,53835.00003814697,Tue May 13 2025 13:37:26 GMT-0500 (Central Daylight Time),508713.10000002384,A,grass,I,s,181,1,3348.600000023842,505364.5,8047,WL,B,2.0
4,6.9649999141693115,learn,53035.00008583069,Tue May 13 2025 13:37:26 GMT-0500 (Central Daylight Time),509512.6999999881,A,grassenter,I,enter,780,1,4148.199999988079,505364.5,8047,WL,B,2.0
4,7.947999954223633,learn,52052.00004577637,Tue May 13 2025 13:37:26 GMT-0500 (Central Daylight Time),510495.8000000119,A,d,I,d,965,1,982.6999999880791,509513.10000002384,8047,WL,B,3.0
4,8.13100004196167,learn,51868.99995803833,Tue May 13 2025 13:37:26 GMT-0500 (Central Daylight Time),510679.10000002384,A,do,I,o,174,1,1166.0,509513.10000002384,8047,WL,B,3.0
4,8.397000074386597,learn,51602.9999256134,Tue May 13 2025 13:37:26 GMT-0500 (Central Daylight Time),510945.39999997616,A,dor,I,r,254,1,1432.2999999523163,509513.10000002384,8047,WL,B,3.0
4,8.831000089645386,learn,51168.999910354614,Tue May 13 2025 13:37:26 GMT-0500 (Central Daylight Time),511379.0,A,do,I,backspace,420,1,1865.8999999761581,509513.10000002384,8047,WL,B,3.0
4,9.13100004196167,learn,50868.99995803833,Tue May 13 2025 13:37:26 GMT-0500 (Central Daylight Time),511678.6999999881,A,doo,I,o,290,1,2165.599999964237,509513.10000002384,8047,WL,B,3.0
4,9.313999891281128,learn,50686.00010871887,Tue May 13 2025 13:37:26 GMT-0500 (Central Daylight Time),511862.0,A,door,I,r,166,1,2348.899999976158,509513.10000002384,8047,WL,B,3.0
4,9.680000066757202,learn,50319.9999332428,Tue May 13 2025 13:37:26 GMT-0500 (Central Daylight Time),512228.5,A,doorenter,I,enter,351,1,2715.399999976158,509513.10000002384,8047,WL,B,3.0
4,11.346999883651733,learn,48653.00011634827,Tue May 13 2025 13:37:26 GMT-0500 (Central Daylight Time),513894.8000000119,A,s,I,s,1649,1,1666.0,512228.8000000119,8047,WL,B,4.0
4,11.54699993133545,learn,48453.00006866455,Tue May 13 2025 13:37:26 GMT-0500 (Central Daylight Time),514094.6999999881,A,st,I,t,191,1,1865.8999999761581,512228.8000000119,8047,WL,B,4.0
4,11.680000066757202,learn,48319.9999332428,Tue May 13 2025 13:37:26 GMT-0500 (Central Daylight Time),514227.6999999881,A,sta,I,a,119,1,1998.8999999761581,512228.8000000119,8047,WL,B,4.0
4,12.013000011444092,learn,47986.99998855591,Tue May 13 2025 13:37:26 GMT-0500 (Central Daylight Time),514561.0,A,star,I,r,322,1,2332.199999988079,512228.8000000119,8047,WL,B,4.0
4,12.380000114440918,learn,47619.99988555908,Tue May 13 2025 13:37:26 GMT-0500 (Central Daylight Time),514928.10000002384,A,starenter,I,enter,348,1,2699.300000011921,512228.8000000119,8047,WL,B,4.0
4,13.062999963760376,learn,46937.000036239624,Tue May 13 2025 13:37:26 GMT-0500 (Central Daylight Time),515610.8000000119,A,w,I,w,669,1,682.5,514928.3000000119,8047,WL,B,5.0
4,13.328999996185303,learn,46671.0000038147,Tue May 13 2025 13:37:26 GMT-0500 (Central Daylight Time),515877.39999997616,A,wi,I,i,251,1,949.0999999642372,514928.3000000119,8047,WL,B,5.0
4,13.546000003814697,learn,46453.9999961853,Tue May 13 2025 13:37:26 GMT-0500 (Central Daylight Time),516094.1999999881,A,wif,I,f,208,1,1165.8999999761581,514928.3000000119,8047,WL,B,5.0
4,13.861999988555908,learn,46138.00001144409,Tue May 13 2025 13:37:26 GMT-0500 (Central Daylight Time),516410.39999997616,A,wife,I,e,311,1,1482.0999999642372,514928.3000000119,8047,WL,B,5.0
4,14.178999900817871,learn,45821.00009918213,Tue May 13 2025 13:37:26 GMT-0500 (Central Daylight Time),516727.0,A,wifeenter,I,enter,299,1,1798.699999988079,514928.3000000119,8047,WL,B,5.0
4,14.480000019073486,learn,45519.999980926514,Tue May 13 2025 13:37:26 GMT-0500 (Central Daylight Time),517028.1999999881,A,w,I,w,294,1,301.0,516727.1999999881,8047,WL,B,6.0
4,14.694999933242798,learn,45305.0000667572,Tue May 13 2025 13:37:26 GMT-0500 (Central Daylight Time),517243.3000000119,A,wi,I,i,209,1,516.1000000238419,516727.1999999881,8047,WL,B,6.0
4,14.878000020980835,learn,45121.999979019165,Tue May 13 2025 13:37:26 GMT-0500 (Central Daylight Time),517426.5,A,win,I,n,177,1,699.3000000119209,516727.1999999881,8047,WL,B,6.0
4,15.096999883651733,learn,44903.00011634827,Tue May 13 2025 13:37:26 GMT-0500 (Central Daylight Time),517644.60000002384,A,wind,I,d,210,1,917.4000000357628,516727.1999999881,8047,WL,B,6.0
4,15.312000036239624,learn,44687.999963760376,Tue May 13 2025 13:37:26 GMT-0500 (Central Daylight Time),517859.89999997616,A,windo,I,o,201,1,1132.699999988079,516727.1999999881,8047,WL,B,6.0
4,15.57800006866455,learn,44421.99993133545,Tue May 13 2025 13:37:26 GMT-0500 (Central Daylight Time),518126.60000002384,A,window,I,w,249,1,1399.4000000357628,516727.1999999881,8047,WL,B,6.0
4,16.01200008392334,learn,43987.99991607666,Tue May 13 2025 13:37:26 GMT-0500 (Central Daylight Time),518560.0,A,windowenter,I,enter,423,1,1832.800000011921,516727.1999999881,8047,WL,B,6.0
4,16.51200008392334,learn,43487.99991607666,Tue May 13 2025 13:37:26 GMT-0500 (Central Daylight Time),519059.6999999881,A,p,I,p,485,1,499.30000001192093,518560.39999997616,8047,WL,B,7.0
4,16.778000116348267,learn,43221.99988365173,Tue May 13 2025 13:37:26 GMT-0500 (Central Daylight Time),519326.1999999881,A,pu,I,u,250,1,765.8000000119209,518560.39999997616,8047,WL,B,7.0
4,17.01099991798401,learn,42989.00008201599,Tue May 13 2025 13:37:26 GMT-0500 (Central Daylight Time),519559.5,A,pup,I,p,215,1,999.1000000238419,518560.39999997616,8047,WL,B,7.0
4,17.312999963760376,learn,42687.000036239624,Tue May 13 2025 13:37:26 GMT-0500 (Central Daylight Time),519860.6999999881,A,pupi,I,i,286,1,1300.300000011921,518560.39999997616,8047,WL,B,7.0
4,17.611000061035156,learn,42388.999938964844,Tue May 13 2025 13:37:26 GMT-0500 (Central Daylight Time),520159.39999997616,A,pupil,I,l,280,1,1599.0,518560.39999997616,8047,WL,B,7.0
4,18.061000108718872,learn,41938.99989128113,Tue May 13 2025 13:37:26 GMT-0500 (Central Daylight Time),520609.0,A,pupilenter,I,enter,438,1,2048.600000023842,518560.39999997616,8047,WL,B,7.0
4,18.444000005722046,learn,41555.999994277954,Tue May 13 2025 13:37:26 GMT-0500 (Central Daylight Time),520992.1999999881,A,c,I,c,372,1,382.89999997615814,520609.3000000119,8047,WL,B,8.0
4,19.01099991798401,learn,40989.00008201599,Tue May 13 2025 13:37:26 GMT-0500 (Central Daylight Time),521559.0,A,ci,I,i,549,1,949.6999999880791,520609.3000000119,8047,WL,B,8.0
4,19.47699999809265,learn,40523.00000190735,Tue May 13 2025 13:37:26 GMT-0500 (Central Daylight Time),522025.5,A,cit,I,t,446,1,1416.199999988079,520609.3000000119,8047,WL,B,8.0
4,19.694000005722046,learn,40305.999994277954,Tue May 13 2025 13:37:26 GMT-0500 (Central Daylight Time),522242.0,A,city,I,y,212,1,1632.699999988079,520609.3000000119,8047,WL,B,8.0
4,20.877000093460083,learn,39122.99990653992,Tue May 13 2025 13:37:26 GMT-0500 (Central Daylight Time),523425.10000002384,A,cityenter,I,enter,1171,1,2815.800000011921,520609.3000000119,8047,WL,B,8.0
4,23.9760000705719,learn,36023.9999294281,Tue May 13 2025 13:37:26 GMT-0500 (Central Daylight Time),526524.0,A,c,I,c,3084,1,3098.600000023842,523425.39999997616,8047,WL,B,9.0
4,24.14299988746643,learn,35857.00011253357,Tue May 13 2025 13:37:26 GMT-0500 (Central Daylight Time),526690.6999999881,A,ca,I,a,153,1,3265.300000011921,523425.39999997616,8047,WL,B,9.0
4,24.325999975204468,learn,35674.00002479553,Tue May 13 2025 13:37:26 GMT-0500 (Central Daylight Time),526874.1999999881,A,cab,I,b,179,1,3448.800000011921,523425.39999997616,8047,WL,B,9.0
4,24.4760000705719,learn,35523.9999294281,Tue May 13 2025 13:37:26 GMT-0500 (Central Daylight Time),527024.0,A,cabi,I,i,139,1,3598.600000023842,523425.39999997616,8047,WL,B,9.0
4,24.7260000705719,learn,35273.9999294281,Tue May 13 2025 13:37:26 GMT-0500 (Central Daylight Time),527274.0,A,cabin,I,n,246,1,3848.600000023842,523425.39999997616,8047,WL,B,9.0
4,25.075999975204468,learn,34924.00002479553,Tue May 13 2025 13:37:26 GMT-0500 (Central Daylight Time),527623.6999999881,A,cabinenter,I,enter,332,1,4198.300000011921,523425.39999997616,8047,WL,B,9.0
4,25.424999952316284,learn,34575.000047683716,Tue May 13 2025 13:37:26 GMT-0500 (Central Daylight Time),527973.5,A,l,I,l,342,1,349.39999997615814,527624.1000000238,8047,WL,B,10.0
4,25.54200005531311,learn,34457.99994468689,Tue May 13 2025 13:37:26 GMT-0500 (Central Daylight Time),528090.3000000119,A,la,I,a,112,1,466.19999998807907,527624.1000000238,8047,WL,B,10.0
4,25.77500009536743,learn,34224.99990463257,Tue May 13 2025 13:37:26 GMT-0500 (Central Daylight Time),528323.6000000238,A,lak,I,k,227,1,699.5,527624.1000000238,8047,WL,B,10.0
4,26.075000047683716,learn,33924.999952316284,Tue May 13 2025 13:37:26 GMT-0500 (Central Daylight Time),528623.3000000119,A,lake,I,e,290,1,999.1999999880791,527624.1000000238,8047,WL,B,10.0
4,26.757999897003174,learn,33242.000102996826,Tue May 13 2025 13:37:26 GMT-0500 (Central Daylight Time),529306.3999999762,A,lakeenter,I,enter,670,1,1682.2999999523163,527624.1000000238,8047,WL,B,10.0
4,27.35800004005432,learn,32641.99995994568,Tue May 13 2025 13:37:26 GMT-0500 (Central Daylight Time),529906.3000000119,A,p,I,p,587,1,599.5,529306.8000000119,8047,WL,B,11.0
4,27.60800004005432,learn,32391.99995994568,Tue May 13 2025 13:37:26 GMT-0500 (Central Daylight Time),530156.1999999881,A,pi,I,i,235,1,849.3999999761581,529306.8000000119,8047,WL,B,11.0
4,27.841000080108643,learn,32158.999919891357,Tue May 13 2025 13:37:26 GMT-0500 (Central Daylight Time),530389.3999999762,A,pip,I,p,217,1,1082.5999999642372,529306.8000000119,8047,WL,B,11.0
4,28.223999977111816,learn,31776.000022888184,Tue May 13 2025 13:37:26 GMT-0500 (Central Daylight Time),530772.3999999762,A,pipe,I,e,376,1,1465.5999999642372,529306.8000000119,8047,WL,B,11.0
4,28.707000017166138,learn,31292.999982833862,Tue May 13 2025 13:37:26 GMT-0500 (Central Daylight Time),531255.6000000238,A,pipeenter,I,enter,474,1,1948.800000011921,529306.8000000119,8047,WL,B,11.0
4,30.707000017166138,learn,29292.999982833862,Tue May 13 2025 13:37:26 GMT-0500 (Central Daylight Time),533255.3000000119,A,f,I,f,1987,1,1999.6000000238419,531255.6999999881,8047,WL,B,12.0
4,30.85700011253357,learn,29142.99988746643,Tue May 13 2025 13:37:26 GMT-0500 (Central Daylight Time),533405.3000000119,A,fi,I,i,142,1,2149.600000023842,531255.6999999881,8047,WL,B,12.0
4,31.039999961853027,learn,28960.000038146973,Tue May 13 2025 13:37:26 GMT-0500 (Central Daylight Time),533588.6000000238,A,fir,I,r,176,1,2332.900000035763,531255.6999999881,8047,WL,B,12.0
4,31.240000009536743,learn,28759.999990463257,Tue May 13 2025 13:37:26 GMT-0500 (Central Daylight Time),533788.6000000238,A,fire,I,e,193,1,2532.900000035763,531255.6999999881,8047,WL,B,12.0
4,31.674000024795532,learn,28325.999975204468,Tue May 13 2025 13:37:26 GMT-0500 (Central Daylight Time),534221.6999999881,A,fireenter,I,enter,425,1,2966.0,531255.6999999881,8047,WL,B,12.0
4,32.02300000190735,learn,27976.99999809265,Tue May 13 2025 13:37:26 GMT-0500 (Central Daylight Time),534571.3999999762,A,s,I,s,336,1,349.2999999523163,534222.1000000238,8047,WL,B,13.0
4,32.24000000953674,learn,27759.999990463257,Tue May 13 2025 13:37:26 GMT-0500 (Central Daylight Time),534788.1999999881,A,sk,I,k,202,1,566.0999999642372,534222.1000000238,8047,WL,B,13.0
4,32.44000005722046,learn,27559.99994277954,Tue May 13 2025 13:37:26 GMT-0500 (Central Daylight Time),534988.1000000238,A,ski,I,i,185,1,766.0,534222.1000000238,8047,WL,B,13.0
4,32.83999991416931,learn,27160.00008583069,Tue May 13 2025 13:37:26 GMT-0500 (Central Daylight Time),535388.0,A,skin,I,n,393,1,1165.8999999761581,534222.1000000238,8047,WL,B,13.0
4,33.289000034332275,learn,26710.999965667725,Tue May 13 2025 13:37:26 GMT-0500 (Central Daylight Time),535838.0,A,skinenter,I,enter,441,1,1615.8999999761581,534222.1000000238,8047,WL,B,13.0
4,34.638999938964844,learn,25361.000061035156,Tue May 13 2025 13:37:26 GMT-0500 (Central Daylight Time),537187.3999999762,A,c,I,c,1335,1,1349.199999988079,535838.1999999881,8047,WL,B,14.0
4,35.00500011444092,learn,24994.999885559082,Tue May 13 2025 13:37:26 GMT-0500 (Central Daylight Time),537554.1000000238,A,cl,I,l,354,1,1715.9000000357628,535838.1999999881,8047,WL,B,14.0
4,35.22199988365173,learn,24778.000116348267,Tue May 13 2025 13:37:26 GMT-0500 (Central Daylight Time),537770.5,A,clo,I,o,195,1,1932.300000011921,535838.1999999881,8047,WL,B,14.0
4,35.42199993133545,learn,24578.00006866455,Tue May 13 2025 13:37:26 GMT-0500 (Central Daylight Time),537970.3999999762,A,cloc,I,c,187,1,2132.199999988079,535838.1999999881,8047,WL,B,14.0
4,35.704999923706055,learn,24295.000076293945,Tue May 13 2025 13:37:26 GMT-0500 (Central Daylight Time),538253.6999999881,A,clock,I,k,275,1,2415.5,535838.1999999881,8047,WL,B,14.0
4,36.270999908447266,learn,23729.000091552734,Tue May 13 2025 13:37:26 GMT-0500 (Central Daylight Time),538820.1000000238,A,clockenter,I,enter,560,1,2981.900000035763,535838.1999999881,8047,WL,B,14.0
4,40.920000076293945,learn,19079.999923706055,Tue May 13 2025 13:37:26 GMT-0500 (Central Daylight Time),543468.6999999881,A,s,I,s,4641,1,4648.300000011921,538820.3999999762,8047,WL,B,15.0
4,41.15300011634827,learn,18846.999883651733,Tue May 13 2025 13:37:26 GMT-0500 (Central Daylight Time),543701.8999999762,A,st,I,t,224,1,4881.5,538820.3999999762,8047,WL,B,15.0
4,41.30399990081787,learn,18696.00009918213,Tue May 13 2025 13:37:26 GMT-0500 (Central Daylight Time),543852.1999999881,A,sta,I,a,135,1,5031.800000011921,538820.3999999762,8047,WL,B,15.0
4,41.61999988555908,learn,18380.000114440918,Tue May 13 2025 13:37:26 GMT-0500 (Central Daylight Time),544168.5,A,star,I,r,297,1,5348.100000023842,538820.3999999762,8047,WL,B,15.0
4,41.920000076293945,learn,18079.999923706055,Tue May 13 2025 13:37:26 GMT-0500 (Central Daylight Time),544468.6999999881,A,starenter,I,enter,285,1,5648.300000011921,538820.3999999762,8047,WL,B,15.0
5,1.4829998016357422,learn,60000.0,Tue May 13 2025 13:37:26 GMT-0500 (Central Daylight Time),615646.3000000119,A,s,I,s,1475,1,1483.1000000238419,614163.1999999881,8047,WL,B,1.0
5,1.75,learn,60000.0,Tue May 13 2025 13:37:26 GMT-0500 (Central Daylight Time),615912.8999999762,A,st,I,t,247,1,1749.699999988079,614163.1999999881,8047,WL,B,1.0
5,2.0,learn,60000.0,Tue May 13 2025 13:37:26 GMT-0500 (Central Daylight Time),616162.6999999881,A,str,I,r,228,1,1999.5,614163.1999999881,8047,WL,B,1.0
5,2.2170000076293945,learn,60000.0,Tue May 13 2025 13:37:26 GMT-0500 (Central Daylight Time),616380.3000000119,A,stre,I,e,211,1,2217.100000023842,614163.1999999881,8047,WL,B,1.0
5,2.382999897003174,learn,60000.0,Tue May 13 2025 13:37:26 GMT-0500 (Central Daylight Time),616545.8000000119,A,stree,I,e,153,1,2382.600000023842,614163.1999999881,8047,WL,B,1.0
5,2.6659998893737793,learn,60000.0,Tue May 13 2025 13:37:26 GMT-0500 (Central Daylight Time),616829.1999999881,A,street,I,t,276,1,2666.0,614163.1999999881,8047,WL,B,1.0
5,3.0989999771118164,learn,60000.0,Tue May 13 2025 13:37:26 GMT-0500 (Central Daylight Time),617262.1999999881,A,streetenter,I,enter,424,1,3099.0,614163.1999999881,8047,WL,B,1.0
5,3.7990000247955322,learn,60000.0,Tue May 13 2025 13:37:26 GMT-0500 (Central Daylight Time),617962.0,A,g,I,g,687,1,699.3999999761581,617262.6000000238,8047,WL,B,2.0
5,4.014999866485596,learn,60000.0,Tue May 13 2025 13:37:26 GMT-0500 (Central Daylight Time),618178.6000000238,A,gr,I,r,211,1,916.0,617262.6000000238,8047,WL,B,2.0
5,4.164999961853027,learn,60000.0,Tue May 13 2025 13:37:26 GMT-0500 (Central Daylight Time),618328.6000000238,A,gra,I,a,131,1,1066.0,617262.6000000238,8047,WL,B,2.0
5,4.448999881744385,learn,60000.0,Tue May 13 2025 13:37:26 GMT-0500 (Central Daylight Time),618612.0,A,gras,I,s,269,1,1349.3999999761581,617262.6000000238,8047,WL,B,2.0
5,4.631999969482422,learn,60000.0,Tue May 13 2025 13:37:26 GMT-0500 (Central Daylight Time),618795.1000000238,A,grass,I,s,170,1,1532.5,617262.6000000238,8047,WL,B,2.0
5,4.914999961853027,learn,60000.0,Tue May 13 2025 13:37:26 GMT-0500 (Central Daylight Time),619078.3000000119,A,grassenter,I,enter,274,1,1815.699999988079,617262.6000000238,8047,WL,B,2.0
5,5.431999921798706,learn,60000.0,Tue May 13 2025 13:37:26 GMT-0500 (Central Daylight Time),619594.6999999881,A,d,I,d,511,1,516.0,619078.6999999881,8047,WL,B,3.0
5,5.631999969482422,learn,60000.0,Tue May 13 2025 13:37:26 GMT-0500 (Central Daylight Time),619794.8000000119,A,do,I,o,187,1,716.1000000238419,619078.6999999881,8047,WL,B,3.0
5,6.131999969482422,learn,60000.0,Tue May 13 2025 13:37:26 GMT-0500 (Central Daylight Time),620294.6999999881,A,doo,I,o,491,1,1216.0,619078.6999999881,8047,WL,B,3.0
5,6.414999961853027,learn,60000.0,Tue May 13 2025 13:37:26 GMT-0500 (Central Daylight Time),620577.8999999762,A,door,I,r,271,1,1499.199999988079,619078.6999999881,8047,WL,B,3.0
5,6.7149999141693115,learn,60000.0,Tue May 13 2025 13:37:26 GMT-0500 (Central Daylight Time),620877.8999999762,A,doorenter,I,enter,284,1,1799.199999988079,619078.6999999881,8047,WL,B,3.0
5,6.997999906539917,learn,60000.0,Tue May 13 2025 13:37:26 GMT-0500 (Central Daylight Time),621161.0,A,a,I,a,263,1,282.60000002384186,620878.3999999762,8047,WL,B,4.0
5,7.31499981880188,learn,60000.0,Tue May 13 2025 13:37:26 GMT-0500 (Central Daylight Time),621477.6999999881,A,ar,I,r,300,1,599.3000000119209,620878.3999999762,8047,WL,B,4.0
5,8.263999938964844,learn,60000.0,Tue May 13 2025 13:37:26 GMT-0500 (Central Daylight Time),622427.1999999881,A,arm,I,m,936,1,1548.800000011921,620878.3999999762,8047,WL,B,4.0
5,8.780999898910522,learn,60000.0,Tue May 13 2025 13:37:26 GMT-0500 (Central Daylight Time),622944.0,A,armenter,I,enter,498,1,2065.600000023842,620878.3999999762,8047,WL,B,4.0
5,10.013999938964844,learn,60000.0,Tue May 13 2025 13:37:26 GMT-0500 (Central Daylight Time),624176.8999999762,A,w,I,w,1214,1,1232.699999988079,622944.1999999881,8047,WL,B,5.0
5,10.27999997138977,learn,60000.0,Tue May 13 2025 13:37:26 GMT-0500 (Central Daylight Time),624443.1000000238,A,wi,I,i,260,1,1498.9000000357628,622944.1999999881,8047,WL,B,5.0
5,10.562999963760376,learn,60000.0,Tue May 13 2025 13:37:26 GMT-0500 (Central Daylight Time),624726.6000000238,A,wif,I,f,274,1,1782.4000000357628,622944.1999999881,8047,WL,B,5.0
5,10.812999963760376,learn,60000.0,Tue May 13 2025 13:37:26 GMT-0500 (Central Daylight Time),624976.6000000238,A,wife,I,e,238,1,2032.4000000357628,622944.1999999881,8047,WL,B,5.0
5,11.323999881744385,learn,60000.0,Tue May 13 2025 13:37:26 GMT-0500 (Central Daylight Time),625487.1000000238,A,wifeenter,I,enter,506,1,2542.900000035763,622944.1999999881,8047,WL,B,5.0
5,11.562999963760376,learn,60000.0,Tue May 13 2025 13:37:26 GMT-0500 (Central Daylight Time),625726.1999999881,A,s,I,s,230,1,238.80000001192093,625487.3999999762,8047,WL,B,6.0
5,11.846999883651733,learn,60000.0,Tue May 13 2025 13:37:26 GMT-0500 (Central Daylight Time),626009.6999999881,A,st,I,t,271,1,522.3000000119209,625487.3999999762,8047,WL,B,6.0
5,12.046000003814697,learn,60000.0,Tue May 13 2025 13:37:26 GMT-0500 (Central Daylight Time),626209.3999999762,A,sta,I,a,180,1,722.0,625487.3999999762,8047,WL,B,6.0
5,12.428999900817871,learn,60000.0,Tue May 13 2025 13:37:26 GMT-0500 (Central Daylight Time),626592.6999999881,A,star,I,r,364,1,1105.300000011921,625487.3999999762,8047,WL,B,6.0
5,13.245999813079834,learn,60000.0,Tue May 13 2025 13:37:26 GMT-0500 (Central Daylight Time),627409.1000000238,A,starenter,I,enter,797,1,1921.7000000476837,625487.3999999762,8047,WL,B,6.0
5,14.244999885559082,learn,60000.0,Tue May 13 2025 13:37:26 GMT-0500 (Central Daylight Time),628408.6000000238,A,p,I,p,980,1,999.2000000476837,627409.3999999762,8047,WL,B,7.0
5,14.478999853134155,learn,60000.0,Tue May 13 2025 13:37:26 GMT-0500 (Central Daylight Time),628642.0,A,pu,I,u,229,1,1232.6000000238419,627409.3999999762,8047,WL,B,7.0
5,14.794999837875366,learn,60000.0,Tue May 13 2025 13:37:26 GMT-0500 (Central Daylight Time),628958.6000000238,A,pup,I,p,299,1,1549.2000000476837,627409.3999999762,8047,WL,B,7.0
5,15.02899980545044,learn,60000.0,Tue May 13 2025 13:37:26 GMT-0500 (Central Daylight Time),629191.8000000119,A,pupi,I,i,223,1,1782.4000000357628,627409.3999999762,8047,WL,B,7.0
5,15.294999837875366,learn,60000.0,Tue May 13 2025 13:37:26 GMT-0500 (Central Daylight Time),629458.3999999762,A,pupil,I,l,262,1,2049.0,627409.3999999762,8047,WL,B,7.0
5,15.944999933242798,learn,60000.0,Tue May 13 2025 13:37:26 GMT-0500 (Central Daylight Time),630108.3999999762,A,pupilenter,I,enter,635,1,2699.0,627409.3999999762,8047,WL,B,7.0
5,16.744999885559082,learn,60000.0,Tue May 13 2025 13:37:26 GMT-0500 (Central Daylight Time),630908.1000000238,A,w,I,w,793,1,799.4000000357628,630108.6999999881,8047,WL,B,8.0
5,16.878000020980835,learn,60000.0,Tue May 13 2025 13:37:26 GMT-0500 (Central Daylight Time),631041.3999999762,A,wi,I,i,121,1,932.6999999880791,630108.6999999881,8047,WL,B,8.0
5,17.07799983024597,learn,60000.0,Tue May 13 2025 13:37:26 GMT-0500 (Central Daylight Time),631241.3000000119,A,win,I,n,180,1,1132.6000000238419,630108.6999999881,8047,WL,B,8.0
5,17.17799997329712,learn,60000.0,Tue May 13 2025 13:37:26 GMT-0500 (Central Daylight Time),631341.1000000238,A,wind,I,d,92,1,1232.4000000357628,630108.6999999881,8047,WL,B,8.0
5,17.360999822616577,learn,60000.0,Tue May 13 2025 13:37:26 GMT-0500 (Central Daylight Time),631524.3999999762,A,windo,I,o,176,1,1415.699999988079,630108.6999999881,8047,WL,B,8.0
5,17.644999980926514,learn,60000.0,Tue May 13 2025 13:37:26 GMT-0500 (Central Daylight Time),631807.6999999881,A,window,I,w,273,1,1699.0,630108.6999999881,8047,WL,B,8.0
5,18.227999925613403,learn,60000.0,Tue May 13 2025 13:37:26 GMT-0500 (Central Daylight Time),632390.8000000119,A,windowenter,I,enter,566,1,2282.100000023842,630108.6999999881,8047,WL,B,8.0
5,21.97699999809265,learn,60000.0,Tue May 13 2025 13:37:26 GMT-0500 (Central Daylight Time),636139.8999999762,A,c,I,c,3734,1,3748.7999999523163,632391.1000000238,8047,WL,B,9.0
5,22.14299988746643,learn,60000.0,Tue May 13 2025 13:37:26 GMT-0500 (Central Daylight Time),636306.3999999762,A,ca,I,a,153,1,3915.2999999523163,632391.1000000238,8047,WL,B,9.0
5,22.625999927520752,learn,60000.0,Tue May 13 2025 13:37:26 GMT-0500 (Central Daylight Time),636789.6000000238,A,cab,I,b,475,1,4398.5,632391.1000000238,8047,WL,B,9.0
5,22.82699990272522,learn,60000.0,Tue May 13 2025 13:37:26 GMT-0500 (Central Daylight Time),636989.6999999881,A,cabi,I,i,184,1,4598.599999964237,632391.1000000238,8047,WL,B,9.0
5,23.292999982833862,learn,60000.0,Tue May 13 2025 13:37:26 GMT-0500 (Central Daylight Time),637455.8999999762,A,cabin,I,n,456,1,5064.799999952316,632391.1000000238,8047,WL,B,9.0
5,24.108999967575073,learn,60000.0,Tue May 13 2025 13:37:26 GMT-0500 (Central Daylight Time),638272.5,A,cabinenter,I,enter,797,1,5881.399999976158,632391.1000000238,8047,WL,B,9.0
5,24.526000022888184,learn,60000.0,Tue May 13 2025 13:37:26 GMT-0500 (Central Daylight Time),638689.1000000238,A,l,I,l,405,1,416.30000001192093,638272.8000000119,8047,WL,B,10.0
5,24.691999912261963,learn,60000.0,Tue May 13 2025 13:37:26 GMT-0500 (Central Daylight Time),638855.5,A,la,I,a,156,1,582.6999999880791,638272.8000000119,8047,WL,B,10.0
5,24.875999927520752,learn,60000.0,Tue May 13 2025 13:37:26 GMT-0500 (Central Daylight Time),639038.8999999762,A,lak,I,k,174,1,766.0999999642372,638272.8000000119,8047,WL,B,10.0
5,25.108999967575073,learn,60000.0,Tue May 13 2025 13:37:26 GMT-0500 (Central Daylight Time),639272.1000000238,A,lake,I,e,222,1,999.3000000119209,638272.8000000119,8047,WL,B,10.0
5,25.45899987220764,learn,60000.0,Tue May 13 2025 13:37:26 GMT-0500 (Central Daylight Time),639622.0,A,lakeenter,I,enter,341,1,1349.199999988079,638272.8000000119,8047,WL,B,10.0
5,26.29199981689453,learn,60000.0,Tue May 13 2025 13:37:26 GMT-0500 (Central Daylight Time),640455.1000000238,A,p,I,p,816,1,832.8000000119209,639622.3000000119,8047,WL,B,11.0
5,26.508999824523926,learn,60000.0,Tue May 13 2025 13:37:26 GMT-0500 (Central Daylight Time),640671.8000000119,A,pi,I,i,198,1,1049.5,639622.3000000119,8047,WL,B,11.0
5,26.774999856948853,learn,60000.0,Tue May 13 2025 13:37:26 GMT-0500 (Central Daylight Time),640938.6000000238,A,pip,I,p,254,1,1316.300000011921,639622.3000000119,8047,WL,B,11.0
5,27.54099988937378,learn,60000.0,Tue May 13 2025 13:37:26 GMT-0500 (Central Daylight Time),641704.6000000238,A,pipe,I,e,747,1,2082.300000011921,639622.3000000119,8047,WL,B,11.0
5,28.70799994468689,learn,60000.0,Tue May 13 2025 13:37:26 GMT-0500 (Central Daylight Time),642871.0,A,pipeenter,I,enter,1156,1,3248.699999988079,639622.3000000119,8047,WL,B,11.0
5,29.424000024795532,learn,60000.0,Tue May 13 2025 13:37:26 GMT-0500 (Central Daylight Time),643587.1000000238,A,f,I,f,711,1,715.8000000119209,642871.3000000119,8047,WL,B,12.0
5,29.62399983406067,learn,60000.0,Tue May 13 2025 13:37:26 GMT-0500 (Central Daylight Time),643787.3999999762,A,fi,I,i,186,1,916.0999999642372,642871.3000000119,8047,WL,B,12.0
5,29.806999921798706,learn,60000.0,Tue May 13 2025 13:37:26 GMT-0500 (Central Daylight Time),643970.5,A,fir,I,r,170,1,1099.199999988079,642871.3000000119,8047,WL,B,12.0
5,30.256999969482422,learn,60000.0,Tue May 13 2025 13:37:26 GMT-0500 (Central Daylight Time),644420.5,A,fire,I,e,435,1,1549.199999988079,642871.3000000119,8047,WL,B,12.0
5,31.256999969482422,learn,60000.0,Tue May 13 2025 13:37:26 GMT-0500 (Central Daylight Time),645420.1999999881,A,fireenter,I,enter,985,1,2548.899999976158,642871.3000000119,8047,WL,B,12.0
5,33.305999994277954,learn,60000.0,Tue May 13 2025 13:37:26 GMT-0500 (Central Daylight Time),647469.3999999762,A,c,I,c,2033,1,2048.899999976158,645420.5,8047,WL,B,13.0
5,33.49000000953674,learn,60000.0,Tue May 13 2025 13:37:26 GMT-0500 (Central Daylight Time),647652.8000000119,A,cl,I,l,177,1,2232.300000011921,645420.5,8047,WL,B,13.0
5,33.805999994277954,learn,60000.0,Tue May 13 2025 13:37:26 GMT-0500 (Central Daylight Time),647969.1999999881,A,clo,I,o,297,1,2548.699999988079,645420.5,8047,WL,B,13.0
5,34.039000034332275,learn,60000.0,Tue May 13 2025 13:37:26 GMT-0500 (Central Daylight Time),648202.3000000119,A,cloc,I,c,228,1,2781.800000011921,645420.5,8047,WL,B,13.0
5,34.901000022888184,learn,60000.0,Tue May 13 2025 13:37:26 GMT-0500 (Central Daylight Time),649063.6000000238,A,clock,I,k,856,1,3643.100000023842,645420.5,8047,WL,B,13.0
5,36.621999979019165,learn,60000.0,Tue May 13 2025 13:37:26 GMT-0500 (Central Daylight Time),650785.1000000238,A,clockc,I,c,1701,1,5364.600000023842,645420.5,8047,WL,B,13.0
5,36.73899984359741,learn,60000.0,Tue May 13 2025 13:37:26 GMT-0500 (Central Daylight Time),650901.6999999881,A,clockci,I,i,100,1,5481.199999988079,645420.5,8047,WL,B,13.0
5,36.98799991607666,learn,60000.0,Tue May 13 2025 13:37:26 GMT-0500 (Central Daylight Time),651151.6999999881,A,clockcit,I,t,232,1,5731.199999988079,645420.5,8047,WL,B,13.0
5,37.187999963760376,learn,60000.0,Tue May 13 2025 13:37:26 GMT-0500 (Central Daylight Time),651351.5,A,clockcity,I,y,190,1,5931.0,645420.5,8047,WL,B,13.0
5,37.97199988365173,learn,60000.0,Tue May 13 2025 13:37:26 GMT-0500 (Central Daylight Time),652134.8000000119,A,clockcit,I,backspace,774,1,6714.300000011921,645420.5,8047,WL,B,13.0
5,38.187999963760376,learn,60000.0,Tue May 13 2025 13:37:26 GMT-0500 (Central Daylight Time),652351.1999999881,A,clockci,I,backspace,198,1,6930.699999988079,645420.5,8047,WL,B,13.0
5,38.355000019073486,learn,60000.0,Tue May 13 2025 13:37:26 GMT-0500 (Central Daylight Time),652518.0,A,clockc,I,backspace,150,1,7097.5,645420.5,8047,WL,B,13.0
5,38.520999908447266,learn,60000.0,Tue May 13 2025 13:37:26 GMT-0500 (Central Daylight Time),652684.5,A,clock,I,backspace,160,1,7264.0,645420.5,8047,WL,B,13.0
5,39.353999853134155,learn,60000.0,Tue May 13 2025 13:37:26 GMT-0500 (Central Daylight Time),653517.5,A,clockenter,I,enter,825,1,8097.0,645420.5,8047,WL,B,13.0
5,39.9539999961853,learn,60000.0,Tue May 13 2025 13:37:26 GMT-0500 (Central Daylight Time),654117.3000000119,A,c,I,c,584,1,599.3000000119209,653518.0,8047,WL,B,14.0
5,40.15399980545044,learn,60000.0,Tue May 13 2025 13:37:26 GMT-0500 (Central Daylight Time),654317.1999999881,A,ci,I,i,192,1,799.1999999880791,653518.0,8047,WL,B,14.0
5,40.38699984550476,learn,60000.0,Tue May 13 2025 13:37:26 GMT-0500 (Central Daylight Time),654550.5,A,cit,I,t,224,1,1032.5,653518.0,8047,WL,B,14.0
5,40.603999853134155,learn,60000.0,Tue May 13 2025 13:37:26 GMT-0500 (Central Daylight Time),654767.1999999881,A,city,I,y,207,1,1249.199999988079,653518.0,8047,WL,B,14.0
5,41.120999813079834,learn,60000.0,Tue May 13 2025 13:37:26 GMT-0500 (Central Daylight Time),655284.0,A,cityenter,I,enter,502,1,1766.0,653518.0,8047,WL,B,14.0
5,44.668999910354614,learn,60000.0,Tue May 13 2025 13:37:26 GMT-0500 (Central Daylight Time),658832.5,A,l,I,l,3538,1,3548.300000011921,655284.1999999881,8047,WL,B,15.0
5,44.85199999809265,learn,60000.0,Tue May 13 2025 13:37:26 GMT-0500 (Central Daylight Time),659015.8999999762,A,la,I,a,165,1,3731.699999988079,655284.1999999881,8047,WL,B,15.0
5,44.9689998626709,learn,60000.0,Tue May 13 2025 13:37:26 GMT-0500 (Central Daylight Time),659132.6999999881,A,lak,I,k,101,1,3848.5,655284.1999999881,8047,WL,B,15.0
5,45.11899995803833,learn,60000.0,Tue May 13 2025 13:37:26 GMT-0500 (Central Daylight Time),659282.5,A,lake,I,e,129,1,3998.300000011921,655284.1999999881,8047,WL,B,15.0
5,45.401999950408936,learn,60000.0,Tue May 13 2025 13:37:26 GMT-0500 (Central Daylight Time),659565.6999999881,A,lakeenter,I,enter,266,1,4281.5,655284.1999999881,8047,WL,B,15.0
6,0.9500000476837158,distr,59049.999952316284,Tue May 13 2025 13:37:26 GMT-0500 (Central Daylight Time),732126.5,B,b,I,b,933,1,949.8000000119209,731176.6999999881,8047,WL,B,1.0
6,1.1170001029968262,distr,58882.999897003174,Tue May 13 2025 13:37:26 GMT-0500 (Central Daylight Time),732293.0,B,ba,I,a,150,1,1116.300000011921,731176.6999999881,8047,WL,B,1.0
6,1.3500001430511475,distr,58649.99985694885,Tue May 13 2025 13:37:26 GMT-0500 (Central Daylight Time),732526.1000000238,B,bab,I,b,217,1,1349.4000000357628,731176.6999999881,8047,WL,B,1.0
6,1.7330000400543213,distr,58266.99995994568,Tue May 13 2025 13:37:26 GMT-0500 (Central Daylight Time),732909.5,B,baby,I,y,367,1,1732.800000011921,731176.6999999881,8047,WL,B,1.0
6,2.118000030517578,distr,57881.99996948242,Tue May 13 2025 13:37:26 GMT-0500 (Central Daylight Time),733293.8000000119,B,babyenter,I,enter,367,1,2117.100000023842,731176.6999999881,8047,WL,B,1.0
6,2.3330001831054688,distr,57666.99981689453,Tue May 13 2025 13:37:26 GMT-0500 (Central Daylight Time),733508.8999999762,B,d,I,d,207,1,214.89999997615814,733294.0,8047,WL,B,2.0
6,2.565999984741211,distr,57434.00001525879,Tue May 13 2025 13:37:26 GMT-0500 (Central Daylight Time),733742.1999999881,B,dr,I,r,224,1,448.19999998807907,733294.0,8047,WL,B,2.0
6,2.6660001277923584,distr,57333.99987220764,Tue May 13 2025 13:37:26 GMT-0500 (Central Daylight Time),733842.1999999881,B,dre,I,e,87,1,548.1999999880791,733294.0,8047,WL,B,2.0
6,3.0160000324249268,distr,56983.99996757507,Tue May 13 2025 13:37:26 GMT-0500 (Central Daylight Time),734192.3000000119,B,dres,I,s,331,1,898.3000000119209,733294.0,8047,WL,B,2.0
6,3.199000120162964,distr,56800.999879837036,Tue May 13 2025 13:37:26 GMT-0500 (Central Daylight Time),734375.5,B,dress,I,s,173,1,1081.5,733294.0,8047,WL,B,2.0
6,3.5329999923706055,distr,56467.000007629395,Tue May 13 2025 13:37:26 GMT-0500 (Central Daylight Time),734708.8999999762,B,dressenter,I,enter,326,1,1414.8999999761581,733294.0,8047,WL,B,2.0
6,3.9160001277923584,distr,56083.99987220764,Tue May 13 2025 13:37:26 GMT-0500 (Central Daylight Time),735092.0,B,s,I,s,369,1,382.89999997615814,734709.1000000238,8047,WL,B,3.0
6,4.199000120162964,distr,55800.999879837036,Tue May 13 2025 13:37:26 GMT-0500 (Central Daylight Time),735375.3000000119,B,st,I,t,273,1,666.1999999880791,734709.1000000238,8047,WL,B,3.0
6,5.016000032424927,distr,54983.99996757507,Tue May 13 2025 13:37:26 GMT-0500 (Central Daylight Time),736191.6000000238,B,ste,I,e,798,1,1482.5,734709.1000000238,8047,WL,B,3.0
6,5.249000072479248,distr,54750.99992752075,Tue May 13 2025 13:37:26 GMT-0500 (Central Daylight Time),736424.8999999762,B,stea,I,a,222,1,1715.7999999523163,734709.1000000238,8047,WL,B,3.0
6,5.598999977111816,distr,54401.00002288818,Tue May 13 2025 13:37:26 GMT-0500 (Central Daylight Time),736774.8000000119,B,steam,I,m,341,1,2065.699999988079,734709.1000000238,8047,WL,B,3.0
6,5.982000112533569,distr,54017.99988746643,Tue May 13 2025 13:37:26 GMT-0500 (Central Daylight Time),737158.0,B,steamenter,I,enter,375,1,2448.899999976158,734709.1000000238,8047,WL,B,3.0
6,6.398000001907349,distr,53601.99999809265,Tue May 13 2025 13:37:26 GMT-0500 (Central Daylight Time),737574.3999999762,B,b,I,b,400,1,416.0999999642372,737158.3000000119,8047,WL,B,4.0
6,6.697999954223633,distr,53302.00004577637,Tue May 13 2025 13:37:26 GMT-0500 (Central Daylight Time),737874.3000000119,B,ba,I,a,279,1,716.0,737158.3000000119,8047,WL,B,4.0
6,7.215000152587891,distr,52784.99984741211,Tue May 13 2025 13:37:26 GMT-0500 (Central Daylight Time),738390.8999999762,B,bar,I,r,499,1,1232.5999999642372,737158.3000000119,8047,WL,B,4.0
6,7.565000057220459,distr,52434.99994277954,Tue May 13 2025 13:37:26 GMT-0500 (Central Daylight Time),738740.8999999762,B,barenter,I,enter,343,1,1582.5999999642372,737158.3000000119,8047,WL,B,4.0
6,8.248000144958496,distr,51751.999855041504,Tue May 13 2025 13:37:26 GMT-0500 (Central Daylight Time),739424.1000000238,B,l,I,l,672,1,682.9000000357628,738741.1999999881,8047,WL,B,5.0
6,8.481000185012817,distr,51518.99981498718,Tue May 13 2025 13:37:26 GMT-0500 (Central Daylight Time),739657.0,B,li,I,i,221,1,915.8000000119209,738741.1999999881,8047,WL,B,5.0
6,8.814000129699707,distr,51185.99987030029,Tue May 13 2025 13:37:26 GMT-0500 (Central Daylight Time),739990.3000000119,B,lip,I,p,325,1,1249.1000000238419,738741.1999999881,8047,WL,B,5.0
6,9.19700002670288,distr,50802.99997329712,Tue May 13 2025 13:37:26 GMT-0500 (Central Daylight Time),740373.5,B,lipenter,I,enter,375,1,1632.300000011921,738741.1999999881,8047,WL,B,5.0
6,12.131999969482422,distr,47868.00003051758,Tue May 13 2025 13:37:26 GMT-0500 (Central Daylight Time),743308.1000000238,B,a,I,a,2922,1,2934.400000035763,740373.6999999881,8047,WL,B,6.0
6,12.312999963760376,distr,47687.000036239624,Tue May 13 2025 13:37:26 GMT-0500 (Central Daylight Time),743489.3000000119,B,ar,I,r,169,1,3115.600000023842,740373.6999999881,8047,WL,B,6.0
6,12.513000011444092,distr,47486.99998855591,Tue May 13 2025 13:37:26 GMT-0500 (Central Daylight Time),743689.3000000119,B,arm,I,m,180,1,3315.600000023842,740373.6999999881,8047,WL,B,6.0
6,12.830000162124634,distr,47169.999837875366,Tue May 13 2025 13:37:26 GMT-0500 (Central Daylight Time),744005.8999999762,B,army,I,y,308,1,3632.199999988079,740373.6999999881,8047,WL,B,6.0
6,13.163000106811523,distr,46836.99989318848,Tue May 13 2025 13:37:26 GMT-0500 (Central Daylight Time),744338.8000000119,B,armyenter,I,enter,328,1,3965.100000023842,740373.6999999881,8047,WL,B,6.0
6,15.345999956130981,distr,44654.00004386902,Tue May 13 2025 13:37:26 GMT-0500 (Central Daylight Time),746521.6999999881,B,c,I,c,2171,1,2182.599999964237,744339.1000000238,8047,WL,B,7.0
6,15.529000043869019,distr,44470.99995613098,Tue May 13 2025 13:37:26 GMT-0500 (Central Daylight Time),746705.0,B,co,I,o,172,1,2365.899999976158,744339.1000000238,8047,WL,B,7.0
6,15.712000131607056,distr,44287.999868392944,Tue May 13 2025 13:37:26 GMT-0500 (Central Daylight Time),746888.3000000119,B,coi,I,i,164,1,2549.199999988079,744339.1000000238,8047,WL,B,7.0
6,15.962000131607056,distr,44037.999868392944,Tue May 13 2025 13:37:26 GMT-0500 (Central Daylight Time),747138.1000000238,B,coin,I,n,237,1,2799.0,744339.1000000238,8047,WL,B,7.0
6,16.379000186920166,distr,43620.999813079834,Tue May 13 2025 13:37:26 GMT-0500 (Central Daylight Time),747554.6999999881,B,coinenter,I,enter,395,1,3215.599999964237,744339.1000000238,8047,WL,B,7.0
6,21.294000148773193,distr,38705.99985122681,Tue May 13 2025 13:37:26 GMT-0500 (Central Daylight Time),752470.0,B,v,I,v,4907,1,4915.0,747555.0,8047,WL,B,8.0
6,21.47699999809265,distr,38523.00000190735,Tue May 13 2025 13:37:26 GMT-0500 (Central Daylight Time),752652.8000000119,B,vi,I,i,175,1,5097.800000011921,747555.0,8047,WL,B,8.0
6,21.74399995803833,distr,38256.00004196167,Tue May 13 2025 13:37:26 GMT-0500 (Central Daylight Time),752919.6999999881,B,vil,I,l,256,1,5364.699999988079,747555.0,8047,WL,B,8.0
6,21.89400005340576,distr,38105.99994659424,Tue May 13 2025 13:37:26 GMT-0500 (Central Daylight Time),753069.6000000238,B,vill,I,l,141,1,5514.600000023842,747555.0,8047,WL,B,8.0
6,21.99399995803833,distr,38006.00004196167,Tue May 13 2025 13:37:26 GMT-0500 (Central Daylight Time),753169.8000000119,B,villa,I,a,88,1,5614.800000011921,747555.0,8047,WL,B,8.0
6,22.193000078201294,distr,37806.999921798706,Tue May 13 2025 13:37:26 GMT-0500 (Central Daylight Time),753369.5,B,villag,I,g,188,1,5814.5,747555.0,8047,WL,B,8.0
6,22.39300012588501,distr,37606.99987411499,Tue May 13 2025 13:37:26 GMT-0500 (Central Daylight Time),753569.5,B,village,I,e,179,1,6014.5,747555.0,8047,WL,B,8.0
6,22.8270001411438,distr,37172.9998588562,Tue May 13 2025 13:37:26 GMT-0500 (Central Daylight Time),754002.6000000238,B,villageenter,I,enter,428,1,6447.600000023842,747555.0,8047,WL,B,8.0
6,42.88700008392334,distr,17112.99991607666,Tue May 13 2025 13:37:26 GMT-0500 (Central Daylight Time),774063.1999999881,B,b,I,b,20051,1,20060.30000001192,754002.8999999762,8047,WL,B,9.0
6,43.170000076293945,distr,16829.999923706055,Tue May 13 2025 13:37:26 GMT-0500 (Central Daylight Time),774346.5,B,be,I,e,278,1,20343.600000023842,754002.8999999762,8047,WL,B,9.0
6,43.32000017166138,distr,16679.999828338623,Tue May 13 2025 13:37:26 GMT-0500 (Central Daylight Time),774496.1999999881,B,bea,I,a,139,1,20493.30000001192,754002.8999999762,8047,WL,B,9.0
6,43.63700008392334,distr,16362.99991607666,Tue May 13 2025 13:37:26 GMT-0500 (Central Daylight Time),774813.0,B,beac,I,c,301,1,20810.100000023842,754002.8999999762,8047,WL,B,9.0
6,43.78700017929077,distr,16212.999820709229,Tue May 13 2025 13:37:26 GMT-0500 (Central Daylight Time),774962.6000000238,B,beach,I,h,144,1,20959.700000047684,754002.8999999762,8047,WL,B,9.0
6,44.170000076293945,distr,15829.999923706055,Tue May 13 2025 13:37:26 GMT-0500 (Central Daylight Time),775346.0,B,beachenter,I,enter,370,1,21343.100000023842,754002.8999999762,8047,WL,B,9.0
6,56.682000160217285,distr,3317.999839782715,Tue May 13 2025 13:37:26 GMT-0500 (Central Daylight Time),787858.6000000238,B,p,I,p,12508,1,12512.300000011921,775346.3000000119,8047,WL,B,10.0
6,56.89900016784668,distr,3100.9998321533203,Tue May 13 2025 13:37:26 GMT-0500 (Central Daylight Time),788075.1999999881,B,pa,I,a,210,1,12728.899999976158,775346.3000000119,8047,WL,B,10.0
6,57.49900007247925,distr,2500.999927520752,Tue May 13 2025 13:37:26 GMT-0500 (Central Daylight Time),788675.0,B,pal,I,l,594,1,13328.699999988079,775346.3000000119,8047,WL,B,10.0
6,57.78200006484985,distr,2217.9999351501465,Tue May 13 2025 13:37:26 GMT-0500 (Central Daylight Time),788958.5,B,pala,I,a,266,1,13612.199999988079,775346.3000000119,8047,WL,B,10.0
6,58.04900002479553,distr,1950.9999752044678,Tue May 13 2025 13:37:26 GMT-0500 (Central Daylight Time),789225.3000000119,B,palac,I,c,255,1,13879.0,775346.3000000119,8047,WL,B,10.0
6,58.33200001716614,distr,1667.9999828338623,Tue May 13 2025 13:37:26 GMT-0500 (Central Daylight Time),789508.1999999881,B,palace,I,e,276,1,14161.899999976158,775346.3000000119,8047,WL,B,10.0
6,58.63199996948242,distr,1368.0000305175781,Tue May 13 2025 13:37:26 GMT-0500 (Central Daylight Time),789808.1999999881,B,palaceenter,I,enter,281,1,14461.899999976158,775346.3000000119,8047,WL,B,10.0
6,60.015000104904175,distr,-15.000104904174805,Tue May 13 2025 13:37:26 GMT-0500 (Central Daylight Time),791191.3000000119,B,None,I,None,1378,1,1382.699999988079,789808.6000000238,8047,WL,B,11.0
7,1.183000087738037,immed,58816.99991226196,Tue May 13 2025 13:37:26 GMT-0500 (Central Daylight Time),811751.3999999762,A,g,I,g,1166,1,1183.0999999642372,810568.3000000119,8047,WL,B,1.0
7,1.383000135421753,immed,58616.99986457825,Tue May 13 2025 13:37:26 GMT-0500 (Central Daylight Time),811951.1000000238,A,gr,I,r,182,1,1382.800000011921,810568.3000000119,8047,WL,B,1.0
7,1.4830000400543213,immed,58516.99995994568,Tue May 13 2025 13:37:26 GMT-0500 (Central Daylight Time),812050.8999999762,A,gra,I,a,94,1,1482.5999999642372,810568.3000000119,8047,WL,B,1.0
7,1.7830002307891846,immed,58216.999769210815,Tue May 13 2025 13:37:26 GMT-0500 (Central Daylight Time),812351.0,A,gras,I,s,282,1,1782.699999988079,810568.3000000119,8047,WL,B,1.0
7,1.9830000400543213,immed,58016.99995994568,Tue May 13 2025 13:37:26 GMT-0500 (Central Daylight Time),812550.8999999762,A,grass,I,s,183,1,1982.5999999642372,810568.3000000119,8047,WL,B,1.0
7,2.4660000801086426,immed,57533.99991989136,Tue May 13 2025 13:37:26 GMT-0500 (Central Daylight Time),813034.1000000238,A,grassenter,I,enter,470,1,2465.800000011921,810568.3000000119,8047,WL,B,1.0
7,3.4260001182556152,immed,56573.999881744385,Tue May 13 2025 13:37:26 GMT-0500 (Central Daylight Time),813994.0,A,s,I,s,955,1,959.5,813034.5,8047,WL,B,2.0
7,3.616000175476074,immed,56383.999824523926,Tue May 13 2025 13:37:26 GMT-0500 (Central Daylight Time),814183.8000000119,A,st,I,t,178,1,1149.300000011921,813034.5,8047,WL,B,2.0
7,3.8320000171661377,immed,56167.99998283386,Tue May 13 2025 13:37:26 GMT-0500 (Central Daylight Time),814400.5,A,str,I,r,198,1,1366.0,813034.5,8047,WL,B,2.0
7,4.049000024795532,immed,55950.99997520447,Tue May 13 2025 13:37:26 GMT-0500 (Central Daylight Time),814616.8999999762,A,stre,I,e,197,1,1582.3999999761581,813034.5,8047,WL,B,2.0
7,4.199000120162964,immed,55800.999879837036,Tue May 13 2025 13:37:26 GMT-0500 (Central Daylight Time),814767.1000000238,A,stree,I,e,140,1,1732.6000000238419,813034.5,8047,WL,B,2.0
7,4.482000112533569,immed,55517.99988746643,Tue May 13 2025 13:37:26 GMT-0500 (Central Daylight Time),815050.3999999762,A,street,I,t,278,1,2015.8999999761581,813034.5,8047,WL,B,2.0
7,4.8490002155303955,immed,55150.999784469604,Tue May 13 2025 13:37:26 GMT-0500 (Central Daylight Time),815416.8999999762,A,streetenter,I,enter,347,1,2382.399999976158,813034.5,8047,WL,B,2.0
7,5.648000001907349,immed,54351.99999809265,Tue May 13 2025 13:37:26 GMT-0500 (Central Daylight Time),816216.6000000238,A,d,I,d,781,1,799.5,815417.1000000238,8047,WL,B,3.0
7,5.865000009536743,immed,54134.99999046326,Tue May 13 2025 13:37:26 GMT-0500 (Central Daylight Time),816433.1000000238,A,do,I,o,205,1,1016.0,815417.1000000238,8047,WL,B,3.0
7,6.0320000648498535,immed,53967.99993515015,Tue May 13 2025 13:37:26 GMT-0500 (Central Daylight Time),816600.0,A,doo,I,o,148,1,1182.8999999761581,815417.1000000238,8047,WL,B,3.0
7,6.3480000495910645,immed,53651.999950408936,Tue May 13 2025 13:37:26 GMT-0500 (Central Daylight Time),816916.3000000119,A,door,I,r,301,1,1499.199999988079,815417.1000000238,8047,WL,B,3.0
7,6.5980000495910645,immed,53401.999950408936,Tue May 13 2025 13:37:26 GMT-0500 (Central Daylight Time),817166.1000000238,A,doorenter,I,enter,241,1,1749.0,815417.1000000238,8047,WL,B,3.0
7,7.648000001907349,immed,52351.99999809265,Tue May 13 2025 13:37:26 GMT-0500 (Central Daylight Time),818216.1000000238,A,w,I,w,1039,1,1049.7000000476837,817166.3999999762,8047,WL,B,4.0
7,7.797000169754028,immed,52202.99983024597,Tue May 13 2025 13:37:26 GMT-0500 (Central Daylight Time),818365.6999999881,A,wi,I,i,133,1,1199.300000011921,817166.3999999762,8047,WL,B,4.0
7,7.930999994277954,immed,52069.000005722046,Tue May 13 2025 13:37:26 GMT-0500 (Central Daylight Time),818499.8000000119,A,wif,I,f,128,1,1333.4000000357628,817166.3999999762,8047,WL,B,4.0
7,8.180999994277954,immed,51819.000005722046,Tue May 13 2025 13:37:26 GMT-0500 (Central Daylight Time),818749.0,A,wife,I,e,233,1,1582.6000000238419,817166.3999999762,8047,WL,B,4.0
7,8.514000177383423,immed,51485.99982261658,Tue May 13 2025 13:37:26 GMT-0500 (Central Daylight Time),819082.3000000119,A,wifeenter,I,enter,312,1,1915.9000000357628,817166.3999999762,8047,WL,B,4.0
7,9.064000129699707,immed,50935.99987030029,Tue May 13 2025 13:37:26 GMT-0500 (Central Daylight Time),819632.3000000119,A,a,I,a,540,1,549.6999999880791,819082.6000000238,8047,WL,B,5.0
7,9.380000114440918,immed,50619.99988555908,Tue May 13 2025 13:37:26 GMT-0500 (Central Daylight Time),819948.8000000119,A,ar,I,r,301,1,866.1999999880791,819082.6000000238,8047,WL,B,5.0
7,9.864000082015991,immed,50135.99991798401,Tue May 13 2025 13:37:26 GMT-0500 (Central Daylight Time),820432.0,A,arm,I,m,473,1,1349.3999999761581,819082.6000000238,8047,WL,B,5.0
7,10.514000177383423,immed,49485.99982261658,Tue May 13 2025 13:37:26 GMT-0500 (Central Daylight Time),821081.8999999762,A,armenter,I,enter,630,1,1999.2999999523163,819082.6000000238,8047,WL,B,5.0
7,11.59600019454956,immed,48403.99980545044,Tue May 13 2025 13:37:26 GMT-0500 (Central Daylight Time),822164.3999999762,A,p,I,p,1068,1,1082.0999999642372,821082.3000000119,8047,WL,B,6.0
7,12.063000202178955,immed,47936.999797821045,Tue May 13 2025 13:37:26 GMT-0500 (Central Daylight Time),822631.5,A,pu,I,u,449,1,1549.199999988079,821082.3000000119,8047,WL,B,6.0
7,12.529000043869019,immed,47470.99995613098,Tue May 13 2025 13:37:26 GMT-0500 (Central Daylight Time),823097.8000000119,A,pup,I,p,446,1,2015.5,821082.3000000119,8047,WL,B,6.0
7,12.813000202178955,immed,47186.999797821045,Tue May 13 2025 13:37:26 GMT-0500 (Central Daylight Time),823381.0,A,pupi,I,i,268,1,2298.699999988079,821082.3000000119,8047,WL,B,6.0
7,13.063000202178955,immed,46936.999797821045,Tue May 13 2025 13:37:26 GMT-0500 (Central Daylight Time),823631.1000000238,A,pupil,I,l,240,1,2548.800000011921,821082.3000000119,8047,WL,B,6.0
7,13.513000011444092,immed,46486.99998855591,Tue May 13 2025 13:37:26 GMT-0500 (Central Daylight Time),824080.8999999762,A,pupilenter,I,enter,438,1,2998.599999964237,821082.3000000119,8047,WL,B,6.0
7,14.546000003814697,immed,45453.9999961853,Tue May 13 2025 13:37:26 GMT-0500 (Central Daylight Time),825113.8000000119,A,s,I,s,1021,1,1032.699999988079,824081.1000000238,8047,WL,B,7.0
7,14.795000076293945,immed,45204.999923706055,Tue May 13 2025 13:37:26 GMT-0500 (Central Daylight Time),825363.6000000238,A,st,I,t,236,1,1282.5,824081.1000000238,8047,WL,B,7.0
7,14.92900013923645,immed,45070.99986076355,Tue May 13 2025 13:37:26 GMT-0500 (Central Daylight Time),825497.1999999881,A,sta,I,a,113,1,1416.0999999642372,824081.1000000238,8047,WL,B,7.0
7,15.162000179290771,immed,44837.99982070923,Tue May 13 2025 13:37:26 GMT-0500 (Central Daylight Time),825730.3000000119,A,star,I,r,228,1,1649.199999988079,824081.1000000238,8047,WL,B,7.0
7,15.479000091552734,immed,44520.999908447266,Tue May 13 2025 13:37:26 GMT-0500 (Central Daylight Time),826046.8999999762,A,starenter,I,enter,307,1,1965.7999999523163,824081.1000000238,8047,WL,B,7.0
7,15.895000219345093,immed,44104.99978065491,Tue May 13 2025 13:37:26 GMT-0500 (Central Daylight Time),826463.3999999762,A,w,I,w,407,1,416.19999998807907,826047.1999999881,8047,WL,B,8.0
7,16.062000036239624,immed,43937.999963760376,Tue May 13 2025 13:37:26 GMT-0500 (Central Daylight Time),826630.0,A,wi,I,i,158,1,582.8000000119209,826047.1999999881,8047,WL,B,8.0
7,16.228000164031982,immed,43771.99983596802,Tue May 13 2025 13:37:26 GMT-0500 (Central Daylight Time),826796.6000000238,A,win,I,n,159,1,749.4000000357628,826047.1999999881,8047,WL,B,8.0
7,16.378000020980835,immed,43621.999979019165,Tue May 13 2025 13:37:26 GMT-0500 (Central Daylight Time),826946.3999999762,A,wind,I,d,137,1,899.1999999880791,826047.1999999881,8047,WL,B,8.0
7,16.545000076293945,immed,43454.999923706055,Tue May 13 2025 13:37:26 GMT-0500 (Central Daylight Time),827113.1000000238,A,windo,I,o,147,1,1065.9000000357628,826047.1999999881,8047,WL,B,8.0
7,16.82800006866455,immed,43171.99993133545,Tue May 13 2025 13:37:26 GMT-0500 (Central Daylight Time),827396.3999999762,A,window,I,w,268,1,1349.199999988079,826047.1999999881,8047,WL,B,8.0
7,17.844000101089478,immed,42155.99989891052,Tue May 13 2025 13:37:26 GMT-0500 (Central Daylight Time),828412.6999999881,A,windowenter,I,enter,1001,1,2365.5,826047.1999999881,8047,WL,B,8.0
7,21.29300022125244,immed,38706.99977874756,Tue May 13 2025 13:37:26 GMT-0500 (Central Daylight Time),831861.6000000238,A,c,I,c,3440,1,3448.600000023842,828413.0,8047,WL,B,9.0
