acc_sum,block,block_c,condition,correct,correct_response,datetime,endtime,flanker,jitter,project,response,response_test_buffer_response,response_test_target_response,response_time,response_time_test_buffer_response,response_time_test_target_response,row_sel,session_number,start_end,starttime,subject_id,target,task,task_vers,time_test_buffer,time_test_buffer_response,time_test_constants,time_test_flanker,time_test_jitter,time_test_logger,time_test_target,time_test_target_response,time_test_variables,trial
1,prac,1,con,1,m,Mon Dec 22 2025 12:35:30 GMT-0600 (Central Standard Time),90856.40000009537,step,800,I,m,,,1582,,,1,1,3694.2000000476837,87162.20000004768,8088,step,AF,C,,,,,,,,,,1
2,prac,1,inc,1,z,Mon Dec 22 2025 12:35:30 GMT-0600 (Central Standard Time),94055.5,window,1100,I,z,,,791,,,16,1,3193.5999999046326,90861.90000009537,8088,temper,AF,C,,,,,,,,,,2
3,prac,1,con,1,z,Mon Dec 22 2025 12:35:30 GMT-0600 (Central Standard Time),97021.09999990463,brutal,800,I,z,,,853,,,13,1,2961.2999999523163,94059.79999995232,8088,brutal,AF,C,,,,,,,,,,3
4,prac,1,inc,1,m,Mon Dec 22 2025 12:35:30 GMT-0600 (Central Standard Time),99803.29999995232,kind,900,I,m,,,580,,,2,1,2777.7999999523163,97025.5,8088,rock,AF,C,,,,,,,,,,4
4,prac,1,con,0,z,Mon Dec 22 2025 12:35:30 GMT-0600 (Central Standard Time),102702.59999990463,rage,1000,I,m,,,591,,,15,1,2894.199999809265,99808.40000009537,8088,rage,AF,C,,,,,,,,,,5
5,prac,1,inc,1,z,Mon Dec 22 2025 12:35:30 GMT-0600 (Central Standard Time),105918.40000009537,napkin,1100,I,z,,,808,,,12,1,3211.5,102706.90000009537,8088,friend,AF,C,,,,,,,,,,6
6,prac,1,inc,1,z,Mon Dec 22 2025 12:35:30 GMT-0600 (Central Standard Time),108884.20000004768,rock,900,I,z,,,754,,,10,1,2961.7000000476837,105922.5,8088,kind,AF,C,,,,,,,,,,7
7,prac,1,con,1,z,Mon Dec 22 2025 12:35:30 GMT-0600 (Central Standard Time),111816.59999990463,elated,800,I,z,,,823,,,9,1,2928.0,108888.59999990463,8088,elated,AF,C,,,,,,,,,,8
8,prac,1,con,1,z,Mon Dec 22 2025 12:35:30 GMT-0600 (Central Standard Time),114649.0,love,1000,I,z,,,531,,,11,1,2827.5999999046326,111821.40000009537,8088,love,AF,C,,,,,,,,,,9
9,prac,1,inc,1,m,Mon Dec 22 2025 12:35:30 GMT-0600 (Central Standard Time),117481.29999995232,elated,900,I,m,,,623,,,6,1,2827.7999999523163,114653.5,8088,napkin,AF,C,,,,,,,,,,10
10,prac,1,con,1,m,Mon Dec 22 2025 12:35:30 GMT-0600 (Central Standard Time),120647.0,remote,1000,I,m,,,860,,,7,1,3160.9000000953674,117486.09999990463,8088,remote,AF,C,,,,,,,,,,11
11,prac,1,inc,1,m,Mon Dec 22 2025 12:35:30 GMT-0600 (Central Standard Time),123696.29999995232,hate,1100,I,m,,,634,,,4,1,3045.0,120651.29999995232,8088,film,AF,C,,,,,,,,,,12
12,prac,1,inc,1,m,Mon Dec 22 2025 12:35:30 GMT-0600 (Central Standard Time),126761.70000004768,brutal,1100,I,m,,,656,,,8,1,3061.2000000476837,123700.5,8088,window,AF,C,,,,,,,,,,13
13,prac,1,con,1,m,Mon Dec 22 2025 12:35:30 GMT-0600 (Central Standard Time),130427.40000009537,bell,1000,I,m,,,1362,,,3,1,3661.2000000476837,126766.20000004768,8088,bell,AF,C,,,,,,,,,,14
14,prac,1,inc,1,z,Mon Dec 22 2025 12:35:30 GMT-0600 (Central Standard Time),133659.59999990463,film,900,I,z,,,1021,,,14,1,3227.899999856949,130431.70000004768,8088,hate,AF,C,,,,,,,,,,15
15,prac,1,con,1,m,Mon Dec 22 2025 12:35:30 GMT-0600 (Central Standard Time),136491.90000009537,jacket,800,I,m,,,720,,,5,1,2828.300000190735,133663.59999990463,8088,jacket,AF,C,,,,,,,,,,16
1,test,1,inc,1,z,Mon Dec 22 2025 12:35:30 GMT-0600 (Central Standard Time),165833.09999990463,rock,900,I,z,z,None,584,384.0,200.0,22,1,2029.5,163803.59999990463,8088,love,AF,C,162599,162599,160970,161883,160970,162999,162399,162399,162999,1
2,test,1,inc,1,m,Mon Dec 22 2025 12:35:30 GMT-0600 (Central Standard Time),167965.40000009537,love,1000,I,m,m,None,595,395.0,200.0,79,1,2127.2000000476837,165838.20000004768,8088,rock,AF,C,164732,164732,163004,164016,163005,165131,164532,164532,165131,2
3,test,1,inc,1,m,Mon Dec 22 2025 12:35:30 GMT-0600 (Central Standard Time),170198.0,kind,900,I,m,m,None,793,594.0,199.0,94,1,2228.2999999523163,167969.70000004768,8088,film,AF,C,166765,166765,165136,166048,165136,167364,166565,166565,167364,3
4,test,1,inc,1,m,Mon Dec 22 2025 12:35:30 GMT-0600 (Central Standard Time),172264.0,kind,900,I,m,m,None,617,417.0,200.0,70,1,2061.9000000953674,170202.09999990463,8088,step,AF,C,168998,168998,167368,168281,167368,169430,168797,168797,169430,4
5,test,1,con,1,z,Mon Dec 22 2025 12:35:30 GMT-0600 (Central Standard Time),174341.0,friend,800,I,z,z,None,727,527.0,200.0,25,1,2072.7000000476837,172268.29999995232,8088,friend,AF,C,170964,170964,169434,170247,169435,171507,170763,170763,171507,5
6,test,1,con,1,m,Mon Dec 22 2025 12:35:30 GMT-0600 (Central Standard Time),176546.09999990463,film,800,I,m,m,None,858,658.0,200.0,89,1,2200.7999999523163,174345.29999995232,8088,film,AF,C,173046,173046,171511,172329,171515,173712,172846,172846,173712,6
7,test,1,inc,1,m,Mon Dec 22 2025 12:35:30 GMT-0600 (Central Standard Time),178761.79999995232,temper,1000,I,m,m,None,682,482.0,200.0,127,1,2211.399999856949,176550.40000009537,8088,window,AF,C,175445,175445,173716,174729,173717,175928,175245,175245,175928,7
8,test,1,inc,1,m,Mon Dec 22 2025 12:35:30 GMT-0600 (Central Standard Time),181094.70000004768,friend,1100,I,m,m,None,695,495.0,200.0,112,1,2328.7999999523163,178765.90000009537,8088,napkin,AF,C,177761,177761,175932,177045,175932,178261,177561,177561,178261,8
9,test,1,con,1,m,Mon Dec 22 2025 12:35:30 GMT-0600 (Central Standard Time),183443.79999995232,jacket,1100,I,m,m,None,713,514.0,199.0,100,1,2345.2000000476837,181098.59999990463,8088,jacket,AF,C,180094,180094,178265,179377,178265,180610,179894,179894,180610,9
10,test,1,inc,1,z,Mon Dec 22 2025 12:35:30 GMT-0600 (Central Standard Time),185443.5,napkin,900,I,z,z,None,557,357.0,200.0,6,1,1995.9000000953674,183447.59999990463,8088,elated,AF,C,182243,182243,180614,181527,180614,182610,182043,182043,182610,10
11,test,1,con,1,m,Mon Dec 22 2025 12:35:30 GMT-0600 (Central Standard Time),187592.5,step,1000,I,m,m,None,607,408.0,199.0,67,1,2144.7000000476837,185447.79999995232,8088,step,AF,C,184343,184343,182614,183626,182614,184759,184143,184143,184759,11
12,test,1,con,1,z,Mon Dec 22 2025 12:35:30 GMT-0600 (Central Standard Time),190108.70000004768,elated,1000,I,z,z,None,979,779.0,200.0,3,1,2512.100000143051,187596.59999990463,8088,elated,AF,C,186492,186492,184763,185775,184763,187275,186292,186292,187275,12
12,test,1,con,0,z,Mon Dec 22 2025 12:35:30 GMT-0600 (Central Standard Time),192207.70000004768,hate,800,I,m,m,None,758,559.0,199.0,41,1,2095.2000000476837,190112.5,8088,hate,AF,C,188808,188808,187279,188091,187279,189374,188608,188608,189374,13
13,test,1,inc,1,z,Mon Dec 22 2025 12:35:30 GMT-0600 (Central Standard Time),194373.79999995232,napkin,900,I,z,z,None,729,529.0,200.0,38,1,2162.2000000476837,192211.59999990463,8088,brutal,AF,C,191007,191007,189378,190291,189378,191540,190807,190807,191540,14
14,test,1,con,1,m,Mon Dec 22 2025 12:35:30 GMT-0600 (Central Standard Time),196490.0,napkin,900,I,m,m,None,674,474.0,200.0,106,1,2112.5,194377.5,8088,napkin,AF,C,193173,193173,191544,192456,191544,193656,192973,192973,193656,15
15,test,1,inc,1,z,Mon Dec 22 2025 12:35:30 GMT-0600 (Central Standard Time),198555.90000009537,step,800,I,z,z,None,646,438.0,208.0,21,1,2062.100000143051,196493.79999995232,8088,love,AF,C,195273,195273,193660,194473,193660,195722,195064,195064,195722,16
16,test,1,inc,1,m,Mon Dec 22 2025 12:35:30 GMT-0600 (Central Standard Time),200621.90000009537,elated,800,I,m,m,None,728,528.0,200.0,109,1,2061.2000000476837,198560.70000004768,8088,napkin,AF,C,197255,197255,195727,196539,195727,197788,197055,197055,197788,17
16,test,1,inc,0,m,Mon Dec 22 2025 12:35:30 GMT-0600 (Central Standard Time),202604.79999995232,rage,800,I,z,z,None,646,446.0,200.0,69,1,1978.3999998569489,200626.40000009537,8088,step,AF,C,199321,199321,197792,198604,197793,199771,199121,199121,199771,18
17,test,1,con,1,z,Mon Dec 22 2025 12:35:30 GMT-0600 (Central Standard Time),204820.70000004768,temper,900,I,z,z,None,778,579.0,199.0,58,1,2211.5,202609.20000004768,8088,temper,AF,C,201404,201404,199775,200687,199775,201987,201205,201205,201987,19
18,test,1,inc,1,z,Mon Dec 22 2025 12:35:30 GMT-0600 (Central Standard Time),207286.5,film,1100,I,z,z,None,826,627.0,199.0,16,1,2461.5,204825.0,8088,kind,AF,C,203820,203820,201991,203103,201991,204453,203620,203620,204453,20
18,test,1,inc,0,z,Mon Dec 22 2025 12:35:30 GMT-0600 (Central Standard Time),209252.5,jacket,800,I,m,m,None,620,421.0,199.0,37,1,1962.0,207290.5,8088,brutal,AF,C,205986,205986,204457,205269,204457,206419,205786,205786,206419,21
19,test,1,con,1,m,Mon Dec 22 2025 12:35:30 GMT-0600 (Central Standard Time),211368.79999995232,rock,900,I,m,m,None,666,467.0,199.0,74,1,2111.2000000476837,209257.59999990463,8088,rock,AF,C,208052,208052,206424,207335,206424,208535,207852,207852,208535,22
20,test,1,inc,1,m,Mon Dec 22 2025 12:35:30 GMT-0600 (Central Standard Time),213501.20000004768,kind,900,I,m,m,None,694,495.0,199.0,86,1,2128.4000000953674,211372.79999995232,8088,bell,AF,C,210168,210168,208539,209451,208539,210667,209968,209968,210667,23
21,test,1,con,1,m,Mon Dec 22 2025 12:35:30 GMT-0600 (Central Standard Time),215617.29999995232,window,1100,I,m,m,None,483,283.0,200.0,124,1,2112.2000000476837,213505.09999990463,8088,window,AF,C,212500,212500,210671,211784,210671,212783,212300,212300,212783,24
22,test,1,inc,1,m,Mon Dec 22 2025 12:35:30 GMT-0600 (Central Standard Time),217683.20000004768,elated,800,I,m,m,None,731,531.0,200.0,117,1,2062.0,215621.20000004768,8088,remote,AF,C,214316,214316,212787,213600,212787,214849,214116,214116,214849,25
23,test,1,inc,1,z,Mon Dec 22 2025 12:35:30 GMT-0600 (Central Standard Time),220115.59999990463,film,1100,I,z,z,None,788,588.0,200.0,48,1,2428.5,217687.09999990463,8088,hate,AF,C,216682,216682,214853,215966,214853,217282,216482,216482,217282,26
24,test,1,con,1,m,Mon Dec 22 2025 12:35:30 GMT-0600 (Central Standard Time),222415.40000009537,rock,1000,I,m,m,None,752,552.0,200.0,75,1,2295.5,220119.90000009537,8088,rock,AF,C,219015,219015,217286,218298,217286,219581,218815,218815,219581,27
24,test,1,inc,0,z,Mon Dec 22 2025 12:35:30 GMT-0600 (Central Standard Time),224597.59999990463,bell,1000,I,m,m,None,645,445.0,200.0,47,1,2178.399999856949,222419.20000004768,8088,hate,AF,C,221314,221314,219585,220598,219586,221764,221114,221114,221764,28
25,test,1,con,1,z,Mon Dec 22 2025 12:35:30 GMT-0600 (Central Standard Time),227097.0,temper,1100,I,z,z,None,859,658.0,201.0,60,1,2495.5,224601.5,8088,temper,AF,C,223597,223597,221768,222881,221768,224263,223396,223396,224263,29
26,test,1,con,1,m,Mon Dec 22 2025 12:35:30 GMT-0600 (Central Standard Time),229379.70000004768,remote,1000,I,m,m,None,739,539.0,200.0,115,1,2278.5,227101.20000004768,8088,remote,AF,C,225996,225996,224267,225280,224268,226546,225796,225796,226546,30
27,test,1,con,1,m,Mon Dec 22 2025 12:35:30 GMT-0600 (Central Standard Time),232478.70000004768,bell,800,I,m,m,None,1760,1561.0,199.0,81,1,3095.100000143051,229383.59999990463,8088,bell,AF,C,228079,228079,226550,227362,226550,229645,227879,227879,229645,31
28,test,1,inc,1,z,Mon Dec 22 2025 12:35:30 GMT-0600 (Central Standard Time),234694.59999990463,jacket,800,I,z,z,None,876,677.0,199.0,29,1,2211.5999999046326,232483.0,8088,friend,AF,C,231178,231178,229649,230461,229649,231861,230978,230978,231861,32
29,test,1,con,1,m,Mon Dec 22 2025 12:35:30 GMT-0600 (Central Standard Time),237043.59999990463,remote,1100,I,m,m,None,713,514.0,199.0,116,1,2345.5,234698.09999990463,8088,remote,AF,C,233694,233694,231864,232977,231864,234210,233494,233494,234210,33
30,test,1,con,1,z,Mon Dec 22 2025 12:35:30 GMT-0600 (Central Standard Time),239427.59999990463,friend,1000,I,z,z,None,849,649.0,200.0,27,1,2380.5999999046326,237047.0,8088,friend,AF,C,235943,235943,234213,235228,234213,236594,235743,235743,236594,34
31,test,1,con,1,m,Mon Dec 22 2025 12:35:30 GMT-0600 (Central Standard Time),242208.79999995232,bell,1100,I,m,m,None,1132,933.0,199.0,84,1,2777.2000000476837,239431.59999990463,8088,bell,AF,C,238426,238426,236598,237709,236598,239375,238226,238226,239375,35
32,test,1,inc,1,m,Mon Dec 22 2025 12:35:30 GMT-0600 (Central Standard Time),244624.90000009537,temper,1000,I,m,m,None,875,675.0,200.0,119,1,2412.4000000953674,242212.5,8088,remote,AF,C,241108,241108,239379,240392,239379,241791,240908,240908,241791,36
33,test,1,con,1,z,Mon Dec 22 2025 12:35:30 GMT-0600 (Central Standard Time),246757.40000009537,brutal,800,I,z,z,None,795,595.0,200.0,33,1,2128.800000190735,244628.59999990463,8088,brutal,AF,C,243324,243324,241795,242608,241795,243923,243124,243124,243923,37
33,test,1,con,0,z,Mon Dec 22 2025 12:35:30 GMT-0600 (Central Standard Time),248840.0,rage,800,I,m,m,None,741,542.0,199.0,49,1,2078.9000000953674,246761.09999990463,8088,rage,AF,C,245457,245457,243927,244740,243927,246006,245257,245257,246006,38
34,test,1,inc,1,m,Mon Dec 22 2025 12:35:30 GMT-0600 (Central Standard Time),251156.29999995232,rage,800,I,m,m,None,973,773.0,200.0,93,1,2312.7000000476837,248843.59999990463,8088,film,AF,C,247539,247539,246010,246823,246010,248322,247339,247339,248322,39
35,test,1,inc,1,z,Mon Dec 22 2025 12:35:30 GMT-0600 (Central Standard Time),253438.59999990463,bell,1000,I,z,z,None,736,536.0,200.0,55,1,2278.399999856949,251160.20000004768,8088,rage,AF,C,250055,250055,248326,249339,248326,250605,249855,249855,250605,40
36,test,1,inc,1,m,Mon Dec 22 2025 12:35:30 GMT-0600 (Central Standard Time),255788.0,hate,1100,I,m,m,None,705,506.0,199.0,88,1,2345.5999999046326,253442.40000009537,8088,bell,AF,C,252438,252438,250608,251721,250609,252954,252238,252238,252954,41
37,test,1,con,1,m,Mon Dec 22 2025 12:35:30 GMT-0600 (Central Standard Time),257820.90000009537,jacket,800,I,m,m,None,688,488.0,200.0,97,1,2028.8000001907349,255792.09999990463,8088,jacket,AF,C,254487,254487,252958,253771,252958,254987,254287,254287,254987,42
38,test,1,con,1,z,Mon Dec 22 2025 12:35:30 GMT-0600 (Central Standard Time),259686.90000009537,love,800,I,z,z,None,527,327.0,200.0,17,1,1862.2000000476837,257824.70000004768,8088,love,AF,C,256520,256520,254991,255803,254991,256853,256320,256320,256853,43
39,test,1,con,1,m,Mon Dec 22 2025 12:35:30 GMT-0600 (Central Standard Time),261802.90000009537,step,900,I,m,m,None,673,474.0,199.0,66,1,2112.0,259690.90000009537,8088,step,AF,C,258486,258486,256857,257769,256857,258969,258286,258286,258969,44
40,test,1,con,1,z,Mon Dec 22 2025 12:35:30 GMT-0600 (Central Standard Time),264068.7999999523,brutal,1100,I,z,z,None,630,430.0,200.0,36,1,2262.2999999523163,261806.5,8088,brutal,AF,C,260802,260802,258973,260086,258973,261235,260602,260602,261235,45
41,test,1,con,1,m,Mon Dec 22 2025 12:35:30 GMT-0600 (Central Standard Time),266401.40000009537,bell,1000,I,m,m,None,783,583.0,200.0,83,1,2329.100000143051,264072.2999999523,8088,bell,AF,C,262968,262968,261238,262251,261239,263568,262768,262768,263567,46
42,test,1,con,1,m,Mon Dec 22 2025 12:35:30 GMT-0600 (Central Standard Time),268645.59999990463,napkin,1000,I,m,m,None,710,511.0,199.0,107,1,2240.0999999046326,266405.5,8088,napkin,AF,C,265300,265300,263572,264584,263572,265812,265101,265101,265812,47
43,test,1,con,1,z,Mon Dec 22 2025 12:35:30 GMT-0600 (Central Standard Time),270783.40000009537,brutal,900,I,z,z,None,702,502.0,200.0,34,1,2133.800000190735,268649.59999990463,8088,brutal,AF,C,267433,267433,265816,266717,265816,267949,267233,267233,267949,48
44,test,1,con,1,z,Mon Dec 22 2025 12:35:30 GMT-0600 (Central Standard Time),272865.90000009537,love,1000,I,z,z,None,542,342.0,200.0,19,1,2078.7000000476837,270787.2000000477,8088,love,AF,C,269682,269682,267953,268966,267953,270032,269482,269482,270032,49
45,test,1,inc,1,m,Mon Dec 22 2025 12:35:30 GMT-0600 (Central Standard Time),275115.2999999523,friend,1100,I,m,m,None,606,406.0,200.0,128,1,2245.899999856949,272869.40000009537,8088,window,AF,C,271865,271865,270035,271148,270036,272281,271665,271665,272281,50
45,test,1,con,0,m,Mon Dec 22 2025 12:35:30 GMT-0600 (Central Standard Time),277098.2000000477,napkin,800,I,z,z,None,639,440.0,199.0,105,1,1979.1000001430511,275119.09999990463,8088,napkin,AF,C,273815,273815,272285,273098,272285,274264,273615,273615,274264,51
46,test,1,con,1,z,Mon Dec 22 2025 12:35:30 GMT-0600 (Central Standard Time),279414.09999990463,rage,1000,I,z,z,None,778,578.0,200.0,51,1,2312.0999999046326,277102.0,8088,rage,AF,C,275997,275997,274268,275281,274268,276580,275797,275797,276580,52
47,test,1,con,1,m,Mon Dec 22 2025 12:35:30 GMT-0600 (Central Standard Time),281729.90000009537,window,800,I,m,m,None,967,767.0,200.0,121,1,2312.0,279417.90000009537,8088,window,AF,C,278113,278113,276584,277396,276584,278896,277913,277913,278896,53
48,test,1,con,1,z,Mon Dec 22 2025 12:35:30 GMT-0600 (Central Standard Time),283862.2999999523,kind,1000,I,z,z,None,586,386.0,200.0,11,1,2128.7000000476837,281733.59999990463,8088,kind,AF,C,280629,280629,278900,279913,278900,281028,280429,280429,281028,54
49,test,1,inc,1,m,Mon Dec 22 2025 12:35:30 GMT-0600 (Central Standard Time),285812.0,rage,800,I,m,m,None,604,405.0,199.0,77,1,1945.9000000953674,283866.09999990463,8088,rock,AF,C,282562,282562,281032,281845,281032,282978,282362,282362,282978,55
50,test,1,inc,1,z,Mon Dec 22 2025 12:35:30 GMT-0600 (Central Standard Time),288078.09999990463,rock,900,I,z,z,None,828,628.0,200.0,46,1,2262.0999999046326,285816.0,8088,hate,AF,C,284611,284611,282982,283895,282982,285244,284411,284411,285244,56
51,test,1,inc,1,z,Mon Dec 22 2025 12:35:30 GMT-0600 (Central Standard Time),290327.0,window,1100,I,z,z,None,608,393.0,215.0,8,1,2244.5999999046326,288082.40000009537,8088,elated,AF,C,287094,287094,285248,286360,285249,287493,286878,286878,287493,57
52,test,1,inc,1,m,Mon Dec 22 2025 12:35:30 GMT-0600 (Central Standard Time),292609.59999990463,love,1000,I,m,m,None,740,509.0,231.0,71,1,2279.0999999046326,290330.5,8088,step,AF,C,289257,289258,287497,288510,287497,289776,289026,289026,289776,58
53,test,1,con,1,m,Mon Dec 22 2025 12:35:30 GMT-0600 (Central Standard Time),294959.09999990463,rock,1100,I,m,m,None,709,510.0,199.0,76,1,2345.7999999523163,292613.2999999523,8088,rock,AF,C,291609,291609,289779,290892,289780,292125,291409,291409,292125,59
53,test,1,con,0,z,Mon Dec 22 2025 12:35:30 GMT-0600 (Central Standard Time),297491.7000000477,love,1100,I,m,m,None,889,689.0,200.0,20,1,2529.100000143051,294962.59999990463,8088,love,AF,C,293958,293958,292129,293242,292129,294658,293758,293758,294658,60
54,test,1,inc,1,m,Mon Dec 22 2025 12:35:30 GMT-0600 (Central Standard Time),299640.7000000477,brutal,900,I,m,m,None,707,508.0,199.0,118,1,2145.2000000476837,297495.5,8088,remote,AF,C,296291,296291,294662,295574,294662,296807,296091,296091,296807,61
55,test,1,con,1,m,Mon Dec 22 2025 12:35:30 GMT-0600 (Central Standard Time),302006.7999999523,jacket,900,I,m,m,None,919,719.0,200.0,98,1,2362.0,299644.7999999523,8088,jacket,AF,C,298440,298440,296811,297724,296811,299173,298240,298240,299173,62
56,test,1,inc,1,z,Mon Dec 22 2025 12:35:30 GMT-0600 (Central Standard Time),304339.40000009537,rock,900,I,z,z,None,890,690.0,200.0,14,1,2328.5,302010.90000009537,8088,kind,AF,C,300806,300806,299177,300089,299177,301506,300606,300606,301505,63
57,test,1,con,1,m,Mon Dec 22 2025 12:35:30 GMT-0600 (Central Standard Time),306472.2999999523,remote,900,I,m,m,None,684,485.0,199.0,114,1,2129.0999999046326,304343.2000000477,8088,remote,AF,C,303138,303138,301509,302422,301510,303638,302938,302939,303638,64
58,test,1,inc,1,z,Mon Dec 22 2025 12:35:30 GMT-0600 (Central Standard Time),308471.7999999523,jacket,800,I,z,z,None,651,451.0,200.0,61,1,1995.7000000476837,306476.09999990463,8088,temper,AF,C,305171,305172,303642,304455,303642,305638,304971,304971,305638,65
59,test,1,con,1,z,Mon Dec 22 2025 12:35:30 GMT-0600 (Central Standard Time),310720.7000000477,temper,1000,I,z,z,None,700,500.0,200.0,59,1,2245.4000000953674,308475.2999999523,8088,temper,AF,C,307371,307371,305641,306654,305642,307887,307170,307170,307887,66
60,test,1,inc,1,z,Mon Dec 22 2025 12:35:30 GMT-0600 (Central Standard Time),312686.90000009537,jacket,800,I,z,z,None,627,427.0,200.0,5,1,1962.0,310724.90000009537,8088,elated,AF,C,309420,309420,307891,308703,307891,309853,309220,309220,309853,67
61,test,1,inc,1,z,Mon Dec 22 2025 12:35:30 GMT-0600 (Central Standard Time),314769.59999990463,bell,1000,I,z,z,None,541,341.0,200.0,23,1,2078.899999856949,312690.7000000477,8088,love,AF,C,311586,311586,309857,310869,309857,311936,311386,311386,311936,68
62,test,1,inc,1,z,Mon Dec 22 2025 12:35:30 GMT-0600 (Central Standard Time),317001.90000009537,window,1100,I,z,z,None,615,415.0,200.0,64,1,2228.800000190735,314773.09999990463,8088,temper,AF,C,313752,313752,311939,313047,311939,314168,313552,313552,314168,69
63,test,1,con,1,z,Mon Dec 22 2025 12:35:30 GMT-0600 (Central Standard Time),319317.90000009537,kind,1100,I,z,z,None,678,478.0,200.0,12,1,2312.2000000476837,317005.7000000477,8088,kind,AF,C,316001,316001,314172,315284,314172,316484,315801,315801,316484,70
64,test,1,con,1,m,Mon Dec 22 2025 12:35:30 GMT-0600 (Central Standard Time),321450.90000009537,remote,800,I,m,m,None,790,590.0,200.0,113,1,2129.100000143051,319321.7999999523,8088,remote,AF,C,318017,318017,316488,317301,316488,318617,317817,317817,318617,71
65,test,1,inc,1,m,Mon Dec 22 2025 12:35:30 GMT-0600 (Central Standard Time),323533.5,elated,800,I,m,m,None,745,545.0,200.0,101,1,2078.7999999523163,321454.7000000477,8088,jacket,AF,C,320150,320150,318621,319434,318621,320700,319950,319950,320700,72
66,test,1,inc,1,m,Mon Dec 22 2025 12:35:30 GMT-0600 (Central Standard Time),325682.90000009537,brutal,900,I,m,m,None,705,506.0,199.0,102,1,2145.7000000476837,323537.2000000477,8088,jacket,AF,C,322333,322333,320703,321616,320703,322849,322133,322133,322849,73
67,test,1,con,1,m,Mon Dec 22 2025 12:35:30 GMT-0600 (Central Standard Time),327765.5,rock,800,I,m,m,None,737,537.0,200.0,73,1,2078.7999999523163,325686.7000000477,8088,rock,AF,C,324382,324382,322853,323665,322853,324932,324182,324182,324932,74
68,test,1,con,1,z,Mon Dec 22 2025 12:35:30 GMT-0600 (Central Standard Time),330114.2999999523,elated,1100,I,z,z,None,714,515.0,199.0,4,1,2345.2000000476837,327769.09999990463,8088,elated,AF,C,326764,326764,324935,326048,324935,327280,326564,326565,327280,75
69,test,1,con,1,m,Mon Dec 22 2025 12:35:30 GMT-0600 (Central Standard Time),332130.7999999523,step,800,I,m,m,None,680,481.0,199.0,65,1,2012.5,330118.2999999523,8088,step,AF,C,328814,328814,327284,328097,327285,329297,328614,328614,329297,76
70,test,1,con,1,z,Mon Dec 22 2025 12:35:30 GMT-0600 (Central Standard Time),334546.7999999523,kind,900,I,z,z,None,974,773.0,201.0,10,1,2411.2000000476837,332135.59999990463,8088,kind,AF,C,330931,330931,329302,330213,329302,331713,330730,330730,331713,77
71,test,1,con,1,z,Mon Dec 22 2025 12:35:30 GMT-0600 (Central Standard Time),336729.2999999523,elated,900,I,z,z,None,741,541.0,200.0,2,1,2178.5,334550.7999999523,8088,elated,AF,C,333346,333346,331717,332629,331717,333895,333146,333146,333895,78
72,test,1,inc,1,z,Mon Dec 22 2025 12:35:30 GMT-0600 (Central Standard Time),339328.2999999523,window,1100,I,z,z,None,961,761.0,200.0,32,1,2594.0999999046326,336734.2000000477,8088,friend,AF,C,335728,335728,333900,335012,333900,336494,335528,335528,336494,79
73,test,1,con,1,m,Mon Dec 22 2025 12:35:30 GMT-0600 (Central Standard Time),341361.40000009537,bell,900,I,m,m,None,592,392.0,200.0,82,1,2029.4000000953674,339332.0,8088,bell,AF,C,338128,338128,336498,337411,336498,338528,337927,337927,338527,80
74,test,1,inc,1,m,Mon Dec 22 2025 12:35:30 GMT-0600 (Central Standard Time),343527.0,love,1000,I,m,m,None,627,427.0,200.0,87,1,2162.0999999046326,341364.90000009537,8088,bell,AF,C,340260,340260,338531,339544,338531,340693,340060,340060,340693,81
75,test,1,con,1,z,Mon Dec 22 2025 12:35:30 GMT-0600 (Central Standard Time),345393.09999990463,elated,800,I,z,z,None,524,325.0,199.0,1,1,1862.1999998092651,343530.90000009537,8088,elated,AF,C,342226,342226,340697,341510,340697,342559,342026,342027,342559,82
76,test,1,inc,1,m,Mon Dec 22 2025 12:35:30 GMT-0600 (Central Standard Time),347409.5,brutal,900,I,m,m,None,566,366.0,200.0,110,1,2012.4000000953674,345397.09999990463,8088,napkin,AF,C,344193,344193,342563,343476,342563,344576,343992,343992,344576,83
77,test,1,con,1,m,Mon Dec 22 2025 12:35:30 GMT-0600 (Central Standard Time),349558.7000000477,napkin,1100,I,m,m,None,511,310.0,201.0,108,1,2145.5,347413.2000000477,8088,napkin,AF,C,346409,346409,344579,345692,344579,346725,346208,346208,346725,84
78,test,1,inc,1,z,Mon Dec 22 2025 12:35:30 GMT-0600 (Central Standard Time),351474.7999999523,step,800,I,z,z,None,573,373.0,200.0,13,1,1911.7999999523163,349563.0,8088,kind,AF,C,348258,348258,346729,347541,346729,348641,348058,348058,348641,85
79,test,1,inc,1,m,Mon Dec 22 2025 12:35:30 GMT-0600 (Central Standard Time),353857.2999999523,hate,1100,I,m,m,None,733,533.0,200.0,80,1,2378.5999999046326,351478.7000000477,8088,rock,AF,C,350474,350474,348645,349757,348645,351023,350274,350274,351023,86
80,test,1,inc,1,m,Mon Dec 22 2025 12:35:30 GMT-0600 (Central Standard Time),356156.7000000477,hate,1100,I,m,m,None,655,455.0,200.0,72,1,2295.4000000953674,353861.2999999523,8088,step,AF,C,352856,352856,351027,352140,351028,353323,352656,352656,353323,87
81,test,1,inc,1,m,Mon Dec 22 2025 12:35:30 GMT-0600 (Central Standard Time),358372.40000009537,friend,1100,I,m,m,None,570,371.0,199.0,120,1,2211.9000000953674,356160.5,8088,remote,AF,C,355156,355156,353327,354439,353327,355538,354956,354956,355538,88
82,test,1,inc,1,m,Mon Dec 22 2025 12:35:30 GMT-0600 (Central Standard Time),360588.7999999523,friend,1100,I,m,m,None,578,379.0,199.0,104,1,2212.7999999523163,358376.0,8088,jacket,AF,C,357372,357372,355542,356655,355542,357755,357172,357172,357755,89
83,test,1,con,1,z,Mon Dec 22 2025 12:35:30 GMT-0600 (Central Standard Time),362654.5,temper,800,I,z,z,None,718,519.0,199.0,57,1,2061.5,360593.0,8088,temper,AF,C,359288,359288,357759,358571,357759,359821,359089,359089,359821,90
83,test,1,inc,0,z,Mon Dec 22 2025 12:35:30 GMT-0600 (Central Standard Time),365070.59999990463,window,1100,I,m,m,None,770,570.0,200.0,40,1,2411.7999999523163,362658.7999999523,8088,brutal,AF,C,361654,361654,359825,360937,359825,362237,361453,361453,362237,91
84,test,1,con,1,m,Mon Dec 22 2025 12:35:30 GMT-0600 (Central Standard Time),367203.2000000477,film,1100,I,m,m,None,490,290.0,200.0,92,1,2128.7000000476837,365074.5,8088,film,AF,C,364069,364069,362241,363353,362241,364369,363869,363869,364369,92
85,test,1,inc,1,m,Mon Dec 22 2025 12:35:30 GMT-0600 (Central Standard Time),369635.59999990463,elated,800,I,m,m,None,1097,897.0,200.0,125,1,2429.0,367206.59999990463,8088,window,AF,C,365902,365902,364373,365186,364373,366802,365702,365702,366802,93
85,test,1,inc,0,z,Mon Dec 22 2025 12:35:30 GMT-0600 (Central Standard Time),373267.7999999523,film,1100,I,None,None,None,1799,1799.0,199.0,24,1,3628.5,369639.2999999523,8088,love,AF,C,368635,368635,366805,367918,366806,370434,368435,368435,370434,94
86,test,1,con,1,z,Mon Dec 22 2025 12:35:30 GMT-0600 (Central Standard Time),375833.59999990463,hate,1000,I,z,z,None,1025,825.0,200.0,43,1,2562.0,373271.59999990463,8088,hate,AF,C,372167,372167,370438,371451,370438,373000,371967,371967,373000,95
87,test,1,con,1,z,Mon Dec 22 2025 12:35:30 GMT-0600 (Central Standard Time),377800.0,rage,900,I,z,z,None,527,327.0,200.0,50,1,1962.2000000476837,375837.7999999523,8088,rage,AF,C,374633,374633,373004,373916,373004,374966,374433,374433,374966,96
88,test,1,inc,1,m,Mon Dec 22 2025 12:35:30 GMT-0600 (Central Standard Time),379899.2000000477,rage,800,I,m,m,None,755,556.0,199.0,85,1,2094.7999999523163,377804.40000009537,8088,bell,AF,C,376499,376499,374970,375782,374971,377065,376299,376299,377065,97
89,test,1,con,1,z,Mon Dec 22 2025 12:35:30 GMT-0600 (Central Standard Time),382165.2000000477,rage,1100,I,z,z,None,628,428.0,200.0,52,1,2262.2999999523163,379902.90000009537,8088,rage,AF,C,378899,378899,377069,378182,377069,379331,378698,378698,379331,98
90,test,1,inc,1,z,Mon Dec 22 2025 12:35:30 GMT-0600 (Central Standard Time),384330.7999999523,remote,1000,I,z,z,None,631,431.0,200.0,31,1,2161.7000000476837,382169.09999990463,8088,friend,AF,C,381064,381064,379335,380348,379335,381497,380864,380864,381497,99
91,test,1,con,1,m,Mon Dec 22 2025 12:35:30 GMT-0600 (Central Standard Time),386630.09999990463,jacket,1000,I,m,m,None,760,560.0,200.0,99,1,2295.5999999046326,384334.5,8088,jacket,AF,C,383230,383230,381501,382514,381501,383796,383030,383030,383796,100
92,test,1,inc,1,z,Mon Dec 22 2025 12:35:30 GMT-0600 (Central Standard Time),388746.59999990463,step,800,I,z,z,None,773,574.0,199.0,45,1,2110.199999809265,386636.40000009537,8088,hate,AF,C,385329,385329,383802,384613,383803,385913,385130,385130,385913,101
93,test,1,inc,1,z,Mon Dec 22 2025 12:35:30 GMT-0600 (Central Standard Time),390845.7000000477,remote,1000,I,z,z,None,561,362.0,199.0,63,1,2095.4000000953674,388750.2999999523,8088,temper,AF,C,387646,387646,385916,386929,385917,388012,387446,387446,388012,102
94,test,1,inc,1,m,Mon Dec 22 2025 12:35:30 GMT-0600 (Central Standard Time),392978.2000000477,love,1000,I,m,m,None,598,398.0,200.0,95,1,2128.7999999523163,390849.40000009537,8088,film,AF,C,389745,389745,388015,389028,388016,390144,389545,389545,390144,103
95,test,1,con,1,m,Mon Dec 22 2025 12:35:30 GMT-0600 (Central Standard Time),395027.7999999523,step,1100,I,m,m,None,405,206.0,199.0,68,1,2046.0,392981.7999999523,8088,step,AF,C,391977,391977,390148,391261,390148,392194,391778,391778,392194,104
96,test,1,inc,1,z,Mon Dec 22 2025 12:35:30 GMT-0600 (Central Standard Time),397094.2000000477,step,800,I,z,z,None,721,521.0,200.0,53,1,2062.9000000953674,395031.2999999523,8088,rage,AF,C,393727,393727,392197,393011,392198,394260,393527,393527,394260,105
97,test,1,con,1,z,Mon Dec 22 2025 12:35:30 GMT-0600 (Central Standard Time),399059.59999990463,friend,900,I,z,z,None,530,330.0,200.0,26,1,1961.7999999523163,397097.7999999523,8088,friend,AF,C,395893,395893,394264,395176,394264,396226,395693,395693,396226,106
97,test,1,con,0,z,Mon Dec 22 2025 12:35:30 GMT-0600 (Central Standard Time),401042.5,hate,900,I,m,m,None,540,341.0,199.0,42,1,1978.9000000953674,399063.59999990463,8088,hate,AF,C,397859,397859,396230,397142,396230,398209,397659,397659,398208,107
98,test,1,inc,1,m,Mon Dec 22 2025 12:35:30 GMT-0600 (Central Standard Time),403358.5,brutal,900,I,m,m,None,868,669.0,199.0,126,1,2312.5,401046.0,8088,window,AF,C,399842,399842,398212,399125,398212,400525,399642,399642,400525,108
99,test,1,con,1,m,Mon Dec 22 2025 12:35:30 GMT-0600 (Central Standard Time),405490.7999999523,film,900,I,m,m,None,688,489.0,199.0,90,1,2128.399999856949,403362.40000009537,8088,film,AF,C,402157,402158,400528,401441,400529,402657,401958,401958,402657,109
100,test,1,inc,1,z,Mon Dec 22 2025 12:35:30 GMT-0600 (Central Standard Time),407607.2999999523,rock,900,I,z,z,None,669,469.0,200.0,54,1,2112.5,405494.7999999523,8088,rage,AF,C,404290,404290,402661,403574,402661,404773,404090,404090,404773,110
101,test,1,inc,1,z,Mon Dec 22 2025 12:35:30 GMT-0600 (Central Standard Time),409756.40000009537,film,1100,I,z,z,None,513,313.0,200.0,56,1,2144.800000190735,407611.59999990463,8088,rage,AF,C,406606,406606,404778,405890,404778,406922,406406,406406,406922,111
102,test,1,inc,1,z,Mon Dec 22 2025 12:35:30 GMT-0600 (Central Standard Time),411939.09999990463,bell,1000,I,z,z,None,640,441.0,199.0,15,1,2178.2999999523163,409760.7999999523,8088,kind,AF,C,408655,408655,406927,407939,406927,409105,408455,408456,409105,112
103,test,1,con,1,m,Mon Dec 22 2025 12:35:30 GMT-0600 (Central Standard Time),414088.59999990463,window,1000,I,m,m,None,601,401.0,200.0,123,1,2145.899999856949,411942.7000000477,8088,window,AF,C,410838,410838,409109,410122,409109,411255,410638,410638,411255,113
104,test,1,inc,1,z,Mon Dec 22 2025 12:35:30 GMT-0600 (Central Standard Time),416337.7999999523,remote,1000,I,z,z,None,716,516.0,200.0,39,1,2245.7000000476837,414092.09999990463,8088,brutal,AF,C,412987,412987,411258,412272,411258,413504,412787,412787,413504,114
105,test,1,inc,1,z,Mon Dec 22 2025 12:35:30 GMT-0600 (Central Standard Time),418420.7000000477,remote,1000,I,z,z,None,539,339.0,200.0,7,1,2079.7000000476837,416341.0,8088,elated,AF,C,415237,415237,413507,414520,413507,415587,415037,415037,415587,115
106,test,1,con,1,z,Mon Dec 22 2025 12:35:30 GMT-0600 (Central Standard Time),420286.2999999523,kind,800,I,z,z,None,526,327.0,199.0,9,1,1862.0,418424.2999999523,8088,kind,AF,C,417119,417120,415590,416403,415591,417452,416920,416920,417452,116
107,test,1,con,1,z,Mon Dec 22 2025 12:35:30 GMT-0600 (Central Standard Time),422685.59999990463,friend,1100,I,z,z,None,754,554.0,200.0,28,1,2395.5,420290.09999990463,8088,friend,AF,C,419285,419285,417456,418569,417456,419852,419085,419085,419852,117
108,test,1,inc,1,m,Mon Dec 22 2025 12:35:30 GMT-0600 (Central Standard Time),424818.59999990463,temper,1000,I,m,m,None,591,391.0,200.0,103,1,2129.699999809265,422688.90000009537,8088,jacket,AF,C,421585,421585,419855,420868,419855,421985,421385,421385,421985,118
109,test,1,con,1,m,Mon Dec 22 2025 12:35:30 GMT-0600 (Central Standard Time),426717.90000009537,window,900,I,m,m,None,453,253.0,200.0,122,1,1896.0,424821.90000009537,8088,window,AF,C,423618,423618,421988,422901,421988,423884,423417,423417,423884,119
110,test,1,con,1,m,Mon Dec 22 2025 12:35:30 GMT-0600 (Central Standard Time),428717.09999990463,film,1000,I,m,m,None,454,254.0,200.0,91,1,1995.5999999046326,426721.5,8088,film,AF,C,425617,425617,423888,424901,423888,425883,425417,425417,425883,120
111,test,1,inc,1,m,Mon Dec 22 2025 12:35:30 GMT-0600 (Central Standard Time),431016.59999990463,hate,1100,I,m,m,None,659,459.0,200.0,96,1,2295.5999999046326,428721.0,8088,film,AF,C,427716,427716,425887,427000,425887,428183,427516,427516,428183,121
112,test,1,inc,1,z,Mon Dec 22 2025 12:35:30 GMT-0600 (Central Standard Time),433099.0,napkin,900,I,z,z,None,638,439.0,199.0,62,1,2078.7000000476837,431020.2999999523,8088,temper,AF,C,429815,429816,428186,429099,428187,430265,429616,429616,430265,122
113,test,1,inc,1,m,Mon Dec 22 2025 12:35:30 GMT-0600 (Central Standard Time),435115.09999990463,kind,900,I,m,m,None,581,381.0,200.0,78,1,2012.2999999523163,433102.7999999523,8088,rock,AF,C,431898,431898,430269,431182,430269,432281,431698,431698,432281,123
114,test,1,con,1,z,Mon Dec 22 2025 12:35:30 GMT-0600 (Central Standard Time),437530.7999999523,hate,1100,I,z,z,None,781,581.0,200.0,44,1,2412.0999999046326,435118.7000000477,8088,hate,AF,C,434114,434114,432285,433398,432285,434697,433914,433914,434697,124
115,test,1,inc,1,m,Mon Dec 22 2025 12:35:30 GMT-0600 (Central Standard Time),439713.59999990463,temper,1000,I,m,m,None,649,449.0,200.0,111,1,2178.7999999523163,437534.7999999523,8088,napkin,AF,C,436430,436430,434701,435714,434701,436880,436230,436230,436880,125
116,test,1,inc,1,z,Mon Dec 22 2025 12:35:30 GMT-0600 (Central Standard Time),441813.0,napkin,900,I,z,z,None,663,463.0,200.0,30,1,2095.7999999523163,439717.2000000477,8088,friend,AF,C,438513,438513,436883,437796,436883,438979,438313,438313,438979,126
117,test,1,con,1,z,Mon Dec 22 2025 12:35:30 GMT-0600 (Central Standard Time),443846.2000000477,love,900,I,z,z,None,588,388.0,200.0,18,1,2029.5,441816.7000000477,8088,love,AF,C,440612,440612,438983,439896,438983,441012,440412,440412,441012,127
117,test,1,con,0,z,Mon Dec 22 2025 12:35:30 GMT-0600 (Central Standard Time),446011.7000000477,brutal,1000,I,m,m,None,629,430.0,199.0,35,1,2162.0,443849.7000000477,8088,brutal,AF,C,442745,442745,441016,442028,441016,443178,442545,442545,443178,128
