acc_sum,block,block_c,condition,correct,correct_response,datetime,endtime,flanker,jitter,project,response,response_test_buffer_response,response_test_target_response,response_time,response_time_test_buffer_response,response_time_test_target_response,row_sel,session_number,start_end,starttime,subject_id,target,task,task_vers,time_test_buffer,time_test_buffer_response,time_test_constants,time_test_flanker,time_test_jitter,time_test_logger,time_test_target,time_test_target_response,time_test_variables,trial
1,prac,1,inc,1,m,Thu Aug 07 2025 14:41:27 GMT-0500 (Central Daylight Time),84385.89999997616,brutal,1100,I,m,,,961,,,8,2,3361.399999976158,81024.5,8050,window,AF,B,,,,,,,,,,1
2,prac,1,inc,1,m,Thu Aug 07 2025 14:41:27 GMT-0500 (Central Daylight Time),87268.0,elated,900,I,m,,,669,,,6,2,2876.0,84392.0,8050,napkin,AF,B,,,,,,,,,,2
3,prac,1,inc,1,m,Thu Aug 07 2025 14:41:27 GMT-0500 (Central Daylight Time),90150.60000002384,kind,900,I,m,,,684,,,2,2,2878.5,87272.10000002384,8050,rock,AF,B,,,,,,,,,,3
4,prac,1,con,1,z,Thu Aug 07 2025 14:41:27 GMT-0500 (Central Daylight Time),93066.5,love,1000,I,z,,,614,,,11,2,2911.2000000476837,90155.29999995232,8050,love,AF,B,,,,,,,,,,4
5,prac,1,inc,1,z,Thu Aug 07 2025 14:41:27 GMT-0500 (Central Daylight Time),96048.70000004768,napkin,1100,I,z,,,583,,,12,2,2977.8000000715256,93070.89999997616,8050,friend,AF,B,,,,,,,,,,5
6,prac,1,inc,1,z,Thu Aug 07 2025 14:41:27 GMT-0500 (Central Daylight Time),98814.5,rock,900,I,z,,,558,,,10,2,2761.100000023842,96053.39999997616,8050,kind,AF,B,,,,,,,,,,6
7,prac,1,con,1,z,Thu Aug 07 2025 14:41:27 GMT-0500 (Central Daylight Time),101397.10000002384,brutal,800,I,z,,,476,,,13,2,2578.5,98818.60000002384,8050,brutal,AF,B,,,,,,,,,,7
8,prac,1,con,1,m,Thu Aug 07 2025 14:41:27 GMT-0500 (Central Daylight Time),104446.10000002384,remote,1000,I,m,,,736,,,7,2,3045.0,101401.10000002384,8050,remote,AF,B,,,,,,,,,,8
9,prac,1,con,1,m,Thu Aug 07 2025 14:41:27 GMT-0500 (Central Daylight Time),107361.5,jacket,800,I,m,,,814,,,5,2,2911.2000000476837,104450.29999995232,8050,jacket,AF,B,,,,,,,,,,9
10,prac,1,inc,1,z,Thu Aug 07 2025 14:41:27 GMT-0500 (Central Daylight Time),110544.20000004768,window,1100,I,z,,,775,,,16,2,3177.5,107366.70000004768,8050,temper,AF,B,,,,,,,,,,10
11,prac,1,con,1,m,Thu Aug 07 2025 14:41:27 GMT-0500 (Central Daylight Time),113726.60000002384,bell,1000,I,m,,,876,,,3,2,3178.0,110548.60000002384,8050,bell,AF,B,,,,,,,,,,11
12,prac,1,con,1,z,Thu Aug 07 2025 14:41:27 GMT-0500 (Central Daylight Time),116342.20000004768,elated,800,I,z,,,509,,,9,2,2611.3000000715256,113730.89999997616,8050,elated,AF,B,,,,,,,,,,12
13,prac,1,inc,1,m,Thu Aug 07 2025 14:41:27 GMT-0500 (Central Daylight Time),119491.29999995232,hate,1100,I,m,,,738,,,4,2,3145.1999999284744,116346.10000002384,8050,film,AF,B,,,,,,,,,,13
14,prac,1,con,1,m,Thu Aug 07 2025 14:41:27 GMT-0500 (Central Daylight Time),122607.0,step,800,I,m,,,1000,,,1,2,3111.399999976158,119495.60000002384,8050,step,AF,B,,,,,,,,,,14
15,prac,1,con,1,z,Thu Aug 07 2025 14:41:27 GMT-0500 (Central Daylight Time),125722.70000004768,rage,1000,I,z,,,813,,,15,2,3111.5,122611.20000004768,8050,rage,AF,B,,,,,,,,,,15
16,prac,1,inc,1,z,Thu Aug 07 2025 14:41:27 GMT-0500 (Central Daylight Time),128555.10000002384,film,900,I,z,,,629,,,14,2,2828.3000000715256,125726.79999995232,8050,hate,AF,B,,,,,,,,,,16
1,test,1,inc,1,m,Thu Aug 07 2025 14:41:27 GMT-0500 (Central Daylight Time),138619.79999995232,elated,800,I,m,m,None,649,449.0,200.0,125,2,1980.3999999761581,136639.39999997616,8050,window,AF,B,135894,135894,134364,135178,134365,136345,135694,135694,136345,1
2,test,1,inc,1,m,Thu Aug 07 2025 14:41:27 GMT-0500 (Central Daylight Time),140818.0,love,1000,I,m,m,None,657,457.0,200.0,79,2,2193.600000023842,138624.39999997616,8050,rock,AF,B,138077,138077,136349,137360,136350,138543,137877,137877,138543,2
3,test,1,inc,1,m,Thu Aug 07 2025 14:41:27 GMT-0500 (Central Daylight Time),143033.79999995232,hate,1100,I,m,m,None,574,374.0,200.0,88,2,2211.5999999046326,140822.20000004768,8050,bell,AF,B,140376,140376,138547,139660,138548,140759,140176,140176,140759,3
4,test,1,inc,1,z,Thu Aug 07 2025 14:41:27 GMT-0500 (Central Daylight Time),145149.89999997616,remote,1000,I,z,z,None,570,370.0,200.0,31,2,2111.6999999284744,143038.20000004768,8050,friend,AF,B,142492,142492,140763,141776,140763,142875,142292,142292,142875,4
5,test,1,con,1,z,Thu Aug 07 2025 14:41:27 GMT-0500 (Central Daylight Time),147165.89999997616,hate,1000,I,z,z,None,470,270.0,200.0,43,2,2011.5,145154.39999997616,8050,hate,AF,B,144608,144608,142879,143892,142880,144891,144408,144408,144891,5
6,test,1,inc,1,m,Thu Aug 07 2025 14:41:27 GMT-0500 (Central Daylight Time),149115.29999995232,rage,800,I,m,m,None,614,414.0,200.0,85,2,1945.3999999761581,147169.89999997616,8050,bell,AF,B,146424,146424,144895,145708,144895,146840,146224,146224,146840,6
7,test,1,inc,1,z,Thu Aug 07 2025 14:41:27 GMT-0500 (Central Daylight Time),151465.0,window,1100,I,z,z,None,702,502.0,200.0,64,2,2345.5,149119.5,8050,temper,AF,B,148673,148673,146845,147957,146845,149190,148473,148473,149190,7
8,test,1,inc,1,z,Thu Aug 07 2025 14:41:27 GMT-0500 (Central Daylight Time),153897.20000004768,film,1100,I,z,z,None,705,501.0,204.0,48,2,2428.4000000953674,151468.79999995232,8050,hate,AF,B,151106,151106,149194,150306,149194,151622,150901,150901,151622,8
9,test,1,con,1,z,Thu Aug 07 2025 14:41:27 GMT-0500 (Central Daylight Time),155813.29999995232,friend,800,I,z,z,None,580,380.0,200.0,25,2,1912.1999999284744,153901.10000002384,8050,friend,AF,B,153155,153155,151626,152439,151626,153538,152955,152955,153538,9
10,test,1,inc,1,z,Thu Aug 07 2025 14:41:27 GMT-0500 (Central Daylight Time),158029.29999995232,film,1100,I,z,z,None,571,371.0,200.0,56,2,2211.1999999284744,155818.10000002384,8050,rage,AF,B,155371,155371,153543,154655,153543,155754,155171,155171,155754,10
11,test,1,con,1,z,Thu Aug 07 2025 14:41:27 GMT-0500 (Central Daylight Time),160162.10000002384,brutal,1000,I,z,z,None,600,400.0,200.0,35,2,2128.8000000715256,158033.29999995232,8050,brutal,AF,B,157487,157487,155758,156771,155759,157887,157287,157287,157887,11
12,test,1,inc,1,z,Thu Aug 07 2025 14:41:27 GMT-0500 (Central Daylight Time),162161.39999997616,rock,900,I,z,z,None,550,350.0,200.0,54,2,1995.3999999761581,160166.0,8050,rage,AF,B,159520,159520,157891,158804,157891,159887,159320,159320,159886,12
13,test,1,con,1,m,Thu Aug 07 2025 14:41:27 GMT-0500 (Central Daylight Time),164410.20000004768,bell,1000,I,m,m,None,716,516.0,200.0,83,2,2244.8000000715256,162165.39999997616,8050,bell,AF,B,161619,161619,159890,160903,159891,162135,161419,161419,162135,13
14,test,1,con,1,m,Thu Aug 07 2025 14:41:27 GMT-0500 (Central Daylight Time),166643.10000002384,remote,900,I,m,m,None,797,598.0,199.0,114,2,2228.899999976158,164414.20000004768,8050,remote,AF,B,163769,163769,162139,163052,162140,164368,163569,163569,164368,14
15,test,1,con,1,m,Thu Aug 07 2025 14:41:27 GMT-0500 (Central Daylight Time),168759.10000002384,remote,1100,I,m,m,None,470,270.0,200.0,116,2,2112.0,166647.10000002384,8050,remote,AF,B,166201,166201,164372,165485,164372,166484,166001,166001,166484,15
16,test,1,con,1,m,Thu Aug 07 2025 14:41:27 GMT-0500 (Central Daylight Time),170541.89999997616,step,800,I,m,m,None,437,237.0,200.0,65,2,1778.6000000238419,168763.29999995232,8050,step,AF,B,168017,168017,166488,167301,166489,168267,167817,167817,168267,16
17,test,1,inc,1,m,Thu Aug 07 2025 14:41:27 GMT-0500 (Central Daylight Time),172574.70000004768,brutal,900,I,m,m,None,595,395.0,200.0,102,2,2028.7000000476837,170546.0,8050,jacket,AF,B,169900,169900,168271,169184,168271,170300,169700,169700,170300,17
18,test,1,con,1,z,Thu Aug 07 2025 14:41:27 GMT-0500 (Central Daylight Time),174674.10000002384,friend,900,I,z,z,None,658,458.0,200.0,26,2,2095.3000000715256,172578.79999995232,8050,friend,AF,B,171933,171933,170304,171216,170304,172399,171733,171733,172399,18
19,test,1,con,1,z,Thu Aug 07 2025 14:41:27 GMT-0500 (Central Daylight Time),176720.29999995232,rage,900,I,z,z,None,613,413.0,200.0,50,2,2042.2999999523163,174678.0,8050,rage,AF,B,174032,174032,172403,173316,172403,174445,173832,173832,174445,19
20,test,1,con,1,m,Thu Aug 07 2025 14:41:27 GMT-0500 (Central Daylight Time),178756.0,bell,900,I,m,m,None,589,389.0,200.0,82,2,2031.1000000238419,176724.89999997616,8050,bell,AF,B,176082,176082,174450,175365,174450,176481,175881,175881,176481,20
20,test,1,con,0,z,Thu Aug 07 2025 14:41:27 GMT-0500 (Central Daylight Time),182388.29999995232,friend,1100,I,None,None,None,1799,1799.0,200.0,28,2,3627.5999999046326,178760.70000004768,8050,friend,AF,B,178314,178314,176486,177598,176486,180113,178114,178114,180113,21
21,test,1,con,1,m,Thu Aug 07 2025 14:41:27 GMT-0500 (Central Daylight Time),184487.5,napkin,1000,I,m,m,None,560,360.0,200.0,107,2,2094.399999976158,182393.10000002384,8050,napkin,AF,B,181846,181846,180118,181130,180119,182213,181646,181646,182212,22
22,test,1,inc,1,m,Thu Aug 07 2025 14:41:27 GMT-0500 (Central Daylight Time),186419.89999997616,rage,800,I,m,m,None,595,396.0,199.0,69,2,1928.2999999523163,184491.60000002384,8050,step,AF,B,183746,183746,182217,183029,182217,184145,183546,183546,184145,23
23,test,1,con,1,m,Thu Aug 07 2025 14:41:27 GMT-0500 (Central Daylight Time),188652.70000004768,window,1100,I,m,m,None,595,396.0,199.0,124,2,2228.600000023842,186424.10000002384,8050,window,AF,B,185979,185979,184149,185262,184149,186378,185778,185779,186378,24
24,test,1,con,1,m,Thu Aug 07 2025 14:41:27 GMT-0500 (Central Daylight Time),190535.70000004768,rock,900,I,m,m,None,443,243.0,200.0,74,2,1879.1000000238419,188656.60000002384,8050,rock,AF,B,188011,188011,186382,187295,186382,188261,187811,187811,188261,25
25,test,1,con,1,z,Thu Aug 07 2025 14:41:27 GMT-0500 (Central Daylight Time),192335.20000004768,rage,800,I,z,z,None,459,260.0,199.0,49,2,1795.3000000715256,190539.89999997616,8050,rage,AF,B,189794,189794,188265,189077,188265,190060,189594,189594,190060,26
26,test,1,inc,1,m,Thu Aug 07 2025 14:41:27 GMT-0500 (Central Daylight Time),194284.29999995232,rage,800,I,m,m,None,605,405.0,200.0,77,2,1945.1999999284744,192339.10000002384,8050,rock,AF,B,191593,191593,190064,190877,190064,192009,191393,191393,192009,27
27,test,1,con,1,m,Thu Aug 07 2025 14:41:27 GMT-0500 (Central Daylight Time),196450.5,rock,1000,I,m,m,None,622,423.0,199.0,75,2,2162.2000000476837,194288.29999995232,8050,rock,AF,B,193743,193743,192013,193026,192014,194176,193543,193543,194176,28
28,test,1,inc,1,m,Thu Aug 07 2025 14:41:27 GMT-0500 (Central Daylight Time),198649.89999997616,friend,1100,I,m,m,None,550,351.0,199.0,104,2,2195.2999999523163,196454.60000002384,8050,jacket,AF,B,196008,196008,194180,195292,194180,196375,195809,195809,196375,29
29,test,1,con,1,z,Thu Aug 07 2025 14:41:27 GMT-0500 (Central Daylight Time),200765.79999995232,brutal,1100,I,z,z,None,472,270.0,202.0,36,2,2112.2999999523163,198653.5,8050,brutal,AF,B,198208,198208,196379,197492,196379,198491,198005,198005,198491,30
30,test,1,inc,1,z,Thu Aug 07 2025 14:41:27 GMT-0500 (Central Daylight Time),202681.79999995232,step,800,I,z,z,None,574,374.0,200.0,13,2,1912.2999999523163,200769.5,8050,kind,AF,B,200024,200024,198494,199307,198495,200407,199824,199824,200407,31
31,test,1,inc,1,z,Thu Aug 07 2025 14:41:27 GMT-0500 (Central Daylight Time),204631.29999995232,napkin,900,I,z,z,None,510,310.0,200.0,62,2,1945.7999999523163,202685.5,8050,temper,AF,B,202040,202040,200411,201323,200411,202356,201840,201840,202356,32
32,test,1,inc,1,m,Thu Aug 07 2025 14:41:27 GMT-0500 (Central Daylight Time),206815.0,love,1000,I,m,m,None,638,438.0,200.0,95,2,2179.7000000476837,204635.29999995232,8050,film,AF,B,204089,204089,202360,203373,202361,204540,203889,203889,204540,33
33,test,1,con,1,z,Thu Aug 07 2025 14:41:27 GMT-0500 (Central Daylight Time),208829.70000004768,kind,800,I,z,z,None,678,478.0,200.0,9,2,2010.0,206819.70000004768,8050,kind,AF,B,206072,206072,204545,205355,204545,206555,205872,205872,206555,34
34,test,1,con,1,m,Thu Aug 07 2025 14:41:27 GMT-0500 (Central Daylight Time),210779.29999995232,film,800,I,m,m,None,614,414.0,200.0,89,2,1945.6999999284744,208833.60000002384,8050,film,AF,B,208088,208088,206559,207372,206559,208504,207888,207888,208504,35
35,test,1,inc,1,m,Thu Aug 07 2025 14:41:27 GMT-0500 (Central Daylight Time),212895.39999997616,love,1000,I,m,m,None,568,369.0,199.0,71,2,2112.2999999523163,210783.10000002384,8050,step,AF,B,210237,210237,208508,209521,208508,210620,210038,210038,210620,36
36,test,1,inc,1,z,Thu Aug 07 2025 14:41:27 GMT-0500 (Central Daylight Time),214894.5,rock,900,I,z,z,None,552,352.0,200.0,46,2,1995.2000000476837,212899.29999995232,8050,hate,AF,B,212254,212254,210624,211537,210625,212620,212053,212053,212619,37
37,test,1,con,1,m,Thu Aug 07 2025 14:41:27 GMT-0500 (Central Daylight Time),217093.89999997616,bell,1100,I,m,m,None,561,362.0,199.0,84,2,2195.6999999284744,214898.20000004768,8050,bell,AF,B,214453,214453,212623,213736,212623,214819,214253,214253,214819,38
38,test,1,con,1,z,Thu Aug 07 2025 14:41:27 GMT-0500 (Central Daylight Time),219060.20000004768,love,800,I,z,z,None,622,422.0,200.0,17,2,1962.4000000953674,217097.79999995232,8050,love,AF,B,216352,216352,214823,215636,214823,216785,216152,216152,216785,39
39,test,1,con,1,m,Thu Aug 07 2025 14:41:27 GMT-0500 (Central Daylight Time),220976.0,window,800,I,m,m,None,568,368.0,200.0,121,2,1912.1000000238419,219063.89999997616,8050,window,AF,B,218318,218318,216789,217602,216789,218701,218118,218118,218701,40
40,test,1,con,1,z,Thu Aug 07 2025 14:41:27 GMT-0500 (Central Daylight Time),223025.70000004768,temper,900,I,z,z,None,608,408.0,200.0,58,2,2046.0,220979.70000004768,8050,temper,AF,B,220334,220334,218705,219618,218705,220751,220134,220134,220751,41
41,test,1,inc,1,z,Thu Aug 07 2025 14:41:27 GMT-0500 (Central Daylight Time),225158.10000002384,napkin,900,I,z,z,None,635,436.0,199.0,6,2,2128.8000000715256,223029.29999995232,8050,elated,AF,B,222434,222434,220754,221726,220755,222883,222234,222234,222883,42
42,test,1,con,1,z,Thu Aug 07 2025 14:41:27 GMT-0500 (Central Daylight Time),227257.60000002384,elated,900,I,z,z,None,666,466.0,200.0,2,2,2095.899999976158,225161.70000004768,8050,elated,AF,B,224516,224516,222887,223800,222887,224983,224316,224316,224983,43
43,test,1,con,1,m,Thu Aug 07 2025 14:41:27 GMT-0500 (Central Daylight Time),229023.39999997616,jacket,800,I,m,m,None,427,228.0,199.0,97,2,1762.3999999761581,227261.0,8050,jacket,AF,B,226515,226515,224986,225799,224986,226748,226316,226316,226748,44
44,test,1,con,1,z,Thu Aug 07 2025 14:41:27 GMT-0500 (Central Daylight Time),230939.5,brutal,800,I,z,z,None,579,380.0,199.0,33,2,1912.2999999523163,229027.20000004768,8050,brutal,AF,B,228282,228282,226752,227565,226753,228665,228082,228082,228665,45
45,test,1,inc,1,z,Thu Aug 07 2025 14:41:27 GMT-0500 (Central Daylight Time),232988.79999995232,bell,1000,I,z,z,None,503,304.0,199.0,47,2,2045.5,230943.29999995232,8050,hate,AF,B,230398,230398,228668,229681,228669,230714,230198,230198,230714,46
46,test,1,inc,1,m,Thu Aug 07 2025 14:41:27 GMT-0500 (Central Daylight Time),234871.79999995232,elated,800,I,m,m,None,544,344.0,200.0,101,2,1879.0999999046326,232992.70000004768,8050,jacket,AF,B,232247,232247,230718,231531,230718,232597,232047,232047,232597,47
47,test,1,inc,1,z,Thu Aug 07 2025 14:41:27 GMT-0500 (Central Daylight Time),236821.20000004768,step,800,I,z,z,None,603,404.0,199.0,45,2,1945.6000000238419,234875.60000002384,8050,hate,AF,B,234130,234130,232601,233414,232601,234546,233930,233930,234546,48
48,test,1,inc,1,z,Thu Aug 07 2025 14:41:27 GMT-0500 (Central Daylight Time),238986.79999995232,film,1100,I,z,z,None,532,332.0,200.0,24,2,2160.5,236826.29999995232,8050,love,AF,B,236379,236379,234551,235663,234552,236712,236179,236179,236712,49
49,test,1,con,1,m,Thu Aug 07 2025 14:41:27 GMT-0500 (Central Daylight Time),241019.89999997616,step,1000,I,m,m,None,497,297.0,200.0,67,2,2029.6000000238419,238990.29999995232,8050,step,AF,B,238445,238445,236715,237729,236716,238745,238245,238245,238745,50
50,test,1,con,1,z,Thu Aug 07 2025 14:41:27 GMT-0500 (Central Daylight Time),243052.5,temper,800,I,z,z,None,689,489.0,200.0,57,2,2029.0,241023.5,8050,temper,AF,B,240278,240278,238748,239561,238749,240778,240078,240078,240778,51
51,test,1,con,1,z,Thu Aug 07 2025 14:41:27 GMT-0500 (Central Daylight Time),245318.5,love,1100,I,z,z,None,619,419.0,200.0,20,2,2262.5,243056.0,8050,love,AF,B,242610,242611,240781,241894,240781,243044,242410,242410,243044,52
52,test,1,con,1,m,Thu Aug 07 2025 14:41:27 GMT-0500 (Central Daylight Time),247541.10000002384,jacket,1100,I,m,m,None,450,250.0,200.0,100,2,2218.899999976158,245322.20000004768,8050,jacket,AF,B,244877,244877,243047,244160,243047,245266,244676,244676,245266,53
53,test,1,con,1,z,Thu Aug 07 2025 14:41:27 GMT-0500 (Central Daylight Time),249550.39999997616,elated,1000,I,z,z,None,470,271.0,199.0,3,2,2005.1000000238419,247545.29999995232,8050,elated,AF,B,246992,246992,245270,246276,245271,247276,246793,246793,247275,54
54,test,1,con,1,z,Thu Aug 07 2025 14:41:27 GMT-0500 (Central Daylight Time),251650.0,rage,1100,I,z,z,None,457,258.0,199.0,52,2,2095.7999999523163,249554.20000004768,8050,rage,AF,B,249109,249109,247279,248392,247279,249375,248909,248909,249375,55
55,test,1,inc,1,z,Thu Aug 07 2025 14:41:27 GMT-0500 (Central Daylight Time),253865.89999997616,window,1100,I,z,z,None,566,367.0,199.0,8,2,2211.6999999284744,251654.20000004768,8050,elated,AF,B,251208,251208,249379,250491,249379,251591,251008,251008,251591,56
56,test,1,con,1,m,Thu Aug 07 2025 14:41:27 GMT-0500 (Central Daylight Time),255981.70000004768,film,1100,I,m,m,None,477,278.0,199.0,92,2,2112.100000023842,253869.60000002384,8050,film,AF,B,253424,253424,251595,252707,251595,253707,253224,253224,253707,57
57,test,1,con,1,m,Thu Aug 07 2025 14:41:27 GMT-0500 (Central Daylight Time),257947.79999995232,window,900,I,m,m,None,522,322.0,200.0,122,2,1962.0999999046326,255985.70000004768,8050,window,AF,B,255340,255340,253711,254623,253711,255673,255140,255140,255673,58
58,test,1,inc,1,m,Thu Aug 07 2025 14:41:27 GMT-0500 (Central Daylight Time),260163.89999997616,temper,1000,I,m,m,None,673,473.0,200.0,127,2,2212.2999999523163,257951.60000002384,8050,window,AF,B,257406,257406,255677,256689,255677,257889,257206,257206,257889,59
59,test,1,con,1,z,Thu Aug 07 2025 14:41:27 GMT-0500 (Central Daylight Time),262196.2999999523,hate,900,I,z,z,None,596,396.0,200.0,42,2,2028.5999999046326,260167.70000004768,8050,hate,AF,B,259522,259522,257893,258806,257893,259921,259322,259322,259921,60
60,test,1,con,1,m,Thu Aug 07 2025 14:41:27 GMT-0500 (Central Daylight Time),264212.5,film,900,I,m,m,None,570,371.0,199.0,90,2,2012.3999999761581,262200.10000002384,8050,film,AF,B,261555,261555,259925,260838,259925,261938,261355,261355,261937,61
61,test,1,inc,1,m,Thu Aug 07 2025 14:41:27 GMT-0500 (Central Daylight Time),266462.0,kind,900,I,m,m,None,802,603.0,199.0,94,2,2245.7999999523163,264216.2000000477,8050,film,AF,B,263571,263571,261941,262854,261941,264187,263371,263371,264187,62
62,test,1,con,1,m,Thu Aug 07 2025 14:41:27 GMT-0500 (Central Daylight Time),268444.39999997616,rock,800,I,m,m,None,653,438.0,215.0,73,2,1978.7999999523163,266465.60000002384,8050,rock,AF,B,265720,265720,264191,265004,264191,266169,265505,265505,266169,63
63,test,1,con,1,z,Thu Aug 07 2025 14:41:27 GMT-0500 (Central Daylight Time),270527.2000000477,friend,1000,I,z,z,None,542,343.0,199.0,27,2,2078.3000000715256,268448.89999997616,8050,friend,AF,B,267903,267903,266174,267187,266174,268252,267703,267703,268252,64
64,test,1,con,1,z,Thu Aug 07 2025 14:41:27 GMT-0500 (Central Daylight Time),272843.2000000477,hate,1100,I,z,z,None,672,473.0,199.0,44,2,2312.2000000476837,270531.0,8050,hate,AF,B,270085,270085,268256,269369,268256,270568,269886,269886,270568,65
65,test,1,con,1,m,Thu Aug 07 2025 14:41:27 GMT-0500 (Central Daylight Time),275325.89999997616,window,1000,I,m,m,None,937,737.0,200.0,123,2,2478.6999999284744,272847.2000000477,8050,window,AF,B,272301,272301,270572,271585,270572,273051,272101,272101,273051,66
66,test,1,inc,1,m,Thu Aug 07 2025 14:41:27 GMT-0500 (Central Daylight Time),277141.89999997616,rage,800,I,m,m,None,469,270.0,199.0,93,2,1812.3999999761581,275329.5,8050,film,AF,B,274584,274584,273055,273867,273055,274867,274384,274384,274867,67
67,test,1,con,1,z,Thu Aug 07 2025 14:41:27 GMT-0500 (Central Daylight Time),279257.7000000477,rage,1000,I,z,z,None,574,374.0,200.0,51,2,2111.9000000953674,277145.7999999523,8050,rage,AF,B,276600,276600,274871,275884,274871,276983,276400,276400,276983,68
68,test,1,inc,1,z,Thu Aug 07 2025 14:41:27 GMT-0500 (Central Daylight Time),281473.7000000477,window,1100,I,z,z,None,582,383.0,199.0,40,2,2212.100000023842,279261.60000002384,8050,brutal,AF,B,278816,278816,276987,278099,276987,279199,278616,278616,279199,69
69,test,1,con,1,m,Thu Aug 07 2025 14:41:27 GMT-0500 (Central Daylight Time),283573.2000000477,napkin,900,I,m,m,None,662,462.0,200.0,106,2,2095.7000000476837,281477.5,8050,napkin,AF,B,280832,280832,279203,280115,279203,281298,280632,280632,281298,70
70,test,1,inc,1,m,Thu Aug 07 2025 14:41:27 GMT-0500 (Central Daylight Time),285722.5,hate,1100,I,m,m,None,507,307.0,200.0,80,2,2145.600000023842,283576.89999997616,8050,rock,AF,B,283131,283131,281302,282414,281302,283448,282931,282931,283447,71
71,test,1,inc,1,m,Thu Aug 07 2025 14:41:27 GMT-0500 (Central Daylight Time),287954.89999997616,friend,1100,I,m,m,None,597,398.0,199.0,128,2,2228.6999999284744,285726.2000000477,8050,window,AF,B,285280,285280,283451,284564,283451,285680,285081,285081,285680,72
72,test,1,con,1,z,Thu Aug 07 2025 14:41:27 GMT-0500 (Central Daylight Time),290354.7000000477,kind,1100,I,z,z,None,758,558.0,200.0,12,2,2396.2000000476837,287958.5,8050,kind,AF,B,287513,287513,285684,286796,285684,288080,287313,287313,288080,73
73,test,1,con,1,z,Thu Aug 07 2025 14:41:27 GMT-0500 (Central Daylight Time),292453.5,temper,1000,I,z,z,None,561,362.0,199.0,59,2,2095.2000000476837,290358.2999999523,8050,temper,AF,B,289812,289812,288083,289096,288084,290179,289613,289613,290178,74
74,test,1,inc,1,z,Thu Aug 07 2025 14:41:27 GMT-0500 (Central Daylight Time),294369.7000000477,step,800,I,z,z,None,566,367.0,199.0,53,2,1912.6000000238419,292457.10000002384,8050,rage,AF,B,291712,291712,290182,290995,290182,292095,291512,291512,292095,75
75,test,1,con,1,m,Thu Aug 07 2025 14:41:27 GMT-0500 (Central Daylight Time),296385.89999997616,jacket,900,I,m,m,None,574,373.0,201.0,98,2,2012.3999999761581,294373.5,8050,jacket,AF,B,293729,293729,292099,293011,292099,294111,293528,293528,294111,76
76,test,1,inc,1,z,Thu Aug 07 2025 14:41:27 GMT-0500 (Central Daylight Time),298451.39999997616,remote,1000,I,z,z,None,530,331.0,199.0,39,2,2061.7999999523163,296389.60000002384,8050,brutal,AF,B,295844,295844,294115,295127,294115,296177,295644,295644,296176,77
77,test,1,con,1,m,Thu Aug 07 2025 14:41:27 GMT-0500 (Central Daylight Time),300317.7999999523,napkin,800,I,m,m,None,528,328.0,200.0,105,2,1862.2999999523163,298455.5,8050,napkin,AF,B,297710,297710,296181,296993,296181,298043,297510,297510,298043,78
78,test,1,inc,1,m,Thu Aug 07 2025 14:41:27 GMT-0500 (Central Daylight Time),302383.7999999523,brutal,900,I,m,m,None,618,418.0,200.0,126,2,2062.1999999284744,300321.60000002384,8050,window,AF,B,299676,299676,298047,298959,298047,300109,299476,299476,300109,79
79,test,1,con,1,z,Thu Aug 07 2025 14:41:27 GMT-0500 (Central Daylight Time),304450.10000002384,kind,900,I,z,z,None,617,417.0,200.0,10,2,2062.600000023842,302387.5,8050,kind,AF,B,301742,301742,300113,301026,300113,302175,301542,301542,302175,80
80,test,1,inc,1,z,Thu Aug 07 2025 14:41:27 GMT-0500 (Central Daylight Time),306349.10000002384,jacket,800,I,z,z,None,554,354.0,200.0,61,2,1895.2000000476837,304453.89999997616,8050,temper,AF,B,303708,303708,302179,302992,302179,304074,303508,303508,304074,81
81,test,1,inc,1,m,Thu Aug 07 2025 14:41:27 GMT-0500 (Central Daylight Time),308781.7999999523,friend,1100,I,m,m,None,794,595.0,199.0,120,2,2428.7999999523163,306353.0,8050,remote,AF,B,305907,305907,304078,305191,304078,306507,305708,305708,306507,82
82,test,1,inc,1,m,Thu Aug 07 2025 14:41:27 GMT-0500 (Central Daylight Time),310797.89999997616,temper,1000,I,m,m,None,478,278.0,200.0,119,2,2012.1000000238419,308785.7999999523,8050,remote,AF,B,308240,308240,306511,307523,306511,308523,308040,308040,308523,83
83,test,1,con,1,m,Thu Aug 07 2025 14:41:27 GMT-0500 (Central Daylight Time),312613.7999999523,remote,800,I,m,m,None,470,270.0,200.0,113,2,1812.1999999284744,310801.60000002384,8050,remote,AF,B,310056,310056,308527,309340,308527,310339,309856,309856,310339,84
84,test,1,inc,1,m,Thu Aug 07 2025 14:41:27 GMT-0500 (Central Daylight Time),314630.10000002384,kind,900,I,m,m,None,571,371.0,200.0,70,2,2012.2000000476837,312617.89999997616,8050,step,AF,B,311972,311972,310343,311256,310343,312355,311772,311772,312355,85
85,test,1,con,1,z,Thu Aug 07 2025 14:41:27 GMT-0500 (Central Daylight Time),316629.5,hate,800,I,z,z,None,654,454.0,200.0,41,2,1995.7999999523163,314633.7000000477,8050,hate,AF,B,313888,313888,312359,313172,312359,314355,313688,313688,314355,86
86,test,1,inc,1,z,Thu Aug 07 2025 14:41:27 GMT-0500 (Central Daylight Time),318745.2999999523,bell,1000,I,z,z,None,464,258.0,206.0,23,2,2111.899999976158,316633.39999997616,8050,love,AF,B,316204,316204,314358,315371,314359,316470,315998,315998,316470,87
87,test,1,inc,1,m,Thu Aug 07 2025 14:41:27 GMT-0500 (Central Daylight Time),320861.5,brutal,900,I,m,m,None,678,479.0,199.0,118,2,2112.600000023842,318748.89999997616,8050,remote,AF,B,318103,318103,316474,317387,316474,318587,317904,317904,318587,88
88,test,1,inc,1,z,Thu Aug 07 2025 14:41:27 GMT-0500 (Central Daylight Time),322844.39999997616,jacket,800,I,z,z,None,638,439.0,199.0,37,2,1979.1999999284744,320865.2000000477,8050,brutal,AF,B,320119,320119,318590,319403,318590,320569,319920,319920,320569,89
89,test,1,inc,1,m,Thu Aug 07 2025 14:41:27 GMT-0500 (Central Daylight Time),324860.0,kind,900,I,m,m,None,573,373.0,200.0,78,2,2011.8999999761581,322848.10000002384,8050,rock,AF,B,322202,322202,320573,321486,320573,322585,322002,322002,322585,90
90,test,1,inc,1,m,Thu Aug 07 2025 14:41:27 GMT-0500 (Central Daylight Time),326942.7999999523,temper,1000,I,m,m,None,536,336.0,200.0,103,2,2078.7999999523163,324864.0,8050,jacket,AF,B,324318,324318,322589,323602,322589,324668,324118,324118,324668,91
91,test,1,inc,1,z,Thu Aug 07 2025 14:41:27 GMT-0500 (Central Daylight Time),329108.60000002384,napkin,900,I,z,z,None,729,529.0,200.0,30,2,2162.100000023842,326946.5,8050,friend,AF,B,326301,326301,324672,325585,324672,326834,326101,326101,326834,92
92,test,1,inc,1,m,Thu Aug 07 2025 14:41:27 GMT-0500 (Central Daylight Time),331108.10000002384,brutal,900,I,m,m,None,555,355.0,200.0,110,2,1994.8999999761581,329113.2000000477,8050,napkin,AF,B,328467,328467,326838,327750,326838,328833,328267,328267,328833,93
93,test,1,con,1,m,Thu Aug 07 2025 14:41:27 GMT-0500 (Central Daylight Time),332907.39999997616,bell,800,I,m,m,None,464,264.0,200.0,81,2,1795.3999999761581,331112.0,8050,bell,AF,B,330366,330366,328837,329650,328837,330633,330166,330166,330632,94
94,test,1,inc,1,z,Thu Aug 07 2025 14:41:27 GMT-0500 (Central Daylight Time),334990.2999999523,rock,900,I,z,z,None,644,445.0,199.0,14,2,2078.899999976158,332911.39999997616,8050,kind,AF,B,332266,332266,330636,331549,330637,332715,332066,332066,332715,95
95,test,1,inc,1,z,Thu Aug 07 2025 14:41:27 GMT-0500 (Central Daylight Time),337089.39999997616,napkin,900,I,z,z,None,651,451.0,200.0,38,2,2095.399999976158,334994.0,8050,brutal,AF,B,334348,334348,332719,333632,332719,334814,334148,334148,334814,96
96,test,1,con,1,m,Thu Aug 07 2025 14:41:27 GMT-0500 (Central Daylight Time),339305.5,napkin,1100,I,m,m,None,566,367.0,199.0,108,2,2212.399999976158,337093.10000002384,8050,napkin,AF,B,336648,336648,334818,335931,334818,337031,336448,336448,337031,97
97,test,1,con,1,z,Thu Aug 07 2025 14:41:27 GMT-0500 (Central Daylight Time),341255.0,love,1000,I,z,z,None,410,211.0,199.0,19,2,1946.0,339309.0,8050,love,AF,B,338764,338764,337034,338047,337034,338980,338564,338564,338980,98
98,test,1,con,1,m,Thu Aug 07 2025 14:41:27 GMT-0500 (Central Daylight Time),343387.7000000477,remote,1000,I,m,m,None,597,397.0,200.0,115,2,2129.100000023842,341258.60000002384,8050,remote,AF,B,340713,340713,338984,339998,338984,341113,340513,340513,341113,99
99,test,1,inc,1,m,Thu Aug 07 2025 14:41:27 GMT-0500 (Central Daylight Time),345503.7999999523,kind,900,I,m,m,None,676,477.0,199.0,86,2,2112.2999999523163,343391.5,8050,bell,AF,B,342746,342746,341117,342029,341117,343229,342546,342546,343229,100
100,test,1,inc,1,m,Thu Aug 07 2025 14:41:27 GMT-0500 (Central Daylight Time),347652.89999997616,temper,1000,I,m,m,None,603,404.0,199.0,111,2,2145.600000023842,345507.2999999523,8050,napkin,AF,B,344962,344962,343232,344245,343232,345378,344762,344762,345378,101
101,test,1,con,1,m,Thu Aug 07 2025 14:41:27 GMT-0500 (Central Daylight Time),349769.0,rock,1100,I,m,m,None,475,275.0,200.0,76,2,2112.5,347656.5,8050,rock,AF,B,347211,347211,345382,346495,345382,347494,347011,347011,347494,102
102,test,1,inc,1,z,Thu Aug 07 2025 14:41:27 GMT-0500 (Central Daylight Time),351901.5,remote,1000,I,z,z,None,587,387.0,200.0,63,2,2128.7999999523163,349772.7000000477,8050,temper,AF,B,349227,349227,347498,348511,347498,349627,349027,349027,349627,103
103,test,1,con,1,m,Thu Aug 07 2025 14:41:27 GMT-0500 (Central Daylight Time),353900.89999997616,step,900,I,m,m,None,554,354.0,200.0,66,2,1995.6000000238419,351905.2999999523,8050,step,AF,B,351260,351260,349630,350543,349631,351626,351060,351060,351626,104
104,test,1,inc,1,m,Thu Aug 07 2025 14:41:27 GMT-0500 (Central Daylight Time),355967.0,elated,800,I,m,m,None,720,520.0,200.0,117,2,2062.100000023842,353904.89999997616,8050,remote,AF,B,353159,353159,351630,352443,351630,353692,352959,352959,353692,105
105,test,1,con,1,z,Thu Aug 07 2025 14:41:27 GMT-0500 (Central Daylight Time),357883.10000002384,elated,800,I,z,z,None,581,381.0,200.0,1,2,1912.2000000476837,355970.89999997616,8050,elated,AF,B,355225,355225,353696,354509,353696,355608,355025,355025,355608,106
106,test,1,inc,1,m,Thu Aug 07 2025 14:41:27 GMT-0500 (Central Daylight Time),360099.10000002384,hate,1100,I,m,m,None,574,374.0,200.0,72,2,2212.2000000476837,357886.89999997616,8050,step,AF,B,357441,357441,355612,356725,355612,357824,357241,357241,357824,107
107,test,1,inc,1,z,Thu Aug 07 2025 14:41:27 GMT-0500 (Central Daylight Time),362348.2000000477,window,1100,I,z,z,None,605,405.0,200.0,32,2,2245.3000000715256,360102.89999997616,8050,friend,AF,B,359657,359657,357828,358940,357828,360073,359457,359457,360073,108
108,test,1,inc,1,z,Thu Aug 07 2025 14:41:27 GMT-0500 (Central Daylight Time),364464.39999997616,bell,1000,I,z,z,None,575,375.0,200.0,15,2,2112.399999976158,362352.0,8050,kind,AF,B,361807,361807,360077,361090,360077,362189,361606,361606,362189,109
109,test,1,inc,1,z,Thu Aug 07 2025 14:41:27 GMT-0500 (Central Daylight Time),366513.7000000477,rock,900,I,z,z,None,608,408.0,200.0,22,2,2045.3000000715256,364468.39999997616,8050,love,AF,B,363822,363822,362193,363114,362194,364239,363622,363622,364239,110
110,test,1,inc,1,m,Thu Aug 07 2025 14:41:27 GMT-0500 (Central Daylight Time),368729.5,hate,1100,I,m,m,None,566,367.0,199.0,96,2,2211.7999999523163,366517.7000000477,8050,film,AF,B,366072,366072,364243,365355,364243,366455,365872,365872,366455,111
111,test,1,inc,1,z,Thu Aug 07 2025 14:41:27 GMT-0500 (Central Daylight Time),370795.5,remote,1000,I,z,z,None,529,314.0,215.0,7,2,2062.2999999523163,368733.2000000477,8050,elated,AF,B,368204,368204,366458,367472,366459,368521,367989,367989,368521,112
112,test,1,con,1,z,Thu Aug 07 2025 14:41:27 GMT-0500 (Central Daylight Time),372861.7999999523,brutal,900,I,z,z,None,620,420.0,200.0,34,2,2062.5999999046326,370799.2000000477,8050,brutal,AF,B,370154,370154,368524,369437,368524,370587,369954,369954,370587,113
113,test,1,inc,1,z,Thu Aug 07 2025 14:41:27 GMT-0500 (Central Daylight Time),374910.7999999523,bell,1000,I,z,z,None,510,310.0,200.0,55,2,2045.2999999523163,372865.5,8050,rage,AF,B,372320,372320,370591,371603,370591,372636,372120,372120,372636,114
114,test,1,inc,1,z,Thu Aug 07 2025 14:41:27 GMT-0500 (Central Daylight Time),376843.7000000477,jacket,800,I,z,z,None,589,389.0,200.0,29,2,1929.1000000238419,374914.60000002384,8050,friend,AF,B,374169,374169,372640,373453,372640,374569,373969,373969,374569,115
115,test,1,con,1,m,Thu Aug 07 2025 14:41:27 GMT-0500 (Central Daylight Time),378943.0,film,1000,I,m,m,None,552,352.0,200.0,91,2,2095.5,376847.5,8050,film,AF,B,376302,376302,374572,375586,374573,376668,376102,376102,376668,116
116,test,1,inc,1,m,Thu Aug 07 2025 14:41:27 GMT-0500 (Central Daylight Time),381092.5,love,1000,I,m,m,None,605,405.0,200.0,87,2,2145.7000000476837,378946.7999999523,8050,bell,AF,B,378401,378401,376672,377685,376672,378818,378201,378201,378818,117
117,test,1,con,1,m,Thu Aug 07 2025 14:41:27 GMT-0500 (Central Daylight Time),383108.39999997616,jacket,1000,I,m,m,None,479,280.0,199.0,99,2,2012.1000000238419,381096.2999999523,8050,jacket,AF,B,380550,380550,378821,379834,378821,380834,380351,380351,380833,118
118,test,1,con,1,z,Thu Aug 07 2025 14:41:27 GMT-0500 (Central Daylight Time),385007.7999999523,love,900,I,z,z,None,450,251.0,199.0,18,2,1895.5,383112.2999999523,8050,love,AF,B,382467,382467,380837,381750,380838,382733,382267,382267,382733,119
119,test,1,con,1,z,Thu Aug 07 2025 14:41:27 GMT-0500 (Central Daylight Time),387073.89999997616,temper,1100,I,z,z,None,431,216.0,215.0,60,2,2062.5,385011.39999997616,8050,temper,AF,B,384566,384566,382736,383849,382737,384799,384350,384351,384799,120
120,test,1,inc,1,m,Thu Aug 07 2025 14:41:27 GMT-0500 (Central Daylight Time),389356.2000000477,friend,1100,I,m,m,None,549,344.0,205.0,112,2,2278.5,387077.7000000477,8050,napkin,AF,B,386734,386734,384803,385916,384803,387081,386529,386529,387081,121
121,test,1,con,1,z,Thu Aug 07 2025 14:41:27 GMT-0500 (Central Daylight Time),391505.60000002384,kind,1000,I,z,z,None,614,415.0,199.0,11,2,2145.399999976158,389360.2000000477,8050,kind,AF,B,388815,388815,387085,388098,387086,389231,388615,388615,389231,122
122,test,1,con,1,z,Thu Aug 07 2025 14:41:27 GMT-0500 (Central Daylight Time),393588.7000000477,elated,1100,I,z,z,None,447,247.0,200.0,4,2,2079.7000000476837,391509.0,8050,elated,AF,B,391064,391064,389234,390347,389234,391314,390864,390864,391314,123
123,test,1,inc,1,m,Thu Aug 07 2025 14:41:27 GMT-0500 (Central Daylight Time),395637.89999997616,elated,800,I,m,m,None,710,511.0,199.0,109,2,2045.6000000238419,393592.2999999523,8050,napkin,AF,B,392847,392847,391317,392130,391318,393363,392647,392647,393363,124
124,test,1,inc,1,z,Thu Aug 07 2025 14:41:27 GMT-0500 (Central Daylight Time),397853.89999997616,film,1100,I,z,z,None,579,379.0,200.0,16,2,2212.1999999284744,395641.7000000477,8050,kind,AF,B,395196,395196,393367,394480,393367,395579,394996,394996,395579,125
125,test,1,inc,1,z,Thu Aug 07 2025 14:41:27 GMT-0500 (Central Daylight Time),399736.7000000477,jacket,800,I,z,z,None,534,334.0,200.0,5,2,1879.0,397857.7000000477,8050,elated,AF,B,397112,397112,395583,396397,395583,397462,396912,396912,397462,126
126,test,1,con,1,m,Thu Aug 07 2025 14:41:27 GMT-0500 (Central Daylight Time),401936.0,step,1100,I,m,m,None,550,351.0,199.0,68,2,2195.7000000476837,399740.2999999523,8050,step,AF,B,399295,399295,397465,398578,397466,399661,399095,399095,399661,127
127,test,1,inc,1,z,Thu Aug 07 2025 14:41:27 GMT-0500 (Central Daylight Time),403751.89999997616,step,800,I,z,z,None,469,269.0,200.0,21,2,1812.1999999284744,401939.7000000477,8050,love,AF,B,401194,401194,399665,400478,399665,401477,400994,400994,401477,128
