acc_sum,block,block_c,change,condition,correct,correct_response,datetime,endtime,face,project,response,response_time,row_sel,session_number,start_end,starttime,subject_id,task,task_vers,trial
0,prac,1,,1-Back,,,Wed Jul 02 2025 13:24:08 GMT-0500 (Central Daylight Time),,050_m_f_n_a.png,I,space,19893,1,1,,,8056,NNB,A,0
1,prac,1,0.0,1-Back,1,m,Wed Jul 02 2025 13:24:08 GMT-0500 (Central Daylight Time),135634.5,063_y_f_n_a.png,I,m,994,2,1,1787.7999999821186,133846.70000001788,8056,NNB,A,1
2,prac,1,1.0,1-Back,1,z,Wed Jul 02 2025 13:24:08 GMT-0500 (Central Daylight Time),137433.30000001192,063_y_f_n_a.png,I,z,1012,3,1,1787.300000011921,135646.0,8056,NNB,A,2
3,prac,1,0.0,1-Back,1,m,Wed Jul 02 2025 13:24:08 GMT-0500 (Central Daylight Time),140115.0,053_o_m_n_a.png,I,m,1872,4,1,2671.0999999940395,137443.90000000596,8056,NNB,A,3
3,prac,1,0.0,1-Back,0,m,Wed Jul 02 2025 13:24:08 GMT-0500 (Central Daylight Time),141616.40000000596,058_m_m_n_a.png,I,z,694,5,1,1489.2999999821186,140127.10000002384,8056,NNB,A,4
4,prac,1,1.0,1-Back,1,z,Wed Jul 02 2025 13:24:08 GMT-0500 (Central Daylight Time),143414.0,058_m_m_n_a.png,I,z,1015,6,1,1787.5,141626.5,8056,NNB,A,5
5,prac,1,0.0,1-Back,1,m,Wed Jul 02 2025 13:24:08 GMT-0500 (Central Daylight Time),145415.40000000596,047_o_f_n_a.png,I,m,1186,7,1,1992.0,143423.40000000596,8056,NNB,A,6
5,prac,1,0.0,1-Back,0,m,Wed Jul 02 2025 13:24:08 GMT-0500 (Central Daylight Time),147396.90000000596,045_m_m_n_a.png,I,z,1171,8,1,1969.7999999821186,145427.10000002384,8056,NNB,A,7
6,prac,1,0.0,1-Back,1,m,Wed Jul 02 2025 13:24:08 GMT-0500 (Central Daylight Time),149528.40000000596,050_m_f_n_a.png,I,m,1355,9,1,2120.2999999821186,147408.10000002384,8056,NNB,A,8
7,prac,1,1.0,1-Back,1,z,Wed Jul 02 2025 13:24:08 GMT-0500 (Central Daylight Time),151010.5,050_m_f_n_a.png,I,z,694,10,1,1471.5,149539.0,8056,NNB,A,9
8,prac,1,0.0,1-Back,1,m,Wed Jul 02 2025 13:24:08 GMT-0500 (Central Daylight Time),153278.5,053_o_m_n_a.png,I,m,1481,11,1,2262.0,151016.5,8056,NNB,A,10
9,prac,1,0.0,1-Back,1,m,Wed Jul 02 2025 13:24:08 GMT-0500 (Central Daylight Time),155578.60000002384,010_y_f_n_a.png,I,m,1466,12,1,2289.9000000059605,153288.70000001788,8056,NNB,A,11
0,test,1,0.0,1-Back,,,Wed Jul 02 2025 13:24:08 GMT-0500 (Central Daylight Time),155578.60000002384,063_y_f_n_a.png,I,space,2684,1,1,2289.9000000059605,153288.70000001788,8056,NNB,A,0
1,test,1,0.0,1-Back,1,m,Wed Jul 02 2025 13:24:08 GMT-0500 (Central Daylight Time),167306.40000000596,043_m_f_n_a.png,I,m,924,2,1,1936.9000000059605,165369.5,8056,NNB,A,1
2,test,1,0.0,1-Back,1,m,Wed Jul 02 2025 13:24:08 GMT-0500 (Central Daylight Time),169641.10000002384,010_y_f_n_a.png,I,m,1301,3,1,2324.100000023842,167317.0,8056,NNB,A,2
3,test,1,1.0,1-Back,1,z,Wed Jul 02 2025 13:24:08 GMT-0500 (Central Daylight Time),171439.30000001192,010_y_f_n_a.png,I,z,770,4,1,1789.0999999940395,169650.20000001788,8056,NNB,A,3
4,test,1,0.0,1-Back,1,m,Wed Jul 02 2025 13:24:08 GMT-0500 (Central Daylight Time),173438.60000002384,043_m_f_n_a.png,I,m,971,5,1,1990.1000000238419,171448.5,8056,NNB,A,4
5,test,1,0.0,1-Back,1,m,Wed Jul 02 2025 13:24:08 GMT-0500 (Central Daylight Time),175339.80000001192,053_o_m_n_a.png,I,m,874,6,1,1891.4000000059605,173448.40000000596,8056,NNB,A,5
6,test,1,1.0,1-Back,1,z,Wed Jul 02 2025 13:24:08 GMT-0500 (Central Daylight Time),176971.70000001788,053_o_m_n_a.png,I,z,616,7,1,1622.2000000178814,175349.5,8056,NNB,A,6
7,test,1,0.0,1-Back,1,m,Wed Jul 02 2025 13:24:08 GMT-0500 (Central Daylight Time),178869.20000001788,058_m_m_n_a.png,I,m,877,8,1,1886.800000011921,176982.40000000596,8056,NNB,A,7
8,test,1,0.0,1-Back,1,m,Wed Jul 02 2025 13:24:08 GMT-0500 (Central Daylight Time),181337.10000002384,047_o_f_n_a.png,I,m,1437,9,1,2458.300000011921,178878.80000001192,8056,NNB,A,8
9,test,1,0.0,1-Back,1,m,Wed Jul 02 2025 13:24:08 GMT-0500 (Central Daylight Time),183435.80000001192,058_m_m_n_a.png,I,m,1073,10,1,2088.0,181347.80000001192,8056,NNB,A,9
10,test,1,0.0,1-Back,1,m,Wed Jul 02 2025 13:24:08 GMT-0500 (Central Daylight Time),185219.80000001192,041_y_m_n_a.png,I,m,766,11,1,1773.5,183446.30000001192,8056,NNB,A,10
11,test,1,1.0,1-Back,1,z,Wed Jul 02 2025 13:24:08 GMT-0500 (Central Daylight Time),186933.60000002384,041_y_m_n_a.png,I,z,686,12,1,1704.300000011921,185229.30000001192,8056,NNB,A,11
12,test,1,0.0,1-Back,1,m,Wed Jul 02 2025 13:24:08 GMT-0500 (Central Daylight Time),188633.80000001192,044_o_f_n_a.png,I,m,666,13,1,1691.199999988079,186942.60000002384,8056,NNB,A,12
13,test,1,1.0,1-Back,1,z,Wed Jul 02 2025 13:24:08 GMT-0500 (Central Daylight Time),190434.5,044_o_f_n_a.png,I,z,782,14,1,1791.8999999761581,188642.60000002384,8056,NNB,A,13
14,test,1,0.0,1-Back,1,m,Wed Jul 02 2025 13:24:08 GMT-0500 (Central Daylight Time),192467.90000000596,008_y_m_n_a.png,I,m,1007,15,1,2022.7999999821186,190445.10000002384,8056,NNB,A,14
15,test,1,0.0,1-Back,1,m,Wed Jul 02 2025 13:24:08 GMT-0500 (Central Daylight Time),194381.10000002384,050_m_f_n_a.png,I,m,894,16,1,1900.800000011921,192480.30000001192,8056,NNB,A,15
16,test,1,0.0,1-Back,1,m,Wed Jul 02 2025 13:24:08 GMT-0500 (Central Daylight Time),196380.5,046_o_m_n_a.png,I,m,981,17,1,1992.3999999761581,194388.10000002384,8056,NNB,A,16
17,test,1,0.0,1-Back,1,m,Wed Jul 02 2025 13:24:08 GMT-0500 (Central Daylight Time),197997.10000002384,050_m_f_n_a.png,I,m,586,18,1,1609.300000011921,196387.80000001192,8056,NNB,A,17
0,test,2,0.0,1-Back,,,Wed Jul 02 2025 13:24:08 GMT-0500 (Central Daylight Time),197997.10000002384,058_m_m_n_a.png,I,space,2565,1,1,1609.300000011921,196387.80000001192,8056,NNB,A,0
1,test,2,0.0,1-Back,1,m,Wed Jul 02 2025 13:24:08 GMT-0500 (Central Daylight Time),204427.80000001192,043_m_f_n_a.png,I,m,832,2,1,1841.5999999940395,202586.20000001788,8056,NNB,A,1
2,test,2,1.0,1-Back,1,z,Wed Jul 02 2025 13:24:08 GMT-0500 (Central Daylight Time),206179.80000001192,043_m_f_n_a.png,I,z,733,3,1,1741.0,204438.80000001192,8056,NNB,A,2
3,test,2,0.0,1-Back,1,m,Wed Jul 02 2025 13:24:08 GMT-0500 (Central Daylight Time),208377.40000000596,058_m_m_n_a.png,I,m,1176,4,1,2187.4000000059605,206190.0,8056,NNB,A,3
4,test,2,0.0,1-Back,1,m,Wed Jul 02 2025 13:24:08 GMT-0500 (Central Daylight Time),210110.30000001192,041_y_m_n_a.png,I,m,711,5,1,1723.199999988079,208387.10000002384,8056,NNB,A,4
5,test,2,0.0,1-Back,1,m,Wed Jul 02 2025 13:24:08 GMT-0500 (Central Daylight Time),211976.0,063_y_f_n_a.png,I,m,842,6,1,1856.199999988079,210119.80000001192,8056,NNB,A,5
6,test,2,1.0,1-Back,1,z,Wed Jul 02 2025 13:24:08 GMT-0500 (Central Daylight Time),213693.40000000596,063_y_f_n_a.png,I,z,700,7,1,1706.5,211986.90000000596,8056,NNB,A,6
7,test,2,0.0,1-Back,1,m,Wed Jul 02 2025 13:24:08 GMT-0500 (Central Daylight Time),215390.90000000596,041_y_m_n_a.png,I,m,677,8,1,1687.9000000059605,213703.0,8056,NNB,A,7
8,test,2,0.0,1-Back,1,m,Wed Jul 02 2025 13:24:08 GMT-0500 (Central Daylight Time),217172.80000001192,044_o_f_n_a.png,I,m,753,9,1,1773.5,215399.30000001192,8056,NNB,A,8
9,test,2,0.0,1-Back,1,m,Wed Jul 02 2025 13:24:08 GMT-0500 (Central Daylight Time),218873.40000000596,045_m_m_n_a.png,I,m,667,10,1,1693.2999999821186,217180.10000002384,8056,NNB,A,9
10,test,2,1.0,1-Back,1,z,Wed Jul 02 2025 13:24:08 GMT-0500 (Central Daylight Time),220640.40000000596,045_m_m_n_a.png,I,z,733,11,1,1756.5999999940395,218883.80000001192,8056,NNB,A,10
11,test,2,0.0,1-Back,1,m,Wed Jul 02 2025 13:24:08 GMT-0500 (Central Daylight Time),222289.30000001192,044_o_f_n_a.png,I,m,616,12,1,1640.0,220649.30000001192,8056,NNB,A,11
12,test,2,0.0,1-Back,1,m,Wed Jul 02 2025 13:24:08 GMT-0500 (Central Daylight Time),224123.90000000596,047_o_f_n_a.png,I,m,816,13,1,1826.4000000059605,222297.5,8056,NNB,A,12
13,test,2,0.0,1-Back,1,m,Wed Jul 02 2025 13:24:08 GMT-0500 (Central Daylight Time),225804.20000001788,053_o_m_n_a.png,I,m,650,14,1,1672.800000011921,224131.40000000596,8056,NNB,A,13
14,test,2,0.0,1-Back,1,m,Wed Jul 02 2025 13:24:08 GMT-0500 (Central Daylight Time),227554.5,046_o_m_n_a.png,I,m,733,15,1,1741.5,225813.0,8056,NNB,A,14
15,test,2,1.0,1-Back,1,z,Wed Jul 02 2025 13:24:08 GMT-0500 (Central Daylight Time),229269.80000001192,046_o_m_n_a.png,I,z,694,16,1,1707.4000000059605,227562.40000000596,8056,NNB,A,15
16,test,2,0.0,1-Back,1,m,Wed Jul 02 2025 13:24:08 GMT-0500 (Central Daylight Time),230886.60000002384,008_y_m_n_a.png,I,m,584,17,1,1608.2000000178814,229278.40000000596,8056,NNB,A,16
17,test,2,1.0,1-Back,1,z,Wed Jul 02 2025 13:24:08 GMT-0500 (Central Daylight Time),232452.60000002384,008_y_m_n_a.png,I,z,537,18,1,1555.800000011921,230896.80000001192,8056,NNB,A,17
0,test,3,1.0,1-Back,,,Wed Jul 02 2025 13:24:08 GMT-0500 (Central Daylight Time),232452.60000002384,010_y_f_n_a.png,I,space,1061,1,1,1555.800000011921,230896.80000001192,8056,NNB,A,0
1,test,3,0.0,1-Back,1,m,Wed Jul 02 2025 13:24:08 GMT-0500 (Central Daylight Time),237367.40000000596,046_o_m_n_a.png,I,m,751,2,1,1772.4000000059605,235595.0,8056,NNB,A,1
2,test,3,1.0,1-Back,1,z,Wed Jul 02 2025 13:24:08 GMT-0500 (Central Daylight Time),239117.70000001788,046_o_m_n_a.png,I,z,720,3,1,1741.7000000178814,237376.0,8056,NNB,A,2
3,test,3,0.0,1-Back,1,m,Wed Jul 02 2025 13:24:08 GMT-0500 (Central Daylight Time),240799.20000001788,050_m_f_n_a.png,I,m,652,4,1,1673.0,239126.20000001788,8056,NNB,A,3
4,test,3,1.0,1-Back,1,z,Wed Jul 02 2025 13:24:08 GMT-0500 (Central Daylight Time),242599.30000001192,050_m_f_n_a.png,I,z,775,5,1,1791.0999999940395,240808.20000001788,8056,NNB,A,4
5,test,3,0.0,1-Back,1,m,Wed Jul 02 2025 13:24:08 GMT-0500 (Central Daylight Time),244216.10000002384,044_o_f_n_a.png,I,m,593,6,1,1605.800000011921,242610.30000001192,8056,NNB,A,5
6,test,3,0.0,1-Back,1,m,Wed Jul 02 2025 13:24:08 GMT-0500 (Central Daylight Time),245847.70000001788,041_y_m_n_a.png,I,m,609,7,1,1625.5999999940395,244222.10000002384,8056,NNB,A,6
7,test,3,0.0,1-Back,1,m,Wed Jul 02 2025 13:24:08 GMT-0500 (Central Daylight Time),247698.5,044_o_f_n_a.png,I,m,824,8,1,1842.5999999940395,245855.90000000596,8056,NNB,A,7
8,test,3,0.0,1-Back,1,m,Wed Jul 02 2025 13:24:08 GMT-0500 (Central Daylight Time),249362.70000001788,008_y_m_n_a.png,I,m,638,9,1,1654.4000000059605,247708.30000001192,8056,NNB,A,8
9,test,3,1.0,1-Back,1,z,Wed Jul 02 2025 13:24:08 GMT-0500 (Central Daylight Time),251029.10000002384,008_y_m_n_a.png,I,z,642,10,1,1656.5,249372.60000002384,8056,NNB,A,9
10,test,3,0.0,1-Back,1,m,Wed Jul 02 2025 13:24:08 GMT-0500 (Central Daylight Time),252712.70000001788,043_m_f_n_a.png,I,m,649,11,1,1674.0,251038.70000001788,8056,NNB,A,10
11,test,3,0.0,1-Back,1,m,Wed Jul 02 2025 13:24:08 GMT-0500 (Central Daylight Time),254761.60000002384,063_y_f_n_a.png,I,m,1023,12,1,2038.7000000178814,252722.90000000596,8056,NNB,A,11
12,test,3,1.0,1-Back,1,z,Wed Jul 02 2025 13:24:08 GMT-0500 (Central Daylight Time),256444.70000001788,063_y_f_n_a.png,I,z,649,13,1,1672.5,254772.20000001788,8056,NNB,A,12
13,test,3,0.0,1-Back,1,m,Wed Jul 02 2025 13:24:08 GMT-0500 (Central Daylight Time),258059.90000000596,043_m_f_n_a.png,I,m,587,14,1,1604.4000000059605,256455.5,8056,NNB,A,13
14,test,3,0.0,1-Back,1,m,Wed Jul 02 2025 13:24:08 GMT-0500 (Central Daylight Time),260011.80000001192,058_m_m_n_a.png,I,m,932,15,1,1942.9000000059605,258068.90000000596,8056,NNB,A,14
15,test,3,1.0,1-Back,1,z,Wed Jul 02 2025 13:24:08 GMT-0500 (Central Daylight Time),261526.90000000596,058_m_m_n_a.png,I,z,486,16,1,1504.699999988079,260022.20000001788,8056,NNB,A,15
16,test,3,0.0,1-Back,1,m,Wed Jul 02 2025 13:24:08 GMT-0500 (Central Daylight Time),263193.2000000179,047_o_f_n_a.png,I,m,633,17,1,1655.2000000178814,261538.0,8056,NNB,A,16
17,test,3,1.0,1-Back,1,z,Wed Jul 02 2025 13:24:08 GMT-0500 (Central Daylight Time),264957.8000000119,047_o_f_n_a.png,I,z,743,18,1,1755.199999988079,263202.60000002384,8056,NNB,A,17
0,test,4,1.0,1-Back,,,Wed Jul 02 2025 13:24:08 GMT-0500 (Central Daylight Time),264957.8000000119,050_m_f_n_a.png,I,space,954,1,1,1755.199999988079,263202.60000002384,8056,NNB,A,0
1,test,4,0.0,1-Back,1,m,Wed Jul 02 2025 13:24:08 GMT-0500 (Central Daylight Time),269641.10000002384,046_o_m_n_a.png,I,m,675,2,1,1690.5,267950.60000002384,8056,NNB,A,1
2,test,4,0.0,1-Back,1,m,Wed Jul 02 2025 13:24:08 GMT-0500 (Central Daylight Time),271956.40000000596,050_m_f_n_a.png,I,m,1288,3,1,2305.0,269651.40000000596,8056,NNB,A,2
3,test,4,0.0,1-Back,1,m,Wed Jul 02 2025 13:24:08 GMT-0500 (Central Daylight Time),273807.7000000179,044_o_f_n_a.png,I,m,818,4,1,1841.5999999940395,271966.10000002384,8056,NNB,A,3
4,test,4,1.0,1-Back,1,z,Wed Jul 02 2025 13:24:08 GMT-0500 (Central Daylight Time),275506.7000000179,044_o_f_n_a.png,I,z,684,5,1,1689.7000000178814,273817.0,8056,NNB,A,4
5,test,4,0.0,1-Back,1,m,Wed Jul 02 2025 13:24:08 GMT-0500 (Central Daylight Time),277355.60000002384,063_y_f_n_a.png,I,m,833,6,1,1840.9000000059605,275514.7000000179,8056,NNB,A,5
6,test,4,0.0,1-Back,1,m,Wed Jul 02 2025 13:24:08 GMT-0500 (Central Daylight Time),279054.0,041_y_m_n_a.png,I,m,677,7,1,1691.2999999821186,277362.7000000179,8056,NNB,A,6
6,test,4,1.0,1-Back,0,z,Wed Jul 02 2025 13:24:08 GMT-0500 (Central Daylight Time),280604.2000000179,041_y_m_n_a.png,I,m,524,8,1,1541.5,279062.7000000179,8056,NNB,A,7
7,test,4,0.0,1-Back,1,m,Wed Jul 02 2025 13:24:08 GMT-0500 (Central Daylight Time),282436.7000000179,063_y_f_n_a.png,I,m,805,9,1,1825.4000000059605,280611.3000000119,8056,NNB,A,8
8,test,4,0.0,1-Back,1,m,Wed Jul 02 2025 13:24:08 GMT-0500 (Central Daylight Time),284086.2000000179,045_m_m_n_a.png,I,m,629,10,1,1639.300000011921,282446.90000000596,8056,NNB,A,9
9,test,4,1.0,1-Back,1,z,Wed Jul 02 2025 13:24:08 GMT-0500 (Central Daylight Time),285536.3000000119,045_m_m_n_a.png,I,z,424,11,1,1442.0,284094.3000000119,8056,NNB,A,10
10,test,4,0.0,1-Back,1,m,Wed Jul 02 2025 13:24:08 GMT-0500 (Central Daylight Time),287319.90000000596,047_o_f_n_a.png,I,m,754,12,1,1773.0999999940395,285546.8000000119,8056,NNB,A,11
11,test,4,0.0,1-Back,1,m,Wed Jul 02 2025 13:24:08 GMT-0500 (Central Daylight Time),288900.5,053_o_m_n_a.png,I,m,555,13,1,1570.2999999821186,287330.2000000179,8056,NNB,A,12
12,test,4,0.0,1-Back,1,m,Wed Jul 02 2025 13:24:08 GMT-0500 (Central Daylight Time),290683.7000000179,047_o_f_n_a.png,I,m,749,14,1,1772.5999999940395,288911.10000002384,8056,NNB,A,13
13,test,4,0.0,1-Back,1,m,Wed Jul 02 2025 13:24:08 GMT-0500 (Central Daylight Time),292416.0,010_y_f_n_a.png,I,m,708,15,1,1722.699999988079,290693.3000000119,8056,NNB,A,14
14,test,4,1.0,1-Back,1,z,Wed Jul 02 2025 13:24:08 GMT-0500 (Central Daylight Time),294050.10000002384,010_y_f_n_a.png,I,z,599,16,1,1625.2000000178814,292424.90000000596,8056,NNB,A,15
15,test,4,0.0,1-Back,1,m,Wed Jul 02 2025 13:24:08 GMT-0500 (Central Daylight Time),295732.2000000179,043_m_f_n_a.png,I,m,664,17,1,1671.4000000059605,294060.8000000119,8056,NNB,A,16
16,test,4,1.0,1-Back,1,z,Wed Jul 02 2025 13:24:08 GMT-0500 (Central Daylight Time),297398.7000000179,043_m_f_n_a.png,I,z,633,18,1,1658.0,295740.7000000179,8056,NNB,A,17
0,test,5,1.0,1-Back,,,Wed Jul 02 2025 13:24:08 GMT-0500 (Central Daylight Time),297398.7000000179,053_o_m_n_a.png,I,space,1369,1,1,1658.0,295740.7000000179,8056,NNB,A,0
1,test,5,1.0,1-Back,1,z,Wed Jul 02 2025 13:24:08 GMT-0500 (Central Daylight Time),302730.60000002384,053_o_m_n_a.png,I,z,907,2,1,1922.6000000238419,300808.0,8056,NNB,A,1
2,test,5,0.0,1-Back,1,m,Wed Jul 02 2025 13:24:08 GMT-0500 (Central Daylight Time),304830.40000000596,063_y_f_n_a.png,I,m,1070,3,1,2090.2999999821186,302740.10000002384,8056,NNB,A,2
3,test,5,0.0,1-Back,1,m,Wed Jul 02 2025 13:24:08 GMT-0500 (Central Daylight Time),306461.8000000119,041_y_m_n_a.png,I,m,612,4,1,1621.699999988079,304840.10000002384,8056,NNB,A,3
4,test,5,0.0,1-Back,1,m,Wed Jul 02 2025 13:24:08 GMT-0500 (Central Daylight Time),308461.8000000119,063_y_f_n_a.png,I,m,979,5,1,1989.0999999940395,306472.7000000179,8056,NNB,A,4
5,test,5,0.0,1-Back,1,m,Wed Jul 02 2025 13:24:08 GMT-0500 (Central Daylight Time),310194.2000000179,058_m_m_n_a.png,I,m,707,6,1,1725.5999999940395,308468.60000002384,8056,NNB,A,5
5,test,5,1.0,1-Back,0,z,Wed Jul 02 2025 13:24:08 GMT-0500 (Central Daylight Time),312730.7000000179,058_m_m_n_a.png,I,m,1510,7,1,2526.0,310204.7000000179,8056,NNB,A,6
6,test,5,0.0,1-Back,1,m,Wed Jul 02 2025 13:24:08 GMT-0500 (Central Daylight Time),314992.0,010_y_f_n_a.png,I,m,1240,8,1,2253.7999999821186,312738.2000000179,8056,NNB,A,7
7,test,5,0.0,1-Back,1,m,Wed Jul 02 2025 13:24:08 GMT-0500 (Central Daylight Time),316775.5,008_y_m_n_a.png,I,m,759,9,1,1774.2999999821186,315001.2000000179,8056,NNB,A,8
8,test,5,0.0,1-Back,1,m,Wed Jul 02 2025 13:24:08 GMT-0500 (Central Daylight Time),318759.10000002384,010_y_f_n_a.png,I,m,952,10,1,1973.6000000238419,316785.5,8056,NNB,A,9
9,test,5,0.0,1-Back,1,m,Wed Jul 02 2025 13:24:08 GMT-0500 (Central Daylight Time),320491.5,047_o_f_n_a.png,I,m,706,11,1,1723.3999999761581,318768.10000002384,8056,NNB,A,10
10,test,5,1.0,1-Back,1,z,Wed Jul 02 2025 13:24:08 GMT-0500 (Central Daylight Time),322340.7000000179,047_o_f_n_a.png,I,z,821,12,1,1839.5999999940395,320501.10000002384,8056,NNB,A,11
11,test,5,0.0,1-Back,1,m,Wed Jul 02 2025 13:24:08 GMT-0500 (Central Daylight Time),324092.10000002384,046_o_m_n_a.png,I,m,734,13,1,1742.7000000178814,322349.40000000596,8056,NNB,A,12
12,test,5,0.0,1-Back,1,m,Wed Jul 02 2025 13:24:08 GMT-0500 (Central Daylight Time),325888.8000000119,050_m_f_n_a.png,I,m,774,14,1,1786.800000011921,324102.0,8056,NNB,A,13
13,test,5,1.0,1-Back,1,z,Wed Jul 02 2025 13:24:08 GMT-0500 (Central Daylight Time),327655.0,050_m_f_n_a.png,I,z,742,15,1,1756.3999999761581,325898.60000002384,8056,NNB,A,14
14,test,5,0.0,1-Back,1,m,Wed Jul 02 2025 13:24:08 GMT-0500 (Central Daylight Time),329488.5,046_o_m_n_a.png,I,m,800,16,1,1824.0999999940395,327664.40000000596,8056,NNB,A,15
15,test,5,0.0,1-Back,1,m,Wed Jul 02 2025 13:24:08 GMT-0500 (Central Daylight Time),331355.2000000179,043_m_f_n_a.png,I,m,841,17,1,1856.5,329498.7000000179,8056,NNB,A,16
16,test,5,0.0,1-Back,1,m,Wed Jul 02 2025 13:24:08 GMT-0500 (Central Daylight Time),332971.2000000179,045_m_m_n_a.png,I,m,590,18,1,1606.7000000178814,331364.5,8056,NNB,A,17
0,prac,1,0.0,2-Back,,,Wed Jul 02 2025 13:24:08 GMT-0500 (Central Daylight Time),332971.2000000179,008_y_m_n_a.png,I,space,6206,1,1,1606.7000000178814,331364.5,8056,NNB,A,0
0,prac,1,0.0,2-Back,,,Wed Jul 02 2025 13:24:08 GMT-0500 (Central Daylight Time),332971.2000000179,043_m_f_n_a.png,I,space,6206,2,1,1606.7000000178814,331364.5,8056,NNB,A,0
1,prac,1,1.0,2-Back,1,m,Wed Jul 02 2025 13:24:08 GMT-0500 (Central Daylight Time),442321.2000000179,046_o_m_n_a.png,I,m,1157,3,1,1939.0999999940395,440382.10000002384,8056,NNB,A,1
2,prac,1,0.0,2-Back,1,m,Wed Jul 02 2025 13:24:08 GMT-0500 (Central Daylight Time),444684.7000000179,047_o_f_n_a.png,I,m,1534,4,1,2352.7000000178814,442332.0,8056,NNB,A,2
3,prac,1,0.0,2-Back,1,z,Wed Jul 02 2025 13:24:08 GMT-0500 (Central Daylight Time),446501.8000000119,046_o_m_n_a.png,I,z,1027,5,1,1807.0999999940395,444694.7000000179,8056,NNB,A,3
4,prac,1,1.0,2-Back,1,z,Wed Jul 02 2025 13:24:08 GMT-0500 (Central Daylight Time),448551.3000000119,047_o_f_n_a.png,I,z,1258,6,1,2039.5999999940395,446511.7000000179,8056,NNB,A,4
5,prac,1,0.0,2-Back,1,m,Wed Jul 02 2025 13:24:08 GMT-0500 (Central Daylight Time),450350.90000000596,045_m_m_n_a.png,I,m,1001,7,1,1787.7999999821186,448563.10000002384,8056,NNB,A,5
6,prac,1,0.0,2-Back,1,m,Wed Jul 02 2025 13:24:08 GMT-0500 (Central Daylight Time),452115.8000000119,053_o_m_n_a.png,I,m,949,8,1,1754.4000000059605,450361.40000000596,8056,NNB,A,6
7,prac,1,0.0,2-Back,1,m,Wed Jul 02 2025 13:24:08 GMT-0500 (Central Daylight Time),454615.10000002384,010_y_f_n_a.png,I,m,1725,9,1,2489.9000000059605,452125.2000000179,8056,NNB,A,7
8,prac,1,1.0,2-Back,1,z,Wed Jul 02 2025 13:24:08 GMT-0500 (Central Daylight Time),456399.5,053_o_m_n_a.png,I,z,1008,10,1,1774.699999988079,454624.8000000119,8056,NNB,A,8
9,prac,1,0.0,2-Back,1,m,Wed Jul 02 2025 13:24:08 GMT-0500 (Central Daylight Time),458164.8000000119,063_y_f_n_a.png,I,m,958,11,1,1756.0,456408.8000000119,8056,NNB,A,9
10,prac,1,0.0,2-Back,1,m,Wed Jul 02 2025 13:24:08 GMT-0500 (Central Daylight Time),459830.10000002384,045_m_m_n_a.png,I,m,873,12,1,1654.300000011921,458175.8000000119,8056,NNB,A,10
0,test,1,0.0,2-Back,,,Wed Jul 02 2025 13:24:08 GMT-0500 (Central Daylight Time),459830.10000002384,041_y_m_n_a.png,I,space,4033,1,1,1654.300000011921,458175.8000000119,8056,NNB,A,0
0,test,1,0.0,2-Back,,,Wed Jul 02 2025 13:24:08 GMT-0500 (Central Daylight Time),459830.10000002384,041_y_m_n_a.png,I,space,4033,2,1,1654.300000011921,458175.8000000119,8056,NNB,A,0
1,test,1,0.0,2-Back,1,m,Wed Jul 02 2025 13:24:08 GMT-0500 (Central Daylight Time),476425.40000000596,047_o_f_n_a.png,I,m,750,3,1,1772.2999999821186,474653.10000002384,8056,NNB,A,1
2,test,1,0.0,2-Back,1,m,Wed Jul 02 2025 13:24:08 GMT-0500 (Central Daylight Time),478675.3000000119,058_m_m_n_a.png,I,m,1232,4,1,2240.0999999940395,476435.2000000179,8056,NNB,A,2
2,test,1,1.0,2-Back,0,z,Wed Jul 02 2025 13:24:08 GMT-0500 (Central Daylight Time),481707.0,047_o_f_n_a.png,I,None,2016,5,1,3022.7999999821186,478684.2000000179,8056,NNB,A,3
3,test,1,0.0,2-Back,1,m,Wed Jul 02 2025 13:24:08 GMT-0500 (Central Daylight Time),483722.3000000119,063_y_f_n_a.png,I,m,990,6,1,2006.199999988079,481716.10000002384,8056,NNB,A,4
3,test,1,0.0,2-Back,0,m,Wed Jul 02 2025 13:24:08 GMT-0500 (Central Daylight Time),486122.90000000596,058_m_m_n_a.png,I,z,1383,7,1,2390.5,483732.40000000596,8056,NNB,A,5
3,test,1,1.0,2-Back,0,z,Wed Jul 02 2025 13:24:08 GMT-0500 (Central Daylight Time),488939.5,063_y_f_n_a.png,I,m,1784,8,1,2809.7999999821186,486129.7000000179,8056,NNB,A,6
3,test,1,0.0,2-Back,0,m,Wed Jul 02 2025 13:24:08 GMT-0500 (Central Daylight Time),491971.0,008_y_m_n_a.png,I,None,2016,9,1,3020.699999988079,488950.3000000119,8056,NNB,A,7
4,test,1,0.0,2-Back,1,m,Wed Jul 02 2025 13:24:08 GMT-0500 (Central Daylight Time),494852.7000000179,044_o_f_n_a.png,I,m,1854,10,1,2870.7000000178814,491982.0,8056,NNB,A,8
5,test,1,1.0,2-Back,1,z,Wed Jul 02 2025 13:24:08 GMT-0500 (Central Daylight Time),496651.2000000179,008_y_m_n_a.png,I,z,772,11,1,1789.0,494862.2000000179,8056,NNB,A,9
5,test,1,0.0,2-Back,0,m,Wed Jul 02 2025 13:24:08 GMT-0500 (Central Daylight Time),498668.0,043_m_f_n_a.png,I,z,989,12,1,2006.699999988079,496661.3000000119,8056,NNB,A,10
5,test,1,0.0,2-Back,0,m,Wed Jul 02 2025 13:24:08 GMT-0500 (Central Daylight Time),501699.60000002384,043_m_f_n_a.png,I,None,2015,13,1,3021.800000011921,498677.8000000119,8056,NNB,A,11
6,test,1,0.0,2-Back,1,m,Wed Jul 02 2025 13:24:08 GMT-0500 (Central Daylight Time),503832.2000000179,046_o_m_n_a.png,I,m,1109,14,1,2121.300000011921,501710.90000000596,8056,NNB,A,12
7,test,1,0.0,2-Back,1,m,Wed Jul 02 2025 13:24:08 GMT-0500 (Central Daylight Time),506364.5,044_o_f_n_a.png,I,m,1514,15,1,2523.399999976158,503841.10000002384,8056,NNB,A,13
8,test,1,1.0,2-Back,1,z,Wed Jul 02 2025 13:24:08 GMT-0500 (Central Daylight Time),508881.10000002384,046_o_m_n_a.png,I,z,1492,16,1,2506.5,506374.60000002384,8056,NNB,A,14
9,test,1,0.0,2-Back,1,m,Wed Jul 02 2025 13:24:08 GMT-0500 (Central Daylight Time),510597.90000000596,050_m_f_n_a.png,I,m,696,17,1,1706.7999999821186,508891.10000002384,8056,NNB,A,15
9,test,1,0.0,2-Back,0,m,Wed Jul 02 2025 13:24:08 GMT-0500 (Central Daylight Time),513629.8000000119,045_m_m_n_a.png,I,None,2015,18,1,3022.5,510607.3000000119,8056,NNB,A,16
0,test,2,0.0,2-Back,,,Wed Jul 02 2025 13:24:08 GMT-0500 (Central Daylight Time),513629.8000000119,045_m_m_n_a.png,I,space,35483,1,1,3022.5,510607.3000000119,8056,NNB,A,0
0,test,2,0.0,2-Back,,,Wed Jul 02 2025 13:24:08 GMT-0500 (Central Daylight Time),513629.8000000119,010_y_f_n_a.png,I,space,35483,2,1,3022.5,510607.3000000119,8056,NNB,A,0
1,test,2,1.0,2-Back,1,z,Wed Jul 02 2025 13:24:08 GMT-0500 (Central Daylight Time),556382.900000006,045_m_m_n_a.png,I,z,1134,3,1,2153.699999988079,554229.2000000179,8056,NNB,A,1
2,test,2,0.0,2-Back,1,m,Wed Jul 02 2025 13:24:08 GMT-0500 (Central Daylight Time),559348.3000000119,050_m_f_n_a.png,I,m,1940,4,1,2957.699999988079,556390.6000000238,8056,NNB,A,2
2,test,2,0.0,2-Back,0,m,Wed Jul 02 2025 13:24:08 GMT-0500 (Central Daylight Time),561564.1000000238,010_y_f_n_a.png,I,z,1197,5,1,2205.800000011921,559358.3000000119,8056,NNB,A,3
3,test,2,0.0,2-Back,1,m,Wed Jul 02 2025 13:24:08 GMT-0500 (Central Daylight Time),563749.3000000119,046_o_m_n_a.png,I,m,1167,6,1,2175.5999999940395,561573.7000000179,8056,NNB,A,4
4,test,2,0.0,2-Back,1,m,Wed Jul 02 2025 13:24:08 GMT-0500 (Central Daylight Time),566129.400000006,063_y_f_n_a.png,I,m,1348,7,1,2370.0,563759.400000006,8056,NNB,A,5
5,test,2,1.0,2-Back,1,z,Wed Jul 02 2025 13:24:08 GMT-0500 (Central Daylight Time),567994.400000006,046_o_m_n_a.png,I,z,837,8,1,1855.7999999821186,566138.6000000238,8056,NNB,A,6
5,test,2,0.0,2-Back,0,m,Wed Jul 02 2025 13:24:08 GMT-0500 (Central Daylight Time),571027.8000000119,008_y_m_n_a.png,I,None,2015,9,1,3024.199999988079,568003.6000000238,8056,NNB,A,7
6,test,2,0.0,2-Back,1,m,Wed Jul 02 2025 13:24:08 GMT-0500 (Central Daylight Time),573127.2000000179,008_y_m_n_a.png,I,m,1068,10,1,2088.7000000178814,571038.5,8056,NNB,A,8
7,test,2,0.0,2-Back,1,m,Wed Jul 02 2025 13:24:08 GMT-0500 (Central Daylight Time),575126.900000006,043_m_f_n_a.png,I,m,968,11,1,1989.7999999821186,573137.1000000238,8056,NNB,A,9
8,test,2,0.0,2-Back,1,m,Wed Jul 02 2025 13:24:08 GMT-0500 (Central Daylight Time),577192.8000000119,010_y_f_n_a.png,I,m,1033,12,1,2054.9000000059605,575137.900000006,8056,NNB,A,10
9,test,2,1.0,2-Back,1,z,Wed Jul 02 2025 13:24:08 GMT-0500 (Central Daylight Time),579059.6000000238,043_m_f_n_a.png,I,z,840,13,1,1855.800000011921,577203.8000000119,8056,NNB,A,11
10,test,2,0.0,2-Back,1,m,Wed Jul 02 2025 13:24:08 GMT-0500 (Central Daylight Time),580957.400000006,053_o_m_n_a.png,I,m,875,14,1,1888.199999988079,579069.2000000179,8056,NNB,A,12
11,test,2,0.0,2-Back,1,m,Wed Jul 02 2025 13:24:08 GMT-0500 (Central Daylight Time),583277.2000000179,053_o_m_n_a.png,I,m,1301,15,1,2310.0,580967.2000000179,8056,NNB,A,13
12,test,2,0.0,2-Back,1,m,Wed Jul 02 2025 13:24:08 GMT-0500 (Central Daylight Time),585622.8000000119,044_o_f_n_a.png,I,m,1325,16,1,2333.0999999940395,583289.7000000179,8056,NNB,A,14
13,test,2,0.0,2-Back,1,m,Wed Jul 02 2025 13:24:08 GMT-0500 (Central Daylight Time),587389.7000000179,058_m_m_n_a.png,I,m,747,17,1,1757.0,585632.7000000179,8056,NNB,A,15
14,test,2,1.0,2-Back,1,z,Wed Jul 02 2025 13:24:08 GMT-0500 (Central Daylight Time),589371.5,044_o_f_n_a.png,I,z,948,18,1,1971.8999999761581,587399.6000000238,8056,NNB,A,16
0,test,3,1.0,2-Back,,,Wed Jul 02 2025 13:24:08 GMT-0500 (Central Daylight Time),589371.5,041_y_m_n_a.png,I,space,1669,1,1,1971.8999999761581,587399.6000000238,8056,NNB,A,0
0,test,3,1.0,2-Back,,,Wed Jul 02 2025 13:24:08 GMT-0500 (Central Daylight Time),589371.5,041_y_m_n_a.png,I,space,1669,2,1,1971.8999999761581,587399.6000000238,8056,NNB,A,0
1,test,3,0.0,2-Back,1,m,Wed Jul 02 2025 13:24:08 GMT-0500 (Central Daylight Time),598118.7000000179,044_o_f_n_a.png,I,m,968,3,1,1989.2000000178814,596129.5,8056,NNB,A,1
2,test,3,0.0,2-Back,1,m,Wed Jul 02 2025 13:24:08 GMT-0500 (Central Daylight Time),600718.2000000179,045_m_m_n_a.png,I,m,1569,4,1,2589.7000000178814,598128.5,8056,NNB,A,2
3,test,3,1.0,2-Back,1,z,Wed Jul 02 2025 13:24:08 GMT-0500 (Central Daylight Time),602751.0,044_o_f_n_a.png,I,z,1010,5,1,2024.0999999940395,600726.900000006,8056,NNB,A,3
4,test,3,0.0,2-Back,1,m,Wed Jul 02 2025 13:24:08 GMT-0500 (Central Daylight Time),604917.0,008_y_m_n_a.png,I,m,1145,6,1,2156.5999999940395,602760.400000006,8056,NNB,A,4
5,test,3,0.0,2-Back,1,m,Wed Jul 02 2025 13:24:08 GMT-0500 (Central Daylight Time),607066.900000006,045_m_m_n_a.png,I,m,1134,7,1,2141.199999988079,604925.7000000179,8056,NNB,A,5
6,test,3,1.0,2-Back,1,z,Wed Jul 02 2025 13:24:08 GMT-0500 (Central Daylight Time),609315.7000000179,008_y_m_n_a.png,I,z,1222,8,1,2237.2000000178814,607078.5,8056,NNB,A,6
7,test,3,0.0,2-Back,1,m,Wed Jul 02 2025 13:24:08 GMT-0500 (Central Daylight Time),611398.0,010_y_f_n_a.png,I,m,1052,9,1,2072.199999988079,609325.8000000119,8056,NNB,A,7
8,test,3,0.0,2-Back,1,m,Wed Jul 02 2025 13:24:08 GMT-0500 (Central Daylight Time),613363.8000000119,058_m_m_n_a.png,I,m,944,10,1,1956.5999999940395,611407.2000000179,8056,NNB,A,8
9,test,3,1.0,2-Back,1,z,Wed Jul 02 2025 13:24:08 GMT-0500 (Central Daylight Time),615347.400000006,010_y_f_n_a.png,I,z,956,11,1,1973.4000000059605,613374.0,8056,NNB,A,9
10,test,3,1.0,2-Back,1,z,Wed Jul 02 2025 13:24:08 GMT-0500 (Central Daylight Time),617779.0,058_m_m_n_a.png,I,z,1406,12,1,2421.899999976158,615357.1000000238,8056,NNB,A,10
11,test,3,0.0,2-Back,1,m,Wed Jul 02 2025 13:24:08 GMT-0500 (Central Daylight Time),619678.900000006,044_o_f_n_a.png,I,m,878,13,1,1888.7999999821186,617790.1000000238,8056,NNB,A,11
12,test,3,0.0,2-Back,1,m,Wed Jul 02 2025 13:24:08 GMT-0500 (Central Daylight Time),621661.2000000179,050_m_f_n_a.png,I,m,961,14,1,1972.4000000059605,619688.8000000119,8056,NNB,A,12
13,test,3,0.0,2-Back,1,m,Wed Jul 02 2025 13:24:08 GMT-0500 (Central Daylight Time),623761.7000000179,046_o_m_n_a.png,I,m,1066,15,1,2091.5,621670.2000000179,8056,NNB,A,13
14,test,3,1.0,2-Back,1,z,Wed Jul 02 2025 13:24:08 GMT-0500 (Central Daylight Time),625727.1000000238,050_m_f_n_a.png,I,z,935,16,1,1954.9000000059605,623772.2000000179,8056,NNB,A,14
15,test,3,0.0,2-Back,1,m,Wed Jul 02 2025 13:24:08 GMT-0500 (Central Daylight Time),627758.3000000119,047_o_f_n_a.png,I,m,1000,17,1,2021.199999988079,625737.1000000238,8056,NNB,A,15
16,test,3,0.0,2-Back,1,m,Wed Jul 02 2025 13:24:08 GMT-0500 (Central Daylight Time),629442.400000006,047_o_f_n_a.png,I,m,656,18,1,1673.9000000059605,627768.5,8056,NNB,A,16
0,test,4,0.0,2-Back,,,Wed Jul 02 2025 13:24:08 GMT-0500 (Central Daylight Time),629442.400000006,053_o_m_n_a.png,I,space,1101,1,1,1673.9000000059605,627768.5,8056,NNB,A,0
0,test,4,0.0,2-Back,,,Wed Jul 02 2025 13:24:08 GMT-0500 (Central Daylight Time),629442.400000006,063_y_f_n_a.png,I,space,1101,2,1,1673.9000000059605,627768.5,8056,NNB,A,0
0,test,4,1.0,2-Back,0,z,Wed Jul 02 2025 13:24:08 GMT-0500 (Central Daylight Time),637790.6000000238,053_o_m_n_a.png,I,m,1103,3,1,2121.2000000178814,635669.400000006,8056,NNB,A,1
1,test,4,1.0,2-Back,1,z,Wed Jul 02 2025 13:24:08 GMT-0500 (Central Daylight Time),639490.7000000179,063_y_f_n_a.png,I,z,683,4,1,1690.4000000059605,637800.3000000119,8056,NNB,A,2
2,test,4,0.0,2-Back,1,m,Wed Jul 02 2025 13:24:08 GMT-0500 (Central Daylight Time),642439.5,044_o_f_n_a.png,I,m,1928,5,1,2942.2999999821186,639497.2000000179,8056,NNB,A,3
3,test,4,0.0,2-Back,1,m,Wed Jul 02 2025 13:24:08 GMT-0500 (Central Daylight Time),644254.8000000119,044_o_f_n_a.png,I,m,786,6,1,1805.5,642449.3000000119,8056,NNB,A,4
4,test,4,0.0,2-Back,1,m,Wed Jul 02 2025 13:24:08 GMT-0500 (Central Daylight Time),646086.900000006,043_m_f_n_a.png,I,m,800,7,1,1822.199999988079,644264.7000000179,8056,NNB,A,5
5,test,4,0.0,2-Back,1,m,Wed Jul 02 2025 13:24:08 GMT-0500 (Central Daylight Time),648004.0,008_y_m_n_a.png,I,m,889,8,1,1907.2999999821186,646096.7000000179,8056,NNB,A,6
6,test,4,1.0,2-Back,1,z,Wed Jul 02 2025 13:24:08 GMT-0500 (Central Daylight Time),649904.1000000238,043_m_f_n_a.png,I,z,868,9,1,1891.2000000178814,648012.900000006,8056,NNB,A,7
7,test,4,0.0,2-Back,1,m,Wed Jul 02 2025 13:24:08 GMT-0500 (Central Daylight Time),651720.8000000119,058_m_m_n_a.png,I,m,794,10,1,1808.0,649912.8000000119,8056,NNB,A,8
8,test,4,0.0,2-Back,1,m,Wed Jul 02 2025 13:24:08 GMT-0500 (Central Daylight Time),653602.6000000238,008_y_m_n_a.png,I,m,865,11,1,1872.7000000178814,651729.900000006,8056,NNB,A,9
9,test,4,0.0,2-Back,1,m,Wed Jul 02 2025 13:24:08 GMT-0500 (Central Daylight Time),655634.400000006,047_o_f_n_a.png,I,m,1005,12,1,2020.9000000059605,653613.5,8056,NNB,A,10
10,test,4,0.0,2-Back,1,m,Wed Jul 02 2025 13:24:08 GMT-0500 (Central Daylight Time),657434.2000000179,041_y_m_n_a.png,I,m,774,13,1,1792.0,655642.2000000179,8056,NNB,A,11
11,test,4,1.0,2-Back,1,z,Wed Jul 02 2025 13:24:08 GMT-0500 (Central Daylight Time),659316.5,047_o_f_n_a.png,I,z,849,14,1,1871.7999999821186,657444.7000000179,8056,NNB,A,12
12,test,4,1.0,2-Back,1,z,Wed Jul 02 2025 13:24:08 GMT-0500 (Central Daylight Time),662099.3000000119,041_y_m_n_a.png,I,z,1754,15,1,2773.5999999940395,659325.7000000179,8056,NNB,A,13
13,test,4,0.0,2-Back,1,m,Wed Jul 02 2025 13:24:08 GMT-0500 (Central Daylight Time),663999.1000000238,045_m_m_n_a.png,I,m,869,16,1,1890.2000000178814,662108.900000006,8056,NNB,A,14
14,test,4,0.0,2-Back,1,m,Wed Jul 02 2025 13:24:08 GMT-0500 (Central Daylight Time),665899.400000006,050_m_f_n_a.png,I,m,884,17,1,1889.9000000059605,664009.5,8056,NNB,A,15
15,test,4,1.0,2-Back,1,z,Wed Jul 02 2025 13:24:08 GMT-0500 (Central Daylight Time),667931.3000000119,045_m_m_n_a.png,I,z,1014,18,1,2021.800000011921,665909.5,8056,NNB,A,16
0,test,5,1.0,2-Back,,,Wed Jul 02 2025 13:24:08 GMT-0500 (Central Daylight Time),667931.3000000119,041_y_m_n_a.png,I,space,1269,1,1,2021.800000011921,665909.5,8056,NNB,A,0
0,test,5,1.0,2-Back,,,Wed Jul 02 2025 13:24:08 GMT-0500 (Central Daylight Time),667931.3000000119,050_m_f_n_a.png,I,space,1269,2,1,2021.800000011921,665909.5,8056,NNB,A,0
1,test,5,1.0,2-Back,1,z,Wed Jul 02 2025 13:24:08 GMT-0500 (Central Daylight Time),676159.6000000238,041_y_m_n_a.png,I,z,865,3,1,1892.0,674267.6000000238,8056,NNB,A,1
1,test,5,1.0,2-Back,0,z,Wed Jul 02 2025 13:24:08 GMT-0500 (Central Daylight Time),678143.8000000119,050_m_f_n_a.png,I,m,951,4,1,1976.699999988079,676167.1000000238,8056,NNB,A,2
2,test,5,0.0,2-Back,1,m,Wed Jul 02 2025 13:24:08 GMT-0500 (Central Daylight Time),680344.6000000238,047_o_f_n_a.png,I,m,1167,5,1,2191.2000000178814,678153.400000006,8056,NNB,A,3
3,test,5,0.0,2-Back,1,m,Wed Jul 02 2025 13:24:08 GMT-0500 (Central Daylight Time),682826.0,041_y_m_n_a.png,I,m,1450,6,1,2472.5999999940395,680353.400000006,8056,NNB,A,4
4,test,5,0.0,2-Back,1,m,Wed Jul 02 2025 13:24:08 GMT-0500 (Central Daylight Time),684742.400000006,010_y_f_n_a.png,I,m,883,7,1,1907.7999999821186,682834.6000000238,8056,NNB,A,5
4,test,5,0.0,2-Back,0,m,Wed Jul 02 2025 13:24:08 GMT-0500 (Central Daylight Time),686390.5,047_o_f_n_a.png,I,z,627,8,1,1637.5999999940395,684752.900000006,8056,NNB,A,6
5,test,5,1.0,2-Back,1,z,Wed Jul 02 2025 13:24:08 GMT-0500 (Central Daylight Time),688473.6000000238,010_y_f_n_a.png,I,z,1056,9,1,2073.7000000178814,686399.900000006,8056,NNB,A,7
6,test,5,0.0,2-Back,1,m,Wed Jul 02 2025 13:24:08 GMT-0500 (Central Daylight Time),690172.400000006,046_o_m_n_a.png,I,m,671,10,1,1689.5999999940395,688482.8000000119,8056,NNB,A,8
7,test,5,0.0,2-Back,1,m,Wed Jul 02 2025 13:24:08 GMT-0500 (Central Daylight Time),692540.900000006,043_m_f_n_a.png,I,m,1349,11,1,2359.199999988079,690181.7000000179,8056,NNB,A,9
7,test,5,0.0,2-Back,0,m,Wed Jul 02 2025 13:24:08 GMT-0500 (Central Daylight Time),694521.400000006,058_m_m_n_a.png,I,z,950,12,1,1971.9000000059605,692549.5,8056,NNB,A,10
8,test,5,0.0,2-Back,1,m,Wed Jul 02 2025 13:24:08 GMT-0500 (Central Daylight Time),696821.3000000119,046_o_m_n_a.png,I,m,1277,13,1,2290.5,694530.8000000119,8056,NNB,A,11
8,test,5,1.0,2-Back,0,z,Wed Jul 02 2025 13:24:08 GMT-0500 (Central Daylight Time),699053.400000006,058_m_m_n_a.png,I,m,1201,14,1,2222.699999988079,696830.7000000179,8056,NNB,A,12
9,test,5,0.0,2-Back,1,m,Wed Jul 02 2025 13:24:08 GMT-0500 (Central Daylight Time),701152.3000000119,063_y_f_n_a.png,I,m,1075,15,1,2089.5,699062.8000000119,8056,NNB,A,13
10,test,5,0.0,2-Back,1,m,Wed Jul 02 2025 13:24:08 GMT-0500 (Central Daylight Time),702986.0,053_o_m_n_a.png,I,m,816,16,1,1825.0999999940395,701160.900000006,8056,NNB,A,14
11,test,5,0.0,2-Back,1,m,Wed Jul 02 2025 13:24:08 GMT-0500 (Central Daylight Time),704668.2000000179,043_m_f_n_a.png,I,m,654,17,1,1673.0,702995.2000000179,8056,NNB,A,15
12,test,5,1.0,2-Back,1,z,Wed Jul 02 2025 13:24:08 GMT-0500 (Central Daylight Time),706300.3000000119,053_o_m_n_a.png,I,z,612,18,1,1623.0999999940395,704677.2000000179,8056,NNB,A,16
