acc_sum,block,block_c,change,condition,correct,correct_response,datetime,endtime,face,project,response,response_time,row_sel,session_number,start_end,starttime,subject_id,task,task_vers,trial
0,prac,1,,1-Back,,,Wed Sep 24 2025 13:39:04 GMT-0500 (Central Daylight Time),,093_m_f_n_a.png,I,space,4940,1,2,,,8056,NNB,C,0
1,prac,1,0.0,1-Back,1.0,m,Wed Sep 24 2025 13:39:04 GMT-0500 (Central Daylight Time),97840.09999999404,098_y_f_n_a.png,I,m,873,2,2,1737.5,96102.59999999404,8056,NNB,C,1
2,prac,1,1.0,1-Back,1.0,z,Wed Sep 24 2025 13:39:04 GMT-0500 (Central Daylight Time),99522.89999999106,098_y_f_n_a.png,I,z,895,3,2,1673.8999999910593,97849.0,8056,NNB,C,2
3,prac,1,0.0,1-Back,1.0,m,Wed Sep 24 2025 13:39:04 GMT-0500 (Central Daylight Time),101289.09999999404,059_o_m_n_a.png,I,m,903,4,2,1756.2999999970198,99532.79999999702,8056,NNB,C,3
4,prac,1,0.0,1-Back,1.0,m,Wed Sep 24 2025 13:39:04 GMT-0500 (Central Daylight Time),102771.69999998808,092_m_m_n_a.png,I,m,613,5,2,1472.3999999910593,101299.29999999702,8056,NNB,C,4
5,prac,1,1.0,1-Back,1.0,z,Wed Sep 24 2025 13:39:04 GMT-0500 (Central Daylight Time),104271.39999999106,092_m_m_n_a.png,I,z,716,6,2,1489.5999999940395,102781.79999999702,8056,NNB,C,5
6,prac,1,0.0,1-Back,1.0,m,Wed Sep 24 2025 13:39:04 GMT-0500 (Central Daylight Time),105937.39999999106,130_o_f_n_a.png,I,m,787,7,2,1656.0999999940395,104281.29999999702,8056,NNB,C,6
7,prac,1,0.0,1-Back,1.0,m,Wed Sep 24 2025 13:39:04 GMT-0500 (Central Daylight Time),107403.5,082_m_m_n_a.png,I,m,601,8,2,1456.800000011921,105946.69999998808,8056,NNB,C,7
7,prac,1,0.0,1-Back,0.0,m,Wed Sep 24 2025 13:39:04 GMT-0500 (Central Daylight Time),108986.59999999404,093_m_f_n_a.png,I,z,798,9,2,1575.4000000059605,107411.19999998808,8056,NNB,C,8
8,prac,1,1.0,1-Back,1.0,z,Wed Sep 24 2025 13:39:04 GMT-0500 (Central Daylight Time),110402.69999998808,093_m_f_n_a.png,I,z,638,10,2,1407.5,108995.19999998808,8056,NNB,C,9
9,prac,1,0.0,1-Back,1.0,m,Wed Sep 24 2025 13:39:04 GMT-0500 (Central Daylight Time),111802.29999999702,059_o_m_n_a.png,I,m,613,11,2,1390.1000000089407,110412.19999998808,8056,NNB,C,10
10,prac,1,0.0,1-Back,1.0,m,Wed Sep 24 2025 13:39:04 GMT-0500 (Central Daylight Time),113301.69999998808,028_y_f_n_a.png,I,m,631,12,2,1490.0,111811.69999998808,8056,NNB,C,11
0,test,1,0.0,1-Back,,,Wed Sep 24 2025 13:39:04 GMT-0500 (Central Daylight Time),113301.69999998808,098_y_f_n_a.png,I,space,7593,1,2,1490.0,111811.69999998808,8056,NNB,C,0
1,test,1,0.0,1-Back,1.0,m,Wed Sep 24 2025 13:39:04 GMT-0500 (Central Daylight Time),254007.89999999106,006_m_f_n_a.png,I,m,502,2,2,1526.3999999910593,252481.5,8056,NNB,C,1
2,test,1,0.0,1-Back,1.0,m,Wed Sep 24 2025 13:39:04 GMT-0500 (Central Daylight Time),256123.79999999702,028_y_f_n_a.png,I,m,1090,3,2,2110.5,254013.29999999702,8056,NNB,C,2
3,test,1,1.0,1-Back,1.0,z,Wed Sep 24 2025 13:39:04 GMT-0500 (Central Daylight Time),257706.69999998808,028_y_f_n_a.png,I,z,558,4,2,1578.3999999910593,256128.29999999702,8056,NNB,C,3
4,test,1,0.0,1-Back,1.0,m,Wed Sep 24 2025 13:39:04 GMT-0500 (Central Daylight Time),259322.5,006_m_f_n_a.png,I,m,599,5,2,1610.800000011921,257711.69999998808,8056,NNB,C,4
5,test,1,0.0,1-Back,1.0,m,Wed Sep 24 2025 13:39:04 GMT-0500 (Central Daylight Time),260872.69999998808,059_o_m_n_a.png,I,m,518,6,2,1546.2999999970198,259326.39999999106,8056,NNB,C,5
6,test,1,1.0,1-Back,1.0,z,Wed Sep 24 2025 13:39:04 GMT-0500 (Central Daylight Time),262471.6999999881,059_o_m_n_a.png,I,z,569,7,2,1595.2999999970198,260876.39999999106,8056,NNB,C,6
7,test,1,0.0,1-Back,1.0,m,Wed Sep 24 2025 13:39:04 GMT-0500 (Central Daylight Time),264121.299999997,092_m_m_n_a.png,I,m,617,8,2,1646.0,262475.299999997,8056,NNB,C,7
8,test,1,0.0,1-Back,1.0,m,Wed Sep 24 2025 13:39:04 GMT-0500 (Central Daylight Time),265771.09999999404,130_o_f_n_a.png,I,m,617,9,2,1643.7999999970198,264127.299999997,8056,NNB,C,8
9,test,1,0.0,1-Back,1.0,m,Wed Sep 24 2025 13:39:04 GMT-0500 (Central Daylight Time),267270.5,092_m_m_n_a.png,I,m,471,10,2,1493.300000011921,265777.1999999881,8056,NNB,C,9
10,test,1,0.0,1-Back,1.0,m,Wed Sep 24 2025 13:39:04 GMT-0500 (Central Daylight Time),269103.1999999881,057_y_m_n_a.png,I,m,804,11,2,1828.2999999970198,267274.89999999106,8056,NNB,C,10
11,test,1,1.0,1-Back,1.0,z,Wed Sep 24 2025 13:39:04 GMT-0500 (Central Daylight Time),270536.09999999404,057_y_m_n_a.png,I,z,410,12,2,1427.7000000029802,269108.39999999106,8056,NNB,C,11
12,test,1,0.0,1-Back,1.0,m,Wed Sep 24 2025 13:39:04 GMT-0500 (Central Daylight Time),272168.799999997,030_o_f_n_a.png,I,m,610,13,2,1628.2999999970198,270540.5,8056,NNB,C,12
13,test,1,1.0,1-Back,1.0,z,Wed Sep 24 2025 13:39:04 GMT-0500 (Central Daylight Time),273618.5,030_o_f_n_a.png,I,z,433,14,2,1445.2000000029802,272173.299999997,8056,NNB,C,13
14,test,1,0.0,1-Back,1.0,m,Wed Sep 24 2025 13:39:04 GMT-0500 (Central Daylight Time),275268.89999999106,031_y_m_n_a.png,I,m,632,15,2,1645.7000000029802,273623.1999999881,8056,NNB,C,14
15,test,1,0.0,1-Back,1.0,m,Wed Sep 24 2025 13:39:04 GMT-0500 (Central Daylight Time),276783.799999997,093_m_f_n_a.png,I,m,485,16,2,1509.7999999970198,275274.0,8056,NNB,C,15
16,test,1,0.0,1-Back,1.0,m,Wed Sep 24 2025 13:39:04 GMT-0500 (Central Daylight Time),278267.89999999106,146_o_m_n_a.png,I,m,466,17,2,1479.0,276788.89999999106,8056,NNB,C,16
17,test,1,0.0,1-Back,1.0,m,Wed Sep 24 2025 13:39:04 GMT-0500 (Central Daylight Time),279832.89999999106,093_m_f_n_a.png,I,m,534,18,2,1559.2999999970198,278273.59999999404,8056,NNB,C,17
0,test,2,0.0,1-Back,,,Wed Sep 24 2025 13:39:04 GMT-0500 (Central Daylight Time),279832.89999999106,092_m_m_n_a.png,I,space,2458,1,2,1559.2999999970198,278273.59999999404,8056,NNB,C,0
1,test,2,0.0,1-Back,1.0,m,Wed Sep 24 2025 13:39:04 GMT-0500 (Central Daylight Time),286031.0,006_m_f_n_a.png,I,m,694,2,2,1712.2000000029802,284318.799999997,8056,NNB,C,1
2,test,2,1.0,1-Back,1.0,z,Wed Sep 24 2025 13:39:04 GMT-0500 (Central Daylight Time),287663.89999999106,006_m_f_n_a.png,I,z,610,3,2,1627.0,286036.89999999106,8056,NNB,C,2
3,test,2,0.0,1-Back,1.0,m,Wed Sep 24 2025 13:39:04 GMT-0500 (Central Daylight Time),289213.5,092_m_m_n_a.png,I,m,529,4,2,1543.7000000029802,287669.799999997,8056,NNB,C,3
4,test,2,0.0,1-Back,1.0,m,Wed Sep 24 2025 13:39:04 GMT-0500 (Central Daylight Time),290879.59999999404,057_y_m_n_a.png,I,m,636,5,2,1661.5,289218.09999999404,8056,NNB,C,4
5,test,2,0.0,1-Back,1.0,m,Wed Sep 24 2025 13:39:04 GMT-0500 (Central Daylight Time),292479.1999999881,098_y_f_n_a.png,I,m,570,6,2,1594.3999999910593,290884.799999997,8056,NNB,C,5
6,test,2,1.0,1-Back,1.0,z,Wed Sep 24 2025 13:39:04 GMT-0500 (Central Daylight Time),294078.799999997,098_y_f_n_a.png,I,z,578,7,2,1595.0,292483.799999997,8056,NNB,C,6
7,test,2,0.0,1-Back,1.0,m,Wed Sep 24 2025 13:39:04 GMT-0500 (Central Daylight Time),295561.5,057_y_m_n_a.png,I,m,450,8,2,1477.9000000059605,294083.59999999404,8056,NNB,C,7
8,test,2,0.0,1-Back,1.0,m,Wed Sep 24 2025 13:39:04 GMT-0500 (Central Daylight Time),297077.39999999106,030_o_f_n_a.png,I,m,488,9,2,1511.5999999940395,295565.799999997,8056,NNB,C,8
9,test,2,0.0,1-Back,1.0,m,Wed Sep 24 2025 13:39:04 GMT-0500 (Central Daylight Time),298510.59999999404,082_m_m_n_a.png,I,m,412,10,2,1427.7000000029802,297082.89999999106,8056,NNB,C,9
9,test,2,1.0,1-Back,0.0,z,Wed Sep 24 2025 13:39:04 GMT-0500 (Central Daylight Time),300093.299999997,082_m_m_n_a.png,I,m,563,11,2,1577.6000000089407,298515.6999999881,8056,NNB,C,10
10,test,2,0.0,1-Back,1.0,m,Wed Sep 24 2025 13:39:04 GMT-0500 (Central Daylight Time),301809.6999999881,030_o_f_n_a.png,I,m,692,12,2,1710.699999988079,300099.0,8056,NNB,C,11
11,test,2,0.0,1-Back,1.0,m,Wed Sep 24 2025 13:39:04 GMT-0500 (Central Daylight Time),303392.39999999106,130_o_f_n_a.png,I,m,561,13,2,1577.3999999910593,301815.0,8056,NNB,C,12
12,test,2,0.0,1-Back,1.0,m,Wed Sep 24 2025 13:39:04 GMT-0500 (Central Daylight Time),304975.09999999404,059_o_m_n_a.png,I,m,554,14,2,1577.9000000059605,303397.1999999881,8056,NNB,C,13
13,test,2,0.0,1-Back,1.0,m,Wed Sep 24 2025 13:39:04 GMT-0500 (Central Daylight Time),306608.0,146_o_m_n_a.png,I,m,602,15,2,1628.4000000059605,304979.59999999404,8056,NNB,C,14
14,test,2,1.0,1-Back,1.0,z,Wed Sep 24 2025 13:39:04 GMT-0500 (Central Daylight Time),308307.1999999881,146_o_m_n_a.png,I,z,683,16,2,1694.0,306613.1999999881,8056,NNB,C,15
15,test,2,0.0,1-Back,1.0,m,Wed Sep 24 2025 13:39:04 GMT-0500 (Central Daylight Time),309957.59999999404,031_y_m_n_a.png,I,m,622,17,2,1645.9000000059605,308311.6999999881,8056,NNB,C,16
16,test,2,1.0,1-Back,1.0,z,Wed Sep 24 2025 13:39:04 GMT-0500 (Central Daylight Time),311622.89999999106,031_y_m_n_a.png,I,z,645,18,2,1660.7000000029802,309962.1999999881,8056,NNB,C,17
0,test,3,1.0,1-Back,,,Wed Sep 24 2025 13:39:04 GMT-0500 (Central Daylight Time),311622.89999999106,028_y_f_n_a.png,I,space,971,1,2,1660.7000000029802,309962.1999999881,8056,NNB,C,0
1,test,3,0.0,1-Back,1.0,m,Wed Sep 24 2025 13:39:04 GMT-0500 (Central Daylight Time),316504.799999997,146_o_m_n_a.png,I,m,666,1,2,1700.2999999970198,314804.5,8056,NNB,C,1
1,test,3,1.0,1-Back,0.0,z,Wed Sep 24 2025 13:39:04 GMT-0500 (Central Daylight Time),318004.1999999881,146_o_m_n_a.png,I,m,472,1,2,1495.0,316509.1999999881,8056,NNB,C,2
2,test,3,0.0,1-Back,1.0,m,Wed Sep 24 2025 13:39:04 GMT-0500 (Central Daylight Time),319603.89999999106,093_m_f_n_a.png,I,m,573,1,2,1596.2999999970198,318007.59999999404,8056,NNB,C,3
3,test,3,1.0,1-Back,1.0,z,Wed Sep 24 2025 13:39:04 GMT-0500 (Central Daylight Time),321003.299999997,093_m_f_n_a.png,I,z,383,1,2,1394.6000000089407,319608.6999999881,8056,NNB,C,4
4,test,3,0.0,1-Back,1.0,m,Wed Sep 24 2025 13:39:04 GMT-0500 (Central Daylight Time),322552.59999999404,030_o_f_n_a.png,I,m,525,1,2,1544.0999999940395,321008.5,8056,NNB,C,5
5,test,3,0.0,1-Back,1.0,m,Wed Sep 24 2025 13:39:04 GMT-0500 (Central Daylight Time),324052.09999999404,057_y_m_n_a.png,I,m,481,1,2,1496.2000000029802,322555.89999999106,8056,NNB,C,6
6,test,3,0.0,1-Back,1.0,m,Wed Sep 24 2025 13:39:04 GMT-0500 (Central Daylight Time),325718.6999999881,030_o_f_n_a.png,I,m,645,1,2,1661.0,324057.6999999881,8056,NNB,C,7
7,test,3,0.0,1-Back,1.0,m,Wed Sep 24 2025 13:39:04 GMT-0500 (Central Daylight Time),327218.5,031_y_m_n_a.png,I,m,466,1,2,1496.2000000029802,325722.299999997,8056,NNB,C,8
8,test,3,1.0,1-Back,1.0,z,Wed Sep 24 2025 13:39:04 GMT-0500 (Central Daylight Time),328801.0,031_y_m_n_a.png,I,z,551,1,2,1577.6000000089407,327223.39999999106,8056,NNB,C,9
9,test,3,0.0,1-Back,1.0,m,Wed Sep 24 2025 13:39:04 GMT-0500 (Central Daylight Time),330317.1999999881,006_m_f_n_a.png,I,m,498,1,2,1512.699999988079,328804.5,8056,NNB,C,10
10,test,3,0.0,1-Back,1.0,m,Wed Sep 24 2025 13:39:04 GMT-0500 (Central Daylight Time),332083.299999997,098_y_f_n_a.png,I,m,740,1,2,1760.9000000059605,330322.39999999106,8056,NNB,C,11
11,test,3,1.0,1-Back,1.0,z,Wed Sep 24 2025 13:39:04 GMT-0500 (Central Daylight Time),333549.5,098_y_f_n_a.png,I,z,446,1,2,1461.4000000059605,332088.09999999404,8056,NNB,C,12
12,test,3,0.0,1-Back,1.0,m,Wed Sep 24 2025 13:39:04 GMT-0500 (Central Daylight Time),335215.799999997,006_m_f_n_a.png,I,m,644,1,2,1660.4000000059605,333555.39999999106,8056,NNB,C,13
13,test,3,0.0,1-Back,1.0,m,Wed Sep 24 2025 13:39:04 GMT-0500 (Central Daylight Time),336848.1999999881,092_m_m_n_a.png,I,m,601,1,2,1627.3999999910593,335220.799999997,8056,NNB,C,14
14,test,3,1.0,1-Back,1.0,z,Wed Sep 24 2025 13:39:04 GMT-0500 (Central Daylight Time),338414.39999999106,092_m_m_n_a.png,I,z,545,1,2,1560.5,336853.89999999106,8056,NNB,C,15
15,test,3,0.0,1-Back,1.0,m,Wed Sep 24 2025 13:39:04 GMT-0500 (Central Daylight Time),340030.6999999881,130_o_f_n_a.png,I,m,587,1,2,1605.7999999970198,338424.89999999106,8056,NNB,C,16
16,test,3,1.0,1-Back,1.0,z,Wed Sep 24 2025 13:39:04 GMT-0500 (Central Daylight Time),341530.59999999404,130_o_f_n_a.png,I,z,475,1,2,1495.5,340035.09999999404,8056,NNB,C,17
0,test,4,1.0,1-Back,,,Wed Sep 24 2025 13:39:04 GMT-0500 (Central Daylight Time),341530.59999999404,093_m_f_n_a.png,I,space,1790,1,2,1495.5,340035.09999999404,8056,NNB,C,0
1,test,4,0.0,1-Back,1.0,m,Wed Sep 24 2025 13:39:04 GMT-0500 (Central Daylight Time),346978.5,146_o_m_n_a.png,I,m,519,2,2,1545.300000011921,345433.1999999881,8056,NNB,C,1
2,test,4,0.0,1-Back,1.0,m,Wed Sep 24 2025 13:39:04 GMT-0500 (Central Daylight Time),348794.5,093_m_f_n_a.png,I,m,799,3,2,1811.800000011921,346982.6999999881,8056,NNB,C,2
3,test,4,0.0,1-Back,1.0,m,Wed Sep 24 2025 13:39:04 GMT-0500 (Central Daylight Time),350427.5,030_o_f_n_a.png,I,m,615,4,2,1628.5,348799.0,8056,NNB,C,3
4,test,4,1.0,1-Back,1.0,z,Wed Sep 24 2025 13:39:04 GMT-0500 (Central Daylight Time),352060.59999999404,030_o_f_n_a.png,I,z,614,5,2,1628.4000000059605,350432.1999999881,8056,NNB,C,4
5,test,4,0.0,1-Back,1.0,m,Wed Sep 24 2025 13:39:04 GMT-0500 (Central Daylight Time),353643.0,098_y_f_n_a.png,I,m,557,6,2,1578.1000000089407,352064.89999999106,8056,NNB,C,5
6,test,4,0.0,1-Back,1.0,m,Wed Sep 24 2025 13:39:04 GMT-0500 (Central Daylight Time),355192.5,057_y_m_n_a.png,I,m,518,7,2,1545.0,353647.5,8056,NNB,C,6
7,test,4,1.0,1-Back,1.0,z,Wed Sep 24 2025 13:39:04 GMT-0500 (Central Daylight Time),356642.09999999404,057_y_m_n_a.png,I,z,425,8,2,1444.5,355197.59999999404,8056,NNB,C,7
8,test,4,0.0,1-Back,1.0,m,Wed Sep 24 2025 13:39:04 GMT-0500 (Central Daylight Time),358292.0,098_y_f_n_a.png,I,m,623,9,2,1645.5,356646.5,8056,NNB,C,8
9,test,4,0.0,1-Back,1.0,m,Wed Sep 24 2025 13:39:04 GMT-0500 (Central Daylight Time),360024.39999999106,082_m_m_n_a.png,I,m,709,10,2,1728.2000000029802,358296.1999999881,8056,NNB,C,9
10,test,4,1.0,1-Back,1.0,z,Wed Sep 24 2025 13:39:04 GMT-0500 (Central Daylight Time),361818.59999999404,082_m_m_n_a.png,I,z,777,11,2,1790.5,360028.09999999404,8056,NNB,C,10
11,test,4,0.0,1-Back,1.0,m,Wed Sep 24 2025 13:39:04 GMT-0500 (Central Daylight Time),363456.799999997,130_o_f_n_a.png,I,m,601,12,2,1633.2999999970198,361823.5,8056,NNB,C,11
12,test,4,0.0,1-Back,1.0,m,Wed Sep 24 2025 13:39:04 GMT-0500 (Central Daylight Time),365006.5,059_o_m_n_a.png,I,m,529,13,2,1544.300000011921,363462.1999999881,8056,NNB,C,12
13,test,4,0.0,1-Back,1.0,m,Wed Sep 24 2025 13:39:04 GMT-0500 (Central Daylight Time),366605.799999997,130_o_f_n_a.png,I,m,579,14,2,1593.1000000089407,365012.6999999881,8056,NNB,C,13
14,test,4,0.0,1-Back,1.0,m,Wed Sep 24 2025 13:39:04 GMT-0500 (Central Daylight Time),368272.0,028_y_f_n_a.png,I,m,643,15,2,1661.7000000029802,366610.299999997,8056,NNB,C,14
14,test,4,1.0,1-Back,0.0,z,Wed Sep 24 2025 13:39:04 GMT-0500 (Central Daylight Time),370154.59999999404,028_y_f_n_a.png,I,m,858,16,2,1878.0999999940395,368276.5,8056,NNB,C,15
15,test,4,0.0,1-Back,1.0,m,Wed Sep 24 2025 13:39:04 GMT-0500 (Central Daylight Time),371754.1999999881,006_m_f_n_a.png,I,m,576,17,2,1595.5999999940395,370158.59999999404,8056,NNB,C,16
16,test,4,1.0,1-Back,1.0,z,Wed Sep 24 2025 13:39:04 GMT-0500 (Central Daylight Time),373420.299999997,006_m_f_n_a.png,I,z,647,18,2,1660.7000000029802,371759.59999999404,8056,NNB,C,17
0,test,5,1.0,1-Back,,,Wed Sep 24 2025 13:39:04 GMT-0500 (Central Daylight Time),373420.299999997,059_o_m_n_a.png,I,space,957,1,2,1660.7000000029802,371759.59999999404,8056,NNB,C,0
1,test,5,1.0,1-Back,1.0,z,Wed Sep 24 2025 13:39:04 GMT-0500 (Central Daylight Time),378152.09999999404,059_o_m_n_a.png,I,z,727,2,2,1744.9000000059605,376407.1999999881,8056,NNB,C,1
2,test,5,0.0,1-Back,1.0,m,Wed Sep 24 2025 13:39:04 GMT-0500 (Central Daylight Time),380201.59999999404,098_y_f_n_a.png,I,m,1026,3,2,2045.9000000059605,378155.6999999881,8056,NNB,C,2
3,test,5,0.0,1-Back,1.0,m,Wed Sep 24 2025 13:39:04 GMT-0500 (Central Daylight Time),381834.09999999404,057_y_m_n_a.png,I,m,600,4,2,1627.7000000029802,380206.39999999106,8056,NNB,C,3
4,test,5,0.0,1-Back,1.0,m,Wed Sep 24 2025 13:39:04 GMT-0500 (Central Daylight Time),383350.39999999106,098_y_f_n_a.png,I,m,487,5,2,1511.3999999910593,381839.0,8056,NNB,C,4
5,test,5,0.0,1-Back,1.0,m,Wed Sep 24 2025 13:39:04 GMT-0500 (Central Daylight Time),385134.09999999404,092_m_m_n_a.png,I,m,755,6,2,1778.5999999940395,383355.5,8056,NNB,C,5
6,test,5,1.0,1-Back,1.0,z,Wed Sep 24 2025 13:39:04 GMT-0500 (Central Daylight Time),386566.1999999881,092_m_m_n_a.png,I,z,411,7,2,1427.2999999970198,385138.89999999106,8056,NNB,C,6
7,test,5,0.0,1-Back,1.0,m,Wed Sep 24 2025 13:39:04 GMT-0500 (Central Daylight Time),388199.09999999404,028_y_f_n_a.png,I,m,602,8,2,1629.2999999970198,386569.799999997,8056,NNB,C,7
8,test,5,0.0,1-Back,1.0,m,Wed Sep 24 2025 13:39:04 GMT-0500 (Central Daylight Time),389715.0,031_y_m_n_a.png,I,m,498,9,2,1512.1000000089407,388202.89999999106,8056,NNB,C,8
9,test,5,0.0,1-Back,1.0,m,Wed Sep 24 2025 13:39:04 GMT-0500 (Central Daylight Time),391197.89999999106,028_y_f_n_a.png,I,m,462,10,2,1478.5999999940395,389719.299999997,8056,NNB,C,9
10,test,5,0.0,1-Back,1.0,m,Wed Sep 24 2025 13:39:04 GMT-0500 (Central Daylight Time),392715.0,130_o_f_n_a.png,I,m,491,11,2,1512.9000000059605,391202.09999999404,8056,NNB,C,10
11,test,5,1.0,1-Back,1.0,z,Wed Sep 24 2025 13:39:04 GMT-0500 (Central Daylight Time),394247.1999999881,130_o_f_n_a.png,I,z,503,12,2,1527.7999999970198,392719.39999999106,8056,NNB,C,11
12,test,5,0.0,1-Back,1.0,m,Wed Sep 24 2025 13:39:04 GMT-0500 (Central Daylight Time),395896.59999999404,146_o_m_n_a.png,I,m,619,13,2,1645.0,394251.59999999404,8056,NNB,C,12
13,test,5,0.0,1-Back,1.0,m,Wed Sep 24 2025 13:39:04 GMT-0500 (Central Daylight Time),397546.09999999404,093_m_f_n_a.png,I,m,633,14,2,1645.5,395900.59999999404,8056,NNB,C,13
14,test,5,1.0,1-Back,1.0,z,Wed Sep 24 2025 13:39:04 GMT-0500 (Central Daylight Time),399262.1999999881,093_m_f_n_a.png,I,z,687,15,2,1711.5,397550.6999999881,8056,NNB,C,14
15,test,5,0.0,1-Back,1.0,m,Wed Sep 24 2025 13:39:04 GMT-0500 (Central Daylight Time),400828.1999999881,146_o_m_n_a.png,I,m,547,16,2,1561.8999999910593,399266.299999997,8056,NNB,C,15
16,test,5,0.0,1-Back,1.0,m,Wed Sep 24 2025 13:39:04 GMT-0500 (Central Daylight Time),402427.5,006_m_f_n_a.png,I,m,581,17,2,1595.4000000059605,400832.09999999404,8056,NNB,C,16
17,test,5,0.0,1-Back,1.0,m,Wed Sep 24 2025 13:39:04 GMT-0500 (Central Daylight Time),403994.0,082_m_m_n_a.png,I,m,533,18,2,1562.6000000089407,402431.39999999106,8056,NNB,C,17
0,prac,1,0.0,2-Back,,,Wed Sep 24 2025 13:39:04 GMT-0500 (Central Daylight Time),403994.0,031_y_m_n_a.png,I,space,3552,1,2,1562.6000000089407,402431.39999999106,8056,NNB,C,0
0,prac,1,0.0,2-Back,,,Wed Sep 24 2025 13:39:04 GMT-0500 (Central Daylight Time),403994.0,006_m_f_n_a.png,I,space,3552,2,2,1562.6000000089407,402431.39999999106,8056,NNB,C,0
1,prac,1,1.0,2-Back,1.0,m,Wed Sep 24 2025 13:39:04 GMT-0500 (Central Daylight Time),488800.89999999106,146_o_m_n_a.png,I,m,1203,3,2,2058.5,486742.39999999106,8056,NNB,C,1
2,prac,1,0.0,2-Back,1.0,m,Wed Sep 24 2025 13:39:04 GMT-0500 (Central Daylight Time),490800.299999997,130_o_f_n_a.png,I,m,1110,4,2,1991.9000000059605,488808.39999999106,8056,NNB,C,2
3,prac,1,0.0,2-Back,1.0,z,Wed Sep 24 2025 13:39:04 GMT-0500 (Central Daylight Time),492432.89999999106,146_o_m_n_a.png,I,z,857,5,2,1624.3999999910593,490808.5,8056,NNB,C,3
4,prac,1,1.0,2-Back,1.0,z,Wed Sep 24 2025 13:39:04 GMT-0500 (Central Daylight Time),494249.0,130_o_f_n_a.png,I,z,1027,6,2,1809.300000011921,492439.6999999881,8056,NNB,C,4
4,prac,1,0.0,2-Back,0.0,m,Wed Sep 24 2025 13:39:04 GMT-0500 (Central Daylight Time),496098.5,082_m_m_n_a.png,I,z,990,7,2,1842.2000000029802,494256.299999997,8056,NNB,C,5
5,prac,1,0.0,2-Back,1.0,m,Wed Sep 24 2025 13:39:04 GMT-0500 (Central Daylight Time),497831.39999999106,059_o_m_n_a.png,I,m,866,8,2,1724.8999999910593,496106.5,8056,NNB,C,6
6,prac,1,0.0,2-Back,1.0,m,Wed Sep 24 2025 13:39:04 GMT-0500 (Central Daylight Time),499480.89999999106,028_y_f_n_a.png,I,m,776,9,2,1642.2000000029802,497838.6999999881,8056,NNB,C,7
7,prac,1,1.0,2-Back,1.0,z,Wed Sep 24 2025 13:39:04 GMT-0500 (Central Daylight Time),500963.6999999881,059_o_m_n_a.png,I,z,706,10,2,1476.5999999940395,499487.09999999404,8056,NNB,C,8
8,prac,1,0.0,2-Back,1.0,m,Wed Sep 24 2025 13:39:04 GMT-0500 (Central Daylight Time),502546.59999999404,098_y_f_n_a.png,I,m,718,11,2,1575.4000000059605,500971.1999999881,8056,NNB,C,9
8,prac,1,0.0,2-Back,0.0,m,Wed Sep 24 2025 13:39:04 GMT-0500 (Central Daylight Time),504197.1999999881,082_m_m_n_a.png,I,z,870,12,2,1643.3999999910593,502553.799999997,8056,NNB,C,10
0,test,1,0.0,2-Back,,,Wed Sep 24 2025 13:39:04 GMT-0500 (Central Daylight Time),504197.1999999881,057_y_m_n_a.png,I,space,8772,1,2,1643.3999999910593,502553.799999997,8056,NNB,C,0
0,test,1,0.0,2-Back,,,Wed Sep 24 2025 13:39:04 GMT-0500 (Central Daylight Time),504197.1999999881,057_y_m_n_a.png,I,space,8772,2,2,1643.3999999910593,502553.799999997,8056,NNB,C,0
1,test,1,0.0,2-Back,1.0,m,Wed Sep 24 2025 13:39:04 GMT-0500 (Central Daylight Time),527438.5,130_o_f_n_a.png,I,m,778,3,2,1795.300000011921,525643.1999999881,8056,NNB,C,1
2,test,1,0.0,2-Back,1.0,m,Wed Sep 24 2025 13:39:04 GMT-0500 (Central Daylight Time),529138.1999999881,092_m_m_n_a.png,I,m,675,4,2,1695.3999999910593,527442.799999997,8056,NNB,C,2
3,test,1,1.0,2-Back,1.0,z,Wed Sep 24 2025 13:39:04 GMT-0500 (Central Daylight Time),530970.799999997,130_o_f_n_a.png,I,z,807,5,2,1828.2999999970198,529142.5,8056,NNB,C,3
4,test,1,0.0,2-Back,1.0,m,Wed Sep 24 2025 13:39:04 GMT-0500 (Central Daylight Time),532720.6999999881,098_y_f_n_a.png,I,m,719,6,2,1745.699999988079,530975.0,8056,NNB,C,4
4,test,1,0.0,2-Back,0.0,m,Wed Sep 24 2025 13:39:04 GMT-0500 (Central Daylight Time),534453.099999994,092_m_m_n_a.png,I,z,705,7,2,1727.9000000059605,532725.1999999881,8056,NNB,C,5
5,test,1,1.0,2-Back,1.0,z,Wed Sep 24 2025 13:39:04 GMT-0500 (Central Daylight Time),536469.0,098_y_f_n_a.png,I,z,988,8,2,2011.9000000059605,534457.099999994,8056,NNB,C,6
6,test,1,0.0,2-Back,1.0,m,Wed Sep 24 2025 13:39:04 GMT-0500 (Central Daylight Time),538601.799999997,031_y_m_n_a.png,I,m,1108,9,2,2129.0,536472.799999997,8056,NNB,C,7
7,test,1,0.0,2-Back,1.0,m,Wed Sep 24 2025 13:39:04 GMT-0500 (Central Daylight Time),540567.6999999881,030_o_f_n_a.png,I,m,935,10,2,1961.199999988079,538606.5,8056,NNB,C,8
8,test,1,1.0,2-Back,1.0,z,Wed Sep 24 2025 13:39:04 GMT-0500 (Central Daylight Time),542050.599999994,031_y_m_n_a.png,I,z,466,11,2,1478.7000000029802,540571.8999999911,8056,NNB,C,9
9,test,1,0.0,2-Back,1.0,m,Wed Sep 24 2025 13:39:04 GMT-0500 (Central Daylight Time),543616.8999999911,006_m_f_n_a.png,I,m,543,12,2,1562.2000000029802,542054.6999999881,8056,NNB,C,10
10,test,1,0.0,2-Back,1.0,m,Wed Sep 24 2025 13:39:04 GMT-0500 (Central Daylight Time),545466.1999999881,006_m_f_n_a.png,I,m,816,13,2,1845.0999999940395,543621.099999994,8056,NNB,C,11
11,test,1,0.0,2-Back,1.0,m,Wed Sep 24 2025 13:39:04 GMT-0500 (Central Daylight Time),547515.799999997,146_o_m_n_a.png,I,m,1023,14,2,2045.7000000029802,545470.099999994,8056,NNB,C,12
12,test,1,0.0,2-Back,1.0,m,Wed Sep 24 2025 13:39:04 GMT-0500 (Central Daylight Time),549766.0,030_o_f_n_a.png,I,m,1230,15,2,2245.7000000029802,547520.299999997,8056,NNB,C,13
13,test,1,1.0,2-Back,1.0,z,Wed Sep 24 2025 13:39:04 GMT-0500 (Central Daylight Time),552080.8999999911,146_o_m_n_a.png,I,z,1284,16,2,2310.7999999970198,549770.099999994,8056,NNB,C,14
14,test,1,0.0,2-Back,1.0,m,Wed Sep 24 2025 13:39:04 GMT-0500 (Central Daylight Time),553796.6999999881,093_m_f_n_a.png,I,m,697,17,2,1711.699999988079,552085.0,8056,NNB,C,15
15,test,1,0.0,2-Back,1.0,m,Wed Sep 24 2025 13:39:04 GMT-0500 (Central Daylight Time),555446.5,082_m_m_n_a.png,I,m,628,18,2,1646.4000000059605,553800.099999994,8056,NNB,C,16
0,test,2,0.0,2-Back,,,Wed Sep 24 2025 13:39:04 GMT-0500 (Central Daylight Time),555446.5,082_m_m_n_a.png,I,space,30659,1,2,1646.4000000059605,553800.099999994,8056,NNB,C,0
0,test,2,0.0,2-Back,,,Wed Sep 24 2025 13:39:04 GMT-0500 (Central Daylight Time),555446.5,028_y_f_n_a.png,I,space,30659,2,2,1646.4000000059605,553800.099999994,8056,NNB,C,0
1,test,2,1.0,2-Back,1.0,z,Wed Sep 24 2025 13:39:04 GMT-0500 (Central Daylight Time),593001.1999999881,082_m_m_n_a.png,I,z,709,3,2,1727.3999999910593,591273.799999997,8056,NNB,C,1
2,test,2,0.0,2-Back,1.0,m,Wed Sep 24 2025 13:39:04 GMT-0500 (Central Daylight Time),594650.599999994,093_m_f_n_a.png,I,m,632,4,2,1645.9000000059605,593004.6999999881,8056,NNB,C,2
2,test,2,0.0,2-Back,0.0,m,Wed Sep 24 2025 13:39:04 GMT-0500 (Central Daylight Time),596550.1999999881,028_y_f_n_a.png,I,z,879,5,2,1895.5999999940395,594654.599999994,8056,NNB,C,3
3,test,2,0.0,2-Back,1.0,m,Wed Sep 24 2025 13:39:04 GMT-0500 (Central Daylight Time),598632.8999999911,146_o_m_n_a.png,I,m,1037,6,2,2079.5999999940395,596553.299999997,8056,NNB,C,4
4,test,2,0.0,2-Back,1.0,m,Wed Sep 24 2025 13:39:04 GMT-0500 (Central Daylight Time),601298.599999994,098_y_f_n_a.png,I,m,1648,7,2,2662.0999999940395,598636.5,8056,NNB,C,5
5,test,2,1.0,2-Back,1.0,z,Wed Sep 24 2025 13:39:04 GMT-0500 (Central Daylight Time),602965.0,146_o_m_n_a.png,I,z,647,8,2,1662.5,601302.5,8056,NNB,C,6
6,test,2,0.0,2-Back,1.0,m,Wed Sep 24 2025 13:39:04 GMT-0500 (Central Daylight Time),605014.299999997,031_y_m_n_a.png,I,m,1029,9,2,2043.1000000089407,602971.1999999881,8056,NNB,C,7
6,test,2,0.0,2-Back,0.0,m,Wed Sep 24 2025 13:39:04 GMT-0500 (Central Daylight Time),606763.6999999881,031_y_m_n_a.png,I,z,723,10,2,1744.8999999910593,605018.799999997,8056,NNB,C,8
7,test,2,0.0,2-Back,1.0,m,Wed Sep 24 2025 13:39:04 GMT-0500 (Central Daylight Time),608662.8999999911,006_m_f_n_a.png,I,m,878,11,2,1894.8999999910593,606768.0,8056,NNB,C,9
8,test,2,0.0,2-Back,1.0,m,Wed Sep 24 2025 13:39:04 GMT-0500 (Central Daylight Time),610762.299999997,028_y_f_n_a.png,I,m,1074,12,2,2093.9000000059605,608668.3999999911,8056,NNB,C,10
9,test,2,1.0,2-Back,1.0,z,Wed Sep 24 2025 13:39:04 GMT-0500 (Central Daylight Time),612645.099999994,006_m_f_n_a.png,I,z,855,13,2,1878.9000000059605,610766.1999999881,8056,NNB,C,11
10,test,2,0.0,2-Back,1.0,m,Wed Sep 24 2025 13:39:04 GMT-0500 (Central Daylight Time),614611.1999999881,059_o_m_n_a.png,I,m,939,14,2,1961.699999988079,612649.5,8056,NNB,C,12
11,test,2,0.0,2-Back,1.0,m,Wed Sep 24 2025 13:39:04 GMT-0500 (Central Daylight Time),616994.0,059_o_m_n_a.png,I,m,1358,15,2,2379.0,614615.0,8056,NNB,C,13
12,test,2,0.0,2-Back,1.0,m,Wed Sep 24 2025 13:39:04 GMT-0500 (Central Daylight Time),618960.1999999881,030_o_f_n_a.png,I,m,944,16,2,1962.0,616998.1999999881,8056,NNB,C,14
13,test,2,0.0,2-Back,1.0,m,Wed Sep 24 2025 13:39:04 GMT-0500 (Central Daylight Time),621140.0,092_m_m_n_a.png,I,m,1164,17,2,2175.9000000059605,618964.099999994,8056,NNB,C,15
14,test,2,1.0,2-Back,1.0,z,Wed Sep 24 2025 13:39:04 GMT-0500 (Central Daylight Time),623358.3999999911,030_o_f_n_a.png,I,z,1187,18,2,2214.7000000029802,621143.6999999881,8056,NNB,C,16
0,test,3,1.0,2-Back,,,Wed Sep 24 2025 13:39:04 GMT-0500 (Central Daylight Time),623358.3999999911,057_y_m_n_a.png,I,space,58723,1,2,2214.7000000029802,621143.6999999881,8056,NNB,C,0
0,test,3,1.0,2-Back,,,Wed Sep 24 2025 13:39:04 GMT-0500 (Central Daylight Time),623358.3999999911,057_y_m_n_a.png,I,space,58723,2,2,2214.7000000029802,621143.6999999881,8056,NNB,C,0
1,test,3,0.0,2-Back,1.0,m,Wed Sep 24 2025 13:39:04 GMT-0500 (Central Daylight Time),689037.8999999911,030_o_f_n_a.png,I,m,771,3,2,1795.3999999910593,687242.5,8056,NNB,C,1
2,test,3,0.0,2-Back,1.0,m,Wed Sep 24 2025 13:39:04 GMT-0500 (Central Daylight Time),690570.6999999881,082_m_m_n_a.png,I,m,506,4,2,1528.8999999910593,689041.799999997,8056,NNB,C,2
3,test,3,1.0,2-Back,1.0,z,Wed Sep 24 2025 13:39:04 GMT-0500 (Central Daylight Time),692219.8999999911,030_o_f_n_a.png,I,z,629,5,2,1645.3999999910593,690574.5,8056,NNB,C,3
4,test,3,0.0,2-Back,1.0,m,Wed Sep 24 2025 13:39:04 GMT-0500 (Central Daylight Time),694335.799999997,031_y_m_n_a.png,I,m,1085,6,2,2112.0,692223.799999997,8056,NNB,C,4
5,test,3,0.0,2-Back,1.0,m,Wed Sep 24 2025 13:39:04 GMT-0500 (Central Daylight Time),696352.5,082_m_m_n_a.png,I,m,986,7,2,2012.2000000029802,694340.299999997,8056,NNB,C,5
6,test,3,1.0,2-Back,1.0,z,Wed Sep 24 2025 13:39:04 GMT-0500 (Central Daylight Time),698118.1999999881,031_y_m_n_a.png,I,z,737,8,2,1761.7999999970198,696356.3999999911,8056,NNB,C,6
7,test,3,0.0,2-Back,1.0,m,Wed Sep 24 2025 13:39:04 GMT-0500 (Central Daylight Time),699801.799999997,028_y_f_n_a.png,I,m,666,9,2,1680.0,698121.799999997,8056,NNB,C,7
8,test,3,0.0,2-Back,1.0,m,Wed Sep 24 2025 13:39:04 GMT-0500 (Central Daylight Time),701984.0,092_m_m_n_a.png,I,m,1152,10,2,2178.7000000029802,699805.299999997,8056,NNB,C,8
9,test,3,1.0,2-Back,1.0,z,Wed Sep 24 2025 13:39:04 GMT-0500 (Central Daylight Time),703433.299999997,028_y_f_n_a.png,I,z,425,11,2,1445.5,701987.799999997,8056,NNB,C,9
10,test,3,1.0,2-Back,1.0,z,Wed Sep 24 2025 13:39:04 GMT-0500 (Central Daylight Time),705215.6999999881,092_m_m_n_a.png,I,z,751,12,2,1778.0,703437.6999999881,8056,NNB,C,10
11,test,3,0.0,2-Back,1.0,m,Wed Sep 24 2025 13:39:04 GMT-0500 (Central Daylight Time),707148.6999999881,030_o_f_n_a.png,I,m,914,13,2,1928.5,705220.1999999881,8056,NNB,C,11
12,test,3,0.0,2-Back,1.0,m,Wed Sep 24 2025 13:39:04 GMT-0500 (Central Daylight Time),709148.299999997,093_m_f_n_a.png,I,m,981,14,2,1995.5,707152.799999997,8056,NNB,C,12
13,test,3,0.0,2-Back,1.0,m,Wed Sep 24 2025 13:39:04 GMT-0500 (Central Daylight Time),710914.5,146_o_m_n_a.png,I,m,749,15,2,1762.300000011921,709152.1999999881,8056,NNB,C,13
14,test,3,1.0,2-Back,1.0,z,Wed Sep 24 2025 13:39:04 GMT-0500 (Central Daylight Time),713096.8999999911,093_m_f_n_a.png,I,z,1150,16,2,2178.7999999970198,710918.099999994,8056,NNB,C,14
15,test,3,0.0,2-Back,1.0,m,Wed Sep 24 2025 13:39:04 GMT-0500 (Central Daylight Time),714979.799999997,130_o_f_n_a.png,I,m,856,17,2,1879.2999999970198,713100.5,8056,NNB,C,15
16,test,3,0.0,2-Back,1.0,m,Wed Sep 24 2025 13:39:04 GMT-0500 (Central Daylight Time),717129.0,130_o_f_n_a.png,I,m,1118,18,2,2145.9000000059605,714983.099999994,8056,NNB,C,16
0,test,4,0.0,2-Back,,,Wed Sep 24 2025 13:39:04 GMT-0500 (Central Daylight Time),717129.0,059_o_m_n_a.png,I,space,1272,1,2,2145.9000000059605,714983.099999994,8056,NNB,C,0
0,test,4,0.0,2-Back,,,Wed Sep 24 2025 13:39:04 GMT-0500 (Central Daylight Time),717129.0,098_y_f_n_a.png,I,space,1272,2,2,2145.9000000059605,714983.099999994,8056,NNB,C,0
1,test,4,1.0,2-Back,1.0,z,Wed Sep 24 2025 13:39:04 GMT-0500 (Central Daylight Time),725676.599999994,059_o_m_n_a.png,I,z,1022,3,2,2045.9000000059605,723630.6999999881,8056,NNB,C,1
2,test,4,1.0,2-Back,1.0,z,Wed Sep 24 2025 13:39:04 GMT-0500 (Central Daylight Time),728041.8999999911,098_y_f_n_a.png,I,z,1349,4,2,2361.7000000029802,725680.1999999881,8056,NNB,C,2
3,test,4,0.0,2-Back,1.0,m,Wed Sep 24 2025 13:39:04 GMT-0500 (Central Daylight Time),730441.3999999911,030_o_f_n_a.png,I,m,1375,5,2,2395.5999999940395,728045.799999997,8056,NNB,C,3
4,test,4,0.0,2-Back,1.0,m,Wed Sep 24 2025 13:39:04 GMT-0500 (Central Daylight Time),732674.0,030_o_f_n_a.png,I,m,1200,6,2,2228.7000000029802,730445.299999997,8056,NNB,C,4
4,test,4,0.0,2-Back,0.0,m,Wed Sep 24 2025 13:39:04 GMT-0500 (Central Daylight Time),735706.599999994,006_m_f_n_a.png,I,None,2015,7,2,3028.9000000059605,732677.6999999881,8056,NNB,C,5
5,test,4,0.0,2-Back,1.0,m,Wed Sep 24 2025 13:39:04 GMT-0500 (Central Daylight Time),737739.0,031_y_m_n_a.png,I,m,1015,8,2,2028.5,735710.5,8056,NNB,C,6
5,test,4,1.0,2-Back,0.0,z,Wed Sep 24 2025 13:39:04 GMT-0500 (Central Daylight Time),739988.599999994,006_m_f_n_a.png,I,m,1230,9,2,2245.5,737743.099999994,8056,NNB,C,7
6,test,4,0.0,2-Back,1.0,m,Wed Sep 24 2025 13:39:04 GMT-0500 (Central Daylight Time),741837.8999999911,092_m_m_n_a.png,I,m,829,10,2,1846.0,739991.8999999911,8056,NNB,C,8
7,test,4,0.0,2-Back,1.0,m,Wed Sep 24 2025 13:39:04 GMT-0500 (Central Daylight Time),744853.599999994,031_y_m_n_a.png,I,m,1995,11,2,3012.0999999940395,741841.5,8056,NNB,C,9
7,test,4,0.0,2-Back,0.0,m,Wed Sep 24 2025 13:39:04 GMT-0500 (Central Daylight Time),747886.1999999881,130_o_f_n_a.png,I,None,2016,12,2,3028.0999999940395,744858.099999994,8056,NNB,C,10
8,test,4,0.0,2-Back,1.0,m,Wed Sep 24 2025 13:39:04 GMT-0500 (Central Daylight Time),749635.5,057_y_m_n_a.png,I,m,731,13,2,1744.7000000029802,747890.799999997,8056,NNB,C,11
9,test,4,1.0,2-Back,1.0,z,Wed Sep 24 2025 13:39:04 GMT-0500 (Central Daylight Time),751601.599999994,130_o_f_n_a.png,I,z,942,14,2,1962.5999999940395,749639.0,8056,NNB,C,12
10,test,4,1.0,2-Back,1.0,z,Wed Sep 24 2025 13:39:04 GMT-0500 (Central Daylight Time),753802.0,057_y_m_n_a.png,I,z,1166,15,2,2195.800000011921,751606.1999999881,8056,NNB,C,13
11,test,4,0.0,2-Back,1.0,m,Wed Sep 24 2025 13:39:04 GMT-0500 (Central Daylight Time),755466.6999999881,082_m_m_n_a.png,I,m,640,16,2,1660.8999999910593,753805.799999997,8056,NNB,C,14
12,test,4,0.0,2-Back,1.0,m,Wed Sep 24 2025 13:39:04 GMT-0500 (Central Daylight Time),757399.6999999881,093_m_f_n_a.png,I,m,909,17,2,1928.7999999970198,755470.8999999911,8056,NNB,C,15
12,test,4,1.0,2-Back,0.0,z,Wed Sep 24 2025 13:39:04 GMT-0500 (Central Daylight Time),760432.299999997,082_m_m_n_a.png,I,None,2016,18,2,3028.1000000089407,757404.1999999881,8056,NNB,C,16
0,test,5,1.0,2-Back,,,Wed Sep 24 2025 13:39:04 GMT-0500 (Central Daylight Time),760432.299999997,057_y_m_n_a.png,I,space,1617,1,2,3028.1000000089407,757404.1999999881,8056,NNB,C,0
0,test,5,1.0,2-Back,,,Wed Sep 24 2025 13:39:04 GMT-0500 (Central Daylight Time),760432.299999997,093_m_f_n_a.png,I,space,1617,2,2,3028.1000000089407,757404.1999999881,8056,NNB,C,0
0,test,5,1.0,2-Back,0.0,z,Wed Sep 24 2025 13:39:04 GMT-0500 (Central Daylight Time),769062.5,057_y_m_n_a.png,I,m,928,3,2,1944.4000000059605,767118.099999994,8056,NNB,C,1
1,test,5,1.0,2-Back,1.0,z,Wed Sep 24 2025 13:39:04 GMT-0500 (Central Daylight Time),770512.299999997,093_m_f_n_a.png,I,z,419,4,2,1446.4000000059605,769065.8999999911,8056,NNB,C,2
2,test,5,0.0,2-Back,1.0,m,Wed Sep 24 2025 13:39:04 GMT-0500 (Central Daylight Time),772328.1999999881,130_o_f_n_a.png,I,m,793,5,2,1812.0,770516.1999999881,8056,NNB,C,3
3,test,5,0.0,2-Back,1.0,m,Wed Sep 24 2025 13:39:04 GMT-0500 (Central Daylight Time),774527.599999994,057_y_m_n_a.png,I,m,1169,6,2,2195.2999999970198,772332.299999997,8056,NNB,C,4
4,test,5,0.0,2-Back,1.0,m,Wed Sep 24 2025 13:39:04 GMT-0500 (Central Daylight Time),776143.799999997,028_y_f_n_a.png,I,m,586,7,2,1612.1000000089407,774531.6999999881,8056,NNB,C,5
5,test,5,0.0,2-Back,1.0,m,Wed Sep 24 2025 13:39:04 GMT-0500 (Central Daylight Time),777860.0,130_o_f_n_a.png,I,m,689,8,2,1712.300000011921,776147.6999999881,8056,NNB,C,6
6,test,5,1.0,2-Back,1.0,z,Wed Sep 24 2025 13:39:04 GMT-0500 (Central Daylight Time),779626.0,028_y_f_n_a.png,I,z,740,9,2,1762.0,777864.0,8056,NNB,C,7
7,test,5,0.0,2-Back,1.0,m,Wed Sep 24 2025 13:39:04 GMT-0500 (Central Daylight Time),781258.8999999911,146_o_m_n_a.png,I,m,608,10,2,1629.0999999940395,779629.799999997,8056,NNB,C,8
8,test,5,0.0,2-Back,1.0,m,Wed Sep 24 2025 13:39:04 GMT-0500 (Central Daylight Time),783124.8999999911,006_m_f_n_a.png,I,m,846,11,2,1861.7000000029802,781263.1999999881,8056,NNB,C,9
8,test,5,0.0,2-Back,0.0,m,Wed Sep 24 2025 13:39:04 GMT-0500 (Central Daylight Time),785174.299999997,092_m_m_n_a.png,I,z,1028,12,2,2045.9000000059605,783128.3999999911,8056,NNB,C,10
9,test,5,0.0,2-Back,1.0,m,Wed Sep 24 2025 13:39:04 GMT-0500 (Central Daylight Time),787007.0,146_o_m_n_a.png,I,m,683,13,2,1828.6000000089407,785178.3999999911,8056,NNB,C,11
10,test,5,1.0,2-Back,1.0,z,Wed Sep 24 2025 13:39:04 GMT-0500 (Central Daylight Time),788789.799999997,092_m_m_n_a.png,I,z,763,14,2,1778.7999999970198,787011.0,8056,NNB,C,12
11,test,5,0.0,2-Back,1.0,m,Wed Sep 24 2025 13:39:04 GMT-0500 (Central Daylight Time),790439.299999997,098_y_f_n_a.png,I,m,619,15,2,1645.7000000029802,788793.599999994,8056,NNB,C,13
12,test,5,0.0,2-Back,1.0,m,Wed Sep 24 2025 13:39:04 GMT-0500 (Central Daylight Time),792255.3999999911,059_o_m_n_a.png,I,m,794,16,2,1812.3999999910593,790443.0,8056,NNB,C,14
13,test,5,0.0,2-Back,1.0,m,Wed Sep 24 2025 13:39:04 GMT-0500 (Central Daylight Time),794255.099999994,006_m_f_n_a.png,I,m,970,17,2,1993.7999999970198,792261.299999997,8056,NNB,C,15
14,test,5,1.0,2-Back,1.0,z,Wed Sep 24 2025 13:39:04 GMT-0500 (Central Daylight Time),796037.599999994,059_o_m_n_a.png,I,z,755,18,2,1778.7999999970198,794258.799999997,8056,NNB,C,16
