acc_sum,block,block_c,change,condition,correct,correct_response,datetime,endtime,face,project,response,response_time,row_sel,session_number,start_end,starttime,subject_id,task,task_vers,trial
0,prac,1,,1-Back,,,Wed Jan 14 2026 12:46:22 GMT-0600 (Central Standard Time),,097_m_f_n_a.png,I,space,4360,1,3,,,8056,NNB,B,0
1,prac,1,0.0,1-Back,1.0,m,Wed Jan 14 2026 12:46:22 GMT-0600 (Central Standard Time),96566.5,152_y_f_n_a.png,I,m,1583,2,3,2417.5,94149.0,8056,NNB,B,1
2,prac,1,1.0,1-Back,1.0,z,Wed Jan 14 2026 12:46:22 GMT-0600 (Central Standard Time),98099.40000000596,152_y_f_n_a.png,I,z,752,3,3,1523.0999999940395,96576.30000001192,8056,NNB,B,2
3,prac,1,0.0,1-Back,1.0,m,Wed Jan 14 2026 12:46:22 GMT-0600 (Central Standard Time),99732.0,176_o_m_n_a.png,I,m,765,4,3,1622.0999999940395,98109.90000000596,8056,NNB,B,3
4,prac,1,0.0,1-Back,1.0,m,Wed Jan 14 2026 12:46:22 GMT-0600 (Central Standard Time),101198.30000001192,126_m_m_n_a.png,I,m,683,5,3,1456.5,99741.80000001192,8056,NNB,B,4
5,prac,1,1.0,1-Back,1.0,z,Wed Jan 14 2026 12:46:22 GMT-0600 (Central Standard Time),102748.0,126_m_m_n_a.png,I,z,763,6,3,1542.0999999940395,101205.90000000596,8056,NNB,B,5
6,prac,1,0.0,1-Back,1.0,m,Wed Jan 14 2026 12:46:22 GMT-0600 (Central Standard Time),104363.80000001192,086_o_f_n_a.png,I,m,827,7,3,1606.5,102757.30000001192,8056,NNB,B,6
7,prac,1,0.0,1-Back,1.0,m,Wed Jan 14 2026 12:46:22 GMT-0600 (Central Standard Time),105863.40000000596,178_m_m_n_a.png,I,m,625,8,3,1488.800000011921,104374.59999999404,8056,NNB,B,7
8,prac,1,0.0,1-Back,1.0,m,Wed Jan 14 2026 12:46:22 GMT-0600 (Central Standard Time),107279.59999999404,097_m_f_n_a.png,I,m,640,9,3,1406.699999988079,105872.90000000596,8056,NNB,B,8
9,prac,1,1.0,1-Back,1.0,z,Wed Jan 14 2026 12:46:22 GMT-0600 (Central Standard Time),108795.90000000596,097_m_f_n_a.png,I,z,737,10,3,1508.7000000178814,107287.19999998808,8056,NNB,B,9
10,prac,1,0.0,1-Back,1.0,m,Wed Jan 14 2026 12:46:22 GMT-0600 (Central Standard Time),110328.80000001192,176_o_m_n_a.png,I,m,748,11,3,1524.6000000238419,108804.19999998808,8056,NNB,B,10
11,prac,1,0.0,1-Back,1.0,m,Wed Jan 14 2026 12:46:22 GMT-0600 (Central Standard Time),111861.5,173_y_f_n_a.png,I,m,672,12,3,1523.5,110338.0,8056,NNB,B,11
0,test,1,0.0,1-Back,,,Wed Jan 14 2026 12:46:22 GMT-0600 (Central Standard Time),111861.5,152_y_f_n_a.png,I,space,6674,1,3,1523.5,110338.0,8056,NNB,B,0
1,test,1,0.0,1-Back,1.0,m,Wed Jan 14 2026 12:46:22 GMT-0600 (Central Standard Time),134721.09999999404,029_m_f_n_a.png,I,m,933,2,3,1958.7999999821186,132762.30000001192,8056,NNB,B,1
2,test,1,0.0,1-Back,1.0,m,Wed Jan 14 2026 12:46:22 GMT-0600 (Central Standard Time),136420.5,173_y_f_n_a.png,I,m,671,3,3,1693.5,134727.0,8056,NNB,B,2
3,test,1,1.0,1-Back,1.0,z,Wed Jan 14 2026 12:46:22 GMT-0600 (Central Standard Time),137953.30000001192,173_y_f_n_a.png,I,z,498,4,3,1526.9000000059605,136426.40000000596,8056,NNB,B,3
4,test,1,0.0,1-Back,1.0,m,Wed Jan 14 2026 12:46:22 GMT-0600 (Central Standard Time),139869.5,029_m_f_n_a.png,I,m,895,5,3,1911.4000000059605,137958.09999999404,8056,NNB,B,4
5,test,1,0.0,1-Back,1.0,m,Wed Jan 14 2026 12:46:22 GMT-0600 (Central Standard Time),141402.30000001192,176_o_m_n_a.png,I,m,515,6,3,1526.300000011921,139876.0,8056,NNB,B,5
6,test,1,1.0,1-Back,1.0,z,Wed Jan 14 2026 12:46:22 GMT-0600 (Central Standard Time),143127.80000001192,176_o_m_n_a.png,I,z,709,7,3,1721.5,141406.30000001192,8056,NNB,B,6
7,test,1,0.0,1-Back,1.0,m,Wed Jan 14 2026 12:46:22 GMT-0600 (Central Standard Time),144734.69999998808,126_m_m_n_a.png,I,m,586,8,3,1601.5,143133.19999998808,8056,NNB,B,7
8,test,1,0.0,1-Back,1.0,m,Wed Jan 14 2026 12:46:22 GMT-0600 (Central Standard Time),146367.40000000596,086_o_f_n_a.png,I,m,602,9,3,1626.800000011921,144740.59999999404,8056,NNB,B,8
9,test,1,0.0,1-Back,1.0,m,Wed Jan 14 2026 12:46:22 GMT-0600 (Central Standard Time),148216.80000001192,126_m_m_n_a.png,I,m,825,10,3,1844.4000000059605,146372.40000000596,8056,NNB,B,9
10,test,1,0.0,1-Back,1.0,m,Wed Jan 14 2026 12:46:22 GMT-0600 (Central Standard Time),149933.0,153_y_m_n_a.png,I,m,687,11,3,1710.199999988079,148222.80000001192,8056,NNB,B,10
11,test,1,1.0,1-Back,1.0,z,Wed Jan 14 2026 12:46:22 GMT-0600 (Central Standard Time),151599.09999999404,153_y_m_n_a.png,I,z,643,12,3,1660.5999999940395,149938.5,8056,NNB,B,11
12,test,1,0.0,1-Back,1.0,m,Wed Jan 14 2026 12:46:22 GMT-0600 (Central Standard Time),153265.5,110_o_f_n_a.png,I,m,641,13,3,1661.0,151604.5,8056,NNB,B,12
13,test,1,1.0,1-Back,1.0,z,Wed Jan 14 2026 12:46:22 GMT-0600 (Central Standard Time),155197.90000000596,110_o_f_n_a.png,I,z,911,14,3,1926.300000011921,153271.59999999404,8056,NNB,B,13
14,test,1,0.0,1-Back,1.0,m,Wed Jan 14 2026 12:46:22 GMT-0600 (Central Standard Time),156764.09999999404,013_y_m_n_a.png,I,m,538,15,3,1560.9000000059605,155203.19999998808,8056,NNB,B,14
15,test,1,0.0,1-Back,1.0,m,Wed Jan 14 2026 12:46:22 GMT-0600 (Central Standard Time),158380.40000000596,097_m_f_n_a.png,I,m,588,16,3,1609.9000000059605,156770.5,8056,NNB,B,15
16,test,1,0.0,1-Back,1.0,m,Wed Jan 14 2026 12:46:22 GMT-0600 (Central Standard Time),159979.80000001192,065_o_m_n_a.png,I,m,580,17,3,1593.9000000059605,158385.90000000596,8056,NNB,B,16
17,test,1,0.0,1-Back,1.0,m,Wed Jan 14 2026 12:46:22 GMT-0600 (Central Standard Time),161745.90000000596,097_m_f_n_a.png,I,m,741,18,3,1762.4000000059605,159983.5,8056,NNB,B,17
0,test,2,0.0,1-Back,,,Wed Jan 14 2026 12:46:22 GMT-0600 (Central Standard Time),161745.90000000596,126_m_m_n_a.png,I,space,1615,1,3,1762.4000000059605,159983.5,8056,NNB,B,0
1,test,2,0.0,1-Back,1.0,m,Wed Jan 14 2026 12:46:22 GMT-0600 (Central Standard Time),167060.90000000596,029_m_f_n_a.png,I,m,662,2,3,1674.0,165386.90000000596,8056,NNB,B,1
2,test,2,1.0,1-Back,1.0,z,Wed Jan 14 2026 12:46:22 GMT-0600 (Central Standard Time),168810.30000001192,029_m_f_n_a.png,I,z,731,3,3,1744.7000000178814,167065.59999999404,8056,NNB,B,2
3,test,2,0.0,1-Back,1.0,m,Wed Jan 14 2026 12:46:22 GMT-0600 (Central Standard Time),170643.09999999404,126_m_m_n_a.png,I,m,814,4,3,1827.0,168816.09999999404,8056,NNB,B,3
4,test,2,0.0,1-Back,1.0,m,Wed Jan 14 2026 12:46:22 GMT-0600 (Central Standard Time),172259.30000001192,153_y_m_n_a.png,I,m,597,5,3,1609.9000000059605,170649.40000000596,8056,NNB,B,4
5,test,2,0.0,1-Back,1.0,m,Wed Jan 14 2026 12:46:22 GMT-0600 (Central Standard Time),173925.5,152_y_f_n_a.png,I,m,645,6,3,1661.4000000059605,172264.09999999404,8056,NNB,B,5
6,test,2,1.0,1-Back,1.0,z,Wed Jan 14 2026 12:46:22 GMT-0600 (Central Standard Time),175425.0,152_y_f_n_a.png,I,z,467,7,3,1493.0999999940395,173931.90000000596,8056,NNB,B,6
7,test,2,0.0,1-Back,1.0,m,Wed Jan 14 2026 12:46:22 GMT-0600 (Central Standard Time),177024.59999999404,153_y_m_n_a.png,I,m,567,8,3,1594.2999999821186,175430.30000001192,8056,NNB,B,7
8,test,2,0.0,1-Back,1.0,m,Wed Jan 14 2026 12:46:22 GMT-0600 (Central Standard Time),178674.0,110_o_f_n_a.png,I,m,632,9,3,1644.5999999940395,177029.40000000596,8056,NNB,B,8
9,test,2,0.0,1-Back,1.0,m,Wed Jan 14 2026 12:46:22 GMT-0600 (Central Standard Time),180273.30000001192,178_m_m_n_a.png,I,m,582,10,3,1594.6000000238419,178678.69999998808,8056,NNB,B,9
9,test,2,1.0,1-Back,0.0,z,Wed Jan 14 2026 12:46:22 GMT-0600 (Central Standard Time),181973.0,178_m_m_n_a.png,I,m,679,11,3,1694.5,180278.5,8056,NNB,B,10
10,test,2,0.0,1-Back,1.0,m,Wed Jan 14 2026 12:46:22 GMT-0600 (Central Standard Time),183505.80000001192,110_o_f_n_a.png,I,m,516,12,3,1527.7000000178814,181978.09999999404,8056,NNB,B,11
11,test,2,0.0,1-Back,1.0,m,Wed Jan 14 2026 12:46:22 GMT-0600 (Central Standard Time),185305.19999998808,086_o_f_n_a.png,I,m,783,13,3,1792.8999999761581,183512.30000001192,8056,NNB,B,12
12,test,2,0.0,1-Back,1.0,m,Wed Jan 14 2026 12:46:22 GMT-0600 (Central Standard Time),186821.5,176_o_m_n_a.png,I,m,487,14,3,1512.5,185309.0,8056,NNB,B,13
13,test,2,0.0,1-Back,1.0,m,Wed Jan 14 2026 12:46:22 GMT-0600 (Central Standard Time),188437.59999999404,065_o_m_n_a.png,I,m,595,15,3,1611.0999999940395,186826.5,8056,NNB,B,14
14,test,2,1.0,1-Back,1.0,z,Wed Jan 14 2026 12:46:22 GMT-0600 (Central Standard Time),190187.19999998808,065_o_m_n_a.png,I,z,732,16,3,1744.3999999761581,188442.80000001192,8056,NNB,B,15
15,test,2,0.0,1-Back,1.0,m,Wed Jan 14 2026 12:46:22 GMT-0600 (Central Standard Time),191936.5,013_y_m_n_a.png,I,m,717,17,3,1743.4000000059605,190193.09999999404,8056,NNB,B,16
15,test,2,1.0,1-Back,0.0,z,Wed Jan 14 2026 12:46:22 GMT-0600 (Central Standard Time),193619.19999998808,013_y_m_n_a.png,I,m,656,18,3,1677.0,191942.19999998808,8056,NNB,B,17
0,test,3,1.0,1-Back,,,Wed Jan 14 2026 12:46:22 GMT-0600 (Central Standard Time),193619.19999998808,173_y_f_n_a.png,I,space,1869,1,3,1677.0,191942.19999998808,8056,NNB,B,0
1,test,3,0.0,1-Back,1.0,m,Wed Jan 14 2026 12:46:22 GMT-0600 (Central Standard Time),199167.5,065_o_m_n_a.png,I,m,543,1,3,1559.5999999940395,197607.90000000596,8056,NNB,B,1
2,test,3,1.0,1-Back,1.0,z,Wed Jan 14 2026 12:46:22 GMT-0600 (Central Standard Time),200900.19999998808,065_o_m_n_a.png,I,z,705,1,3,1727.699999988079,199172.5,8056,NNB,B,2
3,test,3,0.0,1-Back,1.0,m,Wed Jan 14 2026 12:46:22 GMT-0600 (Central Standard Time),202466.40000000596,097_m_f_n_a.png,I,m,548,1,3,1561.0,200905.40000000596,8056,NNB,B,3
4,test,3,1.0,1-Back,1.0,z,Wed Jan 14 2026 12:46:22 GMT-0600 (Central Standard Time),204265.90000000596,097_m_f_n_a.png,I,z,782,1,3,1794.2000000178814,202471.69999998808,8056,NNB,B,4
5,test,3,0.0,1-Back,1.0,m,Wed Jan 14 2026 12:46:22 GMT-0600 (Central Standard Time),205865.5,110_o_f_n_a.png,I,m,566,1,3,1593.4000000059605,204272.09999999404,8056,NNB,B,5
6,test,3,0.0,1-Back,1.0,m,Wed Jan 14 2026 12:46:22 GMT-0600 (Central Standard Time),207714.80000001192,153_y_m_n_a.png,I,m,823,1,3,1844.1000000238419,205870.69999998808,8056,NNB,B,6
7,test,3,0.0,1-Back,1.0,m,Wed Jan 14 2026 12:46:22 GMT-0600 (Central Standard Time),209231.19999998808,110_o_f_n_a.png,I,m,485,1,3,1510.5999999940395,207720.59999999404,8056,NNB,B,7
8,test,3,0.0,1-Back,1.0,m,Wed Jan 14 2026 12:46:22 GMT-0600 (Central Standard Time),210930.5,013_y_m_n_a.png,I,m,681,1,3,1694.800000011921,209235.69999998808,8056,NNB,B,8
9,test,3,1.0,1-Back,1.0,z,Wed Jan 14 2026 12:46:22 GMT-0600 (Central Standard Time),212546.69999998808,013_y_m_n_a.png,I,z,590,1,3,1610.7999999821186,210935.90000000596,8056,NNB,B,9
10,test,3,0.0,1-Back,1.0,m,Wed Jan 14 2026 12:46:22 GMT-0600 (Central Standard Time),214312.90000000596,029_m_f_n_a.png,I,m,742,1,3,1762.0,212550.90000000596,8056,NNB,B,10
11,test,3,0.0,1-Back,1.0,m,Wed Jan 14 2026 12:46:22 GMT-0600 (Central Standard Time),215945.69999998808,152_y_f_n_a.png,I,m,607,1,3,1628.199999988079,214317.5,8056,NNB,B,11
12,test,3,1.0,1-Back,1.0,z,Wed Jan 14 2026 12:46:22 GMT-0600 (Central Standard Time),217845.0,152_y_f_n_a.png,I,z,871,1,3,1892.699999988079,215952.30000001192,8056,NNB,B,12
13,test,3,0.0,1-Back,1.0,m,Wed Jan 14 2026 12:46:22 GMT-0600 (Central Standard Time),219694.40000000596,029_m_f_n_a.png,I,m,827,1,3,1843.800000011921,217850.59999999404,8056,NNB,B,13
14,test,3,0.0,1-Back,1.0,m,Wed Jan 14 2026 12:46:22 GMT-0600 (Central Standard Time),221460.59999999404,126_m_m_n_a.png,I,m,738,1,3,1762.0999999940395,219698.5,8056,NNB,B,14
14,test,3,1.0,1-Back,0.0,z,Wed Jan 14 2026 12:46:22 GMT-0600 (Central Standard Time),223477.69999998808,126_m_m_n_a.png,I,m,988,1,3,2011.5999999940395,221466.09999999404,8056,NNB,B,15
15,test,3,0.0,1-Back,1.0,m,Wed Jan 14 2026 12:46:22 GMT-0600 (Central Standard Time),225376.09999999404,086_o_f_n_a.png,I,m,868,1,3,1893.2999999821186,223482.80000001192,8056,NNB,B,16
15,test,3,1.0,1-Back,0.0,z,Wed Jan 14 2026 12:46:22 GMT-0600 (Central Standard Time),227708.69999998808,086_o_f_n_a.png,I,m,1304,1,3,2328.5,225380.19999998808,8056,NNB,B,17
0,test,4,1.0,1-Back,,,Wed Jan 14 2026 12:46:22 GMT-0600 (Central Standard Time),227708.69999998808,097_m_f_n_a.png,I,space,56796,1,3,2328.5,225380.19999998808,8056,NNB,B,0
1,test,4,0.0,1-Back,1.0,m,Wed Jan 14 2026 12:46:22 GMT-0600 (Central Standard Time),288239.8000000119,065_o_m_n_a.png,I,m,609,2,3,1624.7000000178814,286615.09999999404,8056,NNB,B,1
2,test,4,0.0,1-Back,1.0,m,Wed Jan 14 2026 12:46:22 GMT-0600 (Central Standard Time),290172.40000000596,097_m_f_n_a.png,I,m,913,3,3,1927.5999999940395,288244.8000000119,8056,NNB,B,2
3,test,4,0.0,1-Back,1.0,m,Wed Jan 14 2026 12:46:22 GMT-0600 (Central Standard Time),291838.5,110_o_f_n_a.png,I,m,644,4,3,1660.4000000059605,290178.09999999404,8056,NNB,B,3
4,test,4,1.0,1-Back,1.0,z,Wed Jan 14 2026 12:46:22 GMT-0600 (Central Standard Time),293454.59999999404,110_o_f_n_a.png,I,z,594,5,3,1609.699999988079,291844.90000000596,8056,NNB,B,4
5,test,4,0.0,1-Back,1.0,m,Wed Jan 14 2026 12:46:22 GMT-0600 (Central Standard Time),295104.1999999881,152_y_f_n_a.png,I,m,618,6,3,1643.699999988079,293460.5,8056,NNB,B,5
6,test,4,0.0,1-Back,1.0,m,Wed Jan 14 2026 12:46:22 GMT-0600 (Central Standard Time),296670.3000000119,153_y_m_n_a.png,I,m,544,7,3,1561.0,295109.3000000119,8056,NNB,B,6
7,test,4,1.0,1-Back,1.0,z,Wed Jan 14 2026 12:46:22 GMT-0600 (Central Standard Time),298319.90000000596,153_y_m_n_a.png,I,z,626,8,3,1645.2000000178814,296674.6999999881,8056,NNB,B,7
8,test,4,0.0,1-Back,1.0,m,Wed Jan 14 2026 12:46:22 GMT-0600 (Central Standard Time),299836.0,152_y_f_n_a.png,I,m,497,9,3,1511.0999999940395,298324.90000000596,8056,NNB,B,8
9,test,4,0.0,1-Back,1.0,m,Wed Jan 14 2026 12:46:22 GMT-0600 (Central Standard Time),301435.59999999404,178_m_m_n_a.png,I,m,580,10,3,1595.199999988079,299840.40000000596,8056,NNB,B,9
10,test,4,1.0,1-Back,1.0,z,Wed Jan 14 2026 12:46:22 GMT-0600 (Central Standard Time),303018.3000000119,178_m_m_n_a.png,I,z,556,11,3,1577.300000011921,301441.0,8056,NNB,B,10
11,test,4,0.0,1-Back,1.0,m,Wed Jan 14 2026 12:46:22 GMT-0600 (Central Standard Time),304617.90000000596,086_o_f_n_a.png,I,m,574,12,3,1595.0,303022.90000000596,8056,NNB,B,11
12,test,4,0.0,1-Back,1.0,m,Wed Jan 14 2026 12:46:22 GMT-0600 (Central Standard Time),306217.40000000596,176_o_m_n_a.png,I,m,574,13,3,1593.4000000059605,304624.0,8056,NNB,B,12
13,test,4,0.0,1-Back,1.0,m,Wed Jan 14 2026 12:46:22 GMT-0600 (Central Standard Time),308213.09999999404,086_o_f_n_a.png,I,m,979,14,3,1988.0,306225.09999999404,8056,NNB,B,13
14,test,4,0.0,1-Back,1.0,m,Wed Jan 14 2026 12:46:22 GMT-0600 (Central Standard Time),309833.0,173_y_f_n_a.png,I,m,584,15,3,1614.0999999940395,308218.90000000596,8056,NNB,B,14
15,test,4,1.0,1-Back,1.0,z,Wed Jan 14 2026 12:46:22 GMT-0600 (Central Standard Time),311449.0,173_y_f_n_a.png,I,z,599,16,3,1609.5999999940395,309839.40000000596,8056,NNB,B,15
16,test,4,0.0,1-Back,1.0,m,Wed Jan 14 2026 12:46:22 GMT-0600 (Central Standard Time),313098.59999999404,029_m_f_n_a.png,I,m,623,17,3,1645.0,311453.59999999404,8056,NNB,B,16
17,test,4,1.0,1-Back,1.0,z,Wed Jan 14 2026 12:46:22 GMT-0600 (Central Standard Time),314831.3000000119,029_m_f_n_a.png,I,z,707,18,3,1727.2000000178814,313104.09999999404,8056,NNB,B,17
0,test,5,1.0,1-Back,,,Wed Jan 14 2026 12:46:22 GMT-0600 (Central Standard Time),314831.3000000119,176_o_m_n_a.png,I,space,2273,1,3,1727.2000000178814,313104.09999999404,8056,NNB,B,0
1,test,5,1.0,1-Back,1.0,z,Wed Jan 14 2026 12:46:22 GMT-0600 (Central Standard Time),320762.8000000119,176_o_m_n_a.png,I,z,606,2,3,1627.300000011921,319135.5,8056,NNB,B,1
2,test,5,0.0,1-Back,1.0,m,Wed Jan 14 2026 12:46:22 GMT-0600 (Central Standard Time),322312.40000000596,152_y_f_n_a.png,I,m,526,3,3,1544.9000000059605,320767.5,8056,NNB,B,2
3,test,5,0.0,1-Back,1.0,m,Wed Jan 14 2026 12:46:22 GMT-0600 (Central Standard Time),323845.3000000119,153_y_m_n_a.png,I,m,512,4,3,1528.0,322317.3000000119,8056,NNB,B,3
4,test,5,0.0,1-Back,1.0,m,Wed Jan 14 2026 12:46:22 GMT-0600 (Central Standard Time),325511.3000000119,152_y_f_n_a.png,I,m,643,5,3,1662.2000000178814,323849.09999999404,8056,NNB,B,4
5,test,5,0.0,1-Back,1.0,m,Wed Jan 14 2026 12:46:22 GMT-0600 (Central Standard Time),327310.90000000596,126_m_m_n_a.png,I,m,769,6,3,1794.4000000059605,325516.5,8056,NNB,B,5
6,test,5,1.0,1-Back,1.0,z,Wed Jan 14 2026 12:46:22 GMT-0600 (Central Standard Time),329026.8000000119,126_m_m_n_a.png,I,z,690,7,3,1710.800000011921,327316.0,8056,NNB,B,6
7,test,5,0.0,1-Back,1.0,m,Wed Jan 14 2026 12:46:22 GMT-0600 (Central Standard Time),330826.5,173_y_f_n_a.png,I,m,781,8,3,1794.300000011921,329032.1999999881,8056,NNB,B,7
8,test,5,0.0,1-Back,1.0,m,Wed Jan 14 2026 12:46:22 GMT-0600 (Central Standard Time),332442.5,013_y_m_n_a.png,I,m,594,9,3,1610.199999988079,330832.3000000119,8056,NNB,B,8
9,test,5,0.0,1-Back,1.0,m,Wed Jan 14 2026 12:46:22 GMT-0600 (Central Standard Time),334208.59999999404,173_y_f_n_a.png,I,m,734,10,3,1761.5999999940395,332447.0,8056,NNB,B,9
10,test,5,0.0,1-Back,1.0,m,Wed Jan 14 2026 12:46:22 GMT-0600 (Central Standard Time),335824.8000000119,086_o_f_n_a.png,I,m,584,11,3,1609.9000000059605,334214.90000000596,8056,NNB,B,10
10,test,5,1.0,1-Back,0.0,z,Wed Jan 14 2026 12:46:22 GMT-0600 (Central Standard Time),337674.1999999881,086_o_f_n_a.png,I,m,823,12,3,1844.3999999761581,335829.8000000119,8056,NNB,B,11
11,test,5,0.0,1-Back,1.0,m,Wed Jan 14 2026 12:46:22 GMT-0600 (Central Standard Time),339323.8000000119,065_o_m_n_a.png,I,m,622,13,3,1644.2000000178814,337679.59999999404,8056,NNB,B,12
12,test,5,0.0,1-Back,1.0,m,Wed Jan 14 2026 12:46:22 GMT-0600 (Central Standard Time),340989.90000000596,097_m_f_n_a.png,I,m,635,14,3,1659.4000000059605,339330.5,8056,NNB,B,13
13,test,5,1.0,1-Back,1.0,z,Wed Jan 14 2026 12:46:22 GMT-0600 (Central Standard Time),342589.1999999881,097_m_f_n_a.png,I,z,570,15,3,1595.3999999761581,340993.8000000119,8056,NNB,B,14
14,test,5,0.0,1-Back,1.0,m,Wed Jan 14 2026 12:46:22 GMT-0600 (Central Standard Time),344072.1999999881,065_o_m_n_a.png,I,m,451,16,3,1478.199999988079,342594.0,8056,NNB,B,15
15,test,5,0.0,1-Back,1.0,m,Wed Jan 14 2026 12:46:22 GMT-0600 (Central Standard Time),345688.3000000119,029_m_f_n_a.png,I,m,592,17,3,1611.300000011921,344077.0,8056,NNB,B,16
16,test,5,0.0,1-Back,1.0,m,Wed Jan 14 2026 12:46:22 GMT-0600 (Central Standard Time),347254.40000000596,178_m_m_n_a.png,I,m,544,18,3,1560.5,345693.90000000596,8056,NNB,B,17
0,prac,1,0.0,2-Back,,,Wed Jan 14 2026 12:46:22 GMT-0600 (Central Standard Time),347254.40000000596,013_y_m_n_a.png,I,space,4035,1,3,1560.5,345693.90000000596,8056,NNB,B,0
0,prac,1,0.0,2-Back,,,Wed Jan 14 2026 12:46:22 GMT-0600 (Central Standard Time),347254.40000000596,029_m_f_n_a.png,I,space,4035,2,3,1560.5,345693.90000000596,8056,NNB,B,0
1,prac,1,1.0,2-Back,1.0,m,Wed Jan 14 2026 12:46:22 GMT-0600 (Central Standard Time),425397.0,065_o_m_n_a.png,I,m,880,3,3,1757.0999999940395,423639.90000000596,8056,NNB,B,1
2,prac,1,0.0,2-Back,1.0,m,Wed Jan 14 2026 12:46:22 GMT-0600 (Central Standard Time),427079.5,086_o_f_n_a.png,I,m,806,4,3,1673.800000011921,425405.6999999881,8056,NNB,B,2
3,prac,1,0.0,2-Back,1.0,z,Wed Jan 14 2026 12:46:22 GMT-0600 (Central Standard Time),428579.09999999404,065_o_m_n_a.png,I,z,719,5,3,1489.5,427089.59999999404,8056,NNB,B,3
4,prac,1,1.0,2-Back,1.0,z,Wed Jan 14 2026 12:46:22 GMT-0600 (Central Standard Time),430128.6999999881,086_o_f_n_a.png,I,z,764,6,3,1540.199999988079,428588.5,8056,NNB,B,4
5,prac,1,0.0,2-Back,1.0,m,Wed Jan 14 2026 12:46:22 GMT-0600 (Central Standard Time),431928.09999999404,178_m_m_n_a.png,I,m,941,7,3,1790.199999988079,430137.90000000596,8056,NNB,B,5
6,prac,1,0.0,2-Back,1.0,m,Wed Jan 14 2026 12:46:22 GMT-0600 (Central Standard Time),433461.0,176_o_m_n_a.png,I,m,668,8,3,1525.4000000059605,431935.59999999404,8056,NNB,B,6
7,prac,1,0.0,2-Back,1.0,m,Wed Jan 14 2026 12:46:22 GMT-0600 (Central Standard Time),435160.40000000596,173_y_f_n_a.png,I,m,843,9,3,1692.300000011921,433468.09999999404,8056,NNB,B,7
7,prac,1,1.0,2-Back,0.0,z,Wed Jan 14 2026 12:46:22 GMT-0600 (Central Standard Time),436743.1999999881,176_o_m_n_a.png,I,m,799,10,3,1573.699999988079,435169.5,8056,NNB,B,8
8,prac,1,0.0,2-Back,1.0,m,Wed Jan 14 2026 12:46:22 GMT-0600 (Central Standard Time),438426.0,152_y_f_n_a.png,I,m,825,11,3,1673.5,436752.5,8056,NNB,B,9
8,prac,1,0.0,2-Back,0.0,m,Wed Jan 14 2026 12:46:22 GMT-0600 (Central Standard Time),439859.0,178_m_m_n_a.png,I,z,646,12,3,1425.300000011921,438433.6999999881,8056,NNB,B,10
0,test,1,0.0,2-Back,,,Wed Jan 14 2026 12:46:22 GMT-0600 (Central Standard Time),439859.0,153_y_m_n_a.png,I,space,4668,1,3,1425.300000011921,438433.6999999881,8056,NNB,B,0
0,test,1,0.0,2-Back,,,Wed Jan 14 2026 12:46:22 GMT-0600 (Central Standard Time),439859.0,153_y_m_n_a.png,I,space,4668,2,3,1425.300000011921,438433.6999999881,8056,NNB,B,0
1,test,1,0.0,2-Back,1.0,m,Wed Jan 14 2026 12:46:22 GMT-0600 (Central Standard Time),458153.59999999404,086_o_f_n_a.png,I,m,766,3,3,1776.4000000059605,456377.1999999881,8056,NNB,B,1
2,test,1,0.0,2-Back,1.0,m,Wed Jan 14 2026 12:46:22 GMT-0600 (Central Standard Time),460069.09999999404,126_m_m_n_a.png,I,m,887,4,3,1911.699999988079,458157.40000000596,8056,NNB,B,2
3,test,1,1.0,2-Back,1.0,z,Wed Jan 14 2026 12:46:22 GMT-0600 (Central Standard Time),462001.90000000596,086_o_f_n_a.png,I,z,906,5,3,1928.4000000059605,460073.5,8056,NNB,B,3
4,test,1,0.0,2-Back,1.0,m,Wed Jan 14 2026 12:46:22 GMT-0600 (Central Standard Time),463851.59999999404,152_y_f_n_a.png,I,m,822,6,3,1844.5,462007.09999999404,8056,NNB,B,4
4,test,1,0.0,2-Back,0.0,m,Wed Jan 14 2026 12:46:22 GMT-0600 (Central Standard Time),466200.6999999881,126_m_m_n_a.png,I,z,1317,7,3,2342.7999999821186,463857.90000000596,8056,NNB,B,5
5,test,1,1.0,2-Back,1.0,z,Wed Jan 14 2026 12:46:22 GMT-0600 (Central Standard Time),468166.6999999881,152_y_f_n_a.png,I,z,944,8,3,1962.199999988079,466204.5,8056,NNB,B,6
6,test,1,0.0,2-Back,1.0,m,Wed Jan 14 2026 12:46:22 GMT-0600 (Central Standard Time),469999.40000000596,013_y_m_n_a.png,I,m,802,9,3,1827.800000011921,468171.59999999404,8056,NNB,B,7
7,test,1,0.0,2-Back,1.0,m,Wed Jan 14 2026 12:46:22 GMT-0600 (Central Standard Time),472165.40000000596,110_o_f_n_a.png,I,m,1145,10,3,2162.5,470002.90000000596,8056,NNB,B,8
7,test,1,1.0,2-Back,0.0,z,Wed Jan 14 2026 12:46:22 GMT-0600 (Central Standard Time),474264.90000000596,013_y_m_n_a.png,I,m,972,11,3,2094.4000000059605,472170.5,8056,NNB,B,9
8,test,1,0.0,2-Back,1.0,m,Wed Jan 14 2026 12:46:22 GMT-0600 (Central Standard Time),476114.1999999881,029_m_f_n_a.png,I,m,824,12,3,1845.699999988079,474268.5,8056,NNB,B,10
9,test,1,0.0,2-Back,1.0,m,Wed Jan 14 2026 12:46:22 GMT-0600 (Central Standard Time),478746.6999999881,029_m_f_n_a.png,I,m,1606,13,3,2628.0,476118.6999999881,8056,NNB,B,11
10,test,1,0.0,2-Back,1.0,m,Wed Jan 14 2026 12:46:22 GMT-0600 (Central Standard Time),481129.1999999881,065_o_m_n_a.png,I,m,1350,14,3,2378.2999999821186,478750.90000000596,8056,NNB,B,12
11,test,1,0.0,2-Back,1.0,m,Wed Jan 14 2026 12:46:22 GMT-0600 (Central Standard Time),483462.09999999404,110_o_f_n_a.png,I,m,1303,15,3,2329.199999988079,481132.90000000596,8056,NNB,B,13
12,test,1,1.0,2-Back,1.0,z,Wed Jan 14 2026 12:46:22 GMT-0600 (Central Standard Time),485211.3000000119,065_o_m_n_a.png,I,z,723,16,3,1744.0,483467.3000000119,8056,NNB,B,14
13,test,1,0.0,2-Back,1.0,m,Wed Jan 14 2026 12:46:22 GMT-0600 (Central Standard Time),487127.59999999404,097_m_f_n_a.png,I,m,885,17,3,1912.4000000059605,485215.1999999881,8056,NNB,B,15
14,test,1,0.0,2-Back,1.0,m,Wed Jan 14 2026 12:46:22 GMT-0600 (Central Standard Time),489026.6999999881,178_m_m_n_a.png,I,m,881,18,3,1893.0999999940395,487133.59999999404,8056,NNB,B,16
0,test,2,0.0,2-Back,,,Wed Jan 14 2026 12:46:22 GMT-0600 (Central Standard Time),489026.6999999881,178_m_m_n_a.png,I,space,1270,1,3,1893.0999999940395,487133.59999999404,8056,NNB,B,0
0,test,2,0.0,2-Back,,,Wed Jan 14 2026 12:46:22 GMT-0600 (Central Standard Time),489026.6999999881,173_y_f_n_a.png,I,space,1270,2,3,1893.0999999940395,487133.59999999404,8056,NNB,B,0
1,test,2,1.0,2-Back,1.0,z,Wed Jan 14 2026 12:46:22 GMT-0600 (Central Standard Time),497590.6999999881,178_m_m_n_a.png,I,z,1127,3,3,2143.7999999821186,495446.90000000596,8056,NNB,B,1
2,test,2,0.0,2-Back,1.0,m,Wed Jan 14 2026 12:46:22 GMT-0600 (Central Standard Time),499440.3000000119,097_m_f_n_a.png,I,m,818,4,3,1845.0,497595.3000000119,8056,NNB,B,2
2,test,2,0.0,2-Back,0.0,m,Wed Jan 14 2026 12:46:22 GMT-0600 (Central Standard Time),501289.59999999404,173_y_f_n_a.png,I,z,832,5,3,1845.4000000059605,499444.1999999881,8056,NNB,B,3
3,test,2,0.0,2-Back,1.0,m,Wed Jan 14 2026 12:46:22 GMT-0600 (Central Standard Time),503039.09999999404,065_o_m_n_a.png,I,m,727,6,3,1745.699999988079,501293.40000000596,8056,NNB,B,4
3,test,2,0.0,2-Back,0.0,m,Wed Jan 14 2026 12:46:22 GMT-0600 (Central Standard Time),504955.40000000596,152_y_f_n_a.png,I,z,889,7,3,1910.5,503044.90000000596,8056,NNB,B,5
3,test,2,1.0,2-Back,0.0,z,Wed Jan 14 2026 12:46:22 GMT-0600 (Central Standard Time),507121.40000000596,065_o_m_n_a.png,I,m,1149,8,3,2161.5999999940395,504959.8000000119,8056,NNB,B,6
4,test,2,0.0,2-Back,1.0,m,Wed Jan 14 2026 12:46:22 GMT-0600 (Central Standard Time),508920.6999999881,013_y_m_n_a.png,I,m,775,9,3,1795.0,507125.6999999881,8056,NNB,B,7
5,test,2,0.0,2-Back,1.0,m,Wed Jan 14 2026 12:46:22 GMT-0600 (Central Standard Time),510636.8000000119,013_y_m_n_a.png,I,m,688,10,3,1711.800000011921,508925.0,8056,NNB,B,8
6,test,2,0.0,2-Back,1.0,m,Wed Jan 14 2026 12:46:22 GMT-0600 (Central Standard Time),512769.40000000596,029_m_f_n_a.png,I,m,1108,11,3,2127.5,510641.90000000596,8056,NNB,B,9
6,test,2,0.0,2-Back,0.0,m,Wed Jan 14 2026 12:46:22 GMT-0600 (Central Standard Time),514718.6999999881,173_y_f_n_a.png,I,z,927,12,3,1944.199999988079,512774.5,8056,NNB,B,10
6,test,2,1.0,2-Back,0.0,z,Wed Jan 14 2026 12:46:22 GMT-0600 (Central Standard Time),516851.3000000119,029_m_f_n_a.png,I,m,1114,13,3,2128.9000000059605,514722.40000000596,8056,NNB,B,11
6,test,2,0.0,2-Back,0.0,m,Wed Jan 14 2026 12:46:22 GMT-0600 (Central Standard Time),519884.09999999404,176_o_m_n_a.png,I,None,2016,14,3,3029.199999988079,516854.90000000596,8056,NNB,B,12
6,test,2,0.0,2-Back,0.0,m,Wed Jan 14 2026 12:46:22 GMT-0600 (Central Standard Time),522732.90000000596,176_o_m_n_a.png,I,z,1829,15,3,2844.0999999940395,519888.8000000119,8056,NNB,B,13
7,test,2,0.0,2-Back,1.0,m,Wed Jan 14 2026 12:46:22 GMT-0600 (Central Standard Time),524682.400000006,110_o_f_n_a.png,I,m,923,16,3,1945.0,522737.40000000596,8056,NNB,B,14
8,test,2,0.0,2-Back,1.0,m,Wed Jan 14 2026 12:46:22 GMT-0600 (Central Standard Time),526481.599999994,126_m_m_n_a.png,I,m,782,17,3,1794.5999999940395,524687.0,8056,NNB,B,15
9,test,2,1.0,2-Back,1.0,z,Wed Jan 14 2026 12:46:22 GMT-0600 (Central Standard Time),528298.0,110_o_f_n_a.png,I,z,791,18,3,1812.0,526486.0,8056,NNB,B,16
0,test,3,1.0,2-Back,,,Wed Jan 14 2026 12:46:22 GMT-0600 (Central Standard Time),528298.0,153_y_m_n_a.png,I,space,7295,1,3,1812.0,526486.0,8056,NNB,B,0
0,test,3,1.0,2-Back,,,Wed Jan 14 2026 12:46:22 GMT-0600 (Central Standard Time),528298.0,153_y_m_n_a.png,I,space,7295,2,3,1812.0,526486.0,8056,NNB,B,0
1,test,3,0.0,2-Back,1.0,m,Wed Jan 14 2026 12:46:22 GMT-0600 (Central Standard Time),542526.599999994,110_o_f_n_a.png,I,m,777,3,3,1792.4000000059605,540734.1999999881,8056,NNB,B,1
2,test,3,0.0,2-Back,1.0,m,Wed Jan 14 2026 12:46:22 GMT-0600 (Central Standard Time),544143.5,178_m_m_n_a.png,I,m,594,4,3,1613.0999999940395,542530.400000006,8056,NNB,B,2
3,test,3,1.0,2-Back,1.0,z,Wed Jan 14 2026 12:46:22 GMT-0600 (Central Standard Time),545975.599999994,110_o_f_n_a.png,I,z,802,5,3,1825.4000000059605,544150.1999999881,8056,NNB,B,3
4,test,3,0.0,2-Back,1.0,m,Wed Jan 14 2026 12:46:22 GMT-0600 (Central Standard Time),547975.099999994,013_y_m_n_a.png,I,m,977,6,3,1995.4000000059605,545979.6999999881,8056,NNB,B,4
4,test,3,0.0,2-Back,0.0,m,Wed Jan 14 2026 12:46:22 GMT-0600 (Central Standard Time),550141.1999999881,178_m_m_n_a.png,I,z,1137,7,3,2161.7999999821186,547979.400000006,8056,NNB,B,5
4,test,3,1.0,2-Back,0.0,z,Wed Jan 14 2026 12:46:22 GMT-0600 (Central Standard Time),552123.599999994,013_y_m_n_a.png,I,m,963,8,3,1978.0,550145.599999994,8056,NNB,B,6
5,test,3,0.0,2-Back,1.0,m,Wed Jan 14 2026 12:46:22 GMT-0600 (Central Standard Time),554189.6999999881,173_y_f_n_a.png,I,m,1037,9,3,2062.199999988079,552127.5,8056,NNB,B,7
6,test,3,0.0,2-Back,1.0,m,Wed Jan 14 2026 12:46:22 GMT-0600 (Central Standard Time),556572.400000006,126_m_m_n_a.png,I,m,1355,10,3,2379.300000011921,554193.099999994,8056,NNB,B,8
7,test,3,1.0,2-Back,1.0,z,Wed Jan 14 2026 12:46:22 GMT-0600 (Central Standard Time),558338.3000000119,173_y_f_n_a.png,I,z,740,11,3,1761.5,556576.8000000119,8056,NNB,B,9
8,test,3,1.0,2-Back,1.0,z,Wed Jan 14 2026 12:46:22 GMT-0600 (Central Standard Time),560537.6999999881,126_m_m_n_a.png,I,z,1174,12,3,2195.7999999821186,558341.900000006,8056,NNB,B,10
9,test,3,0.0,2-Back,1.0,m,Wed Jan 14 2026 12:46:22 GMT-0600 (Central Standard Time),562303.900000006,110_o_f_n_a.png,I,m,735,13,3,1761.7000000178814,560542.1999999881,8056,NNB,B,11
10,test,3,0.0,2-Back,1.0,m,Wed Jan 14 2026 12:46:22 GMT-0600 (Central Standard Time),564120.0,097_m_f_n_a.png,I,m,785,14,3,1812.699999988079,562307.3000000119,8056,NNB,B,12
11,test,3,0.0,2-Back,1.0,m,Wed Jan 14 2026 12:46:22 GMT-0600 (Central Standard Time),566302.599999994,065_o_m_n_a.png,I,m,1160,15,3,2178.4000000059605,564124.1999999881,8056,NNB,B,13
12,test,3,1.0,2-Back,1.0,z,Wed Jan 14 2026 12:46:22 GMT-0600 (Central Standard Time),568252.0,097_m_f_n_a.png,I,z,802,16,3,1944.5999999940395,566307.400000006,8056,NNB,B,14
12,test,3,0.0,2-Back,0.0,m,Wed Jan 14 2026 12:46:22 GMT-0600 (Central Standard Time),570102.6999999881,086_o_f_n_a.png,I,z,820,17,3,1846.5,568256.1999999881,8056,NNB,B,15
13,test,3,0.0,2-Back,1.0,m,Wed Jan 14 2026 12:46:22 GMT-0600 (Central Standard Time),572667.1999999881,086_o_f_n_a.png,I,m,1547,18,3,2560.5999999940395,570106.599999994,8056,NNB,B,16
0,test,4,0.0,2-Back,,,Wed Jan 14 2026 12:46:22 GMT-0600 (Central Standard Time),572667.1999999881,176_o_m_n_a.png,I,space,269,1,3,2560.5999999940395,570106.599999994,8056,NNB,B,0
0,test,4,0.0,2-Back,,,Wed Jan 14 2026 12:46:22 GMT-0600 (Central Standard Time),572667.1999999881,152_y_f_n_a.png,I,space,269,2,3,2560.5999999940395,570106.599999994,8056,NNB,B,0
1,test,4,1.0,2-Back,1.0,z,Wed Jan 14 2026 12:46:22 GMT-0600 (Central Standard Time),580081.5,176_o_m_n_a.png,I,z,915,3,3,1927.199999988079,578154.3000000119,8056,NNB,B,1
2,test,4,1.0,2-Back,1.0,z,Wed Jan 14 2026 12:46:22 GMT-0600 (Central Standard Time),582564.099999994,152_y_f_n_a.png,I,z,1463,4,3,2478.9000000059605,580085.1999999881,8056,NNB,B,2
3,test,4,0.0,2-Back,1.0,m,Wed Jan 14 2026 12:46:22 GMT-0600 (Central Standard Time),584230.400000006,110_o_f_n_a.png,I,m,644,5,3,1661.4000000059605,582569.0,8056,NNB,B,3
4,test,4,0.0,2-Back,1.0,m,Wed Jan 14 2026 12:46:22 GMT-0600 (Central Standard Time),586513.0,110_o_f_n_a.png,I,m,1258,6,3,2278.300000011921,584234.6999999881,8056,NNB,B,4
5,test,4,0.0,2-Back,1.0,m,Wed Jan 14 2026 12:46:22 GMT-0600 (Central Standard Time),588695.6999999881,029_m_f_n_a.png,I,m,1159,7,3,2177.399999976158,586518.3000000119,8056,NNB,B,5
5,test,4,0.0,2-Back,0.0,m,Wed Jan 14 2026 12:46:22 GMT-0600 (Central Standard Time),590628.1999999881,013_y_m_n_a.png,I,z,912,8,3,1926.5999999940395,588701.599999994,8056,NNB,B,6
5,test,4,1.0,2-Back,0.0,z,Wed Jan 14 2026 12:46:22 GMT-0600 (Central Standard Time),592744.3000000119,029_m_f_n_a.png,I,m,1092,9,3,2111.300000011921,590633.0,8056,NNB,B,7
5,test,4,0.0,2-Back,0.0,m,Wed Jan 14 2026 12:46:22 GMT-0600 (Central Standard Time),594860.1999999881,126_m_m_n_a.png,I,z,1088,10,3,2112.0,592748.1999999881,8056,NNB,B,8
6,test,4,0.0,2-Back,1.0,m,Wed Jan 14 2026 12:46:22 GMT-0600 (Central Standard Time),596993.1999999881,013_y_m_n_a.png,I,m,1116,11,3,2126.5,594866.6999999881,8056,NNB,B,9
7,test,4,0.0,2-Back,1.0,m,Wed Jan 14 2026 12:46:22 GMT-0600 (Central Standard Time),598859.0,086_o_f_n_a.png,I,m,847,12,3,1861.800000011921,596997.1999999881,8056,NNB,B,10
8,test,4,0.0,2-Back,1.0,m,Wed Jan 14 2026 12:46:22 GMT-0600 (Central Standard Time),600808.400000006,153_y_m_n_a.png,I,m,925,13,3,1944.7000000178814,598863.6999999881,8056,NNB,B,11
9,test,4,1.0,2-Back,1.0,z,Wed Jan 14 2026 12:46:22 GMT-0600 (Central Standard Time),602457.900000006,086_o_f_n_a.png,I,z,624,14,3,1645.5,600812.400000006,8056,NNB,B,12
10,test,4,1.0,2-Back,1.0,z,Wed Jan 14 2026 12:46:22 GMT-0600 (Central Standard Time),604207.400000006,153_y_m_n_a.png,I,z,726,15,3,1744.5999999940395,602462.8000000119,8056,NNB,B,13
11,test,4,0.0,2-Back,1.0,m,Wed Jan 14 2026 12:46:22 GMT-0600 (Central Standard Time),606240.1999999881,178_m_m_n_a.png,I,m,1009,16,3,2026.2999999821186,604213.900000006,8056,NNB,B,14
12,test,4,0.0,2-Back,1.0,m,Wed Jan 14 2026 12:46:22 GMT-0600 (Central Standard Time),608123.0,097_m_f_n_a.png,I,m,863,17,3,1878.0999999940395,606244.900000006,8056,NNB,B,15
12,test,4,1.0,2-Back,0.0,z,Wed Jan 14 2026 12:46:22 GMT-0600 (Central Standard Time),610255.6999999881,178_m_m_n_a.png,I,m,1102,18,3,2127.0999999940395,608128.599999994,8056,NNB,B,16
0,test,5,1.0,2-Back,,,Wed Jan 14 2026 12:46:22 GMT-0600 (Central Standard Time),610255.6999999881,153_y_m_n_a.png,I,space,16385,1,3,2127.0999999940395,608128.599999994,8056,NNB,B,0
0,test,5,1.0,2-Back,,,Wed Jan 14 2026 12:46:22 GMT-0600 (Central Standard Time),610255.6999999881,097_m_f_n_a.png,I,space,16385,2,3,2127.0999999940395,608128.599999994,8056,NNB,B,0
1,test,5,1.0,2-Back,1.0,z,Wed Jan 14 2026 12:46:22 GMT-0600 (Central Standard Time),633348.3000000119,153_y_m_n_a.png,I,z,630,3,3,1644.800000011921,631703.5,8056,NNB,B,1
2,test,5,1.0,2-Back,1.0,z,Wed Jan 14 2026 12:46:22 GMT-0600 (Central Standard Time),635331.599999994,097_m_f_n_a.png,I,z,956,4,3,1979.0,633352.599999994,8056,NNB,B,2
3,test,5,0.0,2-Back,1.0,m,Wed Jan 14 2026 12:46:22 GMT-0600 (Central Standard Time),637746.8000000119,086_o_f_n_a.png,I,m,1397,5,3,2410.5,635336.3000000119,8056,NNB,B,3
4,test,5,0.0,2-Back,1.0,m,Wed Jan 14 2026 12:46:22 GMT-0600 (Central Standard Time),640396.099999994,153_y_m_n_a.png,I,m,1622,6,3,2645.0999999940395,637751.0,8056,NNB,B,4
5,test,5,0.0,2-Back,1.0,m,Wed Jan 14 2026 12:46:22 GMT-0600 (Central Standard Time),642078.900000006,173_y_f_n_a.png,I,m,660,7,3,1678.5,640400.400000006,8056,NNB,B,5
6,test,5,0.0,2-Back,1.0,m,Wed Jan 14 2026 12:46:22 GMT-0600 (Central Standard Time),643778.3000000119,086_o_f_n_a.png,I,m,681,8,3,1695.800000011921,642082.5,8056,NNB,B,6
7,test,5,1.0,2-Back,1.0,z,Wed Jan 14 2026 12:46:22 GMT-0600 (Central Standard Time),645811.0,173_y_f_n_a.png,I,z,1014,9,3,2028.5,643782.5,8056,NNB,B,7
8,test,5,0.0,2-Back,1.0,m,Wed Jan 14 2026 12:46:22 GMT-0600 (Central Standard Time),647593.900000006,065_o_m_n_a.png,I,m,757,10,3,1778.300000011921,645815.599999994,8056,NNB,B,8
9,test,5,0.0,2-Back,1.0,m,Wed Jan 14 2026 12:46:22 GMT-0600 (Central Standard Time),649260.0,029_m_f_n_a.png,I,m,646,11,3,1662.5,647597.5,8056,NNB,B,9
10,test,5,0.0,2-Back,1.0,m,Wed Jan 14 2026 12:46:22 GMT-0600 (Central Standard Time),650892.900000006,126_m_m_n_a.png,I,m,604,12,3,1629.0,649263.900000006,8056,NNB,B,10
11,test,5,0.0,2-Back,1.0,m,Wed Jan 14 2026 12:46:22 GMT-0600 (Central Standard Time),652742.1999999881,065_o_m_n_a.png,I,m,819,13,3,1845.2999999821186,650896.900000006,8056,NNB,B,11
12,test,5,1.0,2-Back,1.0,z,Wed Jan 14 2026 12:46:22 GMT-0600 (Central Standard Time),654658.5,126_m_m_n_a.png,I,z,898,14,3,1912.0999999940395,652746.400000006,8056,NNB,B,12
13,test,5,0.0,2-Back,1.0,m,Wed Jan 14 2026 12:46:22 GMT-0600 (Central Standard Time),656524.3000000119,152_y_f_n_a.png,I,m,845,15,3,1862.1000000238419,654662.1999999881,8056,NNB,B,13
14,test,5,0.0,2-Back,1.0,m,Wed Jan 14 2026 12:46:22 GMT-0600 (Central Standard Time),658173.8000000119,176_o_m_n_a.png,I,m,620,16,3,1645.800000011921,656528.0,8056,NNB,B,14
15,test,5,0.0,2-Back,1.0,m,Wed Jan 14 2026 12:46:22 GMT-0600 (Central Standard Time),659806.599999994,029_m_f_n_a.png,I,m,603,17,3,1628.5999999940395,658178.0,8056,NNB,B,15
16,test,5,1.0,2-Back,1.0,z,Wed Jan 14 2026 12:46:22 GMT-0600 (Central Standard Time),661922.599999994,176_o_m_n_a.png,I,z,1098,18,3,2112.2999999821186,659810.3000000119,8056,NNB,B,16
