acc_sum,block,block_c,change,condition,correct,correct_response,datetime,endtime,face,project,response,response_time,row_sel,session_number,start_end,starttime,subject_id,task,task_vers,trial
0,prac,1,,1-Back,,,Tue May 27 2025 17:50:34 GMT-0500 (Central Daylight Time),,124_o_f_d_a.png,I,space,4927,1,1,,,8052,VNB,A,0
1,prac,1,0.0,1-Back,1,m,Tue May 27 2025 17:50:34 GMT-0500 (Central Daylight Time),140603.30000001192,071_y_f_n_a.png,I,m,1141,2,1,1919.199999988079,138684.10000002384,8052,VNB,A,1
1,prac,1,0.0,1-Back,0,m,Tue May 27 2025 17:50:34 GMT-0500 (Central Daylight Time),143417.5,165_m_m_h_a.png,I,None,2015,3,1,2802.399999976158,140615.10000002384,8052,VNB,A,2
1,prac,1,0.0,1-Back,0,m,Tue May 27 2025 17:50:34 GMT-0500 (Central Daylight Time),145400.30000001192,109_y_m_d_a.png,I,z,1179,4,1,1971.3999999761581,143428.90000003576,8052,VNB,A,3
2,prac,1,0.0,1-Back,1,m,Tue May 27 2025 17:50:34 GMT-0500 (Central Daylight Time),147515.30000001192,124_o_f_n_a.png,I,m,1288,5,1,2104.199999988079,145411.10000002384,8052,VNB,A,4
3,prac,1,1.0,1-Back,1,z,Tue May 27 2025 17:50:34 GMT-0500 (Central Daylight Time),149598.80000001192,109_y_m_n_a.png,I,z,1263,6,1,2072.699999988079,147526.10000002384,8052,VNB,A,5
4,prac,1,0.0,1-Back,1,m,Tue May 27 2025 17:50:34 GMT-0500 (Central Daylight Time),151980.90000003576,039_o_m_h_a.png,I,m,1569,7,1,2370.300000011921,149610.60000002384,8052,VNB,A,6
4,prac,1,0.0,1-Back,0,m,Tue May 27 2025 17:50:34 GMT-0500 (Central Daylight Time),153813.5,139_m_f_d_a.png,I,z,1027,8,1,1820.8999999761581,151992.60000002384,8052,VNB,A,7
5,prac,1,1.0,1-Back,1,z,Tue May 27 2025 17:50:34 GMT-0500 (Central Daylight Time),155380.40000003576,071_y_f_d_a.png,I,z,763,9,1,1556.1000000238419,153824.30000001192,8052,VNB,A,8
6,prac,1,0.0,1-Back,1,m,Tue May 27 2025 17:50:34 GMT-0500 (Central Daylight Time),157162.90000003576,165_m_m_n_a.png,I,m,980,10,1,1770.6000000238419,155392.30000001192,8052,VNB,A,9
6,prac,1,0.0,1-Back,0,m,Tue May 27 2025 17:50:34 GMT-0500 (Central Daylight Time),158913.69999998808,124_o_f_h_a.png,I,z,931,11,1,1740.0999999642372,157173.60000002384,8052,VNB,A,10
6,prac,1,0.0,1-Back,0,m,Tue May 27 2025 17:50:34 GMT-0500 (Central Daylight Time),161095.69999998808,109_y_m_d_a.png,I,z,1395,12,1,2171.2999999523163,158924.40000003576,8052,VNB,A,11
0,prac,2,0.0,1-Back,,,Tue May 27 2025 17:50:34 GMT-0500 (Central Daylight Time),161095.69999998808,124_o_f_d_a.png,I,a,6442,1,1,2171.2999999523163,158924.40000003576,8052,VNB,A,0
1,prac,2,0.0,1-Back,1,m,Tue May 27 2025 17:50:34 GMT-0500 (Central Daylight Time),172908.69999998808,071_y_f_n_a.png,I,m,1513,2,1,2306.399999976158,170602.30000001192,8052,VNB,A,1
2,prac,2,0.0,1-Back,1,m,Tue May 27 2025 17:50:34 GMT-0500 (Central Daylight Time),175008.5,165_m_m_h_a.png,I,m,1299,3,1,2089.0,172919.5,8052,VNB,A,2
3,prac,2,0.0,1-Back,1,m,Tue May 27 2025 17:50:34 GMT-0500 (Central Daylight Time),176790.5,109_y_m_d_a.png,I,m,994,4,1,1770.5999999642372,175019.90000003576,8052,VNB,A,3
4,prac,2,0.0,1-Back,1,m,Tue May 27 2025 17:50:34 GMT-0500 (Central Daylight Time),178589.0,124_o_f_n_a.png,I,m,957,5,1,1787.0,176802.0,8052,VNB,A,4
5,prac,2,1.0,1-Back,1,z,Tue May 27 2025 17:50:34 GMT-0500 (Central Daylight Time),180923.0,109_y_m_n_a.png,I,z,1534,6,1,2325.099999964237,178597.90000003576,8052,VNB,A,5
6,prac,2,0.0,1-Back,1,m,Tue May 27 2025 17:50:34 GMT-0500 (Central Daylight Time),182456.40000003576,039_o_m_h_a.png,I,m,726,7,1,1522.6000000238419,180933.80000001192,8052,VNB,A,6
7,prac,2,0.0,1-Back,1,m,Tue May 27 2025 17:50:34 GMT-0500 (Central Daylight Time),184304.60000002384,139_m_f_d_a.png,I,m,1029,8,1,1834.9000000357628,182469.69999998808,8052,VNB,A,7
7,prac,2,1.0,1-Back,0,z,Tue May 27 2025 17:50:34 GMT-0500 (Central Daylight Time),186087.40000003576,071_y_f_d_a.png,I,m,969,9,1,1771.5,184315.90000003576,8052,VNB,A,8
8,prac,2,0.0,1-Back,1,m,Tue May 27 2025 17:50:34 GMT-0500 (Central Daylight Time),187836.30000001192,165_m_m_n_a.png,I,m,946,10,1,1738.300000011921,186098.0,8052,VNB,A,9
9,prac,2,0.0,1-Back,1,m,Tue May 27 2025 17:50:34 GMT-0500 (Central Daylight Time),189635.80000001192,124_o_f_h_a.png,I,m,974,11,1,1788.8999999761581,187846.90000003576,8052,VNB,A,10
10,prac,2,0.0,1-Back,1,m,Tue May 27 2025 17:50:34 GMT-0500 (Central Daylight Time),191719.19999998808,109_y_m_d_a.png,I,m,1289,12,1,2072.0,189647.19999998808,8052,VNB,A,11
0,test,1,0.0,1-Back,,,Tue May 27 2025 17:50:34 GMT-0500 (Central Daylight Time),191719.19999998808,071_y_f_d_a.png,I,space,7504,1,1,2072.0,189647.19999998808,8052,VNB,A,0
1,test,1,0.0,1-Back,1,m,Tue May 27 2025 17:50:34 GMT-0500 (Central Daylight Time),211345.80000001192,139_m_f_n_a.png,I,m,798,2,1,1813.5,209532.30000001192,8052,VNB,A,1
2,test,1,0.0,1-Back,1,m,Tue May 27 2025 17:50:34 GMT-0500 (Central Daylight Time),213126.10000002384,039_o_m_h_a.png,I,m,756,3,1,1771.699999988079,211354.40000003576,8052,VNB,A,2
2,test,1,1.0,1-Back,0,z,Tue May 27 2025 17:50:34 GMT-0500 (Central Daylight Time),215144.30000001192,165_m_m_h_a.png,I,m,991,4,1,2012.1000000238419,213132.19999998808,8052,VNB,A,3
2,test,1,0.0,1-Back,0,m,Tue May 27 2025 17:50:34 GMT-0500 (Central Daylight Time),216842.80000001192,124_o_f_n_a.png,I,z,666,5,1,1688.3999999761581,215154.40000003576,8052,VNB,A,4
3,test,1,0.0,1-Back,1,m,Tue May 27 2025 17:50:34 GMT-0500 (Central Daylight Time),218860.0,109_y_m_d_a.png,I,m,990,6,1,2006.300000011921,216853.69999998808,8052,VNB,A,5
4,test,1,1.0,1-Back,1,z,Tue May 27 2025 17:50:34 GMT-0500 (Central Daylight Time),220993.10000002384,139_m_f_d_a.png,I,z,1110,7,1,2122.400000035763,218870.69999998808,8052,VNB,A,6
5,test,1,0.0,1-Back,1,m,Tue May 27 2025 17:50:34 GMT-0500 (Central Daylight Time),222775.5,071_y_f_h_a.png,I,m,751,8,1,1772.8999999761581,221002.60000002384,8052,VNB,A,7
6,test,1,0.0,1-Back,1,m,Tue May 27 2025 17:50:34 GMT-0500 (Central Daylight Time),225124.0,039_o_m_n_a.png,I,m,1323,9,1,2339.0,222785.0,8052,VNB,A,8
7,test,1,0.0,1-Back,1,m,Tue May 27 2025 17:50:34 GMT-0500 (Central Daylight Time),226923.40000003576,109_y_m_h_a.png,I,m,777,10,1,1789.1000000238419,225134.30000001192,8052,VNB,A,9
8,test,1,0.0,1-Back,1,m,Tue May 27 2025 17:50:34 GMT-0500 (Central Daylight Time),229073.60000002384,039_o_m_d_a.png,I,m,1123,11,1,2141.300000011921,226932.30000001192,8052,VNB,A,10
9,test,1,1.0,1-Back,1,z,Tue May 27 2025 17:50:34 GMT-0500 (Central Daylight Time),231156.60000002384,124_o_f_d_a.png,I,z,1054,12,1,2072.5,229084.10000002384,8052,VNB,A,11
10,test,1,0.0,1-Back,1,m,Tue May 27 2025 17:50:34 GMT-0500 (Central Daylight Time),233055.60000002384,165_m_m_n_a.png,I,m,875,13,1,1889.199999988079,231166.40000003576,8052,VNB,A,12
11,test,1,1.0,1-Back,1,z,Tue May 27 2025 17:50:34 GMT-0500 (Central Daylight Time),235540.30000001192,071_y_f_n_a.png,I,z,1466,14,1,2475.600000023842,233064.69999998808,8052,VNB,A,13
12,test,1,0.0,1-Back,1,m,Tue May 27 2025 17:50:34 GMT-0500 (Central Daylight Time),237288.19999998808,139_m_f_h_a.png,I,m,723,15,1,1738.8999999761581,235549.30000001192,8052,VNB,A,14
12,test,1,0.0,1-Back,0,m,Tue May 27 2025 17:50:34 GMT-0500 (Central Daylight Time),239303.19999998808,165_m_m_d_a.png,I,z,983,16,1,2005.5,237297.69999998808,8052,VNB,A,15
13,test,1,0.0,1-Back,1,m,Tue May 27 2025 17:50:34 GMT-0500 (Central Daylight Time),241319.30000001192,109_y_m_n_a.png,I,m,983,17,1,2006.300000011921,239313.0,8052,VNB,A,16
14,test,1,0.0,1-Back,1,m,Tue May 27 2025 17:50:34 GMT-0500 (Central Daylight Time),243137.10000002384,124_o_f_h_a.png,I,m,792,18,1,1809.300000011921,241327.80000001192,8052,VNB,A,17
0,test,2,0.0,1-Back,,,Tue May 27 2025 17:50:34 GMT-0500 (Central Daylight Time),243137.10000002384,109_y_m_n_a.png,I,space,2039,1,1,1809.300000011921,241327.80000001192,8052,VNB,A,0
1,test,2,0.0,1-Back,1,m,Tue May 27 2025 17:50:34 GMT-0500 (Central Daylight Time),249064.60000002384,071_y_f_h_a.png,I,m,844,2,1,1851.9000000357628,247212.69999998808,8052,VNB,A,1
2,test,2,1.0,1-Back,1,m,Tue May 27 2025 17:50:34 GMT-0500 (Central Daylight Time),250900.10000002384,039_o_m_n_a.png,I,m,816,3,1,1829.300000011921,249070.80000001192,8052,VNB,A,2
3,test,2,0.0,1-Back,1,m,Tue May 27 2025 17:50:34 GMT-0500 (Central Daylight Time),252833.0,139_m_f_d_a.png,I,m,907,4,1,1921.8999999761581,250911.10000002384,8052,VNB,A,3
4,test,2,0.0,1-Back,1,z,Tue May 27 2025 17:50:34 GMT-0500 (Central Daylight Time),254798.80000001192,165_m_m_d_a.png,I,z,943,5,1,1955.0,252843.80000001192,8052,VNB,A,4
5,test,2,0.0,1-Back,1,m,Tue May 27 2025 17:50:34 GMT-0500 (Central Daylight Time),256413.60000002384,109_y_m_h_a.png,I,m,594,6,1,1604.4000000357628,254809.19999998808,8052,VNB,A,5
5,test,2,1.0,1-Back,0,z,Tue May 27 2025 17:50:34 GMT-0500 (Central Daylight Time),259013.0,124_o_f_h_a.png,I,m,1578,7,1,2590.699999988079,256422.30000001192,8052,VNB,A,6
6,test,2,0.0,1-Back,1,m,Tue May 27 2025 17:50:34 GMT-0500 (Central Daylight Time),261130.90000003576,139_m_f_n_a.png,I,m,1099,8,1,2106.800000011921,259024.10000002384,8052,VNB,A,7
7,test,2,0.0,1-Back,1,m,Tue May 27 2025 17:50:34 GMT-0500 (Central Daylight Time),263012.40000003576,071_y_f_d_a.png,I,m,863,9,1,1872.9000000357628,261139.5,8052,VNB,A,8
8,test,2,0.0,1-Back,1,m,Tue May 27 2025 17:50:34 GMT-0500 (Central Daylight Time),265095.1999999881,165_m_m_n_a.png,I,m,1050,10,1,2074.399999976158,263020.8000000119,8052,VNB,A,9
9,test,2,1.0,1-Back,1,m,Tue May 27 2025 17:50:34 GMT-0500 (Central Daylight Time),266778.90000003576,139_m_f_h_a.png,I,m,657,11,1,1672.800000011921,265106.10000002384,8052,VNB,A,10
9,test,2,0.0,1-Back,0,z,Tue May 27 2025 17:50:34 GMT-0500 (Central Daylight Time),268677.6999999881,039_o_m_h_a.png,I,m,869,12,1,1887.7999999523163,266789.90000003576,8052,VNB,A,11
9,test,2,0.0,1-Back,0,m,Tue May 27 2025 17:50:34 GMT-0500 (Central Daylight Time),270544.6999999881,109_y_m_d_a.png,I,z,849,13,1,1855.5999999642372,268689.10000002384,8052,VNB,A,12
10,test,2,0.0,1-Back,1,m,Tue May 27 2025 17:50:34 GMT-0500 (Central Daylight Time),272560.3000000119,124_o_f_n_a.png,I,m,991,14,1,2007.199999988079,270553.10000002384,8052,VNB,A,13
11,test,2,0.0,1-Back,1,z,Tue May 27 2025 17:50:34 GMT-0500 (Central Daylight Time),274592.3000000119,071_y_f_n_a.png,I,z,1002,15,1,2021.199999988079,272571.10000002384,8052,VNB,A,14
12,test,2,1.0,1-Back,1,m,Tue May 27 2025 17:50:34 GMT-0500 (Central Daylight Time),276308.90000003576,165_m_m_h_a.png,I,m,697,16,1,1707.1000000238419,274601.8000000119,8052,VNB,A,15
13,test,2,0.0,1-Back,1,m,Tue May 27 2025 17:50:34 GMT-0500 (Central Daylight Time),278407.3000000119,124_o_f_d_a.png,I,m,1075,17,1,2089.899999976158,276317.40000003576,8052,VNB,A,16
13,test,2,1.0,1-Back,0,z,Tue May 27 2025 17:50:34 GMT-0500 (Central Daylight Time),280522.3000000119,039_o_m_d_a.png,I,m,1089,18,1,2105.199999988079,278417.10000002384,8052,VNB,A,17
0,test,3,1.0,1-Back,,,Tue May 27 2025 17:50:34 GMT-0500 (Central Daylight Time),280522.3000000119,124_o_f_h_a.png,I,space,2326,1,1,2105.199999988079,278417.10000002384,8052,VNB,A,0
1,test,3,0.0,1-Back,1,m,Tue May 27 2025 17:50:34 GMT-0500 (Central Daylight Time),286638.10000002384,139_m_f_d_a.png,I,m,700,2,1,1723.0,284915.10000002384,8052,VNB,A,1
2,test,3,1.0,1-Back,1,m,Tue May 27 2025 17:50:34 GMT-0500 (Central Daylight Time),288454.6999999881,165_m_m_n_a.png,I,m,791,3,1,1806.199999988079,286648.5,8052,VNB,A,2
3,test,3,0.0,1-Back,1,z,Tue May 27 2025 17:50:34 GMT-0500 (Central Daylight Time),290087.1999999881,124_o_f_n_a.png,I,z,600,4,1,1622.3999999761581,288464.8000000119,8052,VNB,A,3
4,test,3,1.0,1-Back,1,m,Tue May 27 2025 17:50:34 GMT-0500 (Central Daylight Time),291736.8000000119,039_o_m_d_a.png,I,m,624,5,1,1640.1000000238419,290096.6999999881,8052,VNB,A,4
5,test,3,0.0,1-Back,1,m,Tue May 27 2025 17:50:34 GMT-0500 (Central Daylight Time),293853.0,071_y_f_h_a.png,I,m,1087,6,1,2105.599999964237,291747.40000003576,8052,VNB,A,5
6,test,3,0.0,1-Back,1,z,Tue May 27 2025 17:50:34 GMT-0500 (Central Daylight Time),295402.1999999881,109_y_m_h_a.png,I,z,523,7,1,1538.7999999523163,293863.40000003576,8052,VNB,A,6
7,test,3,0.0,1-Back,1,m,Tue May 27 2025 17:50:34 GMT-0500 (Central Daylight Time),297018.3000000119,139_m_f_n_a.png,I,m,590,8,1,1605.3999999761581,295412.90000003576,8052,VNB,A,7
8,test,3,0.0,1-Back,1,m,Tue May 27 2025 17:50:34 GMT-0500 (Central Daylight Time),298769.10000002384,071_y_f_d_a.png,I,m,734,9,1,1740.9000000357628,297028.1999999881,8052,VNB,A,8
9,test,3,1.0,1-Back,1,m,Tue May 27 2025 17:50:34 GMT-0500 (Central Daylight Time),300616.90000003576,039_o_m_n_a.png,I,m,824,10,1,1838.7000000476837,298778.1999999881,8052,VNB,A,9
10,test,3,0.0,1-Back,1,m,Tue May 27 2025 17:50:34 GMT-0500 (Central Daylight Time),302432.40000003576,165_m_m_h_a.png,I,m,791,11,1,1805.0,300627.40000003576,8052,VNB,A,10
11,test,3,0.0,1-Back,1,z,Tue May 27 2025 17:50:34 GMT-0500 (Central Daylight Time),303986.6999999881,139_m_f_h_a.png,I,z,519,12,1,1544.8999999761581,302441.8000000119,8052,VNB,A,11
12,test,3,1.0,1-Back,1,m,Tue May 27 2025 17:50:34 GMT-0500 (Central Daylight Time),305681.5,124_o_f_d_a.png,I,m,671,13,1,1687.0999999642372,303994.40000003576,8052,VNB,A,12
12,test,3,0.0,1-Back,0,z,Tue May 27 2025 17:50:34 GMT-0500 (Central Daylight Time),307648.3000000119,165_m_m_d_a.png,I,m,941,14,1,1957.0,305691.3000000119,8052,VNB,A,13
13,test,3,0.0,1-Back,1,m,Tue May 27 2025 17:50:34 GMT-0500 (Central Daylight Time),309563.1999999881,109_y_m_n_a.png,I,m,886,15,1,1904.699999988079,307658.5,8052,VNB,A,14
14,test,3,1.0,1-Back,1,m,Tue May 27 2025 17:50:34 GMT-0500 (Central Daylight Time),311297.0,039_o_m_h_a.png,I,m,707,16,1,1721.800000011921,309575.1999999881,8052,VNB,A,15
15,test,3,0.0,1-Back,1,m,Tue May 27 2025 17:50:34 GMT-0500 (Central Daylight Time),313064.8000000119,109_y_m_d_a.png,I,m,750,17,1,1757.6000000238419,311307.1999999881,8052,VNB,A,16
16,test,3,1.0,1-Back,1,m,Tue May 27 2025 17:50:34 GMT-0500 (Central Daylight Time),314944.3000000119,071_y_f_n_a.png,I,m,865,18,1,1868.800000011921,313075.5,8052,VNB,A,17
0,test,4,1.0,1-Back,,,Tue May 27 2025 17:50:34 GMT-0500 (Central Daylight Time),314944.3000000119,165_m_m_d_a.png,I,space,1719,1,1,1868.800000011921,313075.5,8052,VNB,A,0
1,test,4,0.0,1-Back,1,z,Tue May 27 2025 17:50:34 GMT-0500 (Central Daylight Time),320860.90000003576,039_o_m_d_a.png,I,z,1148,2,1,2155.100000023842,318705.8000000119,8052,VNB,A,1
2,test,4,0.0,1-Back,1,m,Tue May 27 2025 17:50:34 GMT-0500 (Central Daylight Time),322643.10000002384,109_y_m_h_a.png,I,m,753,3,1,1771.5,320871.60000002384,8052,VNB,A,2
3,test,4,0.0,1-Back,1,m,Tue May 27 2025 17:50:34 GMT-0500 (Central Daylight Time),324426.40000003576,139_m_f_n_a.png,I,m,757,4,1,1773.7000000476837,322652.6999999881,8052,VNB,A,3
4,test,4,1.0,1-Back,1,m,Tue May 27 2025 17:50:34 GMT-0500 (Central Daylight Time),326094.1999999881,124_o_f_h_a.png,I,m,649,5,1,1659.0,324435.1999999881,8052,VNB,A,4
4,test,4,0.0,1-Back,0,m,Tue May 27 2025 17:50:34 GMT-0500 (Central Daylight Time),327808.8000000119,165_m_m_n_a.png,I,z,691,6,1,1705.300000011921,326103.5,8052,VNB,A,5
5,test,4,0.0,1-Back,1,m,Tue May 27 2025 17:50:34 GMT-0500 (Central Daylight Time),329690.6999999881,109_y_m_d_a.png,I,m,863,7,1,1872.5999999642372,327818.10000002384,8052,VNB,A,6
6,test,4,1.0,1-Back,1,z,Tue May 27 2025 17:50:34 GMT-0500 (Central Daylight Time),331491.1999999881,071_y_f_d_a.png,I,z,773,8,1,1790.8999999761581,329700.3000000119,8052,VNB,A,7
7,test,4,0.0,1-Back,1,m,Tue May 27 2025 17:50:34 GMT-0500 (Central Daylight Time),332989.8000000119,139_m_f_h_a.png,I,m,476,9,1,1488.699999988079,331501.10000002384,8052,VNB,A,8
8,test,4,0.0,1-Back,1,z,Tue May 27 2025 17:50:34 GMT-0500 (Central Daylight Time),334706.5,039_o_m_h_a.png,I,z,690,10,1,1708.300000011921,332998.1999999881,8052,VNB,A,9
9,test,4,1.0,1-Back,1,m,Tue May 27 2025 17:50:34 GMT-0500 (Central Daylight Time),336256.6999999881,124_o_f_n_a.png,I,m,516,11,1,1539.7999999523163,334716.90000003576,8052,VNB,A,10
10,test,4,0.0,1-Back,1,m,Tue May 27 2025 17:50:34 GMT-0500 (Central Daylight Time),338187.90000003576,139_m_f_d_a.png,I,m,903,12,1,1916.5,336271.40000003576,8052,VNB,A,11
11,test,4,0.0,1-Back,1,m,Tue May 27 2025 17:50:34 GMT-0500 (Central Daylight Time),340137.90000003576,071_y_f_n_a.png,I,m,931,13,1,1940.2000000476837,338197.6999999881,8052,VNB,A,12
11,test,4,0.0,1-Back,0,m,Tue May 27 2025 17:50:34 GMT-0500 (Central Daylight Time),341836.5,124_o_f_d_a.png,I,z,669,14,1,1687.8999999761581,340148.60000002384,8052,VNB,A,13
12,test,4,0.0,1-Back,1,m,Tue May 27 2025 17:50:34 GMT-0500 (Central Daylight Time),343587.40000003576,071_y_f_h_a.png,I,m,723,15,1,1741.9000000357628,341845.5,8052,VNB,A,14
12,test,4,1.0,1-Back,0,z,Tue May 27 2025 17:50:34 GMT-0500 (Central Daylight Time),345503.3000000119,165_m_m_h_a.png,I,m,884,16,1,1905.8999999761581,343597.40000003576,8052,VNB,A,15
13,test,4,0.0,1-Back,1,m,Tue May 27 2025 17:50:34 GMT-0500 (Central Daylight Time),347269.3000000119,039_o_m_n_a.png,I,m,736,17,1,1757.199999988079,345512.10000002384,8052,VNB,A,16
14,test,4,1.0,1-Back,1,z,Tue May 27 2025 17:50:34 GMT-0500 (Central Daylight Time),349171.10000002384,109_y_m_n_a.png,I,z,883,18,1,1892.800000011921,347278.3000000119,8052,VNB,A,17
0,test,5,1.0,1-Back,,,Tue May 27 2025 17:50:34 GMT-0500 (Central Daylight Time),349171.10000002384,039_o_m_n_a.png,I,space,2540,1,1,1892.800000011921,347278.3000000119,8052,VNB,A,0
1,test,5,1.0,1-Back,1,m,Tue May 27 2025 17:50:34 GMT-0500 (Central Daylight Time),355415.90000003576,124_o_f_h_a.png,I,m,656,2,1,1671.800000011921,353744.10000002384,8052,VNB,A,1
2,test,5,0.0,1-Back,1,m,Tue May 27 2025 17:50:34 GMT-0500 (Central Daylight Time),357100.6999999881,109_y_m_d_a.png,I,m,656,3,1,1674.2999999523163,355426.40000003576,8052,VNB,A,2
3,test,5,0.0,1-Back,1,z,Tue May 27 2025 17:50:34 GMT-0500 (Central Daylight Time),358866.0,039_o_m_d_a.png,I,z,732,4,1,1754.3999999761581,357111.60000002384,8052,VNB,A,3
4,test,5,0.0,1-Back,1,m,Tue May 27 2025 17:50:34 GMT-0500 (Central Daylight Time),360563.90000003576,139_m_f_h_a.png,I,m,679,5,1,1688.800000011921,358875.10000002384,8052,VNB,A,4
5,test,5,0.0,1-Back,1,m,Tue May 27 2025 17:50:34 GMT-0500 (Central Daylight Time),362498.10000002384,071_y_f_n_a.png,I,m,916,6,1,1922.800000011921,360575.3000000119,8052,VNB,A,5
6,test,5,1.0,1-Back,1,z,Tue May 27 2025 17:50:34 GMT-0500 (Central Daylight Time),364262.60000002384,124_o_f_n_a.png,I,z,742,7,1,1756.800000011921,362505.8000000119,8052,VNB,A,6
7,test,5,0.0,1-Back,1,m,Tue May 27 2025 17:50:34 GMT-0500 (Central Daylight Time),366064.90000003576,139_m_f_d_a.png,I,m,785,8,1,1792.0,364272.90000003576,8052,VNB,A,7
8,test,5,0.0,1-Back,1,m,Tue May 27 2025 17:50:34 GMT-0500 (Central Daylight Time),367730.5,109_y_m_h_a.png,I,m,640,9,1,1653.800000011921,366076.6999999881,8052,VNB,A,8
9,test,5,0.0,1-Back,1,m,Tue May 27 2025 17:50:34 GMT-0500 (Central Daylight Time),369811.90000003576,071_y_f_d_a.png,I,m,1063,10,1,2072.100000023842,367739.8000000119,8052,VNB,A,9
10,test,5,0.0,1-Back,1,m,Tue May 27 2025 17:50:34 GMT-0500 (Central Daylight Time),371509.5,165_m_m_n_a.png,I,m,678,11,1,1688.0,369821.5,8052,VNB,A,10
11,test,5,1.0,1-Back,1,z,Tue May 27 2025 17:50:34 GMT-0500 (Central Daylight Time),373144.8000000119,139_m_f_n_a.png,I,z,601,12,1,1629.5,371515.3000000119,8052,VNB,A,11
12,test,5,0.0,1-Back,1,m,Tue May 27 2025 17:50:34 GMT-0500 (Central Daylight Time),374627.40000003576,039_o_m_h_a.png,I,m,465,13,1,1472.300000011921,373155.10000002384,8052,VNB,A,12
13,test,5,0.0,1-Back,1,z,Tue May 27 2025 17:50:34 GMT-0500 (Central Daylight Time),376726.40000003576,165_m_m_h_a.png,I,z,1068,14,1,2090.900000035763,374635.5,8052,VNB,A,13
14,test,5,1.0,1-Back,1,m,Tue May 27 2025 17:50:34 GMT-0500 (Central Daylight Time),378409.6999999881,124_o_f_d_a.png,I,m,649,15,1,1675.0999999642372,376734.60000002384,8052,VNB,A,14
15,test,5,0.0,1-Back,1,m,Tue May 27 2025 17:50:34 GMT-0500 (Central Daylight Time),380225.1999999881,109_y_m_n_a.png,I,m,789,16,1,1804.7999999523163,378420.40000003576,8052,VNB,A,15
15,test,5,0.0,1-Back,0,m,Tue May 27 2025 17:50:34 GMT-0500 (Central Daylight Time),381956.90000003576,071_y_f_h_a.png,I,z,701,17,1,1722.5,380234.40000003576,8052,VNB,A,16
16,test,5,0.0,1-Back,1,m,Tue May 27 2025 17:50:34 GMT-0500 (Central Daylight Time),383642.3000000119,165_m_m_d_a.png,I,m,667,18,1,1676.300000011921,381966.0,8052,VNB,A,17
0,prac,1,0.0,2-Back,,,Tue May 27 2025 17:50:34 GMT-0500 (Central Daylight Time),383642.3000000119,139_m_f_n_a.png,I,space,7507,1,1,1676.300000011921,381966.0,8052,VNB,A,0
0,prac,1,0.0,2-Back,,,Tue May 27 2025 17:50:34 GMT-0500 (Central Daylight Time),383642.3000000119,124_o_f_h_a.png,I,space,7507,2,1,1676.300000011921,381966.0,8052,VNB,A,0
0,prac,1,0.0,2-Back,0,m,Tue May 27 2025 17:50:34 GMT-0500 (Central Daylight Time),484626.90000003576,039_o_m_d_a.png,I,None,2001,3,1,2792.100000023842,481834.8000000119,8052,VNB,A,1
0,prac,1,1.0,2-Back,0,z,Tue May 27 2025 17:50:34 GMT-0500 (Central Daylight Time),486675.3000000119,165_m_m_h_a.png,I,m,1260,4,1,2037.300000011921,484638.0,8052,VNB,A,2
0,prac,1,0.0,2-Back,0,m,Tue May 27 2025 17:50:34 GMT-0500 (Central Daylight Time),488641.1999999881,071_y_f_n_a.png,I,z,1173,5,1,1955.5999999642372,486685.60000002384,8052,VNB,A,3
0,prac,1,1.0,2-Back,0,z,Tue May 27 2025 17:50:34 GMT-0500 (Central Daylight Time),490257.60000002384,039_o_m_h_a.png,I,m,828,6,1,1605.300000011921,488652.3000000119,8052,VNB,A,4
1,prac,1,1.0,2-Back,1,z,Tue May 27 2025 17:50:34 GMT-0500 (Central Daylight Time),492291.1999999881,109_y_m_n_a.png,I,z,1242,7,1,2022.2999999523163,490268.90000003576,8052,VNB,A,5
1,prac,1,0.0,2-Back,0,m,Tue May 27 2025 17:50:34 GMT-0500 (Central Daylight Time),493924.10000002384,139_m_f_d_a.png,I,z,845,8,1,1620.0,492304.10000002384,8052,VNB,A,6
1,prac,1,0.0,2-Back,0,m,Tue May 27 2025 17:50:34 GMT-0500 (Central Daylight Time),495888.3000000119,124_o_f_d_a.png,I,z,1128,9,1,1952.5,493935.8000000119,8052,VNB,A,7
1,prac,1,0.0,2-Back,0,m,Tue May 27 2025 17:50:34 GMT-0500 (Central Daylight Time),497803.40000003576,165_m_m_h_a.png,I,z,1126,10,1,1904.6000000238419,495898.8000000119,8052,VNB,A,8
2,prac,1,1.0,2-Back,1,z,Tue May 27 2025 17:50:34 GMT-0500 (Central Daylight Time),500071.90000003576,071_y_f_d_a.png,I,z,1479,11,1,2257.5,497814.40000003576,8052,VNB,A,9
3,prac,1,0.0,2-Back,1,m,Tue May 27 2025 17:50:34 GMT-0500 (Central Daylight Time),501719.60000002384,039_o_m_n_a.png,I,m,835,12,1,1630.9000000357628,500088.6999999881,8052,VNB,A,10
0,prac,2,0.0,2-Back,,,Tue May 27 2025 17:50:34 GMT-0500 (Central Daylight Time),501719.60000002384,139_m_f_n_a.png,I,a,5586,1,1,1630.9000000357628,500088.6999999881,8052,VNB,A,0
0,prac,2,0.0,2-Back,,,Tue May 27 2025 17:50:34 GMT-0500 (Central Daylight Time),501719.60000002384,124_o_f_h_a.png,I,a,5586,2,1,1630.9000000357628,500088.6999999881,8052,VNB,A,0
1,prac,2,0.0,2-Back,1,m,Tue May 27 2025 17:50:34 GMT-0500 (Central Daylight Time),514432.10000002384,039_o_m_d_a.png,I,m,1217,3,1,2004.699999988079,512427.40000003576,8052,VNB,A,1
2,prac,2,1.0,2-Back,1,z,Tue May 27 2025 17:50:34 GMT-0500 (Central Daylight Time),516281.6999999881,165_m_m_h_a.png,I,z,1082,4,1,1840.7999999523163,514440.90000003576,8052,VNB,A,2
3,prac,2,0.0,2-Back,1,m,Tue May 27 2025 17:50:34 GMT-0500 (Central Daylight Time),518231.60000002384,071_y_f_n_a.png,I,m,1150,5,1,1937.9000000357628,516293.6999999881,8052,VNB,A,3
4,prac,2,1.0,2-Back,1,z,Tue May 27 2025 17:50:34 GMT-0500 (Central Daylight Time),520412.6999999881,039_o_m_h_a.png,I,z,1370,6,1,2170.099999964237,518242.60000002384,8052,VNB,A,4
4,prac,2,1.0,2-Back,0,z,Tue May 27 2025 17:50:34 GMT-0500 (Central Daylight Time),522146.5,109_y_m_n_a.png,I,m,910,7,1,1721.199999988079,520425.3000000119,8052,VNB,A,5
5,prac,2,0.0,2-Back,1,m,Tue May 27 2025 17:50:34 GMT-0500 (Central Daylight Time),523993.60000002384,139_m_f_d_a.png,I,m,1037,8,1,1835.800000011921,522157.8000000119,8052,VNB,A,6
5,prac,2,0.0,2-Back,0,m,Tue May 27 2025 17:50:34 GMT-0500 (Central Daylight Time),526128.5,124_o_f_d_a.png,I,z,1315,9,1,2128.399999976158,524000.10000002384,8052,VNB,A,7
5,prac,2,0.0,2-Back,0,m,Tue May 27 2025 17:50:34 GMT-0500 (Central Daylight Time),527828.6000000238,165_m_m_h_a.png,I,z,907,10,1,1687.9000000357628,526140.6999999881,8052,VNB,A,8
6,prac,2,1.0,2-Back,1,z,Tue May 27 2025 17:50:34 GMT-0500 (Central Daylight Time),529961.6000000238,071_y_f_d_a.png,I,z,1325,11,1,2122.100000023842,527839.5,8052,VNB,A,9
7,prac,2,0.0,2-Back,1,m,Tue May 27 2025 17:50:34 GMT-0500 (Central Daylight Time),531660.8000000119,039_o_m_n_a.png,I,m,912,12,1,1687.8999999761581,529972.9000000358,8052,VNB,A,10
0,test,1,0.0,2-Back,,,Tue May 27 2025 17:50:34 GMT-0500 (Central Daylight Time),531660.8000000119,109_y_m_h_a.png,I,space,8871,1,1,1687.8999999761581,529972.9000000358,8052,VNB,A,0
0,test,1,0.0,2-Back,,,Tue May 27 2025 17:50:34 GMT-0500 (Central Daylight Time),531660.8000000119,124_o_f_n_a.png,I,space,8871,2,1,1687.8999999761581,529972.9000000358,8052,VNB,A,0
1,test,1,0.0,2-Back,1,z,Tue May 27 2025 17:50:34 GMT-0500 (Central Daylight Time),556404.1000000238,039_o_m_h_a.png,I,z,1134,3,1,2140.5,554263.6000000238,8052,VNB,A,1
2,test,1,0.0,2-Back,1,m,Tue May 27 2025 17:50:34 GMT-0500 (Central Daylight Time),558635.6999999881,139_m_f_d_a.png,I,m,1214,4,1,2221.099999964237,556414.6000000238,8052,VNB,A,2
3,test,1,1.0,2-Back,1,m,Tue May 27 2025 17:50:34 GMT-0500 (Central Daylight Time),561035.6000000238,109_y_m_n_a.png,I,m,1384,5,1,2389.400000035763,558646.1999999881,8052,VNB,A,3
4,test,1,0.0,2-Back,1,z,Tue May 27 2025 17:50:34 GMT-0500 (Central Daylight Time),563199.9000000358,071_y_f_d_a.png,I,z,1148,6,1,2152.600000023842,561047.3000000119,8052,VNB,A,4
5,test,1,0.0,2-Back,1,m,Tue May 27 2025 17:50:34 GMT-0500 (Central Daylight Time),565497.0,165_m_m_h_a.png,I,m,1270,7,1,2289.099999964237,563207.9000000358,8052,VNB,A,5
5,test,1,1.0,2-Back,0,m,Tue May 27 2025 17:50:34 GMT-0500 (Central Daylight Time),567948.3000000119,071_y_f_n_a.png,I,z,1428,8,1,2445.600000023842,565502.6999999881,8052,VNB,A,6
5,test,1,0.0,2-Back,0,z,Tue May 27 2025 17:50:34 GMT-0500 (Central Daylight Time),569798.1000000238,124_o_f_h_a.png,I,m,818,9,1,1838.199999988079,567959.9000000358,8052,VNB,A,7
5,test,1,0.0,2-Back,0,m,Tue May 27 2025 17:50:34 GMT-0500 (Central Daylight Time),572664.1000000238,039_o_m_d_a.png,I,z,1834,10,1,2855.0,569809.1000000238,8052,VNB,A,8
5,test,1,1.0,2-Back,0,m,Tue May 27 2025 17:50:34 GMT-0500 (Central Daylight Time),574697.6000000238,165_m_m_d_a.png,I,z,1016,11,1,2022.699999988079,572674.9000000358,8052,VNB,A,9
6,test,1,0.0,2-Back,1,m,Tue May 27 2025 17:50:34 GMT-0500 (Central Daylight Time),577346.4000000358,139_m_f_n_a.png,I,m,1622,12,1,2639.5,574706.9000000358,8052,VNB,A,10
7,test,1,0.0,2-Back,1,m,Tue May 27 2025 17:50:34 GMT-0500 (Central Daylight Time),579410.5,071_y_f_h_a.png,I,m,1046,13,1,2054.199999988079,577356.3000000119,8052,VNB,A,11
8,test,1,0.0,2-Back,1,z,Tue May 27 2025 17:50:34 GMT-0500 (Central Daylight Time),581977.1000000238,165_m_m_n_a.png,I,z,1541,14,1,2557.100000023842,579420.0,8052,VNB,A,12
9,test,1,0.0,2-Back,1,m,Tue May 27 2025 17:50:34 GMT-0500 (Central Daylight Time),584360.1999999881,109_y_m_d_a.png,I,m,1361,15,1,2374.2999999523163,581985.9000000358,8052,VNB,A,13
10,test,1,1.0,2-Back,1,m,Tue May 27 2025 17:50:34 GMT-0500 (Central Daylight Time),587009.5,139_m_f_h_a.png,I,m,1624,16,1,2640.0,584369.5,8052,VNB,A,14
10,test,1,0.0,2-Back,0,z,Tue May 27 2025 17:50:34 GMT-0500 (Central Daylight Time),588976.0,124_o_f_d_a.png,I,m,942,17,1,1956.699999988079,587019.3000000119,8052,VNB,A,15
11,test,1,0.0,2-Back,1,m,Tue May 27 2025 17:50:34 GMT-0500 (Central Daylight Time),591258.1999999881,039_o_m_n_a.png,I,m,1255,18,1,2271.699999988079,588986.5,8052,VNB,A,16
0,test,2,0.0,2-Back,,,Tue May 27 2025 17:50:34 GMT-0500 (Central Daylight Time),591258.1999999881,165_m_m_h_a.png,I,space,11486,1,1,2271.699999988079,588986.5,8052,VNB,A,0
0,test,2,0.0,2-Back,,,Tue May 27 2025 17:50:34 GMT-0500 (Central Daylight Time),591258.1999999881,071_y_f_n_a.png,I,space,11486,2,1,2271.699999988079,588986.5,8052,VNB,A,0
1,test,2,1.0,2-Back,1,z,Tue May 27 2025 17:50:34 GMT-0500 (Central Daylight Time),609420.3000000119,124_o_f_h_a.png,I,z,548,3,1,1559.1000000238419,607861.1999999881,8052,VNB,A,1
2,test,2,0.0,2-Back,1,m,Tue May 27 2025 17:50:34 GMT-0500 (Central Daylight Time),611735.3000000119,039_o_m_d_a.png,I,m,1292,4,1,2308.600000023842,609426.6999999881,8052,VNB,A,2
3,test,2,0.0,2-Back,1,m,Tue May 27 2025 17:50:34 GMT-0500 (Central Daylight Time),613866.9000000358,139_m_f_d_a.png,I,m,1100,5,1,2120.0,611746.9000000358,8052,VNB,A,3
4,test,2,0.0,2-Back,1,m,Tue May 27 2025 17:50:34 GMT-0500 (Central Daylight Time),616251.5,109_y_m_h_a.png,I,m,1356,6,1,2373.599999964237,613877.9000000358,8052,VNB,A,4
4,test,2,0.0,2-Back,0,m,Tue May 27 2025 17:50:34 GMT-0500 (Central Daylight Time),618266.1000000238,124_o_f_n_a.png,I,z,988,7,1,2003.6000000238419,616262.5,8052,VNB,A,5
5,test,2,1.0,2-Back,1,z,Tue May 27 2025 17:50:34 GMT-0500 (Central Daylight Time),620999.0,039_o_m_h_a.png,I,z,1703,8,1,2721.5,618277.5,8052,VNB,A,6
5,test,2,0.0,2-Back,0,m,Tue May 27 2025 17:50:34 GMT-0500 (Central Daylight Time),624031.6999999881,071_y_f_d_a.png,I,None,2016,9,1,3023.5,621008.1999999881,8052,VNB,A,7
5,test,2,0.0,2-Back,0,m,Tue May 27 2025 17:50:34 GMT-0500 (Central Daylight Time),627063.4000000358,109_y_m_d_a.png,I,None,2015,10,1,3021.300000011921,624042.1000000238,8052,VNB,A,8
6,test,2,0.0,2-Back,1,m,Tue May 27 2025 17:50:34 GMT-0500 (Central Daylight Time),629478.5,165_m_m_n_a.png,I,m,1392,11,1,2404.399999976158,627074.1000000238,8052,VNB,A,9
6,test,2,0.0,2-Back,0,m,Tue May 27 2025 17:50:34 GMT-0500 (Central Daylight Time),631394.8000000119,139_m_f_h_a.png,I,z,898,12,1,1906.300000011921,629488.5,8052,VNB,A,10
7,test,2,1.0,2-Back,1,z,Tue May 27 2025 17:50:34 GMT-0500 (Central Daylight Time),633762.5,039_o_m_n_a.png,I,z,1350,13,1,2359.199999988079,631403.3000000119,8052,VNB,A,11
8,test,2,0.0,2-Back,1,m,Tue May 27 2025 17:50:34 GMT-0500 (Central Daylight Time),635809.9000000358,124_o_f_d_a.png,I,m,1023,14,1,2039.300000011921,633770.6000000238,8052,VNB,A,12
9,test,2,0.0,2-Back,1,m,Tue May 27 2025 17:50:34 GMT-0500 (Central Daylight Time),637959.1999999881,071_y_f_h_a.png,I,m,1127,15,1,2137.599999964237,635821.6000000238,8052,VNB,A,13
9,test,2,0.0,2-Back,0,z,Tue May 27 2025 17:50:34 GMT-0500 (Central Daylight Time),640640.8000000119,165_m_m_d_a.png,I,m,1656,16,1,2671.800000011921,637969.0,8052,VNB,A,14
10,test,2,0.0,2-Back,1,m,Tue May 27 2025 17:50:34 GMT-0500 (Central Daylight Time),643340.1999999881,109_y_m_n_a.png,I,m,1678,17,1,2690.699999988079,640649.5,8052,VNB,A,15
10,test,2,1.0,2-Back,0,m,Tue May 27 2025 17:50:34 GMT-0500 (Central Daylight Time),645425.0,139_m_f_n_a.png,I,z,1050,18,1,2078.899999976158,643346.1000000238,8052,VNB,A,16
0,test,3,1.0,2-Back,,,Tue May 27 2025 17:50:34 GMT-0500 (Central Daylight Time),645425.0,039_o_m_n_a.png,I,space,3373,1,1,2078.899999976158,643346.1000000238,8052,VNB,A,0
0,test,3,1.0,2-Back,,,Tue May 27 2025 17:50:34 GMT-0500 (Central Daylight Time),645425.0,124_o_f_d_a.png,I,space,3373,2,1,2078.899999976158,643346.1000000238,8052,VNB,A,0
1,test,3,0.0,2-Back,1,m,Tue May 27 2025 17:50:34 GMT-0500 (Central Daylight Time),656274.8000000119,071_y_f_h_a.png,I,m,1386,3,1,2409.600000023842,653865.1999999881,8052,VNB,A,1
1,test,3,0.0,2-Back,0,z,Tue May 27 2025 17:50:34 GMT-0500 (Central Daylight Time),658219.8000000119,139_m_f_d_a.png,I,m,933,4,1,1939.0,656280.8000000119,8052,VNB,A,2
2,test,3,1.0,2-Back,1,m,Tue May 27 2025 17:50:34 GMT-0500 (Central Daylight Time),660218.6000000238,109_y_m_n_a.png,I,m,972,5,1,1990.5,658228.1000000238,8052,VNB,A,3
2,test,3,0.0,2-Back,0,m,Tue May 27 2025 17:50:34 GMT-0500 (Central Daylight Time),662219.1999999881,039_o_m_h_a.png,I,z,981,6,1,1990.7999999523163,660228.4000000358,8052,VNB,A,4
3,test,3,0.0,2-Back,1,z,Tue May 27 2025 17:50:34 GMT-0500 (Central Daylight Time),664251.5,071_y_f_n_a.png,I,z,1016,7,1,2020.5999999642372,662230.9000000358,8052,VNB,A,5
4,test,3,1.0,2-Back,1,m,Tue May 27 2025 17:50:34 GMT-0500 (Central Daylight Time),666334.1000000238,165_m_m_d_a.png,I,m,1052,8,1,2074.900000035763,664259.1999999881,8052,VNB,A,6
4,test,3,0.0,2-Back,0,m,Tue May 27 2025 17:50:34 GMT-0500 (Central Daylight Time),668667.6999999881,109_y_m_d_a.png,I,z,1317,9,1,2322.5,666345.1999999881,8052,VNB,A,7
4,test,3,0.0,2-Back,0,m,Tue May 27 2025 17:50:34 GMT-0500 (Central Daylight Time),671099.1999999881,124_o_f_h_a.png,I,z,1405,10,1,2423.399999976158,668675.8000000119,8052,VNB,A,8
5,test,3,1.0,2-Back,1,m,Tue May 27 2025 17:50:34 GMT-0500 (Central Daylight Time),673548.1000000238,139_m_f_n_a.png,I,m,1422,11,1,2441.300000011921,671106.8000000119,8052,VNB,A,9
6,test,3,1.0,2-Back,1,z,Tue May 27 2025 17:50:34 GMT-0500 (Central Daylight Time),675664.4000000358,165_m_m_h_a.png,I,z,1092,12,1,2106.7000000476837,673557.6999999881,8052,VNB,A,10
7,test,3,0.0,2-Back,1,m,Tue May 27 2025 17:50:34 GMT-0500 (Central Daylight Time),677762.9000000358,071_y_f_d_a.png,I,m,1081,13,1,2088.5,675674.4000000358,8052,VNB,A,11
8,test,3,0.0,2-Back,1,m,Tue May 27 2025 17:50:34 GMT-0500 (Central Daylight Time),679964.0,124_o_f_n_a.png,I,m,1172,14,1,2190.099999964237,677773.9000000358,8052,VNB,A,12
9,test,3,0.0,2-Back,1,z,Tue May 27 2025 17:50:34 GMT-0500 (Central Daylight Time),682429.1999999881,039_o_m_d_a.png,I,z,1437,15,1,2458.7999999523163,679970.4000000358,8052,VNB,A,13
10,test,3,1.0,2-Back,1,m,Tue May 27 2025 17:50:34 GMT-0500 (Central Daylight Time),685093.5,139_m_f_h_a.png,I,m,1634,16,1,2653.899999976158,682439.6000000238,8052,VNB,A,14
11,test,3,0.0,2-Back,1,m,Tue May 27 2025 17:50:34 GMT-0500 (Central Daylight Time),687277.1999999881,165_m_m_n_a.png,I,m,1153,17,1,2172.5,685104.6999999881,8052,VNB,A,15
12,test,3,0.0,2-Back,1,z,Tue May 27 2025 17:50:34 GMT-0500 (Central Daylight Time),689276.8000000119,109_y_m_h_a.png,I,z,966,18,1,1989.199999988079,687287.6000000238,8052,VNB,A,16
0,test,4,0.0,2-Back,,,Tue May 27 2025 17:50:34 GMT-0500 (Central Daylight Time),689276.8000000119,139_m_f_n_a.png,I,space,3811,1,1,1989.199999988079,687287.6000000238,8052,VNB,A,0
0,test,4,0.0,2-Back,,,Tue May 27 2025 17:50:34 GMT-0500 (Central Daylight Time),689276.8000000119,039_o_m_n_a.png,I,space,3811,2,1,1989.199999988079,687287.6000000238,8052,VNB,A,0
1,test,4,1.0,2-Back,1,m,Tue May 27 2025 17:50:34 GMT-0500 (Central Daylight Time),700273.5,109_y_m_h_a.png,I,m,1090,3,1,2106.199999988079,698167.3000000119,8052,VNB,A,1
2,test,4,1.0,2-Back,1,m,Tue May 27 2025 17:50:34 GMT-0500 (Central Daylight Time),702305.9000000358,124_o_f_d_a.png,I,m,1006,4,1,2021.6000000238419,700284.3000000119,8052,VNB,A,2
3,test,4,0.0,2-Back,1,z,Tue May 27 2025 17:50:34 GMT-0500 (Central Daylight Time),704087.6000000238,039_o_m_h_a.png,I,z,760,5,1,1771.199999988079,702316.4000000358,8052,VNB,A,3
4,test,4,0.0,2-Back,1,m,Tue May 27 2025 17:50:34 GMT-0500 (Central Daylight Time),706154.0,165_m_m_n_a.png,I,m,1039,6,1,2057.300000011921,704096.6999999881,8052,VNB,A,4
5,test,4,0.0,2-Back,1,m,Tue May 27 2025 17:50:34 GMT-0500 (Central Daylight Time),708053.8000000119,139_m_f_d_a.png,I,m,874,7,1,1887.8999999761581,706165.9000000358,8052,VNB,A,5
6,test,4,0.0,2-Back,1,z,Tue May 27 2025 17:50:34 GMT-0500 (Central Daylight Time),710053.1999999881,071_y_f_n_a.png,I,z,976,8,1,1991.199999988079,708062.0,8052,VNB,A,6
7,test,4,1.0,2-Back,1,m,Tue May 27 2025 17:50:34 GMT-0500 (Central Daylight Time),712085.4000000358,124_o_f_h_a.png,I,m,1011,9,1,2022.4000000357628,710063.0,8052,VNB,A,7
7,test,4,0.0,2-Back,0,m,Tue May 27 2025 17:50:34 GMT-0500 (Central Daylight Time),714367.3000000119,165_m_m_h_a.png,I,z,1259,10,1,2272.199999988079,712095.1000000238,8052,VNB,A,8
7,test,4,0.0,2-Back,0,m,Tue May 27 2025 17:50:34 GMT-0500 (Central Daylight Time),716767.5,071_y_f_d_a.png,I,z,1376,11,1,2389.399999976158,714378.1000000238,8052,VNB,A,9
8,test,4,0.0,2-Back,1,m,Tue May 27 2025 17:50:34 GMT-0500 (Central Daylight Time),719300.0,109_y_m_n_a.png,I,m,1511,12,1,2521.699999988079,716778.3000000119,8052,VNB,A,10
8,test,4,0.0,2-Back,0,z,Tue May 27 2025 17:50:34 GMT-0500 (Central Daylight Time),721981.9000000358,039_o_m_d_a.png,I,m,1659,13,1,2670.900000035763,719311.0,8052,VNB,A,11
9,test,4,1.0,2-Back,1,m,Tue May 27 2025 17:50:34 GMT-0500 (Central Daylight Time),723865.5,139_m_f_h_a.png,I,m,850,14,1,1873.800000011921,721991.6999999881,8052,VNB,A,12
10,test,4,1.0,2-Back,1,m,Tue May 27 2025 17:50:34 GMT-0500 (Central Daylight Time),726165.0,071_y_f_h_a.png,I,m,1267,15,1,2289.199999988079,723875.8000000119,8052,VNB,A,13
11,test,4,0.0,2-Back,1,m,Tue May 27 2025 17:50:34 GMT-0500 (Central Daylight Time),728381.6999999881,124_o_f_n_a.png,I,m,1186,16,1,2208.0,726173.6999999881,8052,VNB,A,14
11,test,4,0.0,2-Back,0,m,Tue May 27 2025 17:50:34 GMT-0500 (Central Daylight Time),730714.4000000358,109_y_m_d_a.png,I,z,1308,17,1,2322.7000000476837,728391.6999999881,8052,VNB,A,15
12,test,4,1.0,2-Back,1,m,Tue May 27 2025 17:50:34 GMT-0500 (Central Daylight Time),732813.9000000358,165_m_m_d_a.png,I,m,1070,18,1,2090.900000035763,730723.0,8052,VNB,A,16
0,test,5,1.0,2-Back,,,Tue May 27 2025 17:50:34 GMT-0500 (Central Daylight Time),732813.9000000358,071_y_f_d_a.png,I,space,2281,1,1,2090.900000035763,730723.0,8052,VNB,A,0
0,test,5,1.0,2-Back,,,Tue May 27 2025 17:50:34 GMT-0500 (Central Daylight Time),732813.9000000358,124_o_f_h_a.png,I,space,2281,2,1,2090.900000035763,730723.0,8052,VNB,A,0
1,test,5,1.0,2-Back,1,z,Tue May 27 2025 17:50:34 GMT-0500 (Central Daylight Time),742526.3000000119,039_o_m_d_a.png,I,z,1285,3,1,2304.399999976158,740221.9000000358,8052,VNB,A,1
2,test,5,1.0,2-Back,1,m,Tue May 27 2025 17:50:34 GMT-0500 (Central Daylight Time),744541.6000000238,139_m_f_n_a.png,I,m,994,4,1,2006.300000011921,742535.3000000119,8052,VNB,A,2
2,test,5,0.0,2-Back,0,m,Tue May 27 2025 17:50:34 GMT-0500 (Central Daylight Time),746508.1999999881,165_m_m_h_a.png,I,z,949,5,1,1958.2999999523163,744549.9000000358,8052,VNB,A,3
3,test,5,0.0,2-Back,1,z,Tue May 27 2025 17:50:34 GMT-0500 (Central Daylight Time),748474.8000000119,071_y_f_n_a.png,I,z,948,6,1,1957.199999988079,746517.6000000238,8052,VNB,A,4
4,test,5,0.0,2-Back,1,m,Tue May 27 2025 17:50:34 GMT-0500 (Central Daylight Time),750722.3000000119,124_o_f_d_a.png,I,m,1230,7,1,2236.5,748485.8000000119,8052,VNB,A,5
4,test,5,0.0,2-Back,0,m,Tue May 27 2025 17:50:34 GMT-0500 (Central Daylight Time),752722.1999999881,039_o_m_h_a.png,I,z,971,8,1,1989.2999999523163,750732.9000000358,8052,VNB,A,6
5,test,5,1.0,2-Back,1,z,Tue May 27 2025 17:50:34 GMT-0500 (Central Daylight Time),755055.3000000119,139_m_f_d_a.png,I,z,1300,9,1,2324.399999976158,752730.9000000358,8052,VNB,A,7
6,test,5,0.0,2-Back,1,m,Tue May 27 2025 17:50:34 GMT-0500 (Central Daylight Time),757238.1999999881,109_y_m_n_a.png,I,m,1151,10,1,2172.399999976158,755065.8000000119,8052,VNB,A,8
6,test,5,0.0,2-Back,0,m,Tue May 27 2025 17:50:34 GMT-0500 (Central Daylight Time),759603.6999999881,165_m_m_n_a.png,I,z,1336,11,1,2355.0,757248.6999999881,8052,VNB,A,9
7,test,5,0.0,2-Back,1,m,Tue May 27 2025 17:50:34 GMT-0500 (Central Daylight Time),761819.4000000358,071_y_f_h_a.png,I,m,1195,12,1,2205.7000000476837,759613.6999999881,8052,VNB,A,10
8,test,5,0.0,2-Back,1,m,Tue May 27 2025 17:50:34 GMT-0500 (Central Daylight Time),764286.3000000119,109_y_m_d_a.png,I,m,1444,13,1,2454.600000023842,761831.6999999881,8052,VNB,A,11
9,test,5,1.0,2-Back,1,z,Tue May 27 2025 17:50:34 GMT-0500 (Central Daylight Time),766152.3000000119,139_m_f_h_a.png,I,z,841,14,1,1855.6000000238419,764296.6999999881,8052,VNB,A,12
10,test,5,0.0,2-Back,1,m,Tue May 27 2025 17:50:34 GMT-0500 (Central Daylight Time),768267.4000000358,039_o_m_n_a.png,I,m,1095,15,1,2103.800000011921,766163.6000000238,8052,VNB,A,13
11,test,5,0.0,2-Back,1,m,Tue May 27 2025 17:50:34 GMT-0500 (Central Daylight Time),770416.6999999881,165_m_m_d_a.png,I,m,1132,16,1,2139.099999964237,768277.6000000238,8052,VNB,A,14
12,test,5,0.0,2-Back,1,z,Tue May 27 2025 17:50:34 GMT-0500 (Central Daylight Time),772333.0,124_o_f_n_a.png,I,z,885,17,1,1905.300000011921,770427.6999999881,8052,VNB,A,15
13,test,5,1.0,2-Back,1,m,Tue May 27 2025 17:50:34 GMT-0500 (Central Daylight Time),774435.1000000238,109_y_m_h_a.png,I,m,1084,18,1,2092.5,772342.6000000238,8052,VNB,A,16
