acc_sum,block,block_c,condition,correct,correct_response,datetime,endtime,flanker,jitter,project,response,response_test_buffer_response,response_test_target_response,response_time,response_time_test_buffer_response,response_time_test_target_response,row_sel,session_number,start_end,starttime,subject_id,target,task,task_vers,time_test_buffer,time_test_buffer_response,time_test_constants,time_test_flanker,time_test_jitter,time_test_logger,time_test_target,time_test_target_response,time_test_variables,trial
1,prac,1,inc,1,m,Thu Jan 22 2026 09:04:58 GMT-0600 (Central Standard Time),123597.79999995232,hate,1100,I,m,,,607,,,4,1,3010.7999999523163,120587.0,8093,film,AF,A,,,,,,,,,,1
2,prac,1,inc,1,m,Thu Jan 22 2026 09:04:58 GMT-0600 (Central Standard Time),126663.39999997616,brutal,1100,I,m,,,655,,,8,1,3060.899999976158,123602.5,8093,window,AF,A,,,,,,,,,,2
3,prac,1,inc,1,m,Thu Jan 22 2026 09:04:58 GMT-0600 (Central Standard Time),129496.0,kind,900,I,m,,,620,,,2,1,2828.2000000476837,126667.79999995232,8093,rock,AF,A,,,,,,,,,,3
4,prac,1,inc,1,z,Thu Jan 22 2026 09:04:58 GMT-0600 (Central Standard Time),132445.29999995232,window,1100,I,z,,,541,,,16,1,2944.7999999523163,129500.5,8093,temper,AF,A,,,,,,,,,,4
5,prac,1,inc,1,z,Thu Jan 22 2026 09:04:58 GMT-0600 (Central Standard Time),135310.89999997616,film,900,I,z,,,664,,,14,1,2861.1999999284744,132449.70000004768,8093,hate,AF,A,,,,,,,,,,5
6,prac,1,inc,1,z,Thu Jan 22 2026 09:04:58 GMT-0600 (Central Standard Time),138343.39999997616,napkin,1100,I,z,,,622,,,12,1,3027.6999999284744,135315.70000004768,8093,friend,AF,A,,,,,,,,,,6
7,prac,1,con,1,m,Thu Jan 22 2026 09:04:58 GMT-0600 (Central Standard Time),140992.29999995232,jacket,800,I,m,,,538,,,5,1,2644.0,138348.29999995232,8093,jacket,AF,A,,,,,,,,,,7
8,prac,1,inc,1,z,Thu Jan 22 2026 09:04:58 GMT-0600 (Central Standard Time),143758.20000004768,rock,900,I,z,,,556,,,10,1,2761.7000000476837,140996.5,8093,kind,AF,A,,,,,,,,,,8
9,prac,1,con,1,z,Thu Jan 22 2026 09:04:58 GMT-0600 (Central Standard Time),146823.79999995232,rage,1000,I,z,,,627,,,15,1,3060.5999999046326,143763.20000004768,8093,rage,AF,A,,,,,,,,,,9
10,prac,1,con,1,z,Thu Jan 22 2026 09:04:58 GMT-0600 (Central Standard Time),149723.10000002384,love,1000,I,z,,,593,,,11,1,2894.399999976158,146828.70000004768,8093,love,AF,A,,,,,,,,,,10
11,prac,1,con,1,m,Thu Jan 22 2026 09:04:58 GMT-0600 (Central Standard Time),152588.70000004768,remote,1000,I,m,,,566,,,7,1,2860.5,149728.20000004768,8093,remote,AF,A,,,,,,,,,,11
12,prac,1,con,1,m,Thu Jan 22 2026 09:04:58 GMT-0600 (Central Standard Time),155954.39999997616,bell,1000,I,m,,,1052,,,3,1,3361.2999999523163,152593.10000002384,8093,bell,AF,A,,,,,,,,,,12
13,prac,1,con,1,z,Thu Jan 22 2026 09:04:58 GMT-0600 (Central Standard Time),158820.29999995232,elated,800,I,z,,,758,,,9,1,2861.6999999284744,155958.60000002384,8093,elated,AF,A,,,,,,,,,,13
14,prac,1,con,1,m,Thu Jan 22 2026 09:04:58 GMT-0600 (Central Standard Time),161536.0,step,800,I,m,,,604,,,1,1,2711.2999999523163,158824.70000004768,8093,step,AF,A,,,,,,,,,,14
15,prac,1,inc,1,m,Thu Jan 22 2026 09:04:58 GMT-0600 (Central Standard Time),164351.60000002384,elated,900,I,m,,,613,,,6,1,2811.3000000715256,161540.29999995232,8093,napkin,AF,A,,,,,,,,,,15
15,prac,1,con,0,z,Thu Jan 22 2026 09:04:58 GMT-0600 (Central Standard Time),166967.70000004768,brutal,800,I,m,,,513,,,13,1,2611.9000000953674,164355.79999995232,8093,brutal,AF,A,,,,,,,,,,16
1,test,1,con,1,m,Thu Jan 22 2026 09:04:58 GMT-0600 (Central Standard Time),183062.60000002384,remote,1100,I,m,m,None,714,499.0,215.0,116,1,2329.2000000476837,180733.39999997616,8093,remote,AF,A,179755,179755,177925,179038,177926,180255,179540,179540,180255,1
2,test,1,inc,1,z,Thu Jan 22 2026 09:04:58 GMT-0600 (Central Standard Time),185228.70000004768,bell,1000,I,z,z,None,626,426.0,200.0,47,1,2161.8000000715256,183066.89999997616,8093,hate,AF,A,181988,181988,180259,181271,180259,182421,181788,181788,182421,2
3,test,1,inc,1,z,Thu Jan 22 2026 09:04:58 GMT-0600 (Central Standard Time),187511.0,window,1100,I,z,z,None,647,448.0,199.0,64,1,2278.0,185233.0,8093,temper,AF,A,184254,184254,182425,183537,182425,184703,184054,184054,184703,3
4,test,1,inc,1,m,Thu Jan 22 2026 09:04:58 GMT-0600 (Central Standard Time),189493.89999997616,rage,800,I,m,m,None,642,442.0,200.0,85,1,1978.6999999284744,187515.20000004768,8093,bell,AF,A,186236,186236,184707,185520,184708,186686,186036,186036,186686,4
5,test,1,con,1,z,Thu Jan 22 2026 09:04:58 GMT-0600 (Central Standard Time),191576.70000004768,hate,1000,I,z,z,None,538,339.0,199.0,43,1,2078.8000000715256,189497.89999997616,8093,hate,AF,A,188419,188419,186690,187703,186690,188769,188219,188219,188769,5
6,test,1,inc,1,m,Thu Jan 22 2026 09:04:58 GMT-0600 (Central Standard Time),193526.20000004768,rage,800,I,m,m,None,599,400.0,199.0,93,1,1945.5,191580.70000004768,8093,film,AF,A,190302,190302,188773,189585,188773,190718,190102,190102,190718,6
7,test,1,con,1,m,Thu Jan 22 2026 09:04:58 GMT-0600 (Central Standard Time),195542.20000004768,napkin,900,I,m,m,None,567,367.0,200.0,106,1,2011.7000000476837,193530.5,8093,napkin,AF,A,192351,192351,190723,191635,190723,192734,192151,192151,192734,7
8,test,1,con,1,z,Thu Jan 22 2026 09:04:58 GMT-0600 (Central Standard Time),197524.79999995232,kind,800,I,z,z,None,635,435.0,200.0,9,1,1978.1999999284744,195546.60000002384,8093,kind,AF,A,194267,194267,192739,193551,192739,194717,194067,194067,194717,8
9,test,1,con,1,z,Thu Jan 22 2026 09:04:58 GMT-0600 (Central Standard Time),199574.10000002384,temper,900,I,z,z,None,607,407.0,200.0,58,1,2045.0,197529.10000002384,8093,temper,AF,A,196350,196350,194721,195634,194721,196766,196150,196150,196766,9
10,test,1,inc,1,z,Thu Jan 22 2026 09:04:58 GMT-0600 (Central Standard Time),201873.5,film,1100,I,z,z,None,663,462.0,201.0,16,1,2295.5,199578.0,8093,kind,AF,A,198600,198600,196770,197883,196770,199066,198399,198399,199065,10
11,test,1,inc,1,m,Thu Jan 22 2026 09:04:58 GMT-0600 (Central Standard Time),203990.5,love,1000,I,m,m,None,575,376.0,199.0,79,1,2112.2000000476837,201878.29999995232,8093,rock,AF,A,200798,200798,199070,200083,199071,201183,200599,200599,201182,11
12,test,1,inc,1,m,Thu Jan 22 2026 09:04:58 GMT-0600 (Central Standard Time),206138.70000004768,temper,1000,I,m,m,None,602,403.0,199.0,111,1,2143.7000000476837,203995.0,8093,napkin,AF,A,202915,202915,201187,202198,201187,203331,202715,202715,203331,12
13,test,1,inc,1,m,Thu Jan 22 2026 09:04:58 GMT-0600 (Central Standard Time),208404.5,friend,1100,I,m,m,None,617,418.0,199.0,112,1,2262.100000023842,206142.39999997616,8093,napkin,AF,A,205164,205164,203334,204447,203335,205597,204964,204964,205597,13
14,test,1,con,1,m,Thu Jan 22 2026 09:04:58 GMT-0600 (Central Standard Time),210554.0,remote,900,I,m,m,None,712,513.0,199.0,114,1,2145.5,208408.5,8093,remote,AF,A,207229,207229,205601,206513,205601,207746,207030,207030,207746,14
15,test,1,con,1,z,Thu Jan 22 2026 09:04:58 GMT-0600 (Central Standard Time),212886.60000002384,hate,1100,I,z,z,None,692,492.0,200.0,44,1,2328.5,210558.10000002384,8093,hate,AF,A,209579,209579,207750,208862,207750,210079,209379,209379,210079,15
16,test,1,inc,1,m,Thu Jan 22 2026 09:04:58 GMT-0600 (Central Standard Time),215135.70000004768,hate,1100,I,m,m,None,613,414.0,199.0,80,1,2245.100000023842,212890.60000002384,8093,rock,AF,A,211912,211912,210083,211195,210083,212328,211712,211712,212328,16
17,test,1,con,1,m,Thu Jan 22 2026 09:04:58 GMT-0600 (Central Standard Time),217422.79999995232,napkin,1100,I,m,m,None,654,454.0,200.0,108,1,2283.0999999046326,215139.70000004768,8093,napkin,AF,A,214161,214161,212332,213444,212332,214615,213961,213961,214615,17
18,test,1,inc,1,z,Thu Jan 22 2026 09:04:58 GMT-0600 (Central Standard Time),219651.0,rock,900,I,z,z,None,786,587.0,199.0,22,1,2223.899999976158,217427.10000002384,8093,love,AF,A,216243,216243,214619,215527,214620,216843,216044,216044,216843,18
18,test,1,con,0,z,Thu Jan 22 2026 09:04:58 GMT-0600 (Central Standard Time),222483.60000002384,love,1100,I,m,m,None,1186,986.0,200.0,20,1,2828.600000023842,219655.0,8093,love,AF,A,218676,218676,216847,217960,216847,219676,218476,218476,219676,19
19,test,1,inc,1,m,Thu Jan 22 2026 09:04:58 GMT-0600 (Central Standard Time),224649.70000004768,rage,800,I,m,m,None,829,629.0,200.0,77,1,2162.0,222487.70000004768,8093,rock,AF,A,221209,221209,219680,220492,219680,221842,221009,221009,221842,20
20,test,1,inc,1,m,Thu Jan 22 2026 09:04:58 GMT-0600 (Central Standard Time),226732.29999995232,brutal,900,I,m,m,None,634,435.0,199.0,118,1,2078.7999999523163,224653.5,8093,remote,AF,A,223475,223475,221846,222758,221846,223924,223275,223275,223924,21
21,test,1,inc,1,m,Thu Jan 22 2026 09:04:58 GMT-0600 (Central Standard Time),229198.29999995232,hate,1100,I,m,m,None,818,618.0,200.0,72,1,2460.7999999523163,226737.5,8093,step,AF,A,225757,225757,223930,225041,223930,226390,225557,225557,226390,22
22,test,1,inc,1,m,Thu Jan 22 2026 09:04:58 GMT-0600 (Central Standard Time),231630.70000004768,hate,1100,I,m,m,None,799,599.0,200.0,88,1,2428.2000000476837,229202.5,8093,bell,AF,A,228223,228223,226395,227507,226395,228823,228023,228023,228823,23
23,test,1,con,1,z,Thu Jan 22 2026 09:04:58 GMT-0600 (Central Standard Time),233930.10000002384,temper,1000,I,z,z,None,753,554.0,199.0,59,1,2295.399999976158,231634.70000004768,8093,temper,AF,A,230556,230556,228827,229839,228827,231122,230356,230356,231122,24
24,test,1,inc,1,m,Thu Jan 22 2026 09:04:58 GMT-0600 (Central Standard Time),236046.20000004768,kind,900,I,m,m,None,676,475.0,201.0,86,1,2112.5,233933.70000004768,8093,bell,AF,A,232756,232756,231126,232039,231126,233238,232555,232555,233238,25
25,test,1,inc,1,m,Thu Jan 22 2026 09:04:58 GMT-0600 (Central Standard Time),238395.39999997616,friend,1100,I,m,m,None,703,503.0,200.0,128,1,2345.1999999284744,236050.20000004768,8093,window,AF,A,235071,235071,233242,234355,233243,235588,234871,234871,235587,26
26,test,1,inc,1,z,Thu Jan 22 2026 09:04:58 GMT-0600 (Central Standard Time),240594.70000004768,napkin,900,I,z,z,None,753,553.0,200.0,6,1,2195.0,238399.70000004768,8093,elated,AF,A,237221,237221,235592,236504,235592,237787,237020,237020,237787,27
27,test,1,inc,1,m,Thu Jan 22 2026 09:04:58 GMT-0600 (Central Standard Time),242743.70000004768,kind,900,I,m,m,None,714,514.0,200.0,94,1,2145.0,240598.70000004768,8093,film,AF,A,239420,239420,237791,238703,237791,239936,239220,239220,239936,28
28,test,1,inc,1,z,Thu Jan 22 2026 09:04:58 GMT-0600 (Central Standard Time),244876.70000004768,napkin,900,I,z,z,None,693,493.0,200.0,38,1,2129.3000000715256,242747.39999997616,8093,brutal,AF,A,241569,241569,239939,240853,239940,242069,241369,241369,242069,29
29,test,1,con,1,m,Thu Jan 22 2026 09:04:58 GMT-0600 (Central Standard Time),247125.89999997616,window,1100,I,m,m,None,615,416.0,199.0,124,1,2244.600000023842,244881.29999995232,8093,window,AF,A,243902,243902,242073,243185,242074,244318,243702,243702,244318,30
30,test,1,con,1,z,Thu Jan 22 2026 09:04:58 GMT-0600 (Central Standard Time),249225.29999995232,brutal,900,I,z,z,None,656,456.0,200.0,34,1,2095.7999999523163,247129.5,8093,brutal,AF,A,245951,245951,244322,245235,244322,246417,245751,245751,246417,31
31,test,1,con,1,m,Thu Jan 22 2026 09:04:58 GMT-0600 (Central Standard Time),251541.20000004768,step,1100,I,m,m,None,667,467.0,200.0,68,1,2311.7000000476837,249229.5,8093,step,AF,A,248251,248251,246422,247534,246422,248733,248050,248050,248733,32
32,test,1,con,1,z,Thu Jan 22 2026 09:04:58 GMT-0600 (Central Standard Time),253557.10000002384,love,800,I,z,z,None,667,467.0,200.0,17,1,2012.2000000476837,251544.89999997616,8093,love,AF,A,250266,250266,248737,249550,248737,250749,250066,250066,250749,33
33,test,1,con,1,m,Thu Jan 22 2026 09:04:58 GMT-0600 (Central Standard Time),255523.39999997616,napkin,800,I,m,m,None,643,444.0,199.0,105,1,1962.6999999284744,253560.70000004768,8093,napkin,AF,A,252266,252266,250753,251566,250753,252715,252067,252067,252715,34
34,test,1,inc,1,m,Thu Jan 22 2026 09:04:58 GMT-0600 (Central Standard Time),257506.10000002384,elated,800,I,m,m,None,637,438.0,199.0,117,1,1979.2000000476837,255526.89999997616,8093,remote,AF,A,254248,254248,252719,253532,252719,254698,254049,254049,254698,35
35,test,1,inc,1,m,Thu Jan 22 2026 09:04:58 GMT-0600 (Central Standard Time),259771.79999995232,friend,1100,I,m,m,None,619,419.0,200.0,120,1,2262.0999999046326,257509.70000004768,8093,remote,AF,A,256531,256531,254702,255815,254702,256964,256331,256331,256964,36
36,test,1,inc,1,m,Thu Jan 22 2026 09:04:58 GMT-0600 (Central Standard Time),261788.10000002384,elated,800,I,m,m,None,677,477.0,200.0,125,1,2012.3000000715256,259775.79999995232,8093,window,AF,A,258497,258497,256968,257781,256968,258980,258297,258297,258980,37
37,test,1,inc,1,m,Thu Jan 22 2026 09:04:58 GMT-0600 (Central Standard Time),263904.0,temper,1000,I,m,m,None,581,381.0,200.0,103,1,2112.399999976158,261791.60000002384,8093,jacket,AF,A,260713,260713,258984,259997,258984,261096,260513,260513,261096,38
38,test,1,con,1,z,Thu Jan 22 2026 09:04:58 GMT-0600 (Central Standard Time),265970.0,temper,800,I,z,z,None,721,521.0,200.0,57,1,2062.2000000476837,263907.7999999523,8093,temper,AF,A,262629,262629,261100,261912,261100,263162,262429,262429,263162,39
39,test,1,con,1,m,Thu Jan 22 2026 09:04:58 GMT-0600 (Central Standard Time),267986.0,film,800,I,m,m,None,679,479.0,200.0,89,1,2011.8999999761581,265974.10000002384,8093,film,AF,A,264695,264695,263166,263979,263166,265178,264495,264495,265178,40
39,test,1,inc,0,z,Thu Jan 22 2026 09:04:58 GMT-0600 (Central Standard Time),269968.5,jacket,800,I,m,m,None,638,438.0,200.0,29,1,1978.7999999523163,267989.7000000477,8093,friend,AF,A,266711,266711,265182,265995,265182,267161,266511,266511,267161,41
40,test,1,con,1,m,Thu Jan 22 2026 09:04:58 GMT-0600 (Central Standard Time),272101.2000000477,film,1000,I,m,m,None,591,392.0,199.0,91,1,2128.8000000715256,269972.39999997616,8093,film,AF,A,268894,268894,267164,268177,267165,269293,268694,268694,269293,42
41,test,1,con,1,m,Thu Jan 22 2026 09:04:58 GMT-0600 (Central Standard Time),273884.2000000477,step,800,I,m,m,None,442,243.0,199.0,65,1,1779.2000000476837,272105.0,8093,step,AF,A,270827,270827,269297,270110,269297,271076,270627,270627,271076,43
42,test,1,con,1,m,Thu Jan 22 2026 09:04:58 GMT-0600 (Central Standard Time),275750.5,remote,800,I,m,m,None,517,317.0,200.0,113,1,1862.6000000238419,273887.89999997616,8093,remote,AF,A,272610,272610,271080,271893,271080,272943,272409,272409,272943,44
43,test,1,inc,1,z,Thu Jan 22 2026 09:04:58 GMT-0600 (Central Standard Time),277866.39999997616,napkin,900,I,z,z,None,680,480.0,200.0,62,1,2110.600000023842,275755.7999999523,8093,temper,AF,A,274575,274575,272948,273859,272948,275058,274375,274375,275058,45
44,test,1,inc,1,z,Thu Jan 22 2026 09:04:58 GMT-0600 (Central Standard Time),279982.2999999523,bell,1000,I,z,z,None,575,375.0,200.0,55,1,2112.2999999523163,277870.0,8093,rage,AF,A,276791,276791,275062,276075,275062,277174,276591,276591,277174,46
45,test,1,con,1,z,Thu Jan 22 2026 09:04:58 GMT-0600 (Central Standard Time),282264.89999997616,friend,1100,I,z,z,None,648,448.0,200.0,28,1,2278.600000023842,279986.2999999523,8093,friend,AF,A,279007,279007,277178,278291,277179,279457,278807,278807,279457,47
46,test,1,inc,1,z,Thu Jan 22 2026 09:04:58 GMT-0600 (Central Standard Time),284247.39999997616,step,800,I,z,z,None,640,440.0,200.0,21,1,1978.7999999523163,282268.60000002384,8093,love,AF,A,280990,280990,279461,280274,279461,281439,280790,280790,281439,48
47,test,1,inc,1,m,Thu Jan 22 2026 09:04:58 GMT-0600 (Central Standard Time),286380.5,temper,1000,I,m,m,None,592,393.0,199.0,127,1,2129.399999976158,284251.10000002384,8093,window,AF,A,283173,283173,281443,282456,281443,283573,282973,282973,283572,49
48,test,1,inc,1,z,Thu Jan 22 2026 09:04:58 GMT-0600 (Central Standard Time),288446.10000002384,rock,900,I,z,z,None,616,313.0,303.0,46,1,2061.899999976158,286384.2000000477,8093,hate,AF,A,285309,285309,283576,284489,283576,285638,285005,285005,285638,50
49,test,1,con,1,m,Thu Jan 22 2026 09:04:58 GMT-0600 (Central Standard Time),290562.39999997616,window,900,I,m,m,None,678,479.0,199.0,122,1,2112.600000023842,288449.7999999523,8093,window,AF,A,287271,287271,285642,286555,285642,287755,287072,287072,287754,51
50,test,1,inc,1,z,Thu Jan 22 2026 09:04:58 GMT-0600 (Central Standard Time),292844.89999997616,film,1100,I,z,z,None,634,434.0,200.0,48,1,2278.600000023842,290566.2999999523,8093,hate,AF,A,289588,289588,287758,288871,287759,290037,289387,289387,290037,52
51,test,1,inc,1,m,Thu Jan 22 2026 09:04:58 GMT-0600 (Central Standard Time),294961.10000002384,kind,900,I,m,m,None,672,472.0,200.0,70,1,2112.5,292848.60000002384,8093,step,AF,A,291670,291670,290041,290954,290041,292153,291470,291470,292153,53
51,test,1,con,0,z,Thu Jan 22 2026 09:04:58 GMT-0600 (Central Standard Time),296860.2000000477,elated,900,I,m,m,None,452,252.0,200.0,2,1,1895.4000000953674,294964.7999999523,8093,elated,AF,A,293786,293786,292157,293070,292157,294052,293586,293586,294052,54
52,test,1,con,1,m,Thu Jan 22 2026 09:04:58 GMT-0600 (Central Standard Time),298992.7999999523,jacket,900,I,m,m,None,688,488.0,200.0,98,1,2128.5999999046326,296864.2000000477,8093,jacket,AF,A,295686,295686,294056,294969,294056,296185,295485,295485,296185,55
53,test,1,con,1,z,Thu Jan 22 2026 09:04:58 GMT-0600 (Central Standard Time),301042.39999997616,brutal,800,I,z,z,None,712,512.0,200.0,33,1,2045.6999999284744,298996.7000000477,8093,brutal,AF,A,297718,297718,296189,297002,296189,298235,297518,297518,298234,56
54,test,1,con,1,z,Thu Jan 22 2026 09:04:58 GMT-0600 (Central Standard Time),303275.10000002384,friend,800,I,z,z,None,886,686.0,200.0,25,1,2228.7000000476837,301046.39999997616,8093,friend,AF,A,299768,299768,298238,299051,298239,300467,299567,299568,300467,57
55,test,1,inc,1,m,Thu Jan 22 2026 09:04:58 GMT-0600 (Central Standard Time),305507.60000002384,love,1000,I,m,m,None,686,486.0,200.0,95,1,2228.899999976158,303278.7000000477,8093,film,AF,A,302200,302200,300471,301483,300471,302700,302000,302000,302700,58
56,test,1,inc,1,m,Thu Jan 22 2026 09:04:58 GMT-0600 (Central Standard Time),307590.2999999523,elated,800,I,m,m,None,741,541.0,200.0,101,1,2078.6999999284744,305511.60000002384,8093,jacket,AF,A,304233,304233,302704,303516,302704,304782,304033,304033,304782,59
57,test,1,inc,1,z,Thu Jan 22 2026 09:04:58 GMT-0600 (Central Standard Time),309773.0,remote,1000,I,z,z,None,635,435.0,200.0,31,1,2179.0,307594.0,8093,friend,AF,A,306515,306515,304786,305799,304786,306965,306315,306315,306965,60
58,test,1,con,1,m,Thu Jan 22 2026 09:04:58 GMT-0600 (Central Standard Time),311972.2999999523,remote,1000,I,m,m,None,660,457.0,203.0,115,1,2195.2999999523163,309777.0,8093,remote,AF,A,308701,308701,306969,307982,306969,309164,308498,308498,309164,61
59,test,1,con,1,z,Thu Jan 22 2026 09:04:58 GMT-0600 (Central Standard Time),314021.5,rage,800,I,z,z,None,709,509.0,200.0,49,1,2045.0,311976.5,8093,rage,AF,A,310697,310697,309169,309981,309169,311214,310497,310497,311214,62
60,test,1,inc,1,z,Thu Jan 22 2026 09:04:58 GMT-0600 (Central Standard Time),316237.60000002384,remote,1000,I,z,z,None,666,467.0,199.0,63,1,2212.100000023842,314025.5,8093,temper,AF,A,312947,312947,311218,312230,311218,313430,312747,312747,313430,63
61,test,1,con,1,m,Thu Jan 22 2026 09:04:58 GMT-0600 (Central Standard Time),318270.2999999523,rock,900,I,m,m,None,598,399.0,199.0,74,1,2029.0,316241.2999999523,8093,rock,AF,A,315063,315063,313433,314346,313434,315462,314863,314863,315462,64
62,test,1,inc,1,m,Thu Jan 22 2026 09:04:58 GMT-0600 (Central Standard Time),320653.0,kind,900,I,m,m,None,935,735.0,200.0,78,1,2379.100000023842,318273.89999997616,8093,rock,AF,A,317095,317095,315466,316379,315466,317845,316895,316895,317845,65
63,test,1,con,1,m,Thu Jan 22 2026 09:04:58 GMT-0600 (Central Standard Time),322435.60000002384,rock,800,I,m,m,None,444,244.0,200.0,73,1,1778.8000000715256,320656.7999999523,8093,rock,AF,A,319378,319378,317849,318662,317849,319628,319178,319178,319628,66
64,test,1,inc,1,z,Thu Jan 22 2026 09:04:58 GMT-0600 (Central Standard Time),324451.7999999523,step,800,I,z,z,None,677,477.0,200.0,13,1,2012.1999999284744,322439.60000002384,8093,kind,AF,A,321161,321161,319632,320444,319632,321644,320961,320961,321644,67
65,test,1,inc,1,m,Thu Jan 22 2026 09:04:58 GMT-0600 (Central Standard Time),326467.89999997616,brutal,900,I,m,m,None,568,369.0,199.0,110,1,2012.3999999761581,324455.5,8093,napkin,AF,A,323277,323277,321648,322560,321648,323660,323077,323077,323660,68
66,test,1,inc,1,z,Thu Jan 22 2026 09:04:58 GMT-0600 (Central Standard Time),328417.2000000477,step,800,I,z,z,None,605,405.0,200.0,53,1,1945.6000000238419,326471.60000002384,8093,rage,AF,A,325193,325193,323664,324476,323664,325609,324993,324993,325609,69
67,test,1,con,1,z,Thu Jan 22 2026 09:04:58 GMT-0600 (Central Standard Time),330499.7999999523,elated,800,I,z,z,None,736,536.0,200.0,1,1,2079.0999999046326,328420.7000000477,8093,elated,AF,A,327142,327142,325613,326426,325613,327692,326942,326942,327692,70
68,test,1,inc,1,z,Thu Jan 22 2026 09:04:58 GMT-0600 (Central Standard Time),332399.10000002384,jacket,800,I,z,z,None,557,357.0,200.0,5,1,1895.5,330503.60000002384,8093,elated,AF,A,329225,329225,327696,328509,327696,329591,329025,329025,329591,71
69,test,1,inc,1,z,Thu Jan 22 2026 09:04:58 GMT-0600 (Central Standard Time),334599.7000000477,film,1100,I,z,z,None,558,358.0,200.0,24,1,2196.9000000953674,332402.7999999523,8093,love,AF,A,331424,331424,329595,330708,329595,331792,331224,331224,331792,72
70,test,1,con,1,m,Thu Jan 22 2026 09:04:58 GMT-0600 (Central Standard Time),336664.60000002384,bell,900,I,m,m,None,629,430.0,199.0,82,1,2060.899999976158,334603.7000000477,8093,bell,AF,A,333424,333424,331796,332707,331796,333857,333224,333224,333857,73
71,test,1,con,1,m,Thu Jan 22 2026 09:04:58 GMT-0600 (Central Standard Time),338780.60000002384,bell,1000,I,m,m,None,567,368.0,199.0,83,1,2112.399999976158,336668.2000000477,8093,bell,AF,A,335590,335590,333860,334873,333861,335973,335390,335390,335973,74
72,test,1,inc,1,m,Thu Jan 22 2026 09:04:58 GMT-0600 (Central Standard Time),340946.60000002384,love,1000,I,m,m,None,628,428.0,200.0,71,1,2161.8000000715256,338784.7999999523,8093,step,AF,A,337706,337706,335977,336989,335977,338139,337505,337505,338139,75
73,test,1,inc,1,m,Thu Jan 22 2026 09:04:58 GMT-0600 (Central Standard Time),343062.60000002384,brutal,900,I,m,m,None,665,466.0,199.0,126,1,2112.2000000476837,340950.39999997616,8093,window,AF,A,339772,339772,338142,339055,338143,340255,339572,339572,340255,76
74,test,1,inc,1,z,Thu Jan 22 2026 09:04:58 GMT-0600 (Central Standard Time),345295.0,film,1100,I,z,z,None,597,398.0,199.0,56,1,2228.600000023842,343066.39999997616,8093,rage,AF,A,342088,342088,340258,341371,340259,342487,341888,341888,342487,77
75,test,1,con,1,m,Thu Jan 22 2026 09:04:58 GMT-0600 (Central Standard Time),347577.7000000477,window,1000,I,m,m,None,738,538.0,200.0,123,1,2279.100000023842,345298.60000002384,8093,window,AF,A,344220,344220,342491,343504,342491,344770,344020,344020,344770,78
76,test,1,con,1,m,Thu Jan 22 2026 09:04:58 GMT-0600 (Central Standard Time),349694.2000000477,bell,800,I,m,m,None,776,576.0,200.0,81,1,2112.7000000476837,347581.5,8093,bell,AF,A,346303,346303,344774,345586,344774,346886,346103,346103,346886,79
77,test,1,inc,1,m,Thu Jan 22 2026 09:04:58 GMT-0600 (Central Standard Time),351909.7000000477,hate,1100,I,m,m,None,575,375.0,200.0,96,1,2211.7000000476837,349698.0,8093,film,AF,A,348719,348719,346890,348002,346890,349102,348519,348519,349102,80
77,test,1,con,0,z,Thu Jan 22 2026 09:04:58 GMT-0600 (Central Standard Time),353942.39999997616,friend,1000,I,m,m,None,491,291.0,200.0,27,1,2029.0,351913.39999997616,8093,friend,AF,A,350835,350835,349105,350118,349106,351135,350635,350635,351134,81
78,test,1,con,1,z,Thu Jan 22 2026 09:04:58 GMT-0600 (Central Standard Time),356091.89999997616,rage,1000,I,z,z,None,610,411.0,199.0,51,1,2145.7999999523163,353946.10000002384,8093,rage,AF,A,352867,352867,351138,352151,351138,353284,352668,352668,353284,82
79,test,1,inc,1,z,Thu Jan 22 2026 09:04:58 GMT-0600 (Central Standard Time),358407.89999997616,window,1100,I,z,z,None,680,481.0,199.0,32,1,2312.1999999284744,356095.7000000477,8093,friend,AF,A,355117,355117,353288,354400,353288,355600,354917,354917,355600,83
80,test,1,inc,1,z,Thu Jan 22 2026 09:04:58 GMT-0600 (Central Standard Time),360673.7999999523,remote,1000,I,z,z,None,721,521.0,200.0,7,1,2262.0,358411.7999999523,8093,elated,AF,A,357333,357333,355604,356616,355604,357866,357133,357133,357866,84
81,test,1,inc,1,m,Thu Jan 22 2026 09:04:58 GMT-0600 (Central Standard Time),363022.7000000477,friend,1100,I,m,m,None,714,515.0,199.0,104,1,2344.600000023842,360678.10000002384,8093,jacket,AF,A,359699,359699,357870,358982,357870,360215,359499,359499,360215,85
82,test,1,inc,1,z,Thu Jan 22 2026 09:04:58 GMT-0600 (Central Standard Time),364955.60000002384,step,800,I,z,z,None,586,386.0,200.0,45,1,1929.3999999761581,363026.2000000477,8093,hate,AF,A,361748,361748,360218,361032,360218,362148,361548,361548,362148,86
83,test,1,con,1,z,Thu Jan 22 2026 09:04:58 GMT-0600 (Central Standard Time),366905.0,hate,900,I,z,z,None,505,304.0,201.0,42,1,1945.7999999523163,364959.2000000477,8093,hate,AF,A,363782,363782,362151,363064,362152,364097,363581,363581,364097,87
84,test,1,inc,1,m,Thu Jan 22 2026 09:04:58 GMT-0600 (Central Standard Time),368887.7999999523,elated,800,I,m,m,None,640,440.0,200.0,109,1,1978.6999999284744,366909.10000002384,8093,napkin,AF,A,365630,365630,364101,364914,364101,366080,365430,365430,366080,88
85,test,1,con,1,m,Thu Jan 22 2026 09:04:58 GMT-0600 (Central Standard Time),371487.39999997616,rock,1000,I,m,m,None,1065,865.0,200.0,75,1,2595.899999976158,368891.5,8093,rock,AF,A,367813,367813,366084,367096,366084,368679,367613,367613,368679,89
86,test,1,con,1,z,Thu Jan 22 2026 09:04:58 GMT-0600 (Central Standard Time),373586.39999997616,rage,900,I,z,z,None,654,454.0,200.0,50,1,2095.2999999523163,371491.10000002384,8093,rage,AF,A,370312,370312,368683,369596,368683,370778,370112,370112,370778,90
87,test,1,con,1,m,Thu Jan 22 2026 09:04:58 GMT-0600 (Central Standard Time),376035.60000002384,film,1100,I,m,m,None,802,603.0,199.0,92,1,2445.600000023842,373590.0,8093,film,AF,A,372611,372611,370782,371895,370782,373228,372412,372412,373228,91
88,test,1,inc,1,z,Thu Jan 22 2026 09:04:58 GMT-0600 (Central Standard Time),378184.7999999523,bell,1000,I,z,z,None,604,405.0,199.0,23,1,2145.5,376039.2999999523,8093,love,AF,A,374961,374961,373231,374244,373232,375377,374761,374761,375377,92
89,test,1,con,1,z,Thu Jan 22 2026 09:04:58 GMT-0600 (Central Standard Time),380467.7000000477,temper,1100,I,z,z,None,644,444.0,200.0,60,1,2279.100000023842,378188.60000002384,8093,temper,AF,A,377210,377210,375381,376494,375381,377660,377010,377010,377660,93
90,test,1,inc,1,z,Thu Jan 22 2026 09:04:58 GMT-0600 (Central Standard Time),382700.39999997616,napkin,900,I,z,z,None,784,585.0,199.0,30,1,2229.1999999284744,380471.2000000477,8093,friend,AF,A,379293,379293,377663,378576,377664,379892,379093,379093,379892,94
91,test,1,con,1,m,Thu Jan 22 2026 09:04:58 GMT-0600 (Central Standard Time),384716.2999999523,window,800,I,m,m,None,677,477.0,200.0,121,1,2012.2999999523163,382704.0,8093,window,AF,A,381425,381425,379896,380709,379896,381908,381225,381225,381908,95
92,test,1,con,1,m,Thu Jan 22 2026 09:04:58 GMT-0600 (Central Standard Time),387015.39999997616,rock,1100,I,m,m,None,657,457.0,200.0,76,1,2295.0,384720.39999997616,8093,rock,AF,A,383741,383741,381912,383025,381913,384207,383541,383541,384207,96
93,test,1,con,1,z,Thu Jan 22 2026 09:04:58 GMT-0600 (Central Standard Time),389614.5,kind,1000,I,z,z,None,1066,866.0,200.0,11,1,2595.2000000476837,387019.2999999523,8093,kind,AF,A,385940,385940,384211,385224,384212,386807,385740,385740,386807,97
94,test,1,con,1,m,Thu Jan 22 2026 09:04:58 GMT-0600 (Central Standard Time),391897.39999997616,napkin,1000,I,m,m,None,737,538.0,199.0,107,1,2279.1999999284744,389618.2000000477,8093,napkin,AF,A,388540,388540,386810,387823,386810,389089,388340,388340,389089,98
95,test,1,inc,1,z,Thu Jan 22 2026 09:04:58 GMT-0600 (Central Standard Time),394113.2999999523,rock,900,I,z,z,None,772,571.0,201.0,14,1,2212.399999976158,391900.89999997616,8093,kind,AF,A,390723,390723,389093,390006,389093,391305,390522,390522,391305,99
96,test,1,con,1,z,Thu Jan 22 2026 09:04:58 GMT-0600 (Central Standard Time),396280.2000000477,friend,900,I,z,z,None,733,533.0,200.0,26,1,2163.4000000953674,394116.7999999523,8093,friend,AF,A,392938,392938,391309,392222,391309,393472,392738,392738,393472,100
97,test,1,inc,1,z,Thu Jan 22 2026 09:04:58 GMT-0600 (Central Standard Time),398528.7000000477,remote,1000,I,z,z,None,714,514.0,200.0,39,1,2244.600000023842,396284.10000002384,8093,brutal,AF,A,395204,395204,393476,394488,393476,395721,395004,395004,395721,101
98,test,1,inc,1,m,Thu Jan 22 2026 09:04:58 GMT-0600 (Central Standard Time),400610.89999997616,rage,800,I,m,m,None,735,536.0,199.0,69,1,2078.6999999284744,398532.2000000477,8093,step,AF,A,397254,397254,395724,396537,395724,397803,397054,397054,397803,102
99,test,1,con,1,z,Thu Jan 22 2026 09:04:58 GMT-0600 (Central Standard Time),402710.60000002384,kind,900,I,z,z,None,658,458.0,200.0,10,1,2095.899999976158,400614.7000000477,8093,kind,AF,A,399436,399436,397807,398720,397807,399903,399236,399236,399903,103
100,test,1,inc,1,z,Thu Jan 22 2026 09:04:58 GMT-0600 (Central Standard Time),404726.7000000477,jacket,800,I,z,z,None,682,483.0,199.0,37,1,2012.5,402714.2000000477,8093,brutal,AF,A,401436,401436,399906,400719,399906,401919,401236,401236,401919,104
101,test,1,con,1,m,Thu Jan 22 2026 09:04:58 GMT-0600 (Central Standard Time),406959.39999997616,jacket,1100,I,m,m,None,589,390.0,199.0,100,1,2229.100000023842,404730.2999999523,8093,jacket,AF,A,403752,403752,401922,403039,401922,404152,403552,403552,404151,105
102,test,1,con,1,z,Thu Jan 22 2026 09:04:58 GMT-0600 (Central Standard Time),409158.60000002384,love,1000,I,z,z,None,658,458.0,200.0,19,1,2195.5,406963.10000002384,8093,love,AF,A,405884,405884,404155,405168,404155,406351,405684,405684,406351,106
103,test,1,con,1,z,Thu Jan 22 2026 09:04:58 GMT-0600 (Central Standard Time),411091.2000000477,love,900,I,z,z,None,493,294.0,199.0,18,1,1928.8000000715256,409162.39999997616,8093,love,AF,A,407984,407984,406354,407267,406355,408283,407784,407784,408283,107
104,test,1,inc,1,z,Thu Jan 22 2026 09:04:58 GMT-0600 (Central Standard Time),413440.60000002384,bell,1000,I,z,z,None,814,614.0,200.0,15,1,2345.3000000715256,411095.2999999523,8093,kind,AF,A,410016,410016,408287,409300,408288,410633,409816,409816,410633,108
105,test,1,con,1,m,Thu Jan 22 2026 09:04:58 GMT-0600 (Central Standard Time),415806.2999999523,bell,1100,I,m,m,None,723,524.0,199.0,84,1,2361.899999976158,413444.39999997616,8093,bell,AF,A,412466,412466,410636,411750,410637,412998,412266,412266,412998,109
106,test,1,inc,1,z,Thu Jan 22 2026 09:04:58 GMT-0600 (Central Standard Time),418005.7999999523,rock,900,I,z,z,None,766,565.0,201.0,54,1,2195.6999999284744,415810.10000002384,8093,rage,AF,A,414633,414633,413002,413915,413002,415198,414431,414431,415198,110
107,test,1,inc,1,m,Thu Jan 22 2026 09:04:58 GMT-0600 (Central Standard Time),420405.10000002384,love,1000,I,m,m,None,851,651.0,200.0,87,1,2395.399999976158,418009.7000000477,8093,bell,AF,A,416931,416931,415202,416214,415202,417597,416731,416731,417597,111
108,test,1,con,1,z,Thu Jan 22 2026 09:04:58 GMT-0600 (Central Standard Time),422854.10000002384,brutal,1100,I,z,z,None,800,600.0,200.0,36,1,2445.399999976158,420408.7000000477,8093,brutal,AF,A,419430,419430,417601,418713,417601,420046,419230,419230,420046,112
109,test,1,con,1,z,Thu Jan 22 2026 09:04:58 GMT-0600 (Central Standard Time),425436.60000002384,elated,1100,I,z,z,None,943,743.0,200.0,4,1,2578.899999976158,422857.7000000477,8093,elated,AF,A,421879,421879,420050,421163,420050,422629,421679,421679,422629,113
110,test,1,con,1,m,Thu Jan 22 2026 09:04:58 GMT-0600 (Central Standard Time),427486.2000000477,step,1000,I,m,m,None,508,308.0,200.0,67,1,2046.0,425440.2000000477,8093,step,AF,A,424362,424362,422632,423645,422633,424678,424162,424162,424678,114
111,test,1,con,1,m,Thu Jan 22 2026 09:04:58 GMT-0600 (Central Standard Time),429754.2000000477,step,900,I,m,m,None,820,620.0,200.0,66,1,2263.8000000715256,427490.39999997616,8093,step,AF,A,426311,426311,424682,425595,424683,426946,426111,426111,426946,115
112,test,1,con,1,z,Thu Jan 22 2026 09:04:58 GMT-0600 (Central Standard Time),431951.2999999523,rage,1100,I,z,z,None,557,357.0,200.0,52,1,2191.0999999046326,429760.2000000477,8093,rage,AF,A,428777,428777,426952,428061,426953,429143,428577,428577,429143,116
113,test,1,con,1,z,Thu Jan 22 2026 09:04:58 GMT-0600 (Central Standard Time),434200.60000002384,brutal,1000,I,z,z,None,714,514.0,200.0,35,1,2245.5,431955.10000002384,8093,brutal,AF,A,430877,430877,429147,430160,429147,431393,430676,430676,431393,117
114,test,1,con,1,z,Thu Jan 22 2026 09:04:58 GMT-0600 (Central Standard Time),436200.10000002384,hate,800,I,z,z,None,664,464.0,200.0,41,1,1995.6000000238419,434204.5,8093,hate,AF,A,432926,432926,431397,432210,431397,433392,432726,432726,433392,118
115,test,1,con,1,m,Thu Jan 22 2026 09:04:58 GMT-0600 (Central Standard Time),438133.0,jacket,800,I,m,m,None,585,385.0,200.0,97,1,1929.2000000476837,436203.7999999523,8093,jacket,AF,A,434925,434925,433396,434209,433396,435325,434725,434725,435325,119
116,test,1,con,1,z,Thu Jan 22 2026 09:04:58 GMT-0600 (Central Standard Time),440098.7999999523,elated,1000,I,z,z,None,420,220.0,200.0,3,1,1961.5999999046326,438137.2000000477,8093,elated,AF,A,437058,437058,435329,436342,435329,437291,436858,436858,437291,120
117,test,1,inc,1,z,Thu Jan 22 2026 09:04:58 GMT-0600 (Central Standard Time),442481.5,window,1100,I,z,z,None,738,537.0,201.0,40,1,2379.100000023842,440102.39999997616,8093,brutal,AF,A,439125,439125,437294,438408,437295,439674,438924,438924,439674,121
117,test,1,con,0,m,Thu Jan 22 2026 09:04:58 GMT-0600 (Central Standard Time),444581.0,film,900,I,z,z,None,651,452.0,199.0,90,1,2096.0,442485.0,8093,film,AF,A,441306,441306,439677,440591,439677,441773,441107,441107,441773,122
118,test,1,con,1,z,Thu Jan 22 2026 09:04:58 GMT-0600 (Central Standard Time),446880.2999999523,kind,1100,I,z,z,None,656,456.0,200.0,12,1,2295.5999999046326,444584.7000000477,8093,kind,AF,A,443606,443606,441777,442889,441777,444072,443406,443406,444072,123
119,test,1,inc,1,z,Thu Jan 22 2026 09:04:58 GMT-0600 (Central Standard Time),448879.2999999523,jacket,800,I,z,z,None,665,465.0,200.0,61,1,1995.5,446883.7999999523,8093,temper,AF,A,445605,445605,444076,444889,444076,446071,445405,445405,446071,124
120,test,1,con,1,m,Thu Jan 22 2026 09:04:58 GMT-0600 (Central Standard Time),451062.2000000477,jacket,1000,I,m,m,None,632,433.0,199.0,99,1,2179.3000000715256,448882.89999997616,8093,jacket,AF,A,447805,447805,446075,447088,446075,448254,447605,447605,448254,125
121,test,1,inc,1,m,Thu Jan 22 2026 09:04:58 GMT-0600 (Central Standard Time),453356.39999997616,brutal,900,I,m,m,None,861,661.0,200.0,102,1,2290.600000023842,451065.7999999523,8093,jacket,AF,A,449887,449887,448258,449171,448258,450548,449687,449687,450548,126
122,test,1,inc,1,m,Thu Jan 22 2026 09:04:58 GMT-0600 (Central Standard Time),455577.2999999523,temper,1000,I,m,m,None,687,488.0,199.0,119,1,2217.2999999523163,453360.0,8093,remote,AF,A,452270,452270,450552,451553,450552,452769,452070,452070,452769,127
123,test,1,inc,1,z,Thu Jan 22 2026 09:04:58 GMT-0600 (Central Standard Time),457859.89999997616,window,1100,I,z,z,None,643,444.0,199.0,8,1,2278.7999999523163,455581.10000002384,8093,elated,AF,A,454602,454602,452773,453886,452773,455052,454403,454403,455052,128
