acc_sum,block,block_c,change,condition,correct,correct_response,datetime,endtime,face,project,response,response_time,row_sel,session_number,start_end,starttime,subject_id,task,task_vers,trial
0,prac,1,,1-Back,,,Thu Oct 16 2025 17:06:55 GMT-0500 (Central Daylight Time),,012_o_f_d_a.png,O,space,1512,1,1,,,7205,VNB,C,0
1,prac,1,0.0,1-Back,1.0,m,Thu Oct 16 2025 17:06:55 GMT-0500 (Central Daylight Time),255806.7000000002,022_y_f_n_a.png,O,m,1767,2,1,2617.7000000001863,253189.0,7205,VNB,C,1
1,prac,1,0.0,1-Back,0.0,m,Thu Oct 16 2025 17:06:55 GMT-0500 (Central Daylight Time),258672.1000000001,014_m_m_h_a.png,O,None,2016,3,1,2851.399999999907,255820.7000000002,7205,VNB,C,2
2,prac,1,0.0,1-Back,1.0,m,Thu Oct 16 2025 17:06:55 GMT-0500 (Central Daylight Time),259523.30000000028,025_y_m_d_a.png,O,m,18,4,1,840.8000000002794,258682.5,7205,VNB,C,3
3,prac,1,0.0,1-Back,1.0,m,Thu Oct 16 2025 17:06:55 GMT-0500 (Central Daylight Time),261871.80000000028,012_o_f_n_a.png,O,m,1469,5,1,2338.600000000093,259533.2000000002,7205,VNB,C,4
4,prac,1,1.0,1-Back,1.0,z,Thu Oct 16 2025 17:06:55 GMT-0500 (Central Daylight Time),264489.1000000001,025_y_m_n_a.png,O,z,1784,6,1,2607.2999999998137,261881.80000000028,7205,VNB,C,5
4,prac,1,0.0,1-Back,0.0,m,Thu Oct 16 2025 17:06:55 GMT-0500 (Central Daylight Time),267368.8999999999,015_o_m_h_a.png,O,None,2008,7,1,2868.899999999907,264500.0,7205,VNB,C,6
5,prac,1,0.0,1-Back,1.0,m,Thu Oct 16 2025 17:06:55 GMT-0500 (Central Daylight Time),269636.0,019_m_f_d_a.png,O,m,1390,8,1,2257.6999999997206,267378.3000000003,7205,VNB,C,7
5,prac,1,1.0,1-Back,0.0,z,Thu Oct 16 2025 17:06:55 GMT-0500 (Central Daylight Time),271284.8000000003,022_y_f_d_a.png,O,m,764,9,1,1632.0,269652.8000000003,7205,VNB,C,8
5,prac,1,0.0,1-Back,0.0,m,Thu Oct 16 2025 17:06:55 GMT-0500 (Central Daylight Time),273917.3999999999,014_m_m_n_a.png,O,z,1772,10,1,2622.899999999907,271294.5,7205,VNB,C,9
6,prac,1,0.0,1-Back,1.0,m,Thu Oct 16 2025 17:06:55 GMT-0500 (Central Daylight Time),276118.7000000002,012_o_f_h_a.png,O,m,1328,11,1,2191.399999999907,273927.3000000003,7205,VNB,C,10
7,prac,1,0.0,1-Back,1.0,m,Thu Oct 16 2025 17:06:55 GMT-0500 (Central Daylight Time),278369.8000000003,025_y_m_d_a.png,O,m,1419,12,1,2240.3000000002794,276129.5,7205,VNB,C,11
0,prac,2,0.0,1-Back,,,Thu Oct 16 2025 17:06:55 GMT-0500 (Central Daylight Time),278369.8000000003,012_o_f_d_a.png,O,a,6024,1,1,2240.3000000002794,276129.5,7205,VNB,C,0
1,prac,2,0.0,1-Back,1.0,m,Thu Oct 16 2025 17:06:55 GMT-0500 (Central Daylight Time),289563.6000000001,022_y_f_n_a.png,O,m,1240,2,1,2104.100000000093,287459.5,7205,VNB,C,1
1,prac,2,0.0,1-Back,0.0,m,Thu Oct 16 2025 17:06:55 GMT-0500 (Central Daylight Time),291662.2000000002,014_m_m_h_a.png,O,z,1246,3,1,2089.3000000002794,289572.8999999999,7205,VNB,C,2
2,prac,2,0.0,1-Back,1.0,m,Thu Oct 16 2025 17:06:55 GMT-0500 (Central Daylight Time),293511.5,025_y_m_d_a.png,O,m,1062,4,1,1838.1999999997206,291673.3000000003,7205,VNB,C,3
3,prac,2,0.0,1-Back,1.0,m,Thu Oct 16 2025 17:06:55 GMT-0500 (Central Daylight Time),295976.8000000003,012_o_f_n_a.png,O,m,1591,5,1,2450.2000000001863,293526.6000000001,7205,VNB,C,4
3,prac,2,1.0,1-Back,0.0,z,Thu Oct 16 2025 17:06:55 GMT-0500 (Central Daylight Time),297960.8999999999,025_y_m_n_a.png,O,m,1146,6,1,1964.8999999999069,295996.0,7205,VNB,C,5
4,prac,2,0.0,1-Back,1.0,m,Thu Oct 16 2025 17:06:55 GMT-0500 (Central Daylight Time),300008.7000000002,015_o_m_h_a.png,O,m,1176,7,1,2037.3999999999069,297971.3000000003,7205,VNB,C,6
5,prac,2,0.0,1-Back,1.0,m,Thu Oct 16 2025 17:06:55 GMT-0500 (Central Daylight Time),301942.3999999999,019_m_f_d_a.png,O,m,1053,8,1,1924.2999999998137,300018.1000000001,7205,VNB,C,7
6,prac,2,1.0,1-Back,1.0,z,Thu Oct 16 2025 17:06:55 GMT-0500 (Central Daylight Time),304274.7000000002,022_y_f_d_a.png,O,z,1475,9,1,2321.100000000093,301953.6000000001,7205,VNB,C,8
7,prac,2,0.0,1-Back,1.0,m,Thu Oct 16 2025 17:06:55 GMT-0500 (Central Daylight Time),306158.0,014_m_m_n_a.png,O,m,1037,10,1,1876.1999999997206,304281.8000000003,7205,VNB,C,9
7,prac,2,0.0,1-Back,0.0,m,Thu Oct 16 2025 17:06:55 GMT-0500 (Central Daylight Time),308288.6000000001,012_o_f_h_a.png,O,z,1269,11,1,2119.600000000093,306169.0,7205,VNB,C,10
8,prac,2,0.0,1-Back,1.0,m,Thu Oct 16 2025 17:06:55 GMT-0500 (Central Daylight Time),311055.6000000001,025_y_m_d_a.png,O,m,1901,12,1,2758.0,308297.6000000001,7205,VNB,C,11
0,test,1,0.0,1-Back,,,Thu Oct 16 2025 17:06:55 GMT-0500 (Central Daylight Time),311055.6000000001,022_y_f_d_a.png,O,space,1607,1,1,2758.0,308297.6000000001,7205,VNB,C,0
1,test,1,0.0,1-Back,1.0,m,Thu Oct 16 2025 17:06:55 GMT-0500 (Central Daylight Time),335582.3000000003,019_m_f_n_a.png,O,m,1236,2,1,2260.0,333322.3000000003,7205,VNB,C,1
2,test,1,0.0,1-Back,1.0,m,Thu Oct 16 2025 17:06:55 GMT-0500 (Central Daylight Time),337963.6000000001,015_o_m_h_a.png,O,m,1362,3,1,2374.100000000093,335589.5,7205,VNB,C,2
2,test,1,1.0,1-Back,0.0,z,Thu Oct 16 2025 17:06:55 GMT-0500 (Central Daylight Time),339927.6000000001,014_m_m_h_a.png,O,m,937,4,1,1955.5,337972.1000000001,7205,VNB,C,3
3,test,1,0.0,1-Back,1.0,m,Thu Oct 16 2025 17:06:55 GMT-0500 (Central Daylight Time),341845.2000000002,012_o_f_n_a.png,O,m,889,5,1,1910.0,339935.2000000002,7205,VNB,C,4
4,test,1,0.0,1-Back,1.0,m,Thu Oct 16 2025 17:06:55 GMT-0500 (Central Daylight Time),343926.8999999999,025_y_m_d_a.png,O,m,1058,6,1,2078.399999999907,341848.5,7205,VNB,C,5
4,test,1,1.0,1-Back,0.0,z,Thu Oct 16 2025 17:06:55 GMT-0500 (Central Daylight Time),346960.3999999999,019_m_f_d_a.png,O,None,2015,7,1,3027.6999999997206,343932.7000000002,7205,VNB,C,6
4,test,1,0.0,1-Back,0.0,m,Thu Oct 16 2025 17:06:55 GMT-0500 (Central Daylight Time),348777.8999999999,022_y_f_h_a.png,O,z,801,8,1,1814.5,346963.3999999999,7205,VNB,C,7
5,test,1,0.0,1-Back,1.0,m,Thu Oct 16 2025 17:06:55 GMT-0500 (Central Daylight Time),350709.7000000002,015_o_m_n_a.png,O,m,902,9,1,1922.1000000000931,348787.6000000001,7205,VNB,C,8
5,test,1,0.0,1-Back,0.0,m,Thu Oct 16 2025 17:06:55 GMT-0500 (Central Daylight Time),352409.2000000002,025_y_m_h_a.png,O,z,666,10,1,1693.3999999999069,350715.8000000003,7205,VNB,C,9
6,test,1,0.0,1-Back,1.0,m,Thu Oct 16 2025 17:06:55 GMT-0500 (Central Daylight Time),355091.3000000003,015_o_m_d_a.png,O,m,1655,11,1,2674.8000000002794,352416.5,7205,VNB,C,10
7,test,1,1.0,1-Back,1.0,z,Thu Oct 16 2025 17:06:55 GMT-0500 (Central Daylight Time),357156.8999999999,012_o_f_d_a.png,O,z,1035,12,1,2060.0999999996275,355096.8000000003,7205,VNB,C,11
8,test,1,0.0,1-Back,1.0,m,Thu Oct 16 2025 17:06:55 GMT-0500 (Central Daylight Time),359591.2000000002,014_m_m_n_a.png,O,m,1402,13,1,2430.7000000001863,357160.5,7205,VNB,C,12
9,test,1,1.0,1-Back,1.0,z,Thu Oct 16 2025 17:06:55 GMT-0500 (Central Daylight Time),362155.7000000002,022_y_f_n_a.png,O,z,1546,14,1,2558.8000000002794,359596.8999999999,7205,VNB,C,13
10,test,1,0.0,1-Back,1.0,m,Thu Oct 16 2025 17:06:55 GMT-0500 (Central Daylight Time),364022.0,019_m_f_h_a.png,O,m,835,15,1,1859.0,362163.0,7205,VNB,C,14
11,test,1,0.0,1-Back,1.0,m,Thu Oct 16 2025 17:06:55 GMT-0500 (Central Daylight Time),366854.8999999999,014_m_m_d_a.png,O,m,1811,16,1,2824.6999999997206,364030.2000000002,7205,VNB,C,15
11,test,1,0.0,1-Back,0.0,m,Thu Oct 16 2025 17:06:55 GMT-0500 (Central Daylight Time),369870.6000000001,025_y_m_n_a.png,O,None,2001,17,1,3007.7000000001863,366862.8999999999,7205,VNB,C,16
12,test,1,0.0,1-Back,1.0,m,Thu Oct 16 2025 17:06:55 GMT-0500 (Central Daylight Time),372171.6000000001,012_o_f_h_a.png,O,m,1284,18,1,2289.399999999907,369882.2000000002,7205,VNB,C,17
0,test,2,0.0,1-Back,,,Thu Oct 16 2025 17:06:55 GMT-0500 (Central Daylight Time),372171.6000000001,025_y_m_n_a.png,O,space,1941,1,1,2289.399999999907,369882.2000000002,7205,VNB,C,0
1,test,2,0.0,1-Back,1.0,m,Thu Oct 16 2025 17:06:55 GMT-0500 (Central Daylight Time),378650.1000000001,022_y_f_h_a.png,O,m,1489,2,1,2512.2000000001863,376137.8999999999,7205,VNB,C,1
1,test,2,1.0,1-Back,0.0,m,Thu Oct 16 2025 17:06:55 GMT-0500 (Central Daylight Time),380933.6000000001,015_o_m_n_a.png,O,z,1262,3,1,2272.5,378661.1000000001,7205,VNB,C,2
2,test,2,0.0,1-Back,1.0,m,Thu Oct 16 2025 17:06:55 GMT-0500 (Central Daylight Time),383832.7000000002,019_m_f_d_a.png,O,m,1875,4,1,2895.0,380937.7000000002,7205,VNB,C,3
2,test,2,0.0,1-Back,0.0,z,Thu Oct 16 2025 17:06:55 GMT-0500 (Central Daylight Time),386864.0,014_m_m_d_a.png,O,None,2014,5,1,3025.100000000093,383838.8999999999,7205,VNB,C,4
3,test,2,0.0,1-Back,1.0,m,Thu Oct 16 2025 17:06:55 GMT-0500 (Central Daylight Time),388614.7000000002,025_y_m_h_a.png,O,m,716,6,1,1746.6000000000931,386868.1000000001,7205,VNB,C,5
4,test,2,1.0,1-Back,1.0,z,Thu Oct 16 2025 17:06:55 GMT-0500 (Central Daylight Time),390564.0,012_o_f_h_a.png,O,z,929,7,1,1938.8999999999069,388625.1000000001,7205,VNB,C,6
5,test,2,0.0,1-Back,1.0,m,Thu Oct 16 2025 17:06:55 GMT-0500 (Central Daylight Time),392628.0,019_m_f_n_a.png,O,m,1035,8,1,2057.399999999907,390570.6000000001,7205,VNB,C,7
6,test,2,0.0,1-Back,1.0,m,Thu Oct 16 2025 17:06:55 GMT-0500 (Central Daylight Time),395078.8999999999,022_y_f_d_a.png,O,m,1418,9,1,2448.0999999996275,392630.8000000003,7205,VNB,C,8
6,test,2,0.0,1-Back,0.0,m,Thu Oct 16 2025 17:06:55 GMT-0500 (Central Daylight Time),398095.8999999999,014_m_m_n_a.png,O,None,2001,10,1,3011.6999999997206,395084.2000000002,7205,VNB,C,9
7,test,2,1.0,1-Back,1.0,m,Thu Oct 16 2025 17:06:55 GMT-0500 (Central Daylight Time),400211.3999999999,019_m_f_h_a.png,O,m,1088,11,1,2106.0,398105.3999999999,7205,VNB,C,10
8,test,2,0.0,1-Back,1.0,z,Thu Oct 16 2025 17:06:55 GMT-0500 (Central Daylight Time),402175.0,015_o_m_h_a.png,O,z,949,12,1,1954.1999999997206,400220.8000000003,7205,VNB,C,11
9,test,2,0.0,1-Back,1.0,m,Thu Oct 16 2025 17:06:55 GMT-0500 (Central Daylight Time),403975.8999999999,025_y_m_d_a.png,O,m,768,13,1,1796.3999999999069,402179.5,7205,VNB,C,12
10,test,2,0.0,1-Back,1.0,m,Thu Oct 16 2025 17:06:55 GMT-0500 (Central Daylight Time),406073.8999999999,012_o_f_n_a.png,O,m,1078,14,1,2088.5999999996275,403985.3000000003,7205,VNB,C,13
11,test,2,0.0,1-Back,1.0,z,Thu Oct 16 2025 17:06:55 GMT-0500 (Central Daylight Time),408273.8999999999,022_y_f_n_a.png,O,z,1173,15,1,2196.5999999996275,406077.3000000003,7205,VNB,C,14
12,test,2,1.0,1-Back,1.0,m,Thu Oct 16 2025 17:06:55 GMT-0500 (Central Daylight Time),410057.8999999999,014_m_m_h_a.png,O,m,766,16,1,1775.2999999998137,408282.6000000001,7205,VNB,C,15
13,test,2,0.0,1-Back,1.0,m,Thu Oct 16 2025 17:06:55 GMT-0500 (Central Daylight Time),412573.8000000003,012_o_f_d_a.png,O,m,1484,17,1,2506.2000000001863,410067.6000000001,7205,VNB,C,16
13,test,2,1.0,1-Back,0.0,z,Thu Oct 16 2025 17:06:55 GMT-0500 (Central Daylight Time),415588.8999999999,015_o_m_d_a.png,O,m,1996,18,1,3008.6999999997206,412580.2000000002,7205,VNB,C,17
0,test,3,1.0,1-Back,,,Thu Oct 16 2025 17:06:55 GMT-0500 (Central Daylight Time),415588.8999999999,012_o_f_h_a.png,O,space,1287,1,1,3008.6999999997206,412580.2000000002,7205,VNB,C,0
1,test,3,0.0,1-Back,1.0,m,Thu Oct 16 2025 17:06:55 GMT-0500 (Central Daylight Time),421304.3000000003,019_m_f_d_a.png,O,m,1282,2,1,2289.8000000002794,419014.5,7205,VNB,C,1
1,test,3,1.0,1-Back,0.0,m,Thu Oct 16 2025 17:06:55 GMT-0500 (Central Daylight Time),424336.3999999999,014_m_m_n_a.png,O,None,2015,3,1,3023.1999999997206,421313.2000000002,7205,VNB,C,2
2,test,3,0.0,1-Back,1.0,z,Thu Oct 16 2025 17:06:55 GMT-0500 (Central Daylight Time),426586.6000000001,012_o_f_n_a.png,O,z,1224,4,1,2238.100000000093,424348.5,7205,VNB,C,3
2,test,3,1.0,1-Back,0.0,m,Thu Oct 16 2025 17:06:55 GMT-0500 (Central Daylight Time),428483.8999999999,015_o_m_d_a.png,O,z,877,5,1,1886.7999999998137,426597.1000000001,7205,VNB,C,4
3,test,3,0.0,1-Back,1.0,m,Thu Oct 16 2025 17:06:55 GMT-0500 (Central Daylight Time),430283.6000000001,022_y_f_h_a.png,O,m,780,6,1,1792.1000000000931,428491.5,7205,VNB,C,5
3,test,3,0.0,1-Back,0.0,z,Thu Oct 16 2025 17:06:55 GMT-0500 (Central Daylight Time),432765.6000000001,025_y_m_h_a.png,O,m,1460,7,1,2471.7999999998137,430293.8000000003,7205,VNB,C,6
4,test,3,0.0,1-Back,1.0,m,Thu Oct 16 2025 17:06:55 GMT-0500 (Central Daylight Time),435284.2000000002,019_m_f_n_a.png,O,m,1488,8,1,2511.8000000002794,432772.3999999999,7205,VNB,C,7
4,test,3,0.0,1-Back,0.0,m,Thu Oct 16 2025 17:06:55 GMT-0500 (Central Daylight Time),438316.0,022_y_f_d_a.png,O,None,2017,9,1,3023.1999999997206,435292.8000000003,7205,VNB,C,8
4,test,3,1.0,1-Back,0.0,m,Thu Oct 16 2025 17:06:55 GMT-0500 (Central Daylight Time),440232.1000000001,015_o_m_n_a.png,O,z,893,10,1,1907.3999999999069,438324.7000000002,7205,VNB,C,9
5,test,3,0.0,1-Back,1.0,m,Thu Oct 16 2025 17:06:55 GMT-0500 (Central Daylight Time),442147.3999999999,014_m_m_h_a.png,O,m,888,11,1,1908.0999999996275,440239.3000000003,7205,VNB,C,10
6,test,3,0.0,1-Back,1.0,z,Thu Oct 16 2025 17:06:55 GMT-0500 (Central Daylight Time),444731.3000000003,019_m_f_h_a.png,O,z,1566,12,1,2575.3000000002794,442156.0,7205,VNB,C,11
7,test,3,1.0,1-Back,1.0,m,Thu Oct 16 2025 17:06:55 GMT-0500 (Central Daylight Time),446747.7000000002,012_o_f_d_a.png,O,m,987,13,1,2012.3000000002794,444735.3999999999,7205,VNB,C,12
8,test,3,0.0,1-Back,1.0,z,Thu Oct 16 2025 17:06:55 GMT-0500 (Central Daylight Time),449044.8000000003,014_m_m_d_a.png,O,z,1269,14,1,2292.600000000093,446752.2000000002,7205,VNB,C,13
8,test,3,0.0,1-Back,0.0,m,Thu Oct 16 2025 17:06:55 GMT-0500 (Central Daylight Time),452076.2000000002,025_y_m_n_a.png,O,None,2015,15,1,3019.100000000093,449057.1000000001,7205,VNB,C,14
9,test,3,1.0,1-Back,1.0,m,Thu Oct 16 2025 17:06:55 GMT-0500 (Central Daylight Time),454495.0,015_o_m_h_a.png,O,m,1394,16,1,2410.1999999997206,452084.8000000003,7205,VNB,C,15
9,test,3,0.0,1-Back,0.0,m,Thu Oct 16 2025 17:06:55 GMT-0500 (Central Daylight Time),456326.6000000001,025_y_m_d_a.png,O,z,802,17,1,1823.2999999998137,454503.3000000003,7205,VNB,C,16
10,test,3,1.0,1-Back,1.0,m,Thu Oct 16 2025 17:06:55 GMT-0500 (Central Daylight Time),458939.6000000001,022_y_f_n_a.png,O,m,1595,18,1,2607.100000000093,456332.5,7205,VNB,C,17
0,test,4,1.0,1-Back,,,Thu Oct 16 2025 17:06:55 GMT-0500 (Central Daylight Time),458939.6000000001,014_m_m_d_a.png,O,space,1292,1,1,2607.100000000093,456332.5,7205,VNB,C,0
1,test,4,0.0,1-Back,1.0,z,Thu Oct 16 2025 17:06:55 GMT-0500 (Central Daylight Time),465056.6000000001,015_o_m_d_a.png,O,z,1765,2,1,2787.899999999907,462268.7000000002,7205,VNB,C,1
2,test,4,0.0,1-Back,1.0,m,Thu Oct 16 2025 17:06:55 GMT-0500 (Central Daylight Time),467190.1000000001,025_y_m_h_a.png,O,m,1103,3,1,2126.2000000001863,465063.8999999999,7205,VNB,C,2
3,test,4,0.0,1-Back,1.0,m,Thu Oct 16 2025 17:06:55 GMT-0500 (Central Daylight Time),469855.0,019_m_f_n_a.png,O,m,1642,4,1,2658.600000000093,467196.3999999999,7205,VNB,C,3
3,test,4,1.0,1-Back,0.0,m,Thu Oct 16 2025 17:06:55 GMT-0500 (Central Daylight Time),471920.8999999999,012_o_f_h_a.png,O,z,1033,5,1,2058.2999999998137,469862.6000000001,7205,VNB,C,4
3,test,4,0.0,1-Back,0.0,m,Thu Oct 16 2025 17:06:55 GMT-0500 (Central Daylight Time),474953.2000000002,014_m_m_n_a.png,O,None,2016,6,1,3021.3000000002794,471931.8999999999,7205,VNB,C,5
3,test,4,0.0,1-Back,0.0,m,Thu Oct 16 2025 17:06:55 GMT-0500 (Central Daylight Time),477869.8000000003,025_y_m_d_a.png,O,z,1897,7,1,2907.4000000003725,474962.3999999999,7205,VNB,C,6
4,test,4,1.0,1-Back,1.0,z,Thu Oct 16 2025 17:06:55 GMT-0500 (Central Daylight Time),479819.0,022_y_f_d_a.png,O,z,933,8,1,1942.5,477876.5,7205,VNB,C,7
5,test,4,0.0,1-Back,1.0,m,Thu Oct 16 2025 17:06:55 GMT-0500 (Central Daylight Time),482171.0,019_m_f_h_a.png,O,m,1336,9,1,2343.1999999997206,479827.8000000003,7205,VNB,C,8
6,test,4,0.0,1-Back,1.0,z,Thu Oct 16 2025 17:06:55 GMT-0500 (Central Daylight Time),484483.1000000001,015_o_m_h_a.png,O,z,1288,10,1,2308.7999999998137,482174.3000000003,7205,VNB,C,9
7,test,4,1.0,1-Back,1.0,m,Thu Oct 16 2025 17:06:55 GMT-0500 (Central Daylight Time),487332.7000000002,012_o_f_n_a.png,O,m,1819,11,1,2838.3000000002794,484494.3999999999,7205,VNB,C,10
7,test,4,0.0,1-Back,0.0,m,Thu Oct 16 2025 17:06:55 GMT-0500 (Central Daylight Time),490367.5,019_m_f_d_a.png,O,None,2017,12,1,3025.2999999998137,487342.2000000002,7205,VNB,C,11
7,test,4,0.0,1-Back,0.0,m,Thu Oct 16 2025 17:06:55 GMT-0500 (Central Daylight Time),492682.3999999999,022_y_f_n_a.png,O,z,1283,13,1,2306.7999999998137,490375.6000000001,7205,VNB,C,12
8,test,4,0.0,1-Back,1.0,m,Thu Oct 16 2025 17:06:55 GMT-0500 (Central Daylight Time),494897.1000000001,012_o_f_d_a.png,O,m,1198,14,1,2205.100000000093,492692.0,7205,VNB,C,13
9,test,4,0.0,1-Back,1.0,m,Thu Oct 16 2025 17:06:55 GMT-0500 (Central Daylight Time),497081.0,022_y_f_h_a.png,O,m,1167,15,1,2181.100000000093,494899.8999999999,7205,VNB,C,14
10,test,4,1.0,1-Back,1.0,z,Thu Oct 16 2025 17:06:55 GMT-0500 (Central Daylight Time),499113.3999999999,014_m_m_h_a.png,O,z,1005,16,1,2023.3999999999069,497090.0,7205,VNB,C,15
11,test,4,0.0,1-Back,1.0,m,Thu Oct 16 2025 17:06:55 GMT-0500 (Central Daylight Time),501044.8999999999,015_o_m_n_a.png,O,m,911,17,1,1923.3999999999069,499121.5,7205,VNB,C,16
11,test,4,1.0,1-Back,0.0,z,Thu Oct 16 2025 17:06:55 GMT-0500 (Central Daylight Time),503177.6000000001,025_y_m_n_a.png,O,m,1100,18,1,2120.0,501057.6000000001,7205,VNB,C,17
0,test,5,1.0,1-Back,,,Thu Oct 16 2025 17:06:55 GMT-0500 (Central Daylight Time),503177.6000000001,015_o_m_n_a.png,O,space,1000,1,1,2120.0,501057.6000000001,7205,VNB,C,0
1,test,5,1.0,1-Back,1.0,m,Thu Oct 16 2025 17:06:55 GMT-0500 (Central Daylight Time),508376.5,012_o_f_h_a.png,O,m,1140,2,1,2158.0,506218.5,7205,VNB,C,1
2,test,5,0.0,1-Back,1.0,m,Thu Oct 16 2025 17:06:55 GMT-0500 (Central Daylight Time),511260.1000000001,025_y_m_d_a.png,O,m,1856,3,1,2873.2000000001863,508386.8999999999,7205,VNB,C,2
2,test,5,0.0,1-Back,0.0,z,Thu Oct 16 2025 17:06:55 GMT-0500 (Central Daylight Time),513924.1000000001,015_o_m_d_a.png,O,m,1646,4,1,2657.600000000093,511266.5,7205,VNB,C,3
3,test,5,0.0,1-Back,1.0,m,Thu Oct 16 2025 17:06:55 GMT-0500 (Central Daylight Time),516257.7000000002,019_m_f_h_a.png,O,m,1300,5,1,2323.399999999907,513934.3000000003,7205,VNB,C,4
4,test,5,0.0,1-Back,1.0,m,Thu Oct 16 2025 17:06:55 GMT-0500 (Central Daylight Time),518356.0,022_y_f_n_a.png,O,m,1071,6,1,2087.5,516268.5,7205,VNB,C,5
5,test,5,1.0,1-Back,1.0,z,Thu Oct 16 2025 17:06:55 GMT-0500 (Central Daylight Time),520488.6000000001,012_o_f_n_a.png,O,z,1107,7,1,2122.7000000001863,518365.8999999999,7205,VNB,C,6
6,test,5,0.0,1-Back,1.0,m,Thu Oct 16 2025 17:06:55 GMT-0500 (Central Daylight Time),522356.7000000002,019_m_f_d_a.png,O,m,851,8,1,1858.2000000001863,520498.5,7205,VNB,C,7
7,test,5,0.0,1-Back,1.0,m,Thu Oct 16 2025 17:06:55 GMT-0500 (Central Daylight Time),524788.3999999999,025_y_m_h_a.png,O,m,1412,9,1,2423.0999999996275,522365.3000000003,7205,VNB,C,8
8,test,5,0.0,1-Back,1.0,m,Thu Oct 16 2025 17:06:55 GMT-0500 (Central Daylight Time),527537.3000000003,022_y_f_d_a.png,O,m,1733,10,1,2736.2000000001863,524801.1000000001,7205,VNB,C,9
8,test,5,0.0,1-Back,0.0,m,Thu Oct 16 2025 17:06:55 GMT-0500 (Central Daylight Time),530569.6000000001,014_m_m_n_a.png,O,None,2015,11,1,3020.7000000001863,527548.8999999999,7205,VNB,C,10
9,test,5,1.0,1-Back,1.0,z,Thu Oct 16 2025 17:06:55 GMT-0500 (Central Daylight Time),532818.5,019_m_f_n_a.png,O,z,1232,12,1,2237.100000000093,530581.3999999999,7205,VNB,C,11
10,test,5,0.0,1-Back,1.0,m,Thu Oct 16 2025 17:06:55 GMT-0500 (Central Daylight Time),534585.1000000001,015_o_m_h_a.png,O,m,743,13,1,1759.7000000001863,532825.3999999999,7205,VNB,C,12
11,test,5,0.0,1-Back,1.0,z,Thu Oct 16 2025 17:06:55 GMT-0500 (Central Daylight Time),536799.7000000002,014_m_m_h_a.png,O,z,1192,14,1,2204.7000000001863,534595.0,7205,VNB,C,13
12,test,5,1.0,1-Back,1.0,m,Thu Oct 16 2025 17:06:55 GMT-0500 (Central Daylight Time),539649.8999999999,012_o_f_d_a.png,O,m,1825,15,1,2842.0999999996275,536807.8000000003,7205,VNB,C,14
13,test,5,0.0,1-Back,1.0,m,Thu Oct 16 2025 17:06:55 GMT-0500 (Central Daylight Time),542367.0,025_y_m_n_a.png,O,m,1695,16,1,2709.5,539657.5,7205,VNB,C,15
14,test,5,0.0,1-Back,1.0,m,Thu Oct 16 2025 17:06:55 GMT-0500 (Central Daylight Time),544714.3999999999,022_y_f_h_a.png,O,m,1323,17,1,2339.1999999997206,542375.2000000002,7205,VNB,C,16
15,test,5,0.0,1-Back,1.0,m,Thu Oct 16 2025 17:06:55 GMT-0500 (Central Daylight Time),547097.7000000002,014_m_m_d_a.png,O,m,1357,18,1,2372.0,544725.7000000002,7205,VNB,C,17
0,prac,1,0.0,2-Back,,,Thu Oct 16 2025 17:06:55 GMT-0500 (Central Daylight Time),547097.7000000002,019_m_f_n_a.png,O,space,2014,1,1,2372.0,544725.7000000002,7205,VNB,C,0
0,prac,1,0.0,2-Back,,,Thu Oct 16 2025 17:06:55 GMT-0500 (Central Daylight Time),547097.7000000002,012_o_f_h_a.png,O,space,2014,2,1,2372.0,544725.7000000002,7205,VNB,C,0
1,prac,1,0.0,2-Back,1.0,m,Thu Oct 16 2025 17:06:55 GMT-0500 (Central Daylight Time),680871.7000000002,015_o_m_d_a.png,O,m,1323,3,1,2174.8000000002794,678696.8999999999,7205,VNB,C,1
1,prac,1,1.0,2-Back,0.0,z,Thu Oct 16 2025 17:06:55 GMT-0500 (Central Daylight Time),683705.3000000003,014_m_m_h_a.png,O,None,2002,4,1,2822.5,680882.8000000003,7205,VNB,C,2
1,prac,1,0.0,2-Back,0.0,m,Thu Oct 16 2025 17:06:55 GMT-0500 (Central Daylight Time),686570.7000000002,022_y_f_n_a.png,O,None,2002,5,1,2855.100000000093,683715.6000000001,7205,VNB,C,3
1,prac,1,1.0,2-Back,0.0,z,Thu Oct 16 2025 17:06:55 GMT-0500 (Central Daylight Time),688035.3000000003,015_o_m_h_a.png,O,m,587,6,1,1453.4000000003725,686581.8999999999,7205,VNB,C,4
1,prac,1,1.0,2-Back,0.0,z,Thu Oct 16 2025 17:06:55 GMT-0500 (Central Daylight Time),690869.0,025_y_m_n_a.png,O,None,2006,7,1,2824.2999999998137,688044.7000000002,7205,VNB,C,5
2,prac,1,0.0,2-Back,1.0,m,Thu Oct 16 2025 17:06:55 GMT-0500 (Central Daylight Time),693066.3999999999,019_m_f_d_a.png,O,m,1326,8,1,2186.399999999907,690880.0,7205,VNB,C,6
2,prac,1,0.0,2-Back,0.0,m,Thu Oct 16 2025 17:06:55 GMT-0500 (Central Daylight Time),694934.0,012_o_f_d_a.png,O,z,998,9,1,1858.1999999997206,693075.8000000003,7205,VNB,C,7
2,prac,1,0.0,2-Back,0.0,m,Thu Oct 16 2025 17:06:55 GMT-0500 (Central Daylight Time),696899.2000000002,014_m_m_h_a.png,O,z,1176,10,1,1954.2000000001863,694945.0,7205,VNB,C,8
2,prac,1,1.0,2-Back,0.0,z,Thu Oct 16 2025 17:06:55 GMT-0500 (Central Daylight Time),698832.8999999999,022_y_f_d_a.png,O,m,1077,11,1,1923.7999999998137,696909.1000000001,7205,VNB,C,9
2,prac,1,0.0,2-Back,0.0,m,Thu Oct 16 2025 17:06:55 GMT-0500 (Central Daylight Time),701682.1000000001,015_o_m_n_a.png,O,None,2002,12,1,2838.5,698843.6000000001,7205,VNB,C,10
0,prac,2,0.0,2-Back,,,Thu Oct 16 2025 17:06:55 GMT-0500 (Central Daylight Time),701682.1000000001,019_m_f_n_a.png,O,a,48433,1,1,2838.5,698843.6000000001,7205,VNB,C,0
0,prac,2,0.0,2-Back,,,Thu Oct 16 2025 17:06:55 GMT-0500 (Central Daylight Time),701682.1000000001,012_o_f_h_a.png,O,a,48433,2,1,2838.5,698843.6000000001,7205,VNB,C,0
0,prac,2,0.0,2-Back,0.0,m,Thu Oct 16 2025 17:06:55 GMT-0500 (Central Daylight Time),758230.7000000002,015_o_m_d_a.png,O,None,2017,3,1,2852.7000000001863,755378.0,7205,VNB,C,1
0,prac,2,1.0,2-Back,0.0,z,Thu Oct 16 2025 17:06:55 GMT-0500 (Central Daylight Time),761078.8999999999,014_m_m_h_a.png,O,None,2001,4,1,2835.899999999907,758243.0,7205,VNB,C,2
1,prac,2,0.0,2-Back,1.0,m,Thu Oct 16 2025 17:06:55 GMT-0500 (Central Daylight Time),763045.3999999999,022_y_f_n_a.png,O,m,1099,5,1,1955.3999999999069,761090.0,7205,VNB,C,3
1,prac,2,1.0,2-Back,0.0,z,Thu Oct 16 2025 17:06:55 GMT-0500 (Central Daylight Time),765060.7000000002,015_o_m_h_a.png,O,m,1148,6,1,2005.5,763055.2000000002,7205,VNB,C,4
1,prac,2,1.0,2-Back,0.0,z,Thu Oct 16 2025 17:06:55 GMT-0500 (Central Daylight Time),767544.3000000003,025_y_m_n_a.png,O,m,1638,7,1,2472.3000000002794,765072.0,7205,VNB,C,5
1,prac,2,0.0,2-Back,0.0,m,Thu Oct 16 2025 17:06:55 GMT-0500 (Central Daylight Time),769494.3000000003,019_m_f_d_a.png,O,z,1071,8,1,1939.7000000001863,767554.6000000001,7205,VNB,C,6
2,prac,2,0.0,2-Back,1.0,m,Thu Oct 16 2025 17:06:55 GMT-0500 (Central Daylight Time),771292.2000000002,012_o_f_d_a.png,O,m,926,9,1,1782.6000000000931,769509.6000000001,7205,VNB,C,7
3,prac,2,0.0,2-Back,1.0,m,Thu Oct 16 2025 17:06:55 GMT-0500 (Central Daylight Time),773908.0,014_m_m_h_a.png,O,m,1831,10,1,2602.1999999997206,771305.8000000003,7205,VNB,C,8
4,prac,2,1.0,2-Back,1.0,z,Thu Oct 16 2025 17:06:55 GMT-0500 (Central Daylight Time),776592.0,022_y_f_d_a.png,O,z,1805,11,1,2672.7999999998137,773919.2000000002,7205,VNB,C,9
5,prac,2,0.0,2-Back,1.0,m,Thu Oct 16 2025 17:06:55 GMT-0500 (Central Daylight Time),778557.3999999999,015_o_m_n_a.png,O,m,1092,12,1,1954.2999999998137,776603.1000000001,7205,VNB,C,10
0,test,1,0.0,2-Back,,,Thu Oct 16 2025 17:06:55 GMT-0500 (Central Daylight Time),778557.3999999999,025_y_m_h_a.png,O,space,1433,1,1,1954.2999999998137,776603.1000000001,7205,VNB,C,0
0,test,1,0.0,2-Back,,,Thu Oct 16 2025 17:06:55 GMT-0500 (Central Daylight Time),778557.3999999999,012_o_f_n_a.png,O,space,1433,2,1,1954.2999999998137,776603.1000000001,7205,VNB,C,0
1,test,1,0.0,2-Back,1.0,z,Thu Oct 16 2025 17:06:55 GMT-0500 (Central Daylight Time),803315.0,015_o_m_h_a.png,O,z,1949,3,1,2956.399999999907,800358.6000000001,7205,VNB,C,1
2,test,1,0.0,2-Back,1.0,m,Thu Oct 16 2025 17:06:55 GMT-0500 (Central Daylight Time),805915.2000000002,019_m_f_d_a.png,O,m,1583,4,1,2593.7000000001863,803321.5,7205,VNB,C,2
2,test,1,1.0,2-Back,0.0,m,Thu Oct 16 2025 17:06:55 GMT-0500 (Central Daylight Time),808698.6000000001,025_y_m_n_a.png,O,z,1757,5,1,2771.7000000001863,805926.8999999999,7205,VNB,C,3
3,test,1,0.0,2-Back,1.0,z,Thu Oct 16 2025 17:06:55 GMT-0500 (Central Daylight Time),811278.7000000002,022_y_f_d_a.png,O,z,1558,6,1,2570.7000000001863,808708.0,7205,VNB,C,4
3,test,1,0.0,2-Back,0.0,m,Thu Oct 16 2025 17:06:55 GMT-0500 (Central Daylight Time),813594.8999999999,014_m_m_h_a.png,O,z,1295,7,1,2313.399999999907,811281.5,7205,VNB,C,5
3,test,1,1.0,2-Back,0.0,m,Thu Oct 16 2025 17:06:55 GMT-0500 (Central Daylight Time),816626.8999999999,022_y_f_n_a.png,O,None,2015,8,1,3026.5,813600.3999999999,7205,VNB,C,6
4,test,1,0.0,2-Back,1.0,z,Thu Oct 16 2025 17:06:55 GMT-0500 (Central Daylight Time),819394.3000000003,012_o_f_h_a.png,O,z,1742,9,1,2760.9000000003725,816633.3999999999,7205,VNB,C,7
5,test,1,0.0,2-Back,1.0,m,Thu Oct 16 2025 17:06:55 GMT-0500 (Central Daylight Time),821126.1000000001,015_o_m_d_a.png,O,m,710,10,1,1724.8999999999069,819401.2000000002,7205,VNB,C,8
6,test,1,1.0,2-Back,1.0,m,Thu Oct 16 2025 17:06:55 GMT-0500 (Central Daylight Time),824043.1000000001,014_m_m_d_a.png,O,m,1899,11,1,2904.899999999907,821138.2000000002,7205,VNB,C,9
6,test,1,0.0,2-Back,0.0,m,Thu Oct 16 2025 17:06:55 GMT-0500 (Central Daylight Time),827075.8999999999,019_m_f_n_a.png,O,None,2017,12,1,3023.1999999997206,824052.7000000002,7205,VNB,C,10
6,test,1,0.0,2-Back,0.0,m,Thu Oct 16 2025 17:06:55 GMT-0500 (Central Daylight Time),829690.5,022_y_f_h_a.png,O,z,1598,13,1,2604.100000000093,827086.3999999999,7205,VNB,C,11
6,test,1,0.0,2-Back,0.0,z,Thu Oct 16 2025 17:06:55 GMT-0500 (Central Daylight Time),832724.6000000001,014_m_m_n_a.png,O,None,2017,14,1,3023.5,829701.1000000001,7205,VNB,C,12
6,test,1,0.0,2-Back,0.0,m,Thu Oct 16 2025 17:06:55 GMT-0500 (Central Daylight Time),835758.0,025_y_m_d_a.png,O,None,2019,15,1,3024.399999999907,832733.6000000001,7205,VNB,C,13
7,test,1,1.0,2-Back,1.0,m,Thu Oct 16 2025 17:06:55 GMT-0500 (Central Daylight Time),838704.3000000003,019_m_f_h_a.png,O,m,1924,16,1,2943.100000000093,835761.2000000002,7205,VNB,C,14
7,test,1,0.0,2-Back,0.0,z,Thu Oct 16 2025 17:06:55 GMT-0500 (Central Daylight Time),841736.5,012_o_f_d_a.png,O,None,2014,17,1,3022.899999999907,838713.6000000001,7205,VNB,C,15
7,test,1,0.0,2-Back,0.0,m,Thu Oct 16 2025 17:06:55 GMT-0500 (Central Daylight Time),844769.6000000001,015_o_m_n_a.png,O,None,2016,18,1,3027.2999999998137,841742.3000000003,7205,VNB,C,16
0,test,2,0.0,2-Back,,,Thu Oct 16 2025 17:06:55 GMT-0500 (Central Daylight Time),844769.6000000001,014_m_m_h_a.png,O,space,2023,1,1,3027.2999999998137,841742.3000000003,7205,VNB,C,0
0,test,2,0.0,2-Back,,,Thu Oct 16 2025 17:06:55 GMT-0500 (Central Daylight Time),844769.6000000001,022_y_f_n_a.png,O,space,2023,2,1,3027.2999999998137,841742.3000000003,7205,VNB,C,0
1,test,2,1.0,2-Back,1.0,z,Thu Oct 16 2025 17:06:55 GMT-0500 (Central Daylight Time),854414.8999999999,012_o_f_h_a.png,O,z,1383,3,1,2402.0999999996275,852012.8000000003,7205,VNB,C,1
2,test,2,0.0,2-Back,1.0,m,Thu Oct 16 2025 17:06:55 GMT-0500 (Central Daylight Time),857166.2000000002,015_o_m_d_a.png,O,m,1729,4,1,2743.399999999907,854422.8000000003,7205,VNB,C,2
2,test,2,0.0,2-Back,0.0,m,Thu Oct 16 2025 17:06:55 GMT-0500 (Central Daylight Time),859601.8000000003,019_m_f_d_a.png,O,z,1404,5,1,2425.600000000093,857176.2000000002,7205,VNB,C,3
3,test,2,0.0,2-Back,1.0,m,Thu Oct 16 2025 17:06:55 GMT-0500 (Central Daylight Time),862167.1000000001,025_y_m_h_a.png,O,m,1546,6,1,2556.100000000093,859611.0,7205,VNB,C,4
3,test,2,0.0,2-Back,0.0,m,Thu Oct 16 2025 17:06:55 GMT-0500 (Central Daylight Time),865196.6000000001,012_o_f_n_a.png,O,None,2016,7,1,3018.399999999907,862178.2000000002,7205,VNB,C,5
4,test,2,1.0,2-Back,1.0,z,Thu Oct 16 2025 17:06:55 GMT-0500 (Central Daylight Time),867395.8000000003,015_o_m_h_a.png,O,z,1181,8,1,2189.5,865206.3000000003,7205,VNB,C,6
5,test,2,0.0,2-Back,1.0,m,Thu Oct 16 2025 17:06:55 GMT-0500 (Central Daylight Time),870077.8999999999,022_y_f_d_a.png,O,m,1653,9,1,2678.1999999997206,867399.7000000002,7205,VNB,C,7
5,test,2,0.0,2-Back,0.0,m,Thu Oct 16 2025 17:06:55 GMT-0500 (Central Daylight Time),872627.7000000002,025_y_m_d_a.png,O,z,1523,10,1,2540.8000000002794,870086.8999999999,7205,VNB,C,8
6,test,2,0.0,2-Back,1.0,m,Thu Oct 16 2025 17:06:55 GMT-0500 (Central Daylight Time),875377.7000000002,014_m_m_n_a.png,O,m,1736,11,1,2739.100000000093,872638.6000000001,7205,VNB,C,9
6,test,2,0.0,2-Back,0.0,m,Thu Oct 16 2025 17:06:55 GMT-0500 (Central Daylight Time),878407.7000000002,019_m_f_h_a.png,O,None,2016,12,1,3019.7000000001863,875388.0,7205,VNB,C,10
6,test,2,1.0,2-Back,0.0,z,Thu Oct 16 2025 17:06:55 GMT-0500 (Central Daylight Time),881440.1000000001,015_o_m_n_a.png,O,None,2015,13,1,3026.5,878413.6000000001,7205,VNB,C,11
6,test,2,0.0,2-Back,0.0,m,Thu Oct 16 2025 17:06:55 GMT-0500 (Central Daylight Time),884055.1999999997,012_o_f_d_a.png,O,z,1590,14,1,2606.399999999441,881448.8000000003,7205,VNB,C,12
6,test,2,0.0,2-Back,0.0,m,Thu Oct 16 2025 17:06:55 GMT-0500 (Central Daylight Time),886721.6999999997,022_y_f_h_a.png,O,z,1649,15,1,2663.5999999996275,884058.1000000001,7205,VNB,C,13
6,test,2,0.0,2-Back,0.0,z,Thu Oct 16 2025 17:06:55 GMT-0500 (Central Daylight Time),889187.6000000001,014_m_m_d_a.png,O,m,1445,16,1,2456.7000000001863,886730.8999999999,7205,VNB,C,14
6,test,2,0.0,2-Back,0.0,m,Thu Oct 16 2025 17:06:55 GMT-0500 (Central Daylight Time),892219.8000000003,025_y_m_n_a.png,O,None,2016,17,1,3021.7999999998137,889198.0000000005,7205,VNB,C,15
7,test,2,1.0,2-Back,1.0,m,Thu Oct 16 2025 17:06:55 GMT-0500 (Central Daylight Time),894285.6999999997,019_m_f_n_a.png,O,m,1044,18,1,2059.5,892226.1999999997,7205,VNB,C,16
0,test,3,1.0,2-Back,,,Thu Oct 16 2025 17:06:55 GMT-0500 (Central Daylight Time),894285.6999999997,015_o_m_n_a.png,O,space,1538,1,1,2059.5,892226.1999999997,7205,VNB,C,0
0,test,3,1.0,2-Back,,,Thu Oct 16 2025 17:06:55 GMT-0500 (Central Daylight Time),894285.6999999997,012_o_f_d_a.png,O,space,1538,2,1,2059.5,892226.1999999997,7205,VNB,C,0
1,test,3,0.0,2-Back,1.0,m,Thu Oct 16 2025 17:06:55 GMT-0500 (Central Daylight Time),903401.3000000003,022_y_f_h_a.png,O,m,1492,3,1,2507.600000000559,900893.6999999997,7205,VNB,C,1
2,test,3,0.0,2-Back,1.0,z,Thu Oct 16 2025 17:06:55 GMT-0500 (Central Daylight Time),906166.6999999997,019_m_f_d_a.png,O,z,1748,4,1,2761.399999999441,903405.3000000003,7205,VNB,C,2
3,test,3,1.0,2-Back,1.0,m,Thu Oct 16 2025 17:06:55 GMT-0500 (Central Daylight Time),908531.1999999997,025_y_m_n_a.png,O,m,1337,5,1,2354.699999999255,906176.5000000005,7205,VNB,C,3
3,test,3,0.0,2-Back,0.0,m,Thu Oct 16 2025 17:06:55 GMT-0500 (Central Daylight Time),910615.3999999999,015_o_m_h_a.png,O,z,1059,6,1,2081.0,908534.3999999999,7205,VNB,C,4
3,test,3,0.0,2-Back,0.0,z,Thu Oct 16 2025 17:06:55 GMT-0500 (Central Daylight Time),912864.3000000003,022_y_f_n_a.png,O,m,1216,7,1,2240.600000000559,910623.6999999997,7205,VNB,C,5
4,test,3,1.0,2-Back,1.0,m,Thu Oct 16 2025 17:06:55 GMT-0500 (Central Daylight Time),915096.3000000003,014_m_m_d_a.png,O,m,1210,8,1,2224.0,912872.3000000003,7205,VNB,C,6
5,test,3,0.0,2-Back,1.0,m,Thu Oct 16 2025 17:06:55 GMT-0500 (Central Daylight Time),917678.6000000001,025_y_m_d_a.png,O,m,1558,9,1,2579.2999999998137,915099.3000000003,7205,VNB,C,7
5,test,3,0.0,2-Back,0.0,m,Thu Oct 16 2025 17:06:55 GMT-0500 (Central Daylight Time),920711.6999999997,012_o_f_h_a.png,O,None,2017,10,1,3024.699999999255,917687.0000000005,7205,VNB,C,8
6,test,3,1.0,2-Back,1.0,m,Thu Oct 16 2025 17:06:55 GMT-0500 (Central Daylight Time),922944.0000000005,019_m_f_n_a.png,O,m,1209,11,1,2223.800000000745,920720.1999999997,7205,VNB,C,9
7,test,3,1.0,2-Back,1.0,z,Thu Oct 16 2025 17:06:55 GMT-0500 (Central Daylight Time),925776.8999999999,014_m_m_h_a.png,O,z,1809,12,1,2823.0999999996275,922953.8000000003,7205,VNB,C,10
7,test,3,0.0,2-Back,0.0,m,Thu Oct 16 2025 17:06:55 GMT-0500 (Central Daylight Time),928793.6999999997,022_y_f_d_a.png,O,None,2001,13,1,3005.5,925788.1999999997,7205,VNB,C,11
7,test,3,0.0,2-Back,0.0,m,Thu Oct 16 2025 17:06:55 GMT-0500 (Central Daylight Time),930958.3000000003,012_o_f_n_a.png,O,z,1145,14,1,2160.7000000001863,928797.6000000001,7205,VNB,C,12
7,test,3,0.0,2-Back,0.0,z,Thu Oct 16 2025 17:06:55 GMT-0500 (Central Daylight Time),932856.5000000005,015_o_m_d_a.png,O,m,866,15,1,1891.6000000005588,930964.8999999999,7205,VNB,C,13
7,test,3,1.0,2-Back,0.0,m,Thu Oct 16 2025 17:06:55 GMT-0500 (Central Daylight Time),935024.6999999997,019_m_f_h_a.png,O,z,1152,16,1,2159.5,932865.1999999997,7205,VNB,C,14
8,test,3,0.0,2-Back,1.0,m,Thu Oct 16 2025 17:06:55 GMT-0500 (Central Daylight Time),936874.1000000001,014_m_m_n_a.png,O,m,833,17,1,1838.0,935036.1000000001,7205,VNB,C,15
9,test,3,0.0,2-Back,1.0,z,Thu Oct 16 2025 17:06:55 GMT-0500 (Central Daylight Time),938737.1000000001,025_y_m_h_a.png,O,z,841,18,1,1852.7999999998137,936884.3000000003,7205,VNB,C,16
0,test,4,0.0,2-Back,,,Thu Oct 16 2025 17:06:55 GMT-0500 (Central Daylight Time),938737.1000000001,019_m_f_n_a.png,O,space,1047,1,1,1852.7999999998137,936884.3000000003,7205,VNB,C,0
0,test,4,0.0,2-Back,,,Thu Oct 16 2025 17:06:55 GMT-0500 (Central Daylight Time),938737.1000000001,015_o_m_n_a.png,O,space,1047,2,1,1852.7999999998137,936884.3000000003,7205,VNB,C,0
0,test,4,1.0,2-Back,0.0,m,Thu Oct 16 2025 17:06:55 GMT-0500 (Central Daylight Time),948019.8000000003,025_y_m_h_a.png,O,None,2016,3,1,3022.7999999998137,944997.0000000005,7205,VNB,C,1
1,test,4,1.0,2-Back,1.0,m,Thu Oct 16 2025 17:06:55 GMT-0500 (Central Daylight Time),950018.6999999997,012_o_f_d_a.png,O,m,982,4,1,1990.3999999994412,948028.3000000003,7205,VNB,C,2
2,test,4,0.0,2-Back,1.0,z,Thu Oct 16 2025 17:06:55 GMT-0500 (Central Daylight Time),952269.5000000005,015_o_m_h_a.png,O,z,1220,5,1,2239.800000000745,950029.6999999997,7205,VNB,C,3
2,test,4,0.0,2-Back,0.0,m,Thu Oct 16 2025 17:06:55 GMT-0500 (Central Daylight Time),955302.6000000001,014_m_m_n_a.png,O,None,2017,6,1,3023.2999999998137,952279.3000000003,7205,VNB,C,4
3,test,4,0.0,2-Back,1.0,m,Thu Oct 16 2025 17:06:55 GMT-0500 (Central Daylight Time),957416.3999999999,019_m_f_d_a.png,O,m,1084,7,1,2102.5999999996275,955313.8000000003,7205,VNB,C,5
4,test,4,0.0,2-Back,1.0,z,Thu Oct 16 2025 17:06:55 GMT-0500 (Central Daylight Time),960050.1000000001,022_y_f_n_a.png,O,z,1601,8,1,2615.5,957434.6000000001,7205,VNB,C,6
5,test,4,1.0,2-Back,1.0,m,Thu Oct 16 2025 17:06:55 GMT-0500 (Central Daylight Time),962381.5000000005,012_o_f_h_a.png,O,m,1301,9,1,2325.600000000559,960055.8999999999,7205,VNB,C,7
6,test,4,0.0,2-Back,1.0,m,Thu Oct 16 2025 17:06:55 GMT-0500 (Central Daylight Time),965164.0000000005,014_m_m_h_a.png,O,m,1763,10,1,2773.0,962391.0000000005,7205,VNB,C,8
6,test,4,0.0,2-Back,0.0,m,Thu Oct 16 2025 17:06:55 GMT-0500 (Central Daylight Time),967180.0000000005,022_y_f_d_a.png,O,z,994,11,1,2010.1000000005588,965169.8999999999,7205,VNB,C,9
6,test,4,0.0,2-Back,0.0,m,Thu Oct 16 2025 17:06:55 GMT-0500 (Central Daylight Time),969678.0000000005,025_y_m_n_a.png,O,z,1476,12,1,2490.4000000003725,967187.6000000001,7205,VNB,C,10
7,test,4,0.0,2-Back,1.0,z,Thu Oct 16 2025 17:06:55 GMT-0500 (Central Daylight Time),972511.8999999999,015_o_m_d_a.png,O,z,1809,13,1,2831.0999999996275,969680.8000000003,7205,VNB,C,11
8,test,4,1.0,2-Back,1.0,m,Thu Oct 16 2025 17:06:55 GMT-0500 (Central Daylight Time),974609.8000000003,019_m_f_h_a.png,O,m,1080,14,1,2094.2999999998137,972515.5000000005,7205,VNB,C,12
8,test,4,1.0,2-Back,0.0,m,Thu Oct 16 2025 17:06:55 GMT-0500 (Central Daylight Time),977575.5000000005,022_y_f_h_a.png,O,z,1941,15,1,2963.100000000559,974612.3999999999,7205,VNB,C,13
9,test,4,0.0,2-Back,1.0,m,Thu Oct 16 2025 17:06:55 GMT-0500 (Central Daylight Time),980360.3000000003,012_o_f_n_a.png,O,m,1768,16,1,2776.100000000559,977584.1999999997,7205,VNB,C,14
10,test,4,0.0,2-Back,1.0,m,Thu Oct 16 2025 17:06:55 GMT-0500 (Central Daylight Time),982930.0000000005,025_y_m_d_a.png,O,m,1543,17,1,2560.600000000559,980369.3999999999,7205,VNB,C,15
10,test,4,1.0,2-Back,0.0,m,Thu Oct 16 2025 17:06:55 GMT-0500 (Central Daylight Time),985956.8999999999,014_m_m_d_a.png,O,None,2016,18,1,3023.7000000001863,982933.1999999997,7205,VNB,C,16
0,test,5,1.0,2-Back,,,Thu Oct 16 2025 17:06:55 GMT-0500 (Central Daylight Time),985956.8999999999,022_y_f_d_a.png,O,space,1458,1,1,3023.7000000001863,982933.1999999997,7205,VNB,C,0
0,test,5,1.0,2-Back,,,Thu Oct 16 2025 17:06:55 GMT-0500 (Central Daylight Time),985956.8999999999,012_o_f_h_a.png,O,space,1458,2,1,3023.7000000001863,982933.1999999997,7205,VNB,C,0
0,test,5,1.0,2-Back,0.0,z,Thu Oct 16 2025 17:06:55 GMT-0500 (Central Daylight Time),995154.0000000005,015_o_m_d_a.png,O,m,1506,3,1,2522.300000000745,992631.6999999997,7205,VNB,C,1
0,test,5,1.0,2-Back,0.0,m,Thu Oct 16 2025 17:06:55 GMT-0500 (Central Daylight Time),998188.8999999999,019_m_f_n_a.png,O,None,2016,4,1,3025.2999999998137,995163.6000000001,7205,VNB,C,2
0,test,5,0.0,2-Back,0.0,m,Thu Oct 16 2025 17:06:55 GMT-0500 (Central Daylight Time),1000922.0000000005,014_m_m_h_a.png,O,z,1718,5,1,2726.5,998195.5000000005,7205,VNB,C,3
0,test,5,0.0,2-Back,0.0,z,Thu Oct 16 2025 17:06:55 GMT-0500 (Central Daylight Time),1003953.6999999997,022_y_f_n_a.png,O,None,2018,6,1,3025.7999999998137,1000927.8999999999,7205,VNB,C,4
1,test,5,0.0,2-Back,1.0,m,Thu Oct 16 2025 17:06:55 GMT-0500 (Central Daylight Time),1005884.1000000001,012_o_f_d_a.png,O,m,904,7,1,1922.7000000001863,1003961.3999999999,7205,VNB,C,5
1,test,5,0.0,2-Back,0.0,m,Thu Oct 16 2025 17:06:55 GMT-0500 (Central Daylight Time),1007766.6999999997,015_o_m_h_a.png,O,z,851,8,1,1871.3999999994412,1005895.3000000003,7205,VNB,C,6
1,test,5,1.0,2-Back,0.0,z,Thu Oct 16 2025 17:06:55 GMT-0500 (Central Daylight Time),1010185.1000000001,019_m_f_d_a.png,O,m,1402,9,1,2408.4000000003725,1007776.6999999997,7205,VNB,C,7
1,test,5,0.0,2-Back,0.0,m,Thu Oct 16 2025 17:06:55 GMT-0500 (Central Daylight Time),1012566.3000000003,025_y_m_n_a.png,O,z,1361,10,1,2372.7000000001863,1010193.6000000001,7205,VNB,C,8
1,test,5,0.0,2-Back,0.0,m,Thu Oct 16 2025 17:06:55 GMT-0500 (Central Daylight Time),1015597.1999999997,014_m_m_n_a.png,O,None,2015,11,1,3021.199999999255,1012576.0000000005,7205,VNB,C,9
1,test,5,0.0,2-Back,0.0,m,Thu Oct 16 2025 17:06:55 GMT-0500 (Central Daylight Time),1017763.8999999999,022_y_f_h_a.png,O,z,1140,12,1,2155.899999999441,1015608.0000000005,7205,VNB,C,10
2,test,5,0.0,2-Back,1.0,m,Thu Oct 16 2025 17:06:55 GMT-0500 (Central Daylight Time),1020080.1999999997,025_y_m_d_a.png,O,m,1283,13,1,2305.0999999996275,1017775.1000000001,7205,VNB,C,11
3,test,5,1.0,2-Back,1.0,z,Thu Oct 16 2025 17:06:55 GMT-0500 (Central Daylight Time),1022162.8999999999,019_m_f_h_a.png,O,z,1051,14,1,2073.7000000001863,1020089.1999999997,7205,VNB,C,12
4,test,5,0.0,2-Back,1.0,m,Thu Oct 16 2025 17:06:55 GMT-0500 (Central Daylight Time),1024261.0000000005,015_o_m_n_a.png,O,m,1078,15,1,2089.4000000003725,1022171.6000000001,7205,VNB,C,13
4,test,5,0.0,2-Back,0.0,m,Thu Oct 16 2025 17:06:55 GMT-0500 (Central Daylight Time),1027143.8999999999,014_m_m_d_a.png,O,z,1858,16,1,2873.5999999996275,1024270.3000000003,7205,VNB,C,14
4,test,5,0.0,2-Back,0.0,z,Thu Oct 16 2025 17:06:55 GMT-0500 (Central Daylight Time),1029126.6999999997,012_o_f_n_a.png,O,m,961,17,1,1975.199999999255,1027151.5000000005,7205,VNB,C,15
4,test,5,1.0,2-Back,0.0,m,Thu Oct 16 2025 17:06:55 GMT-0500 (Central Daylight Time),1032160.5000000005,025_y_m_h_a.png,O,None,2017,18,1,3022.0,1029138.5000000005,7205,VNB,C,16
