acc_sum,block,block_c,change,condition,correct,correct_response,datetime,endtime,face,project,response,response_time,row_sel,session_number,start_end,starttime,subject_id,task,task_vers,trial
0,prac,1,,1-Back,,,Wed Mar 18 2026 15:22:33 GMT-0400 (Eastern Daylight Time),,097_m_f_n_a.png,I,space,10962,1,1,,,9074,NNB,B,0
1,prac,1,0.0,1-Back,1.0,m,Wed Mar 18 2026 15:22:33 GMT-0400 (Eastern Daylight Time),176704.79999999702,152_y_f_n_a.png,I,m,1012,2,1,1908.5,174796.29999999702,9074,NNB,B,1
2,prac,1,1.0,1-Back,1.0,z,Wed Mar 18 2026 15:22:33 GMT-0400 (Eastern Daylight Time),178554.0,152_y_f_n_a.png,I,z,1058,3,1,1838.7000000029802,176715.29999999702,9074,NNB,B,2
3,prac,1,0.0,1-Back,1.0,m,Wed Mar 18 2026 15:22:33 GMT-0400 (Eastern Daylight Time),180470.70000000298,176_o_m_n_a.png,I,m,996,4,1,1904.9000000059605,178565.79999999702,9074,NNB,B,3
4,prac,1,0.0,1-Back,1.0,m,Wed Mar 18 2026 15:22:33 GMT-0400 (Eastern Daylight Time),182420.20000000298,126_m_m_n_a.png,I,m,1035,5,1,1938.4000000059605,180481.79999999702,9074,NNB,B,4
5,prac,1,1.0,1-Back,1.0,z,Wed Mar 18 2026 15:22:33 GMT-0400 (Eastern Daylight Time),183920.70000000298,126_m_m_n_a.png,I,z,723,6,1,1493.2999999970198,182427.40000000596,9074,NNB,B,5
6,prac,1,0.0,1-Back,1.0,m,Wed Mar 18 2026 15:22:33 GMT-0400 (Eastern Daylight Time),185787.29999999702,086_o_f_n_a.png,I,m,926,7,1,1856.8999999910593,183930.40000000596,9074,NNB,B,6
7,prac,1,0.0,1-Back,1.0,m,Wed Mar 18 2026 15:22:33 GMT-0400 (Eastern Daylight Time),187887.20000000298,178_m_m_n_a.png,I,m,1186,8,1,2087.7999999970198,185799.40000000596,9074,NNB,B,7
8,prac,1,0.0,1-Back,1.0,m,Wed Mar 18 2026 15:22:33 GMT-0400 (Eastern Daylight Time),189837.29999999702,097_m_f_n_a.png,I,m,1156,9,1,1939.699999988079,187897.60000000894,9074,NNB,B,8
9,prac,1,1.0,1-Back,1.0,z,Wed Mar 18 2026 15:22:33 GMT-0400 (Eastern Daylight Time),191353.90000000596,097_m_f_n_a.png,I,z,725,10,1,1505.0,189848.90000000596,9074,NNB,B,9
10,prac,1,0.0,1-Back,1.0,m,Wed Mar 18 2026 15:22:33 GMT-0400 (Eastern Daylight Time),192954.0,176_o_m_n_a.png,I,m,806,11,1,1586.0,191368.0,9074,NNB,B,10
11,prac,1,0.0,1-Back,1.0,m,Wed Mar 18 2026 15:22:33 GMT-0400 (Eastern Daylight Time),194770.70000000298,173_y_f_n_a.png,I,m,908,12,1,1805.7000000029802,192965.0,9074,NNB,B,11
0,test,1,0.0,1-Back,,,Wed Mar 18 2026 15:22:33 GMT-0400 (Eastern Daylight Time),194770.70000000298,152_y_f_n_a.png,I,space,8144,1,1,1805.7000000029802,192965.0,9074,NNB,B,0
1,test,1,0.0,1-Back,1.0,m,Wed Mar 18 2026 15:22:33 GMT-0400 (Eastern Daylight Time),211937.20000000298,029_m_f_n_a.png,I,m,563,2,1,1575.0,210362.20000000298,9074,NNB,B,1
2,test,1,0.0,1-Back,1.0,m,Wed Mar 18 2026 15:22:33 GMT-0400 (Eastern Daylight Time),213720.40000000596,173_y_f_n_a.png,I,m,756,3,1,1776.2999999970198,211944.10000000894,9074,NNB,B,2
3,test,1,1.0,1-Back,1.0,z,Wed Mar 18 2026 15:22:33 GMT-0400 (Eastern Daylight Time),215487.10000000894,173_y_f_n_a.png,I,z,749,4,1,1759.0,213728.10000000894,9074,NNB,B,3
4,test,1,0.0,1-Back,1.0,m,Wed Mar 18 2026 15:22:33 GMT-0400 (Eastern Daylight Time),217120.10000000894,029_m_f_n_a.png,I,m,613,5,1,1626.1000000089407,215494.0,9074,NNB,B,4
5,test,1,0.0,1-Back,1.0,m,Wed Mar 18 2026 15:22:33 GMT-0400 (Eastern Daylight Time),218953.79999999702,176_o_m_n_a.png,I,m,805,6,1,1825.5999999940395,217128.20000000298,9074,NNB,B,5
6,test,1,1.0,1-Back,1.0,z,Wed Mar 18 2026 15:22:33 GMT-0400 (Eastern Daylight Time),220770.40000000596,176_o_m_n_a.png,I,z,795,7,1,1804.1000000089407,218966.29999999702,9074,NNB,B,6
7,test,1,0.0,1-Back,1.0,m,Wed Mar 18 2026 15:22:33 GMT-0400 (Eastern Daylight Time),222603.79999999702,126_m_m_n_a.png,I,m,802,8,1,1825.199999988079,220778.60000000894,9074,NNB,B,7
8,test,1,0.0,1-Back,1.0,m,Wed Mar 18 2026 15:22:33 GMT-0400 (Eastern Daylight Time),224487.20000000298,086_o_f_n_a.png,I,m,857,9,1,1874.7000000029802,222612.5,9074,NNB,B,8
9,test,1,0.0,1-Back,1.0,m,Wed Mar 18 2026 15:22:33 GMT-0400 (Eastern Daylight Time),226520.5,126_m_m_n_a.png,I,m,1006,10,1,2024.3999999910593,224496.10000000894,9074,NNB,B,9
10,test,1,0.0,1-Back,1.0,m,Wed Mar 18 2026 15:22:33 GMT-0400 (Eastern Daylight Time),228303.60000000894,153_y_m_n_a.png,I,m,764,11,1,1774.0,226529.60000000894,9074,NNB,B,10
11,test,1,1.0,1-Back,1.0,z,Wed Mar 18 2026 15:22:33 GMT-0400 (Eastern Daylight Time),229920.20000000298,153_y_m_n_a.png,I,z,598,12,1,1609.5999999940395,228310.60000000894,9074,NNB,B,11
12,test,1,0.0,1-Back,1.0,m,Wed Mar 18 2026 15:22:33 GMT-0400 (Eastern Daylight Time),231570.40000000596,110_o_f_n_a.png,I,m,628,13,1,1641.9000000059605,229928.5,9074,NNB,B,12
13,test,1,1.0,1-Back,1.0,z,Wed Mar 18 2026 15:22:33 GMT-0400 (Eastern Daylight Time),233270.40000000596,110_o_f_n_a.png,I,z,674,14,1,1689.2000000029802,231581.20000000298,9074,NNB,B,13
14,test,1,0.0,1-Back,1.0,m,Wed Mar 18 2026 15:22:33 GMT-0400 (Eastern Daylight Time),235153.79999999702,013_y_m_n_a.png,I,m,862,15,1,1873.2999999970198,233280.5,9074,NNB,B,14
15,test,1,0.0,1-Back,1.0,m,Wed Mar 18 2026 15:22:33 GMT-0400 (Eastern Daylight Time),237070.40000000596,097_m_f_n_a.png,I,m,883,16,1,1908.6000000089407,235161.79999999702,9074,NNB,B,15
16,test,1,0.0,1-Back,1.0,m,Wed Mar 18 2026 15:22:33 GMT-0400 (Eastern Daylight Time),238887.0,065_o_m_n_a.png,I,m,790,17,1,1808.0999999940395,237078.90000000596,9074,NNB,B,16
17,test,1,0.0,1-Back,1.0,m,Wed Mar 18 2026 15:22:33 GMT-0400 (Eastern Daylight Time),240870.5,097_m_f_n_a.png,I,m,958,18,1,1974.7000000029802,238895.79999999702,9074,NNB,B,17
0,test,2,0.0,1-Back,,,Wed Mar 18 2026 15:22:33 GMT-0400 (Eastern Daylight Time),240870.5,126_m_m_n_a.png,I,space,3654,1,1,1974.7000000029802,238895.79999999702,9074,NNB,B,0
1,test,2,0.0,1-Back,1.0,m,Wed Mar 18 2026 15:22:33 GMT-0400 (Eastern Daylight Time),248270.5,029_m_f_n_a.png,I,m,683,2,1,1707.2999999970198,246563.20000000298,9074,NNB,B,1
2,test,2,1.0,1-Back,1.0,z,Wed Mar 18 2026 15:22:33 GMT-0400 (Eastern Daylight Time),250203.79999999702,029_m_f_n_a.png,I,z,902,3,1,1923.0,248280.79999999702,9074,NNB,B,2
3,test,2,0.0,1-Back,1.0,m,Wed Mar 18 2026 15:22:33 GMT-0400 (Eastern Daylight Time),251970.5,126_m_m_n_a.png,I,m,746,4,1,1757.2999999970198,250213.20000000298,9074,NNB,B,3
4,test,2,0.0,1-Back,1.0,m,Wed Mar 18 2026 15:22:33 GMT-0400 (Eastern Daylight Time),253920.10000000894,153_y_m_n_a.png,I,m,930,5,1,1940.7000000029802,251979.40000000596,9074,NNB,B,4
5,test,2,0.0,1-Back,1.0,m,Wed Mar 18 2026 15:22:33 GMT-0400 (Eastern Daylight Time),255737.10000000894,152_y_f_n_a.png,I,m,788,6,1,1808.9000000059605,253928.20000000298,9074,NNB,B,5
6,test,2,1.0,1-Back,1.0,z,Wed Mar 18 2026 15:22:33 GMT-0400 (Eastern Daylight Time),257387.20000000298,152_y_f_n_a.png,I,z,620,7,1,1641.5,255745.70000000298,9074,NNB,B,6
7,test,2,0.0,1-Back,1.0,m,Wed Mar 18 2026 15:22:33 GMT-0400 (Eastern Daylight Time),259170.5,153_y_m_n_a.png,I,m,761,8,1,1775.5,257395.0,9074,NNB,B,7
8,test,2,0.0,1-Back,1.0,m,Wed Mar 18 2026 15:22:33 GMT-0400 (Eastern Daylight Time),260870.5,110_o_f_n_a.png,I,m,657,9,1,1683.2999999970198,259187.20000000298,9074,NNB,B,8
9,test,2,0.0,1-Back,1.0,m,Wed Mar 18 2026 15:22:33 GMT-0400 (Eastern Daylight Time),262553.90000000596,178_m_m_n_a.png,I,m,654,10,1,1674.6000000089407,260879.29999999702,9074,NNB,B,9
10,test,2,1.0,1-Back,1.0,z,Wed Mar 18 2026 15:22:33 GMT-0400 (Eastern Daylight Time),264270.799999997,178_m_m_n_a.png,I,z,699,11,1,1704.2999999970198,262566.5,9074,NNB,B,10
11,test,2,0.0,1-Back,1.0,m,Wed Mar 18 2026 15:22:33 GMT-0400 (Eastern Daylight Time),266070.5,110_o_f_n_a.png,I,m,774,12,1,1791.8999999910593,264278.60000000894,9074,NNB,B,11
12,test,2,0.0,1-Back,1.0,m,Wed Mar 18 2026 15:22:33 GMT-0400 (Eastern Daylight Time),267870.5,086_o_f_n_a.png,I,m,782,13,1,1792.2999999970198,266078.200000003,9074,NNB,B,12
13,test,2,0.0,1-Back,1.0,m,Wed Mar 18 2026 15:22:33 GMT-0400 (Eastern Daylight Time),269603.799999997,176_o_m_n_a.png,I,m,710,14,1,1724.0999999940395,267879.700000003,9074,NNB,B,13
14,test,2,0.0,1-Back,1.0,m,Wed Mar 18 2026 15:22:33 GMT-0400 (Eastern Daylight Time),271303.799999997,065_o_m_n_a.png,I,m,672,15,1,1689.7999999970198,269614.0,9074,NNB,B,14
15,test,2,1.0,1-Back,1.0,z,Wed Mar 18 2026 15:22:33 GMT-0400 (Eastern Daylight Time),273053.799999997,065_o_m_n_a.png,I,z,717,16,1,1742.2999999970198,271311.5,9074,NNB,B,15
16,test,2,0.0,1-Back,1.0,m,Wed Mar 18 2026 15:22:33 GMT-0400 (Eastern Daylight Time),274737.0,013_y_m_n_a.png,I,m,663,17,1,1674.2999999970198,273062.700000003,9074,NNB,B,16
17,test,2,1.0,1-Back,1.0,z,Wed Mar 18 2026 15:22:33 GMT-0400 (Eastern Daylight Time),276837.10000000894,013_y_m_n_a.png,I,z,1076,18,1,2091.300000011921,274745.799999997,9074,NNB,B,17
0,test,3,1.0,1-Back,,,Wed Mar 18 2026 15:22:33 GMT-0400 (Eastern Daylight Time),276837.10000000894,173_y_f_n_a.png,I,space,2792,1,1,2091.300000011921,274745.799999997,9074,NNB,B,0
1,test,3,0.0,1-Back,1.0,m,Wed Mar 18 2026 15:22:33 GMT-0400 (Eastern Daylight Time),283487.200000003,065_o_m_n_a.png,I,m,683,1,1,1710.0,281777.200000003,9074,NNB,B,1
2,test,3,1.0,1-Back,1.0,z,Wed Mar 18 2026 15:22:33 GMT-0400 (Eastern Daylight Time),285320.5,065_o_m_n_a.png,I,z,806,1,1,1824.0999999940395,283496.40000000596,9074,NNB,B,2
3,test,3,0.0,1-Back,1.0,m,Wed Mar 18 2026 15:22:33 GMT-0400 (Eastern Daylight Time),287103.60000000894,097_m_f_n_a.png,I,m,764,1,1,1773.2000000029802,285330.40000000596,9074,NNB,B,3
4,test,3,1.0,1-Back,1.0,z,Wed Mar 18 2026 15:22:33 GMT-0400 (Eastern Daylight Time),288753.700000003,097_m_f_n_a.png,I,z,629,1,1,1640.5,287113.200000003,9074,NNB,B,4
5,test,3,0.0,1-Back,1.0,m,Wed Mar 18 2026 15:22:33 GMT-0400 (Eastern Daylight Time),290553.799999997,110_o_f_n_a.png,I,m,770,1,1,1792.699999988079,288761.10000000894,9074,NNB,B,5
6,test,3,0.0,1-Back,1.0,m,Wed Mar 18 2026 15:22:33 GMT-0400 (Eastern Daylight Time),292320.299999997,153_y_m_n_a.png,I,m,747,1,1,1756.699999988079,290563.60000000894,9074,NNB,B,6
7,test,3,0.0,1-Back,1.0,m,Wed Mar 18 2026 15:22:33 GMT-0400 (Eastern Daylight Time),294320.299999997,110_o_f_n_a.png,I,m,982,1,1,1991.5999999940395,292328.700000003,9074,NNB,B,7
8,test,3,0.0,1-Back,1.0,m,Wed Mar 18 2026 15:22:33 GMT-0400 (Eastern Daylight Time),296187.10000000894,013_y_m_n_a.png,I,m,836,1,1,1857.2000000029802,294329.90000000596,9074,NNB,B,8
9,test,3,1.0,1-Back,1.0,z,Wed Mar 18 2026 15:22:33 GMT-0400 (Eastern Daylight Time),297904.90000000596,013_y_m_n_a.png,I,z,697,1,1,1707.0,296197.90000000596,9074,NNB,B,9
10,test,3,0.0,1-Back,1.0,m,Wed Mar 18 2026 15:22:33 GMT-0400 (Eastern Daylight Time),299487.10000000894,029_m_f_n_a.png,I,m,564,1,1,1571.9000000059605,297915.200000003,9074,NNB,B,10
11,test,3,0.0,1-Back,1.0,m,Wed Mar 18 2026 15:22:33 GMT-0400 (Eastern Daylight Time),301203.90000000596,152_y_f_n_a.png,I,m,693,1,1,1708.0,299495.90000000596,9074,NNB,B,11
12,test,3,1.0,1-Back,1.0,z,Wed Mar 18 2026 15:22:33 GMT-0400 (Eastern Daylight Time),303053.90000000596,152_y_f_n_a.png,I,z,817,1,1,1841.9000000059605,301212.0,9074,NNB,B,12
13,test,3,0.0,1-Back,1.0,m,Wed Mar 18 2026 15:22:33 GMT-0400 (Eastern Daylight Time),304920.40000000596,029_m_f_n_a.png,I,m,839,1,1,1857.1000000089407,303063.299999997,9074,NNB,B,13
14,test,3,0.0,1-Back,1.0,m,Wed Mar 18 2026 15:22:33 GMT-0400 (Eastern Daylight Time),306587.10000000894,126_m_m_n_a.png,I,m,636,1,1,1656.2000000029802,304930.90000000596,9074,NNB,B,14
15,test,3,1.0,1-Back,1.0,z,Wed Mar 18 2026 15:22:33 GMT-0400 (Eastern Daylight Time),308303.60000000894,126_m_m_n_a.png,I,z,697,1,1,1708.6000000089407,306595.0,9074,NNB,B,15
16,test,3,0.0,1-Back,1.0,m,Wed Mar 18 2026 15:22:33 GMT-0400 (Eastern Daylight Time),309887.200000003,086_o_f_n_a.png,I,m,565,1,1,1575.2999999970198,308311.90000000596,9074,NNB,B,16
17,test,3,1.0,1-Back,1.0,z,Wed Mar 18 2026 15:22:33 GMT-0400 (Eastern Daylight Time),311687.10000000894,086_o_f_n_a.png,I,z,774,1,1,1791.9000000059605,309895.200000003,9074,NNB,B,17
0,test,4,1.0,1-Back,,,Wed Mar 18 2026 15:22:33 GMT-0400 (Eastern Daylight Time),311687.10000000894,097_m_f_n_a.png,I,space,1798,1,1,1791.9000000059605,309895.200000003,9074,NNB,B,0
1,test,4,0.0,1-Back,1.0,m,Wed Mar 18 2026 15:22:33 GMT-0400 (Eastern Daylight Time),317370.40000000596,065_o_m_n_a.png,I,m,721,2,1,1734.9000000059605,315635.5,9074,NNB,B,1
2,test,4,0.0,1-Back,1.0,m,Wed Mar 18 2026 15:22:33 GMT-0400 (Eastern Daylight Time),319353.700000003,097_m_f_n_a.png,I,m,954,3,1,1974.7000000029802,317379.0,9074,NNB,B,2
3,test,4,0.0,1-Back,1.0,m,Wed Mar 18 2026 15:22:33 GMT-0400 (Eastern Daylight Time),321203.5,110_o_f_n_a.png,I,m,827,4,1,1842.0,319361.5,9074,NNB,B,3
4,test,4,1.0,1-Back,1.0,z,Wed Mar 18 2026 15:22:33 GMT-0400 (Eastern Daylight Time),322853.60000000894,110_o_f_n_a.png,I,z,625,5,1,1644.7000000029802,321208.90000000596,9074,NNB,B,4
5,test,4,0.0,1-Back,1.0,m,Wed Mar 18 2026 15:22:33 GMT-0400 (Eastern Daylight Time),324353.700000003,152_y_f_n_a.png,I,m,479,6,1,1488.2000000029802,322865.5,9074,NNB,B,5
6,test,4,0.0,1-Back,1.0,m,Wed Mar 18 2026 15:22:33 GMT-0400 (Eastern Daylight Time),326020.40000000596,153_y_m_n_a.png,I,m,643,7,1,1657.9000000059605,324362.5,9074,NNB,B,6
7,test,4,1.0,1-Back,1.0,z,Wed Mar 18 2026 15:22:33 GMT-0400 (Eastern Daylight Time),327753.90000000596,153_y_m_n_a.png,I,z,705,8,1,1723.5,326030.40000000596,9074,NNB,B,7
8,test,4,0.0,1-Back,1.0,m,Wed Mar 18 2026 15:22:33 GMT-0400 (Eastern Daylight Time),329370.60000000894,152_y_f_n_a.png,I,m,587,9,1,1608.0,327762.60000000894,9074,NNB,B,8
9,test,4,0.0,1-Back,1.0,m,Wed Mar 18 2026 15:22:33 GMT-0400 (Eastern Daylight Time),331070.40000000596,178_m_m_n_a.png,I,m,666,10,1,1691.4000000059605,329379.0,9074,NNB,B,9
10,test,4,1.0,1-Back,1.0,z,Wed Mar 18 2026 15:22:33 GMT-0400 (Eastern Daylight Time),332803.799999997,178_m_m_n_a.png,I,z,710,11,1,1722.199999988079,331081.60000000894,9074,NNB,B,10
11,test,4,0.0,1-Back,1.0,m,Wed Mar 18 2026 15:22:33 GMT-0400 (Eastern Daylight Time),334470.5,086_o_f_n_a.png,I,m,641,12,1,1657.8999999910593,332812.60000000894,9074,NNB,B,11
12,test,4,0.0,1-Back,1.0,m,Wed Mar 18 2026 15:22:33 GMT-0400 (Eastern Daylight Time),336203.5,176_o_m_n_a.png,I,m,702,13,1,1724.0,334479.5,9074,NNB,B,12
13,test,4,0.0,1-Back,1.0,m,Wed Mar 18 2026 15:22:33 GMT-0400 (Eastern Daylight Time),338403.90000000596,086_o_f_n_a.png,I,m,1178,14,1,2196.1000000089407,336207.799999997,9074,NNB,B,13
14,test,4,0.0,1-Back,1.0,m,Wed Mar 18 2026 15:22:33 GMT-0400 (Eastern Daylight Time),340137.200000003,173_y_f_n_a.png,I,m,705,15,1,1724.9000000059605,338412.299999997,9074,NNB,B,14
15,test,4,1.0,1-Back,1.0,z,Wed Mar 18 2026 15:22:33 GMT-0400 (Eastern Daylight Time),341703.90000000596,173_y_f_n_a.png,I,z,539,16,1,1559.2000000029802,340144.700000003,9074,NNB,B,15
16,test,4,0.0,1-Back,1.0,m,Wed Mar 18 2026 15:22:33 GMT-0400 (Eastern Daylight Time),343237.200000003,029_m_f_n_a.png,I,m,509,17,1,1525.5999999940395,341711.60000000894,9074,NNB,B,16
17,test,4,1.0,1-Back,1.0,z,Wed Mar 18 2026 15:22:33 GMT-0400 (Eastern Daylight Time),344870.5,029_m_f_n_a.png,I,z,608,18,1,1625.0999999940395,343245.40000000596,9074,NNB,B,17
0,test,5,1.0,1-Back,,,Wed Mar 18 2026 15:22:33 GMT-0400 (Eastern Daylight Time),344870.5,176_o_m_n_a.png,I,space,1798,1,1,1625.0999999940395,343245.40000000596,9074,NNB,B,0
1,test,5,1.0,1-Back,1.0,z,Wed Mar 18 2026 15:22:33 GMT-0400 (Eastern Daylight Time),350387.10000000894,176_o_m_n_a.png,I,z,679,2,1,1689.6000000089407,348697.5,9074,NNB,B,1
2,test,5,0.0,1-Back,1.0,m,Wed Mar 18 2026 15:22:33 GMT-0400 (Eastern Daylight Time),351987.10000000894,152_y_f_n_a.png,I,m,578,3,1,1591.5,350395.60000000894,9074,NNB,B,2
3,test,5,0.0,1-Back,1.0,m,Wed Mar 18 2026 15:22:33 GMT-0400 (Eastern Daylight Time),353620.5,153_y_m_n_a.png,I,m,609,4,1,1626.3999999910593,351994.10000000894,9074,NNB,B,3
3,test,5,0.0,1-Back,0.0,m,Wed Mar 18 2026 15:22:33 GMT-0400 (Eastern Daylight Time),355337.10000000894,152_y_f_n_a.png,I,z,688,5,1,1708.2000000029802,353628.90000000596,9074,NNB,B,4
4,test,5,0.0,1-Back,1.0,m,Wed Mar 18 2026 15:22:33 GMT-0400 (Eastern Daylight Time),357020.60000000894,126_m_m_n_a.png,I,m,651,6,1,1673.9000000059605,355346.700000003,9074,NNB,B,5
5,test,5,1.0,1-Back,1.0,z,Wed Mar 18 2026 15:22:33 GMT-0400 (Eastern Daylight Time),358920.40000000596,126_m_m_n_a.png,I,z,872,7,1,1891.2000000029802,357029.200000003,9074,NNB,B,6
6,test,5,0.0,1-Back,1.0,m,Wed Mar 18 2026 15:22:33 GMT-0400 (Eastern Daylight Time),360870.5,173_y_f_n_a.png,I,m,925,8,1,1942.0,358928.5,9074,NNB,B,7
7,test,5,0.0,1-Back,1.0,m,Wed Mar 18 2026 15:22:33 GMT-0400 (Eastern Daylight Time),362637.299999997,013_y_m_n_a.png,I,m,734,9,1,1758.199999988079,360879.10000000894,9074,NNB,B,8
8,test,5,0.0,1-Back,1.0,m,Wed Mar 18 2026 15:22:33 GMT-0400 (Eastern Daylight Time),364337.10000000894,173_y_f_n_a.png,I,m,680,10,1,1690.300000011921,362646.799999997,9074,NNB,B,9
9,test,5,0.0,1-Back,1.0,m,Wed Mar 18 2026 15:22:33 GMT-0400 (Eastern Daylight Time),365903.5,086_o_f_n_a.png,I,m,547,11,1,1557.8999999910593,364345.60000000894,9074,NNB,B,10
10,test,5,1.0,1-Back,1.0,z,Wed Mar 18 2026 15:22:33 GMT-0400 (Eastern Daylight Time),367603.799999997,086_o_f_n_a.png,I,z,677,12,1,1690.699999988079,365913.10000000894,9074,NNB,B,11
11,test,5,0.0,1-Back,1.0,m,Wed Mar 18 2026 15:22:33 GMT-0400 (Eastern Daylight Time),369087.0,065_o_m_n_a.png,I,m,465,13,1,1475.0,367612.0,9074,NNB,B,12
12,test,5,0.0,1-Back,1.0,m,Wed Mar 18 2026 15:22:33 GMT-0400 (Eastern Daylight Time),370753.799999997,097_m_f_n_a.png,I,m,645,14,1,1658.199999988079,369095.60000000894,9074,NNB,B,13
13,test,5,1.0,1-Back,1.0,z,Wed Mar 18 2026 15:22:33 GMT-0400 (Eastern Daylight Time),373220.60000000894,097_m_f_n_a.png,I,z,1444,15,1,2455.800000011921,370764.799999997,9074,NNB,B,14
14,test,5,0.0,1-Back,1.0,m,Wed Mar 18 2026 15:22:33 GMT-0400 (Eastern Daylight Time),374770.5,065_o_m_n_a.png,I,m,528,16,1,1541.0999999940395,373229.40000000596,9074,NNB,B,15
15,test,5,0.0,1-Back,1.0,m,Wed Mar 18 2026 15:22:33 GMT-0400 (Eastern Daylight Time),376537.200000003,029_m_f_n_a.png,I,m,738,17,1,1758.9000000059605,374778.299999997,9074,NNB,B,16
16,test,5,0.0,1-Back,1.0,m,Wed Mar 18 2026 15:22:33 GMT-0400 (Eastern Daylight Time),378270.90000000596,178_m_m_n_a.png,I,m,716,18,1,1724.7000000029802,376546.200000003,9074,NNB,B,17
0,prac,1,0.0,2-Back,,,Wed Mar 18 2026 15:22:33 GMT-0400 (Eastern Daylight Time),378270.90000000596,013_y_m_n_a.png,I,space,7511,1,1,1724.7000000029802,376546.200000003,9074,NNB,B,0
0,prac,1,0.0,2-Back,,,Wed Mar 18 2026 15:22:33 GMT-0400 (Eastern Daylight Time),378270.90000000596,029_m_f_n_a.png,I,space,7511,2,1,1724.7000000029802,376546.200000003,9074,NNB,B,0
1,prac,1,1.0,2-Back,1.0,m,Wed Mar 18 2026 15:22:33 GMT-0400 (Eastern Daylight Time),536654.400000006,065_o_m_n_a.png,I,m,906,3,1,1820.4000000059605,534834.0,9074,NNB,B,1
2,prac,1,0.0,2-Back,1.0,m,Wed Mar 18 2026 15:22:33 GMT-0400 (Eastern Daylight Time),538470.799999997,086_o_f_n_a.png,I,m,877,4,1,1803.0,536667.799999997,9074,NNB,B,2
2,prac,1,0.0,2-Back,0.0,z,Wed Mar 18 2026 15:22:33 GMT-0400 (Eastern Daylight Time),540604.1000000089,065_o_m_n_a.png,I,m,1340,5,1,2122.0,538482.1000000089,9074,NNB,B,3
2,prac,1,1.0,2-Back,0.0,z,Wed Mar 18 2026 15:22:33 GMT-0400 (Eastern Daylight Time),542754.1000000089,086_o_f_n_a.png,I,m,1367,6,1,2139.2000000029802,540614.900000006,9074,NNB,B,4
3,prac,1,0.0,2-Back,1.0,m,Wed Mar 18 2026 15:22:33 GMT-0400 (Eastern Daylight Time),544937.400000006,178_m_m_n_a.png,I,m,1267,7,1,2175.2999999970198,542762.1000000089,9074,NNB,B,5
4,prac,1,0.0,2-Back,1.0,m,Wed Mar 18 2026 15:22:33 GMT-0400 (Eastern Daylight Time),546754.1000000089,176_o_m_n_a.png,I,m,900,8,1,1803.7000000029802,544950.400000006,9074,NNB,B,6
5,prac,1,0.0,2-Back,1.0,m,Wed Mar 18 2026 15:22:33 GMT-0400 (Eastern Daylight Time),548737.299999997,173_y_f_n_a.png,I,m,1076,9,1,1972.2999999970198,546765.0,9074,NNB,B,7
6,prac,1,1.0,2-Back,1.0,z,Wed Mar 18 2026 15:22:33 GMT-0400 (Eastern Daylight Time),551036.799999997,176_o_m_n_a.png,I,z,1506,10,1,2288.0999999940395,548748.700000003,9074,NNB,B,8
7,prac,1,0.0,2-Back,1.0,m,Wed Mar 18 2026 15:22:33 GMT-0400 (Eastern Daylight Time),553304.0,152_y_f_n_a.png,I,m,1359,11,1,2260.3999999910593,551043.6000000089,9074,NNB,B,9
7,prac,1,0.0,2-Back,0.0,m,Wed Mar 18 2026 15:22:33 GMT-0400 (Eastern Daylight Time),555220.700000003,178_m_m_n_a.png,I,z,1132,12,1,1907.5,553313.200000003,9074,NNB,B,10
0,test,1,0.0,2-Back,,,Wed Mar 18 2026 15:22:33 GMT-0400 (Eastern Daylight Time),555220.700000003,153_y_m_n_a.png,I,space,7090,1,1,1907.5,553313.200000003,9074,NNB,B,0
0,test,1,0.0,2-Back,,,Wed Mar 18 2026 15:22:33 GMT-0400 (Eastern Daylight Time),555220.700000003,153_y_m_n_a.png,I,space,7090,2,1,1907.5,553313.200000003,9074,NNB,B,0
1,test,1,0.0,2-Back,1.0,m,Wed Mar 18 2026 15:22:33 GMT-0400 (Eastern Daylight Time),579570.700000003,086_o_f_n_a.png,I,m,679,3,1,1692.5,577878.200000003,9074,NNB,B,1
2,test,1,0.0,2-Back,1.0,m,Wed Mar 18 2026 15:22:33 GMT-0400 (Eastern Daylight Time),581487.1000000089,126_m_m_n_a.png,I,m,898,4,1,1907.1000000089407,579580.0,9074,NNB,B,2
3,test,1,1.0,2-Back,1.0,z,Wed Mar 18 2026 15:22:33 GMT-0400 (Eastern Daylight Time),583587.200000003,086_o_f_n_a.png,I,z,1077,5,1,2090.7999999970198,581496.400000006,9074,NNB,B,3
4,test,1,0.0,2-Back,1.0,m,Wed Mar 18 2026 15:22:33 GMT-0400 (Eastern Daylight Time),585637.200000003,152_y_f_n_a.png,I,m,1025,6,1,2041.0999999940395,583596.1000000089,9074,NNB,B,4
4,test,1,0.0,2-Back,0.0,m,Wed Mar 18 2026 15:22:33 GMT-0400 (Eastern Daylight Time),587604.0,126_m_m_n_a.png,I,z,943,7,1,1958.0,585646.0,9074,NNB,B,5
5,test,1,1.0,2-Back,1.0,z,Wed Mar 18 2026 15:22:33 GMT-0400 (Eastern Daylight Time),589987.299999997,152_y_f_n_a.png,I,z,1362,8,1,2374.0,587613.299999997,9074,NNB,B,6
6,test,1,0.0,2-Back,1.0,m,Wed Mar 18 2026 15:22:33 GMT-0400 (Eastern Daylight Time),592220.6000000089,013_y_m_n_a.png,I,m,1201,9,1,2224.300000011921,589996.299999997,9074,NNB,B,7
7,test,1,0.0,2-Back,1.0,m,Wed Mar 18 2026 15:22:33 GMT-0400 (Eastern Daylight Time),594553.900000006,110_o_f_n_a.png,I,m,1305,10,1,2324.1000000089407,592229.799999997,9074,NNB,B,8
8,test,1,1.0,2-Back,1.0,z,Wed Mar 18 2026 15:22:33 GMT-0400 (Eastern Daylight Time),596387.200000003,013_y_m_n_a.png,I,z,811,11,1,1824.4000000059605,594562.799999997,9074,NNB,B,9
9,test,1,0.0,2-Back,1.0,m,Wed Mar 18 2026 15:22:33 GMT-0400 (Eastern Daylight Time),598587.299999997,029_m_f_n_a.png,I,m,1169,12,1,2191.8999999910593,596395.400000006,9074,NNB,B,10
10,test,1,0.0,2-Back,1.0,m,Wed Mar 18 2026 15:22:33 GMT-0400 (Eastern Daylight Time),601320.700000003,029_m_f_n_a.png,I,m,1706,13,1,2724.7999999970198,598595.900000006,9074,NNB,B,11
11,test,1,0.0,2-Back,1.0,m,Wed Mar 18 2026 15:22:33 GMT-0400 (Eastern Daylight Time),603553.799999997,065_o_m_n_a.png,I,m,1212,14,1,2224.3999999910593,601329.400000006,9074,NNB,B,12
12,test,1,0.0,2-Back,1.0,m,Wed Mar 18 2026 15:22:33 GMT-0400 (Eastern Daylight Time),606271.0,110_o_f_n_a.png,I,m,1699,15,1,2709.2999999970198,603561.700000003,9074,NNB,B,13
13,test,1,1.0,2-Back,1.0,z,Wed Mar 18 2026 15:22:33 GMT-0400 (Eastern Daylight Time),608220.6000000089,065_o_m_n_a.png,I,z,918,16,1,1942.6000000089407,606278.0,9074,NNB,B,14
14,test,1,0.0,2-Back,1.0,m,Wed Mar 18 2026 15:22:33 GMT-0400 (Eastern Daylight Time),610353.799999997,097_m_f_n_a.png,I,m,1112,17,1,2125.0,608228.799999997,9074,NNB,B,15
15,test,1,0.0,2-Back,1.0,m,Wed Mar 18 2026 15:22:33 GMT-0400 (Eastern Daylight Time),612537.299999997,178_m_m_n_a.png,I,m,1155,18,1,2174.199999988079,610363.1000000089,9074,NNB,B,16
0,test,2,0.0,2-Back,,,Wed Mar 18 2026 15:22:33 GMT-0400 (Eastern Daylight Time),612537.299999997,178_m_m_n_a.png,I,space,2916,1,1,2174.199999988079,610363.1000000089,9074,NNB,B,0
0,test,2,0.0,2-Back,,,Wed Mar 18 2026 15:22:33 GMT-0400 (Eastern Daylight Time),612537.299999997,173_y_f_n_a.png,I,space,2916,2,1,2174.199999988079,610363.1000000089,9074,NNB,B,0
1,test,2,1.0,2-Back,1.0,z,Wed Mar 18 2026 15:22:33 GMT-0400 (Eastern Daylight Time),622720.299999997,178_m_m_n_a.png,I,z,1064,3,1,2073.699999988079,620646.6000000089,9074,NNB,B,1
2,test,2,0.0,2-Back,1.0,m,Wed Mar 18 2026 15:22:33 GMT-0400 (Eastern Daylight Time),624670.6000000089,097_m_f_n_a.png,I,m,917,4,1,1941.4000000059605,622729.200000003,9074,NNB,B,2
2,test,2,0.0,2-Back,0.0,m,Wed Mar 18 2026 15:22:33 GMT-0400 (Eastern Daylight Time),627087.1000000089,173_y_f_n_a.png,I,z,1399,5,1,2408.0,624679.1000000089,9074,NNB,B,3
3,test,2,0.0,2-Back,1.0,m,Wed Mar 18 2026 15:22:33 GMT-0400 (Eastern Daylight Time),629687.299999997,065_o_m_n_a.png,I,m,1573,6,1,2588.7999999970198,627098.5,9074,NNB,B,4
4,test,2,0.0,2-Back,1.0,m,Wed Mar 18 2026 15:22:33 GMT-0400 (Eastern Daylight Time),631620.6000000089,152_y_f_n_a.png,I,m,910,7,1,1925.0,629695.6000000089,9074,NNB,B,5
5,test,2,1.0,2-Back,1.0,z,Wed Mar 18 2026 15:22:33 GMT-0400 (Eastern Daylight Time),633970.6000000089,065_o_m_n_a.png,I,z,1329,8,1,2341.300000011921,631629.299999997,9074,NNB,B,6
6,test,2,0.0,2-Back,1.0,m,Wed Mar 18 2026 15:22:33 GMT-0400 (Eastern Daylight Time),636604.0,013_y_m_n_a.png,I,m,1602,9,1,2626.0999999940395,633977.900000006,9074,NNB,B,7
6,test,2,0.0,2-Back,0.0,m,Wed Mar 18 2026 15:22:33 GMT-0400 (Eastern Daylight Time),639637.5,013_y_m_n_a.png,I,None,2016,10,1,3025.0,636612.5,9074,NNB,B,8
7,test,2,0.0,2-Back,1.0,m,Wed Mar 18 2026 15:22:33 GMT-0400 (Eastern Daylight Time),641520.400000006,029_m_f_n_a.png,I,m,864,11,1,1871.2000000029802,639649.200000003,9074,NNB,B,9
8,test,2,0.0,2-Back,1.0,m,Wed Mar 18 2026 15:22:33 GMT-0400 (Eastern Daylight Time),643503.6000000089,173_y_f_n_a.png,I,m,964,12,1,1973.800000011921,641529.799999997,9074,NNB,B,10
9,test,2,1.0,2-Back,1.0,z,Wed Mar 18 2026 15:22:33 GMT-0400 (Eastern Daylight Time),645587.400000006,029_m_f_n_a.png,I,z,1062,13,1,2074.5,643512.900000006,9074,NNB,B,11
10,test,2,0.0,2-Back,1.0,m,Wed Mar 18 2026 15:22:33 GMT-0400 (Eastern Daylight Time),647453.900000006,176_o_m_n_a.png,I,m,833,14,1,1854.7000000029802,645599.200000003,9074,NNB,B,12
11,test,2,0.0,2-Back,1.0,m,Wed Mar 18 2026 15:22:33 GMT-0400 (Eastern Daylight Time),649403.900000006,176_o_m_n_a.png,I,m,919,15,1,1941.5,647462.400000006,9074,NNB,B,13
12,test,2,0.0,2-Back,1.0,m,Wed Mar 18 2026 15:22:33 GMT-0400 (Eastern Daylight Time),651353.900000006,110_o_f_n_a.png,I,m,920,16,1,1942.0,649411.900000006,9074,NNB,B,14
13,test,2,0.0,2-Back,1.0,m,Wed Mar 18 2026 15:22:33 GMT-0400 (Eastern Daylight Time),653270.700000003,126_m_m_n_a.png,I,m,891,17,1,1908.0,651362.700000003,9074,NNB,B,15
14,test,2,1.0,2-Back,1.0,z,Wed Mar 18 2026 15:22:33 GMT-0400 (Eastern Daylight Time),655004.0,110_o_f_n_a.png,I,z,702,18,1,1725.2000000029802,653278.799999997,9074,NNB,B,16
0,test,3,1.0,2-Back,,,Wed Mar 18 2026 15:22:33 GMT-0400 (Eastern Daylight Time),655004.0,153_y_m_n_a.png,I,space,1778,1,1,1725.2000000029802,653278.799999997,9074,NNB,B,0
0,test,3,1.0,2-Back,,,Wed Mar 18 2026 15:22:33 GMT-0400 (Eastern Daylight Time),655004.0,153_y_m_n_a.png,I,space,1778,2,1,1725.2000000029802,653278.799999997,9074,NNB,B,0
1,test,3,0.0,2-Back,1.0,m,Wed Mar 18 2026 15:22:33 GMT-0400 (Eastern Daylight Time),663587.299999997,110_o_f_n_a.png,I,m,611,3,1,1624.2999999970198,661963.0,9074,NNB,B,1
2,test,3,0.0,2-Back,1.0,m,Wed Mar 18 2026 15:22:33 GMT-0400 (Eastern Daylight Time),665654.299999997,178_m_m_n_a.png,I,m,1041,4,1,2059.0,663595.299999997,9074,NNB,B,2
3,test,3,1.0,2-Back,1.0,z,Wed Mar 18 2026 15:22:33 GMT-0400 (Eastern Daylight Time),667653.400000006,110_o_f_n_a.png,I,z,976,5,1,1995.1000000089407,665658.299999997,9074,NNB,B,3
4,test,3,0.0,2-Back,1.0,m,Wed Mar 18 2026 15:22:33 GMT-0400 (Eastern Daylight Time),669787.299999997,013_y_m_n_a.png,I,m,1103,6,1,2126.5999999940395,667660.700000003,9074,NNB,B,4
4,test,3,0.0,2-Back,0.0,m,Wed Mar 18 2026 15:22:33 GMT-0400 (Eastern Daylight Time),671620.6000000089,178_m_m_n_a.png,I,z,809,7,1,1824.6000000089407,669796.0,9074,NNB,B,5
4,test,3,1.0,2-Back,0.0,z,Wed Mar 18 2026 15:22:33 GMT-0400 (Eastern Daylight Time),673670.6000000089,013_y_m_n_a.png,I,m,1025,8,1,2041.1000000089407,671629.5,9074,NNB,B,6
5,test,3,0.0,2-Back,1.0,m,Wed Mar 18 2026 15:22:33 GMT-0400 (Eastern Daylight Time),675870.799999997,173_y_f_n_a.png,I,m,1183,9,1,2190.199999988079,673680.6000000089,9074,NNB,B,7
6,test,3,0.0,2-Back,1.0,m,Wed Mar 18 2026 15:22:33 GMT-0400 (Eastern Daylight Time),677870.5,126_m_m_n_a.png,I,m,967,10,1,1991.5999999940395,675878.900000006,9074,NNB,B,8
7,test,3,1.0,2-Back,1.0,z,Wed Mar 18 2026 15:22:33 GMT-0400 (Eastern Daylight Time),679720.6000000089,173_y_f_n_a.png,I,z,823,11,1,1839.4000000059605,677881.200000003,9074,NNB,B,9
7,test,3,1.0,2-Back,0.0,z,Wed Mar 18 2026 15:22:33 GMT-0400 (Eastern Daylight Time),682037.200000003,126_m_m_n_a.png,I,m,1292,12,1,2308.2999999970198,679728.900000006,9074,NNB,B,10
8,test,3,0.0,2-Back,1.0,m,Wed Mar 18 2026 15:22:33 GMT-0400 (Eastern Daylight Time),684104.0,110_o_f_n_a.png,I,m,1040,13,1,2057.8999999910593,682046.1000000089,9074,NNB,B,11
9,test,3,0.0,2-Back,1.0,m,Wed Mar 18 2026 15:22:33 GMT-0400 (Eastern Daylight Time),686237.299999997,097_m_f_n_a.png,I,m,1100,14,1,2125.0,684112.299999997,9074,NNB,B,12
10,test,3,0.0,2-Back,1.0,m,Wed Mar 18 2026 15:22:33 GMT-0400 (Eastern Daylight Time),688203.799999997,065_o_m_n_a.png,I,m,936,15,1,1957.7999999970198,686246.0,9074,NNB,B,13
11,test,3,1.0,2-Back,1.0,z,Wed Mar 18 2026 15:22:33 GMT-0400 (Eastern Daylight Time),690170.200000003,097_m_f_n_a.png,I,z,937,16,1,1956.7999999970198,688213.400000006,9074,NNB,B,14
12,test,3,0.0,2-Back,1.0,m,Wed Mar 18 2026 15:22:33 GMT-0400 (Eastern Daylight Time),692053.900000006,086_o_f_n_a.png,I,m,859,17,1,1879.7000000029802,690174.200000003,9074,NNB,B,15
13,test,3,0.0,2-Back,1.0,m,Wed Mar 18 2026 15:22:33 GMT-0400 (Eastern Daylight Time),694954.0,086_o_f_n_a.png,I,m,1871,18,1,2891.5999999940395,692062.400000006,9074,NNB,B,16
0,test,4,0.0,2-Back,,,Wed Mar 18 2026 15:22:33 GMT-0400 (Eastern Daylight Time),694954.0,176_o_m_n_a.png,I,space,1508,1,1,2891.5999999940395,692062.400000006,9074,NNB,B,0
0,test,4,0.0,2-Back,,,Wed Mar 18 2026 15:22:33 GMT-0400 (Eastern Daylight Time),694954.0,152_y_f_n_a.png,I,space,1508,2,1,2891.5999999940395,692062.400000006,9074,NNB,B,0
0,test,4,1.0,2-Back,0.0,z,Wed Mar 18 2026 15:22:33 GMT-0400 (Eastern Daylight Time),704537.299999997,176_o_m_n_a.png,I,m,1739,3,1,2759.3999999910593,701777.900000006,9074,NNB,B,1
0,test,4,1.0,2-Back,0.0,z,Wed Mar 18 2026 15:22:33 GMT-0400 (Eastern Daylight Time),707570.900000006,152_y_f_n_a.png,I,None,2017,4,1,3024.6000000089407,704546.299999997,9074,NNB,B,2
1,test,4,0.0,2-Back,1.0,m,Wed Mar 18 2026 15:22:33 GMT-0400 (Eastern Daylight Time),709487.200000003,110_o_f_n_a.png,I,m,899,5,1,1908.2999999970198,707578.900000006,9074,NNB,B,3
1,test,4,0.0,2-Back,0.0,m,Wed Mar 18 2026 15:22:33 GMT-0400 (Eastern Daylight Time),711521.700000003,110_o_f_n_a.png,I,z,1014,6,1,2022.0999999940395,709499.6000000089,9074,NNB,B,4
2,test,4,0.0,2-Back,1.0,m,Wed Mar 18 2026 15:22:33 GMT-0400 (Eastern Daylight Time),713487.700000003,029_m_f_n_a.png,I,m,949,7,1,1958.5,711529.200000003,9074,NNB,B,5
3,test,4,0.0,2-Back,1.0,m,Wed Mar 18 2026 15:22:33 GMT-0400 (Eastern Daylight Time),715637.299999997,013_y_m_n_a.png,I,m,1126,8,1,2139.7999999970198,713497.5,9074,NNB,B,6
4,test,4,1.0,2-Back,1.0,z,Wed Mar 18 2026 15:22:33 GMT-0400 (Eastern Daylight Time),717370.6000000089,029_m_f_n_a.png,I,z,703,9,1,1725.300000011921,715645.299999997,9074,NNB,B,7
5,test,4,0.0,2-Back,1.0,m,Wed Mar 18 2026 15:22:33 GMT-0400 (Eastern Daylight Time),719270.799999997,126_m_m_n_a.png,I,m,875,10,1,1891.5,717379.299999997,9074,NNB,B,8
5,test,4,0.0,2-Back,0.0,m,Wed Mar 18 2026 15:22:33 GMT-0400 (Eastern Daylight Time),721087.1000000089,013_y_m_n_a.png,I,z,798,11,1,1807.5,719279.6000000089,9074,NNB,B,9
6,test,4,0.0,2-Back,1.0,m,Wed Mar 18 2026 15:22:33 GMT-0400 (Eastern Daylight Time),722820.6000000089,086_o_f_n_a.png,I,m,710,12,1,1725.800000011921,721094.799999997,9074,NNB,B,10
7,test,4,0.0,2-Back,1.0,m,Wed Mar 18 2026 15:22:33 GMT-0400 (Eastern Daylight Time),724603.900000006,153_y_m_n_a.png,I,m,753,13,1,1774.1000000089407,722829.799999997,9074,NNB,B,11
8,test,4,1.0,2-Back,1.0,z,Wed Mar 18 2026 15:22:33 GMT-0400 (Eastern Daylight Time),726337.0,086_o_f_n_a.png,I,z,714,14,1,1724.5,724612.5,9074,NNB,B,12
8,test,4,1.0,2-Back,0.0,z,Wed Mar 18 2026 15:22:33 GMT-0400 (Eastern Daylight Time),728620.700000003,153_y_m_n_a.png,I,m,1251,15,1,2274.2999999970198,726346.400000006,9074,NNB,B,13
9,test,4,0.0,2-Back,1.0,m,Wed Mar 18 2026 15:22:33 GMT-0400 (Eastern Daylight Time),730587.299999997,178_m_m_n_a.png,I,m,936,16,1,1958.8999999910593,728628.400000006,9074,NNB,B,14
10,test,4,0.0,2-Back,1.0,m,Wed Mar 18 2026 15:22:33 GMT-0400 (Eastern Daylight Time),732437.200000003,097_m_f_n_a.png,I,m,825,17,1,1840.9000000059605,730596.299999997,9074,NNB,B,15
11,test,4,1.0,2-Back,1.0,z,Wed Mar 18 2026 15:22:33 GMT-0400 (Eastern Daylight Time),734237.299999997,178_m_m_n_a.png,I,z,767,18,1,1791.5999999940395,732445.700000003,9074,NNB,B,16
0,test,5,1.0,2-Back,,,Wed Mar 18 2026 15:22:33 GMT-0400 (Eastern Daylight Time),734237.299999997,153_y_m_n_a.png,I,space,1872,1,1,1791.5999999940395,732445.700000003,9074,NNB,B,0
0,test,5,1.0,2-Back,,,Wed Mar 18 2026 15:22:33 GMT-0400 (Eastern Daylight Time),734237.299999997,097_m_f_n_a.png,I,space,1872,2,1,1791.5999999940395,732445.700000003,9074,NNB,B,0
1,test,5,1.0,2-Back,1.0,z,Wed Mar 18 2026 15:22:33 GMT-0400 (Eastern Daylight Time),743070.700000003,153_y_m_n_a.png,I,z,867,3,1,1891.5,741179.200000003,9074,NNB,B,1
2,test,5,1.0,2-Back,1.0,z,Wed Mar 18 2026 15:22:33 GMT-0400 (Eastern Daylight Time),745437.400000006,097_m_f_n_a.png,I,z,1334,4,1,2358.7000000029802,743078.700000003,9074,NNB,B,2
3,test,5,0.0,2-Back,1.0,m,Wed Mar 18 2026 15:22:33 GMT-0400 (Eastern Daylight Time),747320.700000003,086_o_f_n_a.png,I,m,856,5,1,1874.4000000059605,745446.299999997,9074,NNB,B,3
3,test,5,0.0,2-Back,0.0,m,Wed Mar 18 2026 15:22:33 GMT-0400 (Eastern Daylight Time),749237.299999997,153_y_m_n_a.png,I,z,893,6,1,1904.5999999940395,747332.700000003,9074,NNB,B,4
4,test,5,0.0,2-Back,1.0,m,Wed Mar 18 2026 15:22:33 GMT-0400 (Eastern Daylight Time),751337.400000006,173_y_f_n_a.png,I,m,1073,7,1,2092.0,749245.400000006,9074,NNB,B,5
4,test,5,0.0,2-Back,0.0,m,Wed Mar 18 2026 15:22:33 GMT-0400 (Eastern Daylight Time),753437.299999997,086_o_f_n_a.png,I,z,1068,8,1,2089.5999999940395,751347.700000003,9074,NNB,B,6
5,test,5,1.0,2-Back,1.0,z,Wed Mar 18 2026 15:22:33 GMT-0400 (Eastern Daylight Time),756020.700000003,173_y_f_n_a.png,I,z,1559,9,1,2575.4000000059605,753445.299999997,9074,NNB,B,7
6,test,5,0.0,2-Back,1.0,m,Wed Mar 18 2026 15:22:33 GMT-0400 (Eastern Daylight Time),757787.299999997,065_o_m_n_a.png,I,m,737,10,1,1758.0999999940395,756029.200000003,9074,NNB,B,8
7,test,5,0.0,2-Back,1.0,m,Wed Mar 18 2026 15:22:33 GMT-0400 (Eastern Daylight Time),759787.299999997,029_m_f_n_a.png,I,m,969,11,1,1987.3999999910593,757799.900000006,9074,NNB,B,9
8,test,5,0.0,2-Back,1.0,m,Wed Mar 18 2026 15:22:33 GMT-0400 (Eastern Daylight Time),761720.700000003,126_m_m_n_a.png,I,m,906,12,1,1924.4000000059605,759796.299999997,9074,NNB,B,10
9,test,5,0.0,2-Back,1.0,m,Wed Mar 18 2026 15:22:33 GMT-0400 (Eastern Daylight Time),764254.0,065_o_m_n_a.png,I,m,1501,13,1,2525.5,761728.5,9074,NNB,B,11
10,test,5,1.0,2-Back,1.0,z,Wed Mar 18 2026 15:22:33 GMT-0400 (Eastern Daylight Time),766204.0,126_m_m_n_a.png,I,z,919,14,1,1940.5999999940395,764263.400000006,9074,NNB,B,12
11,test,5,0.0,2-Back,1.0,m,Wed Mar 18 2026 15:22:33 GMT-0400 (Eastern Daylight Time),768187.299999997,152_y_f_n_a.png,I,m,955,15,1,1974.199999988079,766213.1000000089,9074,NNB,B,13
12,test,5,0.0,2-Back,1.0,m,Wed Mar 18 2026 15:22:33 GMT-0400 (Eastern Daylight Time),770204.0,176_o_m_n_a.png,I,m,985,16,1,2007.5999999940395,768196.400000006,9074,NNB,B,14
12,test,5,0.0,2-Back,0.0,m,Wed Mar 18 2026 15:22:33 GMT-0400 (Eastern Daylight Time),772920.0,029_m_f_n_a.png,I,z,1690,17,1,2707.0,770213.0,9074,NNB,B,15
13,test,5,1.0,2-Back,1.0,z,Wed Mar 18 2026 15:22:33 GMT-0400 (Eastern Daylight Time),775487.299999997,176_o_m_n_a.png,I,z,1550,18,1,2562.699999988079,772924.6000000089,9074,NNB,B,16
