block_c,block_dur,condition,countdown,datetime,endtime,list,multichar_response,project,response,response_time,session_number,start_end,starttime,subject_id,task,task_vers,trial
,,,,Tue Feb 10 2026 13:02:49 GMT-0500 (Eastern Standard Time),,,,I,space,884,2,,,9029,WL,A,
prac,,0,,Tue Feb 10 2026 13:02:49 GMT-0500 (Eastern Standard Time),,NA,b,I,b,2157,2,,,9029,WL,A,1.0
prac,,0,,Tue Feb 10 2026 13:02:49 GMT-0500 (Eastern Standard Time),,NA,bo,I,o,295,2,,,9029,WL,A,1.0
prac,,0,,Tue Feb 10 2026 13:02:49 GMT-0500 (Eastern Standard Time),,NA,boo,I,o,143,2,,,9029,WL,A,1.0
prac,,0,,Tue Feb 10 2026 13:02:49 GMT-0500 (Eastern Standard Time),,NA,boos,I,s,682,2,,,9029,WL,A,1.0
prac,,0,,Tue Feb 10 2026 13:02:49 GMT-0500 (Eastern Standard Time),,NA,boost,I,t,235,2,,,9029,WL,A,1.0
prac,,0,,Tue Feb 10 2026 13:02:49 GMT-0500 (Eastern Standard Time),,NA,boostenter,I,enter,1217,2,,,9029,WL,A,1.0
1,2.0510001182556152,learn,57948.999881744385,Tue Feb 10 2026 13:02:49 GMT-0500 (Eastern Standard Time),111577.0,A,b,I,b,2028,2,2049.300000190735,109527.69999980927,9029,WL,A,1.0
1,3.1670000553131104,learn,56832.99994468689,Tue Feb 10 2026 13:02:49 GMT-0500 (Eastern Standard Time),112693.5,A,bo,I,o,1099,2,3165.800000190735,109527.69999980927,9029,WL,A,1.0
1,3.3499999046325684,learn,56650.00009536743,Tue Feb 10 2026 13:02:49 GMT-0500 (Eastern Standard Time),112876.69999980927,A,boo,I,o,157,2,3349.0,109527.69999980927,9029,WL,A,1.0
1,3.566999912261963,learn,56433.00008773804,Tue Feb 10 2026 13:02:49 GMT-0500 (Eastern Standard Time),113093.30000019073,A,book,I,k,187,2,3565.6000003814697,109527.69999980927,9029,WL,A,1.0
1,4.33299994468689,learn,55667.00005531311,Tue Feb 10 2026 13:02:49 GMT-0500 (Eastern Standard Time),113859.60000038147,A,bookenter,I,enter,749,2,4331.900000572205,109527.69999980927,9029,WL,A,1.0
1,5.134000062942505,learn,54865.999937057495,Tue Feb 10 2026 13:02:49 GMT-0500 (Eastern Standard Time),114660.10000038147,A,f,I,f,787,2,800.0,113860.10000038147,9029,WL,A,2.0
1,5.266999959945679,learn,54733.00004005432,Tue Feb 10 2026 13:02:49 GMT-0500 (Eastern Standard Time),114793.30000019073,A,fl,I,l,112,2,933.1999998092651,113860.10000038147,9029,WL,A,2.0
1,5.434000015258789,learn,54565.99998474121,Tue Feb 10 2026 13:02:49 GMT-0500 (Eastern Standard Time),114959.9000005722,A,flo,I,o,143,2,1099.8000001907349,113860.10000038147,9029,WL,A,2.0
1,5.566999912261963,learn,54433.00008773804,Tue Feb 10 2026 13:02:49 GMT-0500 (Eastern Standard Time),115093.30000019073,A,flow,I,w,115,2,1233.1999998092651,113860.10000038147,9029,WL,A,2.0
1,5.75,learn,54250.0,Tue Feb 10 2026 13:02:49 GMT-0500 (Eastern Standard Time),115275.80000019073,A,flowe,I,e,157,2,1415.6999998092651,113860.10000038147,9029,WL,A,2.0
1,5.849999904632568,learn,54150.00009536743,Tue Feb 10 2026 13:02:49 GMT-0500 (Eastern Standard Time),115376.60000038147,A,flower,I,r,89,2,1516.5,113860.10000038147,9029,WL,A,2.0
1,6.132999897003174,learn,53867.000102996826,Tue Feb 10 2026 13:02:49 GMT-0500 (Eastern Standard Time),115659.5,A,flowerenter,I,enter,247,2,1799.3999996185303,113860.10000038147,9029,WL,A,2.0
1,6.4670000076293945,learn,53532.999992370605,Tue Feb 10 2026 13:02:49 GMT-0500 (Eastern Standard Time),115993.30000019073,A,t,I,t,315,2,333.19999980926514,115660.10000038147,9029,WL,A,3.0
1,6.601000070571899,learn,53398.9999294281,Tue Feb 10 2026 13:02:49 GMT-0500 (Eastern Standard Time),116126.9000005722,A,tr,I,r,120,2,466.80000019073486,115660.10000038147,9029,WL,A,3.0
1,6.766999959945679,learn,53233.00004005432,Tue Feb 10 2026 13:02:49 GMT-0500 (Eastern Standard Time),116293.19999980927,A,tra,I,a,138,2,633.0999994277954,115660.10000038147,9029,WL,A,3.0
1,6.900000095367432,learn,53099.99990463257,Tue Feb 10 2026 13:02:49 GMT-0500 (Eastern Standard Time),116426.5,A,trai,I,i,110,2,766.3999996185303,115660.10000038147,9029,WL,A,3.0
1,7.066999912261963,learn,52933.00008773804,Tue Feb 10 2026 13:02:49 GMT-0500 (Eastern Standard Time),116593.4000005722,A,train,I,n,153,2,933.3000001907349,115660.10000038147,9029,WL,A,3.0
1,7.367000102996826,learn,52632.999897003174,Tue Feb 10 2026 13:02:49 GMT-0500 (Eastern Standard Time),116893.4000005722,A,trainr,I,r,273,2,1233.3000001907349,115660.10000038147,9029,WL,A,3.0
1,8.049999952316284,learn,51950.000047683716,Tue Feb 10 2026 13:02:49 GMT-0500 (Eastern Standard Time),117576.69999980927,A,train,I,backspace,663,2,1916.5999994277954,115660.10000038147,9029,WL,A,3.0
1,8.467000007629395,learn,51532.999992370605,Tue Feb 10 2026 13:02:49 GMT-0500 (Eastern Standard Time),117992.80000019073,A,trainenter,I,enter,394,2,2332.699999809265,115660.10000038147,9029,WL,A,3.0
1,9.400000095367432,learn,50599.99990463257,Tue Feb 10 2026 13:02:49 GMT-0500 (Eastern Standard Time),118926.69999980927,A,r,I,r,926,2,933.1999998092651,117993.5,9029,WL,A,4.0
1,9.66700005531311,learn,50332.99994468689,Tue Feb 10 2026 13:02:49 GMT-0500 (Eastern Standard Time),119193.30000019073,A,ru,I,u,245,2,1199.8000001907349,117993.5,9029,WL,A,4.0
1,9.950000047683716,learn,50049.999952316284,Tue Feb 10 2026 13:02:49 GMT-0500 (Eastern Standard Time),119476.60000038147,A,rug,I,g,263,2,1483.1000003814697,117993.5,9029,WL,A,4.0
1,11.032999992370605,learn,48967.000007629395,Tue Feb 10 2026 13:02:49 GMT-0500 (Eastern Standard Time),120559.5,A,rugenter,I,enter,1071,2,2566.0,117993.5,9029,WL,A,4.0
1,11.934000015258789,learn,48065.99998474121,Tue Feb 10 2026 13:02:49 GMT-0500 (Eastern Standard Time),121460.0,A,m,I,m,888,2,900.0999994277954,120559.9000005722,9029,WL,A,5.0
1,12.384000062942505,learn,47615.999937057495,Tue Feb 10 2026 13:02:49 GMT-0500 (Eastern Standard Time),121910.0,A,me,I,e,429,2,1350.0999994277954,120559.9000005722,9029,WL,A,5.0
1,12.700000047683716,learn,47299.999952316284,Tue Feb 10 2026 13:02:49 GMT-0500 (Eastern Standard Time),122226.69999980927,A,mea,I,a,299,2,1666.7999992370605,120559.9000005722,9029,WL,A,5.0
1,12.934000015258789,learn,47065.99998474121,Tue Feb 10 2026 13:02:49 GMT-0500 (Eastern Standard Time),122460.0,A,mead,I,d,210,2,1900.0999994277954,120559.9000005722,9029,WL,A,5.0
1,13.184000015258789,learn,46815.99998474121,Tue Feb 10 2026 13:02:49 GMT-0500 (Eastern Standard Time),122710.0,A,meado,I,o,229,2,2150.0999994277954,120559.9000005722,9029,WL,A,5.0
1,13.367000102996826,learn,46632.999897003174,Tue Feb 10 2026 13:02:49 GMT-0500 (Eastern Standard Time),122893.4000005722,A,meadow,I,w,158,2,2333.5,120559.9000005722,9029,WL,A,5.0
1,13.950000047683716,learn,46049.999952316284,Tue Feb 10 2026 13:02:49 GMT-0500 (Eastern Standard Time),123476.19999980927,A,meadowenter,I,enter,566,2,2916.2999992370605,120559.9000005722,9029,WL,A,5.0
1,17.049999952316284,learn,42950.000047683716,Tue Feb 10 2026 13:02:49 GMT-0500 (Eastern Standard Time),126576.60000038147,A,f,I,f,3091,2,3100.0,123476.60000038147,9029,WL,A,6.0
1,17.217000007629395,learn,42782.999992370605,Tue Feb 10 2026 13:02:49 GMT-0500 (Eastern Standard Time),126743.30000019073,A,fi,I,i,147,2,3266.699999809265,123476.60000038147,9029,WL,A,6.0
1,17.433000087738037,learn,42566.99991226196,Tue Feb 10 2026 13:02:49 GMT-0500 (Eastern Standard Time),126959.69999980927,A,fin,I,n,204,2,3483.0999994277954,123476.60000038147,9029,WL,A,6.0
1,17.549999952316284,learn,42450.000047683716,Tue Feb 10 2026 13:02:49 GMT-0500 (Eastern Standard Time),127076.69999980927,A,fing,I,g,98,2,3600.0999994277954,123476.60000038147,9029,WL,A,6.0
1,17.76699995994568,learn,42233.00004005432,Tue Feb 10 2026 13:02:49 GMT-0500 (Eastern Standard Time),127293.30000019073,A,finge,I,e,190,2,3816.699999809265,123476.60000038147,9029,WL,A,6.0
1,17.84999990463257,learn,42150.00009536743,Tue Feb 10 2026 13:02:49 GMT-0500 (Eastern Standard Time),127376.4000005722,A,finger,I,r,70,2,3899.800000190735,123476.60000038147,9029,WL,A,6.0
1,18.40000009536743,learn,41599.99990463257,Tue Feb 10 2026 13:02:49 GMT-0500 (Eastern Standard Time),127926.19999980927,A,fingerenter,I,enter,529,2,4449.599999427795,123476.60000038147,9029,WL,A,6.0
1,60.01699995994568,learn,-16.99995994567871,Tue Feb 10 2026 13:02:49 GMT-0500 (Eastern Standard Time),169543.5,A,None,I,None,41610,2,41616.800000190735,127926.69999980927,9029,WL,A,7.0
2,1.9500000476837158,learn,58049.999952316284,Tue Feb 10 2026 13:02:49 GMT-0500 (Eastern Standard Time),240443.30000019073,A,b,I,b,1928,2,1949.8000001907349,238493.5,9029,WL,A,1.0
2,2.5999999046325684,learn,57400.00009536743,Tue Feb 10 2026 13:02:49 GMT-0500 (Eastern Standard Time),241093.19999980927,A,bo,I,o,633,2,2599.699999809265,238493.5,9029,WL,A,1.0
2,2.75,learn,57250.0,Tue Feb 10 2026 13:02:49 GMT-0500 (Eastern Standard Time),241243.10000038147,A,boo,I,o,127,2,2749.6000003814697,238493.5,9029,WL,A,1.0
2,2.8499999046325684,learn,57150.00009536743,Tue Feb 10 2026 13:02:49 GMT-0500 (Eastern Standard Time),241343.19999980927,A,book,I,k,82,2,2849.699999809265,238493.5,9029,WL,A,1.0
2,4.165999889373779,learn,55834.00011062622,Tue Feb 10 2026 13:02:49 GMT-0500 (Eastern Standard Time),242659.30000019073,A,bookenter,I,enter,1290,2,4165.800000190735,238493.5,9029,WL,A,1.0
2,5.0329999923706055,learn,54967.000007629395,Tue Feb 10 2026 13:02:49 GMT-0500 (Eastern Standard Time),243526.60000038147,A,f,I,f,852,2,866.8000001907349,242659.80000019073,9029,WL,A,2.0
2,6.016999959945679,learn,53983.00004005432,Tue Feb 10 2026 13:02:49 GMT-0500 (Eastern Standard Time),244510.0,A,fl,I,l,957,2,1850.1999998092651,242659.80000019073,9029,WL,A,2.0
2,6.200000047683716,learn,53799.999952316284,Tue Feb 10 2026 13:02:49 GMT-0500 (Eastern Standard Time),244693.19999980927,A,flo,I,o,166,2,2033.3999996185303,242659.80000019073,9029,WL,A,2.0
2,6.349999904632568,learn,53650.00009536743,Tue Feb 10 2026 13:02:49 GMT-0500 (Eastern Standard Time),244843.10000038147,A,flow,I,w,118,2,2183.300000190735,242659.80000019073,9029,WL,A,2.0
2,6.599999904632568,learn,53400.00009536743,Tue Feb 10 2026 13:02:49 GMT-0500 (Eastern Standard Time),245093.19999980927,A,flowe,I,e,224,2,2433.3999996185303,242659.80000019073,9029,WL,A,2.0
2,6.733000040054321,learn,53266.99995994568,Tue Feb 10 2026 13:02:49 GMT-0500 (Eastern Standard Time),245226.60000038147,A,flower,I,r,110,2,2566.800000190735,242659.80000019073,9029,WL,A,2.0
2,7.266000032424927,learn,52733.99996757507,Tue Feb 10 2026 13:02:49 GMT-0500 (Eastern Standard Time),245759.30000019073,A,flowerenter,I,enter,520,2,3099.5,242659.80000019073,9029,WL,A,2.0
2,7.599999904632568,learn,52400.00009536743,Tue Feb 10 2026 13:02:49 GMT-0500 (Eastern Standard Time),246093.30000019073,A,t,I,t,312,2,333.6000003814697,245759.69999980927,9029,WL,A,3.0
2,7.665999889373779,learn,52334.00011062622,Tue Feb 10 2026 13:02:49 GMT-0500 (Eastern Standard Time),246159.4000005722,A,tr,I,r,53,2,399.70000076293945,245759.69999980927,9029,WL,A,3.0
2,7.950000047683716,learn,52049.999952316284,Tue Feb 10 2026 13:02:49 GMT-0500 (Eastern Standard Time),246443.10000038147,A,tra,I,a,261,2,683.4000005722046,245759.69999980927,9029,WL,A,3.0
2,7.966000080108643,learn,52033.99991989136,Tue Feb 10 2026 13:02:49 GMT-0500 (Eastern Standard Time),246459.19999980927,A,trai,I,i,1,2,699.5,245759.69999980927,9029,WL,A,3.0
2,8.266999959945679,learn,51733.00004005432,Tue Feb 10 2026 13:02:49 GMT-0500 (Eastern Standard Time),246759.80000019073,A,train,I,n,281,2,1000.1000003814697,245759.69999980927,9029,WL,A,3.0
2,9.1489999294281,learn,50851.0000705719,Tue Feb 10 2026 13:02:49 GMT-0500 (Eastern Standard Time),247642.69999980927,A,trainenter,I,enter,860,2,1883.0,245759.69999980927,9029,WL,A,3.0
2,10.016999959945679,learn,49983.00004005432,Tue Feb 10 2026 13:02:49 GMT-0500 (Eastern Standard Time),248509.9000005722,A,r,I,r,845,2,866.8000001907349,247643.10000038147,9029,WL,A,4.0
2,10.233000040054321,learn,49766.99995994568,Tue Feb 10 2026 13:02:49 GMT-0500 (Eastern Standard Time),248726.5,A,ru,I,u,198,2,1083.3999996185303,247643.10000038147,9029,WL,A,4.0
2,10.41700005531311,learn,49582.99994468689,Tue Feb 10 2026 13:02:49 GMT-0500 (Eastern Standard Time),248909.80000019073,A,rug,I,g,157,2,1266.6999998092651,247643.10000038147,9029,WL,A,4.0
2,10.733000040054321,learn,49266.99995994568,Tue Feb 10 2026 13:02:49 GMT-0500 (Eastern Standard Time),249226.0,A,rugenter,I,enter,285,2,1582.8999996185303,247643.10000038147,9029,WL,A,4.0
2,11.16700005531311,learn,48832.99994468689,Tue Feb 10 2026 13:02:49 GMT-0500 (Eastern Standard Time),249659.9000005722,A,m,I,m,414,2,433.4000005722046,249226.5,9029,WL,A,5.0
2,11.367000102996826,learn,48632.999897003174,Tue Feb 10 2026 13:02:49 GMT-0500 (Eastern Standard Time),249859.9000005722,A,me,I,e,183,2,633.4000005722046,249226.5,9029,WL,A,5.0
2,11.532999992370605,learn,48467.000007629395,Tue Feb 10 2026 13:02:49 GMT-0500 (Eastern Standard Time),250026.60000038147,A,mea,I,a,143,2,800.1000003814697,249226.5,9029,WL,A,5.0
2,11.683000087738037,learn,48316.99991226196,Tue Feb 10 2026 13:02:49 GMT-0500 (Eastern Standard Time),250176.4000005722,A,mead,I,d,137,2,949.9000005722046,249226.5,9029,WL,A,5.0
2,11.949000120162964,learn,48050.999879837036,Tue Feb 10 2026 13:02:49 GMT-0500 (Eastern Standard Time),250442.80000019073,A,meado,I,o,244,2,1216.3000001907349,249226.5,9029,WL,A,5.0
2,12.065999984741211,learn,47934.00001525879,Tue Feb 10 2026 13:02:49 GMT-0500 (Eastern Standard Time),250559.69999980927,A,meadow,I,w,110,2,1333.1999998092651,249226.5,9029,WL,A,5.0
2,12.549000024795532,learn,47450.99997520447,Tue Feb 10 2026 13:02:49 GMT-0500 (Eastern Standard Time),251042.80000019073,A,meadowenter,I,enter,468,2,1816.3000001907349,249226.5,9029,WL,A,5.0
2,12.933000087738037,learn,47066.99991226196,Tue Feb 10 2026 13:02:49 GMT-0500 (Eastern Standard Time),251426.4000005722,A,f,I,f,372,2,383.20000076293945,251043.19999980927,9029,WL,A,6.0
2,13.0,learn,47000.0,Tue Feb 10 2026 13:02:49 GMT-0500 (Eastern Standard Time),251493.0,A,fi,I,i,49,2,449.80000019073486,251043.19999980927,9029,WL,A,6.0
2,13.183000087738037,learn,46816.99991226196,Tue Feb 10 2026 13:02:49 GMT-0500 (Eastern Standard Time),251676.60000038147,A,fin,I,n,152,2,633.4000005722046,251043.19999980927,9029,WL,A,6.0
2,13.683000087738037,learn,46316.99991226196,Tue Feb 10 2026 13:02:49 GMT-0500 (Eastern Standard Time),252176.4000005722,A,fing,I,g,488,2,1133.2000007629395,251043.19999980927,9029,WL,A,6.0
2,13.91700005531311,learn,46082.99994468689,Tue Feb 10 2026 13:02:49 GMT-0500 (Eastern Standard Time),252409.80000019073,A,finge,I,e,209,2,1366.6000003814697,251043.19999980927,9029,WL,A,6.0
2,13.999000072479248,learn,46000.99992752075,Tue Feb 10 2026 13:02:49 GMT-0500 (Eastern Standard Time),252492.69999980927,A,finger,I,r,48,2,1449.5,251043.19999980927,9029,WL,A,6.0
2,14.58299994468689,learn,45417.00005531311,Tue Feb 10 2026 13:02:49 GMT-0500 (Eastern Standard Time),253076.0,A,fingerenter,I,enter,564,2,2032.8000001907349,251043.19999980927,9029,WL,A,6.0
2,15.049999952316284,learn,44950.000047683716,Tue Feb 10 2026 13:02:49 GMT-0500 (Eastern Standard Time),253543.19999980927,A,s,I,s,451,2,466.79999923706055,253076.4000005722,9029,WL,A,7.0
2,15.266000032424927,learn,44733.99996757507,Tue Feb 10 2026 13:02:49 GMT-0500 (Eastern Standard Time),253759.5,A,sa,I,a,206,2,683.0999994277954,253076.4000005722,9029,WL,A,7.0
2,15.400000095367432,learn,44599.99990463257,Tue Feb 10 2026 13:02:49 GMT-0500 (Eastern Standard Time),253893.0,A,sal,I,l,117,2,816.5999994277954,253076.4000005722,9029,WL,A,7.0
2,15.683000087738037,learn,44316.99991226196,Tue Feb 10 2026 13:02:49 GMT-0500 (Eastern Standard Time),254176.30000019073,A,salt,I,t,271,2,1099.8999996185303,253076.4000005722,9029,WL,A,7.0
2,15.966000080108643,learn,44033.99991989136,Tue Feb 10 2026 13:02:49 GMT-0500 (Eastern Standard Time),254459.4000005722,A,saltenter,I,enter,256,2,1383.0,253076.4000005722,9029,WL,A,7.0
2,16.299000024795532,learn,43700.99997520447,Tue Feb 10 2026 13:02:49 GMT-0500 (Eastern Standard Time),254792.4000005722,A,h,I,h,315,2,332.6000003814697,254459.80000019073,9029,WL,A,8.0
2,16.48200011253357,learn,43517.99988746643,Tue Feb 10 2026 13:02:49 GMT-0500 (Eastern Standard Time),254975.69999980927,A,ha,I,a,174,2,515.8999996185303,254459.80000019073,9029,WL,A,8.0
2,16.632999897003174,learn,43367.000102996826,Tue Feb 10 2026 13:02:49 GMT-0500 (Eastern Standard Time),255126.5,A,har,I,r,137,2,666.6999998092651,254459.80000019073,9029,WL,A,8.0
2,16.782999992370605,learn,43217.000007629395,Tue Feb 10 2026 13:02:49 GMT-0500 (Eastern Standard Time),255276.60000038147,A,harp,I,p,120,2,816.8000001907349,254459.80000019073,9029,WL,A,8.0
2,17.115999937057495,learn,42884.000062942505,Tue Feb 10 2026 13:02:49 GMT-0500 (Eastern Standard Time),255609.4000005722,A,harpenter,I,enter,310,2,1149.6000003814697,254459.80000019073,9029,WL,A,8.0
2,17.58299994468689,learn,42417.00005531311,Tue Feb 10 2026 13:02:49 GMT-0500 (Eastern Standard Time),256076.69999980927,A,b,I,b,445,2,466.8999996185303,255609.80000019073,9029,WL,A,9.0
2,17.75,learn,42250.0,Tue Feb 10 2026 13:02:49 GMT-0500 (Eastern Standard Time),256243.10000038147,A,bu,I,u,155,2,633.3000001907349,255609.80000019073,9029,WL,A,9.0
2,17.967000007629395,learn,42032.999992370605,Tue Feb 10 2026 13:02:49 GMT-0500 (Eastern Standard Time),256459.9000005722,A,but,I,t,193,2,850.1000003814697,255609.80000019073,9029,WL,A,9.0
2,18.08299994468689,learn,41917.00005531311,Tue Feb 10 2026 13:02:49 GMT-0500 (Eastern Standard Time),256576.4000005722,A,butt,I,t,104,2,966.6000003814697,255609.80000019073,9029,WL,A,9.0
2,18.25,learn,41750.0,Tue Feb 10 2026 13:02:49 GMT-0500 (Eastern Standard Time),256743.10000038147,A,butto,I,o,139,2,1133.3000001907349,255609.80000019073,9029,WL,A,9.0
2,18.615999937057495,learn,41384.000062942505,Tue Feb 10 2026 13:02:49 GMT-0500 (Eastern Standard Time),257109.80000019073,A,button,I,n,347,2,1500.0,255609.80000019073,9029,WL,A,9.0
2,19.06599998474121,learn,40934.00001525879,Tue Feb 10 2026 13:02:49 GMT-0500 (Eastern Standard Time),257559.30000019073,A,buttonenter,I,enter,428,2,1949.5,255609.80000019073,9029,WL,A,9.0
2,19.98300004005432,learn,40016.99995994568,Tue Feb 10 2026 13:02:49 GMT-0500 (Eastern Standard Time),258476.60000038147,A,k,I,k,896,2,916.9000005722046,257559.69999980927,9029,WL,A,10.0
2,20.183000087738037,learn,39816.99991226196,Tue Feb 10 2026 13:02:49 GMT-0500 (Eastern Standard Time),258676.5,A,ke,I,e,183,2,1116.8000001907349,257559.69999980927,9029,WL,A,10.0
2,20.31599998474121,learn,39684.00001525879,Tue Feb 10 2026 13:02:49 GMT-0500 (Eastern Standard Time),258809.80000019073,A,key,I,y,103,2,1250.1000003814697,257559.69999980927,9029,WL,A,10.0
2,20.882999897003174,learn,39117.000102996826,Tue Feb 10 2026 13:02:49 GMT-0500 (Eastern Standard Time),259376.0,A,keyenter,I,enter,544,2,1816.3000001907349,257559.69999980927,9029,WL,A,10.0
2,21.48300004005432,learn,38516.99995994568,Tue Feb 10 2026 13:02:49 GMT-0500 (Eastern Standard Time),259976.60000038147,A,c,I,c,583,2,600.1999998092651,259376.4000005722,9029,WL,A,11.0
2,21.700000047683716,learn,38299.999952316284,Tue Feb 10 2026 13:02:49 GMT-0500 (Eastern Standard Time),260193.10000038147,A,ch,I,h,204,2,816.6999998092651,259376.4000005722,9029,WL,A,11.0
2,22.049999952316284,learn,37950.000047683716,Tue Feb 10 2026 13:02:49 GMT-0500 (Eastern Standard Time),260542.9000005722,A,chi,I,i,339,2,1166.5,259376.4000005722,9029,WL,A,11.0
2,22.367000102996826,learn,37632.999897003174,Tue Feb 10 2026 13:02:49 GMT-0500 (Eastern Standard Time),260860.0,A,chim,I,m,292,2,1483.5999994277954,259376.4000005722,9029,WL,A,11.0
2,22.59999990463257,learn,37400.00009536743,Tue Feb 10 2026 13:02:49 GMT-0500 (Eastern Standard Time),261093.19999980927,A,chimn,I,n,216,2,1716.7999992370605,259376.4000005722,9029,WL,A,11.0
2,22.799999952316284,learn,37200.000047683716,Tue Feb 10 2026 13:02:49 GMT-0500 (Eastern Standard Time),261293.19999980927,A,chimne,I,e,175,2,1916.7999992370605,259376.4000005722,9029,WL,A,11.0
2,22.98300004005432,learn,37016.99995994568,Tue Feb 10 2026 13:02:49 GMT-0500 (Eastern Standard Time),261476.5,A,chimney,I,y,166,2,2100.0999994277954,259376.4000005722,9029,WL,A,11.0
2,23.91599988937378,learn,36084.00011062622,Tue Feb 10 2026 13:02:49 GMT-0500 (Eastern Standard Time),262409.4000005722,A,chimneyenter,I,enter,902,2,3033.0,259376.4000005722,9029,WL,A,11.0
2,46.51600003242493,learn,13483.999967575073,Tue Feb 10 2026 13:02:49 GMT-0500 (Eastern Standard Time),285009.80000019073,A,l,I,l,22590,2,22600.0,262409.80000019073,9029,WL,A,12.0
2,46.71600008010864,learn,13283.999919891357,Tue Feb 10 2026 13:02:49 GMT-0500 (Eastern Standard Time),285209.80000019073,A,lo,I,o,176,2,22800.0,262409.80000019073,9029,WL,A,12.0
2,46.83299994468689,learn,13167.00005531311,Tue Feb 10 2026 13:02:49 GMT-0500 (Eastern Standard Time),285326.30000019073,A,log,I,g,89,2,22916.5,262409.80000019073,9029,WL,A,12.0
2,47.29900002479553,learn,12700.999975204468,Tue Feb 10 2026 13:02:49 GMT-0500 (Eastern Standard Time),285792.69999980927,A,logenter,I,enter,445,2,23382.89999961853,262409.80000019073,9029,WL,A,12.0
2,60.01699995994568,learn,-16.99995994567871,Tue Feb 10 2026 13:02:49 GMT-0500 (Eastern Standard Time),298509.80000019073,A,None,I,None,12710,2,12716.800000190735,285793.0,9029,WL,A,13.0
3,1.7330000400543213,learn,58266.99995994568,Tue Feb 10 2026 13:02:49 GMT-0500 (Eastern Standard Time),375092.5,A,b,I,b,1717,2,1732.5999994277954,373359.9000005722,9029,WL,A,1.0
3,2.25,learn,57750.0,Tue Feb 10 2026 13:02:49 GMT-0500 (Eastern Standard Time),375609.69999980927,A,bo,I,o,498,2,2249.7999992370605,373359.9000005722,9029,WL,A,1.0
3,2.367000102996826,learn,57632.999897003174,Tue Feb 10 2026 13:02:49 GMT-0500 (Eastern Standard Time),375726.60000038147,A,boo,I,o,106,2,2366.699999809265,373359.9000005722,9029,WL,A,1.0
3,2.5169999599456787,learn,57483.00004005432,Tue Feb 10 2026 13:02:49 GMT-0500 (Eastern Standard Time),375875.9000005722,A,book,I,k,125,2,2516.0,373359.9000005722,9029,WL,A,1.0
3,2.9170000553131104,learn,57082.99994468689,Tue Feb 10 2026 13:02:49 GMT-0500 (Eastern Standard Time),376275.9000005722,A,bookenter,I,enter,386,2,2916.0,373359.9000005722,9029,WL,A,1.0
3,3.75,learn,56250.0,Tue Feb 10 2026 13:02:49 GMT-0500 (Eastern Standard Time),377109.69999980927,A,f,I,f,819,2,833.3999996185303,376276.30000019073,9029,WL,A,2.0
3,3.9830000400543213,learn,56016.99995994568,Tue Feb 10 2026 13:02:49 GMT-0500 (Eastern Standard Time),377342.69999980927,A,fl,I,l,222,2,1066.3999996185303,376276.30000019073,9029,WL,A,2.0
3,4.184000015258789,learn,55815.99998474121,Tue Feb 10 2026 13:02:49 GMT-0500 (Eastern Standard Time),377542.9000005722,A,flo,I,o,181,2,1266.6000003814697,376276.30000019073,9029,WL,A,2.0
3,4.299999952316284,learn,55700.000047683716,Tue Feb 10 2026 13:02:49 GMT-0500 (Eastern Standard Time),377659.60000038147,A,flow,I,w,93,2,1383.3000001907349,376276.30000019073,9029,WL,A,2.0
3,4.5329999923706055,learn,55467.000007629395,Tue Feb 10 2026 13:02:49 GMT-0500 (Eastern Standard Time),377892.60000038147,A,flowe,I,e,215,2,1616.3000001907349,376276.30000019073,9029,WL,A,2.0
3,4.7170000076293945,learn,55282.999992370605,Tue Feb 10 2026 13:02:49 GMT-0500 (Eastern Standard Time),378076.4000005722,A,flower,I,r,164,2,1800.1000003814697,376276.30000019073,9029,WL,A,2.0
3,5.16700005531311,learn,54832.99994468689,Tue Feb 10 2026 13:02:49 GMT-0500 (Eastern Standard Time),378525.9000005722,A,flowerenter,I,enter,423,2,2249.6000003814697,376276.30000019073,9029,WL,A,2.0
3,5.549999952316284,learn,54450.000047683716,Tue Feb 10 2026 13:02:49 GMT-0500 (Eastern Standard Time),378909.69999980927,A,t,I,t,361,2,383.5,378526.19999980927,9029,WL,A,3.0
3,5.617000102996826,learn,54382.999897003174,Tue Feb 10 2026 13:02:49 GMT-0500 (Eastern Standard Time),378976.19999980927,A,tr,I,r,54,2,450.0,378526.19999980927,9029,WL,A,3.0
3,5.834000110626221,learn,54165.99988937378,Tue Feb 10 2026 13:02:49 GMT-0500 (Eastern Standard Time),379192.9000005722,A,tra,I,a,197,2,666.7000007629395,378526.19999980927,9029,WL,A,3.0
3,5.950000047683716,learn,54049.999952316284,Tue Feb 10 2026 13:02:49 GMT-0500 (Eastern Standard Time),379309.69999980927,A,trai,I,i,92,2,783.5,378526.19999980927,9029,WL,A,3.0
3,6.7170000076293945,learn,53282.999992370605,Tue Feb 10 2026 13:02:49 GMT-0500 (Eastern Standard Time),380076.5,A,train,I,n,743,2,1550.3000001907349,378526.19999980927,9029,WL,A,3.0
3,7.133000135421753,learn,52866.99986457825,Tue Feb 10 2026 13:02:49 GMT-0500 (Eastern Standard Time),380492.5,A,trainenter,I,enter,392,2,1966.3000001907349,378526.19999980927,9029,WL,A,3.0
3,7.483999967575073,learn,52516.00003242493,Tue Feb 10 2026 13:02:49 GMT-0500 (Eastern Standard Time),380843.0,A,r,I,r,331,2,350.19999980926514,380492.80000019073,9029,WL,A,4.0
3,7.75,learn,52250.0,Tue Feb 10 2026 13:02:49 GMT-0500 (Eastern Standard Time),381109.69999980927,A,ru,I,u,249,2,616.8999996185303,380492.80000019073,9029,WL,A,4.0
3,8.016999959945679,learn,51983.00004005432,Tue Feb 10 2026 13:02:49 GMT-0500 (Eastern Standard Time),381376.30000019073,A,rug,I,g,254,2,883.5,380492.80000019073,9029,WL,A,4.0
3,8.400000095367432,learn,51599.99990463257,Tue Feb 10 2026 13:02:49 GMT-0500 (Eastern Standard Time),381759.19999980927,A,rugenter,I,enter,371,2,1266.3999996185303,380492.80000019073,9029,WL,A,4.0
3,8.867000102996826,learn,51132.999897003174,Tue Feb 10 2026 13:02:49 GMT-0500 (Eastern Standard Time),382226.30000019073,A,l,I,l,456,2,466.80000019073486,381759.5,9029,WL,A,5.0
3,9.100000143051147,learn,50899.99985694885,Tue Feb 10 2026 13:02:49 GMT-0500 (Eastern Standard Time),382459.69999980927,A,lo,I,o,208,2,700.1999998092651,381759.5,9029,WL,A,5.0
3,9.233999967575073,learn,50766.00003242493,Tue Feb 10 2026 13:02:49 GMT-0500 (Eastern Standard Time),382593.0,A,log,I,g,118,2,833.5,381759.5,9029,WL,A,5.0
3,9.933000087738037,learn,50066.99991226196,Tue Feb 10 2026 13:02:49 GMT-0500 (Eastern Standard Time),383292.5,A,logenter,I,enter,671,2,1533.0,381759.5,9029,WL,A,5.0
3,10.967000007629395,learn,49032.999992370605,Tue Feb 10 2026 13:02:49 GMT-0500 (Eastern Standard Time),384326.4000005722,A,f,I,f,1019,2,1033.5,383292.9000005722,9029,WL,A,6.0
3,11.100000143051147,learn,48899.99985694885,Tue Feb 10 2026 13:02:49 GMT-0500 (Eastern Standard Time),384459.80000019073,A,fi,I,i,111,2,1166.8999996185303,383292.9000005722,9029,WL,A,6.0
3,11.384000062942505,learn,48615.999937057495,Tue Feb 10 2026 13:02:49 GMT-0500 (Eastern Standard Time),384742.80000019073,A,fin,I,n,255,2,1449.8999996185303,383292.9000005722,9029,WL,A,6.0
3,11.600000143051147,learn,48399.99985694885,Tue Feb 10 2026 13:02:49 GMT-0500 (Eastern Standard Time),384959.5,A,fing,I,g,206,2,1666.5999994277954,383292.9000005722,9029,WL,A,6.0
3,11.83400011062622,learn,48165.99988937378,Tue Feb 10 2026 13:02:49 GMT-0500 (Eastern Standard Time),385193.0,A,finge,I,e,212,2,1900.0999994277954,383292.9000005722,9029,WL,A,6.0
3,11.950000047683716,learn,48049.999952316284,Tue Feb 10 2026 13:02:49 GMT-0500 (Eastern Standard Time),385309.80000019073,A,finger,I,r,93,2,2016.8999996185303,383292.9000005722,9029,WL,A,6.0
3,12.516999959945679,learn,47483.00004005432,Tue Feb 10 2026 13:02:49 GMT-0500 (Eastern Standard Time),385875.9000005722,A,fingerenter,I,enter,549,2,2583.0,383292.9000005722,9029,WL,A,6.0
3,14.516999959945679,learn,45483.00004005432,Tue Feb 10 2026 13:02:49 GMT-0500 (Eastern Standard Time),387876.30000019073,A,h,I,h,1988,2,2000.0,385876.30000019073,9029,WL,A,7.0
3,14.66700005531311,learn,45332.99994468689,Tue Feb 10 2026 13:02:49 GMT-0500 (Eastern Standard Time),388026.4000005722,A,ha,I,a,128,2,2150.1000003814697,385876.30000019073,9029,WL,A,7.0
3,14.817000150680542,learn,45182.99984931946,Tue Feb 10 2026 13:02:49 GMT-0500 (Eastern Standard Time),388176.0,A,har,I,r,133,2,2299.699999809265,385876.30000019073,9029,WL,A,7.0
3,15.183000087738037,learn,44816.99991226196,Tue Feb 10 2026 13:02:49 GMT-0500 (Eastern Standard Time),388542.60000038147,A,harp,I,p,348,2,2666.300000190735,385876.30000019073,9029,WL,A,7.0
3,15.66700005531311,learn,44332.99994468689,Tue Feb 10 2026 13:02:49 GMT-0500 (Eastern Standard Time),389025.9000005722,A,harpenter,I,enter,469,2,3149.6000003814697,385876.30000019073,9029,WL,A,7.0
3,16.884000062942505,learn,43115.999937057495,Tue Feb 10 2026 13:02:49 GMT-0500 (Eastern Standard Time),390243.0,A,s,I,s,1205,2,1216.6999998092651,389026.30000019073,9029,WL,A,8.0
3,17.01699995994568,learn,42983.00004005432,Tue Feb 10 2026 13:02:49 GMT-0500 (Eastern Standard Time),390376.5,A,sa,I,a,110,2,1350.1999998092651,389026.30000019073,9029,WL,A,8.0
3,17.16700005531311,learn,42832.99994468689,Tue Feb 10 2026 13:02:49 GMT-0500 (Eastern Standard Time),390526.69999980927,A,sal,I,l,131,2,1500.3999996185303,389026.30000019073,9029,WL,A,8.0
3,17.40000009536743,learn,42599.99990463257,Tue Feb 10 2026 13:02:49 GMT-0500 (Eastern Standard Time),390759.69999980927,A,salt,I,t,204,2,1733.3999996185303,389026.30000019073,9029,WL,A,8.0
3,17.799999952316284,learn,42200.000047683716,Tue Feb 10 2026 13:02:49 GMT-0500 (Eastern Standard Time),391159.30000019073,A,saltenter,I,enter,380,2,2133.0,389026.30000019073,9029,WL,A,8.0
3,22.450000047683716,learn,37549.999952316284,Tue Feb 10 2026 13:02:49 GMT-0500 (Eastern Standard Time),395809.69999980927,A,b,I,b,4641,2,4650.0,391159.69999980927,9029,WL,A,9.0
3,22.534000158309937,learn,37465.99984169006,Tue Feb 10 2026 13:02:49 GMT-0500 (Eastern Standard Time),395892.9000005722,A,bu,I,u,66,2,4733.200000762939,391159.69999980927,9029,WL,A,9.0
3,22.75,learn,37250.0,Tue Feb 10 2026 13:02:49 GMT-0500 (Eastern Standard Time),396109.60000038147,A,but,I,t,191,2,4949.900000572205,391159.69999980927,9029,WL,A,9.0
3,22.884000062942505,learn,37115.999937057495,Tue Feb 10 2026 13:02:49 GMT-0500 (Eastern Standard Time),396243.10000038147,A,butt,I,t,119,2,5083.400000572205,391159.69999980927,9029,WL,A,9.0
3,23.100000143051147,learn,36899.99985694885,Tue Feb 10 2026 13:02:49 GMT-0500 (Eastern Standard Time),396459.80000019073,A,butto,I,o,193,2,5300.10000038147,391159.69999980927,9029,WL,A,9.0
3,23.350000143051147,learn,36649.99985694885,Tue Feb 10 2026 13:02:49 GMT-0500 (Eastern Standard Time),396709.69999980927,A,button,I,n,224,2,5550.0,391159.69999980927,9029,WL,A,9.0
3,24.40000009536743,learn,35599.99990463257,Tue Feb 10 2026 13:02:49 GMT-0500 (Eastern Standard Time),397759.10000038147,A,buttonenter,I,enter,1038,2,6599.400000572205,391159.69999980927,9029,WL,A,9.0
3,25.43400001525879,learn,34565.99998474121,Tue Feb 10 2026 13:02:49 GMT-0500 (Eastern Standard Time),398792.9000005722,A,g,I,g,1017,2,1033.5,397759.4000005722,9029,WL,A,10.0
3,25.567000150680542,learn,34432.99984931946,Tue Feb 10 2026 13:02:49 GMT-0500 (Eastern Standard Time),398926.5,A,go,I,o,107,2,1167.0999994277954,397759.4000005722,9029,WL,A,10.0
3,25.75,learn,34250.0,Tue Feb 10 2026 13:02:49 GMT-0500 (Eastern Standard Time),399109.80000019073,A,gol,I,l,156,2,1350.3999996185303,397759.4000005722,9029,WL,A,10.0
3,25.93400001525879,learn,34065.99998474121,Tue Feb 10 2026 13:02:49 GMT-0500 (Eastern Standard Time),399293.0,A,gold,I,d,158,2,1533.5999994277954,397759.4000005722,9029,WL,A,10.0
3,26.23300004005432,learn,33766.99995994568,Tue Feb 10 2026 13:02:49 GMT-0500 (Eastern Standard Time),399592.60000038147,A,goldenter,I,enter,278,2,1833.1999998092651,397759.4000005722,9029,WL,A,10.0
3,26.51699995994568,learn,33483.00004005432,Tue Feb 10 2026 13:02:49 GMT-0500 (Eastern Standard Time),399876.4000005722,A,a,I,a,271,2,283.4000005722046,399593.0,9029,WL,A,11.0
3,27.58300018310547,learn,32416.99981689453,Tue Feb 10 2026 13:02:49 GMT-0500 (Eastern Standard Time),400942.69999980927,A,ap,I,p,1056,2,1349.6999998092651,399593.0,9029,WL,A,11.0
3,27.700000047683716,learn,32299.999952316284,Tue Feb 10 2026 13:02:49 GMT-0500 (Eastern Standard Time),401059.69999980927,A,app,I,p,103,2,1466.6999998092651,399593.0,9029,WL,A,11.0
3,27.93400001525879,learn,32065.99998474121,Tue Feb 10 2026 13:02:49 GMT-0500 (Eastern Standard Time),401293.10000038147,A,appl,I,l,209,2,1700.1000003814697,399593.0,9029,WL,A,11.0
3,28.067000150680542,learn,31932.999849319458,Tue Feb 10 2026 13:02:49 GMT-0500 (Eastern Standard Time),401426.10000038147,A,apple,I,e,120,2,1833.1000003814697,399593.0,9029,WL,A,11.0
3,28.299999952316284,learn,31700.000047683716,Tue Feb 10 2026 13:02:49 GMT-0500 (Eastern Standard Time),401659.19999980927,A,appleenter,I,enter,209,2,2066.199999809265,399593.0,9029,WL,A,11.0
3,28.867000102996826,learn,31132.999897003174,Tue Feb 10 2026 13:02:49 GMT-0500 (Eastern Standard Time),402226.4000005722,A,r,I,r,556,2,566.8000001907349,401659.60000038147,9029,WL,A,12.0
3,29.034000158309937,learn,30965.999841690063,Tue Feb 10 2026 13:02:49 GMT-0500 (Eastern Standard Time),402393.0,A,ra,I,a,146,2,733.3999996185303,401659.60000038147,9029,WL,A,12.0
3,29.25,learn,30750.0,Tue Feb 10 2026 13:02:49 GMT-0500 (Eastern Standard Time),402609.69999980927,A,rat,I,t,203,2,950.0999994277954,401659.60000038147,9029,WL,A,12.0
3,29.43400001525879,learn,30565.99998474121,Tue Feb 10 2026 13:02:49 GMT-0500 (Eastern Standard Time),402792.9000005722,A,ratt,I,t,152,2,1133.3000001907349,401659.60000038147,9029,WL,A,12.0
3,29.65000009536743,learn,30349.99990463257,Tue Feb 10 2026 13:02:49 GMT-0500 (Eastern Standard Time),403009.60000038147,A,rattl,I,l,204,2,1350.0,401659.60000038147,9029,WL,A,12.0
3,29.867000102996826,learn,30132.999897003174,Tue Feb 10 2026 13:02:49 GMT-0500 (Eastern Standard Time),403226.4000005722,A,rattle,I,e,195,2,1566.8000001907349,401659.60000038147,9029,WL,A,12.0
3,30.76699995994568,learn,29233.00004005432,Tue Feb 10 2026 13:02:49 GMT-0500 (Eastern Standard Time),404125.9000005722,A,rattleenter,I,enter,872,2,2466.300000190735,401659.60000038147,9029,WL,A,12.0
3,35.35000014305115,learn,24649.999856948853,Tue Feb 10 2026 13:02:49 GMT-0500 (Eastern Standard Time),408709.60000038147,A,g,I,g,4570,2,4583.400000572205,404126.19999980927,9029,WL,A,13.0
3,35.48399996757507,learn,24516.000032424927,Tue Feb 10 2026 13:02:49 GMT-0500 (Eastern Standard Time),408843.0,A,go,I,o,109,2,4716.800000190735,404126.19999980927,9029,WL,A,13.0
3,35.66700005531311,learn,24332.99994468689,Tue Feb 10 2026 13:02:49 GMT-0500 (Eastern Standard Time),409026.30000019073,A,gol,I,l,170,2,4900.10000038147,404126.19999980927,9029,WL,A,13.0
3,35.75,learn,24250.0,Tue Feb 10 2026 13:02:49 GMT-0500 (Eastern Standard Time),409109.30000019073,A,gold,I,d,57,2,4983.10000038147,404126.19999980927,9029,WL,A,13.0
3,36.25,learn,23750.0,Tue Feb 10 2026 13:02:49 GMT-0500 (Eastern Standard Time),409609.10000038147,A,goldenter,I,enter,479,2,5482.900000572205,404126.19999980927,9029,WL,A,13.0
3,55.367000102996826,learn,4632.999897003174,Tue Feb 10 2026 13:02:49 GMT-0500 (Eastern Standard Time),428726.4000005722,A,r,I,r,19102,2,19116.800000190735,409609.60000038147,9029,WL,A,14.0
3,55.68400001525879,learn,4315.999984741211,Tue Feb 10 2026 13:02:49 GMT-0500 (Eastern Standard Time),429043.0,A,ra,I,a,300,2,19433.39999961853,409609.60000038147,9029,WL,A,14.0
3,55.967000007629395,learn,4032.9999923706055,Tue Feb 10 2026 13:02:49 GMT-0500 (Eastern Standard Time),429326.30000019073,A,rat,I,t,257,2,19716.699999809265,409609.60000038147,9029,WL,A,14.0
3,56.08400011062622,learn,3915.9998893737793,Tue Feb 10 2026 13:02:49 GMT-0500 (Eastern Standard Time),429442.9000005722,A,ratt,I,t,102,2,19833.300000190735,409609.60000038147,9029,WL,A,14.0
3,56.35000014305115,learn,3649.9998569488525,Tue Feb 10 2026 13:02:49 GMT-0500 (Eastern Standard Time),429709.69999980927,A,rattl,I,l,242,2,20100.099999427795,409609.60000038147,9029,WL,A,14.0
3,56.53400015830994,learn,3465.9998416900635,Tue Feb 10 2026 13:02:49 GMT-0500 (Eastern Standard Time),429892.80000019073,A,rattle,I,e,166,2,20283.199999809265,409609.60000038147,9029,WL,A,14.0
3,56.801000118255615,learn,3198.9998817443848,Tue Feb 10 2026 13:02:49 GMT-0500 (Eastern Standard Time),430160.19999980927,A,rattleenter,I,enter,256,2,20550.599999427795,409609.60000038147,9029,WL,A,14.0
3,60.01699995994568,learn,-16.99995994567871,Tue Feb 10 2026 13:02:49 GMT-0500 (Eastern Standard Time),433376.4000005722,A,None,I,None,3209,2,3215.9000005722046,430160.5,9029,WL,A,15.0
4,1.4170000553131104,learn,58582.99994468689,Tue Feb 10 2026 13:02:49 GMT-0500 (Eastern Standard Time),502742.80000019073,A,b,I,b,1400,2,1416.1000003814697,501326.69999980927,9029,WL,A,1.0
4,1.9170000553131104,learn,58082.99994468689,Tue Feb 10 2026 13:02:49 GMT-0500 (Eastern Standard Time),503243.0,A,bo,I,o,477,2,1916.3000001907349,501326.69999980927,9029,WL,A,1.0
4,2.0329999923706055,learn,57967.000007629395,Tue Feb 10 2026 13:02:49 GMT-0500 (Eastern Standard Time),503359.30000019073,A,boo,I,o,105,2,2032.6000003814697,501326.69999980927,9029,WL,A,1.0
4,2.4830000400543213,learn,57516.99995994568,Tue Feb 10 2026 13:02:49 GMT-0500 (Eastern Standard Time),503809.5,A,book,I,k,437,2,2482.800000190735,501326.69999980927,9029,WL,A,1.0
4,4.14900016784668,learn,55850.99983215332,Tue Feb 10 2026 13:02:49 GMT-0500 (Eastern Standard Time),505475.69999980927,A,bookenter,I,enter,1649,2,4149.0,501326.69999980927,9029,WL,A,1.0
4,5.183000087738037,learn,54816.99991226196,Tue Feb 10 2026 13:02:49 GMT-0500 (Eastern Standard Time),506509.5,A,f,I,f,1012,2,1033.3999996185303,505476.10000038147,9029,WL,A,2.0
4,5.400000095367432,learn,54599.99990463257,Tue Feb 10 2026 13:02:49 GMT-0500 (Eastern Standard Time),506726.19999980927,A,fl,I,l,198,2,1250.0999994277954,505476.10000038147,9029,WL,A,2.0
4,5.6000001430511475,learn,54399.99985694885,Tue Feb 10 2026 13:02:49 GMT-0500 (Eastern Standard Time),506926.30000019073,A,flo,I,o,175,2,1450.1999998092651,505476.10000038147,9029,WL,A,2.0
4,5.700000047683716,learn,54299.999952316284,Tue Feb 10 2026 13:02:49 GMT-0500 (Eastern Standard Time),507026.30000019073,A,flow,I,w,76,2,1550.1999998092651,505476.10000038147,9029,WL,A,2.0
4,5.933000087738037,learn,54066.99991226196,Tue Feb 10 2026 13:02:49 GMT-0500 (Eastern Standard Time),507259.60000038147,A,flowe,I,e,204,2,1783.5,505476.10000038147,9029,WL,A,2.0
4,6.065999984741211,learn,53934.00001525879,Tue Feb 10 2026 13:02:49 GMT-0500 (Eastern Standard Time),507392.69999980927,A,flower,I,r,121,2,1916.5999994277954,505476.10000038147,9029,WL,A,2.0
4,6.516000032424927,learn,53483.99996757507,Tue Feb 10 2026 13:02:49 GMT-0500 (Eastern Standard Time),507842.4000005722,A,flowerenter,I,enter,434,2,2366.300000190735,505476.10000038147,9029,WL,A,2.0
4,6.91700005531311,learn,53082.99994468689,Tue Feb 10 2026 13:02:49 GMT-0500 (Eastern Standard Time),508242.9000005722,A,t,I,t,389,2,399.9000005722046,507843.0,9029,WL,A,3.0
4,7.016999959945679,learn,52983.00004005432,Tue Feb 10 2026 13:02:49 GMT-0500 (Eastern Standard Time),508342.80000019073,A,tr,I,r,81,2,499.80000019073486,507843.0,9029,WL,A,3.0
4,7.216000080108643,learn,52783.99991989136,Tue Feb 10 2026 13:02:49 GMT-0500 (Eastern Standard Time),508542.60000038147,A,tra,I,a,181,2,699.6000003814697,507843.0,9029,WL,A,3.0
4,7.315999984741211,learn,52684.00001525879,Tue Feb 10 2026 13:02:49 GMT-0500 (Eastern Standard Time),508642.80000019073,A,trai,I,i,86,2,799.8000001907349,507843.0,9029,WL,A,3.0
4,7.516999959945679,learn,52483.00004005432,Tue Feb 10 2026 13:02:49 GMT-0500 (Eastern Standard Time),508842.80000019073,A,train,I,n,178,2,999.8000001907349,507843.0,9029,WL,A,3.0
4,7.83299994468689,learn,52167.00005531311,Tue Feb 10 2026 13:02:49 GMT-0500 (Eastern Standard Time),509159.10000038147,A,trainenter,I,enter,288,2,1316.1000003814697,507843.0,9029,WL,A,3.0
4,8.766999959945679,learn,51233.00004005432,Tue Feb 10 2026 13:02:49 GMT-0500 (Eastern Standard Time),510092.9000005722,A,r,I,r,912,2,933.5,509159.4000005722,9029,WL,A,4.0
4,9.0,learn,51000.0,Tue Feb 10 2026 13:02:49 GMT-0500 (Eastern Standard Time),510326.19999980927,A,ru,I,u,215,2,1166.7999992370605,509159.4000005722,9029,WL,A,4.0
4,9.183000087738037,learn,50816.99991226196,Tue Feb 10 2026 13:02:49 GMT-0500 (Eastern Standard Time),510509.60000038147,A,rug,I,g,158,2,1350.1999998092651,509159.4000005722,9029,WL,A,4.0
4,9.5,learn,50500.0,Tue Feb 10 2026 13:02:49 GMT-0500 (Eastern Standard Time),510825.69999980927,A,rugenter,I,enter,283,2,1666.2999992370605,509159.4000005722,9029,WL,A,4.0
4,11.133000135421753,learn,48866.99986457825,Tue Feb 10 2026 13:02:49 GMT-0500 (Eastern Standard Time),512459.5,A,m,I,m,1614,2,1633.3000001907349,510826.19999980927,9029,WL,A,5.0
4,11.299999952316284,learn,48700.000047683716,Tue Feb 10 2026 13:02:49 GMT-0500 (Eastern Standard Time),512626.19999980927,A,me,I,e,152,2,1800.0,510826.19999980927,9029,WL,A,5.0
4,11.516999959945679,learn,48483.00004005432,Tue Feb 10 2026 13:02:49 GMT-0500 (Eastern Standard Time),512842.80000019073,A,mea,I,a,195,2,2016.6000003814697,510826.19999980927,9029,WL,A,5.0
4,11.683000087738037,learn,48316.99991226196,Tue Feb 10 2026 13:02:49 GMT-0500 (Eastern Standard Time),513009.5,A,mead,I,d,146,2,2183.300000190735,510826.19999980927,9029,WL,A,5.0
4,11.933000087738037,learn,48066.99991226196,Tue Feb 10 2026 13:02:49 GMT-0500 (Eastern Standard Time),513259.5,A,meado,I,o,228,2,2433.300000190735,510826.19999980927,9029,WL,A,5.0
4,12.049999952316284,learn,47950.000047683716,Tue Feb 10 2026 13:02:49 GMT-0500 (Eastern Standard Time),513376.10000038147,A,meadow,I,w,104,2,2549.9000005722046,510826.19999980927,9029,WL,A,5.0
4,12.299000024795532,learn,47700.99997520447,Tue Feb 10 2026 13:02:49 GMT-0500 (Eastern Standard Time),513625.69999980927,A,meadowenter,I,enter,226,2,2799.5,510826.19999980927,9029,WL,A,5.0
4,13.567000150680542,learn,46432.99984931946,Tue Feb 10 2026 13:02:49 GMT-0500 (Eastern Standard Time),514892.9000005722,A,h,I,h,1246,2,1266.8000001907349,513626.10000038147,9029,WL,A,6.0
4,13.650000095367432,learn,46349.99990463257,Tue Feb 10 2026 13:02:49 GMT-0500 (Eastern Standard Time),514976.10000038147,A,ha,I,a,71,2,1350.0,513626.10000038147,9029,WL,A,6.0
4,13.83299994468689,learn,46167.00005531311,Tue Feb 10 2026 13:02:49 GMT-0500 (Eastern Standard Time),515159.5,A,har,I,r,166,2,1533.3999996185303,513626.10000038147,9029,WL,A,6.0
4,14.150000095367432,learn,45849.99990463257,Tue Feb 10 2026 13:02:49 GMT-0500 (Eastern Standard Time),515476.30000019073,A,harp,I,p,301,2,1850.1999998092651,513626.10000038147,9029,WL,A,6.0
4,14.516000032424927,learn,45483.99996757507,Tue Feb 10 2026 13:02:49 GMT-0500 (Eastern Standard Time),515842.5,A,harpenter,I,enter,351,2,2216.3999996185303,513626.10000038147,9029,WL,A,6.0
4,15.433000087738037,learn,44566.99991226196,Tue Feb 10 2026 13:02:49 GMT-0500 (Eastern Standard Time),516759.60000038147,A,s,I,s,901,2,916.6999998092651,515842.9000005722,9029,WL,A,7.0
4,15.549999952316284,learn,44450.000047683716,Tue Feb 10 2026 13:02:49 GMT-0500 (Eastern Standard Time),516876.19999980927,A,sa,I,a,92,2,1033.2999992370605,515842.9000005722,9029,WL,A,7.0
4,15.782999992370605,learn,44217.000007629395,Tue Feb 10 2026 13:02:49 GMT-0500 (Eastern Standard Time),517109.5,A,sal,I,l,216,2,1266.5999994277954,515842.9000005722,9029,WL,A,7.0
4,16.016000032424927,learn,43983.99996757507,Tue Feb 10 2026 13:02:49 GMT-0500 (Eastern Standard Time),517342.5,A,salt,I,t,222,2,1499.5999994277954,515842.9000005722,9029,WL,A,7.0
4,16.33299994468689,learn,43667.00005531311,Tue Feb 10 2026 13:02:49 GMT-0500 (Eastern Standard Time),517659.10000038147,A,saltenter,I,enter,284,2,1816.1999998092651,515842.9000005722,9029,WL,A,7.0
4,17.383000135421753,learn,42616.99986457825,Tue Feb 10 2026 13:02:49 GMT-0500 (Eastern Standard Time),518709.60000038147,A,f,I,f,1037,2,1050.1999998092651,517659.4000005722,9029,WL,A,8.0
4,17.51699995994568,learn,42483.00004005432,Tue Feb 10 2026 13:02:49 GMT-0500 (Eastern Standard Time),518842.9000005722,A,fi,I,i,111,2,1183.5,517659.4000005722,9029,WL,A,8.0
4,17.717000007629395,learn,42282.999992370605,Tue Feb 10 2026 13:02:49 GMT-0500 (Eastern Standard Time),519042.80000019073,A,fin,I,n,185,2,1383.3999996185303,517659.4000005722,9029,WL,A,8.0
4,17.83299994468689,learn,42167.00005531311,Tue Feb 10 2026 13:02:49 GMT-0500 (Eastern Standard Time),519159.5,A,fing,I,g,97,2,1500.0999994277954,517659.4000005722,9029,WL,A,8.0
4,18.016000032424927,learn,41983.99996757507,Tue Feb 10 2026 13:02:49 GMT-0500 (Eastern Standard Time),519342.5,A,finge,I,e,165,2,1683.0999994277954,517659.4000005722,9029,WL,A,8.0
4,18.117000102996826,learn,41882.999897003174,Tue Feb 10 2026 13:02:49 GMT-0500 (Eastern Standard Time),519443.0,A,finger,I,r,85,2,1783.5999994277954,517659.4000005722,9029,WL,A,8.0
4,18.699000120162964,learn,41300.999879837036,Tue Feb 10 2026 13:02:49 GMT-0500 (Eastern Standard Time),520025.69999980927,A,fingerenter,I,enter,551,2,2366.2999992370605,517659.4000005722,9029,WL,A,8.0
4,19.15000009536743,learn,40849.99990463257,Tue Feb 10 2026 13:02:49 GMT-0500 (Eastern Standard Time),520476.19999980927,A,a,I,a,430,2,450.0999994277954,520026.10000038147,9029,WL,A,9.0
4,19.40000009536743,learn,40599.99990463257,Tue Feb 10 2026 13:02:49 GMT-0500 (Eastern Standard Time),520726.10000038147,A,ap,I,p,233,2,700.0,520026.10000038147,9029,WL,A,9.0
4,19.549999952316284,learn,40450.000047683716,Tue Feb 10 2026 13:02:49 GMT-0500 (Eastern Standard Time),520876.19999980927,A,app,I,p,126,2,850.0999994277954,520026.10000038147,9029,WL,A,9.0
4,19.850000143051147,learn,40149.99985694885,Tue Feb 10 2026 13:02:49 GMT-0500 (Eastern Standard Time),521176.10000038147,A,appl,I,l,272,2,1150.0,520026.10000038147,9029,WL,A,9.0
4,20.032999992370605,learn,39967.000007629395,Tue Feb 10 2026 13:02:49 GMT-0500 (Eastern Standard Time),521359.30000019073,A,apple,I,e,173,2,1333.1999998092651,520026.10000038147,9029,WL,A,9.0
4,20.366000175476074,learn,39633.999824523926,Tue Feb 10 2026 13:02:49 GMT-0500 (Eastern Standard Time),521692.4000005722,A,appleenter,I,enter,307,2,1666.3000001907349,520026.10000038147,9029,WL,A,9.0
4,21.133000135421753,learn,38866.99986457825,Tue Feb 10 2026 13:02:49 GMT-0500 (Eastern Standard Time),522459.5,A,c,I,c,748,2,766.6999998092651,521692.80000019073,9029,WL,A,10.0
4,21.31599998474121,learn,38684.00001525879,Tue Feb 10 2026 13:02:49 GMT-0500 (Eastern Standard Time),522642.80000019073,A,ch,I,h,171,2,950.0,521692.80000019073,9029,WL,A,10.0
4,21.40000009536743,learn,38599.99990463257,Tue Feb 10 2026 13:02:49 GMT-0500 (Eastern Standard Time),522726.10000038147,A,chi,I,i,64,2,1033.3000001907349,521692.80000019073,9029,WL,A,10.0
4,22.15000009536743,learn,37849.99990463257,Tue Feb 10 2026 13:02:49 GMT-0500 (Eastern Standard Time),523476.10000038147,A,chim,I,m,734,2,1783.3000001907349,521692.80000019073,9029,WL,A,10.0
4,22.383000135421753,learn,37616.99986457825,Tue Feb 10 2026 13:02:49 GMT-0500 (Eastern Standard Time),523709.60000038147,A,chimn,I,n,205,2,2016.8000001907349,521692.80000019073,9029,WL,A,10.0
4,22.58299994468689,learn,37417.00005531311,Tue Feb 10 2026 13:02:49 GMT-0500 (Eastern Standard Time),523909.60000038147,A,chimne,I,e,172,2,2216.800000190735,521692.80000019073,9029,WL,A,10.0
4,22.766000032424927,learn,37233.99996757507,Tue Feb 10 2026 13:02:49 GMT-0500 (Eastern Standard Time),524092.69999980927,A,chimney,I,y,151,2,2399.8999996185303,521692.80000019073,9029,WL,A,10.0
4,23.199000120162964,learn,36800.999879837036,Tue Feb 10 2026 13:02:49 GMT-0500 (Eastern Standard Time),524525.5,A,chimneyenter,I,enter,423,2,2832.699999809265,521692.80000019073,9029,WL,A,10.0
4,26.131999969482422,learn,33868.00003051758,Tue Feb 10 2026 13:02:49 GMT-0500 (Eastern Standard Time),527458.6999998093,A,l,I,l,2921,2,2932.8999996185303,524525.8000001907,9029,WL,A,11.0
4,26.40000009536743,learn,33599.99990463257,Tue Feb 10 2026 13:02:49 GMT-0500 (Eastern Standard Time),527726.1999998093,A,lo,I,o,244,2,3200.3999996185303,524525.8000001907,9029,WL,A,11.0
4,27.0,learn,33000.0,Tue Feb 10 2026 13:02:49 GMT-0500 (Eastern Standard Time),528326.1000003815,A,log,I,g,574,2,3800.300000190735,524525.8000001907,9029,WL,A,11.0
4,27.433000087738037,learn,32566.999912261963,Tue Feb 10 2026 13:02:49 GMT-0500 (Eastern Standard Time),528759.1000003815,A,logenter,I,enter,413,2,4233.300000190735,524525.8000001907,9029,WL,A,11.0
4,28.100000143051147,learn,31899.999856948853,Tue Feb 10 2026 13:02:49 GMT-0500 (Eastern Standard Time),529426.1999998093,A,r,I,r,656,2,666.7999992370605,528759.4000005722,9029,WL,A,12.0
4,28.282999992370605,learn,31717.000007629395,Tue Feb 10 2026 13:02:49 GMT-0500 (Eastern Standard Time),529609.5,A,ra,I,a,162,2,850.0999994277954,528759.4000005722,9029,WL,A,12.0
4,28.56599998474121,learn,31434.00001525879,Tue Feb 10 2026 13:02:49 GMT-0500 (Eastern Standard Time),529892.8000001907,A,rat,I,t,258,2,1133.3999996185303,528759.4000005722,9029,WL,A,12.0
4,28.73300004005432,learn,31266.99995994568,Tue Feb 10 2026 13:02:49 GMT-0500 (Eastern Standard Time),530059.5,A,ratt,I,t,143,2,1300.0999994277954,528759.4000005722,9029,WL,A,12.0
4,28.98300004005432,learn,31016.99995994568,Tue Feb 10 2026 13:02:49 GMT-0500 (Eastern Standard Time),530309.6000003815,A,rattl,I,l,234,2,1550.1999998092651,528759.4000005722,9029,WL,A,12.0
4,29.216000080108643,learn,30783.999919891357,Tue Feb 10 2026 13:02:49 GMT-0500 (Eastern Standard Time),530542.6000003815,A,rattle,I,e,222,2,1783.1999998092651,528759.4000005722,9029,WL,A,12.0
4,30.39900016784668,learn,29600.99983215332,Tue Feb 10 2026 13:02:49 GMT-0500 (Eastern Standard Time),531725.6000003815,A,rattleenter,I,enter,1157,2,2966.199999809265,528759.4000005722,9029,WL,A,12.0
4,31.5,learn,28500.0,Tue Feb 10 2026 13:02:49 GMT-0500 (Eastern Standard Time),532826.1000003815,A,g,I,g,1082,2,1100.1000003814697,531726.0,9029,WL,A,13.0
4,31.600000143051147,learn,28399.999856948853,Tue Feb 10 2026 13:02:49 GMT-0500 (Eastern Standard Time),532926.1999998093,A,go,I,o,90,2,1200.1999998092651,531726.0,9029,WL,A,13.0
4,31.81599998474121,learn,28184.00001525879,Tue Feb 10 2026 13:02:49 GMT-0500 (Eastern Standard Time),533142.8000001907,A,gol,I,l,192,2,1416.8000001907349,531726.0,9029,WL,A,13.0
4,32.08299994468689,learn,27917.00005531311,Tue Feb 10 2026 13:02:49 GMT-0500 (Eastern Standard Time),533409.4000005722,A,gold,I,d,254,2,1683.4000005722046,531726.0,9029,WL,A,13.0
4,32.616000175476074,learn,27383.999824523926,Tue Feb 10 2026 13:02:49 GMT-0500 (Eastern Standard Time),533942.4000005722,A,goldenter,I,enter,514,2,2216.4000005722046,531726.0,9029,WL,A,13.0
4,37.0,learn,23000.0,Tue Feb 10 2026 13:02:49 GMT-0500 (Eastern Standard Time),538326.1000003815,A,k,I,k,4369,2,4383.400000572205,533942.6999998093,9029,WL,A,14.0
4,37.23300004005432,learn,22766.99995994568,Tue Feb 10 2026 13:02:49 GMT-0500 (Eastern Standard Time),538559.1999998093,A,ke,I,e,222,2,4616.5,533942.6999998093,9029,WL,A,14.0
4,37.41600012779236,learn,22583.99987220764,Tue Feb 10 2026 13:02:49 GMT-0500 (Eastern Standard Time),538742.6000003815,A,key,I,y,165,2,4799.900000572205,533942.6999998093,9029,WL,A,14.0
4,37.848999977111816,learn,22151.000022888184,Tue Feb 10 2026 13:02:49 GMT-0500 (Eastern Standard Time),539175.6000003815,A,keyenter,I,enter,413,2,5232.900000572205,533942.6999998093,9029,WL,A,14.0
4,60.01600003242493,learn,-16.000032424926758,Tue Feb 10 2026 13:02:49 GMT-0500 (Eastern Standard Time),561342.5,A,None,I,None,22160,2,22166.5,539176.0,9029,WL,A,15.0
5,3.6499998569488525,learn,60000.0,Tue Feb 10 2026 13:02:49 GMT-0500 (Eastern Standard Time),634359.6999998093,A,b,I,b,3632,2,3650.0,630709.6999998093,9029,WL,A,1.0
5,4.116999864578247,learn,60000.0,Tue Feb 10 2026 13:02:49 GMT-0500 (Eastern Standard Time),634826.1000003815,A,bo,I,o,444,2,4116.400000572205,630709.6999998093,9029,WL,A,1.0
5,4.25,learn,60000.0,Tue Feb 10 2026 13:02:49 GMT-0500 (Eastern Standard Time),634959.3000001907,A,boo,I,o,121,2,4249.60000038147,630709.6999998093,9029,WL,A,1.0
5,4.432999849319458,learn,60000.0,Tue Feb 10 2026 13:02:49 GMT-0500 (Eastern Standard Time),635142.6999998093,A,book,I,k,164,2,4433.0,630709.6999998093,9029,WL,A,1.0
5,5.016000032424927,learn,60000.0,Tue Feb 10 2026 13:02:49 GMT-0500 (Eastern Standard Time),635725.6000003815,A,bookenter,I,enter,547,2,5015.900000572205,630709.6999998093,9029,WL,A,1.0
5,7.882999897003174,learn,60000.0,Tue Feb 10 2026 13:02:49 GMT-0500 (Eastern Standard Time),638592.6000003815,A,f,I,f,2858,2,2866.699999809265,635725.9000005722,9029,WL,A,2.0
5,8.116999864578247,learn,60000.0,Tue Feb 10 2026 13:02:49 GMT-0500 (Eastern Standard Time),638826.0,A,fl,I,l,211,2,3100.0999994277954,635725.9000005722,9029,WL,A,2.0
5,8.299999952316284,learn,60000.0,Tue Feb 10 2026 13:02:49 GMT-0500 (Eastern Standard Time),639009.4000005722,A,flo,I,o,170,2,3283.5,635725.9000005722,9029,WL,A,2.0
5,8.449999809265137,learn,60000.0,Tue Feb 10 2026 13:02:49 GMT-0500 (Eastern Standard Time),639159.3000001907,A,flow,I,w,131,2,3433.3999996185303,635725.9000005722,9029,WL,A,2.0
5,8.632999897003174,learn,60000.0,Tue Feb 10 2026 13:02:49 GMT-0500 (Eastern Standard Time),639342.5,A,flowe,I,e,165,2,3616.5999994277954,635725.9000005722,9029,WL,A,2.0
5,8.782999992370605,learn,60000.0,Tue Feb 10 2026 13:02:49 GMT-0500 (Eastern Standard Time),639492.6999998093,A,flower,I,r,125,2,3766.7999992370605,635725.9000005722,9029,WL,A,2.0
5,9.199999809265137,learn,60000.0,Tue Feb 10 2026 13:02:49 GMT-0500 (Eastern Standard Time),639909.0,A,flowerenter,I,enter,398,2,4183.099999427795,635725.9000005722,9029,WL,A,2.0
5,9.666999816894531,learn,60000.0,Tue Feb 10 2026 13:02:49 GMT-0500 (Eastern Standard Time),640376.1000003815,A,t,I,t,450,2,466.80000019073486,639909.3000001907,9029,WL,A,3.0
5,9.766999959945679,learn,60000.0,Tue Feb 10 2026 13:02:49 GMT-0500 (Eastern Standard Time),640476.0,A,tr,I,r,72,2,566.6999998092651,639909.3000001907,9029,WL,A,3.0
5,9.967000007629395,learn,60000.0,Tue Feb 10 2026 13:02:49 GMT-0500 (Eastern Standard Time),640676.0,A,tra,I,a,185,2,766.6999998092651,639909.3000001907,9029,WL,A,3.0
5,10.065999984741211,learn,60000.0,Tue Feb 10 2026 13:02:49 GMT-0500 (Eastern Standard Time),640775.6999998093,A,trai,I,i,70,2,866.3999996185303,639909.3000001907,9029,WL,A,3.0
5,10.25,learn,60000.0,Tue Feb 10 2026 13:02:49 GMT-0500 (Eastern Standard Time),640959.1999998093,A,train,I,n,170,2,1049.8999996185303,639909.3000001907,9029,WL,A,3.0
5,10.616999864578247,learn,60000.0,Tue Feb 10 2026 13:02:49 GMT-0500 (Eastern Standard Time),641326.1999998093,A,trainr,I,r,350,2,1416.8999996185303,639909.3000001907,9029,WL,A,3.0
5,11.149999856948853,learn,60000.0,Tue Feb 10 2026 13:02:49 GMT-0500 (Eastern Standard Time),641859.4000005722,A,train,I,backspace,518,2,1950.1000003814697,639909.3000001907,9029,WL,A,3.0
5,11.41599988937378,learn,60000.0,Tue Feb 10 2026 13:02:49 GMT-0500 (Eastern Standard Time),642125.5,A,trainenter,I,enter,255,2,2216.199999809265,639909.3000001907,9029,WL,A,3.0
5,12.5,learn,60000.0,Tue Feb 10 2026 13:02:49 GMT-0500 (Eastern Standard Time),643209.4000005722,A,r,I,r,1067,2,1083.7000007629395,642125.6999998093,9029,WL,A,4.0
5,12.717000007629395,learn,60000.0,Tue Feb 10 2026 13:02:49 GMT-0500 (Eastern Standard Time),643426.1000003815,A,ru,I,u,204,2,1300.4000005722046,642125.6999998093,9029,WL,A,4.0
5,12.949999809265137,learn,60000.0,Tue Feb 10 2026 13:02:49 GMT-0500 (Eastern Standard Time),643659.5,A,rug,I,g,209,2,1533.8000001907349,642125.6999998093,9029,WL,A,4.0
5,13.58299994468689,learn,60000.0,Tue Feb 10 2026 13:02:49 GMT-0500 (Eastern Standard Time),644292.3000001907,A,rugenter,I,enter,616,2,2166.6000003814697,642125.6999998093,9029,WL,A,4.0
5,14.099999904632568,learn,60000.0,Tue Feb 10 2026 13:02:49 GMT-0500 (Eastern Standard Time),644809.4000005722,A,m,I,m,500,2,516.9000005722046,644292.5,9029,WL,A,5.0
5,14.25,learn,60000.0,Tue Feb 10 2026 13:02:49 GMT-0500 (Eastern Standard Time),644959.1000003815,A,me,I,e,138,2,666.6000003814697,644292.5,9029,WL,A,5.0
5,14.432999849319458,learn,60000.0,Tue Feb 10 2026 13:02:49 GMT-0500 (Eastern Standard Time),645142.6999998093,A,mea,I,a,165,2,850.1999998092651,644292.5,9029,WL,A,5.0
5,14.616999864578247,learn,60000.0,Tue Feb 10 2026 13:02:49 GMT-0500 (Eastern Standard Time),645326.1000003815,A,mead,I,d,149,2,1033.6000003814697,644292.5,9029,WL,A,5.0
5,14.782999992370605,learn,60000.0,Tue Feb 10 2026 13:02:49 GMT-0500 (Eastern Standard Time),645492.8000001907,A,meado,I,o,149,2,1200.3000001907349,644292.5,9029,WL,A,5.0
5,14.916999816894531,learn,60000.0,Tue Feb 10 2026 13:02:49 GMT-0500 (Eastern Standard Time),645626.1000003815,A,meadow,I,w,111,2,1333.6000003814697,644292.5,9029,WL,A,5.0
5,15.399999856948853,learn,60000.0,Tue Feb 10 2026 13:02:49 GMT-0500 (Eastern Standard Time),646108.9000005722,A,meadowenter,I,enter,449,2,1816.4000005722046,644292.5,9029,WL,A,5.0
5,16.532999992370605,learn,60000.0,Tue Feb 10 2026 13:02:49 GMT-0500 (Eastern Standard Time),647242.8000001907,A,h,I,h,1115,2,1133.6000003814697,646109.1999998093,9029,WL,A,6.0
5,16.632999897003174,learn,60000.0,Tue Feb 10 2026 13:02:49 GMT-0500 (Eastern Standard Time),647342.6000003815,A,ha,I,a,73,2,1233.4000005722046,646109.1999998093,9029,WL,A,6.0
5,16.782999992370605,learn,60000.0,Tue Feb 10 2026 13:02:49 GMT-0500 (Eastern Standard Time),647492.6999998093,A,har,I,r,127,2,1383.5,646109.1999998093,9029,WL,A,6.0
5,17.116999864578247,learn,60000.0,Tue Feb 10 2026 13:02:49 GMT-0500 (Eastern Standard Time),647825.9000005722,A,harp,I,p,319,2,1716.7000007629395,646109.1999998093,9029,WL,A,6.0
5,17.465999841690063,learn,60000.0,Tue Feb 10 2026 13:02:49 GMT-0500 (Eastern Standard Time),648175.5,A,harpenter,I,enter,338,2,2066.300000190735,646109.1999998093,9029,WL,A,6.0
5,18.382999897003174,learn,60000.0,Tue Feb 10 2026 13:02:49 GMT-0500 (Eastern Standard Time),649092.6999998093,A,s,I,s,904,2,916.7999992370605,648175.9000005722,9029,WL,A,7.0
5,18.483999967575073,learn,60000.0,Tue Feb 10 2026 13:02:49 GMT-0500 (Eastern Standard Time),649192.8000001907,A,sa,I,a,80,2,1016.8999996185303,648175.9000005722,9029,WL,A,7.0
5,18.699999809265137,learn,60000.0,Tue Feb 10 2026 13:02:49 GMT-0500 (Eastern Standard Time),649409.3000001907,A,sal,I,l,205,2,1233.3999996185303,648175.9000005722,9029,WL,A,7.0
5,18.967000007629395,learn,60000.0,Tue Feb 10 2026 13:02:49 GMT-0500 (Eastern Standard Time),649676.1000003815,A,salt,I,t,244,2,1500.1999998092651,648175.9000005722,9029,WL,A,7.0
5,19.23300004005432,learn,60000.0,Tue Feb 10 2026 13:02:49 GMT-0500 (Eastern Standard Time),649942.3000001907,A,saltenter,I,enter,247,2,1766.3999996185303,648175.9000005722,9029,WL,A,7.0
5,21.032999992370605,learn,60000.0,Tue Feb 10 2026 13:02:49 GMT-0500 (Eastern Standard Time),651742.6999998093,A,f,I,f,1793,2,1800.0999994277954,649942.6000003815,9029,WL,A,8.0
5,21.132999897003174,learn,60000.0,Tue Feb 10 2026 13:02:49 GMT-0500 (Eastern Standard Time),651842.6999998093,A,fi,I,i,85,2,1900.0999994277954,649942.6000003815,9029,WL,A,8.0
5,21.34999990463257,learn,60000.0,Tue Feb 10 2026 13:02:49 GMT-0500 (Eastern Standard Time),652059.4000005722,A,fin,I,n,193,2,2116.800000190735,649942.6000003815,9029,WL,A,8.0
5,21.816999912261963,learn,60000.0,Tue Feb 10 2026 13:02:49 GMT-0500 (Eastern Standard Time),652526.0,A,fing,I,g,432,2,2583.3999996185303,649942.6000003815,9029,WL,A,8.0
5,22.066999912261963,learn,60000.0,Tue Feb 10 2026 13:02:49 GMT-0500 (Eastern Standard Time),652776.1000003815,A,finge,I,e,229,2,2833.5,649942.6000003815,9029,WL,A,8.0
5,22.199999809265137,learn,60000.0,Tue Feb 10 2026 13:02:49 GMT-0500 (Eastern Standard Time),652909.4000005722,A,finger,I,r,109,2,2966.800000190735,649942.6000003815,9029,WL,A,8.0
5,23.282999992370605,learn,60000.0,Tue Feb 10 2026 13:02:49 GMT-0500 (Eastern Standard Time),653992.3000001907,A,fingerenter,I,enter,1062,2,4049.699999809265,649942.6000003815,9029,WL,A,8.0
5,23.782999992370605,learn,60000.0,Tue Feb 10 2026 13:02:49 GMT-0500 (Eastern Standard Time),654492.8000001907,A,a,I,a,478,2,500.1000003814697,653992.6999998093,9029,WL,A,9.0
5,24.75,learn,60000.0,Tue Feb 10 2026 13:02:49 GMT-0500 (Eastern Standard Time),655459.3000001907,A,ap,I,p,951,2,1466.6000003814697,653992.6999998093,9029,WL,A,9.0
5,24.882999897003174,learn,60000.0,Tue Feb 10 2026 13:02:49 GMT-0500 (Eastern Standard Time),655592.6999998093,A,app,I,p,113,2,1600.0,653992.6999998093,9029,WL,A,9.0
5,25.08299994468689,learn,60000.0,Tue Feb 10 2026 13:02:49 GMT-0500 (Eastern Standard Time),655792.6999998093,A,appl,I,l,187,2,1800.0,653992.6999998093,9029,WL,A,9.0
5,25.23300004005432,learn,60000.0,Tue Feb 10 2026 13:02:49 GMT-0500 (Eastern Standard Time),655942.6000003815,A,apple,I,e,122,2,1949.9000005722046,653992.6999998093,9029,WL,A,9.0
5,25.83399987220764,learn,60000.0,Tue Feb 10 2026 13:02:49 GMT-0500 (Eastern Standard Time),656543.3000001907,A,appleenter,I,enter,589,2,2550.6000003814697,653992.6999998093,9029,WL,A,9.0
5,26.199999809265137,learn,60000.0,Tue Feb 10 2026 13:02:49 GMT-0500 (Eastern Standard Time),656909.3000001907,A,c,I,c,344,2,365.6000003814697,656543.6999998093,9029,WL,A,10.0
5,26.33299994468689,learn,60000.0,Tue Feb 10 2026 13:02:49 GMT-0500 (Eastern Standard Time),657042.6999998093,A,ch,I,h,119,2,499.0,656543.6999998093,9029,WL,A,10.0
5,26.566999912261963,learn,60000.0,Tue Feb 10 2026 13:02:49 GMT-0500 (Eastern Standard Time),657276.0,A,chi,I,i,209,2,732.3000001907349,656543.6999998093,9029,WL,A,10.0
5,26.866999864578247,learn,60000.0,Tue Feb 10 2026 13:02:49 GMT-0500 (Eastern Standard Time),657575.9000005722,A,chim,I,m,280,2,1032.2000007629395,656543.6999998093,9029,WL,A,10.0
5,27.116999864578247,learn,60000.0,Tue Feb 10 2026 13:02:49 GMT-0500 (Eastern Standard Time),657826.1000003815,A,chimn,I,n,237,2,1282.4000005722046,656543.6999998093,9029,WL,A,10.0
5,27.26699995994568,learn,60000.0,Tue Feb 10 2026 13:02:49 GMT-0500 (Eastern Standard Time),657976.1000003815,A,chimne,I,e,130,2,1432.4000005722046,656543.6999998093,9029,WL,A,10.0
5,27.432999849319458,learn,60000.0,Tue Feb 10 2026 13:02:49 GMT-0500 (Eastern Standard Time),658142.8000001907,A,chimney,I,y,140,2,1599.1000003814697,656543.6999998093,9029,WL,A,10.0
5,28.5,learn,60000.0,Tue Feb 10 2026 13:02:49 GMT-0500 (Eastern Standard Time),659208.9000005722,A,chimneyenter,I,enter,1044,2,2665.2000007629395,656543.6999998093,9029,WL,A,10.0
5,30.08299994468689,learn,60000.0,Tue Feb 10 2026 13:02:49 GMT-0500 (Eastern Standard Time),660792.4000005722,A,b,I,b,1567,2,1583.1000003814697,659209.3000001907,9029,WL,A,11.0
5,30.299999952316284,learn,60000.0,Tue Feb 10 2026 13:02:49 GMT-0500 (Eastern Standard Time),661009.4000005722,A,bu,I,u,204,2,1800.1000003814697,659209.3000001907,9029,WL,A,11.0
5,30.532999992370605,learn,60000.0,Tue Feb 10 2026 13:02:49 GMT-0500 (Eastern Standard Time),661242.6999998093,A,but,I,t,201,2,2033.3999996185303,659209.3000001907,9029,WL,A,11.0
5,30.73300004005432,learn,60000.0,Tue Feb 10 2026 13:02:49 GMT-0500 (Eastern Standard Time),661442.6000003815,A,butt,I,t,186,2,2233.300000190735,659209.3000001907,9029,WL,A,11.0
5,31.26699995994568,learn,60000.0,Tue Feb 10 2026 13:02:49 GMT-0500 (Eastern Standard Time),661976.0,A,butto,I,o,505,2,2766.699999809265,659209.3000001907,9029,WL,A,11.0
5,31.532999992370605,learn,60000.0,Tue Feb 10 2026 13:02:49 GMT-0500 (Eastern Standard Time),662242.6999998093,A,button,I,n,251,2,3033.3999996185303,659209.3000001907,9029,WL,A,11.0
5,31.91599988937378,learn,60000.0,Tue Feb 10 2026 13:02:49 GMT-0500 (Eastern Standard Time),662625.5,A,buttonenter,I,enter,367,2,3416.199999809265,659209.3000001907,9029,WL,A,11.0
5,32.66699981689453,learn,60000.0,Tue Feb 10 2026 13:02:49 GMT-0500 (Eastern Standard Time),663375.9000005722,A,l,I,l,742,2,750.0,662625.9000005722,9029,WL,A,12.0
5,32.98300004005432,learn,60000.0,Tue Feb 10 2026 13:02:49 GMT-0500 (Eastern Standard Time),663692.6999998093,A,lo,I,o,291,2,1066.7999992370605,662625.9000005722,9029,WL,A,12.0
5,33.23300004005432,learn,60000.0,Tue Feb 10 2026 13:02:49 GMT-0500 (Eastern Standard Time),663942.6000003815,A,log,I,g,231,2,1316.6999998092651,662625.9000005722,9029,WL,A,12.0
5,33.58299994468689,learn,60000.0,Tue Feb 10 2026 13:02:49 GMT-0500 (Eastern Standard Time),664292.1999998093,A,logenter,I,enter,333,2,1666.2999992370605,662625.9000005722,9029,WL,A,12.0
5,34.51699995994568,learn,60000.0,Tue Feb 10 2026 13:02:49 GMT-0500 (Eastern Standard Time),665226.1000003815,A,k,I,k,916,2,933.5,664292.6000003815,9029,WL,A,13.0
5,34.75,learn,60000.0,Tue Feb 10 2026 13:02:49 GMT-0500 (Eastern Standard Time),665459.3000001907,A,ke,I,e,217,2,1166.6999998092651,664292.6000003815,9029,WL,A,13.0
5,34.94999980926514,learn,60000.0,Tue Feb 10 2026 13:02:49 GMT-0500 (Eastern Standard Time),665659.5,A,key,I,y,177,2,1366.8999996185303,664292.6000003815,9029,WL,A,13.0
5,35.299999952316284,learn,60000.0,Tue Feb 10 2026 13:02:49 GMT-0500 (Eastern Standard Time),666008.9000005722,A,keyenter,I,enter,319,2,1716.3000001907349,664292.6000003815,9029,WL,A,13.0
5,36.25,learn,60000.0,Tue Feb 10 2026 13:02:49 GMT-0500 (Eastern Standard Time),666959.1000003815,A,r,I,r,943,2,949.9000005722046,666009.1999998093,9029,WL,A,14.0
5,36.39999985694885,learn,60000.0,Tue Feb 10 2026 13:02:49 GMT-0500 (Eastern Standard Time),667109.4000005722,A,ra,I,a,134,2,1100.2000007629395,666009.1999998093,9029,WL,A,14.0
5,36.61699986457825,learn,60000.0,Tue Feb 10 2026 13:02:49 GMT-0500 (Eastern Standard Time),667326.1000003815,A,rat,I,t,191,2,1316.9000005722046,666009.1999998093,9029,WL,A,14.0
5,36.73300004005432,learn,60000.0,Tue Feb 10 2026 13:02:49 GMT-0500 (Eastern Standard Time),667442.6999998093,A,ratt,I,t,94,2,1433.5,666009.1999998093,9029,WL,A,14.0
5,36.89999985694885,learn,60000.0,Tue Feb 10 2026 13:02:49 GMT-0500 (Eastern Standard Time),667609.5,A,rattl,I,l,144,2,1600.3000001907349,666009.1999998093,9029,WL,A,14.0
5,37.01699995994568,learn,60000.0,Tue Feb 10 2026 13:02:49 GMT-0500 (Eastern Standard Time),667725.8000001907,A,rattle,I,e,83,2,1716.6000003814697,666009.1999998093,9029,WL,A,14.0
5,37.69999980926514,learn,60000.0,Tue Feb 10 2026 13:02:49 GMT-0500 (Eastern Standard Time),668408.6999998093,A,rattleenter,I,enter,653,2,2399.5,666009.1999998093,9029,WL,A,14.0
5,38.217000007629395,learn,60000.0,Tue Feb 10 2026 13:02:49 GMT-0500 (Eastern Standard Time),668926.1000003815,A,f,I,f,510,2,516.9000005722046,668409.1999998093,9029,WL,A,15.0
5,38.33299994468689,learn,60000.0,Tue Feb 10 2026 13:02:49 GMT-0500 (Eastern Standard Time),669042.6999998093,A,fo,I,o,102,2,633.5,668409.1999998093,9029,WL,A,15.0
5,38.58299994468689,learn,60000.0,Tue Feb 10 2026 13:02:49 GMT-0500 (Eastern Standard Time),669292.8000001907,A,fol,I,l,224,2,883.6000003814697,668409.1999998093,9029,WL,A,15.0
5,38.882999897003174,learn,60000.0,Tue Feb 10 2026 13:02:49 GMT-0500 (Eastern Standard Time),669592.6999998093,A,fold,I,d,279,2,1183.5,668409.1999998093,9029,WL,A,15.0
5,39.217000007629395,learn,60000.0,Tue Feb 10 2026 13:02:49 GMT-0500 (Eastern Standard Time),669926.0,A,fol,I,backspace,316,2,1516.8000001907349,668409.1999998093,9029,WL,A,15.0
5,39.36699986457825,learn,60000.0,Tue Feb 10 2026 13:02:49 GMT-0500 (Eastern Standard Time),670075.9000005722,A,fo,I,backspace,126,2,1666.7000007629395,668409.1999998093,9029,WL,A,15.0
5,39.51699995994568,learn,60000.0,Tue Feb 10 2026 13:02:49 GMT-0500 (Eastern Standard Time),670226.0,A,f,I,backspace,136,2,1816.8000001907349,668409.1999998093,9029,WL,A,15.0
5,39.66699981689453,learn,60000.0,Tue Feb 10 2026 13:02:49 GMT-0500 (Eastern Standard Time),670376.1000003815,A,,I,backspace,130,2,1966.9000005722046,668409.1999998093,9029,WL,A,15.0
5,40.632999897003174,learn,60000.0,Tue Feb 10 2026 13:02:49 GMT-0500 (Eastern Standard Time),671342.8000001907,A,g,I,g,932,2,2933.6000003814697,668409.1999998093,9029,WL,A,15.0
5,40.69999980926514,learn,60000.0,Tue Feb 10 2026 13:02:49 GMT-0500 (Eastern Standard Time),671409.0,A,go,I,o,52,2,2999.800000190735,668409.1999998093,9029,WL,A,15.0
5,40.882999897003174,learn,60000.0,Tue Feb 10 2026 13:02:49 GMT-0500 (Eastern Standard Time),671592.6000003815,A,gol,I,l,164,2,3183.4000005722046,668409.1999998093,9029,WL,A,15.0
5,41.0,learn,60000.0,Tue Feb 10 2026 13:02:49 GMT-0500 (Eastern Standard Time),671709.4000005722,A,gold,I,d,91,2,3300.2000007629395,668409.1999998093,9029,WL,A,15.0
5,41.18299984931946,learn,60000.0,Tue Feb 10 2026 13:02:49 GMT-0500 (Eastern Standard Time),671892.1999998093,A,goldenter,I,enter,156,2,3483.0,668409.1999998093,9029,WL,A,15.0
6,1.2840001583099365,distr,58715.99984169006,Tue Feb 10 2026 13:02:49 GMT-0500 (Eastern Standard Time),746676.0,B,b,I,b,1269,2,1282.8999996185303,745393.1000003815,9029,WL,A,1.0
6,2.317000150680542,distr,57682.99984931946,Tue Feb 10 2026 13:02:49 GMT-0500 (Eastern Standard Time),747709.1000003815,B,bo,I,o,1007,2,2316.0,745393.1000003815,9029,WL,A,1.0
6,2.7669999599456787,distr,57233.00004005432,Tue Feb 10 2026 13:02:49 GMT-0500 (Eastern Standard Time),748159.0,B,bow,I,w,438,2,2765.8999996185303,745393.1000003815,9029,WL,A,1.0
6,3.133000135421753,distr,56866.99986457825,Tue Feb 10 2026 13:02:49 GMT-0500 (Eastern Standard Time),748525.8000001907,B,bowl,I,l,341,2,3132.699999809265,745393.1000003815,9029,WL,A,1.0
6,3.5,distr,56500.0,Tue Feb 10 2026 13:02:49 GMT-0500 (Eastern Standard Time),748892.1000003815,B,bowlenter,I,enter,342,2,3499.0,745393.1000003815,9029,WL,A,1.0
6,4.4670000076293945,distr,55532.999992370605,Tue Feb 10 2026 13:02:49 GMT-0500 (Eastern Standard Time),749859.1999998093,B,d,I,d,956,2,966.6999998092651,748892.5,9029,WL,A,2.0
6,5.1000001430511475,distr,54899.99985694885,Tue Feb 10 2026 13:02:49 GMT-0500 (Eastern Standard Time),750492.6999998093,B,da,I,a,607,2,1600.1999998092651,748892.5,9029,WL,A,2.0
6,5.2840001583099365,distr,54715.99984169006,Tue Feb 10 2026 13:02:49 GMT-0500 (Eastern Standard Time),750675.8000001907,B,daw,I,w,167,2,1783.3000001907349,748892.5,9029,WL,A,2.0
6,5.900000095367432,distr,54099.99990463257,Tue Feb 10 2026 13:02:49 GMT-0500 (Eastern Standard Time),751292.6000003815,B,dawn,I,n,591,2,2400.1000003814697,748892.5,9029,WL,A,2.0
6,6.4670000076293945,distr,53532.999992370605,Tue Feb 10 2026 13:02:49 GMT-0500 (Eastern Standard Time),751858.8000001907,B,dawnenter,I,enter,550,2,2966.300000190735,748892.5,9029,WL,A,2.0
6,7.400000095367432,distr,52599.99990463257,Tue Feb 10 2026 13:02:49 GMT-0500 (Eastern Standard Time),752792.6999998093,B,j,I,j,917,2,933.5999994277954,751859.1000003815,9029,WL,A,3.0
6,7.66700005531311,distr,52332.99994468689,Tue Feb 10 2026 13:02:49 GMT-0500 (Eastern Standard Time),753059.1999998093,B,ju,I,u,252,2,1200.0999994277954,751859.1000003815,9029,WL,A,3.0
6,7.7840001583099365,distr,52215.99984169006,Tue Feb 10 2026 13:02:49 GMT-0500 (Eastern Standard Time),753176.0,B,jud,I,d,97,2,1316.8999996185303,751859.1000003815,9029,WL,A,3.0
6,7.983999967575073,distr,52016.00003242493,Tue Feb 10 2026 13:02:49 GMT-0500 (Eastern Standard Time),753375.8000001907,B,judg,I,g,188,2,1516.6999998092651,751859.1000003815,9029,WL,A,3.0
6,8.100000143051147,distr,51899.99985694885,Tue Feb 10 2026 13:02:49 GMT-0500 (Eastern Standard Time),753492.5,B,judge,I,e,101,2,1633.3999996185303,751859.1000003815,9029,WL,A,3.0
6,8.282999992370605,distr,51717.000007629395,Tue Feb 10 2026 13:02:49 GMT-0500 (Eastern Standard Time),753675.4000005722,B,judgeenter,I,enter,150,2,1816.3000001907349,751859.1000003815,9029,WL,A,3.0
6,8.75,distr,51250.0,Tue Feb 10 2026 13:02:49 GMT-0500 (Eastern Standard Time),754142.4000005722,B,g,I,g,460,2,466.6000003814697,753675.8000001907,9029,WL,A,4.0
6,8.800000190734863,distr,51199.99980926514,Tue Feb 10 2026 13:02:49 GMT-0500 (Eastern Standard Time),754192.1000003815,B,gr,I,r,37,2,516.3000001907349,753675.8000001907,9029,WL,A,4.0
6,9.016999959945679,distr,50983.00004005432,Tue Feb 10 2026 13:02:49 GMT-0500 (Eastern Standard Time),754409.4000005722,B,gra,I,a,199,2,733.6000003814697,753675.8000001907,9029,WL,A,4.0
6,9.133000135421753,distr,50866.99986457825,Tue Feb 10 2026 13:02:49 GMT-0500 (Eastern Standard Time),754525.5,B,gran,I,n,96,2,849.6999998092651,753675.8000001907,9029,WL,A,4.0
6,9.300000190734863,distr,50699.99980926514,Tue Feb 10 2026 13:02:49 GMT-0500 (Eastern Standard Time),754692.6000003815,B,grant,I,t,150,2,1016.8000001907349,753675.8000001907,9029,WL,A,4.0
6,9.850000143051147,distr,50149.99985694885,Tue Feb 10 2026 13:02:49 GMT-0500 (Eastern Standard Time),755242.1999998093,B,grantenter,I,enter,519,2,1566.3999996185303,753675.8000001907,9029,WL,A,4.0
6,10.817000150680542,distr,49182.99984931946,Tue Feb 10 2026 13:02:49 GMT-0500 (Eastern Standard Time),756209.3000001907,B,p,I,p,957,2,966.8000001907349,755242.5,9029,WL,A,5.0
6,10.967000007629395,distr,49032.999992370605,Tue Feb 10 2026 13:02:49 GMT-0500 (Eastern Standard Time),756359.3000001907,B,pe,I,e,129,2,1116.8000001907349,755242.5,9029,WL,A,5.0
6,11.117000102996826,distr,48882.999897003174,Tue Feb 10 2026 13:02:49 GMT-0500 (Eastern Standard Time),756509.3000001907,B,pea,I,a,125,2,1266.8000001907349,755242.5,9029,WL,A,5.0
6,11.33400011062622,distr,48665.99988937378,Tue Feb 10 2026 13:02:49 GMT-0500 (Eastern Standard Time),756725.9000005722,B,peac,I,c,197,2,1483.4000005722046,755242.5,9029,WL,A,5.0
6,11.58400011062622,distr,48415.99988937378,Tue Feb 10 2026 13:02:49 GMT-0500 (Eastern Standard Time),756975.9000005722,B,peach,I,h,236,2,1733.4000005722046,755242.5,9029,WL,A,5.0
6,12.067000150680542,distr,47932.99984931946,Tue Feb 10 2026 13:02:49 GMT-0500 (Eastern Standard Time),757458.8000001907,B,peachenter,I,enter,468,2,2216.300000190735,755242.5,9029,WL,A,5.0
6,13.400000095367432,distr,46599.99990463257,Tue Feb 10 2026 13:02:49 GMT-0500 (Eastern Standard Time),758792.6000003815,B,s,I,s,1317,2,1333.5,757459.1000003815,9029,WL,A,6.0
6,13.534000158309937,distr,46465.99984169006,Tue Feb 10 2026 13:02:49 GMT-0500 (Eastern Standard Time),758925.9000005722,B,se,I,e,108,2,1466.8000001907349,757459.1000003815,9029,WL,A,6.0
6,13.766999959945679,distr,46233.00004005432,Tue Feb 10 2026 13:02:49 GMT-0500 (Eastern Standard Time),759159.3000001907,B,see,I,e,214,2,1700.1999998092651,757459.1000003815,9029,WL,A,6.0
6,14.016999959945679,distr,45983.00004005432,Tue Feb 10 2026 13:02:49 GMT-0500 (Eastern Standard Time),759409.1999998093,B,seed,I,d,228,2,1950.0999994277954,757459.1000003815,9029,WL,A,6.0
6,14.333000183105469,distr,45666.99981689453,Tue Feb 10 2026 13:02:49 GMT-0500 (Eastern Standard Time),759725.4000005722,B,seedenter,I,enter,306,2,2266.300000190735,757459.1000003815,9029,WL,A,6.0
6,60.01699995994568,distr,-16.99995994567871,Tue Feb 10 2026 13:02:49 GMT-0500 (Eastern Standard Time),805409.3000001907,B,None,I,None,45678,2,45683.699999809265,759725.6000003815,9029,WL,A,7.0
7,1.8499999046325684,immed,58150.00009536743,Tue Feb 10 2026 13:02:49 GMT-0500 (Eastern Standard Time),820542.4000005722,A,b,I,b,1841,2,1849.6000003814697,818692.8000001907,9029,WL,A,1.0
7,2.8339998722076416,immed,57166.00012779236,Tue Feb 10 2026 13:02:49 GMT-0500 (Eastern Standard Time),821525.9000005722,A,bo,I,o,966,2,2833.1000003814697,818692.8000001907,9029,WL,A,1.0
7,2.9499998092651367,immed,57050.00019073486,Tue Feb 10 2026 13:02:49 GMT-0500 (Eastern Standard Time),821642.6000003815,A,boo,I,o,93,2,2949.800000190735,818692.8000001907,9029,WL,A,1.0
7,3.1999998092651367,immed,56800.00019073486,Tue Feb 10 2026 13:02:49 GMT-0500 (Eastern Standard Time),821892.5,A,book,I,k,235,2,3199.699999809265,818692.8000001907,9029,WL,A,1.0
7,3.7669999599456787,immed,56233.00004005432,Tue Feb 10 2026 13:02:49 GMT-0500 (Eastern Standard Time),822458.8000001907,A,bookenter,I,enter,542,2,3766.0,818692.8000001907,9029,WL,A,1.0
7,4.483999967575073,immed,55516.00003242493,Tue Feb 10 2026 13:02:49 GMT-0500 (Eastern Standard Time),823175.9000005722,A,f,I,f,699,2,716.8000001907349,822459.1000003815,9029,WL,A,2.0
7,4.6499998569488525,immed,55350.00014305115,Tue Feb 10 2026 13:02:49 GMT-0500 (Eastern Standard Time),823342.5,A,fl,I,l,140,2,883.3999996185303,822459.1000003815,9029,WL,A,2.0
7,4.833999872207642,immed,55166.00012779236,Tue Feb 10 2026 13:02:49 GMT-0500 (Eastern Standard Time),823525.9000005722,A,flo,I,o,167,2,1066.8000001907349,822459.1000003815,9029,WL,A,2.0
7,4.966999769210815,immed,55033.000230789185,Tue Feb 10 2026 13:02:49 GMT-0500 (Eastern Standard Time),823659.1999998093,A,flow,I,w,109,2,1200.0999994277954,822459.1000003815,9029,WL,A,2.0
7,5.166999816894531,immed,54833.00018310547,Tue Feb 10 2026 13:02:49 GMT-0500 (Eastern Standard Time),823859.1999998093,A,flowe,I,e,186,2,1400.0999994277954,822459.1000003815,9029,WL,A,2.0
7,5.299999952316284,immed,54700.000047683716,Tue Feb 10 2026 13:02:49 GMT-0500 (Eastern Standard Time),823992.5,A,flower,I,r,113,2,1533.3999996185303,822459.1000003815,9029,WL,A,2.0
7,5.615999937057495,immed,54384.000062942505,Tue Feb 10 2026 13:02:49 GMT-0500 (Eastern Standard Time),824308.6999998093,A,flowerenter,I,enter,298,2,1849.5999994277954,822459.1000003815,9029,WL,A,2.0
7,5.983999967575073,immed,54016.00003242493,Tue Feb 10 2026 13:02:49 GMT-0500 (Eastern Standard Time),824675.8000001907,A,t,I,t,354,2,366.80000019073486,824309.0,9029,WL,A,3.0
7,6.049999952316284,immed,53950.000047683716,Tue Feb 10 2026 13:02:49 GMT-0500 (Eastern Standard Time),824742.0,A,tr,I,r,47,2,433.0,824309.0,9029,WL,A,3.0
7,6.25,immed,53750.0,Tue Feb 10 2026 13:02:49 GMT-0500 (Eastern Standard Time),824942.1999998093,A,tra,I,a,192,2,633.1999998092651,824309.0,9029,WL,A,3.0
7,6.349999904632568,immed,53650.00009536743,Tue Feb 10 2026 13:02:49 GMT-0500 (Eastern Standard Time),825042.4000005722,A,trai,I,i,77,2,733.4000005722046,824309.0,9029,WL,A,3.0
7,6.533999919891357,immed,53466.00008010864,Tue Feb 10 2026 13:02:49 GMT-0500 (Eastern Standard Time),825225.9000005722,A,train,I,n,160,2,916.9000005722046,824309.0,9029,WL,A,3.0
7,6.982999801635742,immed,53017.00019836426,Tue Feb 10 2026 13:02:49 GMT-0500 (Eastern Standard Time),825675.4000005722,A,trainenter,I,enter,424,2,1366.4000005722046,824309.0,9029,WL,A,3.0
7,7.349999904632568,immed,52650.00009536743,Tue Feb 10 2026 13:02:49 GMT-0500 (Eastern Standard Time),826042.5,A,r,I,r,348,2,366.80000019073486,825675.6999998093,9029,WL,A,4.0
7,7.482999801635742,immed,52517.00019836426,Tue Feb 10 2026 13:02:49 GMT-0500 (Eastern Standard Time),826175.6000003815,A,ru,I,u,122,2,499.9000005722046,825675.6999998093,9029,WL,A,4.0
7,7.68399977684021,immed,52316.00022315979,Tue Feb 10 2026 13:02:49 GMT-0500 (Eastern Standard Time),826375.8000001907,A,rug,I,g,179,2,700.1000003814697,825675.6999998093,9029,WL,A,4.0
7,8.032999992370605,immed,51967.000007629395,Tue Feb 10 2026 13:02:49 GMT-0500 (Eastern Standard Time),826725.3000001907,A,rugenter,I,enter,327,2,1049.6000003814697,825675.6999998093,9029,WL,A,4.0
7,8.616999864578247,immed,51383.00013542175,Tue Feb 10 2026 13:02:49 GMT-0500 (Eastern Standard Time),827309.1999998093,A,m,I,m,562,2,583.5,826725.6999998093,9029,WL,A,5.0
7,8.766999959945679,immed,51233.00004005432,Tue Feb 10 2026 13:02:49 GMT-0500 (Eastern Standard Time),827459.1999998093,A,me,I,e,127,2,733.5,826725.6999998093,9029,WL,A,5.0
7,8.916999816894531,immed,51083.00018310547,Tue Feb 10 2026 13:02:49 GMT-0500 (Eastern Standard Time),827609.1999998093,A,mea,I,a,128,2,883.5,826725.6999998093,9029,WL,A,5.0
7,9.132999897003174,immed,50867.000102996826,Tue Feb 10 2026 13:02:49 GMT-0500 (Eastern Standard Time),827825.8000001907,A,mead,I,d,203,2,1100.1000003814697,826725.6999998093,9029,WL,A,5.0
7,9.316999912261963,immed,50683.00008773804,Tue Feb 10 2026 13:02:49 GMT-0500 (Eastern Standard Time),828009.1999998093,A,meado,I,o,161,2,1283.5,826725.6999998093,9029,WL,A,5.0
7,9.449999809265137,immed,50550.00019073486,Tue Feb 10 2026 13:02:49 GMT-0500 (Eastern Standard Time),828142.4000005722,A,meadow,I,w,108,2,1416.7000007629395,826725.6999998093,9029,WL,A,5.0
7,9.932999849319458,immed,50067.00015068054,Tue Feb 10 2026 13:02:49 GMT-0500 (Eastern Standard Time),828625.4000005722,A,meadowenter,I,enter,466,2,1899.7000007629395,826725.6999998093,9029,WL,A,5.0
7,10.699999809265137,immed,49300.00019073486,Tue Feb 10 2026 13:02:49 GMT-0500 (Eastern Standard Time),829392.4000005722,A,h,I,h,758,2,766.6000003814697,828625.8000001907,9029,WL,A,6.0
7,10.833999872207642,immed,49166.00012779236,Tue Feb 10 2026 13:02:49 GMT-0500 (Eastern Standard Time),829525.9000005722,A,ha,I,a,115,2,900.1000003814697,828625.8000001907,9029,WL,A,6.0
7,11.016999959945679,immed,48983.00004005432,Tue Feb 10 2026 13:02:49 GMT-0500 (Eastern Standard Time),829709.1000003815,A,har,I,r,158,2,1083.3000001907349,828625.8000001907,9029,WL,A,6.0
7,11.299999952316284,immed,48700.000047683716,Tue Feb 10 2026 13:02:49 GMT-0500 (Eastern Standard Time),829992.5,A,harp,I,p,264,2,1366.6999998092651,828625.8000001907,9029,WL,A,6.0
7,11.58299994468689,immed,48417.00005531311,Tue Feb 10 2026 13:02:49 GMT-0500 (Eastern Standard Time),830275.3000001907,A,harpenter,I,enter,266,2,1649.5,828625.8000001907,9029,WL,A,6.0
7,12.449999809265137,immed,47550.00019073486,Tue Feb 10 2026 13:02:49 GMT-0500 (Eastern Standard Time),831142.1999998093,A,s,I,s,851,2,866.5,830275.6999998093,9029,WL,A,7.0
7,12.549999952316284,immed,47450.000047683716,Tue Feb 10 2026 13:02:49 GMT-0500 (Eastern Standard Time),831242.1000003815,A,sa,I,a,71,2,966.4000005722046,830275.6999998093,9029,WL,A,7.0
7,12.716999769210815,immed,47283.000230789185,Tue Feb 10 2026 13:02:49 GMT-0500 (Eastern Standard Time),831409.1000003815,A,sal,I,l,147,2,1133.4000005722046,830275.6999998093,9029,WL,A,7.0
7,12.982999801635742,immed,47017.00019836426,Tue Feb 10 2026 13:02:49 GMT-0500 (Eastern Standard Time),831675.0,A,salt,I,t,234,2,1399.3000001907349,830275.6999998093,9029,WL,A,7.0
7,13.199999809265137,immed,46800.00019073486,Tue Feb 10 2026 13:02:49 GMT-0500 (Eastern Standard Time),831892.1000003815,A,saltenter,I,enter,204,2,1616.4000005722046,830275.6999998093,9029,WL,A,7.0
7,14.149999856948853,immed,45850.00014305115,Tue Feb 10 2026 13:02:49 GMT-0500 (Eastern Standard Time),832842.5,A,f,I,f,932,2,950.0999994277954,831892.4000005722,9029,WL,A,8.0
7,14.282999992370605,immed,45717.000007629395,Tue Feb 10 2026 13:02:49 GMT-0500 (Eastern Standard Time),832975.6000003815,A,fi,I,i,121,2,1083.1999998092651,831892.4000005722,9029,WL,A,8.0
7,14.5,immed,45500.0,Tue Feb 10 2026 13:02:49 GMT-0500 (Eastern Standard Time),833192.4000005722,A,fin,I,n,187,2,1300.0,831892.4000005722,9029,WL,A,8.0
7,14.649999856948853,immed,45350.00014305115,Tue Feb 10 2026 13:02:49 GMT-0500 (Eastern Standard Time),833342.5,A,fing,I,g,124,2,1450.0999994277954,831892.4000005722,9029,WL,A,8.0
7,14.816999912261963,immed,45183.00008773804,Tue Feb 10 2026 13:02:49 GMT-0500 (Eastern Standard Time),833509.1000003815,A,finge,I,e,149,2,1616.6999998092651,831892.4000005722,9029,WL,A,8.0
7,14.916999816894531,immed,45083.00018310547,Tue Feb 10 2026 13:02:49 GMT-0500 (Eastern Standard Time),833609.1000003815,A,finger,I,r,71,2,1716.6999998092651,831892.4000005722,9029,WL,A,8.0
7,15.182999849319458,immed,44817.00015068054,Tue Feb 10 2026 13:02:49 GMT-0500 (Eastern Standard Time),833875.3000001907,A,fingerenter,I,enter,250,2,1982.8999996185303,831892.4000005722,9029,WL,A,8.0
7,15.566999912261963,immed,44433.00008773804,Tue Feb 10 2026 13:02:49 GMT-0500 (Eastern Standard Time),834259.1000003815,A,b,I,b,370,2,383.5,833875.6000003815,9029,WL,A,9.0
7,15.716999769210815,immed,44283.000230789185,Tue Feb 10 2026 13:02:49 GMT-0500 (Eastern Standard Time),834409.1999998093,A,bu,I,u,127,2,533.5999994277954,833875.6000003815,9029,WL,A,9.0
7,15.916999816894531,immed,44083.00018310547,Tue Feb 10 2026 13:02:49 GMT-0500 (Eastern Standard Time),834609.1000003815,A,but,I,t,178,2,733.5,833875.6000003815,9029,WL,A,9.0
7,16.08399987220764,immed,43916.00012779236,Tue Feb 10 2026 13:02:49 GMT-0500 (Eastern Standard Time),834775.8000001907,A,butt,I,t,146,2,900.1999998092651,833875.6000003815,9029,WL,A,9.0
7,16.182999849319458,immed,43817.00015068054,Tue Feb 10 2026 13:02:49 GMT-0500 (Eastern Standard Time),834875.8000001907,A,butto,I,o,75,2,1000.1999998092651,833875.6000003815,9029,WL,A,9.0
7,16.41699981689453,immed,43583.00018310547,Tue Feb 10 2026 13:02:49 GMT-0500 (Eastern Standard Time),835109.1000003815,A,button,I,n,216,2,1233.5,833875.6000003815,9029,WL,A,9.0
7,17.83299994468689,immed,42167.00005531311,Tue Feb 10 2026 13:02:49 GMT-0500 (Eastern Standard Time),836525.4000005722,A,buttonenter,I,enter,1390,2,2649.800000190735,833875.6000003815,9029,WL,A,9.0
7,18.25,immed,41750.0,Tue Feb 10 2026 13:02:49 GMT-0500 (Eastern Standard Time),836942.5,A,l,I,l,394,2,416.80000019073486,836525.6999998093,9029,WL,A,10.0
7,18.43399977684021,immed,41566.00022315979,Tue Feb 10 2026 13:02:49 GMT-0500 (Eastern Standard Time),837125.9000005722,A,lo,I,o,166,2,600.2000007629395,836525.6999998093,9029,WL,A,10.0
7,18.549999952316284,immed,41450.000047683716,Tue Feb 10 2026 13:02:49 GMT-0500 (Eastern Standard Time),837242.6000003815,A,log,I,g,96,2,716.9000005722046,836525.6999998093,9029,WL,A,10.0
7,19.050999879837036,immed,40949.000120162964,Tue Feb 10 2026 13:02:49 GMT-0500 (Eastern Standard Time),837743.0,A,logenter,I,enter,480,2,1217.3000001907349,836525.6999998093,9029,WL,A,10.0
7,22.33299994468689,immed,37667.00005531311,Tue Feb 10 2026 13:02:49 GMT-0500 (Eastern Standard Time),841025.8000001907,A,k,I,k,3273,2,3282.3999996185303,837743.4000005722,9029,WL,A,11.0
7,22.59999990463257,immed,37400.00009536743,Tue Feb 10 2026 13:02:49 GMT-0500 (Eastern Standard Time),841292.6000003815,A,ke,I,e,242,2,3549.199999809265,837743.4000005722,9029,WL,A,11.0
7,22.732999801635742,immed,37267.00019836426,Tue Feb 10 2026 13:02:49 GMT-0500 (Eastern Standard Time),841425.8000001907,A,key,I,y,118,2,3682.3999996185303,837743.4000005722,9029,WL,A,11.0
7,23.5,immed,36500.0,Tue Feb 10 2026 13:02:49 GMT-0500 (Eastern Standard Time),842192.0,A,keyenter,I,enter,754,2,4448.599999427795,837743.4000005722,9029,WL,A,11.0
7,24.116999864578247,immed,35883.00013542175,Tue Feb 10 2026 13:02:49 GMT-0500 (Eastern Standard Time),842809.1999998093,A,g,I,g,600,2,616.8999996185303,842192.3000001907,9029,WL,A,12.0
7,24.232999801635742,immed,35767.00019836426,Tue Feb 10 2026 13:02:49 GMT-0500 (Eastern Standard Time),842925.6000003815,A,go,I,o,90,2,733.3000001907349,842192.3000001907,9029,WL,A,12.0
7,24.43399977684021,immed,35566.00022315979,Tue Feb 10 2026 13:02:49 GMT-0500 (Eastern Standard Time),843125.9000005722,A,gol,I,l,182,2,933.6000003814697,842192.3000001907,9029,WL,A,12.0
7,24.649999856948853,immed,35350.00014305115,Tue Feb 10 2026 13:02:49 GMT-0500 (Eastern Standard Time),843342.3000001907,A,gold,I,d,206,2,1150.0,842192.3000001907,9029,WL,A,12.0
7,24.932999849319458,immed,35067.00015068054,Tue Feb 10 2026 13:02:49 GMT-0500 (Eastern Standard Time),843625.3000001907,A,goldenter,I,enter,251,2,1433.0,842192.3000001907,9029,WL,A,12.0
7,31.816999912261963,immed,28183.000087738037,Tue Feb 10 2026 13:02:49 GMT-0500 (Eastern Standard Time),850509.1999998093,A,r,I,r,6861,2,6883.599999427795,843625.6000003815,9029,WL,A,13.0
7,31.983999967575073,immed,28016.000032424927,Tue Feb 10 2026 13:02:49 GMT-0500 (Eastern Standard Time),850675.8000001907,A,ra,I,a,148,2,7050.199999809265,843625.6000003815,9029,WL,A,13.0
7,32.31699991226196,immed,27683.000087738037,Tue Feb 10 2026 13:02:49 GMT-0500 (Eastern Standard Time),851009.1000003815,A,rat,I,t,321,2,7383.5,843625.6000003815,9029,WL,A,13.0
7,32.466999769210815,immed,27533.000230789185,Tue Feb 10 2026 13:02:49 GMT-0500 (Eastern Standard Time),851159.1000003815,A,ratt,I,t,131,2,7533.5,843625.6000003815,9029,WL,A,13.0
7,32.64999985694885,immed,27350.000143051147,Tue Feb 10 2026 13:02:49 GMT-0500 (Eastern Standard Time),851342.5,A,rattl,I,l,149,2,7716.89999961853,843625.6000003815,9029,WL,A,13.0
7,32.83399987220764,immed,27166.00012779236,Tue Feb 10 2026 13:02:49 GMT-0500 (Eastern Standard Time),851525.9000005722,A,rattle,I,e,165,2,7900.300000190735,843625.6000003815,9029,WL,A,13.0
7,33.31599998474121,immed,26684.00001525879,Tue Feb 10 2026 13:02:49 GMT-0500 (Eastern Standard Time),852008.5,A,rattleenter,I,enter,461,2,8382.89999961853,843625.6000003815,9029,WL,A,13.0
7,60.01699995994568,immed,-16.99995994567871,Tue Feb 10 2026 13:02:49 GMT-0500 (Eastern Standard Time),878709.3000001907,A,None,I,None,26694,2,26700.39999961853,852008.9000005722,9029,WL,A,14.0
