acc_sum,block,block_c,change,condition,correct,correct_response,datetime,endtime,face,project,response,response_time,row_sel,session_number,start_end,starttime,subject_id,task,task_vers,trial
0,prac,1,,1-Back,,,Wed Aug 20 2025 16:42:59 GMT-0400 (Eastern Daylight Time),,005_o_f_d_a.png,I,space,16055,1,2,,,9019,VNB,B,0
1,prac,1,0.0,1-Back,1.0,m,Wed Aug 20 2025 16:42:59 GMT-0400 (Eastern Daylight Time),4881280.099999905,020_y_f_n_a.png,I,m,1355,2,2,2328.0999999046326,4878952.0,9019,VNB,B,1
2,prac,1,0.0,1-Back,1.0,m,Wed Aug 20 2025 16:42:59 GMT-0400 (Eastern Daylight Time),4884113.199999809,007_m_m_h_a.png,I,m,1719,3,2,2820.0999999046326,4881293.099999905,9019,VNB,B,2
3,prac,1,0.0,1-Back,1.0,m,Wed Aug 20 2025 16:42:59 GMT-0400 (Eastern Daylight Time),4886563.299999714,016_y_m_d_a.png,I,m,1369,4,2,2434.2999997138977,4884129.0,9019,VNB,B,3
4,prac,1,0.0,1-Back,1.0,m,Wed Aug 20 2025 16:42:59 GMT-0400 (Eastern Daylight Time),4888696.5,005_o_f_n_a.png,I,m,1064,5,2,2117.800000190735,4886578.699999809,9019,VNB,B,4
4,prac,1,1.0,1-Back,0.0,z,Wed Aug 20 2025 16:42:59 GMT-0400 (Eastern Daylight Time),4890963.299999714,016_y_m_n_a.png,I,m,1216,6,2,2250.2999997138977,4888713.0,9019,VNB,B,5
5,prac,1,0.0,1-Back,1.0,m,Wed Aug 20 2025 16:42:59 GMT-0400 (Eastern Daylight Time),4892946.599999905,004_o_m_h_a.png,I,m,997,7,2,1966.5999999046326,4890980.0,9019,VNB,B,6
6,prac,1,0.0,1-Back,1.0,m,Wed Aug 20 2025 16:42:59 GMT-0400 (Eastern Daylight Time),4895146.699999809,011_m_f_d_a.png,I,m,1134,8,2,2186.199999809265,4892960.5,9019,VNB,B,7
6,prac,1,1.0,1-Back,0.0,z,Wed Aug 20 2025 16:42:59 GMT-0400 (Eastern Daylight Time),4897146.5,020_y_f_d_a.png,I,m,1067,9,2,1984.8000001907349,4895161.699999809,9019,VNB,B,8
7,prac,1,0.0,1-Back,1.0,m,Wed Aug 20 2025 16:42:59 GMT-0400 (Eastern Daylight Time),4899329.900000095,007_m_m_n_a.png,I,m,1221,10,2,2167.7000002861023,4897162.199999809,9019,VNB,B,9
8,prac,1,0.0,1-Back,1.0,m,Wed Aug 20 2025 16:42:59 GMT-0400 (Eastern Daylight Time),4901113.199999809,005_o_f_h_a.png,I,m,839,11,2,1769.5,4899343.699999809,9019,VNB,B,10
9,prac,1,0.0,1-Back,1.0,m,Wed Aug 20 2025 16:42:59 GMT-0400 (Eastern Daylight Time),4903230.0,016_y_m_d_a.png,I,m,1155,12,2,2101.0,4901129.0,9019,VNB,B,11
0,test,1,0.0,1-Back,,,Wed Aug 20 2025 16:42:59 GMT-0400 (Eastern Daylight Time),4903230.0,020_y_f_d_a.png,I,space,13852,1,2,2101.0,4901129.0,9019,VNB,B,0
1,test,1,0.0,1-Back,1.0,m,Wed Aug 20 2025 16:42:59 GMT-0400 (Eastern Daylight Time),4929413.0,011_m_f_n_a.png,I,m,1247,2,2,2252.7000002861023,4927160.299999714,9019,VNB,B,1
2,test,1,0.0,1-Back,1.0,m,Wed Aug 20 2025 16:42:59 GMT-0400 (Eastern Daylight Time),4931379.799999714,004_o_m_h_a.png,I,m,934,3,2,1955.1999998092651,4929424.599999905,9019,VNB,B,2
3,test,1,1.0,1-Back,1.0,z,Wed Aug 20 2025 16:42:59 GMT-0400 (Eastern Daylight Time),4933262.400000095,007_m_m_h_a.png,I,z,854,4,2,1873.0,4931389.400000095,9019,VNB,B,3
4,test,1,0.0,1-Back,1.0,m,Wed Aug 20 2025 16:42:59 GMT-0400 (Eastern Daylight Time),4934979.400000095,005_o_f_n_a.png,I,m,698,5,2,1708.0,4933271.400000095,9019,VNB,B,4
5,test,1,0.0,1-Back,1.0,m,Wed Aug 20 2025 16:42:59 GMT-0400 (Eastern Daylight Time),4936980.400000095,016_y_m_d_a.png,I,m,982,6,2,1989.1000003814697,4934991.299999714,9019,VNB,B,5
6,test,1,1.0,1-Back,1.0,z,Wed Aug 20 2025 16:42:59 GMT-0400 (Eastern Daylight Time),4939313.099999905,011_m_f_d_a.png,I,z,1302,7,2,2323.800000190735,4936989.299999714,9019,VNB,B,6
7,test,1,0.0,1-Back,1.0,m,Wed Aug 20 2025 16:42:59 GMT-0400 (Eastern Daylight Time),4941279.799999714,020_y_f_h_a.png,I,m,937,8,2,1951.2999997138977,4939328.5,9019,VNB,B,7
8,test,1,0.0,1-Back,1.0,m,Wed Aug 20 2025 16:42:59 GMT-0400 (Eastern Daylight Time),4943129.799999714,004_o_m_n_a.png,I,m,826,9,2,1837.0,4941292.799999714,9019,VNB,B,8
9,test,1,0.0,1-Back,1.0,m,Wed Aug 20 2025 16:42:59 GMT-0400 (Eastern Daylight Time),4945079.5,016_y_m_h_a.png,I,m,928,10,2,1936.0999999046326,4943143.400000095,9019,VNB,B,9
10,test,1,0.0,1-Back,1.0,m,Wed Aug 20 2025 16:42:59 GMT-0400 (Eastern Daylight Time),4947029.699999809,004_o_m_d_a.png,I,m,931,11,2,1938.6999998092651,4945091.0,9019,VNB,B,10
11,test,1,1.0,1-Back,1.0,z,Wed Aug 20 2025 16:42:59 GMT-0400 (Eastern Daylight Time),4949129.400000095,005_o_f_d_a.png,I,z,1076,12,2,2087.300000190735,4947042.099999905,9019,VNB,B,11
12,test,1,0.0,1-Back,1.0,m,Wed Aug 20 2025 16:42:59 GMT-0400 (Eastern Daylight Time),4951046.5,007_m_m_n_a.png,I,m,896,13,2,1908.5,4949138.0,9019,VNB,B,12
13,test,1,1.0,1-Back,1.0,z,Wed Aug 20 2025 16:42:59 GMT-0400 (Eastern Daylight Time),4953146.400000095,020_y_f_n_a.png,I,z,1074,14,2,2086.300000190735,4951060.099999905,9019,VNB,B,13
14,test,1,0.0,1-Back,1.0,m,Wed Aug 20 2025 16:42:59 GMT-0400 (Eastern Daylight Time),4955196.199999809,011_m_f_h_a.png,I,m,1023,15,2,2037.5999999046326,4953158.599999905,9019,VNB,B,14
15,test,1,0.0,1-Back,1.0,m,Wed Aug 20 2025 16:42:59 GMT-0400 (Eastern Daylight Time),4957046.400000095,007_m_m_d_a.png,I,m,830,16,2,1836.8000001907349,4955209.599999905,9019,VNB,B,15
16,test,1,0.0,1-Back,1.0,m,Wed Aug 20 2025 16:42:59 GMT-0400 (Eastern Daylight Time),4959096.400000095,016_y_m_n_a.png,I,m,961,17,2,1982.5,4957113.900000095,9019,VNB,B,16
17,test,1,0.0,1-Back,1.0,m,Wed Aug 20 2025 16:42:59 GMT-0400 (Eastern Daylight Time),4960896.400000095,005_o_f_h_a.png,I,m,770,18,2,1787.3000001907349,4959109.099999905,9019,VNB,B,17
0,test,2,0.0,1-Back,,,Wed Aug 20 2025 16:42:59 GMT-0400 (Eastern Daylight Time),4960896.400000095,016_y_m_n_a.png,I,space,1714,1,2,1787.3000001907349,4959109.099999905,9019,VNB,B,0
1,test,2,0.0,1-Back,1.0,m,Wed Aug 20 2025 16:42:59 GMT-0400 (Eastern Daylight Time),4966479.799999714,020_y_f_h_a.png,I,m,821,2,2,1835.0,4964644.799999714,9019,VNB,B,1
2,test,2,1.0,1-Back,1.0,m,Wed Aug 20 2025 16:42:59 GMT-0400 (Eastern Daylight Time),4968212.699999809,004_o_m_n_a.png,I,m,713,3,2,1720.2999997138977,4966492.400000095,9019,VNB,B,2
3,test,2,0.0,1-Back,1.0,m,Wed Aug 20 2025 16:42:59 GMT-0400 (Eastern Daylight Time),4970297.0,011_m_f_d_a.png,I,m,1061,4,2,2069.5,4968227.5,9019,VNB,B,3
4,test,2,0.0,1-Back,1.0,z,Wed Aug 20 2025 16:42:59 GMT-0400 (Eastern Daylight Time),4972179.799999714,007_m_m_d_a.png,I,z,851,5,2,1875.2999997138977,4970304.5,9019,VNB,B,4
5,test,2,0.0,1-Back,1.0,m,Wed Aug 20 2025 16:42:59 GMT-0400 (Eastern Daylight Time),4974046.5,016_y_m_h_a.png,I,m,823,6,2,1850.5999999046326,4972195.900000095,9019,VNB,B,5
6,test,2,1.0,1-Back,1.0,z,Wed Aug 20 2025 16:42:59 GMT-0400 (Eastern Daylight Time),4975979.799999714,005_o_f_h_a.png,I,z,907,7,2,1920.0999999046326,4974059.699999809,9019,VNB,B,6
7,test,2,0.0,1-Back,1.0,m,Wed Aug 20 2025 16:42:59 GMT-0400 (Eastern Daylight Time),4977863.099999905,011_m_f_n_a.png,I,m,863,8,2,1870.5,4975992.599999905,9019,VNB,B,7
8,test,2,0.0,1-Back,1.0,m,Wed Aug 20 2025 16:42:59 GMT-0400 (Eastern Daylight Time),4979846.099999905,020_y_f_d_a.png,I,m,963,9,2,1968.4000000953674,4977877.699999809,9019,VNB,B,8
9,test,2,0.0,1-Back,1.0,m,Wed Aug 20 2025 16:42:59 GMT-0400 (Eastern Daylight Time),4981663.199999809,007_m_m_n_a.png,I,m,788,10,2,1803.5,4979859.699999809,9019,VNB,B,9
10,test,2,1.0,1-Back,1.0,m,Wed Aug 20 2025 16:42:59 GMT-0400 (Eastern Daylight Time),4983446.299999714,011_m_f_h_a.png,I,m,746,11,2,1766.7999997138977,4981679.5,9019,VNB,B,10
11,test,2,0.0,1-Back,1.0,z,Wed Aug 20 2025 16:42:59 GMT-0400 (Eastern Daylight Time),4985363.099999905,004_o_m_h_a.png,I,z,883,12,2,1906.0,4983457.099999905,9019,VNB,B,11
12,test,2,0.0,1-Back,1.0,m,Wed Aug 20 2025 16:42:59 GMT-0400 (Eastern Daylight Time),4987179.900000095,016_y_m_d_a.png,I,m,792,13,2,1802.8000001907349,4985377.099999905,9019,VNB,B,12
13,test,2,0.0,1-Back,1.0,m,Wed Aug 20 2025 16:42:59 GMT-0400 (Eastern Daylight Time),4989012.900000095,005_o_f_n_a.png,I,m,815,14,2,1823.2000002861023,4987189.699999809,9019,VNB,B,13
14,test,2,0.0,1-Back,1.0,z,Wed Aug 20 2025 16:42:59 GMT-0400 (Eastern Daylight Time),4991179.799999714,020_y_f_n_a.png,I,z,1141,15,2,2154.0999999046326,4989025.699999809,9019,VNB,B,14
15,test,2,1.0,1-Back,1.0,m,Wed Aug 20 2025 16:42:59 GMT-0400 (Eastern Daylight Time),4993412.799999714,007_m_m_h_a.png,I,m,1214,16,2,2218.8999996185303,4991193.900000095,9019,VNB,B,15
15,test,2,0.0,1-Back,0.0,m,Wed Aug 20 2025 16:42:59 GMT-0400 (Eastern Daylight Time),4995446.099999905,005_o_f_d_a.png,I,z,1012,17,2,2020.1999998092651,4993425.900000095,9019,VNB,B,16
16,test,2,1.0,1-Back,1.0,z,Wed Aug 20 2025 16:42:59 GMT-0400 (Eastern Daylight Time),4997846.400000095,004_o_m_d_a.png,I,z,1380,18,2,2391.7000002861023,4995454.699999809,9019,VNB,B,17
0,test,3,1.0,1-Back,,,Wed Aug 20 2025 16:42:59 GMT-0400 (Eastern Daylight Time),4997846.400000095,005_o_f_h_a.png,I,space,1835,1,2,2391.7000002861023,4995454.699999809,9019,VNB,B,0
1,test,3,0.0,1-Back,1.0,m,Wed Aug 20 2025 16:42:59 GMT-0400 (Eastern Daylight Time),5004029.699999809,011_m_f_d_a.png,I,m,1123,2,2,2135.0,5001894.699999809,9019,VNB,B,1
2,test,3,1.0,1-Back,1.0,m,Wed Aug 20 2025 16:42:59 GMT-0400 (Eastern Daylight Time),5006479.799999714,007_m_m_n_a.png,I,m,1421,3,2,2436.8999996185303,5004042.900000095,9019,VNB,B,2
3,test,3,0.0,1-Back,1.0,z,Wed Aug 20 2025 16:42:59 GMT-0400 (Eastern Daylight Time),5008379.799999714,005_o_f_n_a.png,I,z,875,4,2,1885.8999996185303,5006493.900000095,9019,VNB,B,3
4,test,3,1.0,1-Back,1.0,m,Wed Aug 20 2025 16:42:59 GMT-0400 (Eastern Daylight Time),5010563.199999809,004_o_m_d_a.png,I,m,1150,5,2,2169.699999809265,5008393.5,9019,VNB,B,4
5,test,3,0.0,1-Back,1.0,m,Wed Aug 20 2025 16:42:59 GMT-0400 (Eastern Daylight Time),5012429.900000095,020_y_f_h_a.png,I,m,839,6,2,1853.3000001907349,5010576.599999905,9019,VNB,B,5
6,test,3,0.0,1-Back,1.0,z,Wed Aug 20 2025 16:42:59 GMT-0400 (Eastern Daylight Time),5014396.5,016_y_m_h_a.png,I,z,924,7,2,1951.5999999046326,5012444.900000095,9019,VNB,B,6
7,test,3,0.0,1-Back,1.0,m,Wed Aug 20 2025 16:42:59 GMT-0400 (Eastern Daylight Time),5016363.099999905,011_m_f_n_a.png,I,m,942,8,2,1955.1999998092651,5014407.900000095,9019,VNB,B,7
8,test,3,0.0,1-Back,1.0,m,Wed Aug 20 2025 16:42:59 GMT-0400 (Eastern Daylight Time),5018396.599999905,020_y_f_d_a.png,I,m,1007,9,2,2022.5,5016374.099999905,9019,VNB,B,8
9,test,3,1.0,1-Back,1.0,m,Wed Aug 20 2025 16:42:59 GMT-0400 (Eastern Daylight Time),5020879.900000095,004_o_m_n_a.png,I,m,1454,10,2,2469.300000190735,5018410.599999905,9019,VNB,B,9
10,test,3,0.0,1-Back,1.0,m,Wed Aug 20 2025 16:42:59 GMT-0400 (Eastern Daylight Time),5022829.900000095,007_m_m_h_a.png,I,m,906,11,2,1934.7000002861023,5020895.199999809,9019,VNB,B,10
11,test,3,0.0,1-Back,1.0,z,Wed Aug 20 2025 16:42:59 GMT-0400 (Eastern Daylight Time),5024829.799999714,011_m_f_h_a.png,I,z,973,12,2,1987.0999999046326,5022842.699999809,9019,VNB,B,11
12,test,3,1.0,1-Back,1.0,m,Wed Aug 20 2025 16:42:59 GMT-0400 (Eastern Daylight Time),5027096.5,005_o_f_d_a.png,I,m,1178,13,2,2196.800000190735,5024899.699999809,9019,VNB,B,12
13,test,3,0.0,1-Back,1.0,z,Wed Aug 20 2025 16:42:59 GMT-0400 (Eastern Daylight Time),5029746.099999905,007_m_m_d_a.png,I,z,1617,14,2,2635.5,5027110.599999905,9019,VNB,B,13
14,test,3,0.0,1-Back,1.0,m,Wed Aug 20 2025 16:42:59 GMT-0400 (Eastern Daylight Time),5031596.5,016_y_m_n_a.png,I,m,824,15,2,1842.0999999046326,5029754.400000095,9019,VNB,B,14
15,test,3,1.0,1-Back,1.0,m,Wed Aug 20 2025 16:42:59 GMT-0400 (Eastern Daylight Time),5033679.900000095,004_o_m_h_a.png,I,m,1046,16,2,2072.7000002861023,5031607.199999809,9019,VNB,B,15
16,test,3,0.0,1-Back,1.0,m,Wed Aug 20 2025 16:42:59 GMT-0400 (Eastern Daylight Time),5035763.199999809,016_y_m_d_a.png,I,m,1050,17,2,2072.0,5033691.199999809,9019,VNB,B,16
17,test,3,1.0,1-Back,1.0,m,Wed Aug 20 2025 16:42:59 GMT-0400 (Eastern Daylight Time),5037596.5,020_y_f_n_a.png,I,m,807,18,2,1819.8000001907349,5035776.699999809,9019,VNB,B,17
0,test,4,1.0,1-Back,,,Wed Aug 20 2025 16:42:59 GMT-0400 (Eastern Daylight Time),5037596.5,007_m_m_d_a.png,I,space,1349,1,2,1819.8000001907349,5035776.699999809,9019,VNB,B,0
1,test,4,0.0,1-Back,1.0,z,Wed Aug 20 2025 16:42:59 GMT-0400 (Eastern Daylight Time),5043129.799999714,004_o_m_d_a.png,I,z,1127,2,2,2140.2999997138977,5040989.5,9019,VNB,B,1
2,test,4,0.0,1-Back,1.0,m,Wed Aug 20 2025 16:42:59 GMT-0400 (Eastern Daylight Time),5044946.099999905,016_y_m_h_a.png,I,m,784,3,2,1806.5,5043139.599999905,9019,VNB,B,2
3,test,4,0.0,1-Back,1.0,m,Wed Aug 20 2025 16:42:59 GMT-0400 (Eastern Daylight Time),5046946.5,011_m_f_n_a.png,I,m,968,4,2,1991.5,5044955.0,9019,VNB,B,3
4,test,4,1.0,1-Back,1.0,m,Wed Aug 20 2025 16:42:59 GMT-0400 (Eastern Daylight Time),5049346.599999905,005_o_f_h_a.png,I,m,1367,5,2,2387.0,5046959.599999905,9019,VNB,B,4
5,test,4,0.0,1-Back,1.0,m,Wed Aug 20 2025 16:42:59 GMT-0400 (Eastern Daylight Time),5051163.199999809,007_m_m_n_a.png,I,m,790,6,2,1803.1999998092651,5049360.0,9019,VNB,B,5
6,test,4,0.0,1-Back,1.0,m,Wed Aug 20 2025 16:42:59 GMT-0400 (Eastern Daylight Time),5052929.900000095,016_y_m_d_a.png,I,m,734,7,2,1754.6000003814697,5051175.299999714,9019,VNB,B,6
7,test,4,1.0,1-Back,1.0,z,Wed Aug 20 2025 16:42:59 GMT-0400 (Eastern Daylight Time),5054829.900000095,020_y_f_d_a.png,I,z,805,8,2,1828.8000001907349,5053001.099999905,9019,VNB,B,7
8,test,4,0.0,1-Back,1.0,m,Wed Aug 20 2025 16:42:59 GMT-0400 (Eastern Daylight Time),5056763.299999714,011_m_f_h_a.png,I,m,842,9,2,1921.0,5054842.299999714,9019,VNB,B,8
9,test,4,0.0,1-Back,1.0,z,Wed Aug 20 2025 16:42:59 GMT-0400 (Eastern Daylight Time),5058663.199999809,004_o_m_h_a.png,I,z,880,10,2,1887.5999999046326,5056775.599999905,9019,VNB,B,9
10,test,4,1.0,1-Back,1.0,m,Wed Aug 20 2025 16:42:59 GMT-0400 (Eastern Daylight Time),5061013.0,005_o_f_n_a.png,I,m,1332,11,2,2337.800000190735,5058675.199999809,9019,VNB,B,10
11,test,4,0.0,1-Back,1.0,m,Wed Aug 20 2025 16:42:59 GMT-0400 (Eastern Daylight Time),5063246.400000095,011_m_f_d_a.png,I,m,1190,12,2,2218.4000000953674,5061028.0,9019,VNB,B,11
12,test,4,0.0,1-Back,1.0,m,Wed Aug 20 2025 16:42:59 GMT-0400 (Eastern Daylight Time),5065196.5,020_y_f_n_a.png,I,m,923,13,2,1937.5999999046326,5063258.900000095,9019,VNB,B,12
13,test,4,0.0,1-Back,1.0,m,Wed Aug 20 2025 16:42:59 GMT-0400 (Eastern Daylight Time),5067329.900000095,005_o_f_d_a.png,I,m,1102,14,2,2123.2000002861023,5065206.699999809,9019,VNB,B,13
14,test,4,0.0,1-Back,1.0,m,Wed Aug 20 2025 16:42:59 GMT-0400 (Eastern Daylight Time),5069263.299999714,020_y_f_h_a.png,I,m,905,15,2,1918.5,5067344.799999714,9019,VNB,B,14
15,test,4,1.0,1-Back,1.0,z,Wed Aug 20 2025 16:42:59 GMT-0400 (Eastern Daylight Time),5071246.5,007_m_m_h_a.png,I,z,955,16,2,1972.0,5069274.5,9019,VNB,B,15
16,test,4,0.0,1-Back,1.0,m,Wed Aug 20 2025 16:42:59 GMT-0400 (Eastern Daylight Time),5073163.299999714,004_o_m_n_a.png,I,m,891,17,2,1904.0999999046326,5071259.199999809,9019,VNB,B,16
17,test,4,1.0,1-Back,1.0,z,Wed Aug 20 2025 16:42:59 GMT-0400 (Eastern Daylight Time),5075863.299999714,016_y_m_n_a.png,I,z,1663,18,2,2684.199999809265,5073179.099999905,9019,VNB,B,17
0,test,5,1.0,1-Back,,,Wed Aug 20 2025 16:42:59 GMT-0400 (Eastern Daylight Time),5075863.299999714,004_o_m_n_a.png,I,space,1019,1,2,2684.199999809265,5073179.099999905,9019,VNB,B,0
1,test,5,1.0,1-Back,1.0,m,Wed Aug 20 2025 16:42:59 GMT-0400 (Eastern Daylight Time),5081196.5,005_o_f_h_a.png,I,m,1257,2,2,2271.0,5078925.5,9019,VNB,B,1
2,test,5,0.0,1-Back,1.0,m,Wed Aug 20 2025 16:42:59 GMT-0400 (Eastern Daylight Time),5083329.900000095,016_y_m_d_a.png,I,m,1102,3,2,2122.800000190735,5081207.099999905,9019,VNB,B,2
3,test,5,0.0,1-Back,1.0,z,Wed Aug 20 2025 16:42:59 GMT-0400 (Eastern Daylight Time),5085513.199999809,004_o_m_d_a.png,I,z,1144,4,2,2168.0999999046326,5083345.099999905,9019,VNB,B,3
4,test,5,0.0,1-Back,1.0,m,Wed Aug 20 2025 16:42:59 GMT-0400 (Eastern Daylight Time),5087346.5,011_m_f_h_a.png,I,m,800,5,2,1819.5999999046326,5085526.900000095,9019,VNB,B,4
5,test,5,0.0,1-Back,1.0,m,Wed Aug 20 2025 16:42:59 GMT-0400 (Eastern Daylight Time),5089263.199999809,020_y_f_n_a.png,I,m,888,6,2,1902.7999997138977,5087360.400000095,9019,VNB,B,5
6,test,5,1.0,1-Back,1.0,z,Wed Aug 20 2025 16:42:59 GMT-0400 (Eastern Daylight Time),5091130.0,005_o_f_n_a.png,I,z,843,7,2,1854.5999999046326,5089275.400000095,9019,VNB,B,6
7,test,5,0.0,1-Back,1.0,m,Wed Aug 20 2025 16:42:59 GMT-0400 (Eastern Daylight Time),5093246.699999809,011_m_f_d_a.png,I,m,1087,8,2,2107.5,5091139.199999809,9019,VNB,B,7
8,test,5,0.0,1-Back,1.0,m,Wed Aug 20 2025 16:42:59 GMT-0400 (Eastern Daylight Time),5095196.599999905,016_y_m_h_a.png,I,m,924,9,2,1939.9000000953674,5093256.699999809,9019,VNB,B,8
9,test,5,0.0,1-Back,1.0,m,Wed Aug 20 2025 16:42:59 GMT-0400 (Eastern Daylight Time),5097046.5,020_y_f_d_a.png,I,m,830,10,2,1838.2000002861023,5095208.299999714,9019,VNB,B,9
10,test,5,0.0,1-Back,1.0,m,Wed Aug 20 2025 16:42:59 GMT-0400 (Eastern Daylight Time),5098879.900000095,007_m_m_n_a.png,I,m,788,11,2,1818.5,5097061.400000095,9019,VNB,B,10
11,test,5,1.0,1-Back,1.0,z,Wed Aug 20 2025 16:42:59 GMT-0400 (Eastern Daylight Time),5101029.699999809,011_m_f_n_a.png,I,z,1131,12,2,2135.699999809265,5098894.0,9019,VNB,B,11
12,test,5,0.0,1-Back,1.0,m,Wed Aug 20 2025 16:42:59 GMT-0400 (Eastern Daylight Time),5102913.199999809,004_o_m_h_a.png,I,m,852,13,2,1871.6999998092651,5101041.5,9019,VNB,B,12
13,test,5,0.0,1-Back,1.0,z,Wed Aug 20 2025 16:42:59 GMT-0400 (Eastern Daylight Time),5104963.199999809,007_m_m_h_a.png,I,z,1018,14,2,2037.6999998092651,5102925.5,9019,VNB,B,13
14,test,5,1.0,1-Back,1.0,m,Wed Aug 20 2025 16:42:59 GMT-0400 (Eastern Daylight Time),5107146.599999905,005_o_f_d_a.png,I,m,1159,15,2,2169.0,5104977.599999905,9019,VNB,B,14
15,test,5,0.0,1-Back,1.0,m,Wed Aug 20 2025 16:42:59 GMT-0400 (Eastern Daylight Time),5109446.299999714,016_y_m_n_a.png,I,m,1280,16,2,2287.8999996185303,5107158.400000095,9019,VNB,B,15
16,test,5,0.0,1-Back,1.0,m,Wed Aug 20 2025 16:42:59 GMT-0400 (Eastern Daylight Time),5111229.900000095,020_y_f_h_a.png,I,m,756,17,2,1773.5,5109456.400000095,9019,VNB,B,16
17,test,5,0.0,1-Back,1.0,m,Wed Aug 20 2025 16:42:59 GMT-0400 (Eastern Daylight Time),5112980.199999809,007_m_m_d_a.png,I,m,732,18,2,1736.1999998092651,5111244.0,9019,VNB,B,17
0,prac,1,0.0,2-Back,,,Wed Aug 20 2025 16:42:59 GMT-0400 (Eastern Daylight Time),5112980.199999809,011_m_f_n_a.png,I,space,7800,1,2,1736.1999998092651,5111244.0,9019,VNB,B,0
0,prac,1,0.0,2-Back,,,Wed Aug 20 2025 16:42:59 GMT-0400 (Eastern Daylight Time),5112980.199999809,005_o_f_h_a.png,I,space,7800,2,2,1736.1999998092651,5111244.0,9019,VNB,B,0
1,prac,1,0.0,2-Back,1.0,m,Wed Aug 20 2025 16:42:59 GMT-0400 (Eastern Daylight Time),5213497.0,004_o_m_d_a.png,I,m,1255,3,2,2164.300000190735,5211332.699999809,9019,VNB,B,1
2,prac,1,1.0,2-Back,1.0,z,Wed Aug 20 2025 16:42:59 GMT-0400 (Eastern Daylight Time),5215814.0,007_m_m_h_a.png,I,z,1364,4,2,2301.0999999046326,5213512.900000095,9019,VNB,B,2
2,prac,1,0.0,2-Back,0.0,m,Wed Aug 20 2025 16:42:59 GMT-0400 (Eastern Daylight Time),5218746.599999905,020_y_f_n_a.png,I,None,2004,5,2,2915.699999809265,5215830.900000095,9019,VNB,B,3
3,prac,1,1.0,2-Back,1.0,z,Wed Aug 20 2025 16:42:59 GMT-0400 (Eastern Daylight Time),5220930.099999905,004_o_m_h_a.png,I,z,1246,6,2,2167.199999809265,5218762.900000095,9019,VNB,B,4
4,prac,1,1.0,2-Back,1.0,z,Wed Aug 20 2025 16:42:59 GMT-0400 (Eastern Daylight Time),5223046.799999714,016_y_m_n_a.png,I,z,1167,7,2,2101.8999996185303,5220944.900000095,9019,VNB,B,5
5,prac,1,0.0,2-Back,1.0,m,Wed Aug 20 2025 16:42:59 GMT-0400 (Eastern Daylight Time),5225146.199999809,011_m_f_d_a.png,I,m,1106,8,2,2028.4000000953674,5223117.799999714,9019,VNB,B,6
6,prac,1,0.0,2-Back,1.0,m,Wed Aug 20 2025 16:42:59 GMT-0400 (Eastern Daylight Time),5227230.099999905,005_o_f_d_a.png,I,m,1135,9,2,2070.800000190735,5225159.299999714,9019,VNB,B,7
6,prac,1,0.0,2-Back,0.0,m,Wed Aug 20 2025 16:42:59 GMT-0400 (Eastern Daylight Time),5229063.400000095,007_m_m_h_a.png,I,z,1044,10,2,1816.4000000953674,5227247.0,9019,VNB,B,8
7,prac,1,1.0,2-Back,1.0,z,Wed Aug 20 2025 16:42:59 GMT-0400 (Eastern Daylight Time),5231780.099999905,020_y_f_d_a.png,I,z,1785,11,2,2701.199999809265,5229078.900000095,9019,VNB,B,9
7,prac,1,0.0,2-Back,0.0,m,Wed Aug 20 2025 16:42:59 GMT-0400 (Eastern Daylight Time),5234365.0,004_o_m_n_a.png,I,z,1652,12,2,2564.5999999046326,5231800.400000095,9019,VNB,B,10
0,test,1,0.0,2-Back,,,Wed Aug 20 2025 16:42:59 GMT-0400 (Eastern Daylight Time),5234365.0,016_y_m_h_a.png,I,space,9678,1,2,2564.5999999046326,5231800.400000095,9019,VNB,B,0
0,test,1,0.0,2-Back,,,Wed Aug 20 2025 16:42:59 GMT-0400 (Eastern Daylight Time),5234365.0,005_o_f_n_a.png,I,space,9678,2,2,2564.5999999046326,5231800.400000095,9019,VNB,B,0
1,test,1,0.0,2-Back,1.0,z,Wed Aug 20 2025 16:42:59 GMT-0400 (Eastern Daylight Time),5263080.199999809,004_o_m_h_a.png,I,z,1012,3,2,2019.0999999046326,5261061.099999905,9019,VNB,B,1
2,test,1,0.0,2-Back,1.0,m,Wed Aug 20 2025 16:42:59 GMT-0400 (Eastern Daylight Time),5265696.699999809,011_m_f_d_a.png,I,m,1585,4,2,2603.7999997138977,5263092.900000095,9019,VNB,B,2
3,test,1,1.0,2-Back,1.0,m,Wed Aug 20 2025 16:42:59 GMT-0400 (Eastern Daylight Time),5268046.699999809,016_y_m_n_a.png,I,m,1320,5,2,2336.0999999046326,5265710.599999905,9019,VNB,B,3
4,test,1,0.0,2-Back,1.0,z,Wed Aug 20 2025 16:42:59 GMT-0400 (Eastern Daylight Time),5270080.0,020_y_f_d_a.png,I,z,1004,6,2,2019.8000001907349,5268060.199999809,9019,VNB,B,4
5,test,1,0.0,2-Back,1.0,m,Wed Aug 20 2025 16:42:59 GMT-0400 (Eastern Daylight Time),5272196.699999809,007_m_m_h_a.png,I,m,1083,7,2,2106.5,5270090.199999809,9019,VNB,B,5
6,test,1,1.0,2-Back,1.0,m,Wed Aug 20 2025 16:42:59 GMT-0400 (Eastern Daylight Time),5274579.799999714,020_y_f_n_a.png,I,m,1298,8,2,2303.5,5272276.299999714,9019,VNB,B,6
7,test,1,0.0,2-Back,1.0,z,Wed Aug 20 2025 16:42:59 GMT-0400 (Eastern Daylight Time),5276429.699999809,005_o_f_h_a.png,I,z,822,9,2,1839.1999998092651,5274590.5,9019,VNB,B,7
8,test,1,0.0,2-Back,1.0,m,Wed Aug 20 2025 16:42:59 GMT-0400 (Eastern Daylight Time),5278696.699999809,004_o_m_d_a.png,I,m,1245,10,2,2257.699999809265,5276439.0,9019,VNB,B,8
8,test,1,1.0,2-Back,0.0,m,Wed Aug 20 2025 16:42:59 GMT-0400 (Eastern Daylight Time),5281296.699999809,007_m_m_d_a.png,I,z,1570,11,2,2588.199999809265,5278708.5,9019,VNB,B,9
9,test,1,0.0,2-Back,1.0,m,Wed Aug 20 2025 16:42:59 GMT-0400 (Eastern Daylight Time),5283830.0,011_m_f_n_a.png,I,m,1514,12,2,2520.5,5281309.5,9019,VNB,B,10
9,test,1,0.0,2-Back,0.0,m,Wed Aug 20 2025 16:42:59 GMT-0400 (Eastern Daylight Time),5286096.599999905,020_y_f_h_a.png,I,z,1236,13,2,2254.5999999046326,5283842.0,9019,VNB,B,11
10,test,1,0.0,2-Back,1.0,z,Wed Aug 20 2025 16:42:59 GMT-0400 (Eastern Daylight Time),5288380.0,007_m_m_n_a.png,I,z,1258,14,2,2271.0,5286109.0,9019,VNB,B,12
11,test,1,0.0,2-Back,1.0,m,Wed Aug 20 2025 16:42:59 GMT-0400 (Eastern Daylight Time),5290513.5,016_y_m_d_a.png,I,m,1102,15,2,2119.7000002861023,5288393.799999714,9019,VNB,B,13
11,test,1,1.0,2-Back,0.0,m,Wed Aug 20 2025 16:42:59 GMT-0400 (Eastern Daylight Time),5292846.400000095,011_m_f_h_a.png,I,z,1305,16,2,2321.0,5290525.400000095,9019,VNB,B,14
12,test,1,0.0,2-Back,1.0,z,Wed Aug 20 2025 16:42:59 GMT-0400 (Eastern Daylight Time),5295380.299999714,005_o_f_d_a.png,I,z,1515,17,2,2521.699999809265,5292858.599999905,9019,VNB,B,15
13,test,1,0.0,2-Back,1.0,m,Wed Aug 20 2025 16:42:59 GMT-0400 (Eastern Daylight Time),5297779.799999714,004_o_m_n_a.png,I,m,1367,18,2,2387.2999997138977,5295392.5,9019,VNB,B,16
0,test,2,0.0,2-Back,,,Wed Aug 20 2025 16:42:59 GMT-0400 (Eastern Daylight Time),5297779.799999714,007_m_m_h_a.png,I,space,3967,1,2,2387.2999997138977,5295392.5,9019,VNB,B,0
0,test,2,0.0,2-Back,,,Wed Aug 20 2025 16:42:59 GMT-0400 (Eastern Daylight Time),5297779.799999714,020_y_f_n_a.png,I,space,3967,2,2,2387.2999997138977,5295392.5,9019,VNB,B,0
1,test,2,1.0,2-Back,1.0,z,Wed Aug 20 2025 16:42:59 GMT-0400 (Eastern Daylight Time),5309113.400000095,005_o_f_h_a.png,I,z,994,3,2,2005.0,5307108.400000095,9019,VNB,B,1
2,test,2,0.0,2-Back,1.0,m,Wed Aug 20 2025 16:42:59 GMT-0400 (Eastern Daylight Time),5311180.099999905,004_o_m_d_a.png,I,m,1042,4,2,2053.4000000953674,5309126.699999809,9019,VNB,B,2
3,test,2,0.0,2-Back,1.0,m,Wed Aug 20 2025 16:42:59 GMT-0400 (Eastern Daylight Time),5313663.099999905,011_m_f_d_a.png,I,m,1454,5,2,2473.199999809265,5311189.900000095,9019,VNB,B,3
4,test,2,0.0,2-Back,1.0,m,Wed Aug 20 2025 16:42:59 GMT-0400 (Eastern Daylight Time),5315814.099999905,016_y_m_h_a.png,I,m,1131,6,2,2143.0,5313671.099999905,9019,VNB,B,4
4,test,2,0.0,2-Back,0.0,m,Wed Aug 20 2025 16:42:59 GMT-0400 (Eastern Daylight Time),5318030.0,005_o_f_n_a.png,I,z,1190,7,2,2201.2000002861023,5315828.799999714,9019,VNB,B,5
5,test,2,1.0,2-Back,1.0,z,Wed Aug 20 2025 16:42:59 GMT-0400 (Eastern Daylight Time),5319963.299999714,004_o_m_h_a.png,I,z,908,8,2,1919.7999997138977,5318043.5,9019,VNB,B,6
6,test,2,0.0,2-Back,1.0,m,Wed Aug 20 2025 16:42:59 GMT-0400 (Eastern Daylight Time),5322479.900000095,020_y_f_d_a.png,I,m,1486,9,2,2504.5,5319975.400000095,9019,VNB,B,7
7,test,2,0.0,2-Back,1.0,m,Wed Aug 20 2025 16:42:59 GMT-0400 (Eastern Daylight Time),5324696.400000095,016_y_m_d_a.png,I,m,1193,10,2,2205.2000002861023,5322491.199999809,9019,VNB,B,8
7,test,2,0.0,2-Back,0.0,m,Wed Aug 20 2025 16:42:59 GMT-0400 (Eastern Daylight Time),5326597.0,007_m_m_n_a.png,I,z,882,11,2,1893.5,5324703.5,9019,VNB,B,9
8,test,2,0.0,2-Back,1.0,m,Wed Aug 20 2025 16:42:59 GMT-0400 (Eastern Daylight Time),5328796.699999809,011_m_f_h_a.png,I,m,1173,12,2,2187.0999999046326,5326609.599999905,9019,VNB,B,10
9,test,2,1.0,2-Back,1.0,z,Wed Aug 20 2025 16:42:59 GMT-0400 (Eastern Daylight Time),5330946.5,004_o_m_n_a.png,I,z,1117,13,2,2136.0,5328810.5,9019,VNB,B,11
10,test,2,0.0,2-Back,1.0,m,Wed Aug 20 2025 16:42:59 GMT-0400 (Eastern Daylight Time),5333063.299999714,005_o_f_d_a.png,I,m,1096,14,2,2107.0999999046326,5330956.199999809,9019,VNB,B,12
11,test,2,0.0,2-Back,1.0,m,Wed Aug 20 2025 16:42:59 GMT-0400 (Eastern Daylight Time),5335546.799999714,020_y_f_h_a.png,I,m,1458,15,2,2470.0999999046326,5333076.699999809,9019,VNB,B,13
12,test,2,0.0,2-Back,1.0,z,Wed Aug 20 2025 16:42:59 GMT-0400 (Eastern Daylight Time),5337396.699999809,007_m_m_d_a.png,I,z,832,16,2,1838.6999998092651,5335558.0,9019,VNB,B,14
12,test,2,0.0,2-Back,0.0,m,Wed Aug 20 2025 16:42:59 GMT-0400 (Eastern Daylight Time),5340046.799999714,016_y_m_n_a.png,I,z,1622,17,2,2639.8999996185303,5337406.900000095,9019,VNB,B,15
13,test,2,1.0,2-Back,1.0,m,Wed Aug 20 2025 16:42:59 GMT-0400 (Eastern Daylight Time),5342663.299999714,011_m_f_n_a.png,I,m,1596,18,2,2603.3999996185303,5340059.900000095,9019,VNB,B,16
0,test,3,1.0,2-Back,,,Wed Aug 20 2025 16:42:59 GMT-0400 (Eastern Daylight Time),5342663.299999714,004_o_m_n_a.png,I,space,1451,1,2,2603.3999996185303,5340059.900000095,9019,VNB,B,0
0,test,3,1.0,2-Back,,,Wed Aug 20 2025 16:42:59 GMT-0400 (Eastern Daylight Time),5342663.299999714,005_o_f_d_a.png,I,space,1451,2,2,2603.3999996185303,5340059.900000095,9019,VNB,B,0
1,test,3,0.0,2-Back,1.0,m,Wed Aug 20 2025 16:42:59 GMT-0400 (Eastern Daylight Time),5351446.400000095,020_y_f_h_a.png,I,m,964,3,2,1970.7000002861023,5349475.699999809,9019,VNB,B,1
2,test,3,0.0,2-Back,1.0,z,Wed Aug 20 2025 16:42:59 GMT-0400 (Eastern Daylight Time),5354013.400000095,011_m_f_d_a.png,I,z,1540,4,2,2554.0,5351459.400000095,9019,VNB,B,2
3,test,3,1.0,2-Back,1.0,m,Wed Aug 20 2025 16:42:59 GMT-0400 (Eastern Daylight Time),5356180.099999905,016_y_m_n_a.png,I,m,1134,5,2,2154.0,5354026.099999905,9019,VNB,B,3
3,test,3,0.0,2-Back,0.0,m,Wed Aug 20 2025 16:42:59 GMT-0400 (Eastern Daylight Time),5358446.699999809,004_o_m_h_a.png,I,z,1238,6,2,2251.2999997138977,5356195.400000095,9019,VNB,B,4
3,test,3,0.0,2-Back,0.0,z,Wed Aug 20 2025 16:42:59 GMT-0400 (Eastern Daylight Time),5361246.900000095,020_y_f_n_a.png,I,m,1772,7,2,2790.5,5358456.400000095,9019,VNB,B,5
4,test,3,1.0,2-Back,1.0,m,Wed Aug 20 2025 16:42:59 GMT-0400 (Eastern Daylight Time),5364063.400000095,007_m_m_d_a.png,I,m,1722,8,2,2747.9000000953674,5361315.5,9019,VNB,B,6
5,test,3,0.0,2-Back,1.0,m,Wed Aug 20 2025 16:42:59 GMT-0400 (Eastern Daylight Time),5366596.799999714,016_y_m_d_a.png,I,m,1466,9,2,2468.8999996185303,5364127.900000095,9019,VNB,B,7
6,test,3,0.0,2-Back,1.0,m,Wed Aug 20 2025 16:42:59 GMT-0400 (Eastern Daylight Time),5368846.699999809,005_o_f_h_a.png,I,m,1222,10,2,2237.7999997138977,5366608.900000095,9019,VNB,B,8
7,test,3,1.0,2-Back,1.0,m,Wed Aug 20 2025 16:42:59 GMT-0400 (Eastern Daylight Time),5370746.799999714,011_m_f_n_a.png,I,m,860,11,2,1883.2999997138977,5368863.5,9019,VNB,B,9
8,test,3,1.0,2-Back,1.0,z,Wed Aug 20 2025 16:42:59 GMT-0400 (Eastern Daylight Time),5372463.400000095,007_m_m_h_a.png,I,z,671,12,2,1701.7000002861023,5370761.699999809,9019,VNB,B,10
9,test,3,0.0,2-Back,1.0,m,Wed Aug 20 2025 16:42:59 GMT-0400 (Eastern Daylight Time),5375163.5,020_y_f_d_a.png,I,m,1675,13,2,2688.2000002861023,5372475.299999714,9019,VNB,B,11
9,test,3,0.0,2-Back,0.0,m,Wed Aug 20 2025 16:42:59 GMT-0400 (Eastern Daylight Time),5377646.799999714,005_o_f_n_a.png,I,z,1454,14,2,2469.199999809265,5375177.599999905,9019,VNB,B,12
10,test,3,0.0,2-Back,1.0,z,Wed Aug 20 2025 16:42:59 GMT-0400 (Eastern Daylight Time),5380046.5,004_o_m_d_a.png,I,z,1372,15,2,2385.5,5377661.0,9019,VNB,B,13
10,test,3,1.0,2-Back,0.0,m,Wed Aug 20 2025 16:42:59 GMT-0400 (Eastern Daylight Time),5382580.0,011_m_f_h_a.png,I,z,1500,16,2,2523.300000190735,5380056.699999809,9019,VNB,B,14
11,test,3,0.0,2-Back,1.0,m,Wed Aug 20 2025 16:42:59 GMT-0400 (Eastern Daylight Time),5384946.799999714,007_m_m_n_a.png,I,m,1335,17,2,2352.7999997138977,5382594.0,9019,VNB,B,15
12,test,3,0.0,2-Back,1.0,z,Wed Aug 20 2025 16:42:59 GMT-0400 (Eastern Daylight Time),5387196.900000095,016_y_m_h_a.png,I,z,1224,18,2,2237.6000003814697,5384959.299999714,9019,VNB,B,16
0,test,4,0.0,2-Back,,,Wed Aug 20 2025 16:42:59 GMT-0400 (Eastern Daylight Time),5387196.900000095,011_m_f_n_a.png,I,space,1798,1,2,2237.6000003814697,5384959.299999714,9019,VNB,B,0
0,test,4,0.0,2-Back,,,Wed Aug 20 2025 16:42:59 GMT-0400 (Eastern Daylight Time),5387196.900000095,004_o_m_n_a.png,I,space,1798,2,2,2237.6000003814697,5384959.299999714,9019,VNB,B,0
1,test,4,1.0,2-Back,1.0,m,Wed Aug 20 2025 16:42:59 GMT-0400 (Eastern Daylight Time),5396463.299999714,016_y_m_h_a.png,I,m,1037,3,2,2067.199999809265,5394396.099999905,9019,VNB,B,1
2,test,4,1.0,2-Back,1.0,m,Wed Aug 20 2025 16:42:59 GMT-0400 (Eastern Daylight Time),5398713.299999714,005_o_f_d_a.png,I,m,1227,4,2,2236.5,5396476.799999714,9019,VNB,B,2
3,test,4,0.0,2-Back,1.0,z,Wed Aug 20 2025 16:42:59 GMT-0400 (Eastern Daylight Time),5400796.799999714,004_o_m_h_a.png,I,z,1058,5,2,2071.0,5398725.799999714,9019,VNB,B,3
4,test,4,0.0,2-Back,1.0,m,Wed Aug 20 2025 16:42:59 GMT-0400 (Eastern Daylight Time),5403380.199999809,007_m_m_n_a.png,I,m,1566,6,2,2568.5999999046326,5400811.599999905,9019,VNB,B,4
5,test,4,0.0,2-Back,1.0,m,Wed Aug 20 2025 16:42:59 GMT-0400 (Eastern Daylight Time),5405796.299999714,011_m_f_d_a.png,I,m,1398,7,2,2405.0,5403391.299999714,9019,VNB,B,5
6,test,4,0.0,2-Back,1.0,z,Wed Aug 20 2025 16:42:59 GMT-0400 (Eastern Daylight Time),5407730.099999905,020_y_f_n_a.png,I,z,902,8,2,1927.3000001907349,5405802.799999714,9019,VNB,B,6
7,test,4,1.0,2-Back,1.0,m,Wed Aug 20 2025 16:42:59 GMT-0400 (Eastern Daylight Time),5409963.400000095,005_o_f_h_a.png,I,m,1208,9,2,2219.5,5407743.900000095,9019,VNB,B,7
8,test,4,0.0,2-Back,1.0,m,Wed Aug 20 2025 16:42:59 GMT-0400 (Eastern Daylight Time),5412013.5,007_m_m_h_a.png,I,m,1023,10,2,2040.0999999046326,5409973.400000095,9019,VNB,B,8
8,test,4,0.0,2-Back,0.0,m,Wed Aug 20 2025 16:42:59 GMT-0400 (Eastern Daylight Time),5414746.699999809,020_y_f_d_a.png,I,z,1708,11,2,2718.5999999046326,5412028.099999905,9019,VNB,B,9
9,test,4,0.0,2-Back,1.0,m,Wed Aug 20 2025 16:42:59 GMT-0400 (Eastern Daylight Time),5416913.199999809,016_y_m_n_a.png,I,m,1135,12,2,2154.2999997138977,5414758.900000095,9019,VNB,B,10
10,test,4,0.0,2-Back,1.0,z,Wed Aug 20 2025 16:42:59 GMT-0400 (Eastern Daylight Time),5419280.099999905,004_o_m_d_a.png,I,z,1337,13,2,2354.5,5416925.599999905,9019,VNB,B,11
11,test,4,1.0,2-Back,1.0,m,Wed Aug 20 2025 16:42:59 GMT-0400 (Eastern Daylight Time),5421530.099999905,011_m_f_h_a.png,I,m,1226,14,2,2240.199999809265,5419289.900000095,9019,VNB,B,12
11,test,4,1.0,2-Back,0.0,m,Wed Aug 20 2025 16:42:59 GMT-0400 (Eastern Daylight Time),5424180.5,020_y_f_h_a.png,I,z,1633,15,2,2637.0999999046326,5421543.400000095,9019,VNB,B,13
12,test,4,0.0,2-Back,1.0,m,Wed Aug 20 2025 16:42:59 GMT-0400 (Eastern Daylight Time),5426496.900000095,005_o_f_n_a.png,I,m,1286,16,2,2306.7000002861023,5424190.199999809,9019,VNB,B,14
13,test,4,0.0,2-Back,1.0,m,Wed Aug 20 2025 16:42:59 GMT-0400 (Eastern Daylight Time),5429130.199999809,016_y_m_d_a.png,I,m,1577,17,2,2596.7999997138977,5426533.400000095,9019,VNB,B,15
13,test,4,1.0,2-Back,0.0,m,Wed Aug 20 2025 16:42:59 GMT-0400 (Eastern Daylight Time),5431313.5,007_m_m_d_a.png,I,z,1086,18,2,2112.9000000953674,5429200.599999905,9019,VNB,B,16
0,test,5,1.0,2-Back,,,Wed Aug 20 2025 16:42:59 GMT-0400 (Eastern Daylight Time),5431313.5,020_y_f_d_a.png,I,space,1456,1,2,2112.9000000953674,5429200.599999905,9019,VNB,B,0
0,test,5,1.0,2-Back,,,Wed Aug 20 2025 16:42:59 GMT-0400 (Eastern Daylight Time),5431313.5,005_o_f_h_a.png,I,space,1456,2,2,2112.9000000953674,5429200.599999905,9019,VNB,B,0
1,test,5,1.0,2-Back,1.0,z,Wed Aug 20 2025 16:42:59 GMT-0400 (Eastern Daylight Time),5440113.5,004_o_m_d_a.png,I,z,919,3,2,1938.7000002861023,5438174.799999714,9019,VNB,B,1
2,test,5,1.0,2-Back,1.0,m,Wed Aug 20 2025 16:42:59 GMT-0400 (Eastern Daylight Time),5442330.099999905,011_m_f_n_a.png,I,m,1193,4,2,2202.0999999046326,5440128.0,9019,VNB,B,2
3,test,5,0.0,2-Back,1.0,m,Wed Aug 20 2025 16:42:59 GMT-0400 (Eastern Daylight Time),5444596.900000095,007_m_m_h_a.png,I,m,1247,5,2,2255.1000003814697,5442341.799999714,9019,VNB,B,3
4,test,5,0.0,2-Back,1.0,z,Wed Aug 20 2025 16:42:59 GMT-0400 (Eastern Daylight Time),5446846.799999714,020_y_f_n_a.png,I,z,1221,6,2,2238.5,5444608.299999714,9019,VNB,B,4
5,test,5,0.0,2-Back,1.0,m,Wed Aug 20 2025 16:42:59 GMT-0400 (Eastern Daylight Time),5449113.5,005_o_f_d_a.png,I,m,1244,7,2,2255.5,5446858.0,9019,VNB,B,5
6,test,5,0.0,2-Back,1.0,m,Wed Aug 20 2025 16:42:59 GMT-0400 (Eastern Daylight Time),5451130.199999809,004_o_m_h_a.png,I,m,976,8,2,1995.5999999046326,5449134.599999905,9019,VNB,B,6
7,test,5,1.0,2-Back,1.0,z,Wed Aug 20 2025 16:42:59 GMT-0400 (Eastern Daylight Time),5453163.5,011_m_f_d_a.png,I,z,1009,9,2,2019.0999999046326,5451144.400000095,9019,VNB,B,7
8,test,5,0.0,2-Back,1.0,m,Wed Aug 20 2025 16:42:59 GMT-0400 (Eastern Daylight Time),5455429.900000095,016_y_m_n_a.png,I,m,1247,10,2,2252.5,5453177.400000095,9019,VNB,B,8
9,test,5,0.0,2-Back,1.0,m,Wed Aug 20 2025 16:42:59 GMT-0400 (Eastern Daylight Time),5457913.5,007_m_m_n_a.png,I,m,1459,11,2,2471.4000000953674,5455442.099999905,9019,VNB,B,9
10,test,5,0.0,2-Back,1.0,m,Wed Aug 20 2025 16:42:59 GMT-0400 (Eastern Daylight Time),5460463.400000095,020_y_f_h_a.png,I,m,1505,12,2,2534.2000002861023,5457929.199999809,9019,VNB,B,10
11,test,5,0.0,2-Back,1.0,m,Wed Aug 20 2025 16:42:59 GMT-0400 (Eastern Daylight Time),5462496.799999714,016_y_m_d_a.png,I,m,1002,13,2,2021.3999996185303,5460475.400000095,9019,VNB,B,11
12,test,5,1.0,2-Back,1.0,z,Wed Aug 20 2025 16:42:59 GMT-0400 (Eastern Daylight Time),5464380.199999809,011_m_f_h_a.png,I,z,857,14,2,1869.6999998092651,5462510.5,9019,VNB,B,12
12,test,5,0.0,2-Back,0.0,m,Wed Aug 20 2025 16:42:59 GMT-0400 (Eastern Daylight Time),5466830.199999809,004_o_m_n_a.png,I,z,1423,15,2,2437.199999809265,5464393.0,9019,VNB,B,13
13,test,5,0.0,2-Back,1.0,m,Wed Aug 20 2025 16:42:59 GMT-0400 (Eastern Daylight Time),5469063.400000095,007_m_m_d_a.png,I,m,1213,16,2,2219.7000002861023,5466843.699999809,9019,VNB,B,14
14,test,5,0.0,2-Back,1.0,z,Wed Aug 20 2025 16:42:59 GMT-0400 (Eastern Daylight Time),5471180.0,005_o_f_n_a.png,I,z,1091,17,2,2104.300000190735,5469075.699999809,9019,VNB,B,15
15,test,5,1.0,2-Back,1.0,m,Wed Aug 20 2025 16:42:59 GMT-0400 (Eastern Daylight Time),5473279.5,016_y_m_h_a.png,I,m,1003,18,2,2085.4000000953674,5471194.099999905,9019,VNB,B,16
