acc_sum,block,block_c,change,condition,correct,correct_response,datetime,endtime,face,project,response,response_time,row_sel,session_number,start_end,starttime,subject_id,task,task_vers,trial
0,prac,1,,1-Back,,,Fri Aug 15 2025 09:59:50 GMT-0500 (Central Daylight Time),,093_m_f_n_a.png,I,space,4363,1,2,,,8036,NNB,C,0
1,prac,1,0.0,1-Back,1,m,Fri Aug 15 2025 09:59:50 GMT-0500 (Central Daylight Time),115836.5,098_y_f_n_a.png,I,m,1221,2,2,2087.800000011921,113748.69999998808,8036,NNB,C,1
1,prac,1,1.0,1-Back,0,z,Fri Aug 15 2025 09:59:50 GMT-0500 (Central Daylight Time),117918.89999997616,098_y_f_n_a.png,I,m,1295,3,2,2071.7999999523163,115847.10000002384,8036,NNB,C,2
2,prac,1,0.0,1-Back,1,m,Fri Aug 15 2025 09:59:50 GMT-0500 (Central Daylight Time),120218.19999998808,059_o_m_n_a.png,I,m,1412,4,2,2289.199999988079,117929.0,8036,NNB,C,3
2,prac,1,0.0,1-Back,0,m,Fri Aug 15 2025 09:59:50 GMT-0500 (Central Daylight Time),122684.19999998808,092_m_m_n_a.png,I,z,1568,5,2,2456.699999988079,120227.5,8036,NNB,C,4
2,prac,1,1.0,1-Back,0,z,Fri Aug 15 2025 09:59:50 GMT-0500 (Central Daylight Time),125433.30000001192,092_m_m_n_a.png,I,m,1968,6,2,2739.900000035763,122693.39999997616,8036,NNB,C,5
3,prac,1,0.0,1-Back,1,m,Fri Aug 15 2025 09:59:50 GMT-0500 (Central Daylight Time),128098.89999997616,130_o_f_n_a.png,I,m,1750,7,2,2655.7999999523163,125443.10000002384,8036,NNB,C,6
4,prac,1,0.0,1-Back,1,m,Fri Aug 15 2025 09:59:50 GMT-0500 (Central Daylight Time),129965.10000002384,082_m_m_n_a.png,I,m,969,8,2,1857.5,128107.60000002384,8036,NNB,C,7
5,prac,1,0.0,1-Back,1,m,Fri Aug 15 2025 09:59:50 GMT-0500 (Central Daylight Time),131814.80000001192,093_m_f_n_a.png,I,m,1065,9,2,1841.0,129973.80000001192,8036,NNB,C,8
5,prac,1,1.0,1-Back,0,z,Fri Aug 15 2025 09:59:50 GMT-0500 (Central Daylight Time),133680.60000002384,093_m_f_n_a.png,I,m,1076,10,2,1855.1000000238419,131825.5,8036,NNB,C,9
5,prac,1,0.0,1-Back,0,m,Fri Aug 15 2025 09:59:50 GMT-0500 (Central Daylight Time),134963.60000002384,059_o_m_n_a.png,I,z,491,11,2,1272.800000011921,133690.80000001192,8036,NNB,C,10
6,prac,1,0.0,1-Back,1,m,Fri Aug 15 2025 09:59:50 GMT-0500 (Central Daylight Time),136863.19999998808,028_y_f_n_a.png,I,m,1008,12,2,1889.5,134973.69999998808,8036,NNB,C,11
0,prac,2,0.0,1-Back,,,Fri Aug 15 2025 09:59:50 GMT-0500 (Central Daylight Time),136863.19999998808,093_m_f_n_a.png,I,a,4579,1,2,1889.5,134973.69999998808,8036,NNB,C,0
1,prac,2,0.0,1-Back,1,m,Fri Aug 15 2025 09:59:50 GMT-0500 (Central Daylight Time),146193.39999997616,098_y_f_n_a.png,I,m,820,2,2,1690.3999999761581,144503.0,8036,NNB,C,1
2,prac,2,1.0,1-Back,1,z,Fri Aug 15 2025 09:59:50 GMT-0500 (Central Daylight Time),148093.0,098_y_f_n_a.png,I,z,1107,3,2,1890.699999988079,146202.30000001192,8036,NNB,C,2
3,prac,2,0.0,1-Back,1,m,Fri Aug 15 2025 09:59:50 GMT-0500 (Central Daylight Time),149825.5,059_o_m_n_a.png,I,m,943,4,2,1722.8999999761581,148102.60000002384,8036,NNB,C,3
4,prac,2,0.0,1-Back,1,m,Fri Aug 15 2025 09:59:50 GMT-0500 (Central Daylight Time),151674.80000001192,092_m_m_n_a.png,I,m,954,5,2,1839.199999988079,149835.60000002384,8036,NNB,C,4
5,prac,2,1.0,1-Back,1,z,Fri Aug 15 2025 09:59:50 GMT-0500 (Central Daylight Time),153291.10000002384,092_m_m_n_a.png,I,z,827,6,2,1607.7000000476837,151683.39999997616,8036,NNB,C,5
6,prac,2,0.0,1-Back,1,m,Fri Aug 15 2025 09:59:50 GMT-0500 (Central Daylight Time),154974.0,130_o_f_n_a.png,I,m,781,7,2,1671.8999999761581,153302.10000002384,8036,NNB,C,6
7,prac,2,0.0,1-Back,1,m,Fri Aug 15 2025 09:59:50 GMT-0500 (Central Daylight Time),157006.60000002384,082_m_m_n_a.png,I,m,1147,8,2,2023.6000000238419,154983.0,8036,NNB,C,7
8,prac,2,0.0,1-Back,1,m,Fri Aug 15 2025 09:59:50 GMT-0500 (Central Daylight Time),158706.0,093_m_f_n_a.png,I,m,909,9,2,1689.8999999761581,157016.10000002384,8036,NNB,C,8
9,prac,2,1.0,1-Back,1,z,Fri Aug 15 2025 09:59:50 GMT-0500 (Central Daylight Time),160272.30000001192,093_m_f_n_a.png,I,z,786,10,2,1557.1000000238419,158715.19999998808,8036,NNB,C,9
10,prac,2,0.0,1-Back,1,m,Fri Aug 15 2025 09:59:50 GMT-0500 (Central Daylight Time),161921.5,059_o_m_n_a.png,I,m,869,11,2,1640.5,160281.0,8036,NNB,C,10
11,prac,2,0.0,1-Back,1,m,Fri Aug 15 2025 09:59:50 GMT-0500 (Central Daylight Time),163704.60000002384,028_y_f_n_a.png,I,m,898,12,2,1774.2000000476837,161930.39999997616,8036,NNB,C,11
0,test,1,0.0,1-Back,,,Fri Aug 15 2025 09:59:50 GMT-0500 (Central Daylight Time),163704.60000002384,098_y_f_n_a.png,I,space,8565,1,2,1774.2000000476837,161930.39999997616,8036,NNB,C,0
0,test,1,0.0,1-Back,0,m,Fri Aug 15 2025 09:59:50 GMT-0500 (Central Daylight Time),181865.69999998808,006_m_f_n_a.png,I,z,797,2,2,1808.300000011921,180057.39999997616,8036,NNB,C,1
1,test,1,0.0,1-Back,1,m,Fri Aug 15 2025 09:59:50 GMT-0500 (Central Daylight Time),183914.80000001192,028_y_f_n_a.png,I,m,1021,3,2,2042.6000000238419,181872.19999998808,8036,NNB,C,2
2,test,1,1.0,1-Back,1,z,Fri Aug 15 2025 09:59:50 GMT-0500 (Central Daylight Time),185664.19999998808,028_y_f_n_a.png,I,z,723,4,2,1742.3999999761581,183921.80000001192,8036,NNB,C,3
3,test,1,0.0,1-Back,1,m,Fri Aug 15 2025 09:59:50 GMT-0500 (Central Daylight Time),187813.60000002384,006_m_f_n_a.png,I,m,1126,5,2,2142.900000035763,185670.69999998808,8036,NNB,C,4
4,test,1,0.0,1-Back,1,m,Fri Aug 15 2025 09:59:50 GMT-0500 (Central Daylight Time),189663.0,059_o_m_n_a.png,I,m,824,6,2,1842.300000011921,187820.69999998808,8036,NNB,C,5
5,test,1,1.0,1-Back,1,z,Fri Aug 15 2025 09:59:50 GMT-0500 (Central Daylight Time),191512.39999997616,059_o_m_n_a.png,I,z,822,7,2,1842.699999988079,189669.69999998808,8036,NNB,C,6
6,test,1,0.0,1-Back,1,m,Fri Aug 15 2025 09:59:50 GMT-0500 (Central Daylight Time),193345.10000002384,092_m_m_n_a.png,I,m,805,8,2,1825.6000000238419,191519.5,8036,NNB,C,7
7,test,1,0.0,1-Back,1,m,Fri Aug 15 2025 09:59:50 GMT-0500 (Central Daylight Time),195261.30000001192,130_o_f_n_a.png,I,m,893,9,2,1909.1000000238419,193352.19999998808,8036,NNB,C,8
8,test,1,0.0,1-Back,1,m,Fri Aug 15 2025 09:59:50 GMT-0500 (Central Daylight Time),197310.60000002384,092_m_m_n_a.png,I,m,1024,10,2,2042.0,195268.60000002384,8036,NNB,C,9
9,test,1,0.0,1-Back,1,m,Fri Aug 15 2025 09:59:50 GMT-0500 (Central Daylight Time),199076.69999998808,057_y_m_n_a.png,I,m,744,11,2,1758.3999999761581,197318.30000001192,8036,NNB,C,10
10,test,1,1.0,1-Back,1,z,Fri Aug 15 2025 09:59:50 GMT-0500 (Central Daylight Time),200659.5,057_y_m_n_a.png,I,z,562,12,2,1575.8999999761581,199083.60000002384,8036,NNB,C,11
11,test,1,0.0,1-Back,1,m,Fri Aug 15 2025 09:59:50 GMT-0500 (Central Daylight Time),202292.39999997616,030_o_f_n_a.png,I,m,602,13,2,1626.0,200666.39999997616,8036,NNB,C,12
12,test,1,1.0,1-Back,1,z,Fri Aug 15 2025 09:59:50 GMT-0500 (Central Daylight Time),204075.10000002384,030_o_f_n_a.png,I,z,761,14,2,1775.800000011921,202299.30000001192,8036,NNB,C,13
13,test,1,0.0,1-Back,1,m,Fri Aug 15 2025 09:59:50 GMT-0500 (Central Daylight Time),205724.60000002384,031_y_m_n_a.png,I,m,627,15,2,1641.4000000357628,204083.19999998808,8036,NNB,C,14
14,test,1,0.0,1-Back,1,m,Fri Aug 15 2025 09:59:50 GMT-0500 (Central Daylight Time),207490.80000001192,093_m_f_n_a.png,I,m,746,16,2,1758.5,205732.30000001192,8036,NNB,C,15
15,test,1,0.0,1-Back,1,m,Fri Aug 15 2025 09:59:50 GMT-0500 (Central Daylight Time),209141.19999998808,146_o_m_n_a.png,I,m,619,17,2,1643.0999999642372,207498.10000002384,8036,NNB,C,16
16,test,1,0.0,1-Back,1,m,Fri Aug 15 2025 09:59:50 GMT-0500 (Central Daylight Time),210706.30000001192,093_m_f_n_a.png,I,m,538,18,2,1556.4000000357628,209149.89999997616,8036,NNB,C,17
0,test,2,0.0,1-Back,,,Fri Aug 15 2025 09:59:50 GMT-0500 (Central Daylight Time),210706.30000001192,092_m_m_n_a.png,I,space,2460,1,2,1556.4000000357628,209149.89999997616,8036,NNB,C,0
1,test,2,0.0,1-Back,1,m,Fri Aug 15 2025 09:59:50 GMT-0500 (Central Daylight Time),216971.0,006_m_f_n_a.png,I,m,754,2,2,1775.199999988079,215195.80000001192,8036,NNB,C,1
2,test,2,1.0,1-Back,1,z,Fri Aug 15 2025 09:59:50 GMT-0500 (Central Daylight Time),218787.39999997616,006_m_f_n_a.png,I,z,787,3,2,1808.0999999642372,216979.30000001192,8036,NNB,C,2
3,test,2,0.0,1-Back,1,m,Fri Aug 15 2025 09:59:50 GMT-0500 (Central Daylight Time),220336.69999998808,092_m_m_n_a.png,I,m,523,4,2,1541.8999999761581,218794.80000001192,8036,NNB,C,3
4,test,2,0.0,1-Back,1,m,Fri Aug 15 2025 09:59:50 GMT-0500 (Central Daylight Time),222169.39999997616,057_y_m_n_a.png,I,m,812,5,2,1825.199999988079,220344.19999998808,8036,NNB,C,4
5,test,2,0.0,1-Back,1,m,Fri Aug 15 2025 09:59:50 GMT-0500 (Central Daylight Time),224302.19999998808,098_y_f_n_a.png,I,m,1100,6,2,2125.699999988079,222176.5,8036,NNB,C,5
6,test,2,1.0,1-Back,1,z,Fri Aug 15 2025 09:59:50 GMT-0500 (Central Daylight Time),226001.69999998808,098_y_f_n_a.png,I,z,680,7,2,1692.800000011921,224308.89999997616,8036,NNB,C,6
7,test,2,0.0,1-Back,1,m,Fri Aug 15 2025 09:59:50 GMT-0500 (Central Daylight Time),227684.30000001192,057_y_m_n_a.png,I,m,660,8,2,1675.1000000238419,226009.19999998808,8036,NNB,C,7
8,test,2,0.0,1-Back,1,m,Fri Aug 15 2025 09:59:50 GMT-0500 (Central Daylight Time),229383.69999998808,030_o_f_n_a.png,I,m,682,9,2,1692.0,227691.69999998808,8036,NNB,C,8
9,test,2,0.0,1-Back,1,m,Fri Aug 15 2025 09:59:50 GMT-0500 (Central Daylight Time),231049.80000001192,082_m_m_n_a.png,I,m,645,10,2,1659.5,229390.30000001192,8036,NNB,C,9
10,test,2,1.0,1-Back,1,z,Fri Aug 15 2025 09:59:50 GMT-0500 (Central Daylight Time),232782.80000001192,082_m_m_n_a.png,I,z,701,11,2,1725.300000011921,231057.5,8036,NNB,C,10
11,test,2,0.0,1-Back,1,m,Fri Aug 15 2025 09:59:50 GMT-0500 (Central Daylight Time),234565.60000002384,030_o_f_n_a.png,I,m,751,12,2,1775.6000000238419,232790.0,8036,NNB,C,11
12,test,2,0.0,1-Back,1,m,Fri Aug 15 2025 09:59:50 GMT-0500 (Central Daylight Time),236431.60000002384,130_o_f_n_a.png,I,m,833,13,2,1858.2000000476837,234573.39999997616,8036,NNB,C,12
13,test,2,0.0,1-Back,1,m,Fri Aug 15 2025 09:59:50 GMT-0500 (Central Daylight Time),238164.5,059_o_m_n_a.png,I,m,702,14,2,1725.300000011921,236439.19999998808,8036,NNB,C,13
14,test,2,0.0,1-Back,1,m,Fri Aug 15 2025 09:59:50 GMT-0500 (Central Daylight Time),239964.0,146_o_m_n_a.png,I,m,769,15,2,1792.199999988079,238171.80000001192,8036,NNB,C,14
14,test,2,1.0,1-Back,0,z,Fri Aug 15 2025 09:59:50 GMT-0500 (Central Daylight Time),241580.0,146_o_m_n_a.png,I,m,594,16,2,1608.3999999761581,239971.60000002384,8036,NNB,C,15
15,test,2,0.0,1-Back,1,m,Fri Aug 15 2025 09:59:50 GMT-0500 (Central Daylight Time),243346.0,031_y_m_n_a.png,I,m,738,17,2,1758.1000000238419,241587.89999997616,8036,NNB,C,16
16,test,2,1.0,1-Back,1,z,Fri Aug 15 2025 09:59:50 GMT-0500 (Central Daylight Time),245278.89999997616,031_y_m_n_a.png,I,z,900,18,2,1926.3999999761581,243352.5,8036,NNB,C,17
0,test,3,1.0,1-Back,,,Fri Aug 15 2025 09:59:50 GMT-0500 (Central Daylight Time),245278.89999997616,028_y_f_n_a.png,I,space,2624,1,2,1926.3999999761581,243352.5,8036,NNB,C,0
1,test,3,0.0,1-Back,1,m,Fri Aug 15 2025 09:59:50 GMT-0500 (Central Daylight Time),251727.10000002384,146_o_m_n_a.png,I,m,683,1,2,1692.7000000476837,250034.39999997616,8036,NNB,C,1
2,test,3,1.0,1-Back,1,z,Fri Aug 15 2025 09:59:50 GMT-0500 (Central Daylight Time),253659.60000002384,146_o_m_n_a.png,I,z,910,1,2,1925.1000000238419,251734.5,8036,NNB,C,2
3,test,3,0.0,1-Back,1,m,Fri Aug 15 2025 09:59:50 GMT-0500 (Central Daylight Time),255375.5,093_m_f_n_a.png,I,m,689,1,2,1709.1000000238419,253666.39999997616,8036,NNB,C,3
4,test,3,1.0,1-Back,1,z,Fri Aug 15 2025 09:59:50 GMT-0500 (Central Daylight Time),257441.5,093_m_f_n_a.png,I,z,1038,1,2,2059.100000023842,255382.39999997616,8036,NNB,C,4
5,test,3,0.0,1-Back,1,m,Fri Aug 15 2025 09:59:50 GMT-0500 (Central Daylight Time),259157.80000001192,030_o_f_n_a.png,I,m,684,1,2,1708.699999988079,257449.10000002384,8036,NNB,C,5
6,test,3,0.0,1-Back,1,m,Fri Aug 15 2025 09:59:50 GMT-0500 (Central Daylight Time),260940.60000002384,057_y_m_n_a.png,I,m,752,1,2,1775.9000000357628,259164.69999998808,8036,NNB,C,6
7,test,3,0.0,1-Back,1,m,Fri Aug 15 2025 09:59:50 GMT-0500 (Central Daylight Time),262706.8000000119,030_o_f_n_a.png,I,m,746,1,2,1758.5,260948.30000001192,8036,NNB,C,7
8,test,3,0.0,1-Back,1,m,Fri Aug 15 2025 09:59:50 GMT-0500 (Central Daylight Time),264389.5,031_y_m_n_a.png,I,m,660,1,2,1674.800000011921,262714.6999999881,8036,NNB,C,8
9,test,3,1.0,1-Back,1,z,Fri Aug 15 2025 09:59:50 GMT-0500 (Central Daylight Time),266172.3000000119,031_y_m_n_a.png,I,z,760,1,2,1775.6000000238419,264396.6999999881,8036,NNB,C,9
10,test,3,0.0,1-Back,1,m,Fri Aug 15 2025 09:59:50 GMT-0500 (Central Daylight Time),268105.0,006_m_f_n_a.png,I,m,914,1,2,1925.6000000238419,266179.39999997616,8036,NNB,C,10
11,test,3,0.0,1-Back,1,m,Fri Aug 15 2025 09:59:50 GMT-0500 (Central Daylight Time),269787.8000000119,098_y_f_n_a.png,I,m,660,1,2,1675.199999988079,268112.60000002384,8036,NNB,C,11
12,test,3,1.0,1-Back,1,z,Fri Aug 15 2025 09:59:50 GMT-0500 (Central Daylight Time),271520.5,098_y_f_n_a.png,I,z,705,1,2,1725.0,269795.5,8036,NNB,C,12
13,test,3,0.0,1-Back,1,m,Fri Aug 15 2025 09:59:50 GMT-0500 (Central Daylight Time),273153.1999999881,006_m_f_n_a.png,I,m,605,1,2,1625.199999988079,271528.0,8036,NNB,C,13
14,test,3,0.0,1-Back,1,m,Fri Aug 15 2025 09:59:50 GMT-0500 (Central Daylight Time),274853.0,092_m_m_n_a.png,I,m,668,1,2,1693.199999988079,273159.8000000119,8036,NNB,C,14
14,test,3,1.0,1-Back,0,z,Fri Aug 15 2025 09:59:50 GMT-0500 (Central Daylight Time),276469.0,092_m_m_n_a.png,I,m,585,1,2,1608.699999988079,274860.3000000119,8036,NNB,C,15
15,test,3,0.0,1-Back,1,m,Fri Aug 15 2025 09:59:50 GMT-0500 (Central Daylight Time),278385.3000000119,130_o_f_n_a.png,I,m,889,1,2,1908.6000000238419,276476.6999999881,8036,NNB,C,16
16,test,3,1.0,1-Back,1,z,Fri Aug 15 2025 09:59:50 GMT-0500 (Central Daylight Time),280451.39999997616,130_o_f_n_a.png,I,z,1045,1,2,2059.599999964237,278391.8000000119,8036,NNB,C,17
0,test,4,1.0,1-Back,,,Fri Aug 15 2025 09:59:50 GMT-0500 (Central Daylight Time),280451.39999997616,093_m_f_n_a.png,I,space,3035,1,2,2059.599999964237,278391.8000000119,8036,NNB,C,0
1,test,4,0.0,1-Back,1,m,Fri Aug 15 2025 09:59:50 GMT-0500 (Central Daylight Time),287315.8000000119,146_o_m_n_a.png,I,m,678,2,2,1691.300000011921,285624.5,8036,NNB,C,1
2,test,4,0.0,1-Back,1,m,Fri Aug 15 2025 09:59:50 GMT-0500 (Central Daylight Time),289298.39999997616,093_m_f_n_a.png,I,m,954,3,2,1976.2999999523163,287322.10000002384,8036,NNB,C,2
3,test,4,0.0,1-Back,1,m,Fri Aug 15 2025 09:59:50 GMT-0500 (Central Daylight Time),290947.8000000119,030_o_f_n_a.png,I,m,628,4,2,1641.300000011921,289306.5,8036,NNB,C,3
4,test,4,1.0,1-Back,1,z,Fri Aug 15 2025 09:59:50 GMT-0500 (Central Daylight Time),292780.60000002384,030_o_f_n_a.png,I,z,810,5,2,1825.6000000238419,290955.0,8036,NNB,C,4
5,test,4,0.0,1-Back,1,m,Fri Aug 15 2025 09:59:50 GMT-0500 (Central Daylight Time),294896.60000002384,098_y_f_n_a.png,I,m,1089,6,2,2108.7000000476837,292787.89999997616,8036,NNB,C,5
6,test,4,0.0,1-Back,1,m,Fri Aug 15 2025 09:59:50 GMT-0500 (Central Daylight Time),296596.0,057_y_m_n_a.png,I,m,678,7,2,1692.0,294904.0,8036,NNB,C,6
7,test,4,1.0,1-Back,1,z,Fri Aug 15 2025 09:59:50 GMT-0500 (Central Daylight Time),298178.89999997616,057_y_m_n_a.png,I,z,554,8,2,1574.8999999761581,296604.0,8036,NNB,C,7
8,test,4,0.0,1-Back,1,m,Fri Aug 15 2025 09:59:50 GMT-0500 (Central Daylight Time),300161.6999999881,098_y_f_n_a.png,I,m,955,9,2,1974.8999999761581,298186.8000000119,8036,NNB,C,8
9,test,4,0.0,1-Back,1,m,Fri Aug 15 2025 09:59:50 GMT-0500 (Central Daylight Time),301910.89999997616,082_m_m_n_a.png,I,m,723,10,2,1742.3999999761581,300168.5,8036,NNB,C,9
10,test,4,1.0,1-Back,1,z,Fri Aug 15 2025 09:59:50 GMT-0500 (Central Daylight Time),303927.3000000119,082_m_m_n_a.png,I,z,990,11,2,2008.4000000357628,301918.89999997616,8036,NNB,C,10
11,test,4,0.0,1-Back,1,m,Fri Aug 15 2025 09:59:50 GMT-0500 (Central Daylight Time),305676.8000000119,130_o_f_n_a.png,I,m,726,12,2,1741.9000000357628,303934.89999997616,8036,NNB,C,11
12,test,4,0.0,1-Back,1,m,Fri Aug 15 2025 09:59:50 GMT-0500 (Central Daylight Time),307426.10000002384,059_o_m_n_a.png,I,m,730,13,2,1742.6000000238419,305683.5,8036,NNB,C,12
13,test,4,0.0,1-Back,1,m,Fri Aug 15 2025 09:59:50 GMT-0500 (Central Daylight Time),309342.39999997616,130_o_f_n_a.png,I,m,884,14,2,1909.699999988079,307432.6999999881,8036,NNB,C,13
14,test,4,0.0,1-Back,1,m,Fri Aug 15 2025 09:59:50 GMT-0500 (Central Daylight Time),311124.89999997616,028_y_f_n_a.png,I,m,759,15,2,1775.2999999523163,309349.60000002384,8036,NNB,C,14
15,test,4,1.0,1-Back,1,z,Fri Aug 15 2025 09:59:50 GMT-0500 (Central Daylight Time),312741.0,028_y_f_n_a.png,I,z,585,16,2,1609.1000000238419,311131.89999997616,8036,NNB,C,15
16,test,4,0.0,1-Back,1,m,Fri Aug 15 2025 09:59:50 GMT-0500 (Central Daylight Time),314373.89999997616,006_m_f_n_a.png,I,m,600,17,2,1626.2999999523163,312747.60000002384,8036,NNB,C,16
17,test,4,1.0,1-Back,1,z,Fri Aug 15 2025 09:59:50 GMT-0500 (Central Daylight Time),316056.60000002384,006_m_f_n_a.png,I,z,664,18,2,1675.9000000357628,314380.6999999881,8036,NNB,C,17
0,test,5,1.0,1-Back,,,Fri Aug 15 2025 09:59:50 GMT-0500 (Central Daylight Time),316056.60000002384,059_o_m_n_a.png,I,space,3725,1,2,1675.9000000357628,314380.6999999881,8036,NNB,C,0
1,test,5,1.0,1-Back,1,z,Fri Aug 15 2025 09:59:50 GMT-0500 (Central Daylight Time),323820.6999999881,059_o_m_n_a.png,I,z,983,2,2,2007.8999999761581,321812.8000000119,8036,NNB,C,1
2,test,5,0.0,1-Back,1,m,Fri Aug 15 2025 09:59:50 GMT-0500 (Central Daylight Time),325736.89999997616,098_y_f_n_a.png,I,m,896,3,2,1909.3999999761581,323827.5,8036,NNB,C,2
3,test,5,0.0,1-Back,1,m,Fri Aug 15 2025 09:59:50 GMT-0500 (Central Daylight Time),327387.89999997616,057_y_m_n_a.png,I,m,621,4,2,1643.0,325744.89999997616,8036,NNB,C,3
4,test,5,0.0,1-Back,1,m,Fri Aug 15 2025 09:59:50 GMT-0500 (Central Daylight Time),330068.89999997616,098_y_f_n_a.png,I,m,1659,5,2,2673.2999999523163,327395.60000002384,8036,NNB,C,4
5,test,5,0.0,1-Back,1,m,Fri Aug 15 2025 09:59:50 GMT-0500 (Central Daylight Time),331885.10000002384,092_m_m_n_a.png,I,m,785,6,2,1808.7000000476837,330076.39999997616,8036,NNB,C,5
5,test,5,1.0,1-Back,0,z,Fri Aug 15 2025 09:59:50 GMT-0500 (Central Daylight Time),333467.6999999881,092_m_m_n_a.png,I,m,552,7,2,1574.8999999761581,331892.8000000119,8036,NNB,C,6
6,test,5,0.0,1-Back,1,m,Fri Aug 15 2025 09:59:50 GMT-0500 (Central Daylight Time),335983.6999999881,028_y_f_n_a.png,I,m,1491,8,2,2508.5,333475.1999999881,8036,NNB,C,7
7,test,5,0.0,1-Back,1,m,Fri Aug 15 2025 09:59:50 GMT-0500 (Central Daylight Time),337783.1999999881,031_y_m_n_a.png,I,m,774,9,2,1792.0999999642372,335991.10000002384,8036,NNB,C,8
8,test,5,0.0,1-Back,1,m,Fri Aug 15 2025 09:59:50 GMT-0500 (Central Daylight Time),339682.60000002384,028_y_f_n_a.png,I,m,871,10,2,1892.2000000476837,337790.39999997616,8036,NNB,C,9
9,test,5,0.0,1-Back,1,m,Fri Aug 15 2025 09:59:50 GMT-0500 (Central Daylight Time),341382.10000002384,130_o_f_n_a.png,I,m,675,11,2,1692.5,339689.60000002384,8036,NNB,C,10
10,test,5,1.0,1-Back,1,z,Fri Aug 15 2025 09:59:50 GMT-0500 (Central Daylight Time),343114.8000000119,130_o_f_n_a.png,I,z,712,12,2,1725.6000000238419,341389.1999999881,8036,NNB,C,11
11,test,5,0.0,1-Back,1,m,Fri Aug 15 2025 09:59:50 GMT-0500 (Central Daylight Time),344830.89999997616,146_o_m_n_a.png,I,m,690,13,2,1709.2999999523163,343121.60000002384,8036,NNB,C,12
12,test,5,0.0,1-Back,1,m,Fri Aug 15 2025 09:59:50 GMT-0500 (Central Daylight Time),346580.5,093_m_f_n_a.png,I,m,720,14,2,1742.699999988079,344837.8000000119,8036,NNB,C,13
12,test,5,1.0,1-Back,0,z,Fri Aug 15 2025 09:59:50 GMT-0500 (Central Daylight Time),348229.8000000119,093_m_f_n_a.png,I,m,625,15,2,1641.9000000357628,346587.89999997616,8036,NNB,C,14
13,test,5,0.0,1-Back,1,m,Fri Aug 15 2025 09:59:50 GMT-0500 (Central Daylight Time),350213.0,146_o_m_n_a.png,I,m,960,16,2,1976.3999999761581,348236.60000002384,8036,NNB,C,15
13,test,5,0.0,1-Back,0,m,Fri Aug 15 2025 09:59:50 GMT-0500 (Central Daylight Time),351995.39999997616,006_m_f_n_a.png,I,z,754,17,2,1774.8999999761581,350220.5,8036,NNB,C,16
14,test,5,0.0,1-Back,1,m,Fri Aug 15 2025 09:59:50 GMT-0500 (Central Daylight Time),353912.10000002384,082_m_m_n_a.png,I,m,899,18,2,1909.9000000357628,352002.1999999881,8036,NNB,C,17
0,prac,1,0.0,2-Back,,,Fri Aug 15 2025 09:59:50 GMT-0500 (Central Daylight Time),353912.10000002384,031_y_m_n_a.png,I,space,4536,1,2,1909.9000000357628,352002.1999999881,8036,NNB,C,0
0,prac,1,0.0,2-Back,,,Fri Aug 15 2025 09:59:50 GMT-0500 (Central Daylight Time),353912.10000002384,006_m_f_n_a.png,I,space,4536,2,2,1909.9000000357628,352002.1999999881,8036,NNB,C,0
1,prac,1,1.0,2-Back,1,m,Fri Aug 15 2025 09:59:50 GMT-0500 (Central Daylight Time),556764.6000000238,146_o_m_n_a.png,I,m,1910,3,2,2807.7000000476837,553956.8999999762,8036,NNB,C,1
1,prac,1,0.0,2-Back,0,m,Fri Aug 15 2025 09:59:50 GMT-0500 (Central Daylight Time),559680.1999999881,130_o_f_n_a.png,I,None,2016,4,2,2905.899999976158,556774.3000000119,8036,NNB,C,2
1,prac,1,0.0,2-Back,0,z,Fri Aug 15 2025 09:59:50 GMT-0500 (Central Daylight Time),561884.3000000119,146_o_m_n_a.png,I,m,1379,5,2,2193.400000035763,559690.8999999762,8036,NNB,C,3
1,prac,1,1.0,2-Back,0,z,Fri Aug 15 2025 09:59:50 GMT-0500 (Central Daylight Time),563862.1000000238,130_o_f_n_a.png,I,m,1200,6,2,1967.6000000238419,561894.5,8036,NNB,C,4
1,prac,1,0.0,2-Back,0,m,Fri Aug 15 2025 09:59:50 GMT-0500 (Central Daylight Time),565779.5,082_m_m_n_a.png,I,z,1030,7,2,1908.699999988079,563870.8000000119,8036,NNB,C,5
2,prac,1,0.0,2-Back,1,m,Fri Aug 15 2025 09:59:50 GMT-0500 (Central Daylight Time),567677.6999999881,059_o_m_n_a.png,I,m,1015,8,2,1889.0999999642372,565788.6000000238,8036,NNB,C,6
2,prac,1,0.0,2-Back,0,m,Fri Aug 15 2025 09:59:50 GMT-0500 (Central Daylight Time),570577.0,028_y_f_n_a.png,I,None,2016,9,2,2890.399999976158,567686.6000000238,8036,NNB,C,7
2,prac,1,1.0,2-Back,0,z,Fri Aug 15 2025 09:59:50 GMT-0500 (Central Daylight Time),572476.3000000119,059_o_m_n_a.png,I,m,1109,10,2,1890.300000011921,570586.0,8036,NNB,C,8
3,prac,1,0.0,2-Back,1,m,Fri Aug 15 2025 09:59:50 GMT-0500 (Central Daylight Time),575158.6000000238,098_y_f_n_a.png,I,m,1805,11,2,2673.5,572485.1000000238,8036,NNB,C,9
4,prac,1,0.0,2-Back,1,m,Fri Aug 15 2025 09:59:50 GMT-0500 (Central Daylight Time),577491.3000000119,082_m_m_n_a.png,I,m,1550,12,2,2323.800000011921,575167.5,8036,NNB,C,10
0,prac,2,0.0,2-Back,,,Fri Aug 15 2025 09:59:50 GMT-0500 (Central Daylight Time),577491.3000000119,031_y_m_n_a.png,I,a,7807,1,2,2323.800000011921,575167.5,8036,NNB,C,0
0,prac,2,0.0,2-Back,,,Fri Aug 15 2025 09:59:50 GMT-0500 (Central Daylight Time),577491.3000000119,006_m_f_n_a.png,I,a,7807,2,2,2323.800000011921,575167.5,8036,NNB,C,0
1,prac,2,1.0,2-Back,1,m,Fri Aug 15 2025 09:59:50 GMT-0500 (Central Daylight Time),592703.0,146_o_m_n_a.png,I,m,1211,3,2,2106.899999976158,590596.1000000238,8036,NNB,C,1
1,prac,2,0.0,2-Back,0,m,Fri Aug 15 2025 09:59:50 GMT-0500 (Central Daylight Time),595619.0,130_o_f_n_a.png,I,None,2006,4,2,2906.699999988079,592712.3000000119,8036,NNB,C,2
1,prac,2,0.0,2-Back,0,z,Fri Aug 15 2025 09:59:50 GMT-0500 (Central Daylight Time),597251.5,146_o_m_n_a.png,I,m,851,5,2,1625.1000000238419,595626.3999999762,8036,NNB,C,3
1,prac,2,1.0,2-Back,0,z,Fri Aug 15 2025 09:59:50 GMT-0500 (Central Daylight Time),599017.8999999762,130_o_f_n_a.png,I,m,977,6,2,1757.2999999523163,597260.6000000238,8036,NNB,C,4
2,prac,2,0.0,2-Back,1,m,Fri Aug 15 2025 09:59:50 GMT-0500 (Central Daylight Time),601500.6000000238,082_m_m_n_a.png,I,m,1692,7,2,2475.0,599025.6000000238,8036,NNB,C,5
2,prac,2,0.0,2-Back,0,m,Fri Aug 15 2025 09:59:50 GMT-0500 (Central Daylight Time),604383.0,059_o_m_n_a.png,I,None,2001,8,2,2874.800000011921,601508.1999999881,8036,NNB,C,6
3,prac,2,0.0,2-Back,1,m,Fri Aug 15 2025 09:59:50 GMT-0500 (Central Daylight Time),606883.5,028_y_f_n_a.png,I,m,1624,9,2,2495.199999988079,604388.3000000119,8036,NNB,C,7
3,prac,2,1.0,2-Back,0,z,Fri Aug 15 2025 09:59:50 GMT-0500 (Central Daylight Time),608781.3000000119,059_o_m_n_a.png,I,m,1116,10,2,1891.300000011921,606890.0,8036,NNB,C,8
4,prac,2,0.0,2-Back,1,m,Fri Aug 15 2025 09:59:50 GMT-0500 (Central Daylight Time),611047.5,098_y_f_n_a.png,I,m,1351,11,2,2259.399999976158,608788.1000000238,8036,NNB,C,9
5,prac,2,0.0,2-Back,1,m,Fri Aug 15 2025 09:59:50 GMT-0500 (Central Daylight Time),612730.1999999881,082_m_m_n_a.png,I,m,903,12,2,1675.699999988079,611054.5,8036,NNB,C,10
0,prac,3,0.0,2-Back,,,Fri Aug 15 2025 09:59:50 GMT-0500 (Central Daylight Time),612730.1999999881,031_y_m_n_a.png,I,a,4593,1,2,1675.699999988079,611054.5,8036,NNB,C,0
0,prac,3,0.0,2-Back,,,Fri Aug 15 2025 09:59:50 GMT-0500 (Central Daylight Time),612730.1999999881,006_m_f_n_a.png,I,a,4593,2,2,1675.699999988079,611054.5,8036,NNB,C,0
1,prac,3,1.0,2-Back,1,m,Fri Aug 15 2025 09:59:50 GMT-0500 (Central Daylight Time),624494.6000000238,146_o_m_n_a.png,I,m,980,3,2,1876.7000000476837,622617.8999999762,8036,NNB,C,1
2,prac,3,0.0,2-Back,1,m,Fri Aug 15 2025 09:59:50 GMT-0500 (Central Daylight Time),626709.3000000119,130_o_f_n_a.png,I,m,1301,4,2,2207.5,624501.8000000119,8036,NNB,C,2
3,prac,3,0.0,2-Back,1,z,Fri Aug 15 2025 09:59:50 GMT-0500 (Central Daylight Time),628858.5,146_o_m_n_a.png,I,z,1361,5,2,2142.100000023842,626716.3999999762,8036,NNB,C,3
3,prac,3,1.0,2-Back,0,z,Fri Aug 15 2025 09:59:50 GMT-0500 (Central Daylight Time),630941.1999999881,130_o_f_n_a.png,I,m,1299,6,2,2074.699999988079,628866.5,8036,NNB,C,4
4,prac,3,0.0,2-Back,1,m,Fri Aug 15 2025 09:59:50 GMT-0500 (Central Daylight Time),632941.8999999762,082_m_m_n_a.png,I,m,1241,7,2,1993.699999988079,630948.1999999881,8036,NNB,C,5
4,prac,3,0.0,2-Back,0,m,Fri Aug 15 2025 09:59:50 GMT-0500 (Central Daylight Time),635739.6000000238,059_o_m_n_a.png,I,z,1898,8,2,2789.2000000476837,632950.3999999762,8036,NNB,C,6
5,prac,3,0.0,2-Back,1,m,Fri Aug 15 2025 09:59:50 GMT-0500 (Central Daylight Time),638538.6000000238,028_y_f_n_a.png,I,m,1908,9,2,2792.300000011921,635746.3000000119,8036,NNB,C,7
6,prac,3,1.0,2-Back,1,z,Fri Aug 15 2025 09:59:50 GMT-0500 (Central Daylight Time),640821.3999999762,059_o_m_n_a.png,I,z,1502,10,2,2276.599999964237,638544.8000000119,8036,NNB,C,8
7,prac,3,0.0,2-Back,1,m,Fri Aug 15 2025 09:59:50 GMT-0500 (Central Daylight Time),642920.8000000119,098_y_f_n_a.png,I,m,1223,11,2,2093.100000023842,640827.6999999881,8036,NNB,C,9
8,prac,3,0.0,2-Back,1,m,Fri Aug 15 2025 09:59:50 GMT-0500 (Central Daylight Time),644587.0,082_m_m_n_a.png,I,m,887,12,2,1659.5,642927.5,8036,NNB,C,10
0,test,1,0.0,2-Back,,,Fri Aug 15 2025 09:59:50 GMT-0500 (Central Daylight Time),644587.0,057_y_m_n_a.png,I,space,7123,1,2,1659.5,642927.5,8036,NNB,C,0
0,test,1,0.0,2-Back,,,Fri Aug 15 2025 09:59:50 GMT-0500 (Central Daylight Time),644587.0,057_y_m_n_a.png,I,space,7123,2,2,1659.5,642927.5,8036,NNB,C,0
1,test,1,0.0,2-Back,1,m,Fri Aug 15 2025 09:59:50 GMT-0500 (Central Daylight Time),666346.8999999762,130_o_f_n_a.png,I,m,1188,3,2,2212.899999976158,664134.0,8036,NNB,C,1
2,test,1,0.0,2-Back,1,m,Fri Aug 15 2025 09:59:50 GMT-0500 (Central Daylight Time),668296.0,092_m_m_n_a.png,I,m,931,4,2,1945.699999988079,666350.3000000119,8036,NNB,C,2
2,test,1,1.0,2-Back,0,z,Fri Aug 15 2025 09:59:50 GMT-0500 (Central Daylight Time),670313.3000000119,130_o_f_n_a.png,I,m,997,5,2,2014.0,668299.3000000119,8036,NNB,C,3
3,test,1,0.0,2-Back,1,m,Fri Aug 15 2025 09:59:50 GMT-0500 (Central Daylight Time),672128.3999999762,098_y_f_n_a.png,I,m,790,6,2,1811.699999988079,670316.6999999881,8036,NNB,C,4
3,test,1,0.0,2-Back,0,m,Fri Aug 15 2025 09:59:50 GMT-0500 (Central Daylight Time),674244.1999999881,092_m_m_n_a.png,I,z,1093,7,2,2111.199999988079,672133.0,8036,NNB,C,5
4,test,1,1.0,2-Back,1,z,Fri Aug 15 2025 09:59:50 GMT-0500 (Central Daylight Time),676426.8000000119,098_y_f_n_a.png,I,z,1161,8,2,2179.0,674247.8000000119,8036,NNB,C,6
5,test,1,0.0,2-Back,1,m,Fri Aug 15 2025 09:59:50 GMT-0500 (Central Daylight Time),678542.8999999762,031_y_m_n_a.png,I,m,1091,9,2,2112.2999999523163,676430.6000000238,8036,NNB,C,7
6,test,1,0.0,2-Back,1,m,Fri Aug 15 2025 09:59:50 GMT-0500 (Central Daylight Time),680508.8999999762,030_o_f_n_a.png,I,m,934,10,2,1962.0999999642372,678546.8000000119,8036,NNB,C,8
6,test,1,1.0,2-Back,0,z,Fri Aug 15 2025 09:59:50 GMT-0500 (Central Daylight Time),682725.5,031_y_m_n_a.png,I,m,1184,11,2,2213.199999988079,680512.3000000119,8036,NNB,C,9
6,test,1,0.0,2-Back,0,m,Fri Aug 15 2025 09:59:50 GMT-0500 (Central Daylight Time),684840.8999999762,006_m_f_n_a.png,I,z,1097,12,2,2110.7999999523163,682730.1000000238,8036,NNB,C,10
7,test,1,0.0,2-Back,1,m,Fri Aug 15 2025 09:59:50 GMT-0500 (Central Daylight Time),686606.8999999762,006_m_f_n_a.png,I,m,733,13,2,1762.5999999642372,684844.3000000119,8036,NNB,C,11
8,test,1,0.0,2-Back,1,m,Fri Aug 15 2025 09:59:50 GMT-0500 (Central Daylight Time),688589.6999999881,146_o_m_n_a.png,I,m,950,14,2,1978.8999999761581,686610.8000000119,8036,NNB,C,12
9,test,1,0.0,2-Back,1,m,Fri Aug 15 2025 09:59:50 GMT-0500 (Central Daylight Time),690372.5,030_o_f_n_a.png,I,m,753,15,2,1778.300000011921,688594.1999999881,8036,NNB,C,13
9,test,1,1.0,2-Back,0,z,Fri Aug 15 2025 09:59:50 GMT-0500 (Central Daylight Time),692571.8000000119,146_o_m_n_a.png,I,m,1177,16,2,2195.300000011921,690376.5,8036,NNB,C,14
10,test,1,0.0,2-Back,1,m,Fri Aug 15 2025 09:59:50 GMT-0500 (Central Daylight Time),694637.8000000119,093_m_f_n_a.png,I,m,1042,17,2,2061.699999988079,692576.1000000238,8036,NNB,C,15
10,test,1,0.0,2-Back,0,m,Fri Aug 15 2025 09:59:50 GMT-0500 (Central Daylight Time),696470.5,082_m_m_n_a.png,I,z,808,18,2,1829.1000000238419,694641.3999999762,8036,NNB,C,16
0,test,2,0.0,2-Back,,,Fri Aug 15 2025 09:59:50 GMT-0500 (Central Daylight Time),696470.5,082_m_m_n_a.png,I,space,3576,1,2,1829.1000000238419,694641.3999999762,8036,NNB,C,0
0,test,2,0.0,2-Back,,,Fri Aug 15 2025 09:59:50 GMT-0500 (Central Daylight Time),696470.5,028_y_f_n_a.png,I,space,3576,2,2,1829.1000000238419,694641.3999999762,8036,NNB,C,0
1,test,2,1.0,2-Back,1,z,Fri Aug 15 2025 09:59:50 GMT-0500 (Central Daylight Time),707117.1999999881,082_m_m_n_a.png,I,z,892,3,2,1912.0,705205.1999999881,8036,NNB,C,1
2,test,2,0.0,2-Back,1,m,Fri Aug 15 2025 09:59:50 GMT-0500 (Central Daylight Time),709317.3000000119,093_m_f_n_a.png,I,m,1168,4,2,2195.800000011921,707121.5,8036,NNB,C,2
3,test,2,0.0,2-Back,1,m,Fri Aug 15 2025 09:59:50 GMT-0500 (Central Daylight Time),711282.6999999881,028_y_f_n_a.png,I,m,938,5,2,1961.0999999642372,709321.6000000238,8036,NNB,C,3
3,test,2,0.0,2-Back,0,m,Fri Aug 15 2025 09:59:50 GMT-0500 (Central Daylight Time),713582.0,146_o_m_n_a.png,I,z,1267,6,2,2294.5,711287.5,8036,NNB,C,4
4,test,2,0.0,2-Back,1,m,Fri Aug 15 2025 09:59:50 GMT-0500 (Central Daylight Time),715564.6000000238,098_y_f_n_a.png,I,m,952,7,2,1978.1000000238419,713586.5,8036,NNB,C,5
4,test,2,1.0,2-Back,0,z,Fri Aug 15 2025 09:59:50 GMT-0500 (Central Daylight Time),717630.8000000119,146_o_m_n_a.png,I,m,1049,8,2,2061.300000011921,715569.5,8036,NNB,C,6
5,test,2,0.0,2-Back,1,m,Fri Aug 15 2025 09:59:50 GMT-0500 (Central Daylight Time),719863.3999999762,031_y_m_n_a.png,I,m,1216,9,2,2229.0,717634.3999999762,8036,NNB,C,7
6,test,2,0.0,2-Back,1,m,Fri Aug 15 2025 09:59:50 GMT-0500 (Central Daylight Time),722029.1999999881,031_y_m_n_a.png,I,m,1135,10,2,2162.300000011921,719866.8999999762,8036,NNB,C,8
6,test,2,0.0,2-Back,0,m,Fri Aug 15 2025 09:59:50 GMT-0500 (Central Daylight Time),724295.3000000119,006_m_f_n_a.png,I,z,1234,11,2,2261.800000011921,722033.5,8036,NNB,C,9
7,test,2,0.0,2-Back,1,m,Fri Aug 15 2025 09:59:50 GMT-0500 (Central Daylight Time),726694.3999999762,028_y_f_n_a.png,I,m,1366,12,2,2394.699999988079,724299.6999999881,8036,NNB,C,10
7,test,2,1.0,2-Back,0,z,Fri Aug 15 2025 09:59:50 GMT-0500 (Central Daylight Time),728593.8000000119,006_m_f_n_a.png,I,m,872,13,2,1895.6000000238419,726698.1999999881,8036,NNB,C,11
8,test,2,0.0,2-Back,1,m,Fri Aug 15 2025 09:59:50 GMT-0500 (Central Daylight Time),730359.8999999762,059_o_m_n_a.png,I,m,748,14,2,1761.7999999523163,728598.1000000238,8036,NNB,C,12
9,test,2,0.0,2-Back,1,m,Fri Aug 15 2025 09:59:50 GMT-0500 (Central Daylight Time),732059.3000000119,059_o_m_n_a.png,I,m,670,15,2,1695.5,730363.8000000119,8036,NNB,C,13
10,test,2,0.0,2-Back,1,m,Fri Aug 15 2025 09:59:50 GMT-0500 (Central Daylight Time),734041.8999999762,030_o_f_n_a.png,I,m,962,16,2,1978.699999988079,732063.1999999881,8036,NNB,C,14
11,test,2,0.0,2-Back,1,m,Fri Aug 15 2025 09:59:50 GMT-0500 (Central Daylight Time),735958.0,092_m_m_n_a.png,I,m,892,17,2,1912.300000011921,734045.6999999881,8036,NNB,C,15
11,test,2,1.0,2-Back,0,z,Fri Aug 15 2025 09:59:50 GMT-0500 (Central Daylight Time),737907.3000000119,030_o_f_n_a.png,I,m,919,18,2,1944.699999988079,735962.6000000238,8036,NNB,C,16
0,test,3,1.0,2-Back,,,Fri Aug 15 2025 09:59:50 GMT-0500 (Central Daylight Time),737907.3000000119,057_y_m_n_a.png,I,space,3466,1,2,1944.699999988079,735962.6000000238,8036,NNB,C,0
0,test,3,1.0,2-Back,,,Fri Aug 15 2025 09:59:50 GMT-0500 (Central Daylight Time),737907.3000000119,057_y_m_n_a.png,I,space,3466,2,2,1944.699999988079,735962.6000000238,8036,NNB,C,0
1,test,3,0.0,2-Back,1,m,Fri Aug 15 2025 09:59:50 GMT-0500 (Central Daylight Time),748504.1999999881,030_o_f_n_a.png,I,m,931,3,2,1944.300000011921,746559.8999999762,8036,NNB,C,1
2,test,3,0.0,2-Back,1,m,Fri Aug 15 2025 09:59:50 GMT-0500 (Central Daylight Time),750836.6999999881,082_m_m_n_a.png,I,m,1299,4,2,2328.699999988079,748508.0,8036,NNB,C,2
2,test,3,1.0,2-Back,0,z,Fri Aug 15 2025 09:59:50 GMT-0500 (Central Daylight Time),752852.8999999762,030_o_f_n_a.png,I,m,993,5,2,2012.5999999642372,750840.3000000119,8036,NNB,C,3
2,test,3,0.0,2-Back,0,m,Fri Aug 15 2025 09:59:50 GMT-0500 (Central Daylight Time),755137.1999999881,031_y_m_n_a.png,I,z,1265,6,2,2279.699999988079,752857.5,8036,NNB,C,4
3,test,3,0.0,2-Back,1,m,Fri Aug 15 2025 09:59:50 GMT-0500 (Central Daylight Time),757434.8000000119,082_m_m_n_a.png,I,m,1278,7,2,2293.400000035763,755141.3999999762,8036,NNB,C,5
4,test,3,1.0,2-Back,1,z,Fri Aug 15 2025 09:59:50 GMT-0500 (Central Daylight Time),760350.3000000119,031_y_m_n_a.png,I,z,1891,8,2,2911.300000011921,757439.0,8036,NNB,C,6
5,test,3,0.0,2-Back,1,m,Fri Aug 15 2025 09:59:50 GMT-0500 (Central Daylight Time),762533.1000000238,028_y_f_n_a.png,I,m,1159,9,2,2178.900000035763,760354.1999999881,8036,NNB,C,7
6,test,3,0.0,2-Back,1,m,Fri Aug 15 2025 09:59:50 GMT-0500 (Central Daylight Time),764315.8999999762,092_m_m_n_a.png,I,m,761,10,2,1778.699999988079,762537.1999999881,8036,NNB,C,8
6,test,3,1.0,2-Back,0,z,Fri Aug 15 2025 09:59:50 GMT-0500 (Central Daylight Time),766015.1999999881,028_y_f_n_a.png,I,m,682,11,2,1695.800000011921,764319.3999999762,8036,NNB,C,9
6,test,3,1.0,2-Back,0,z,Fri Aug 15 2025 09:59:50 GMT-0500 (Central Daylight Time),767581.6999999881,092_m_m_n_a.png,I,m,543,12,2,1562.0,766019.6999999881,8036,NNB,C,10
7,test,3,0.0,2-Back,1,m,Fri Aug 15 2025 09:59:50 GMT-0500 (Central Daylight Time),769414.5,030_o_f_n_a.png,I,m,809,13,2,1829.5,767585.0,8036,NNB,C,11
8,test,3,0.0,2-Back,1,m,Fri Aug 15 2025 09:59:50 GMT-0500 (Central Daylight Time),771313.8999999762,093_m_f_n_a.png,I,m,880,14,2,1895.3999999761581,769418.5,8036,NNB,C,12
9,test,3,0.0,2-Back,1,m,Fri Aug 15 2025 09:59:50 GMT-0500 (Central Daylight Time),773280.8999999762,146_o_m_n_a.png,I,m,948,15,2,1962.199999988079,771318.6999999881,8036,NNB,C,13
10,test,3,1.0,2-Back,1,z,Fri Aug 15 2025 09:59:50 GMT-0500 (Central Daylight Time),775645.6000000238,093_m_f_n_a.png,I,z,1333,16,2,2361.2000000476837,773284.3999999762,8036,NNB,C,14
11,test,3,0.0,2-Back,1,m,Fri Aug 15 2025 09:59:50 GMT-0500 (Central Daylight Time),777561.6000000238,130_o_f_n_a.png,I,m,896,17,2,1912.5,775649.1000000238,8036,NNB,C,15
12,test,3,0.0,2-Back,1,m,Fri Aug 15 2025 09:59:50 GMT-0500 (Central Daylight Time),779661.1000000238,130_o_f_n_a.png,I,m,1076,18,2,2096.100000023842,777565.0,8036,NNB,C,16
0,test,4,0.0,2-Back,,,Fri Aug 15 2025 09:59:50 GMT-0500 (Central Daylight Time),779661.1000000238,059_o_m_n_a.png,I,space,2385,1,2,2096.100000023842,777565.0,8036,NNB,C,0
0,test,4,0.0,2-Back,,,Fri Aug 15 2025 09:59:50 GMT-0500 (Central Daylight Time),779661.1000000238,098_y_f_n_a.png,I,space,2385,2,2,2096.100000023842,777565.0,8036,NNB,C,0
0,test,4,1.0,2-Back,0,z,Fri Aug 15 2025 09:59:50 GMT-0500 (Central Daylight Time),788975.0,059_o_m_n_a.png,I,m,649,3,2,1662.5,787312.5,8036,NNB,C,1
1,test,4,1.0,2-Back,1,z,Fri Aug 15 2025 09:59:50 GMT-0500 (Central Daylight Time),791174.3000000119,098_y_f_n_a.png,I,z,1176,4,2,2195.5,788978.8000000119,8036,NNB,C,2
2,test,4,0.0,2-Back,1,m,Fri Aug 15 2025 09:59:50 GMT-0500 (Central Daylight Time),792990.1999999881,030_o_f_n_a.png,I,m,792,5,2,1812.699999988079,791177.5,8036,NNB,C,3
3,test,4,0.0,2-Back,1,m,Fri Aug 15 2025 09:59:50 GMT-0500 (Central Daylight Time),795206.3000000119,030_o_f_n_a.png,I,m,1183,6,2,2211.699999988079,792994.6000000238,8036,NNB,C,4
4,test,4,0.0,2-Back,1,m,Fri Aug 15 2025 09:59:50 GMT-0500 (Central Daylight Time),797572.1000000238,006_m_f_n_a.png,I,m,1344,7,2,2362.2000000476837,795209.8999999762,8036,NNB,C,5
5,test,4,0.0,2-Back,1,m,Fri Aug 15 2025 09:59:50 GMT-0500 (Central Daylight Time),799821.5,031_y_m_n_a.png,I,m,1217,8,2,2245.300000011921,797576.1999999881,8036,NNB,C,6
6,test,4,1.0,2-Back,1,z,Fri Aug 15 2025 09:59:50 GMT-0500 (Central Daylight Time),801587.5,006_m_f_n_a.png,I,z,744,9,2,1762.199999988079,799825.3000000119,8036,NNB,C,7
7,test,4,0.0,2-Back,1,m,Fri Aug 15 2025 09:59:50 GMT-0500 (Central Daylight Time),803420.3999999762,092_m_m_n_a.png,I,m,803,10,2,1829.3999999761581,801591.0,8036,NNB,C,8
7,test,4,0.0,2-Back,0,m,Fri Aug 15 2025 09:59:50 GMT-0500 (Central Daylight Time),806002.8000000119,031_y_m_n_a.png,I,z,1553,11,2,2578.900000035763,803423.8999999762,8036,NNB,C,9
8,test,4,0.0,2-Back,1,m,Fri Aug 15 2025 09:59:50 GMT-0500 (Central Daylight Time),808085.6000000238,130_o_f_n_a.png,I,m,1050,12,2,2079.2000000476837,806006.3999999762,8036,NNB,C,10
8,test,4,0.0,2-Back,0,m,Fri Aug 15 2025 09:59:50 GMT-0500 (Central Daylight Time),810401.6000000238,057_y_m_n_a.png,I,z,1288,13,2,2312.7000000476837,808088.8999999762,8036,NNB,C,11
8,test,4,1.0,2-Back,0,z,Fri Aug 15 2025 09:59:50 GMT-0500 (Central Daylight Time),812167.3000000119,130_o_f_n_a.png,I,m,748,14,2,1761.300000011921,810406.0,8036,NNB,C,12
8,test,4,1.0,2-Back,0,z,Fri Aug 15 2025 09:59:50 GMT-0500 (Central Daylight Time),814083.8000000119,057_y_m_n_a.png,I,m,887,15,2,1913.300000011921,812170.5,8036,NNB,C,13
9,test,4,0.0,2-Back,1,m,Fri Aug 15 2025 09:59:50 GMT-0500 (Central Daylight Time),816232.8999999762,082_m_m_n_a.png,I,m,1130,16,2,2145.7999999523163,814087.1000000238,8036,NNB,C,14
10,test,4,0.0,2-Back,1,m,Fri Aug 15 2025 09:59:50 GMT-0500 (Central Daylight Time),818432.1999999881,093_m_f_n_a.png,I,m,1173,17,2,2194.899999976158,816237.3000000119,8036,NNB,C,15
11,test,4,1.0,2-Back,1,z,Fri Aug 15 2025 09:59:50 GMT-0500 (Central Daylight Time),820581.5,082_m_m_n_a.png,I,z,1126,18,2,2146.100000023842,818435.3999999762,8036,NNB,C,16
0,test,5,1.0,2-Back,,,Fri Aug 15 2025 09:59:50 GMT-0500 (Central Daylight Time),820581.5,057_y_m_n_a.png,I,space,2640,1,2,2146.100000023842,818435.3999999762,8036,NNB,C,0
0,test,5,1.0,2-Back,,,Fri Aug 15 2025 09:59:50 GMT-0500 (Central Daylight Time),820581.5,093_m_f_n_a.png,I,space,2640,2,2,2146.100000023842,818435.3999999762,8036,NNB,C,0
1,test,5,1.0,2-Back,1,z,Fri Aug 15 2025 09:59:50 GMT-0500 (Central Daylight Time),830461.6999999881,057_y_m_n_a.png,I,z,1150,3,2,2177.599999964237,828284.1000000238,8036,NNB,C,1
1,test,5,1.0,2-Back,0,z,Fri Aug 15 2025 09:59:50 GMT-0500 (Central Daylight Time),832427.8999999762,093_m_f_n_a.png,I,m,937,4,2,1962.7999999523163,830465.1000000238,8036,NNB,C,2
2,test,5,0.0,2-Back,1,m,Fri Aug 15 2025 09:59:50 GMT-0500 (Central Daylight Time),834094.0,130_o_f_n_a.png,I,m,634,5,2,1661.8999999761581,832432.1000000238,8036,NNB,C,3
2,test,5,0.0,2-Back,0,m,Fri Aug 15 2025 09:59:50 GMT-0500 (Central Daylight Time),836110.8999999762,057_y_m_n_a.png,I,z,1000,6,2,2013.0999999642372,834097.8000000119,8036,NNB,C,4
3,test,5,0.0,2-Back,1,m,Fri Aug 15 2025 09:59:50 GMT-0500 (Central Daylight Time),838126.0,028_y_f_n_a.png,I,m,992,7,2,2012.0,836114.0,8036,NNB,C,5
3,test,5,0.0,2-Back,0,m,Fri Aug 15 2025 09:59:50 GMT-0500 (Central Daylight Time),840308.6000000238,130_o_f_n_a.png,I,z,1151,8,2,2178.2000000476837,838130.3999999762,8036,NNB,C,6
4,test,5,1.0,2-Back,1,z,Fri Aug 15 2025 09:59:50 GMT-0500 (Central Daylight Time),842424.5,028_y_f_n_a.png,I,z,1098,9,2,2111.5,840313.0,8036,NNB,C,7
5,test,5,0.0,2-Back,1,m,Fri Aug 15 2025 09:59:50 GMT-0500 (Central Daylight Time),844290.8000000119,146_o_m_n_a.png,I,m,837,10,2,1863.199999988079,842427.6000000238,8036,NNB,C,8
6,test,5,0.0,2-Back,1,m,Fri Aug 15 2025 09:59:50 GMT-0500 (Central Daylight Time),846040.1000000238,006_m_f_n_a.png,I,m,701,11,2,1745.7000000476837,844294.3999999762,8036,NNB,C,9
7,test,5,0.0,2-Back,1,m,Fri Aug 15 2025 09:59:50 GMT-0500 (Central Daylight Time),847556.3000000119,092_m_m_n_a.png,I,m,493,12,2,1512.699999988079,846043.6000000238,8036,NNB,C,10
8,test,5,0.0,2-Back,1,m,Fri Aug 15 2025 09:59:50 GMT-0500 (Central Daylight Time),849039.1999999881,146_o_m_n_a.png,I,m,466,13,2,1479.699999988079,847559.5,8036,NNB,C,11
8,test,5,1.0,2-Back,0,z,Fri Aug 15 2025 09:59:50 GMT-0500 (Central Daylight Time),850638.8999999762,092_m_m_n_a.png,I,m,567,14,2,1596.3999999761581,849042.5,8036,NNB,C,12
9,test,5,0.0,2-Back,1,m,Fri Aug 15 2025 09:59:50 GMT-0500 (Central Daylight Time),852654.8999999762,098_y_f_n_a.png,I,m,991,15,2,2011.7999999523163,850643.1000000238,8036,NNB,C,13
10,test,5,0.0,2-Back,1,m,Fri Aug 15 2025 09:59:50 GMT-0500 (Central Daylight Time),854404.1999999881,059_o_m_n_a.png,I,m,719,16,2,1745.8999999761581,852658.3000000119,8036,NNB,C,14
11,test,5,0.0,2-Back,1,m,Fri Aug 15 2025 09:59:50 GMT-0500 (Central Daylight Time),856337.5,006_m_f_n_a.png,I,m,913,17,2,1929.1000000238419,854408.3999999762,8036,NNB,C,15
11,test,5,1.0,2-Back,0,z,Fri Aug 15 2025 09:59:50 GMT-0500 (Central Daylight Time),858219.8000000119,059_o_m_n_a.png,I,m,853,18,2,1878.6000000238419,856341.1999999881,8036,NNB,C,16
