Q,Q1,Q2,Q3,Q4,acc_sum,block,block_c,correct,correct_response,datetime,endtime,project,response,response_time,row_sel,session_number,squiggle1,squiggle1x,squiggle1y,squiggle2,squiggle2x,squiggle2y,squiggle3,squiggle3x,squiggle3y,squiggle4,squiggle4x,squiggle4y,start_end,starttime,subject_id,target_congruent,task,task_vers,testsquiggle,testsquigglex,testsquiggley,time_practice_delay,time_practice_fixation,time_practice_stimuli,time_practice_study,time_test_delay,time_test_fixation,time_test_stimuli,time_test_study,trial
1,1,0,0,0,0,prac,1,0,z,Fri Aug 09 2024 15:44:28 GMT-0500 (Central Daylight Time),161301.7999999998,O,None,2015,1,1,116.bmp,-120,-120,117.bmp,120,-120,118.bmp,-120,120,119.bmp,120,120,10825.299999999814,150476.5,7007,yes,SM,A,116.bmp,-120,-120,153397,147371,155414,149382,,,,,1
3,0,0,1,0,1,prac,1,1,m,Fri Aug 09 2024 15:44:28 GMT-0500 (Central Daylight Time),171615.2999999998,O,m,1491,2,1,120.bmp,-120,-120,121.bmp,120,-120,122.bmp,-120,120,123.bmp,120,120,10309.5,161305.7999999998,7007,no,SM,A,123.bmp,-120,120,164227,158200,166244,160212,,,,,2
4,0,0,0,1,2,prac,1,1,m,Fri Aug 09 2024 15:44:28 GMT-0500 (Central Daylight Time),181862.09999999963,O,m,1418,3,1,124.bmp,-120,-120,125.bmp,120,-120,126.bmp,-120,120,127.bmp,120,120,10242.899999999441,171619.2000000002,7007,no,SM,A,124.bmp,120,120,174541,168513,176557,170526,,,,,3
2,0,1,0,0,2,prac,1,0,z,Fri Aug 09 2024 15:44:28 GMT-0500 (Central Daylight Time),192358.59999999963,O,m,1667,4,1,128.bmp,-120,-120,129.bmp,120,-120,130.bmp,-120,120,131.bmp,120,120,10492.899999999441,181865.7000000002,7007,yes,SM,A,129.bmp,120,-120,184788,178760,186804,180772,,,,,4
3,0,0,1,0,3,prac,1,1,z,Fri Aug 09 2024 15:44:28 GMT-0500 (Central Daylight Time),203022.0,O,z,1834,5,1,132.bmp,-120,-120,133.bmp,120,-120,134.bmp,-120,120,135.bmp,120,120,10660.0,192362.0,7007,yes,SM,A,134.bmp,-120,120,195284,189256,197301,191269,,,,,5
1,1,0,0,0,4,prac,1,1,m,Fri Aug 09 2024 15:44:28 GMT-0500 (Central Daylight Time),213585.2999999998,O,m,1615,6,1,136.bmp,-120,-120,137.bmp,120,-120,138.bmp,-120,120,139.bmp,120,120,10559.899999999441,203025.40000000037,7007,no,SM,A,139.bmp,-120,-120,205948,199920,207964,201932,,,,,6
2,0,1,0,0,5,prac,1,1,m,Fri Aug 09 2024 15:44:28 GMT-0500 (Central Daylight Time),223749.09999999963,O,m,1344,7,1,140.bmp,-120,-120,141.bmp,120,-120,142.bmp,-120,120,143.bmp,120,120,10160.799999999814,213588.2999999998,7007,no,SM,A,140.bmp,120,-120,216511,210483,218527,212496,,,,,7
4,0,0,0,1,5,prac,1,0,z,Fri Aug 09 2024 15:44:28 GMT-0500 (Central Daylight Time),234428.7999999998,O,m,1853,8,1,144.bmp,-120,-120,145.bmp,120,-120,146.bmp,-120,120,147.bmp,120,120,10676.200000000186,223752.59999999963,7007,yes,SM,A,147.bmp,120,120,226675,220647,228690,222659,,,,,8
4,0,0,0,1,1,test,1,1,m,Fri Aug 09 2024 15:44:28 GMT-0500 (Central Daylight Time),265569.0999999996,O,m,1632,1,1,148.bmp,-120,-120,149.bmp,120,-120,150.bmp,-120,120,143.bmp,120,120,9674.399999999441,255894.7000000002,7007,no,SM,A,150.bmp,120,120,226675,220647,228690,222659,258815.0,252789.0,260831.0,254799.0,1
2,0,1,0,0,1,test,1,0,m,Fri Aug 09 2024 15:44:28 GMT-0500 (Central Daylight Time),275632.5999999996,O,None,2016,2,1,101.bmp,-120,-120,102.bmp,120,-120,103.bmp,-120,120,104.bmp,120,120,10060.099999999627,265572.5,7007,no,SM,A,103.bmp,120,-120,226675,220647,228690,222659,268494.0,262467.0,270511.0,264479.0,2
1,1,0,0,0,1,test,1,0,z,Fri Aug 09 2024 15:44:28 GMT-0500 (Central Daylight Time),285595.7999999998,O,m,1904,3,1,105.bmp,-120,-120,106.bmp,120,-120,107.bmp,-120,120,108.bmp,120,120,9960.200000000186,275635.5999999996,7007,yes,SM,A,105.bmp,-120,-120,226675,220647,228690,222659,278558.0,272530.0,280575.0,274543.0,3
3,0,0,1,0,1,test,1,0,m,Fri Aug 09 2024 15:44:28 GMT-0500 (Central Daylight Time),294909.7999999998,O,z,1261,4,1,109.bmp,-120,-120,110.bmp,120,-120,111.bmp,-120,120,112.bmp,120,120,9310.899999999441,285598.9000000004,7007,no,SM,A,109.bmp,-120,120,226675,220647,228690,222659,288522.0,282493.0,290538.0,284506.0,4
2,0,1,0,0,1,test,1,0,z,Fri Aug 09 2024 15:44:28 GMT-0500 (Central Daylight Time),304489.9000000004,O,m,1532,5,1,113.bmp,-120,-120,114.bmp,120,-120,115.bmp,-120,120,116.bmp,120,120,9576.300000000745,294913.5999999996,7007,yes,SM,A,114.bmp,120,-120,226675,220647,228690,222659,297836.0,291808.0,299851.0,293820.0,5
3,0,0,1,0,1,test,1,0,z,Fri Aug 09 2024 15:44:28 GMT-0500 (Central Daylight Time),314553.7999999998,O,None,2016,6,1,117.bmp,-120,-120,118.bmp,120,-120,119.bmp,-120,120,120.bmp,120,120,10061.200000000186,304492.5999999996,7007,yes,SM,A,119.bmp,-120,120,226675,220647,228690,222659,307416.0,301387.0,309432.0,303400.0,6
4,0,0,0,1,1,test,1,0,z,Fri Aug 09 2024 15:44:28 GMT-0500 (Central Daylight Time),323767.5,O,m,1159,7,1,121.bmp,-120,-120,122.bmp,120,-120,123.bmp,-120,120,124.bmp,120,120,9210.799999999814,314556.7000000002,7007,yes,SM,A,124.bmp,120,120,226675,220647,228690,222659,317479.0,311451.0,319496.0,313464.0,7
2,0,1,0,0,1,test,1,0,m,Fri Aug 09 2024 15:44:28 GMT-0500 (Central Daylight Time),333681.0,O,z,1858,8,1,125.bmp,-120,-120,126.bmp,120,-120,127.bmp,-120,120,128.bmp,120,120,9910.400000000373,323770.5999999996,7007,no,SM,A,125.bmp,120,-120,226675,220647,228690,222659,326693.0,320665.0,328709.0,322678.0,8
3,0,0,1,0,2,test,1,1,m,Fri Aug 09 2024 15:44:28 GMT-0500 (Central Daylight Time),343128.0999999996,O,m,1392,9,1,129.bmp,-120,-120,130.bmp,120,-120,131.bmp,-120,120,132.bmp,120,120,9444.0,333684.0999999996,7007,no,SM,A,130.bmp,-120,120,226675,220647,228690,222659,336607.0,330578.0,338622.0,332591.0,9
4,0,0,0,1,2,test,1,0,z,Fri Aug 09 2024 15:44:28 GMT-0500 (Central Daylight Time),352242.2000000002,O,m,1049,10,1,137.bmp,-120,-120,138.bmp,120,-120,139.bmp,-120,120,140.bmp,120,120,9111.200000000186,343131.0,7007,yes,SM,A,140.bmp,120,120,226675,220647,228690,222659,346055.0,340025.0,348070.0,342038.0,10
3,0,0,1,0,3,test,1,1,z,Fri Aug 09 2024 15:44:28 GMT-0500 (Central Daylight Time),361388.9000000004,O,z,1087,11,1,133.bmp,-120,-120,134.bmp,120,-120,135.bmp,-120,120,136.bmp,120,120,9143.600000000559,352245.2999999998,7007,yes,SM,A,135.bmp,-120,120,226675,220647,228690,222659,355168.0,349140.0,357184.0,351152.0,11
2,0,1,0,0,4,test,1,1,m,Fri Aug 09 2024 15:44:28 GMT-0500 (Central Daylight Time),370669.4000000004,O,m,1228,12,1,141.bmp,-120,-120,142.bmp,120,-120,143.bmp,-120,120,144.bmp,120,120,9277.5,361391.9000000004,7007,no,SM,A,141.bmp,120,-120,226675,220647,228690,222659,364314.0,358286.0,366331.0,360299.0,12
3,0,0,1,0,5,test,1,1,m,Fri Aug 09 2024 15:44:28 GMT-0500 (Central Daylight Time),379866.5,O,m,1147,13,1,145.bmp,-120,-120,146.bmp,120,-120,147.bmp,-120,120,148.bmp,120,120,9193.599999999627,370672.9000000004,7007,no,SM,A,146.bmp,-120,120,226675,220647,228690,222659,373595.0,367567.0,375612.0,369580.0,13
1,1,0,0,0,5,test,1,0,z,Fri Aug 09 2024 15:44:28 GMT-0500 (Central Daylight Time),389696.7999999998,O,m,1775,14,1,149.bmp,-120,-120,150.bmp,120,-120,104.bmp,-120,120,101.bmp,120,120,9827.099999999627,379869.7000000002,7007,yes,SM,A,149.bmp,-120,-120,226675,220647,228690,222659,382792.0,376764.0,384808.0,378777.0,14
4,0,0,0,1,5,test,1,0,m,Fri Aug 09 2024 15:44:28 GMT-0500 (Central Daylight Time),399193.5,O,z,1441,15,1,110.bmp,-120,-120,111.bmp,120,-120,112.bmp,-120,120,113.bmp,120,120,9493.299999999814,389700.2000000002,7007,no,SM,A,111.bmp,120,120,226675,220647,228690,222659,392623.0,386595.0,394638.0,388607.0,15
1,1,0,0,0,6,test,1,1,m,Fri Aug 09 2024 15:44:28 GMT-0500 (Central Daylight Time),408424.0,O,m,1175,16,1,102.bmp,-120,-120,103.bmp,120,-120,104.bmp,-120,120,105.bmp,120,120,9227.299999999814,399196.7000000002,7007,no,SM,A,105.bmp,-120,-120,226675,220647,228690,222659,402119.0,396091.0,404136.0,398104.0,16
3,0,0,1,0,6,test,1,0,m,Fri Aug 09 2024 15:44:28 GMT-0500 (Central Daylight Time),418487.9000000004,O,None,2016,17,1,122.bmp,-120,-120,123.bmp,120,-120,124.bmp,-120,120,125.bmp,120,120,10060.700000000186,408427.2000000002,7007,no,SM,A,122.bmp,-120,120,226675,220647,228690,222659,411350.0,405321.0,413366.0,407334.0,17
1,1,0,0,0,7,test,1,1,z,Fri Aug 09 2024 15:44:28 GMT-0500 (Central Daylight Time),427984.7999999998,O,z,1375,18,1,106.bmp,-120,-120,107.bmp,120,-120,108.bmp,-120,120,109.bmp,120,120,9493.700000000186,418491.0999999996,7007,yes,SM,A,106.bmp,-120,-120,226675,220647,228690,222659,421479.0,415385.0,423496.0,417398.0,18
2,0,1,0,0,7,test,1,0,z,Fri Aug 09 2024 15:44:28 GMT-0500 (Central Daylight Time),438048.0999999996,O,None,2016,19,1,126.bmp,-120,-120,127.bmp,120,-120,128.bmp,-120,120,129.bmp,120,120,10060.299999999814,427987.7999999998,7007,yes,SM,A,127.bmp,120,-120,226675,220647,228690,222659,430911.0,424882.0,432926.0,426895.0,19
3,0,0,1,0,8,test,1,1,z,Fri Aug 09 2024 15:44:28 GMT-0500 (Central Daylight Time),447811.7000000002,O,z,1713,20,1,130.bmp,-120,-120,131.bmp,120,-120,132.bmp,-120,120,133.bmp,120,120,9760.5,438051.2000000002,7007,yes,SM,A,132.bmp,-120,120,226675,220647,228690,222659,440974.0,434945.0,442990.0,436958.0,20
1,1,0,0,0,9,test,1,1,m,Fri Aug 09 2024 15:44:28 GMT-0500 (Central Daylight Time),457225.5999999996,O,m,1357,21,1,114.bmp,-120,-120,115.bmp,120,-120,116.bmp,-120,120,117.bmp,120,120,9410.899999999441,447814.7000000002,7007,no,SM,A,116.bmp,-120,-120,226675,220647,228690,222659,450738.0,444709.0,452754.0,446722.0,21
4,0,0,0,1,10,test,1,1,z,Fri Aug 09 2024 15:44:28 GMT-0500 (Central Daylight Time),466822.5,O,z,1544,22,1,118.bmp,-120,-120,119.bmp,120,-120,120.bmp,-120,120,121.bmp,120,120,9593.900000000373,457228.5999999996,7007,yes,SM,A,121.bmp,120,120,226675,220647,228690,222659,460151.0,454123.0,462167.0,456136.0,22
1,1,0,0,0,11,test,1,1,m,Fri Aug 09 2024 15:44:28 GMT-0500 (Central Daylight Time),475886.2999999998,O,m,1011,23,1,134.bmp,-120,-120,135.bmp,120,-120,136.bmp,-120,120,137.bmp,120,120,9060.299999999814,466826.0,7007,no,SM,A,137.bmp,-120,-120,226675,220647,228690,222659,469748.0,463720.0,471764.0,465733.0,23
2,0,1,0,0,11,test,1,0,z,Fri Aug 09 2024 15:44:28 GMT-0500 (Central Daylight Time),485950.0,O,None,2016,24,1,142.bmp,-120,-120,143.bmp,120,-120,144.bmp,-120,120,145.bmp,120,120,10060.599999999627,475889.4000000004,7007,yes,SM,A,143.bmp,120,-120,226675,220647,228690,222659,478812.0,472784.0,480828.0,474797.0,24
4,0,0,0,1,12,test,1,1,m,Fri Aug 09 2024 15:44:28 GMT-0500 (Central Daylight Time),495663.4000000004,O,m,1651,25,1,146.bmp,-120,-120,147.bmp,120,-120,148.bmp,-120,120,149.bmp,120,120,9710.400000000373,485953.0,7007,no,SM,A,148.bmp,120,120,226675,220647,228690,222659,488876.0,482847.0,490892.0,484860.0,25
1,1,0,0,0,12,test,1,0,z,Fri Aug 09 2024 15:44:28 GMT-0500 (Central Daylight Time),505260.5,O,m,1538,26,1,138.bmp,-120,-120,139.bmp,120,-120,140.bmp,-120,120,141.bmp,120,120,9593.900000000373,495666.5999999996,7007,yes,SM,A,138.bmp,-120,-120,226675,220647,228690,222659,498589.0,492561.0,500605.0,494574.0,26
4,0,0,0,1,13,test,1,1,z,Fri Aug 09 2024 15:44:28 GMT-0500 (Central Daylight Time),514690.7000000002,O,z,1373,27,1,150.bmp,-120,-120,111.bmp,120,-120,101.bmp,-120,120,102.bmp,120,120,9426.700000000186,505264.0,7007,yes,SM,A,102.bmp,120,120,226675,220647,228690,222659,508186.0,502158.0,510202.0,504171.0,27
3,0,0,1,0,14,test,1,1,m,Fri Aug 09 2024 15:44:28 GMT-0500 (Central Daylight Time),523904.5,O,m,1157,28,1,103.bmp,-120,-120,104.bmp,120,-120,105.bmp,-120,120,106.bmp,120,120,9210.700000000186,514693.7999999998,7007,no,SM,A,103.bmp,-120,120,226675,220647,228690,222659,517617.0,511588.0,519633.0,513601.0,28
2,0,1,0,0,14,test,1,0,z,Fri Aug 09 2024 15:44:28 GMT-0500 (Central Daylight Time),533251.5999999996,O,m,1289,29,1,107.bmp,-120,-120,108.bmp,120,-120,109.bmp,-120,120,110.bmp,120,120,9343.599999999627,523908.0,7007,yes,SM,A,108.bmp,120,-120,226675,220647,228690,222659,526830.0,520802.0,528846.0,522815.0,29
3,0,0,1,0,14,test,1,0,z,Fri Aug 09 2024 15:44:28 GMT-0500 (Central Daylight Time),542665.0999999996,O,m,1358,30,1,111.bmp,-120,-120,112.bmp,120,-120,113.bmp,-120,120,114.bmp,120,120,9410.299999999814,533254.7999999998,7007,yes,SM,A,113.bmp,-120,120,226675,220647,228690,222659,536177.0,530149.0,538193.0,532162.0,30
1,1,0,0,0,14,test,1,0,z,Fri Aug 09 2024 15:44:28 GMT-0500 (Central Daylight Time),552595.7000000002,O,m,1880,31,1,115.bmp,-120,-120,116.bmp,120,-120,117.bmp,-120,120,118.bmp,120,120,9927.200000000186,542668.5,7007,yes,SM,A,115.bmp,-120,-120,226675,220647,228690,222659,545591.0,539563.0,547607.0,541576.0,31
2,0,1,0,0,15,test,1,1,m,Fri Aug 09 2024 15:44:28 GMT-0500 (Central Daylight Time),562242.2999999998,O,m,1597,32,1,119.bmp,-120,-120,120.bmp,120,-120,121.bmp,-120,120,122.bmp,120,120,9643.799999999814,552598.5,7007,no,SM,A,119.bmp,120,-120,226675,220647,228690,222659,555521.0,549493.0,557538.0,551506.0,32
4,0,0,0,1,16,test,1,1,z,Fri Aug 09 2024 15:44:28 GMT-0500 (Central Daylight Time),571906.2000000002,O,z,1606,33,1,131.bmp,-120,-120,132.bmp,120,-120,133.bmp,-120,120,134.bmp,120,120,9661.100000000559,562245.0999999996,7007,yes,SM,A,134.bmp,120,120,226675,220647,228690,222659,565168.0,559139.0,567185.0,561153.0,33
2,0,1,0,0,16,test,1,0,z,Fri Aug 09 2024 15:44:28 GMT-0500 (Central Daylight Time),581070.0999999996,O,m,1111,34,1,123.bmp,-120,-120,124.bmp,120,-120,125.bmp,-120,120,126.bmp,120,120,9161.099999999627,571909.0,7007,yes,SM,A,124.bmp,120,-120,226675,220647,228690,222659,574832.0,568803.0,576848.0,570816.0,34
4,0,0,0,1,17,test,1,1,m,Fri Aug 09 2024 15:44:28 GMT-0500 (Central Daylight Time),591051.0,O,m,1931,35,1,127.bmp,-120,-120,128.bmp,120,-120,129.bmp,-120,120,130.bmp,120,120,9977.700000000186,581073.2999999998,7007,no,SM,A,129.bmp,120,120,226675,220647,228690,222659,583996.0,577967.0,586012.0,579980.0,35
3,0,0,1,0,18,test,1,1,m,Fri Aug 09 2024 15:44:28 GMT-0500 (Central Daylight Time),600680.7000000002,O,m,1567,36,1,135.bmp,-120,-120,136.bmp,120,-120,137.bmp,-120,120,138.bmp,120,120,9626.799999999814,591053.9000000004,7007,no,SM,A,135.bmp,-120,120,226675,220647,228690,222659,593976.0,587948.0,595992.0,589960.0,36
1,1,0,0,0,18,test,1,0,m,Fri Aug 09 2024 15:44:28 GMT-0500 (Central Daylight Time),609960.7999999998,O,z,1225,37,1,139.bmp,-120,-120,140.bmp,120,-120,141.bmp,-120,120,142.bmp,120,120,9276.899999999441,600683.9000000004,7007,no,SM,A,140.bmp,-120,-120,226675,220647,228690,222659,603606.0,597578.0,605622.0,599591.0,37
2,0,1,0,0,19,test,1,1,m,Fri Aug 09 2024 15:44:28 GMT-0500 (Central Daylight Time),619474.5,O,m,1455,38,1,143.bmp,-120,-120,144.bmp,120,-120,145.bmp,-120,120,146.bmp,120,120,9510.599999999627,609963.9000000004,7007,no,SM,A,145.bmp,120,-120,226675,220647,228690,222659,612887.0,606858.0,614904.0,608871.0,38
4,0,0,0,1,19,test,1,0,z,Fri Aug 09 2024 15:44:28 GMT-0500 (Central Daylight Time),629371.5999999996,O,m,1839,39,1,147.bmp,-120,-120,148.bmp,120,-120,149.bmp,-120,120,150.bmp,120,120,9893.899999999441,619477.7000000002,7007,yes,SM,A,150.bmp,120,120,226675,220647,228690,222659,622400.0,616372.0,624416.0,618385.0,39
3,0,0,1,0,19,test,1,0,m,Fri Aug 09 2024 15:44:28 GMT-0500 (Central Daylight Time),638468.7000000002,O,z,1046,40,1,104.bmp,-120,-120,105.bmp,120,-120,106.bmp,-120,120,107.bmp,120,120,9093.400000000373,629375.2999999998,7007,no,SM,A,105.bmp,-120,120,226675,220647,228690,222659,632297.0,626270.0,634313.0,628282.0,40
1,1,0,0,0,20,test,1,1,z,Fri Aug 09 2024 15:44:28 GMT-0500 (Central Daylight Time),647399.2000000002,O,z,876,41,1,108.bmp,-120,-120,109.bmp,120,-120,110.bmp,-120,120,111.bmp,120,120,8927.600000000559,638471.5999999996,7007,yes,SM,A,108.bmp,-120,-120,226675,220647,228690,222659,641394.0,635366.0,643411.0,637379.0,41
4,0,0,0,1,21,test,1,1,z,Fri Aug 09 2024 15:44:28 GMT-0500 (Central Daylight Time),656896.2999999998,O,z,1442,42,1,112.bmp,-120,-120,113.bmp,120,-120,114.bmp,-120,120,115.bmp,120,120,9494.399999999441,647401.9000000004,7007,yes,SM,A,115.bmp,120,120,226675,220647,228690,222659,650325.0,644296.0,652341.0,646310.0,42
1,1,0,0,0,21,test,1,0,z,Fri Aug 09 2024 15:44:28 GMT-0500 (Central Daylight Time),666959.9000000004,O,None,2016,43,1,116.bmp,-120,-120,117.bmp,120,-120,118.bmp,-120,120,119.bmp,120,120,10061.0,656898.9000000004,7007,yes,SM,A,116.bmp,-120,-120,226675,220647,228690,222659,659822.0,653793.0,661838.0,655806.0,43
4,0,0,0,1,22,test,1,1,m,Fri Aug 09 2024 15:44:28 GMT-0500 (Central Daylight Time),676339.9000000004,O,m,1322,44,1,104.bmp,-120,-120,101.bmp,120,-120,102.bmp,-120,120,103.bmp,120,120,9376.700000000186,666963.2000000002,7007,no,SM,A,104.bmp,120,120,226675,220647,228690,222659,669885.0,663857.0,671901.0,665870.0,44
1,1,0,0,0,22,test,1,0,m,Fri Aug 09 2024 15:44:28 GMT-0500 (Central Daylight Time),686403.4000000004,O,None,2015,45,1,128.bmp,-120,-120,129.bmp,120,-120,130.bmp,-120,120,131.bmp,120,120,10060.5,676342.9000000004,7007,no,SM,A,131.bmp,-120,-120,226675,220647,228690,222659,679265.0,673237.0,681282.0,675250.0,45
1,1,0,0,0,22,test,1,0,m,Fri Aug 09 2024 15:44:28 GMT-0500 (Central Daylight Time),695917.0,O,z,1454,46,1,120.bmp,-120,-120,121.bmp,120,-120,122.bmp,-120,120,123.bmp,120,120,9510.799999999814,686406.2000000002,7007,no,SM,A,121.bmp,-120,-120,226675,220647,228690,222659,689329.0,683300.0,691345.0,685314.0,46
3,0,0,1,0,22,test,1,0,z,Fri Aug 09 2024 15:44:28 GMT-0500 (Central Daylight Time),705297.5999999996,O,m,1316,47,1,124.bmp,-120,-120,125.bmp,120,-120,126.bmp,-120,120,127.bmp,120,120,9375.5,695922.0999999996,7007,yes,SM,A,126.bmp,-120,120,226675,220647,228690,222659,698843.0,692816.0,700859.0,694828.0,47
3,0,0,1,0,23,test,1,1,z,Fri Aug 09 2024 15:44:28 GMT-0500 (Central Daylight Time),714328.2000000002,O,z,976,48,1,140.bmp,-120,-120,141.bmp,120,-120,142.bmp,-120,120,143.bmp,120,120,9028.0,705300.2000000002,7007,yes,SM,A,142.bmp,-120,120,226675,220647,228690,222659,708223.0,702195.0,710239.0,704210.0,48
2,0,1,0,0,23,test,1,0,z,Fri Aug 09 2024 15:44:28 GMT-0500 (Central Daylight Time),723242.0,O,m,858,49,1,136.bmp,-120,-120,137.bmp,120,-120,138.bmp,-120,120,139.bmp,120,120,8910.700000000186,714331.2999999998,7007,yes,SM,A,137.bmp,120,-120,226675,220647,228690,222659,717254.0,711226.0,719270.0,713239.0,49
3,0,0,1,0,23,test,1,0,m,Fri Aug 09 2024 15:44:28 GMT-0500 (Central Daylight Time),732955.7000000002,O,z,1655,50,1,132.bmp,-120,-120,133.bmp,120,-120,134.bmp,-120,120,135.bmp,120,120,9711.299999999814,723244.4000000004,7007,no,SM,A,132.bmp,-120,120,226675,220647,228690,222659,726168.0,720139.0,728184.0,722152.0,50
2,0,1,0,0,23,test,1,0,z,Fri Aug 09 2024 15:44:28 GMT-0500 (Central Daylight Time),742869.4000000004,O,m,1852,51,1,144.bmp,-120,-120,145.bmp,120,-120,146.bmp,-120,120,147.bmp,120,120,9911.0,732958.4000000004,7007,yes,SM,A,145.bmp,120,-120,226675,220647,228690,222659,735881.0,729853.0,737899.0,731866.0,51
4,0,0,0,1,24,test,1,1,m,Fri Aug 09 2024 15:44:28 GMT-0500 (Central Daylight Time),751999.7000000002,O,m,1068,52,1,148.bmp,-120,-120,149.bmp,120,-120,150.bmp,-120,120,131.bmp,120,120,9127.799999999814,742871.9000000004,7007,no,SM,A,148.bmp,120,120,226675,220647,228690,222659,745795.0,739766.0,747811.0,741780.0,52
3,0,0,1,0,25,test,1,1,z,Fri Aug 09 2024 15:44:28 GMT-0500 (Central Daylight Time),761046.7999999998,O,z,985,53,1,101.bmp,-120,-120,102.bmp,120,-120,103.bmp,-120,120,104.bmp,120,120,9044.0,752002.7999999998,7007,yes,SM,A,103.bmp,-120,120,226675,220647,228690,222659,754925.0,748897.0,756942.0,750910.0,53
1,1,0,0,0,25,test,1,0,m,Fri Aug 09 2024 15:44:28 GMT-0500 (Central Daylight Time),770110.5999999996,O,z,1010,54,1,105.bmp,-120,-120,106.bmp,120,-120,107.bmp,-120,120,108.bmp,120,120,9060.099999999627,761050.5,7007,no,SM,A,107.bmp,-120,-120,226675,220647,228690,222659,763972.0,757945.0,765989.0,759957.0,54
4,0,0,0,1,25,test,1,0,z,Fri Aug 09 2024 15:44:28 GMT-0500 (Central Daylight Time),779724.4000000004,O,m,1554,55,1,109.bmp,-120,-120,110.bmp,120,-120,111.bmp,-120,120,112.bmp,120,120,9610.700000000186,770113.7000000002,7007,yes,SM,A,112.bmp,120,120,226675,220647,228690,222659,773036.0,767008.0,775053.0,769021.0,55
2,0,1,0,0,25,test,1,0,m,Fri Aug 09 2024 15:44:28 GMT-0500 (Central Daylight Time),789338.0,O,z,1557,56,1,113.bmp,-120,-120,114.bmp,120,-120,115.bmp,-120,120,116.bmp,120,120,9610.700000000186,779727.2999999998,7007,no,SM,A,113.bmp,120,-120,226675,220647,228690,222659,782650.0,776622.0,784666.0,778635.0,56
4,0,0,0,1,25,test,1,0,m,Fri Aug 09 2024 15:44:28 GMT-0500 (Central Daylight Time),798501.7999999998,O,z,1103,57,1,117.bmp,-120,-120,118.bmp,120,-120,119.bmp,-120,120,120.bmp,120,120,9160.799999999814,789341.0,7007,no,SM,A,118.bmp,120,120,226675,220647,228690,222659,792264.0,786235.0,794280.0,788248.0,57
3,0,0,1,0,26,test,1,1,z,Fri Aug 09 2024 15:44:28 GMT-0500 (Central Daylight Time),808032.2999999998,O,z,1475,58,1,121.bmp,-120,-120,122.bmp,120,-120,123.bmp,-120,120,124.bmp,120,120,9527.599999999627,798504.7000000002,7007,yes,SM,A,123.bmp,-120,120,226675,220647,228690,222659,801427.0,795399.0,803444.0,797412.0,58
2,0,1,0,0,26,test,1,0,m,Fri Aug 09 2024 15:44:28 GMT-0500 (Central Daylight Time),818095.7000000002,O,None,2016,59,1,125.bmp,-120,-120,126.bmp,120,-120,127.bmp,-120,120,128.bmp,120,120,10060.700000000186,808035.0,7007,no,SM,A,128.bmp,120,-120,226675,220647,228690,222659,810958.0,804929.0,812974.0,806943.0,59
1,1,0,0,0,27,test,1,1,z,Fri Aug 09 2024 15:44:28 GMT-0500 (Central Daylight Time),827559.2999999998,O,z,1401,60,1,129.bmp,-120,-120,130.bmp,120,-120,131.bmp,-120,120,132.bmp,120,120,9460.5,818098.7999999998,7007,yes,SM,A,129.bmp,-120,-120,226675,220647,228690,222659,821022.0,814993.0,823038.0,817006.0,60
2,0,1,0,0,28,test,1,1,z,Fri Aug 09 2024 15:44:28 GMT-0500 (Central Daylight Time),836907.5,O,z,1298,61,1,133.bmp,-120,-120,134.bmp,120,-120,135.bmp,-120,120,136.bmp,120,120,9345.200000000186,827562.2999999998,7007,yes,SM,A,134.bmp,120,-120,226675,220647,228690,222659,830485.0,824456.0,832501.0,826470.0,61
4,0,0,0,1,28,test,1,0,z,Fri Aug 09 2024 15:44:28 GMT-0500 (Central Daylight Time),846420.2000000002,O,m,1455,62,1,141.bmp,-120,-120,142.bmp,120,-120,143.bmp,-120,120,144.bmp,120,120,9509.700000000186,836910.5,7007,yes,SM,A,144.bmp,120,120,226675,220647,228690,222659,839832.0,833805.0,841848.0,835817.0,62
1,1,0,0,0,29,test,1,1,m,Fri Aug 09 2024 15:44:28 GMT-0500 (Central Daylight Time),855617.2999999998,O,m,1149,63,1,145.bmp,-120,-120,146.bmp,120,-120,147.bmp,-120,120,148.bmp,120,120,9194.299999999814,846423.0,7007,no,SM,A,145.bmp,-120,120,226675,220647,228690,222659,849346.0,843317.0,851362.0,845341.0,63
2,0,1,0,0,29,test,1,0,z,Fri Aug 09 2024 15:44:28 GMT-0500 (Central Daylight Time),865230.9000000004,O,m,1552,64,1,149.bmp,-120,-120,150.bmp,120,-120,112.bmp,-120,120,101.bmp,120,120,9610.900000000373,855620.0,7007,yes,SM,A,150.bmp,120,-120,226675,220647,228690,222659,858543.0,852514.0,860559.0,854529.0,64
4,0,0,0,1,30,test,1,1,m,Fri Aug 09 2024 15:44:28 GMT-0500 (Central Daylight Time),874594.7000000002,O,m,1307,65,1,102.bmp,-120,-120,103.bmp,120,-120,104.bmp,-120,120,105.bmp,120,120,9361.200000000186,865233.5,7007,no,SM,A,104.bmp,120,120,226675,220647,228690,222659,868157.0,862128.0,870173.0,864141.0,65
3,0,0,1,0,30,test,1,0,m,Fri Aug 09 2024 15:44:28 GMT-0500 (Central Daylight Time),884658.4000000004,O,None,2015,66,1,106.bmp,-120,-120,107.bmp,120,-120,108.bmp,-120,120,109.bmp,120,120,10060.800000000745,874597.5999999996,7007,no,SM,A,109.bmp,-120,120,226675,220647,228690,222659,877520.0,871492.0,879537.0,873505.0,66
2,0,1,0,0,31,test,1,1,m,Fri Aug 09 2024 15:44:28 GMT-0500 (Central Daylight Time),894638.4000000004,O,m,1919,67,1,137.bmp,-120,-120,138.bmp,120,-120,139.bmp,-120,120,140.bmp,120,120,9977.400000000373,884661.0,7007,no,SM,A,139.bmp,120,-120,226675,220647,228690,222659,887584.0,881555.0,889600.0,883568.0,67
3,0,0,1,0,31,test,1,0,z,Fri Aug 09 2024 15:44:28 GMT-0500 (Central Daylight Time),904602.0,O,m,1908,68,1,110.bmp,-120,-120,111.bmp,120,-120,112.bmp,-120,120,113.bmp,120,120,9961.299999999814,894640.7000000002,7007,yes,SM,A,112.bmp,-120,120,226675,220647,228690,222659,897564.0,891535.0,899580.0,893549.0,68
1,1,0,0,0,31,test,1,0,m,Fri Aug 09 2024 15:44:28 GMT-0500 (Central Daylight Time),913899.0999999996,O,z,1248,69,1,114.bmp,-120,-120,115.bmp,120,-120,116.bmp,-120,120,117.bmp,120,120,9293.599999999627,904605.5,7007,no,SM,A,115.bmp,-120,-120,226675,220647,228690,222659,907527.0,901500.0,909543.0,903512.0,69
2,0,1,0,0,32,test,1,1,m,Fri Aug 09 2024 15:44:28 GMT-0500 (Central Daylight Time),923046.0,O,m,1087,70,1,118.bmp,-120,-120,119.bmp,120,-120,120.bmp,-120,120,121.bmp,120,120,9144.200000000186,913901.7999999998,7007,no,SM,A,120.bmp,120,-120,226675,220647,228690,222659,916825.0,910796.0,918841.0,912809.0,70
4,0,0,0,1,33,test,1,1,z,Fri Aug 09 2024 15:44:28 GMT-0500 (Central Daylight Time),932493.0,O,z,1387,71,1,122.bmp,-120,-120,123.bmp,120,-120,124.bmp,-120,120,125.bmp,120,120,9444.0,923049.0,7007,yes,SM,A,125.bmp,120,120,226675,220647,228690,222659,925972.0,919943.0,927988.0,921957.0,71
1,1,0,0,0,34,test,1,1,z,Fri Aug 09 2024 15:44:28 GMT-0500 (Central Daylight Time),941640.2999999998,O,z,1084,72,1,126.bmp,-120,-120,127.bmp,120,-120,128.bmp,-120,120,129.bmp,120,120,9144.5,932495.7999999998,7007,yes,SM,A,126.bmp,-120,-120,226675,220647,228690,222659,935419.0,929390.0,937435.0,931403.0,72
2,0,1,0,0,34,test,1,0,z,Fri Aug 09 2024 15:44:28 GMT-0500 (Central Daylight Time),951703.7999999998,O,None,2016,73,1,130.bmp,-120,-120,131.bmp,120,-120,132.bmp,-120,120,133.bmp,120,120,10060.5,941643.2999999998,7007,yes,SM,A,131.bmp,120,-120,226675,220647,228690,222659,944566.0,938538.0,946582.0,940551.0,73
4,0,0,0,1,35,test,1,1,m,Fri Aug 09 2024 15:44:28 GMT-0500 (Central Daylight Time),961384.0999999996,O,m,1618,74,1,134.bmp,-120,-120,135.bmp,120,-120,136.bmp,-120,120,137.bmp,120,120,9677.099999999627,951707.0,7007,no,SM,A,136.bmp,120,120,226675,220647,228690,222659,954630.0,948601.0,956645.0,950614.0,74
2,0,1,0,0,35,test,1,0,m,Fri Aug 09 2024 15:44:28 GMT-0500 (Central Daylight Time),971447.5,O,None,2015,75,1,138.bmp,-120,-120,139.bmp,120,-120,140.bmp,-120,120,141.bmp,120,120,10060.5,961387.0,7007,no,SM,A,141.bmp,120,-120,226675,220647,228690,222659,964310.0,958281.0,966326.0,960294.0,75
1,1,0,0,0,36,test,1,1,z,Fri Aug 09 2024 15:44:28 GMT-0500 (Central Daylight Time),980711.4000000004,O,z,1202,76,1,142.bmp,-120,-120,143.bmp,120,-120,144.bmp,-120,120,145.bmp,120,120,9260.600000000559,971450.7999999998,7007,yes,SM,A,142.bmp,-120,-120,226675,220647,228690,222659,974373.0,968345.0,976389.0,970358.0,76
3,0,0,1,0,37,test,1,1,z,Fri Aug 09 2024 15:44:28 GMT-0500 (Central Daylight Time),990408.0999999996,O,z,1643,77,1,150.bmp,-120,-120,111.bmp,120,-120,101.bmp,-120,120,102.bmp,120,120,9694.0,980714.0999999996,7007,yes,SM,A,101.bmp,-120,120,226675,220647,228690,222659,983637.0,977608.0,985653.0,979622.0,77
1,1,0,0,0,37,test,1,0,m,Fri Aug 09 2024 15:44:28 GMT-0500 (Central Daylight Time),1000055.2999999998,O,z,1585,78,1,146.bmp,-120,-120,147.bmp,120,-120,148.bmp,-120,120,149.bmp,120,120,9643.899999999441,990411.4000000004,7007,no,SM,A,147.bmp,-120,-120,226675,220647,228690,222659,993334.0,987306.0,995350.0,989319.0,78
4,0,0,0,1,37,test,1,0,m,Fri Aug 09 2024 15:44:28 GMT-0500 (Central Daylight Time),1010002.0999999996,O,z,1898,79,1,107.bmp,-120,-120,108.bmp,120,-120,109.bmp,-120,120,110.bmp,120,120,9942.899999999441,1000059.2000000002,7007,no,SM,A,107.bmp,120,120,226675,220647,228690,222659,1002981.0,996953.0,1004997.0,998966.0,79
3,0,0,1,0,38,test,1,1,m,Fri Aug 09 2024 15:44:28 GMT-0500 (Central Daylight Time),1019932.2000000002,O,m,1871,80,1,103.bmp,-120,-120,104.bmp,120,-120,105.bmp,-120,120,106.bmp,120,120,9927.0,1010005.2000000002,7007,no,SM,A,106.bmp,-120,120,226675,220647,228690,222659,1012928.0,1006899.0,1014944.0,1008912.0,80
