acc_sum,block,block_c,condition,correct,correct_response,datetime,endtime,flanker,jitter,project,response,response_test_buffer_response,response_test_target_response,response_time,response_time_test_buffer_response,response_time_test_target_response,row_sel,session_number,start_end,starttime,subject_id,target,task,task_vers,time_test_buffer,time_test_buffer_response,time_test_constants,time_test_flanker,time_test_jitter,time_test_logger,time_test_target,time_test_target_response,time_test_variables,trial
1,prac,1,con,1,m,Thu May 21 2026 13:48:23 GMT-0400 (Eastern Daylight Time),135322.2999997139,bell,1000,I,m,,,626,,,3,1,2924.0999999046326,132398.19999980927,9083,bell,AF,B,,,,,,,,,,1
2,prac,1,con,1,z,Thu May 21 2026 13:48:23 GMT-0400 (Eastern Daylight Time),138188.69999980927,love,1000,I,z,,,557,,,11,1,2854.9000000953674,135333.7999997139,9083,love,AF,B,,,,,,,,,,2
3,prac,1,inc,1,m,Thu May 21 2026 13:48:23 GMT-0400 (Eastern Daylight Time),141171.90000009537,kind,900,I,m,,,766,,,2,1,2973.7000002861023,138198.19999980927,9083,rock,AF,B,,,,,,,,,,3
4,prac,1,con,1,m,Thu May 21 2026 13:48:23 GMT-0400 (Eastern Daylight Time),144022.0,jacket,800,I,m,,,747,,,5,1,2839.9000000953674,141182.09999990463,9083,jacket,AF,B,,,,,,,,,,4
5,prac,1,con,1,z,Thu May 21 2026 13:48:23 GMT-0400 (Eastern Daylight Time),146822.09999990463,rage,1000,I,z,,,497,,,15,1,2790.199999809265,144031.90000009537,9083,rage,AF,B,,,,,,,,,,5
6,prac,1,inc,1,z,Thu May 21 2026 13:48:23 GMT-0400 (Eastern Daylight Time),149988.19999980927,window,1100,I,z,,,749,,,16,1,3154.699999809265,146833.5,9083,temper,AF,B,,,,,,,,,,6
7,prac,1,inc,1,m,Thu May 21 2026 13:48:23 GMT-0400 (Eastern Daylight Time),153105.40000009537,brutal,1100,I,m,,,702,,,8,1,3111.0,149994.40000009537,9083,window,AF,B,,,,,,,,,,7
8,prac,1,con,1,z,Thu May 21 2026 13:48:23 GMT-0400 (Eastern Daylight Time),155938.69999980927,elated,800,I,z,,,718,,,9,1,2824.199999809265,153114.5,9083,elated,AF,B,,,,,,,,,,8
9,prac,1,inc,1,z,Thu May 21 2026 13:48:23 GMT-0400 (Eastern Daylight Time),158855.2999997139,rock,900,I,z,,,713,,,10,1,2907.0,155948.2999997139,9083,kind,AF,B,,,,,,,,,,9
10,prac,1,con,1,m,Thu May 21 2026 13:48:23 GMT-0400 (Eastern Daylight Time),161438.69999980927,step,800,I,m,,,472,,,1,1,2571.7999997138977,158866.90000009537,9083,step,AF,B,,,,,,,,,,10
11,prac,1,inc,1,z,Thu May 21 2026 13:48:23 GMT-0400 (Eastern Daylight Time),164572.09999990463,napkin,1100,I,z,,,724,,,12,1,3120.4000000953674,161451.69999980927,9083,friend,AF,B,,,,,,,,,,11
12,prac,1,inc,1,m,Thu May 21 2026 13:48:23 GMT-0400 (Eastern Daylight Time),167506.0,elated,900,I,m,,,719,,,6,1,2924.2000002861023,164581.7999997139,9083,napkin,AF,B,,,,,,,,,,12
13,prac,1,con,1,z,Thu May 21 2026 13:48:23 GMT-0400 (Eastern Daylight Time),170255.2999997139,brutal,800,I,z,,,638,,,13,1,2742.5999999046326,167512.69999980927,9083,brutal,AF,B,,,,,,,,,,13
13,prac,1,con,0,m,Thu May 21 2026 13:48:23 GMT-0400 (Eastern Daylight Time),173305.2999997139,remote,1000,I,z,,,745,,,7,1,3039.0999999046326,170266.19999980927,9083,remote,AF,B,,,,,,,,,,14
14,prac,1,inc,1,m,Thu May 21 2026 13:48:23 GMT-0400 (Eastern Daylight Time),176671.90000009537,hate,1100,I,m,,,954,,,4,1,3353.9000000953674,173318.0,9083,film,AF,B,,,,,,,,,,15
15,prac,1,inc,1,z,Thu May 21 2026 13:48:23 GMT-0400 (Eastern Daylight Time),179672.0,film,900,I,z,,,795,,,14,1,2990.300000190735,176681.69999980927,9083,hate,AF,B,,,,,,,,,,16
1,test,1,con,1,z,Thu May 21 2026 13:48:23 GMT-0400 (Eastern Daylight Time),206822.40000009537,friend,1100,I,z,z,None,748,549.0,199.0,28,1,2375.4000000953674,204447.0,9083,friend,AF,B,203639,203639,201813,202922,201813,204188,203439,203439,204188,1
2,test,1,inc,1,z,Thu May 21 2026 13:48:23 GMT-0400 (Eastern Daylight Time),209138.5,window,1100,I,z,z,None,669,470.0,199.0,64,1,2306.5,206832.0,9083,temper,AF,B,206022,206022,204198,205305,204198,206505,205822,205822,206504,2
3,test,1,con,1,z,Thu May 21 2026 13:48:23 GMT-0400 (Eastern Daylight Time),211105.19999980927,temper,900,I,z,z,None,520,321.0,199.0,58,1,1955.0999999046326,209150.09999990463,9083,temper,AF,B,208139,208139,206516,207422,206517,208471,207939,207939,208471,3
4,test,1,inc,1,z,Thu May 21 2026 13:48:23 GMT-0400 (Eastern Daylight Time),213038.5,step,800,I,z,z,None,590,391.0,199.0,45,1,1924.4000000953674,211114.09999990463,9083,hate,AF,B,210005,210005,208480,209289,208481,210405,209805,209805,210405,4
5,test,1,con,1,m,Thu May 21 2026 13:48:23 GMT-0400 (Eastern Daylight Time),215338.5,film,1100,I,m,m,None,661,461.0,200.0,92,1,2290.5,213048.0,9083,film,AF,B,212238,212239,210414,211522,210415,212705,212038,212038,212705,5
6,test,1,con,1,m,Thu May 21 2026 13:48:23 GMT-0400 (Eastern Daylight Time),217338.5,rock,900,I,m,m,None,560,361.0,199.0,74,1,1990.0999999046326,215348.40000009537,9083,rock,AF,B,214339,214339,212714,213622,212715,214705,214139,214139,214705,6
7,test,1,con,1,z,Thu May 21 2026 13:48:23 GMT-0400 (Eastern Daylight Time),219422.0,rage,900,I,z,z,None,640,441.0,199.0,50,1,2073.5999999046326,217348.40000009537,9083,rage,AF,B,216339,216339,214714,215622,214715,216788,216139,216139,216788,7
8,test,1,inc,1,m,Thu May 21 2026 13:48:23 GMT-0400 (Eastern Daylight Time),221638.7999997139,hate,1100,I,m,m,None,581,382.0,199.0,88,1,2206.699999809265,219432.09999990463,9083,bell,AF,B,218622,218622,216798,217905,216798,219005,218422,218422,219005,8
9,test,1,con,1,m,Thu May 21 2026 13:48:23 GMT-0400 (Eastern Daylight Time),223688.5,jacket,900,I,m,m,None,612,413.0,199.0,98,1,2040.0,221648.5,9083,jacket,AF,B,220639,220639,219015,219922,219015,221055,220439,220439,221055,9
10,test,1,con,1,m,Thu May 21 2026 13:48:23 GMT-0400 (Eastern Daylight Time),225588.59999990463,napkin,900,I,m,m,None,450,251.0,199.0,106,1,1891.0,223697.59999990463,9083,napkin,AF,B,222689,222689,221064,221972,221064,222955,222489,222489,222955,10
11,test,1,con,1,m,Thu May 21 2026 13:48:23 GMT-0400 (Eastern Daylight Time),227755.2999997139,bell,1000,I,m,m,None,626,427.0,199.0,83,1,2155.3999996185303,225599.90000009537,9083,bell,AF,B,224689,224689,222966,223972,222966,225121,224488,224489,225121,11
12,test,1,con,1,z,Thu May 21 2026 13:48:23 GMT-0400 (Eastern Daylight Time),229605.2999997139,kind,800,I,z,z,None,501,301.0,200.0,9,1,1838.8999996185303,227766.40000009537,9083,kind,AF,B,226655,226655,225132,225939,225133,226971,226455,226455,226971,12
13,test,1,con,1,z,Thu May 21 2026 13:48:23 GMT-0400 (Eastern Daylight Time),231771.90000009537,elated,900,I,z,z,None,727,527.0,200.0,2,1,2155.4000000953674,229616.5,9083,elated,AF,B,228605,228605,226983,227889,226983,229138,228405,228405,229138,13
14,test,1,con,1,z,Thu May 21 2026 13:48:23 GMT-0400 (Eastern Daylight Time),233738.59999990463,rage,1000,I,z,z,None,427,228.0,199.0,51,1,1957.8000001907349,231780.7999997139,9083,rage,AF,B,230872,230872,229147,230155,229147,231105,230672,230672,231105,14
15,test,1,inc,1,m,Thu May 21 2026 13:48:23 GMT-0400 (Eastern Daylight Time),235855.19999980927,brutal,900,I,m,m,None,672,473.0,199.0,118,1,2107.2999997138977,233747.90000009537,9083,remote,AF,B,232739,232739,231114,232022,231114,233221,232539,232539,233221,15
16,test,1,con,1,z,Thu May 21 2026 13:48:23 GMT-0400 (Eastern Daylight Time),238188.5,kind,1100,I,z,z,None,693,493.0,200.0,12,1,2324.2000002861023,235864.2999997139,9083,kind,AF,B,235055,235055,233230,234339,233231,235555,234855,234855,235555,16
17,test,1,con,1,z,Thu May 21 2026 13:48:23 GMT-0400 (Eastern Daylight Time),240038.40000009537,rage,800,I,z,z,None,514,315.0,199.0,49,1,1839.4000000953674,238199.0,9083,rage,AF,B,237089,237089,235565,236372,235565,237405,236889,236889,237404,17
18,test,1,inc,1,z,Thu May 21 2026 13:48:23 GMT-0400 (Eastern Daylight Time),242221.90000009537,film,1100,I,z,z,None,540,341.0,199.0,56,1,2174.800000190735,240047.09999990463,9083,rage,AF,B,239239,239239,237413,238522,237414,239588,239039,239039,239588,18
19,test,1,con,1,m,Thu May 21 2026 13:48:23 GMT-0400 (Eastern Daylight Time),244288.59999990463,rock,800,I,m,m,None,721,522.0,199.0,73,1,2056.699999809265,242231.90000009537,9083,rock,AF,B,241122,241122,239598,240405,239598,241655,240922,240922,241655,19
20,test,1,con,1,m,Thu May 21 2026 13:48:23 GMT-0400 (Eastern Daylight Time),246571.90000009537,bell,1100,I,m,m,None,643,444.0,199.0,84,1,2273.800000190735,244298.09999990463,9083,bell,AF,B,243488,243488,241664,242772,241664,243938,243288,243289,243938,20
21,test,1,inc,1,z,Thu May 21 2026 13:48:23 GMT-0400 (Eastern Daylight Time),248871.59999990463,film,1100,I,z,z,None,664,465.0,199.0,48,1,2289.9000000953674,246581.69999980927,9083,hate,AF,B,245771,245771,243948,245055,243948,246238,245572,245572,246238,21
22,test,1,inc,1,m,Thu May 21 2026 13:48:23 GMT-0400 (Eastern Daylight Time),251055.19999980927,temper,1000,I,m,m,None,639,440.0,199.0,103,1,2172.7999997138977,248882.40000009537,9083,jacket,AF,B,247972,247972,246248,247255,246249,248421,247772,247772,248421,22
23,test,1,inc,1,z,Thu May 21 2026 13:48:23 GMT-0400 (Eastern Daylight Time),253088.5,step,800,I,z,z,None,688,489.0,199.0,13,1,2023.9000000953674,251064.59999990463,9083,kind,AF,B,249955,249955,248431,249238,248431,250455,249755,249755,250455,23
24,test,1,con,1,z,Thu May 21 2026 13:48:23 GMT-0400 (Eastern Daylight Time),255188.59999990463,kind,900,I,z,z,None,650,451.0,199.0,10,1,2091.4000000953674,253097.19999980927,9083,kind,AF,B,252088,252089,250463,251372,250464,252555,251888,251889,252555,24
25,test,1,inc,1,z,Thu May 21 2026 13:48:23 GMT-0400 (Eastern Daylight Time),257388.59999990463,bell,1000,I,z,z,None,659,459.0,200.0,55,1,2192.0999999046326,255196.5,9083,rage,AF,B,254289,254289,252563,253572,252563,254755,254088,254088,254755,25
26,test,1,inc,1,z,Thu May 21 2026 13:48:23 GMT-0400 (Eastern Daylight Time),259721.90000009537,film,1100,I,z,z,None,694,495.0,199.0,16,1,2324.6000003814697,257397.2999997139,9083,kind,AF,B,256589,256589,254763,255872,254764,257088,256389,256389,257088,26
27,test,1,con,1,m,Thu May 21 2026 13:48:23 GMT-0400 (Eastern Daylight Time),261855.2999997139,rock,1100,I,m,m,None,489,290.0,199.0,76,1,2124.8999996185303,259730.40000009537,9083,rock,AF,B,258922,258922,257096,258205,257097,259221,258722,258722,259221,27
28,test,1,inc,1,z,Thu May 21 2026 13:48:23 GMT-0400 (Eastern Daylight Time),263821.90000009537,jacket,800,I,z,z,None,624,425.0,199.0,61,1,1957.8000001907349,261864.09999990463,9083,temper,AF,B,260755,260755,259230,260039,259231,261188,260555,260555,261188,28
29,test,1,con,1,m,Thu May 21 2026 13:48:23 GMT-0400 (Eastern Daylight Time),266038.59999990463,step,900,I,m,m,None,781,582.0,199.0,66,1,2207.9000000953674,263830.69999980927,9083,step,AF,B,262822,262822,261197,262105,261197,263405,262622,262622,263405,29
30,test,1,con,1,m,Thu May 21 2026 13:48:23 GMT-0400 (Eastern Daylight Time),268221.90000009537,remote,1000,I,m,m,None,641,441.0,200.0,115,1,2174.5,266047.40000009537,9083,remote,AF,B,265139,265139,263413,264422,263414,265588,264938,264938,265588,30
31,test,1,inc,1,z,Thu May 21 2026 13:48:23 GMT-0400 (Eastern Daylight Time),270388.5,bell,1000,I,z,z,None,617,418.0,199.0,47,1,2157.0999999046326,268231.40000009537,9083,hate,AF,B,267322,267322,265597,266605,265598,267755,267122,267122,267754,31
32,test,1,inc,1,m,Thu May 21 2026 13:48:23 GMT-0400 (Eastern Daylight Time),272438.5,brutal,900,I,m,m,None,614,415.0,199.0,102,1,2039.5,270399.0,9083,jacket,AF,B,269389,269389,267765,268672,267765,269805,269188,269189,269804,32
33,test,1,inc,1,m,Thu May 21 2026 13:48:23 GMT-0400 (Eastern Daylight Time),274705.2999997139,love,1000,I,m,m,None,721,521.0,200.0,87,1,2257.2999997138977,272448.0,9083,bell,AF,B,271539,271539,269814,270822,269814,272071,271338,271338,272071,33
34,test,1,inc,1,m,Thu May 21 2026 13:48:23 GMT-0400 (Eastern Daylight Time),277038.59999990463,hate,1100,I,m,m,None,690,490.0,200.0,96,1,2325.0,274713.59999990463,9083,film,AF,B,273905,273906,272080,273188,272080,274405,273705,273705,274405,34
35,test,1,inc,1,m,Thu May 21 2026 13:48:23 GMT-0400 (Eastern Daylight Time),279354.7999997139,kind,900,I,m,m,None,875,676.0,199.0,78,1,2307.3999996185303,277047.40000009537,9083,rock,AF,B,276039,276039,274413,275322,274414,276721,275839,275839,276721,35
36,test,1,inc,1,z,Thu May 21 2026 13:48:23 GMT-0400 (Eastern Daylight Time),281688.2999997139,bell,1000,I,z,z,None,797,597.0,200.0,15,1,2327.699999809265,279360.59999990463,9083,kind,AF,B,278455,278455,276727,277738,276727,279054,278255,278255,279054,36
37,test,1,inc,1,z,Thu May 21 2026 13:48:23 GMT-0400 (Eastern Daylight Time),283888.59999990463,rock,900,I,z,z,None,755,555.0,200.0,14,1,2189.5999999046326,281699.0,9083,kind,AF,B,280689,280689,279065,279972,279065,281255,280488,280488,281255,37
38,test,1,inc,1,m,Thu May 21 2026 13:48:23 GMT-0400 (Eastern Daylight Time),286454.7999997139,rage,800,I,m,m,None,1230,1031.0,199.0,77,1,2557.5999999046326,283897.19999980927,9083,rock,AF,B,282788,282789,281263,282072,281264,283821,282589,282589,283821,38
39,test,1,con,1,z,Thu May 21 2026 13:48:23 GMT-0400 (Eastern Daylight Time),288705.2999997139,brutal,900,I,z,z,None,805,605.0,200.0,34,1,2241.7999997138977,286463.5,9083,brutal,AF,B,285455,285455,283830,284739,283830,286071,285255,285255,286071,39
40,test,1,inc,1,z,Thu May 21 2026 13:48:23 GMT-0400 (Eastern Daylight Time),291005.19999980927,remote,1000,I,z,z,None,759,559.0,200.0,39,1,2290.9000000953674,288714.2999997139,9083,brutal,AF,B,287805,287805,286080,287088,286081,288371,287605,287605,288371,40
41,test,1,con,1,m,Thu May 21 2026 13:48:23 GMT-0400 (Eastern Daylight Time),292888.2999997139,step,800,I,m,m,None,547,347.0,200.0,65,1,1871.6999998092651,291016.59999990463,9083,step,AF,B,289905,289905,288383,289188,288383,290254,289705,289705,290254,41
42,test,1,con,1,m,Thu May 21 2026 13:48:23 GMT-0400 (Eastern Daylight Time),294771.7999997139,napkin,800,I,m,m,None,535,335.0,200.0,105,1,1872.6999998092651,292899.09999990463,9083,napkin,AF,B,291789,291789,290265,291072,290266,292138,291588,291588,292138,42
42,test,1,inc,0,m,Thu May 21 2026 13:48:23 GMT-0400 (Eastern Daylight Time),297071.7999997139,temper,1000,I,z,z,None,755,556.0,199.0,119,1,2290.7999997138977,294781.0,9083,remote,AF,B,293872,293872,292147,293155,292147,294438,293672,293672,294438,43
43,test,1,con,1,z,Thu May 21 2026 13:48:23 GMT-0400 (Eastern Daylight Time),299455.2999997139,hate,1100,I,z,z,None,739,540.0,199.0,44,1,2374.5999999046326,297080.69999980927,9083,hate,AF,B,296272,296272,294447,295555,294447,296821,296072,296072,296821,44
44,test,1,inc,1,z,Thu May 21 2026 13:48:23 GMT-0400 (Eastern Daylight Time),301788.5,window,1100,I,z,z,None,692,492.0,200.0,32,1,2321.5,299467.0,9083,friend,AF,B,298655,298656,296833,297938,296833,299155,298455,298455,299155,45
45,test,1,inc,1,z,Thu May 21 2026 13:48:23 GMT-0400 (Eastern Daylight Time),303771.90000009537,step,800,I,z,z,None,642,443.0,199.0,21,1,1974.2000002861023,301797.69999980927,9083,love,AF,B,300689,300689,299164,299972,299164,301138,300489,300489,301138,46
46,test,1,inc,1,m,Thu May 21 2026 13:48:23 GMT-0400 (Eastern Daylight Time),306271.90000009537,friend,1100,I,m,m,None,855,656.0,199.0,104,1,2489.300000190735,303782.59999990463,9083,jacket,AF,B,302972,302972,301149,302255,301149,303638,302772,302772,303638,47
47,test,1,con,1,m,Thu May 21 2026 13:48:23 GMT-0400 (Eastern Daylight Time),308421.90000009537,jacket,1000,I,m,m,None,599,400.0,199.0,99,1,2139.5,306282.40000009537,9083,jacket,AF,B,305372,305372,303648,304655,303649,305788,305172,305172,305788,48
48,test,1,con,1,z,Thu May 21 2026 13:48:23 GMT-0400 (Eastern Daylight Time),310605.09999990463,elated,800,I,z,z,None,841,642.0,199.0,1,1,2174.5999999046326,308430.5,9083,elated,AF,B,307322,307322,305797,306605,305797,307971,307122,307122,307971,49
49,test,1,con,1,z,Thu May 21 2026 13:48:23 GMT-0400 (Eastern Daylight Time),312772.0,rage,1100,I,z,z,None,519,319.0,200.0,52,1,2158.5,310613.5,9083,rage,AF,B,309805,309805,307980,309089,307980,310138,309605,309605,310138,50
50,test,1,con,1,m,Thu May 21 2026 13:48:23 GMT-0400 (Eastern Daylight Time),315088.5,step,1100,I,m,m,None,671,472.0,199.0,68,1,2305.7000002861023,312782.7999997139,9083,step,AF,B,311972,311972,310149,311255,310149,312455,311772,311772,312455,51
51,test,1,inc,1,z,Thu May 21 2026 13:48:23 GMT-0400 (Eastern Daylight Time),317488.59999990463,window,1100,I,z,z,None,755,555.0,200.0,8,1,2389.0999999046326,315099.5,9083,elated,AF,B,314289,314289,312466,313572,312466,314855,314088,314088,314855,52
52,test,1,con,1,z,Thu May 21 2026 13:48:23 GMT-0400 (Eastern Daylight Time),320188.69999980927,temper,800,I,z,z,None,1359,1159.0,200.0,57,1,2691.0,317497.69999980927,9083,temper,AF,B,316388,316389,314864,315672,314864,317555,316188,316188,317555,53
53,test,1,inc,1,z,Thu May 21 2026 13:48:23 GMT-0400 (Eastern Daylight Time),322572.0,remote,1000,I,z,z,None,842,643.0,199.0,7,1,2373.5999999046326,320198.40000009537,9083,elated,AF,B,319289,319289,317564,318572,317565,319938,319089,319089,319938,54
54,test,1,con,1,m,Thu May 21 2026 13:48:23 GMT-0400 (Eastern Daylight Time),324771.90000009537,window,1100,I,m,m,None,551,352.0,199.0,124,1,2190.2000002861023,322581.69999980927,9083,window,AF,B,321772,321772,319948,321055,319948,322138,321572,321572,322138,55
55,test,1,con,1,m,Thu May 21 2026 13:48:23 GMT-0400 (Eastern Daylight Time),326805.2999997139,bell,900,I,m,m,None,583,384.0,199.0,82,1,2024.3999996185303,324780.90000009537,9083,bell,AF,B,323772,323772,322147,323055,322147,324171,323572,323572,324171,56
56,test,1,con,1,z,Thu May 21 2026 13:48:23 GMT-0400 (Eastern Daylight Time),329038.59999990463,kind,1000,I,z,z,None,691,491.0,200.0,11,1,2225.0,326813.59999990463,9083,kind,AF,B,325905,325905,324180,325188,324180,326405,325705,325705,326405,57
57,test,1,inc,1,m,Thu May 21 2026 13:48:23 GMT-0400 (Eastern Daylight Time),330988.7999997139,rage,800,I,m,m,None,608,409.0,199.0,93,1,1937.7999997138977,329051.0,9083,film,AF,B,327939,327939,326417,327222,326417,328355,327738,327739,328355,58
58,test,1,inc,1,z,Thu May 21 2026 13:48:23 GMT-0400 (Eastern Daylight Time),333155.2999997139,rock,900,I,z,z,None,719,520.0,199.0,46,1,2157.5,330997.7999997139,9083,hate,AF,B,329988,329988,328364,329272,328364,330521,329789,329789,330521,59
59,test,1,inc,1,z,Thu May 21 2026 13:48:23 GMT-0400 (Eastern Daylight Time),335871.90000009537,rock,900,I,z,z,None,1273,1073.0,200.0,22,1,2707.300000190735,333164.59999990463,9083,love,AF,B,332155,332155,330531,331439,330531,333238,331955,331955,333238,60
60,test,1,con,1,m,Thu May 21 2026 13:48:23 GMT-0400 (Eastern Daylight Time),337888.69999980927,window,900,I,m,m,None,571,372.0,199.0,122,1,2007.7999997138977,335880.90000009537,9083,window,AF,B,334872,334872,333247,334155,333247,335255,334672,334672,335255,61
61,test,1,con,1,z,Thu May 21 2026 13:48:23 GMT-0400 (Eastern Daylight Time),340388.59999990463,elated,1000,I,z,z,None,951,751.0,200.0,3,1,2488.800000190735,337899.7999997139,9083,elated,AF,B,336989,336989,335266,336272,335266,337755,336788,336788,337755,62
62,test,1,inc,1,m,Thu May 21 2026 13:48:23 GMT-0400 (Eastern Daylight Time),342655.2999997139,friend,1100,I,m,m,None,623,423.0,200.0,120,1,2258.0999999046326,340397.19999980927,9083,remote,AF,B,339588,339589,337763,338872,337764,340021,339388,339388,340021,63
63,test,1,inc,1,m,Thu May 21 2026 13:48:23 GMT-0400 (Eastern Daylight Time),344788.69999980927,kind,900,I,m,m,None,685,485.0,200.0,70,1,2122.2999997138977,342666.40000009537,9083,step,AF,B,341655,341655,340032,340938,340033,342155,341455,341455,342155,64
64,test,1,con,1,m,Thu May 21 2026 13:48:23 GMT-0400 (Eastern Daylight Time),347021.7999997139,film,1000,I,m,m,None,690,491.0,199.0,91,1,2224.5,344797.2999997139,9083,film,AF,B,343889,343889,342163,343172,342164,344388,343689,343689,344388,65
65,test,1,inc,1,z,Thu May 21 2026 13:48:23 GMT-0400 (Eastern Daylight Time),349238.69999980927,napkin,900,I,z,z,None,765,566.0,199.0,30,1,2207.5,347031.19999980927,9083,friend,AF,B,346022,346022,344397,345305,344398,346605,345822,345822,346605,66
66,test,1,inc,1,m,Thu May 21 2026 13:48:23 GMT-0400 (Eastern Daylight Time),351755.2999997139,love,1000,I,m,m,None,976,777.0,199.0,79,1,2506.199999809265,349249.09999990463,9083,rock,AF,B,348339,348339,346615,347622,346616,349121,348138,348139,349121,67
67,test,1,con,1,z,Thu May 21 2026 13:48:23 GMT-0400 (Eastern Daylight Time),353638.69999980927,hate,800,I,z,z,None,549,349.0,200.0,41,1,1874.7999997138977,351763.90000009537,9083,hate,AF,B,350655,350655,349130,349938,349130,351005,350455,350455,351005,68
68,test,1,inc,1,z,Thu May 21 2026 13:48:23 GMT-0400 (Eastern Daylight Time),355888.7999997139,remote,1000,I,z,z,None,704,505.0,199.0,31,1,2240.699999809265,353648.09999990463,9083,friend,AF,B,352738,352739,351014,352022,351015,353255,352539,352539,353255,69
69,test,1,inc,1,m,Thu May 21 2026 13:48:23 GMT-0400 (Eastern Daylight Time),357788.69999980927,elated,800,I,m,m,None,558,359.0,199.0,101,1,1891.5,355897.19999980927,9083,jacket,AF,B,354789,354789,353263,354072,353264,355155,354589,354589,355155,70
70,test,1,inc,1,m,Thu May 21 2026 13:48:23 GMT-0400 (Eastern Daylight Time),360005.2999997139,love,1000,I,m,m,None,667,467.0,200.0,95,1,2207.7999997138977,357797.5,9083,film,AF,B,356889,356889,355164,356172,355164,357371,356688,356688,357371,71
71,test,1,inc,1,m,Thu May 21 2026 13:48:23 GMT-0400 (Eastern Daylight Time),361988.69999980927,rage,800,I,m,m,None,635,435.0,200.0,69,1,1973.0999999046326,360015.59999990463,9083,step,AF,B,358905,358905,357382,358188,357382,359355,358705,358705,359355,72
72,test,1,inc,1,m,Thu May 21 2026 13:48:23 GMT-0400 (Eastern Daylight Time),363988.69999980927,elated,800,I,m,m,None,635,435.0,200.0,117,1,1984.5999999046326,362004.09999990463,9083,remote,AF,B,360905,360905,359370,360189,359371,361355,360705,360705,361355,73
73,test,1,inc,1,m,Thu May 21 2026 13:48:23 GMT-0400 (Eastern Daylight Time),366238.59999990463,hate,1100,I,m,m,None,606,407.0,199.0,72,1,2241.5,363997.09999990463,9083,step,AF,B,363189,363189,361363,362472,361364,363605,362988,362989,363605,74
74,test,1,con,1,z,Thu May 21 2026 13:48:23 GMT-0400 (Eastern Daylight Time),368438.59999990463,brutal,1100,I,z,z,None,549,350.0,199.0,36,1,2191.5,366247.09999990463,9083,brutal,AF,B,365439,365439,363613,364722,363613,365805,365238,365239,365805,75
75,test,1,inc,1,z,Thu May 21 2026 13:48:23 GMT-0400 (Eastern Daylight Time),370488.40000009537,napkin,900,I,z,z,None,612,413.0,199.0,62,1,2042.0,368446.40000009537,9083,temper,AF,B,367439,367439,365812,366722,365813,367854,367239,367239,367854,76
76,test,1,inc,1,m,Thu May 21 2026 13:48:23 GMT-0400 (Eastern Daylight Time),372572.0,temper,1000,I,m,m,None,542,343.0,199.0,111,1,2072.2000002861023,370499.7999997139,9083,napkin,AF,B,369589,369589,367866,368872,367866,369938,369388,369389,369938,77
77,test,1,con,1,m,Thu May 21 2026 13:48:23 GMT-0400 (Eastern Daylight Time),374938.69999980927,remote,1100,I,m,m,None,727,528.0,199.0,116,1,2357.5999999046326,372581.09999990463,9083,remote,AF,B,371772,371772,369947,371055,369947,372305,371572,371572,372305,78
78,test,1,con,1,m,Thu May 21 2026 13:48:23 GMT-0400 (Eastern Daylight Time),376905.2999997139,film,800,I,m,m,None,628,429.0,199.0,89,1,1957.5999999046326,374947.69999980927,9083,film,AF,B,373839,373839,372314,373122,372314,374271,373639,373639,374271,79
79,test,1,con,1,z,Thu May 21 2026 13:48:23 GMT-0400 (Eastern Daylight Time),379038.59999990463,temper,1100,I,z,z,None,491,291.0,200.0,60,1,2125.0,376913.59999990463,9083,temper,AF,B,376105,376105,374280,375389,374280,376405,375905,375905,376405,80
80,test,1,con,1,z,Thu May 21 2026 13:48:23 GMT-0400 (Eastern Daylight Time),380922.0,love,1000,I,z,z,None,345,145.0,200.0,19,1,1872.5999999046326,379049.40000009537,9083,love,AF,B,378139,378139,376415,377422,376416,378288,377938,377938,378288,81
81,test,1,inc,1,z,Thu May 21 2026 13:48:23 GMT-0400 (Eastern Daylight Time),382988.59999990463,napkin,900,I,z,z,None,625,426.0,199.0,6,1,2056.5,380932.09999990463,9083,elated,AF,B,379922,379922,378298,379205,378299,380355,379722,379722,380355,82
82,test,1,inc,1,m,Thu May 21 2026 13:48:23 GMT-0400 (Eastern Daylight Time),385038.59999990463,elated,800,I,m,m,None,706,507.0,199.0,109,1,2038.0,383000.59999990463,9083,napkin,AF,B,381889,381889,380367,381172,380367,382405,381688,381689,382405,83
83,test,1,inc,1,m,Thu May 21 2026 13:48:23 GMT-0400 (Eastern Daylight Time),387171.7999997139,kind,900,I,m,m,None,684,485.0,199.0,94,1,2123.8999996185303,385047.90000009537,9083,film,AF,B,384039,384039,382414,383322,382414,384538,383839,383839,384538,84
84,test,1,con,1,m,Thu May 21 2026 13:48:23 GMT-0400 (Eastern Daylight Time),389355.2999997139,remote,900,I,m,m,None,743,544.0,199.0,114,1,2174.2999997138977,387181.0,9083,remote,AF,B,386172,386172,384547,385455,384547,386721,385972,385972,386721,85
85,test,1,inc,1,m,Thu May 21 2026 13:48:23 GMT-0400 (Eastern Daylight Time),391588.59999990463,friend,1100,I,m,m,None,585,385.0,200.0,112,1,2225.0999999046326,389363.5,9083,napkin,AF,B,388555,388555,386730,387839,386730,388955,388355,388355,388955,86
86,test,1,con,1,z,Thu May 21 2026 13:48:23 GMT-0400 (Eastern Daylight Time),393638.90000009537,friend,900,I,z,z,None,614,415.0,199.0,26,1,2040.1000003814697,391598.7999997139,9083,friend,AF,B,390589,390589,388965,389872,388965,391005,390389,390389,391005,87
87,test,1,inc,1,z,Thu May 21 2026 13:48:23 GMT-0400 (Eastern Daylight Time),395888.69999980927,jacket,800,I,z,z,None,904,705.0,199.0,37,1,2241.4000000953674,393647.2999997139,9083,brutal,AF,B,392539,392539,391013,391822,391014,393255,392339,392339,393255,88
88,test,1,con,1,m,Thu May 21 2026 13:48:23 GMT-0400 (Eastern Daylight Time),398205.2999997139,jacket,1100,I,m,m,None,674,475.0,199.0,100,1,2307.5,395897.7999997139,9083,jacket,AF,B,395089,395089,393264,394372,393264,395572,394889,394889,395571,89
89,test,1,con,1,m,Thu May 21 2026 13:48:23 GMT-0400 (Eastern Daylight Time),400038.7999997139,jacket,800,I,m,m,None,499,299.0,200.0,97,1,1824.0,398214.7999997139,9083,jacket,AF,B,397105,397105,395581,396389,395581,397405,396905,396905,397405,90
90,test,1,inc,1,z,Thu May 21 2026 13:48:23 GMT-0400 (Eastern Daylight Time),401955.2999997139,jacket,800,I,z,z,None,568,369.0,199.0,5,1,1907.0999999046326,400048.19999980927,9083,elated,AF,B,398939,398939,397414,398222,397415,399321,398739,398739,399321,91
91,test,1,inc,1,m,Thu May 21 2026 13:48:23 GMT-0400 (Eastern Daylight Time),404405.19999980927,temper,1000,I,m,m,None,901,701.0,200.0,127,1,2440.9000000953674,401964.2999997139,9083,window,AF,B,401055,401055,399330,400338,399331,401771,400855,400855,401771,92
92,test,1,inc,1,m,Thu May 21 2026 13:48:23 GMT-0400 (Eastern Daylight Time),407005.2999997139,brutal,900,I,m,m,None,1159,959.0,200.0,110,1,2591.2999997138977,404414.0,9083,napkin,AF,B,403405,403405,401780,402689,401780,404371,403205,403205,404371,93
93,test,1,inc,1,m,Thu May 21 2026 13:48:23 GMT-0400 (Eastern Daylight Time),409255.09999990463,hate,1100,I,m,m,None,614,414.0,200.0,80,1,2241.4000000953674,407013.69999980927,9083,rock,AF,B,406206,406206,404380,405489,404380,406621,406005,406005,406621,94
94,test,1,inc,1,z,Thu May 21 2026 13:48:23 GMT-0400 (Eastern Daylight Time),411338.69999980927,napkin,900,I,z,z,None,645,445.0,200.0,38,1,2075.699999809265,409263.0,9083,brutal,AF,B,408255,408255,406629,407538,406629,408705,408055,408055,408705,95
95,test,1,con,1,z,Thu May 21 2026 13:48:23 GMT-0400 (Eastern Daylight Time),413422.0,hate,900,I,z,z,None,640,441.0,199.0,42,1,2072.4000000953674,411349.59999990463,9083,hate,AF,B,410339,410339,408716,409622,408716,410788,410139,410139,410788,96
96,test,1,con,1,z,Thu May 21 2026 13:48:23 GMT-0400 (Eastern Daylight Time),415605.40000009537,friend,1000,I,z,z,None,633,434.0,199.0,27,1,2175.1000003814697,413430.2999997139,9083,friend,AF,B,412522,412522,410796,411805,410797,412971,412322,412322,412971,97
97,test,1,inc,1,z,Thu May 21 2026 13:48:23 GMT-0400 (Eastern Daylight Time),417621.90000009537,step,800,I,z,z,None,667,467.0,200.0,53,1,2005.9000000953674,415616.0,9083,rage,AF,B,414505,414505,412982,413789,412982,414988,414305,414305,414988,98
98,test,1,con,1,m,Thu May 21 2026 13:48:23 GMT-0400 (Eastern Daylight Time),419705.2999997139,film,900,I,m,m,None,644,445.0,199.0,90,1,2075.0999999046326,417630.19999980927,9083,film,AF,B,416623,416623,414996,415905,414997,417071,416422,416422,417071,99
99,test,1,con,1,m,Thu May 21 2026 13:48:23 GMT-0400 (Eastern Daylight Time),421905.19999980927,napkin,1100,I,m,m,None,555,355.0,200.0,108,1,2191.5,419713.69999980927,9083,napkin,AF,B,418905,418905,417080,418188,417080,419271,418705,418705,419271,100
100,test,1,inc,1,m,Thu May 21 2026 13:48:23 GMT-0400 (Eastern Daylight Time),423955.40000009537,rage,800,I,m,m,None,703,503.0,200.0,85,1,2038.5,421916.90000009537,9083,bell,AF,B,420805,420805,419283,420089,419283,421321,420605,420605,421321,101
101,test,1,inc,1,z,Thu May 21 2026 13:48:23 GMT-0400 (Eastern Daylight Time),426238.69999980927,film,1100,I,z,z,None,641,441.0,200.0,24,1,2272.7999997138977,423965.90000009537,9083,love,AF,B,423155,423155,421332,422438,421332,423605,422955,422955,423605,102
102,test,1,con,1,z,Thu May 21 2026 13:48:23 GMT-0400 (Eastern Daylight Time),428655.2999997139,elated,1100,I,z,z,None,772,573.0,199.0,4,1,2408.0,426247.2999997139,9083,elated,AF,B,425438,425439,423613,424722,423614,426021,425238,425239,426021,103
103,test,1,con,1,z,Thu May 21 2026 13:48:23 GMT-0400 (Eastern Daylight Time),430655.40000009537,hate,1000,I,z,z,None,457,257.0,200.0,43,1,1991.4000000953674,428664.0,9083,hate,AF,B,427755,427755,426030,427038,426030,428021,427555,427555,428021,104
104,test,1,inc,1,m,Thu May 21 2026 13:48:23 GMT-0400 (Eastern Daylight Time),432655.40000009537,kind,900,I,m,m,None,557,357.0,200.0,86,1,1991.1000003814697,430664.2999997139,9083,bell,AF,B,429655,429655,428030,428939,428031,430021,429455,429455,430021,105
105,test,1,inc,1,z,Thu May 21 2026 13:48:23 GMT-0400 (Eastern Daylight Time),434822.0,rock,900,I,z,z,None,716,516.0,200.0,54,1,2157.2000002861023,432664.7999997139,9083,rage,AF,B,431655,431656,430031,430939,430031,432188,431455,431455,432188,106
106,test,1,con,1,m,Thu May 21 2026 13:48:23 GMT-0400 (Eastern Daylight Time),437055.40000009537,rock,1000,I,m,m,None,689,490.0,199.0,75,1,2222.300000190735,434833.09999990463,9083,rock,AF,B,433922,433922,432199,433205,432200,434422,433722,433722,434421,107
107,test,1,inc,1,m,Thu May 21 2026 13:48:23 GMT-0400 (Eastern Daylight Time),439205.40000009537,elated,800,I,m,m,None,801,601.0,200.0,125,1,2141.2000002861023,437064.19999980927,9083,window,AF,B,435955,435955,434430,435238,434431,436571,435755,435755,436571,108
108,test,1,con,1,z,Thu May 21 2026 13:48:23 GMT-0400 (Eastern Daylight Time),441322.09999990463,brutal,1000,I,z,z,None,579,379.0,200.0,35,1,2108.0,439214.09999990463,9083,brutal,AF,B,438305,438305,436580,437589,436581,438688,438105,438105,438688,109
109,test,1,inc,1,z,Thu May 21 2026 13:48:23 GMT-0400 (Eastern Daylight Time),443538.69999980927,jacket,800,I,z,z,None,869,670.0,199.0,29,1,2207.0999999046326,441331.59999990463,9083,friend,AF,B,440222,440222,438698,439505,438698,440905,440022,440022,440905,110
110,test,1,con,1,m,Thu May 21 2026 13:48:23 GMT-0400 (Eastern Daylight Time),445905.40000009537,window,1000,I,m,m,None,820,621.0,199.0,123,1,2357.7000002861023,443547.69999980927,9083,window,AF,B,442639,442639,440914,441922,440914,443272,442439,442439,443271,111
111,test,1,inc,1,m,Thu May 21 2026 13:48:23 GMT-0400 (Eastern Daylight Time),448105.2999997139,brutal,900,I,m,m,None,763,563.0,200.0,126,1,2188.7999997138977,445916.5,9083,window,AF,B,444905,444905,443283,444188,443283,445471,444705,444705,445471,112
112,test,1,con,1,m,Thu May 21 2026 13:48:23 GMT-0400 (Eastern Daylight Time),450138.69999980927,bell,800,I,m,m,None,695,495.0,200.0,81,1,2024.4000000953674,448114.2999997139,9083,bell,AF,B,447005,447005,445480,446289,445481,447505,446805,446805,447505,113
113,test,1,con,1,z,Thu May 21 2026 13:48:23 GMT-0400 (Eastern Daylight Time),452438.7999997139,temper,1000,I,z,z,None,764,565.0,199.0,59,1,2288.8999996185303,450149.90000009537,9083,temper,AF,B,449239,449239,447516,448522,447516,449805,449039,449039,449805,114
114,test,1,con,1,z,Thu May 21 2026 13:48:23 GMT-0400 (Eastern Daylight Time),454588.69999980927,love,1100,I,z,z,None,508,309.0,199.0,20,1,2138.4000000953674,452450.2999997139,9083,love,AF,B,451639,451639,449816,450922,449817,451955,451439,451439,451955,115
115,test,1,inc,1,z,Thu May 21 2026 13:48:23 GMT-0400 (Eastern Daylight Time),456855.09999990463,window,1100,I,z,z,None,630,431.0,199.0,40,1,2257.699999809265,454597.40000009537,9083,brutal,AF,B,453789,453789,451963,453072,451964,454221,453589,453589,454221,116
116,test,1,con,1,m,Thu May 21 2026 13:48:23 GMT-0400 (Eastern Daylight Time),458905.2999997139,remote,800,I,m,m,None,713,513.0,200.0,113,1,2040.8999996185303,456864.40000009537,9083,remote,AF,B,455755,455755,454230,455039,454231,456271,455555,455555,456271,117
117,test,1,inc,1,z,Thu May 21 2026 13:48:23 GMT-0400 (Eastern Daylight Time),461072.09999990463,bell,1000,I,z,z,None,623,423.0,200.0,23,1,2156.699999809265,458915.40000009537,9083,love,AF,B,458005,458005,456281,457289,456282,458438,457805,457805,458438,118
118,test,1,con,1,z,Thu May 21 2026 13:48:23 GMT-0400 (Eastern Daylight Time),463005.40000009537,love,900,I,z,z,None,491,292.0,199.0,18,1,1924.9000000953674,461080.5,9083,love,AF,B,460072,460072,458446,459355,458447,460371,459872,459872,460371,119
119,test,1,con,1,z,Thu May 21 2026 13:48:23 GMT-0400 (Eastern Daylight Time),464855.40000009537,love,800,I,z,z,None,516,316.0,200.0,17,1,1841.3000001907349,463014.09999990463,9083,love,AF,B,461905,461905,460380,461189,460380,462221,461705,461705,462221,120
120,test,1,con,1,z,Thu May 21 2026 13:48:23 GMT-0400 (Eastern Daylight Time),467188.7999997139,brutal,800,I,z,z,None,985,785.0,200.0,33,1,2326.0,464862.7999997139,9083,brutal,AF,B,463755,463755,462229,463038,462229,464555,463555,463555,464555,121
121,test,1,con,1,m,Thu May 21 2026 13:48:23 GMT-0400 (Eastern Daylight Time),469288.40000009537,step,1000,I,m,m,None,562,363.0,199.0,67,1,2089.4000000953674,467199.0,9083,step,AF,B,466289,466289,464565,465572,464565,466655,466089,466089,466654,122
122,test,1,inc,1,z,Thu May 21 2026 13:48:23 GMT-0400 (Eastern Daylight Time),471571.90000009537,remote,1000,I,z,z,None,734,535.0,199.0,63,1,2273.1000003814697,469298.7999997139,9083,temper,AF,B,468389,468389,466665,467672,466665,468938,468189,468189,468938,123
123,test,1,inc,1,m,Thu May 21 2026 13:48:23 GMT-0400 (Eastern Daylight Time),473738.69999980927,love,1000,I,m,m,None,627,428.0,199.0,71,1,2158.2999997138977,471580.40000009537,9083,step,AF,B,470672,470672,468946,469955,468947,471105,470472,470472,471105,124
124,test,1,con,1,m,Thu May 21 2026 13:48:23 GMT-0400 (Eastern Daylight Time),475972.0,napkin,1000,I,m,m,None,685,485.0,200.0,107,1,2223.9000000953674,473748.09999990463,9083,napkin,AF,B,472839,472839,471114,472121,471115,473338,472638,472638,473338,125
125,test,1,con,1,z,Thu May 21 2026 13:48:23 GMT-0400 (Eastern Daylight Time),477822.0,friend,800,I,z,z,None,507,308.0,199.0,25,1,1841.5,475980.5,9083,friend,AF,B,474872,474872,473347,474155,473347,475188,474672,474672,475188,126
126,test,1,con,1,m,Thu May 21 2026 13:48:23 GMT-0400 (Eastern Daylight Time),479855.40000009537,window,800,I,m,m,None,689,490.0,199.0,121,1,2024.2000002861023,477831.19999980927,9083,window,AF,B,476722,476722,475197,476005,475197,477221,476522,476522,477221,127
127,test,1,inc,1,m,Thu May 21 2026 13:48:23 GMT-0400 (Eastern Daylight Time),482205.40000009537,friend,1100,I,m,m,None,709,509.0,200.0,128,1,2341.4000000953674,479864.0,9083,window,AF,B,479055,479055,477230,478338,477230,479571,478855,478855,479571,128
