acc_sum,block,block_c,condition,correct,correct_response,datetime,endtime,flanker,jitter,project,response,response_test_buffer_response,response_test_target_response,response_time,response_time_test_buffer_response,response_time_test_target_response,row_sel,session_number,start_end,starttime,subject_id,target,task,task_vers,time_test_buffer,time_test_buffer_response,time_test_constants,time_test_flanker,time_test_jitter,time_test_logger,time_test_target,time_test_target_response,time_test_variables,trial
1,prac,1,con,1,z,Tue Dec 09 2025 09:46:44 GMT-0500 (Eastern Standard Time),135739.90000009537,elated,800,I,z,,,552,,,9,1,2657.0999999046326,133082.80000019073,9045,elated,AF,A,,,,,,,,,,1
2,prac,1,con,1,z,Tue Dec 09 2025 09:46:44 GMT-0500 (Eastern Standard Time),138589.59999990463,rage,1000,I,z,,,535,,,15,1,2837.7999997138977,135751.80000019073,9045,rage,AF,A,,,,,,,,,,2
3,prac,1,inc,1,m,Tue Dec 09 2025 09:46:44 GMT-0500 (Eastern Standard Time),141672.40000009537,hate,1100,I,m,,,674,,,4,1,3071.800000190735,138600.59999990463,9045,film,AF,A,,,,,,,,,,3
4,prac,1,inc,1,z,Tue Dec 09 2025 09:46:44 GMT-0500 (Eastern Standard Time),144722.90000009537,film,900,I,z,,,845,,,14,1,3038.0,141684.90000009537,9045,hate,AF,A,,,,,,,,,,4
4,prac,1,con,0,m,Tue Dec 09 2025 09:46:44 GMT-0500 (Eastern Standard Time),147622.90000009537,bell,1000,I,z,,,591,,,3,1,2885.0999999046326,144737.80000019073,9045,bell,AF,A,,,,,,,,,,5
5,prac,1,con,1,m,Tue Dec 09 2025 09:46:44 GMT-0500 (Eastern Standard Time),150389.59999990463,jacket,800,I,m,,,659,,,5,1,2757.8999996185303,147631.7000002861,9045,jacket,AF,A,,,,,,,,,,6
6,prac,1,inc,1,m,Tue Dec 09 2025 09:46:44 GMT-0500 (Eastern Standard Time),153423.09999990463,kind,900,I,m,,,817,,,2,1,3023.3999996185303,150399.7000002861,9045,rock,AF,A,,,,,,,,,,7
7,prac,1,inc,1,z,Tue Dec 09 2025 09:46:44 GMT-0500 (Eastern Standard Time),156356.2000002861,rock,900,I,z,,,727,,,10,1,2921.800000190735,153434.40000009537,9045,kind,AF,A,,,,,,,,,,8
8,prac,1,inc,1,z,Tue Dec 09 2025 09:46:44 GMT-0500 (Eastern Standard Time),159756.40000009537,window,1100,I,z,,,986,,,16,1,3390.0,156366.40000009537,9045,temper,AF,A,,,,,,,,,,9
9,prac,1,inc,1,m,Tue Dec 09 2025 09:46:44 GMT-0500 (Eastern Standard Time),162656.2000002861,elated,900,I,m,,,682,,,6,1,2887.4000000953674,159768.80000019073,9045,napkin,AF,A,,,,,,,,,,10
9,prac,1,con,0,z,Tue Dec 09 2025 09:46:44 GMT-0500 (Eastern Standard Time),165606.2000002861,brutal,800,I,m,,,842,,,13,1,2938.6000003814697,162667.59999990463,9045,brutal,AF,A,,,,,,,,,,11
10,prac,1,con,1,z,Tue Dec 09 2025 09:46:44 GMT-0500 (Eastern Standard Time),168489.59999990463,love,1000,I,z,,,572,,,11,1,2873.5999999046326,165616.0,9045,love,AF,A,,,,,,,,,,12
11,prac,1,inc,1,z,Tue Dec 09 2025 09:46:44 GMT-0500 (Eastern Standard Time),171539.5,napkin,1100,I,z,,,646,,,12,1,3041.699999809265,168497.80000019073,9045,friend,AF,A,,,,,,,,,,13
12,prac,1,inc,1,m,Tue Dec 09 2025 09:46:44 GMT-0500 (Eastern Standard Time),174689.40000009537,brutal,1100,I,m,,,747,,,8,1,3140.800000190735,171548.59999990463,9045,window,AF,A,,,,,,,,,,14
13,prac,1,con,1,m,Tue Dec 09 2025 09:46:44 GMT-0500 (Eastern Standard Time),177689.5,remote,1000,I,m,,,690,,,7,1,2987.0,174702.5,9045,remote,AF,A,,,,,,,,,,15
14,prac,1,con,1,m,Tue Dec 09 2025 09:46:44 GMT-0500 (Eastern Standard Time),180372.90000009537,step,800,I,m,,,577,,,1,1,2674.5999999046326,177698.30000019073,9045,step,AF,A,,,,,,,,,,16
1,test,1,inc,1,m,Tue Dec 09 2025 09:46:44 GMT-0500 (Eastern Standard Time),201889.80000019073,hate,1100,I,m,m,None,698,499.0,199.0,72,1,2325.9000000953674,199563.90000009537,9045,step,AF,A,191686,191686,189860,190969,189860,192186,191486,191486,192186,1
2,test,1,con,1,m,Tue Dec 09 2025 09:46:44 GMT-0500 (Eastern Standard Time),204022.80000019073,jacket,1100,I,m,m,None,494,294.0,200.0,100,1,2124.800000190735,201898.0,9045,jacket,AF,A,194019,194019,192194,193302,192194,194319,193819,193819,194319,2
3,test,1,con,1,m,Tue Dec 09 2025 09:46:44 GMT-0500 (Eastern Standard Time),206289.40000009537,bell,1000,I,m,m,None,715,516.0,199.0,83,1,2255.800000190735,204033.59999990463,9045,bell,AF,A,196053,196053,194330,195336,194330,196585,195853,195853,196585,3
4,test,1,inc,1,z,Tue Dec 09 2025 09:46:44 GMT-0500 (Eastern Standard Time),208289.40000009537,step,800,I,z,z,None,649,449.0,200.0,13,1,1990.0999999046326,206299.30000019073,9045,kind,AF,A,198120,198120,196595,197403,196596,198586,197919,197919,198585,4
5,test,1,con,1,z,Tue Dec 09 2025 09:46:44 GMT-0500 (Eastern Standard Time),210472.7000002861,love,1100,I,z,z,None,542,342.0,200.0,20,1,2170.0,208302.7000002861,9045,love,AF,A,200419,200419,198599,199703,198599,200769,200219,200219,200769,5
6,test,1,inc,1,m,Tue Dec 09 2025 09:46:44 GMT-0500 (Eastern Standard Time),212522.80000019073,brutal,900,I,m,m,None,605,406.0,199.0,126,1,2038.8000001907349,210484.0,9045,window,AF,A,202403,202403,200780,201686,200780,202819,202203,202203,202819,6
6,test,1,inc,0,m,Tue Dec 09 2025 09:46:44 GMT-0500 (Eastern Standard Time),214806.2000002861,hate,1100,I,z,z,None,643,444.0,199.0,88,1,2271.800000190735,212534.40000009537,9045,bell,AF,A,204653,204653,202830,203936,202831,205102,204453,204453,205102,7
7,test,1,con,1,z,Tue Dec 09 2025 09:46:44 GMT-0500 (Eastern Standard Time),216756.09999990463,rage,800,I,z,z,None,612,413.0,199.0,49,1,1940.3999996185303,214815.7000002861,9045,rage,AF,A,206636,206636,205112,205919,205112,207052,206436,206436,207052,8
8,test,1,inc,1,z,Tue Dec 09 2025 09:46:44 GMT-0500 (Eastern Standard Time),218989.40000009537,rock,900,I,z,z,None,786,587.0,199.0,54,1,2223.199999809265,216766.2000002861,9045,rage,AF,A,208686,208686,207062,207969,207063,209286,208486,208486,209285,9
9,test,1,con,1,m,Tue Dec 09 2025 09:46:44 GMT-0500 (Eastern Standard Time),220922.59999990463,bell,800,I,m,m,None,590,390.0,200.0,81,1,1923.6999998092651,218998.90000009537,9045,bell,AF,A,210819,210819,209295,210103,209295,211219,210619,210619,211219,10
10,test,1,con,1,z,Tue Dec 09 2025 09:46:44 GMT-0500 (Eastern Standard Time),223089.5,hate,1000,I,z,z,None,615,416.0,199.0,43,1,2157.7999997138977,220931.7000002861,9045,hate,AF,A,212952,212953,211228,212236,211228,213386,212753,212753,213385,11
11,test,1,con,1,z,Tue Dec 09 2025 09:46:44 GMT-0500 (Eastern Standard Time),224972.7000002861,kind,800,I,z,z,None,538,338.0,200.0,9,1,1873.5,223099.2000002861,9045,kind,AF,A,214919,214919,213395,214202,213396,215269,214719,214719,215269,12
12,test,1,inc,1,m,Tue Dec 09 2025 09:46:44 GMT-0500 (Eastern Standard Time),227089.2000002861,love,1000,I,m,m,None,566,366.0,200.0,95,1,2107.1000003814697,224982.09999990463,9045,film,AF,A,217002,217003,215278,216286,215278,217385,216802,216802,217385,13
13,test,1,con,1,m,Tue Dec 09 2025 09:46:44 GMT-0500 (Eastern Standard Time),229089.40000009537,napkin,800,I,m,m,None,665,466.0,199.0,105,1,1990.3000001907349,227099.09999990463,9045,napkin,AF,A,218919,218919,217395,218202,217396,219385,218719,218719,219385,14
14,test,1,inc,1,z,Tue Dec 09 2025 09:46:44 GMT-0500 (Eastern Standard Time),231389.30000019073,window,1100,I,z,z,None,654,454.0,200.0,40,1,2289.9000000953674,229099.40000009537,9045,brutal,AF,A,221219,221219,219395,220503,219396,221685,221019,221019,221685,15
15,test,1,inc,1,z,Tue Dec 09 2025 09:46:44 GMT-0500 (Eastern Standard Time),233639.40000009537,window,1100,I,z,z,None,609,409.0,200.0,64,1,2240.5999999046326,231398.80000019073,9045,temper,AF,A,223519,223520,221695,222803,221695,223936,223319,223319,223935,16
16,test,1,inc,1,z,Tue Dec 09 2025 09:46:44 GMT-0500 (Eastern Standard Time),235722.59999990463,bell,1000,I,z,z,None,539,339.0,200.0,47,1,2073.5999999046326,233649.0,9045,hate,AF,A,225670,225670,223945,224952,223945,226019,225469,225469,226019,17
17,test,1,inc,1,z,Tue Dec 09 2025 09:46:44 GMT-0500 (Eastern Standard Time),237789.40000009537,step,800,I,z,z,None,720,520.0,200.0,21,1,2057.800000190735,235731.59999990463,9045,love,AF,A,227552,227553,226028,226836,226028,228085,227352,227352,228085,18
17,test,1,con,0,z,Tue Dec 09 2025 09:46:44 GMT-0500 (Eastern Standard Time),239672.80000019073,brutal,800,I,m,m,None,542,342.0,200.0,33,1,1874.0999999046326,237798.7000002861,9045,brutal,AF,A,229619,229619,228095,228903,228095,229969,229419,229419,229969,19
18,test,1,inc,1,z,Tue Dec 09 2025 09:46:44 GMT-0500 (Eastern Standard Time),241806.09999990463,napkin,900,I,z,z,None,686,486.0,200.0,30,1,2123.699999809265,239682.40000009537,9045,friend,AF,A,231603,231603,229978,230886,229979,232102,231402,231402,232102,20
19,test,1,con,1,z,Tue Dec 09 2025 09:46:44 GMT-0500 (Eastern Standard Time),243939.09999990463,brutal,1000,I,z,z,None,596,397.0,199.0,35,1,2123.199999809265,241815.90000009537,9045,brutal,AF,A,233836,233836,232112,233119,232112,234235,233636,233636,234235,21
20,test,1,con,1,m,Tue Dec 09 2025 09:46:44 GMT-0500 (Eastern Standard Time),246072.7000002861,rock,1100,I,m,m,None,492,292.0,200.0,76,1,2122.6000003814697,243950.09999990463,9045,rock,AF,A,236069,236069,234246,235352,234247,236369,235869,235869,236369,22
20,test,1,con,0,z,Tue Dec 09 2025 09:46:44 GMT-0500 (Eastern Standard Time),248272.7000002861,brutal,1100,I,m,m,None,549,350.0,199.0,36,1,2190.9000000953674,246081.80000019073,9045,brutal,AF,A,238202,238203,236378,237486,236378,238569,238002,238003,238569,23
21,test,1,inc,1,m,Tue Dec 09 2025 09:46:44 GMT-0500 (Eastern Standard Time),250422.7000002861,brutal,900,I,m,m,None,709,510.0,199.0,102,1,2138.6000003814697,248284.09999990463,9045,jacket,AF,A,240203,240203,238580,239486,238581,240719,240002,240003,240719,24
22,test,1,con,1,m,Tue Dec 09 2025 09:46:44 GMT-0500 (Eastern Standard Time),252622.7000002861,napkin,900,I,m,m,None,752,552.0,200.0,106,1,2191.2000002861023,250431.5,9045,napkin,AF,A,242352,242353,240728,241636,240728,242919,242152,242152,242919,25
23,test,1,inc,1,z,Tue Dec 09 2025 09:46:44 GMT-0500 (Eastern Standard Time),254822.7000002861,bell,1000,I,z,z,None,659,460.0,199.0,55,1,2190.1000003814697,252632.59999990463,9045,rage,AF,A,244653,244653,242929,243936,242929,245119,244452,244453,245119,26
24,test,1,inc,1,m,Tue Dec 09 2025 09:46:44 GMT-0500 (Eastern Standard Time),256906.0,kind,900,I,m,m,None,639,440.0,199.0,78,1,2074.199999809265,254831.80000019073,9045,rock,AF,A,246753,246753,245128,246036,245128,247202,246553,246553,247202,27
25,test,1,con,1,z,Tue Dec 09 2025 09:46:44 GMT-0500 (Eastern Standard Time),259189.40000009537,kind,1000,I,z,z,None,744,545.0,199.0,11,1,2274.5,256914.90000009537,9045,kind,AF,A,248936,248936,247211,248219,247211,249486,248736,248736,249485,28
26,test,1,inc,1,m,Tue Dec 09 2025 09:46:44 GMT-0500 (Eastern Standard Time),261589.5,friend,1100,I,m,m,None,761,561.0,200.0,112,1,2390.7999997138977,259198.7000002861,9045,napkin,AF,A,251319,251319,249495,250602,249495,251886,251119,251119,251885,29
27,test,1,inc,1,z,Tue Dec 09 2025 09:46:44 GMT-0500 (Eastern Standard Time),263856.09999990463,rock,900,I,z,z,None,818,618.0,200.0,14,1,2257.5,261598.59999990463,9045,kind,AF,A,253519,253519,251895,252802,251895,254152,253319,253319,254152,30
28,test,1,inc,1,m,Tue Dec 09 2025 09:46:44 GMT-0500 (Eastern Standard Time),266572.7000002861,temper,1000,I,m,m,None,1171,971.0,200.0,103,1,2706.0,263866.7000002861,9045,jacket,AF,A,255886,255886,254163,255169,254163,256869,255685,255685,256869,31
29,test,1,con,1,z,Tue Dec 09 2025 09:46:44 GMT-0500 (Eastern Standard Time),268789.30000019073,love,1000,I,z,z,None,679,479.0,200.0,19,1,2204.9000000953674,266584.40000009537,9045,love,AF,A,258602,258602,256880,257886,256881,259085,258402,258402,259085,32
30,test,1,inc,1,z,Tue Dec 09 2025 09:46:44 GMT-0500 (Eastern Standard Time),271955.90000009537,window,1100,I,z,z,None,1530,1330.0,200.0,32,1,3155.800000190735,268800.09999990463,9045,friend,AF,A,260919,260919,259096,260202,259096,262252,260719,260719,262252,33
31,test,1,con,1,m,Tue Dec 09 2025 09:46:44 GMT-0500 (Eastern Standard Time),274106.0,window,1000,I,m,m,None,606,407.0,199.0,123,1,2140.699999809265,271965.30000019073,9045,window,AF,A,263986,263986,262261,263269,262262,264402,263786,263786,264402,34
32,test,1,inc,1,m,Tue Dec 09 2025 09:46:44 GMT-0500 (Eastern Standard Time),276456.09999990463,friend,1100,I,m,m,None,708,509.0,199.0,120,1,2339.5,274116.59999990463,9045,remote,AF,A,266236,266236,264413,265519,264413,266752,266036,266036,266752,35
33,test,1,inc,1,z,Tue Dec 09 2025 09:46:44 GMT-0500 (Eastern Standard Time),278622.7000002861,step,800,I,z,z,None,818,619.0,199.0,45,1,2157.5,276465.2000002861,9045,hate,AF,A,268286,268286,266761,267569,266762,268919,268086,268086,268919,36
34,test,1,inc,1,z,Tue Dec 09 2025 09:46:44 GMT-0500 (Eastern Standard Time),280806.09999990463,remote,1000,I,z,z,None,643,444.0,199.0,7,1,2173.699999809265,278632.40000009537,9045,elated,AF,A,270653,270653,268928,269936,268929,271102,270452,270453,271102,37
35,test,1,con,1,z,Tue Dec 09 2025 09:46:44 GMT-0500 (Eastern Standard Time),282889.30000019073,love,900,I,z,z,None,640,441.0,199.0,18,1,2069.4000000953674,280819.90000009537,9045,love,AF,A,272736,272736,271116,272019,271116,273185,272536,272536,273185,38
36,test,1,con,1,m,Tue Dec 09 2025 09:46:44 GMT-0500 (Eastern Standard Time),285072.7000002861,remote,900,I,m,m,None,733,534.0,199.0,114,1,2171.300000190735,282901.40000009537,9045,remote,AF,A,274819,274819,273197,274102,273198,275369,274619,274619,275369,39
37,test,1,con,1,z,Tue Dec 09 2025 09:46:44 GMT-0500 (Eastern Standard Time),287389.30000019073,rage,1100,I,z,z,None,670,470.0,200.0,52,1,2308.0,285081.30000019073,9045,rage,AF,A,277203,277203,275377,276486,275378,277685,277002,277002,277685,40
38,test,1,inc,1,m,Tue Dec 09 2025 09:46:44 GMT-0500 (Eastern Standard Time),289505.59999990463,temper,1000,I,m,m,None,581,382.0,199.0,111,1,2107.5999999046326,287398.0,9045,napkin,AF,A,279419,279419,277694,278702,277694,279802,279219,279219,279802,41
39,test,1,con,1,m,Tue Dec 09 2025 09:46:44 GMT-0500 (Eastern Standard Time),291689.2000002861,rock,900,I,m,m,None,741,542.0,199.0,74,1,2175.300000190735,289513.90000009537,9045,rock,AF,A,281435,281435,279810,280719,279810,281985,281236,281236,281985,42
40,test,1,inc,1,z,Tue Dec 09 2025 09:46:44 GMT-0500 (Eastern Standard Time),293789.2000002861,remote,1000,I,z,z,None,553,354.0,199.0,31,1,2089.0,291700.2000002861,9045,friend,AF,A,283719,283719,281996,283002,281997,284085,283519,283519,284085,43
41,test,1,con,1,z,Tue Dec 09 2025 09:46:44 GMT-0500 (Eastern Standard Time),295722.59999990463,hate,800,I,z,z,None,590,390.0,200.0,41,1,1922.1999998092651,293800.40000009537,9045,hate,AF,A,285619,285619,284096,284902,284097,286019,285419,285419,286019,44
42,test,1,con,1,m,Tue Dec 09 2025 09:46:44 GMT-0500 (Eastern Standard Time),297889.2000002861,bell,900,I,m,m,None,733,533.0,200.0,82,1,2157.800000190735,295731.40000009537,9045,bell,AF,A,287652,287652,286027,286936,286028,288185,287452,287452,288185,45
43,test,1,inc,1,m,Tue Dec 09 2025 09:46:44 GMT-0500 (Eastern Standard Time),300289.2000002861,love,1000,I,m,m,None,850,651.0,199.0,79,1,2388.9000000953674,297900.30000019073,9045,rock,AF,A,289918,289918,288196,289202,288197,290585,289719,289719,290585,46
44,test,1,con,1,m,Tue Dec 09 2025 09:46:44 GMT-0500 (Eastern Standard Time),302538.59999990463,window,900,I,m,m,None,805,605.0,200.0,122,1,2238.5999999046326,300300.0,9045,window,AF,A,292219,292219,290596,291502,290596,292835,292018,292018,292835,47
45,test,1,con,1,z,Tue Dec 09 2025 09:46:44 GMT-0500 (Eastern Standard Time),304705.7000002861,kind,900,I,z,z,None,732,532.0,200.0,10,1,2161.7000002861023,302544.0,9045,kind,AF,A,294469,294469,292840,293752,292841,295002,294269,294269,295002,48
46,test,1,inc,1,z,Tue Dec 09 2025 09:46:44 GMT-0500 (Eastern Standard Time),307056.0,film,1100,I,z,z,None,700,501.0,199.0,24,1,2341.4000000953674,304714.59999990463,9045,love,AF,A,296836,296836,295011,296119,295011,297352,296636,296636,297352,49
47,test,1,inc,1,m,Tue Dec 09 2025 09:46:44 GMT-0500 (Eastern Standard Time),309239.30000019073,brutal,900,I,m,m,None,742,543.0,199.0,118,1,2172.7000002861023,307066.59999990463,9045,remote,AF,A,298986,298986,297363,298269,297363,299535,298786,298786,299535,50
48,test,1,inc,1,m,Tue Dec 09 2025 09:46:44 GMT-0500 (Eastern Standard Time),311339.30000019073,kind,900,I,m,m,None,656,456.0,200.0,94,1,2091.4000000953674,309247.90000009537,9045,film,AF,A,301169,301169,299544,300452,299544,301635,300969,300969,301635,51
49,test,1,inc,1,m,Tue Dec 09 2025 09:46:44 GMT-0500 (Eastern Standard Time),313272.59999990463,elated,800,I,m,m,None,591,392.0,199.0,101,1,1924.1999998092651,311348.40000009537,9045,jacket,AF,A,303169,303169,301644,302452,301645,303569,302969,302969,303569,52
50,test,1,con,1,z,Tue Dec 09 2025 09:46:44 GMT-0500 (Eastern Standard Time),315289.30000019073,friend,800,I,z,z,None,675,475.0,200.0,25,1,2003.4000000953674,313285.90000009537,9045,friend,AF,A,305102,305102,303582,304385,303582,305585,304902,304902,305585,53
51,test,1,inc,1,z,Tue Dec 09 2025 09:46:44 GMT-0500 (Eastern Standard Time),317472.7000002861,napkin,900,I,z,z,None,734,534.0,200.0,6,1,2172.300000190735,315300.40000009537,9045,elated,AF,A,307219,307219,305596,306502,305597,307769,307019,307019,307769,54
52,test,1,con,1,m,Tue Dec 09 2025 09:46:44 GMT-0500 (Eastern Standard Time),319789.30000019073,step,1000,I,m,m,None,771,571.0,200.0,67,1,2306.800000190735,317482.5,9045,step,AF,A,309502,309502,307779,308786,307779,310085,309302,309302,310085,55
53,test,1,inc,1,m,Tue Dec 09 2025 09:46:44 GMT-0500 (Eastern Standard Time),322155.90000009537,hate,1100,I,m,m,None,722,522.0,200.0,96,1,2357.4000000953674,319798.5,9045,film,AF,A,311919,311919,310095,311202,310095,312452,311719,311719,312452,56
54,test,1,inc,1,z,Tue Dec 09 2025 09:46:44 GMT-0500 (Eastern Standard Time),324289.30000019073,rock,900,I,z,z,None,682,483.0,199.0,46,1,2122.0,322167.30000019073,9045,hate,AF,A,314086,314086,312463,313369,312464,314585,313886,313886,314585,57
55,test,1,inc,1,z,Tue Dec 09 2025 09:46:44 GMT-0500 (Eastern Standard Time),326289.09999990463,rock,900,I,z,z,None,549,350.0,199.0,22,1,1989.5999999046326,324299.5,9045,love,AF,A,316219,316219,314596,315502,314596,316585,316019,316019,316585,58
56,test,1,con,1,m,Tue Dec 09 2025 09:46:44 GMT-0500 (Eastern Standard Time),328272.59999990463,step,800,I,m,m,None,634,434.0,200.0,65,1,1974.5,326298.09999990463,9045,step,AF,A,318119,318119,316594,317402,316594,318569,317919,317919,318569,59
57,test,1,inc,1,m,Tue Dec 09 2025 09:46:44 GMT-0500 (Eastern Standard Time),330555.90000009537,temper,1000,I,m,m,None,739,539.0,200.0,127,1,2272.199999809265,328283.7000002861,9045,window,AF,A,320302,320302,318580,319586,318580,320852,320102,320102,320852,60
58,test,1,con,1,m,Tue Dec 09 2025 09:46:44 GMT-0500 (Eastern Standard Time),332722.30000019073,film,1000,I,m,m,None,631,432.0,199.0,91,1,2154.7000002861023,330567.59999990463,9045,film,AF,A,322585,322585,320864,321869,320864,323018,322386,322386,323018,61
59,test,1,inc,1,m,Tue Dec 09 2025 09:46:44 GMT-0500 (Eastern Standard Time),335022.5,love,1000,I,m,m,None,752,552.0,200.0,71,1,2288.199999809265,332734.30000019073,9045,step,AF,A,324752,324753,323030,324036,323031,325319,324552,324552,325319,62
60,test,1,inc,1,z,Tue Dec 09 2025 09:46:44 GMT-0500 (Eastern Standard Time),336922.59999990463,jacket,800,I,z,z,None,557,357.0,200.0,29,1,1890.8999996185303,335031.7000002861,9045,friend,AF,A,326852,326852,325328,326136,325328,327219,326652,326652,327219,63
61,test,1,con,1,m,Tue Dec 09 2025 09:46:44 GMT-0500 (Eastern Standard Time),339206.0,rock,1000,I,m,m,None,743,543.0,200.0,75,1,2273.199999809265,336932.80000019073,9045,rock,AF,A,328953,328953,327229,328236,327229,329502,328752,328752,329502,64
62,test,1,inc,1,z,Tue Dec 09 2025 09:46:44 GMT-0500 (Eastern Standard Time),341222.5,jacket,800,I,z,z,None,675,476.0,199.0,37,1,2008.5,339214.0,9045,brutal,AF,A,331036,331036,329510,330319,329510,331519,330836,330836,331519,65
63,test,1,con,1,z,Tue Dec 09 2025 09:46:44 GMT-0500 (Eastern Standard Time),343505.59999990463,rage,1000,I,z,z,None,748,548.0,200.0,51,1,2274.199999809265,341231.40000009537,9045,rage,AF,A,333252,333253,331527,332536,331528,333802,333052,333052,333802,66
64,test,1,con,1,z,Tue Dec 09 2025 09:46:44 GMT-0500 (Eastern Standard Time),345539.0,love,800,I,z,z,None,696,497.0,199.0,17,1,2024.5999999046326,343514.40000009537,9045,love,AF,A,335336,335336,333810,334619,333811,335835,335136,335136,335835,67
65,test,1,con,1,z,Tue Dec 09 2025 09:46:44 GMT-0500 (Eastern Standard Time),347672.5,friend,1000,I,z,z,None,592,392.0,200.0,27,1,2125.5,345547.0,9045,friend,AF,A,337569,337569,335843,336852,335843,337969,337369,337369,337969,68
66,test,1,inc,1,z,Tue Dec 09 2025 09:46:44 GMT-0500 (Eastern Standard Time),349972.5,film,1100,I,z,z,None,663,463.0,200.0,48,1,2289.0,347683.5,9045,hate,AF,A,339802,339802,337980,339086,337980,340269,339602,339602,340268,69
67,test,1,con,1,m,Tue Dec 09 2025 09:46:44 GMT-0500 (Eastern Standard Time),352139.2000002861,remote,1000,I,m,m,None,623,423.0,200.0,115,1,2157.9000000953674,349981.30000019073,9045,remote,AF,A,342002,342002,340277,341286,340278,342435,341802,341802,342435,70
68,test,1,con,1,m,Tue Dec 09 2025 09:46:44 GMT-0500 (Eastern Standard Time),354172.59999990463,rock,800,I,m,m,None,687,488.0,199.0,73,1,2024.1999998092651,352148.40000009537,9045,rock,AF,A,343969,343969,342444,343252,342445,344469,343769,343769,344469,71
69,test,1,inc,1,z,Tue Dec 09 2025 09:46:44 GMT-0500 (Eastern Standard Time),356255.90000009537,jacket,800,I,z,z,None,734,534.0,200.0,5,1,2073.699999809265,354182.2000002861,9045,elated,AF,A,346002,346002,344478,345285,344479,346552,345802,345802,346552,72
70,test,1,con,1,z,Tue Dec 09 2025 09:46:44 GMT-0500 (Eastern Standard Time),358539.30000019073,friend,1100,I,z,z,None,637,438.0,199.0,28,1,2272.7000002861023,356266.59999990463,9045,friend,AF,A,348386,348386,346563,347669,346563,348835,348186,348186,348835,73
71,test,1,inc,1,m,Tue Dec 09 2025 09:46:44 GMT-0500 (Eastern Standard Time),360489.09999990463,rage,800,I,m,m,None,607,408.0,199.0,69,1,1939.5999999046326,358549.5,9045,step,AF,A,350369,350369,348846,349652,348846,350785,350169,350169,350785,74
72,test,1,con,1,z,Tue Dec 09 2025 09:46:44 GMT-0500 (Eastern Standard Time),362789.2000002861,brutal,900,I,z,z,None,861,661.0,200.0,34,1,2289.6000003814697,360499.59999990463,9045,brutal,AF,A,352419,352419,350796,351702,350796,353085,352219,352219,353085,75
73,test,1,inc,1,z,Tue Dec 09 2025 09:46:44 GMT-0500 (Eastern Standard Time),365139.0,window,1100,I,z,z,None,715,514.0,201.0,8,1,2338.7999997138977,362800.2000002861,9045,elated,AF,A,354919,354919,353096,354202,353097,355435,354718,354718,355435,76
74,test,1,con,1,z,Tue Dec 09 2025 09:46:44 GMT-0500 (Eastern Standard Time),367289.2000002861,rage,900,I,z,z,None,707,508.0,199.0,50,1,2140.4000000953674,365148.80000019073,9045,rage,AF,A,357069,357069,355445,356352,355445,357585,356869,356869,357585,77
75,test,1,inc,1,m,Tue Dec 09 2025 09:46:44 GMT-0500 (Eastern Standard Time),369389.30000019073,kind,900,I,m,m,None,654,454.0,200.0,86,1,2089.2000002861023,367300.09999990463,9045,bell,AF,A,359219,359219,357596,358502,357596,359685,359019,359019,359685,78
76,test,1,inc,1,z,Tue Dec 09 2025 09:46:44 GMT-0500 (Eastern Standard Time),371739.30000019073,remote,1000,I,z,z,None,805,606.0,199.0,63,1,2341.0,369398.30000019073,9045,temper,AF,A,361419,361419,359694,360702,359695,362035,361219,361219,362035,79
77,test,1,con,1,z,Tue Dec 09 2025 09:46:44 GMT-0500 (Eastern Standard Time),373888.80000019073,elated,900,I,z,z,None,700,500.0,200.0,2,1,2141.0,371747.80000019073,9045,elated,AF,A,363669,363669,362044,362952,362044,364185,363469,363469,364185,80
78,test,1,con,1,m,Tue Dec 09 2025 09:46:44 GMT-0500 (Eastern Standard Time),376222.5,step,1100,I,m,m,None,685,486.0,199.0,68,1,2327.699999809265,373894.80000019073,9045,step,AF,A,366019,366019,364191,365302,364191,366519,365819,365819,366519,81
79,test,1,inc,1,z,Tue Dec 09 2025 09:46:44 GMT-0500 (Eastern Standard Time),379005.90000009537,film,1100,I,z,z,None,1137,937.0,200.0,16,1,2773.0,376232.90000009537,9045,kind,AF,A,368352,368352,366529,367636,366529,369302,368152,368152,369302,82
80,test,1,inc,1,m,Tue Dec 09 2025 09:46:44 GMT-0500 (Eastern Standard Time),381355.90000009537,friend,1100,I,m,m,None,704,505.0,199.0,128,1,2340.699999809265,379015.2000002861,9045,window,AF,A,371136,371136,369311,370419,369312,371652,370936,370936,371652,83
81,test,1,inc,1,m,Tue Dec 09 2025 09:46:44 GMT-0500 (Eastern Standard Time),383489.30000019073,brutal,900,I,m,m,None,682,483.0,199.0,110,1,2122.0,381367.30000019073,9045,napkin,AF,A,373285,373286,371663,372569,371664,373785,373086,373086,373785,84
81,test,1,inc,0,z,Tue Dec 09 2025 09:46:44 GMT-0500 (Eastern Standard Time),385455.59999990463,jacket,800,I,m,m,None,616,417.0,199.0,61,1,1954.2999997138977,383501.30000019073,9045,temper,AF,A,375319,375319,373797,374602,373798,375752,375119,375119,375752,85
82,test,1,con,1,m,Tue Dec 09 2025 09:46:44 GMT-0500 (Eastern Standard Time),388205.80000019073,film,1100,I,m,m,None,1102,903.0,199.0,92,1,2745.5,385460.30000019073,9045,film,AF,A,377586,377586,375756,376869,375757,378502,377386,377386,378502,86
83,test,1,con,1,m,Tue Dec 09 2025 09:46:44 GMT-0500 (Eastern Standard Time),390622.40000009537,remote,1100,I,m,m,None,768,569.0,199.0,116,1,2407.5,388214.90000009537,9045,remote,AF,A,380336,380336,378511,379619,378511,380919,380136,380136,380918,87
84,test,1,con,1,z,Tue Dec 09 2025 09:46:44 GMT-0500 (Eastern Standard Time),392789.2000002861,hate,1100,I,z,z,None,528,328.0,200.0,44,1,2155.6000003814697,390633.59999990463,9045,hate,AF,A,382753,382753,380930,382036,380930,383085,382552,382552,383085,88
85,test,1,con,1,m,Tue Dec 09 2025 09:46:44 GMT-0500 (Eastern Standard Time),395005.80000019073,jacket,1000,I,m,m,None,670,470.0,200.0,99,1,2207.0,392798.80000019073,9045,jacket,AF,A,384819,384819,383095,384102,383095,385302,384619,384619,385302,89
86,test,1,con,1,z,Tue Dec 09 2025 09:46:44 GMT-0500 (Eastern Standard Time),397722.5,temper,1000,I,z,z,None,1172,973.0,199.0,59,1,2707.4000000953674,395015.09999990463,9045,temper,AF,A,387035,387036,385311,386319,385311,388019,386836,386836,388019,90
87,test,1,inc,1,m,Tue Dec 09 2025 09:46:44 GMT-0500 (Eastern Standard Time),399789.2000002861,rage,800,I,m,m,None,721,521.0,200.0,93,1,2058.0,397731.2000002861,9045,film,AF,A,389552,389552,388027,388836,388028,390085,389352,389352,390085,91
88,test,1,con,1,m,Tue Dec 09 2025 09:46:44 GMT-0500 (Eastern Standard Time),402255.90000009537,napkin,1100,I,m,m,None,816,617.0,199.0,108,1,2457.5,399798.40000009537,9045,napkin,AF,A,391919,391919,390094,391202,390095,392552,391719,391719,392552,92
89,test,1,inc,1,z,Tue Dec 09 2025 09:46:44 GMT-0500 (Eastern Standard Time),404239.2000002861,step,800,I,z,z,None,633,434.0,199.0,53,1,1974.8000001907349,402264.40000009537,9045,rage,AF,A,394086,394086,392560,393369,392561,394535,393886,393886,394535,93
90,test,1,con,1,m,Tue Dec 09 2025 09:46:44 GMT-0500 (Eastern Standard Time),406889.2000002861,bell,1100,I,m,m,None,1007,808.0,199.0,84,1,2641.2000002861023,404248.0,9045,bell,AF,A,396369,396369,394544,395652,394544,397185,396169,396169,397185,94
91,test,1,inc,1,m,Tue Dec 09 2025 09:46:44 GMT-0500 (Eastern Standard Time),408955.80000019073,elated,800,I,m,m,None,721,522.0,199.0,117,1,2057.9000000953674,406897.90000009537,9045,remote,AF,A,398719,398719,397194,398002,397194,399252,398519,398519,399252,95
92,test,1,inc,1,m,Tue Dec 09 2025 09:46:44 GMT-0500 (Eastern Standard Time),411489.09999990463,temper,1000,I,m,m,None,982,783.0,199.0,119,1,2524.3999996185303,408964.7000002861,9045,remote,AF,A,400986,400986,399261,400269,399261,401785,400785,400786,401785,96
93,test,1,con,1,m,Tue Dec 09 2025 09:46:44 GMT-0500 (Eastern Standard Time),413805.90000009537,window,1100,I,m,m,None,668,469.0,199.0,124,1,2306.699999809265,411499.2000002861,9045,window,AF,A,403619,403619,401795,402902,401796,404102,403419,403419,404102,97
94,test,1,inc,1,z,Tue Dec 09 2025 09:46:44 GMT-0500 (Eastern Standard Time),415889.2000002861,bell,1000,I,z,z,None,548,349.0,199.0,23,1,2073.2000002861023,413816.0,9045,love,AF,A,405836,405836,404112,405119,404112,406185,405636,405636,406185,98
95,test,1,con,1,m,Tue Dec 09 2025 09:46:44 GMT-0500 (Eastern Standard Time),418089.2000002861,film,900,I,m,m,None,756,557.0,199.0,90,1,2192.5,415896.7000002861,9045,film,AF,A,407820,407820,406193,407103,406193,408385,407619,407619,408385,99
96,test,1,inc,1,m,Tue Dec 09 2025 09:46:44 GMT-0500 (Eastern Standard Time),420172.40000009537,elated,800,I,m,m,None,737,538.0,199.0,109,1,2071.5999999046326,418100.80000019073,9045,napkin,AF,A,409919,409919,408397,409202,408397,410469,409719,409719,410468,100
97,test,1,inc,1,m,Tue Dec 09 2025 09:46:44 GMT-0500 (Eastern Standard Time),422272.5,kind,900,I,m,m,None,651,451.0,200.0,70,1,2085.199999809265,420187.30000019073,9045,step,AF,A,412102,412102,410483,411385,410484,412569,411902,411902,412569,101
98,test,1,con,1,m,Tue Dec 09 2025 09:46:44 GMT-0500 (Eastern Standard Time),424189.09999990463,jacket,800,I,m,m,None,571,371.0,200.0,97,1,1907.0,422282.09999990463,9045,jacket,AF,A,414102,414102,412578,413385,412578,414485,413902,413902,414485,102
99,test,1,inc,1,z,Tue Dec 09 2025 09:46:44 GMT-0500 (Eastern Standard Time),426472.40000009537,film,1100,I,z,z,None,641,442.0,199.0,56,1,2272.199999809265,424200.2000002861,9045,rage,AF,A,416319,416319,414496,415602,414497,416769,416119,416119,416768,103
100,test,1,inc,1,m,Tue Dec 09 2025 09:46:44 GMT-0500 (Eastern Standard Time),428489.09999990463,rage,800,I,m,m,None,675,475.0,200.0,77,1,2006.0,426483.09999990463,9045,rock,AF,A,418302,418302,416779,417585,416779,418785,418102,418102,418785,104
101,test,1,inc,1,m,Tue Dec 09 2025 09:46:44 GMT-0500 (Eastern Standard Time),430822.40000009537,friend,1100,I,m,m,None,692,493.0,199.0,104,1,2323.800000190735,428498.59999990463,9045,jacket,AF,A,420619,420619,418795,419902,418795,421118,420419,420419,421118,105
102,test,1,con,1,z,Tue Dec 09 2025 09:46:44 GMT-0500 (Eastern Standard Time),432939.09999990463,hate,900,I,z,z,None,673,473.0,200.0,42,1,2107.199999809265,430831.90000009537,9045,hate,AF,A,422752,422752,421128,422035,421128,423235,422552,422552,423235,106
103,test,1,con,1,z,Tue Dec 09 2025 09:46:44 GMT-0500 (Eastern Standard Time),434972.5,elated,800,I,z,z,None,687,488.0,199.0,1,1,2022.2999997138977,432950.2000002861,9045,elated,AF,A,424769,424769,423246,424052,423247,425269,424569,424569,425268,107
104,test,1,con,1,z,Tue Dec 09 2025 09:46:44 GMT-0500 (Eastern Standard Time),437405.80000019073,kind,1100,I,z,z,None,787,587.0,200.0,12,1,2425.300000190735,434980.5,9045,kind,AF,A,427102,427102,425277,426386,425277,427702,426902,426902,427702,108
105,test,1,con,1,z,Tue Dec 09 2025 09:46:44 GMT-0500 (Eastern Standard Time),439538.90000009537,elated,1000,I,z,z,None,596,397.0,199.0,3,1,2124.0,437414.90000009537,9045,elated,AF,A,429436,429436,427711,428719,427711,429835,429236,429236,429835,109
106,test,1,con,1,z,Tue Dec 09 2025 09:46:44 GMT-0500 (Eastern Standard Time),441539.0,temper,800,I,z,z,None,663,464.0,199.0,57,1,1989.2999997138977,439549.7000002861,9045,temper,AF,A,431369,431369,429846,430652,429846,431835,431169,431169,431835,110
106,test,1,inc,0,z,Tue Dec 09 2025 09:46:44 GMT-0500 (Eastern Standard Time),443489.0,bell,1000,I,m,m,None,400,200.0,200.0,15,1,1940.0,441549.0,9045,kind,AF,A,433569,433569,431845,432852,431845,433785,433368,433368,433785,111
107,test,1,con,1,m,Tue Dec 09 2025 09:46:44 GMT-0500 (Eastern Standard Time),445705.90000009537,napkin,1000,I,m,m,None,673,474.0,199.0,107,1,2207.4000000953674,443498.5,9045,napkin,AF,A,435519,435519,433795,434802,433795,436002,435319,435319,436002,112
108,test,1,con,1,m,Tue Dec 09 2025 09:46:44 GMT-0500 (Eastern Standard Time),447705.80000019073,jacket,900,I,m,m,None,557,357.0,200.0,98,1,1989.0,445716.80000019073,9045,jacket,AF,A,437636,437636,436013,436919,436013,438002,437435,437435,438002,113
109,test,1,con,1,m,Tue Dec 09 2025 09:46:44 GMT-0500 (Eastern Standard Time),449605.80000019073,step,900,I,m,m,None,461,261.0,200.0,66,1,1889.4000000953674,447716.40000009537,9045,step,AF,A,439635,439635,438012,438919,438013,439902,439435,439435,439902,114
110,test,1,con,1,z,Tue Dec 09 2025 09:46:44 GMT-0500 (Eastern Standard Time),451739.09999990463,friend,900,I,z,z,None,689,490.0,199.0,26,1,2122.7999997138977,449616.30000019073,9045,friend,AF,A,441535,441535,439912,440819,439913,442035,441336,441336,442035,115
111,test,1,inc,1,z,Tue Dec 09 2025 09:46:44 GMT-0500 (Eastern Standard Time),453938.7000002861,remote,1000,I,z,z,None,663,464.0,199.0,39,1,2190.300000190735,451748.40000009537,9045,brutal,AF,A,443769,443769,442044,443052,442045,444235,443569,443569,444235,116
112,test,1,inc,1,z,Tue Dec 09 2025 09:46:44 GMT-0500 (Eastern Standard Time),455905.40000009537,napkin,900,I,z,z,None,531,332.0,199.0,38,1,1957.4000000953674,453948.0,9045,brutal,AF,A,445869,445869,444244,445152,444244,446202,445669,445669,446201,117
113,test,1,con,1,m,Tue Dec 09 2025 09:46:44 GMT-0500 (Eastern Standard Time),457888.90000009537,remote,800,I,m,m,None,649,450.0,199.0,113,1,1974.8000001907349,455914.09999990463,9045,remote,AF,A,447735,447735,446210,447019,446210,448185,447536,447536,448185,118
114,test,1,inc,1,z,Tue Dec 09 2025 09:46:44 GMT-0500 (Eastern Standard Time),460105.80000019073,napkin,900,I,z,z,None,773,574.0,199.0,62,1,2207.9000000953674,457897.90000009537,9045,temper,AF,A,449819,449819,448194,449102,448194,450402,449619,449619,450402,119
115,test,1,con,1,z,Tue Dec 09 2025 09:46:44 GMT-0500 (Eastern Standard Time),462389.09999990463,temper,1100,I,z,z,None,644,444.0,200.0,60,1,2272.699999809265,460116.40000009537,9045,temper,AF,A,452236,452236,450412,451519,450413,452685,452035,452035,452685,120
116,test,1,inc,1,m,Tue Dec 09 2025 09:46:44 GMT-0500 (Eastern Standard Time),464922.40000009537,hate,1100,I,m,m,None,889,690.0,199.0,80,1,2522.699999809265,462399.7000002861,9045,rock,AF,A,454519,454519,452696,453802,452696,455219,454319,454319,455218,121
117,test,1,inc,1,m,Tue Dec 09 2025 09:46:44 GMT-0500 (Eastern Standard Time),466989.2000002861,rage,800,I,m,m,None,719,519.0,200.0,85,1,2057.4000000953674,464931.80000019073,9045,bell,AF,A,456752,456753,455228,456036,455228,457285,456552,456552,457285,122
117,test,1,con,0,m,Tue Dec 09 2025 09:46:44 GMT-0500 (Eastern Standard Time),468905.7000002861,film,800,I,z,z,None,572,373.0,199.0,89,1,1907.4000000953674,466998.30000019073,9045,film,AF,A,458819,458819,457294,458102,457295,459202,458619,458619,459202,123
118,test,1,con,1,z,Tue Dec 09 2025 09:46:44 GMT-0500 (Eastern Standard Time),471272.40000009537,elated,1100,I,z,z,None,725,525.0,200.0,4,1,2356.0999999046326,468916.30000019073,9045,elated,AF,A,461035,461036,459212,460319,459213,461569,460835,460835,461568,124
119,test,1,con,1,z,Tue Dec 09 2025 09:46:44 GMT-0500 (Eastern Standard Time),473138.90000009537,temper,900,I,z,z,None,431,231.0,200.0,58,1,1855.3000001907349,471283.59999990463,9045,temper,AF,A,463202,463202,461580,462485,461580,463435,463002,463002,463435,125
120,test,1,inc,1,m,Tue Dec 09 2025 09:46:44 GMT-0500 (Eastern Standard Time),475488.90000009537,love,1000,I,m,m,None,799,600.0,199.0,87,1,2340.4000000953674,473148.5,9045,bell,AF,A,465169,465169,463445,464452,463445,465785,464969,464969,465785,126
121,test,1,con,1,m,Tue Dec 09 2025 09:46:44 GMT-0500 (Eastern Standard Time),477538.80000019073,window,800,I,m,m,None,713,514.0,199.0,121,1,2039.0999999046326,475499.7000002861,9045,window,AF,A,467319,467319,465796,466602,465796,467835,467119,467119,467835,127
122,test,1,inc,1,m,Tue Dec 09 2025 09:46:44 GMT-0500 (Eastern Standard Time),479455.80000019073,elated,800,I,m,m,None,566,367.0,199.0,125,1,1905.9000000953674,477549.90000009537,9045,window,AF,A,469369,469369,467846,468652,467846,469752,469169,469169,469752,128
