acc_sum,block,block_c,condition,correct,correct_response,datetime,endtime,flanker,jitter,project,response,response_test_buffer_response,response_test_target_response,response_time,response_time_test_buffer_response,response_time_test_target_response,row_sel,session_number,start_end,starttime,subject_id,target,task,task_vers,time_test_buffer,time_test_buffer_response,time_test_constants,time_test_flanker,time_test_jitter,time_test_logger,time_test_target,time_test_target_response,time_test_variables,trial
0,prac,1,inc,0,z,Fri Aug 15 2025 09:34:44 GMT-0500 (Central Daylight Time),139501.10000002384,copper,900,I,m,,,1130,,,2,2,3327.400000035763,136173.69999998808,8036,cherry,NF,C,,,,,,,,,,1
0,prac,1,con,0,z,Fri Aug 15 2025 09:34:44 GMT-0500 (Central Daylight Time),144566.0,orange,1000,I,None,,,1799,,,3,2,5059.100000023842,139506.89999997616,8036,orange,NF,C,,,,,,,,,,2
1,prac,1,inc,1,m,Fri Aug 15 2025 09:34:44 GMT-0500 (Central Daylight Time),147615.0,cherry,900,I,m,,,838,,,10,2,3044.5,144570.5,8036,copper,NF,C,,,,,,,,,,3
1,prac,1,con,0,z,Fri Aug 15 2025 09:34:44 GMT-0500 (Central Daylight Time),150397.60000002384,lime,800,I,m,,,681,,,5,2,2778.0,147619.60000002384,8036,lime,NF,C,,,,,,,,,,4
1,prac,1,inc,0,m,Fri Aug 15 2025 09:34:44 GMT-0500 (Central Daylight Time),155562.5,plum,1100,I,None,,,1799,,,16,2,5159.600000023842,150402.89999997616,8036,lead,NF,C,,,,,,,,,,5
2,prac,1,inc,1,z,Fri Aug 15 2025 09:34:44 GMT-0500 (Central Daylight Time),159278.19999998808,lead,1100,I,z,,,1313,,,8,2,3709.399999976158,155568.80000001192,8036,plum,NF,C,,,,,,,,,,6
3,prac,1,con,1,z,Fri Aug 15 2025 09:34:44 GMT-0500 (Central Daylight Time),162277.19999998808,kiwi,1000,I,z,,,690,,,7,2,2994.599999964237,159282.60000002384,8036,kiwi,NF,C,,,,,,,,,,7
4,prac,1,con,1,m,Fri Aug 15 2025 09:34:44 GMT-0500 (Central Daylight Time),165376.30000001192,zinc,1000,I,m,,,713,,,15,2,3094.699999988079,162281.60000002384,8036,zinc,NF,C,,,,,,,,,,8
5,prac,1,inc,1,m,Fri Aug 15 2025 09:34:44 GMT-0500 (Central Daylight Time),168641.89999997616,pear,900,I,m,,,1052,,,14,2,3261.199999988079,165380.69999998808,8036,iron,NF,C,,,,,,,,,,9
6,prac,1,inc,1,z,Fri Aug 15 2025 09:34:44 GMT-0500 (Central Daylight Time),171607.60000002384,iron,900,I,z,,,762,,,6,2,2961.2000000476837,168646.39999997616,8036,pear,NF,C,,,,,,,,,,10
7,prac,1,con,1,m,Fri Aug 15 2025 09:34:44 GMT-0500 (Central Daylight Time),174439.89999997616,silver,1000,I,m,,,529,,,11,2,2827.099999964237,171612.80000001192,8036,silver,NF,C,,,,,,,,,,11
8,prac,1,con,1,z,Fri Aug 15 2025 09:34:44 GMT-0500 (Central Daylight Time),177372.30000001192,banana,800,I,z,,,824,,,1,2,2928.199999988079,174444.10000002384,8036,banana,NF,C,,,,,,,,,,12
9,prac,1,inc,1,m,Fri Aug 15 2025 09:34:44 GMT-0500 (Central Daylight Time),180538.10000002384,raisin,1100,I,m,,,760,,,12,2,3161.400000035763,177376.69999998808,8036,cobalt,NF,C,,,,,,,,,,13
10,prac,1,con,1,m,Fri Aug 15 2025 09:34:44 GMT-0500 (Central Daylight Time),183437.0,gold,800,I,m,,,790,,,13,2,2894.899999976158,180542.10000002384,8036,gold,NF,C,,,,,,,,,,14
11,prac,1,con,1,m,Fri Aug 15 2025 09:34:44 GMT-0500 (Central Daylight Time),186286.19999998808,bronze,800,I,m,,,738,,,9,2,2844.0,183442.19999998808,8036,bronze,NF,C,,,,,,,,,,15
12,prac,1,inc,1,z,Fri Aug 15 2025 09:34:44 GMT-0500 (Central Daylight Time),189718.5,cobalt,1100,I,z,,,930,,,4,2,3427.699999988079,186290.80000001192,8036,raisin,NF,C,,,,,,,,,,16
1,test,1,inc,1,z,Fri Aug 15 2025 09:34:44 GMT-0500 (Central Daylight Time),211295.0,cobalt,1100,I,z,z,None,923,723.0,200.0,24,2,2562.300000011921,208732.69999998808,8036,orange,NF,C,207155,207155,205326,206439,205326,207888,206955,206955,207888,1
2,test,1,con,1,m,Fri Aug 15 2025 09:34:44 GMT-0500 (Central Daylight Time),213477.80000001192,lead,800,I,m,m,None,834,634.0,200.0,121,2,2176.900000035763,211300.89999997616,8036,lead,NF,C,209421,209421,207894,208705,207894,210071,209221,209221,210071,2
3,test,1,con,1,m,Fri Aug 15 2025 09:34:44 GMT-0500 (Central Daylight Time),215877.0,iron,1100,I,m,m,None,758,559.0,199.0,108,2,2394.600000023842,213482.39999997616,8036,iron,NF,C,211904,211904,210075,211187,210076,212470,211704,211704,212470,3
4,test,1,con,1,z,Fri Aug 15 2025 09:34:44 GMT-0500 (Central Daylight Time),217626.30000001192,kiwi,800,I,z,z,None,411,211.0,200.0,49,2,1745.1000000238419,215881.19999998808,8036,kiwi,NF,C,214003,214003,212474,213287,212475,214219,213803,213803,214219,4
5,test,1,inc,1,z,Fri Aug 15 2025 09:34:44 GMT-0500 (Central Daylight Time),220092.30000001192,copper,900,I,z,z,None,1025,826.0,199.0,6,2,2462.100000023842,217630.19999998808,8036,banana,NF,C,215853,215853,214223,215136,214224,216685,215653,215653,216685,5
6,test,1,inc,1,m,Fri Aug 15 2025 09:34:44 GMT-0500 (Central Daylight Time),222391.5,orange,1000,I,m,m,None,756,556.0,200.0,71,2,2295.300000011921,220096.19999998808,8036,bronze,NF,C,218418,218418,216689,217702,216689,218985,218218,218218,218985,6
7,test,1,inc,1,z,Fri Aug 15 2025 09:34:44 GMT-0500 (Central Daylight Time),224607.5,silver,1000,I,z,z,None,680,481.0,199.0,31,2,2211.800000011921,222395.69999998808,8036,raisin,NF,C,220718,220718,218989,220001,218989,221201,220518,220518,221201,7
8,test,1,con,1,m,Fri Aug 15 2025 09:34:44 GMT-0500 (Central Daylight Time),226540.10000002384,copper,900,I,m,m,None,483,284.0,199.0,74,2,1928.6000000238419,224611.5,8036,copper,NF,C,222834,222834,221205,222117,221205,223133,222634,222634,223133,8
8,test,1,inc,0,m,Fri Aug 15 2025 09:34:44 GMT-0500 (Central Daylight Time),228622.80000001192,pear,900,I,z,z,None,648,448.0,200.0,118,2,2078.5,226544.30000001192,8036,zinc,NF,C,224766,224766,223137,224050,223138,225216,224566,224566,225216,9
9,test,1,con,1,m,Fri Aug 15 2025 09:34:44 GMT-0500 (Central Daylight Time),231088.80000001192,silver,1100,I,m,m,None,822,622.0,200.0,84,2,2462.100000023842,228626.69999998808,8036,silver,NF,C,227049,227049,225220,226332,225220,227682,226849,226849,227682,10
10,test,1,inc,1,z,Fri Aug 15 2025 09:34:44 GMT-0500 (Central Daylight Time),233321.39999997616,cobalt,1100,I,z,z,None,596,396.0,200.0,8,2,2227.5,231093.89999997616,8036,banana,NF,C,229515,229515,227687,228798,227687,229915,229315,229315,229914,11
11,test,1,con,1,z,Fri Aug 15 2025 09:34:44 GMT-0500 (Central Daylight Time),236104.0,cherry,800,I,z,z,None,1426,1213.0,213.0,9,2,2778.100000023842,233325.89999997616,8036,cherry,NF,C,231481,231481,229919,230731,229919,232697,231267,231267,232697,12
12,test,1,con,1,z,Fri Aug 15 2025 09:34:44 GMT-0500 (Central Daylight Time),238386.5,plum,1000,I,z,z,None,744,544.0,200.0,59,2,2273.800000011921,236112.69999998808,8036,plum,NF,C,234430,234430,232706,233713,232706,234980,234230,234230,234980,13
13,test,1,inc,1,m,Fri Aug 15 2025 09:34:44 GMT-0500 (Central Daylight Time),240369.19999998808,banana,800,I,m,m,None,636,437.0,199.0,85,2,1978.300000011921,238390.89999997616,8036,silver,NF,C,236513,236513,234984,235796,234984,236962,236313,236313,236962,14
14,test,1,inc,1,z,Fri Aug 15 2025 09:34:44 GMT-0500 (Central Daylight Time),242518.39999997616,copper,900,I,z,z,None,707,507.0,200.0,30,2,2145.0,240373.39999997616,8036,raisin,NF,C,238595,238595,236966,237879,236967,239112,238395,238395,239111,15
15,test,1,inc,1,m,Fri Aug 15 2025 09:34:44 GMT-0500 (Central Daylight Time),244734.60000002384,lime,800,I,m,m,None,872,673.0,199.0,125,2,2212.2000000476837,242522.39999997616,8036,lead,NF,C,240645,240645,239115,239928,239116,241328,240445,240445,241328,16
16,test,1,inc,1,z,Fri Aug 15 2025 09:34:44 GMT-0500 (Central Daylight Time),247100.60000002384,cobalt,1100,I,z,z,None,717,517.0,200.0,32,2,2361.2000000476837,244739.39999997616,8036,raisin,NF,C,243160,243161,241332,242444,241333,243694,242960,242960,243694,17
16,test,1,con,0,z,Fri Aug 15 2025 09:34:44 GMT-0500 (Central Daylight Time),249066.39999997616,banana,900,I,m,m,None,519,319.0,200.0,2,2,1961.2999999523163,247105.10000002384,8036,banana,NF,C,245327,245327,243698,244610,243698,245659,245126,245126,245659,18
17,test,1,inc,1,m,Fri Aug 15 2025 09:34:44 GMT-0500 (Central Daylight Time),251349.10000002384,cherry,900,I,m,m,None,841,642.0,199.0,86,2,2278.5,249070.60000002384,8036,silver,NF,C,247292,247292,245664,246576,245664,247942,247093,247093,247942,19
18,test,1,con,1,m,Fri Aug 15 2025 09:34:44 GMT-0500 (Central Daylight Time),253531.69999998808,bronze,900,I,m,m,None,735,535.0,200.0,66,2,2178.699999988079,251353.0,8036,bronze,NF,C,249575,249575,247946,248859,247946,250125,249375,249375,250125,20
19,test,1,con,1,z,Fri Aug 15 2025 09:34:44 GMT-0500 (Central Daylight Time),255864.30000001192,banana,1100,I,z,z,None,696,496.0,200.0,4,2,2328.5,253535.80000001192,8036,banana,NF,C,251958,251958,250129,251241,250129,252457,251758,251758,252457,21
20,test,1,con,1,z,Fri Aug 15 2025 09:34:44 GMT-0500 (Central Daylight Time),257780.5,banana,800,I,z,z,None,576,376.0,200.0,1,2,1910.300000011921,255870.19999998808,8036,banana,NF,C,253990,253990,252463,253274,252464,254374,253790,253790,254374,22
21,test,1,con,1,m,Fri Aug 15 2025 09:34:44 GMT-0500 (Central Daylight Time),259663.0,iron,800,I,m,m,None,539,339.0,200.0,105,2,1878.5,257784.5,8036,iron,NF,C,255907,255907,254378,255190,254378,256256,255706,255706,256256,23
22,test,1,inc,1,m,Fri Aug 15 2025 09:34:44 GMT-0500 (Central Daylight Time),261979.0,pear,900,I,m,m,None,869,669.0,200.0,110,2,2311.5,259667.5,8036,iron,NF,C,257889,257889,256260,257174,256261,258572,257689,257689,258572,24
23,test,1,inc,1,z,Fri Aug 15 2025 09:34:44 GMT-0500 (Central Daylight Time),264011.8000000119,gold,800,I,z,z,None,685,485.0,200.0,61,2,2028.699999988079,261983.10000002384,8036,plum,NF,C,260105,260105,258576,259389,258576,260605,259905,259905,260605,25
24,test,1,inc,1,z,Fri Aug 15 2025 09:34:44 GMT-0500 (Central Daylight Time),266061.0,bronze,800,I,z,z,None,700,500.0,200.0,29,2,2045.0,264016.0,8036,raisin,NF,C,262138,262138,260609,261421,260609,262654,261938,261938,262654,26
25,test,1,inc,1,m,Fri Aug 15 2025 09:34:44 GMT-0500 (Central Daylight Time),268260.5,cherry,900,I,m,m,None,750,551.0,199.0,70,2,2195.300000011921,266065.1999999881,8036,bronze,NF,C,264287,264287,262658,263571,262658,264854,264088,264088,264853,27
26,test,1,con,1,z,Fri Aug 15 2025 09:34:44 GMT-0500 (Central Daylight Time),270693.10000002384,cherry,900,I,z,z,None,982,783.0,199.0,10,2,2428.5,268264.60000002384,8036,cherry,NF,C,266487,266487,264858,265770,264858,267286,266286,266287,267286,28
27,test,1,inc,1,z,Fri Aug 15 2025 09:34:44 GMT-0500 (Central Daylight Time),273008.89999997616,zinc,1000,I,z,z,None,771,571.0,200.0,47,2,2311.7999999523163,270697.10000002384,8036,pear,NF,C,269019,269019,267290,268303,267290,269602,268819,268819,269602,29
28,test,1,con,1,m,Fri Aug 15 2025 09:34:44 GMT-0500 (Central Daylight Time),275175.0,zinc,900,I,m,m,None,732,532.0,200.0,114,2,2162.300000011921,273012.6999999881,8036,zinc,NF,C,271235,271235,269606,270519,269606,271768,271035,271035,271768,30
29,test,1,con,1,z,Fri Aug 15 2025 09:34:44 GMT-0500 (Central Daylight Time),277524.1999999881,pear,1000,I,z,z,None,801,601.0,200.0,43,2,2345.399999976158,275178.8000000119,8036,pear,NF,C,273501,273501,271772,272785,271772,274117,273301,273301,274117,31
30,test,1,con,1,m,Fri Aug 15 2025 09:34:44 GMT-0500 (Central Daylight Time),279790.10000002384,bronze,1000,I,m,m,None,723,523.0,200.0,67,2,2262.100000023842,277528.0,8036,bronze,NF,C,275851,275851,274121,275134,274121,276383,275650,275650,276383,32
31,test,1,inc,1,z,Fri Aug 15 2025 09:34:44 GMT-0500 (Central Daylight Time),281956.10000002384,iron,900,I,z,z,None,725,525.0,200.0,62,2,2162.2000000476837,279793.89999997616,8036,plum,NF,C,278017,278017,276387,277300,276387,278549,277816,277816,278549,33
32,test,1,inc,1,m,Fri Aug 15 2025 09:34:44 GMT-0500 (Central Daylight Time),284005.5,banana,800,I,m,m,None,700,500.0,200.0,93,2,2045.5,281960.0,8036,cobalt,NF,C,280082,280082,278553,279366,278553,280599,279882,279882,280598,34
33,test,1,inc,1,m,Fri Aug 15 2025 09:34:44 GMT-0500 (Central Daylight Time),286188.10000002384,orange,1000,I,m,m,None,642,442.0,200.0,95,2,2178.800000011921,284009.3000000119,8036,cobalt,NF,C,282332,282332,280602,281615,280603,282781,282132,282132,282781,35
34,test,1,inc,1,m,Fri Aug 15 2025 09:34:44 GMT-0500 (Central Daylight Time),288487.39999997616,pear,900,I,m,m,None,865,665.0,200.0,126,2,2295.099999964237,286192.3000000119,8036,lead,NF,C,284414,284414,282785,283698,282786,285080,284214,284214,285080,36
35,test,1,inc,1,m,Fri Aug 15 2025 09:34:44 GMT-0500 (Central Daylight Time),290769.89999997616,raisin,1100,I,m,m,None,635,436.0,199.0,96,2,2278.099999964237,288491.8000000119,8036,cobalt,NF,C,286913,286914,285085,286197,285085,287363,286714,286714,287363,37
36,test,1,con,1,m,Fri Aug 15 2025 09:34:44 GMT-0500 (Central Daylight Time),292936.0,zinc,1100,I,m,m,None,522,322.0,200.0,116,2,2162.100000023842,290773.89999997616,8036,zinc,NF,C,289196,289196,287367,288480,287367,289529,288996,288996,289529,38
37,test,1,inc,1,m,Fri Aug 15 2025 09:34:44 GMT-0500 (Central Daylight Time),295318.5,plum,1100,I,m,m,None,740,540.0,200.0,104,2,2378.800000011921,292939.6999999881,8036,gold,NF,C,291362,291362,289533,290646,289533,291912,291162,291162,291912,39
38,test,1,con,1,z,Fri Aug 15 2025 09:34:44 GMT-0500 (Central Daylight Time),297534.39999997616,lime,900,I,z,z,None,781,581.0,200.0,34,2,2211.7999999523163,295322.60000002384,8036,lime,NF,C,293545,293545,291916,292828,291916,294128,293344,293345,294127,40
39,test,1,inc,1,z,Fri Aug 15 2025 09:34:44 GMT-0500 (Central Daylight Time),299767.10000002384,lead,1100,I,z,z,None,588,389.0,199.0,48,2,2229.100000023842,297538.0,8036,pear,NF,C,295961,295961,294131,295244,294131,296360,295761,295761,296360,41
40,test,1,con,1,z,Fri Aug 15 2025 09:34:44 GMT-0500 (Central Daylight Time),301799.8000000119,pear,900,I,z,z,None,597,397.0,200.0,42,2,2028.699999988079,299771.10000002384,8036,pear,NF,C,297993,297993,296364,297277,296365,298393,297793,297793,298393,42
41,test,1,con,1,z,Fri Aug 15 2025 09:34:44 GMT-0500 (Central Daylight Time),303782.5,banana,1000,I,z,z,None,448,248.0,200.0,3,2,1979.1000000238419,301803.39999997616,8036,banana,NF,C,300126,300126,298396,299409,298397,300376,299926,299926,300376,43
42,test,1,inc,1,m,Fri Aug 15 2025 09:34:44 GMT-0500 (Central Daylight Time),305948.6999999881,kiwi,1000,I,m,m,None,624,417.0,207.0,103,2,2162.5,303786.1999999881,8036,gold,NF,C,302109,302109,300379,301392,300379,302542,301901,301901,302542,44
43,test,1,inc,1,m,Fri Aug 15 2025 09:34:44 GMT-0500 (Central Daylight Time),308047.8000000119,lime,800,I,m,m,None,764,564.0,200.0,109,2,2095.300000011921,305952.5,8036,iron,NF,C,304075,304075,302546,303358,302546,304641,303875,303875,304641,45
44,test,1,con,1,m,Fri Aug 15 2025 09:34:44 GMT-0500 (Central Daylight Time),309897.5,zinc,800,I,m,m,None,504,304.0,200.0,113,2,1846.0,308051.5,8036,zinc,NF,C,306174,306174,304645,305458,304645,306491,305974,305974,306490,46
45,test,1,inc,1,z,Fri Aug 15 2025 09:34:44 GMT-0500 (Central Daylight Time),312129.8000000119,zinc,1000,I,z,z,None,696,496.0,200.0,55,2,2228.0,309901.8000000119,8036,kiwi,NF,C,308223,308223,306495,307507,306495,308723,308023,308023,308723,47
46,test,1,con,1,m,Fri Aug 15 2025 09:34:44 GMT-0500 (Central Daylight Time),314179.3000000119,gold,800,I,m,m,None,702,502.0,200.0,97,2,2045.300000011921,312134.0,8036,gold,NF,C,310256,310256,308727,309540,308727,310772,310056,310056,310772,48
47,test,1,inc,1,z,Fri Aug 15 2025 09:34:44 GMT-0500 (Central Daylight Time),316245.3000000119,copper,900,I,z,z,None,623,424.0,199.0,14,2,2061.800000011921,314183.5,8036,cherry,NF,C,312405,312406,310777,311689,310777,312838,312206,312206,312838,49
48,test,1,con,1,z,Fri Aug 15 2025 09:34:44 GMT-0500 (Central Daylight Time),318077.89999997616,pear,800,I,z,z,None,500,300.0,200.0,41,2,1828.5999999642372,316249.3000000119,8036,pear,NF,C,314371,314371,312842,313655,312843,314671,314171,314171,314671,50
49,test,1,con,1,m,Fri Aug 15 2025 09:34:44 GMT-0500 (Central Daylight Time),319927.5,copper,800,I,m,m,None,514,314.0,200.0,73,2,1845.8999999761581,318081.60000002384,8036,copper,NF,C,316204,316204,314675,315488,314675,316521,316004,316004,316521,51
50,test,1,con,1,z,Fri Aug 15 2025 09:34:44 GMT-0500 (Central Daylight Time),322093.6999999881,kiwi,1100,I,z,z,None,532,332.0,200.0,52,2,2162.199999988079,319931.5,8036,kiwi,NF,C,318354,318354,316525,317637,316525,318687,318153,318153,318687,52
51,test,1,inc,1,z,Fri Aug 15 2025 09:34:44 GMT-0500 (Central Daylight Time),324092.8000000119,gold,800,I,z,z,None,658,458.0,200.0,37,2,1995.199999988079,322097.60000002384,8036,lime,NF,C,320221,320221,318691,319503,318691,320686,320020,320020,320686,53
52,test,1,con,1,m,Fri Aug 15 2025 09:34:44 GMT-0500 (Central Daylight Time),326325.39999997616,copper,1000,I,m,m,None,692,492.0,200.0,75,2,2228.699999988079,324096.6999999881,8036,copper,NF,C,322419,322419,320690,321703,320690,322918,322219,322219,322918,54
53,test,1,inc,1,m,Fri Aug 15 2025 09:34:44 GMT-0500 (Central Daylight Time),328408.10000002384,orange,1000,I,m,m,None,547,347.0,200.0,79,2,2078.800000011921,326329.3000000119,8036,copper,NF,C,324652,324652,322922,323935,322923,325001,324451,324451,325001,55
54,test,1,con,1,z,Fri Aug 15 2025 09:34:44 GMT-0500 (Central Daylight Time),330241.0,raisin,800,I,z,z,None,497,297.0,200.0,25,2,1829.0,328412.0,8036,raisin,NF,C,326534,326534,325005,325818,325005,326834,326334,326334,326834,56
55,test,1,inc,1,z,Fri Aug 15 2025 09:34:44 GMT-0500 (Central Daylight Time),332240.5,iron,900,I,z,z,None,556,356.0,200.0,54,2,1995.199999988079,330245.3000000119,8036,kiwi,NF,C,328467,328467,326838,327751,326839,328834,328267,328267,328834,57
56,test,1,inc,1,m,Fri Aug 15 2025 09:34:44 GMT-0500 (Central Daylight Time),334472.89999997616,banana,800,I,m,m,None,886,687.0,199.0,69,2,2228.5,332244.39999997616,8036,bronze,NF,C,330367,330367,328837,329650,328838,331066,330167,330167,331066,58
57,test,1,con,1,m,Fri Aug 15 2025 09:34:44 GMT-0500 (Central Daylight Time),336705.60000002384,gold,900,I,m,m,None,788,588.0,200.0,98,2,2228.7000000476837,334476.89999997616,8036,gold,NF,C,332699,332699,331070,331983,331070,333299,332499,332499,333299,59
58,test,1,inc,1,m,Fri Aug 15 2025 09:34:44 GMT-0500 (Central Daylight Time),338971.5,kiwi,1000,I,m,m,None,726,527.0,199.0,111,2,2261.699999988079,336709.8000000119,8036,iron,NF,C,335032,335032,333303,334315,333303,335565,334832,334832,335565,60
59,test,1,con,1,z,Fri Aug 15 2025 09:34:44 GMT-0500 (Central Daylight Time),341321.0,lime,1000,I,z,z,None,804,605.0,199.0,35,2,2345.399999976158,338975.60000002384,8036,lime,NF,C,337298,337298,335569,336581,335569,337914,337098,337098,337914,61
60,test,1,con,1,m,Fri Aug 15 2025 09:34:44 GMT-0500 (Central Daylight Time),343670.39999997616,lead,900,I,m,m,None,915,716.0,199.0,122,2,2344.699999988079,341325.6999999881,8036,lead,NF,C,339547,339547,337919,338830,337919,340263,339348,339348,340263,62
61,test,1,inc,1,m,Fri Aug 15 2025 09:34:44 GMT-0500 (Central Daylight Time),345902.6999999881,orange,1000,I,m,m,None,698,498.0,200.0,87,2,2228.699999988079,343674.0,8036,silver,NF,C,341996,341996,340267,341279,340267,342496,341796,341796,342496,63
62,test,1,con,1,m,Fri Aug 15 2025 09:34:44 GMT-0500 (Central Daylight Time),348168.60000002384,bronze,800,I,m,m,None,921,721.0,200.0,65,2,2262.300000011921,345906.3000000119,8036,bronze,NF,C,344029,344029,342499,343313,342500,344762,343829,343829,344762,64
63,test,1,con,1,z,Fri Aug 15 2025 09:34:44 GMT-0500 (Central Daylight Time),350334.60000002384,orange,900,I,z,z,None,723,524.0,199.0,18,2,2162.0,348172.60000002384,8036,orange,NF,C,346395,346395,344766,345678,344766,346928,346195,346195,346928,65
64,test,1,inc,1,m,Fri Aug 15 2025 09:34:44 GMT-0500 (Central Daylight Time),352350.60000002384,lime,800,I,m,m,None,673,474.0,199.0,101,2,2012.300000011921,350338.3000000119,8036,gold,NF,C,348461,348461,346931,347744,346932,348944,348261,348261,348944,66
65,test,1,con,1,m,Fri Aug 15 2025 09:34:44 GMT-0500 (Central Daylight Time),354283.39999997616,iron,900,I,m,m,None,492,293.0,199.0,106,2,1928.8999999761581,352354.5,8036,iron,NF,C,350577,350577,348948,349860,348948,350876,350377,350377,350876,67
66,test,1,inc,1,z,Fri Aug 15 2025 09:34:44 GMT-0500 (Central Daylight Time),356332.60000002384,iron,900,I,z,z,None,601,401.0,200.0,46,2,2045.4000000357628,354287.1999999881,8036,pear,NF,C,352509,352509,350880,351793,350881,352926,352309,352309,352926,68
67,test,1,con,1,z,Fri Aug 15 2025 09:34:44 GMT-0500 (Central Daylight Time),358681.89999997616,orange,1100,I,z,z,None,702,503.0,199.0,20,2,2345.2999999523163,356336.60000002384,8036,orange,NF,C,354759,354759,352930,354042,352930,355275,354559,354559,355275,69
68,test,1,con,1,m,Fri Aug 15 2025 09:34:44 GMT-0500 (Central Daylight Time),361147.89999997616,iron,1000,I,m,m,None,927,727.0,200.0,107,2,2462.399999976158,358685.5,8036,iron,NF,C,357008,357008,355279,356291,355279,357741,356808,356808,357741,70
69,test,1,con,1,z,Fri Aug 15 2025 09:34:44 GMT-0500 (Central Daylight Time),363313.8000000119,orange,800,I,z,z,None,828,628.0,200.0,17,2,2162.0,361151.8000000119,8036,orange,NF,C,359274,359274,357745,358557,357745,359907,359074,359074,359907,71
70,test,1,inc,1,m,Fri Aug 15 2025 09:34:44 GMT-0500 (Central Daylight Time),365646.39999997616,raisin,1100,I,m,m,None,698,498.0,200.0,80,2,2328.199999988079,363318.1999999881,8036,copper,NF,C,361740,361740,359911,361023,359911,362239,361540,361540,362239,72
71,test,1,con,1,z,Fri Aug 15 2025 09:34:44 GMT-0500 (Central Daylight Time),367629.3000000119,kiwi,1000,I,z,z,None,433,234.0,199.0,51,2,1979.0,365650.3000000119,8036,kiwi,NF,C,363972,363973,362243,363256,362244,364222,363773,363773,364222,73
72,test,1,inc,1,z,Fri Aug 15 2025 09:34:44 GMT-0500 (Central Daylight Time),369945.10000002384,gold,800,I,z,z,None,979,779.0,200.0,45,2,2312.100000023842,367633.0,8036,pear,NF,C,365755,365755,364226,365039,364226,366538,365555,365555,366538,74
73,test,1,con,1,m,Fri Aug 15 2025 09:34:44 GMT-0500 (Central Daylight Time),371877.8000000119,cobalt,900,I,m,m,None,499,299.0,200.0,90,2,1929.0,369948.8000000119,8036,cobalt,NF,C,368171,368171,366542,367455,366542,368471,367971,367971,368471,75
74,test,1,inc,1,z,Fri Aug 15 2025 09:34:44 GMT-0500 (Central Daylight Time),373977.10000002384,bronze,800,I,z,z,None,762,562.0,200.0,21,2,2095.400000035763,371881.6999999881,8036,orange,NF,C,370004,370004,368475,369287,368475,370570,369804,369804,370570,76
75,test,1,con,1,m,Fri Aug 15 2025 09:34:44 GMT-0500 (Central Daylight Time),376215.10000002384,silver,900,I,m,m,None,805,605.0,200.0,82,2,2234.0,373981.10000002384,8036,silver,NF,C,372203,372203,370574,371487,370574,372808,372003,372003,372808,77
75,test,1,con,0,z,Fri Aug 15 2025 09:34:44 GMT-0500 (Central Daylight Time),378392.39999997616,cherry,1100,I,m,m,None,547,347.0,200.0,12,2,2172.7999999523163,376219.60000002384,8036,cherry,NF,C,374636,374636,372813,373919,372813,374985,374436,374436,374985,78
75,test,1,inc,0,m,Fri Aug 15 2025 09:34:44 GMT-0500 (Central Daylight Time),380108.5,lime,800,I,z,z,None,374,175.0,199.0,117,2,1712.300000011921,378396.1999999881,8036,zinc,NF,C,376519,376519,374989,375802,374989,376702,376319,376319,376702,79
76,test,1,con,1,z,Fri Aug 15 2025 09:34:44 GMT-0500 (Central Daylight Time),382557.6999999881,plum,1100,I,z,z,None,807,608.0,199.0,60,2,2445.199999988079,380112.5,8036,plum,NF,C,378535,378535,376706,377818,376706,379151,378335,378335,379151,80
77,test,1,inc,1,m,Fri Aug 15 2025 09:34:44 GMT-0500 (Central Daylight Time),384707.0,kiwi,1000,I,m,m,None,602,402.0,200.0,127,2,2145.100000023842,382561.89999997616,8036,lead,NF,C,380884,380884,379155,380168,379155,381300,380684,380684,381300,81
78,test,1,inc,1,m,Fri Aug 15 2025 09:34:44 GMT-0500 (Central Daylight Time),387006.39999997616,kiwi,1000,I,m,m,None,765,565.0,200.0,119,2,2295.099999964237,384711.3000000119,8036,zinc,NF,C,383033,383033,381304,382317,381305,383600,382833,382833,383599,82
79,test,1,inc,1,z,Fri Aug 15 2025 09:34:44 GMT-0500 (Central Daylight Time),389239.0,lead,1100,I,z,z,None,589,390.0,199.0,56,2,2228.699999988079,387010.3000000119,8036,kiwi,NF,C,385432,385432,383603,384716,383604,385832,385233,385233,385832,83
80,test,1,inc,1,z,Fri Aug 15 2025 09:34:44 GMT-0500 (Central Daylight Time),391455.10000002384,zinc,1000,I,z,z,None,673,473.0,200.0,39,2,2212.2000000476837,389242.89999997616,8036,lime,NF,C,387565,387565,385836,386849,385836,388048,387365,387365,388048,84
81,test,1,inc,1,z,Fri Aug 15 2025 09:34:44 GMT-0500 (Central Daylight Time),393654.1999999881,silver,1000,I,z,z,None,666,466.0,200.0,7,2,2195.300000011921,391458.89999997616,8036,banana,NF,C,389781,389781,388052,389065,388052,390247,389581,389581,390247,85
82,test,1,con,1,m,Fri Aug 15 2025 09:34:44 GMT-0500 (Central Daylight Time),395986.89999997616,lead,1100,I,m,m,None,695,495.0,200.0,124,2,2328.5,393658.39999997616,8036,lead,NF,C,392080,392080,390251,391364,390252,392580,391880,391880,392580,86
83,test,1,con,1,m,Fri Aug 15 2025 09:34:44 GMT-0500 (Central Daylight Time),398369.39999997616,bronze,1100,I,m,m,None,745,545.0,200.0,68,2,2378.899999976158,395990.5,8036,bronze,NF,C,394413,394413,392584,393696,392584,394962,394213,394213,394962,87
84,test,1,inc,1,z,Fri Aug 15 2025 09:34:44 GMT-0500 (Central Daylight Time),401035.39999997616,cobalt,1100,I,z,z,None,1019,819.0,200.0,16,2,2662.199999988079,398373.1999999881,8036,cherry,NF,C,396796,396796,394966,396079,394966,397628,396595,396595,397628,88
85,test,1,con,1,z,Fri Aug 15 2025 09:34:44 GMT-0500 (Central Daylight Time),403051.39999997616,plum,800,I,z,z,None,668,468.0,200.0,57,2,2011.8999999761581,401039.5,8036,plum,NF,C,399161,399162,397633,398445,397633,399644,398961,398961,399644,89
86,test,1,con,1,z,Fri Aug 15 2025 09:34:44 GMT-0500 (Central Daylight Time),405184.10000002384,raisin,1000,I,z,z,None,596,397.0,199.0,27,2,2128.5,403055.60000002384,8036,raisin,NF,C,401377,401378,399649,400661,399649,401777,401178,401178,401777,90
87,test,1,inc,1,m,Fri Aug 15 2025 09:34:44 GMT-0500 (Central Daylight Time),407316.6999999881,cherry,900,I,m,m,None,684,484.0,200.0,94,2,2128.699999988079,405188.0,8036,cobalt,NF,C,403410,403410,401781,402694,401781,403910,403210,403210,403910,91
88,test,1,con,1,z,Fri Aug 15 2025 09:34:44 GMT-0500 (Central Daylight Time),409182.60000002384,lime,800,I,z,z,None,531,331.0,200.0,33,2,1861.7000000476837,407320.89999997616,8036,lime,NF,C,405443,405443,403914,404726,403914,405776,405243,405243,405776,92
89,test,1,inc,1,z,Fri Aug 15 2025 09:34:44 GMT-0500 (Central Daylight Time),411382.10000002384,silver,1000,I,z,z,None,665,465.0,200.0,15,2,2195.800000011921,409186.3000000119,8036,cherry,NF,C,407509,407509,405779,406792,405780,407975,407309,407309,407975,93
90,test,1,inc,1,z,Fri Aug 15 2025 09:34:44 GMT-0500 (Central Daylight Time),413581.5,zinc,1000,I,z,z,None,658,458.0,200.0,63,2,2195.600000023842,411385.89999997616,8036,plum,NF,C,409708,409708,407979,408992,407979,410175,409508,409508,410175,94
91,test,1,inc,1,z,Fri Aug 15 2025 09:34:44 GMT-0500 (Central Daylight Time),415913.89999997616,lead,1100,I,z,z,None,688,488.0,200.0,40,2,2328.399999976158,413585.5,8036,lime,NF,C,412007,412007,410179,411291,410179,412507,411807,411807,412507,95
92,test,1,inc,1,m,Fri Aug 15 2025 09:34:44 GMT-0500 (Central Daylight Time),417996.60000002384,cherry,900,I,m,m,None,642,442.0,200.0,78,2,2078.600000023842,415918.0,8036,copper,NF,C,414140,414140,412511,413424,412511,414590,413940,413940,414590,96
93,test,1,con,1,m,Fri Aug 15 2025 09:34:44 GMT-0500 (Central Daylight Time),420129.5,cobalt,1000,I,m,m,None,586,387.0,199.0,91,2,2129.0,418000.5,8036,cobalt,NF,C,416323,416323,414594,415606,414594,416723,416123,416123,416723,97
94,test,1,con,1,z,Fri Aug 15 2025 09:34:44 GMT-0500 (Central Daylight Time),422261.89999997616,plum,900,I,z,z,None,684,484.0,200.0,58,2,2128.399999976158,420133.5,8036,plum,NF,C,418355,418355,416727,417639,416727,418855,418155,418155,418855,98
95,test,1,inc,1,m,Fri Aug 15 2025 09:34:44 GMT-0500 (Central Daylight Time),424477.89999997616,pear,900,I,m,m,None,649,450.0,199.0,102,2,2212.2999999523163,422265.60000002384,8036,gold,NF,C,420605,420605,418859,419890,418859,421071,420405,420405,421071,99
96,test,1,con,1,m,Fri Aug 15 2025 09:34:44 GMT-0500 (Central Daylight Time),426827.1999999881,zinc,1000,I,m,m,None,802,602.0,200.0,115,2,2345.599999964237,424481.60000002384,8036,zinc,NF,C,422804,422804,421075,422087,421075,423420,422604,422604,423420,100
97,test,1,inc,1,m,Fri Aug 15 2025 09:34:44 GMT-0500 (Central Daylight Time),429276.60000002384,plum,1100,I,m,m,None,801,601.0,200.0,112,2,2445.400000035763,426831.1999999881,8036,iron,NF,C,425253,425253,423424,424537,423425,425870,425053,425053,425870,101
98,test,1,inc,1,m,Fri Aug 15 2025 09:34:44 GMT-0500 (Central Daylight Time),431725.6999999881,plum,1100,I,m,m,None,800,601.0,199.0,128,2,2445.199999988079,429280.5,8036,lead,NF,C,427702,427702,425874,426986,425874,428319,427503,427503,428319,102
99,test,1,inc,1,m,Fri Aug 15 2025 09:34:44 GMT-0500 (Central Daylight Time),433974.89999997616,plum,1100,I,m,m,None,613,414.0,199.0,120,2,2245.399999976158,431729.5,8036,zinc,NF,C,430152,430152,428323,429435,428323,430568,429952,429952,430568,103
100,test,1,con,1,m,Fri Aug 15 2025 09:34:44 GMT-0500 (Central Daylight Time),436407.60000002384,gold,1100,I,m,m,None,797,597.0,200.0,100,2,2428.900000035763,433978.6999999881,8036,gold,NF,C,432401,432401,430572,431685,430572,433001,432201,432201,433001,104
101,test,1,con,1,m,Fri Aug 15 2025 09:34:44 GMT-0500 (Central Daylight Time),438473.5,lead,1000,I,m,m,None,520,321.0,199.0,123,2,2061.899999976158,436411.60000002384,8036,lead,NF,C,434734,434734,433005,434017,433005,435067,434534,434534,435067,105
102,test,1,con,1,m,Fri Aug 15 2025 09:34:44 GMT-0500 (Central Daylight Time),440672.89999997616,silver,800,I,m,m,None,862,662.0,200.0,81,2,2195.199999988079,438477.6999999881,8036,silver,NF,C,436600,436600,435071,435883,435071,437266,436400,436400,437266,106
103,test,1,inc,1,z,Fri Aug 15 2025 09:34:44 GMT-0500 (Central Daylight Time),442755.5,bronze,800,I,z,z,None,743,543.0,200.0,5,2,2078.600000023842,440676.89999997616,8036,banana,NF,C,438799,438799,437270,438083,437270,439349,438599,438599,439348,107
104,test,1,con,1,z,Fri Aug 15 2025 09:34:44 GMT-0500 (Central Daylight Time),444871.60000002384,pear,1100,I,z,z,None,481,281.0,200.0,44,2,2112.300000011921,442759.3000000119,8036,pear,NF,C,441182,441182,439352,440465,439353,441465,440981,440981,441465,108
105,test,1,con,1,z,Fri Aug 15 2025 09:34:44 GMT-0500 (Central Daylight Time),446920.8000000119,orange,1000,I,z,z,None,512,313.0,199.0,19,2,2045.6000000238419,444875.1999999881,8036,orange,NF,C,443198,443198,441468,442481,441469,443514,442997,442998,443514,109
106,test,1,con,1,z,Fri Aug 15 2025 09:34:44 GMT-0500 (Central Daylight Time),448953.5,lime,1100,I,z,z,None,396,196.0,200.0,36,2,2028.699999988079,446924.8000000119,8036,lime,NF,C,445347,445347,443518,444630,443518,445547,445147,445147,445547,110
107,test,1,inc,1,z,Fri Aug 15 2025 09:34:44 GMT-0500 (Central Daylight Time),451036.3000000119,iron,900,I,z,z,None,642,442.0,200.0,38,2,2078.600000023842,448957.6999999881,8036,lime,NF,C,447180,447180,445551,446463,445551,447629,446980,446980,447629,111
108,test,1,inc,1,m,Fri Aug 15 2025 09:34:44 GMT-0500 (Central Daylight Time),453302.1999999881,raisin,1100,I,m,m,None,631,432.0,199.0,88,2,2262.199999988079,451040.0,8036,silver,NF,C,449462,449462,447633,448746,447633,449895,449262,449263,449895,112
109,test,1,con,1,z,Fri Aug 15 2025 09:34:44 GMT-0500 (Central Daylight Time),455601.5,raisin,1100,I,z,z,None,654,454.0,200.0,28,2,2295.699999988079,453305.8000000119,8036,raisin,NF,C,451728,451728,449899,451012,449899,452195,451528,451528,452194,113
110,test,1,inc,1,m,Fri Aug 15 2025 09:34:44 GMT-0500 (Central Daylight Time),457600.89999997616,banana,800,I,m,m,None,655,456.0,199.0,77,2,1995.199999988079,455605.6999999881,8036,copper,NF,C,453727,453727,452199,453011,452199,454194,453528,453528,454194,114
111,test,1,inc,1,z,Fri Aug 15 2025 09:34:44 GMT-0500 (Central Daylight Time),459700.3000000119,bronze,800,I,z,z,None,751,551.0,200.0,13,2,2095.199999988079,457605.10000002384,8036,cherry,NF,C,455727,455727,454198,455011,454199,456293,455527,455527,456293,115
112,test,1,con,1,m,Fri Aug 15 2025 09:34:44 GMT-0500 (Central Daylight Time),461999.5,silver,1000,I,m,m,None,765,565.0,200.0,83,2,2295.300000011921,459704.1999999881,8036,silver,NF,C,458026,458026,456297,457310,456297,458593,457826,457826,458593,116
113,test,1,con,1,m,Fri Aug 15 2025 09:34:44 GMT-0500 (Central Daylight Time),464282.10000002384,copper,1100,I,m,m,None,635,436.0,199.0,76,2,2278.7000000476837,462003.39999997616,8036,copper,NF,C,460426,460426,458596,459709,458597,460875,460226,460226,460875,117
114,test,1,con,1,z,Fri Aug 15 2025 09:34:44 GMT-0500 (Central Daylight Time),466148.3000000119,kiwi,900,I,z,z,None,418,218.0,200.0,50,2,1862.1000000238419,464286.1999999881,8036,kiwi,NF,C,462508,462508,460879,461792,460879,462741,462308,462308,462741,118
115,test,1,con,1,m,Fri Aug 15 2025 09:34:44 GMT-0500 (Central Daylight Time),468280.8000000119,gold,1000,I,m,m,None,596,396.0,200.0,99,2,2128.900000035763,466151.89999997616,8036,gold,NF,C,464474,464474,462745,463758,462745,464874,464274,464274,464874,119
116,test,1,con,1,m,Fri Aug 15 2025 09:34:44 GMT-0500 (Central Daylight Time),470697.6999999881,cobalt,1100,I,m,m,None,779,579.0,200.0,92,2,2412.699999988079,468285.0,8036,cobalt,NF,C,466707,466707,464878,465990,464878,467291,466507,466507,467291,120
117,test,1,inc,1,z,Fri Aug 15 2025 09:34:44 GMT-0500 (Central Daylight Time),472746.10000002384,copper,900,I,z,z,None,603,403.0,200.0,22,2,2044.300000011921,470701.8000000119,8036,orange,NF,C,468923,468923,467295,468206,467295,469339,468723,468723,469339,121
118,test,1,con,1,z,Fri Aug 15 2025 09:34:44 GMT-0500 (Central Daylight Time),475045.39999997616,cherry,1000,I,z,z,None,758,558.0,200.0,11,2,2295.699999988079,472749.6999999881,8036,cherry,NF,C,471072,471072,469343,470356,469343,471638,470872,470872,471638,122
119,test,1,inc,1,z,Fri Aug 15 2025 09:34:44 GMT-0500 (Central Daylight Time),477411.39999997616,lead,1100,I,z,z,None,719,519.0,200.0,64,2,2362.599999964237,475048.8000000119,8036,plum,NF,C,473471,473471,471642,472755,471642,474004,473271,473271,474004,123
120,test,1,con,1,z,Fri Aug 15 2025 09:34:44 GMT-0500 (Central Daylight Time),479427.3000000119,raisin,900,I,z,z,None,569,369.0,200.0,26,2,2012.199999988079,477415.10000002384,8036,raisin,NF,C,475637,475637,474008,474921,474008,476020,475437,475437,476020,124
121,test,1,con,1,m,Fri Aug 15 2025 09:34:44 GMT-0500 (Central Daylight Time),481360.10000002384,cobalt,800,I,m,m,None,587,388.0,199.0,89,2,1929.1000000238419,479431.0,8036,cobalt,NF,C,477554,477554,476024,476837,476024,477953,477354,477354,477953,125
122,test,1,inc,1,z,Fri Aug 15 2025 09:34:44 GMT-0500 (Central Daylight Time),483292.89999997616,gold,800,I,z,z,None,585,385.0,200.0,53,2,1928.7999999523163,481364.10000002384,8036,kiwi,NF,C,479486,479486,477957,478770,477957,479886,479286,479286,479886,126
123,test,1,inc,1,m,Fri Aug 15 2025 09:34:44 GMT-0500 (Central Daylight Time),485558.6999999881,raisin,1100,I,m,m,None,622,423.0,199.0,72,2,2262.0,483296.6999999881,8036,bronze,NF,C,481719,481719,479890,481002,479890,482152,481519,481519,482152,127
124,test,1,inc,1,z,Fri Aug 15 2025 09:34:44 GMT-0500 (Central Daylight Time),487708.0,silver,1000,I,z,z,None,609,409.0,200.0,23,2,2145.5,485562.5,8036,orange,NF,C,483885,483885,482156,483168,482156,484301,483685,483685,484301,128
