acc_sum,block,block_c,change,condition,correct,correct_response,datetime,endtime,face,project,response,response_time,row_sel,session_number,start_end,starttime,subject_id,task,task_vers,trial
0,prac,1,,1-Back,,,Mon Jun 09 2025 10:19:52 GMT-0500 (Central Daylight Time),,012_o_f_d_a.png,O,space,24533,1,1,,,7161,VNB,C,0
1,prac,1,0.0,1-Back,1,m,Mon Jun 09 2025 10:19:52 GMT-0500 (Central Daylight Time),168058.60000002384,022_y_f_n_a.png,O,m,1304,2,1,2173.100000023842,165885.5,7161,VNB,C,1
2,prac,1,0.0,1-Back,1,m,Mon Jun 09 2025 10:19:52 GMT-0500 (Central Daylight Time),170774.30000001192,014_m_m_h_a.png,O,m,1844,3,1,2709.399999976158,168064.90000003576,7161,VNB,C,2
2,prac,1,0.0,1-Back,0,m,Mon Jun 09 2025 10:19:52 GMT-0500 (Central Daylight Time),173640.40000003576,025_y_m_d_a.png,O,None,2007,4,1,2858.199999988079,170782.20000004768,7161,VNB,C,3
3,prac,1,0.0,1-Back,1,m,Mon Jun 09 2025 10:19:52 GMT-0500 (Central Daylight Time),176056.10000002384,012_o_f_n_a.png,O,m,1529,5,1,2408.300000011921,173647.80000001192,7161,VNB,C,4
4,prac,1,1.0,1-Back,1,z,Mon Jun 09 2025 10:19:52 GMT-0500 (Central Daylight Time),178755.30000001192,025_y_m_n_a.png,O,z,1834,6,1,2693.199999988079,176062.10000002384,7161,VNB,C,5
5,prac,1,0.0,1-Back,1,m,Mon Jun 09 2025 10:19:52 GMT-0500 (Central Daylight Time),181088.0,015_o_m_h_a.png,O,m,1449,7,1,2325.399999976158,178762.60000002384,7161,VNB,C,6
6,prac,1,0.0,1-Back,1,m,Mon Jun 09 2025 10:19:52 GMT-0500 (Central Daylight Time),183204.0,019_m_f_d_a.png,O,m,1236,8,1,2107.899999976158,181096.10000002384,7161,VNB,C,7
7,prac,1,1.0,1-Back,1,z,Mon Jun 09 2025 10:19:52 GMT-0500 (Central Daylight Time),185237.0,022_y_f_d_a.png,O,z,1144,9,1,2025.0999999642372,183211.90000003576,7161,VNB,C,8
8,prac,1,0.0,1-Back,1,m,Mon Jun 09 2025 10:19:52 GMT-0500 (Central Daylight Time),187269.30000001192,014_m_m_n_a.png,O,m,1159,10,1,2024.199999988079,185245.10000002384,7161,VNB,C,9
9,prac,1,0.0,1-Back,1,m,Mon Jun 09 2025 10:19:52 GMT-0500 (Central Daylight Time),189436.40000003576,012_o_f_h_a.png,O,m,1282,11,1,2160.0,187276.40000003576,7161,VNB,C,10
10,prac,1,0.0,1-Back,1,m,Mon Jun 09 2025 10:19:52 GMT-0500 (Central Daylight Time),191701.5,025_y_m_d_a.png,O,m,1402,12,1,2257.099999964237,189444.40000003576,7161,VNB,C,11
0,test,1,0.0,1-Back,,,Mon Jun 09 2025 10:19:52 GMT-0500 (Central Daylight Time),191701.5,022_y_f_d_a.png,O,space,7524,1,1,2257.099999964237,189444.40000003576,7161,VNB,C,0
1,test,1,0.0,1-Back,1,m,Mon Jun 09 2025 10:19:52 GMT-0500 (Central Daylight Time),207912.60000002384,019_m_f_n_a.png,O,m,1386,2,1,2409.899999976158,205502.70000004768,7161,VNB,C,1
2,test,1,0.0,1-Back,1,m,Mon Jun 09 2025 10:19:52 GMT-0500 (Central Daylight Time),210245.30000001192,015_o_m_h_a.png,O,m,1305,3,1,2328.300000011921,207917.0,7161,VNB,C,2
3,test,1,1.0,1-Back,1,z,Mon Jun 09 2025 10:19:52 GMT-0500 (Central Daylight Time),212528.10000002384,014_m_m_h_a.png,O,z,1261,4,1,2278.199999988079,210249.90000003576,7161,VNB,C,3
4,test,1,0.0,1-Back,1,m,Mon Jun 09 2025 10:19:52 GMT-0500 (Central Daylight Time),214827.30000001192,012_o_f_n_a.png,O,m,1282,5,1,2294.399999976158,212532.90000003576,7161,VNB,C,4
5,test,1,0.0,1-Back,1,m,Mon Jun 09 2025 10:19:52 GMT-0500 (Central Daylight Time),217093.5,025_y_m_d_a.png,O,m,1239,6,1,2262.0,214831.5,7161,VNB,C,5
6,test,1,1.0,1-Back,1,z,Mon Jun 09 2025 10:19:52 GMT-0500 (Central Daylight Time),219309.10000002384,019_m_f_d_a.png,O,z,1189,7,1,2211.899999976158,217097.20000004768,7161,VNB,C,6
7,test,1,0.0,1-Back,1,m,Mon Jun 09 2025 10:19:52 GMT-0500 (Central Daylight Time),221674.70000004768,022_y_f_h_a.png,O,m,1333,8,1,2361.2000000476837,219313.5,7161,VNB,C,7
8,test,1,0.0,1-Back,1,m,Mon Jun 09 2025 10:19:52 GMT-0500 (Central Daylight Time),224040.90000003576,015_o_m_n_a.png,O,m,1335,9,1,2361.900000035763,221679.0,7161,VNB,C,8
9,test,1,0.0,1-Back,1,m,Mon Jun 09 2025 10:19:52 GMT-0500 (Central Daylight Time),226340.30000001192,025_y_m_h_a.png,O,m,1273,10,1,2294.599999964237,224045.70000004768,7161,VNB,C,9
10,test,1,0.0,1-Back,1,m,Mon Jun 09 2025 10:19:52 GMT-0500 (Central Daylight Time),228358.30000001192,015_o_m_d_a.png,O,m,998,11,1,2013.3999999761581,226344.90000003576,7161,VNB,C,10
11,test,1,1.0,1-Back,1,z,Mon Jun 09 2025 10:19:52 GMT-0500 (Central Daylight Time),230355.60000002384,012_o_f_d_a.png,O,z,966,12,1,1992.8999999761581,228362.70000004768,7161,VNB,C,11
12,test,1,0.0,1-Back,1,m,Mon Jun 09 2025 10:19:52 GMT-0500 (Central Daylight Time),232171.70000004768,014_m_m_n_a.png,O,m,798,13,1,1811.7000000476837,230360.0,7161,VNB,C,12
13,test,1,1.0,1-Back,1,z,Mon Jun 09 2025 10:19:52 GMT-0500 (Central Daylight Time),234571.10000002384,022_y_f_n_a.png,O,z,1366,14,1,2395.399999976158,232175.70000004768,7161,VNB,C,13
14,test,1,0.0,1-Back,1,m,Mon Jun 09 2025 10:19:52 GMT-0500 (Central Daylight Time),236587.90000003576,019_m_f_h_a.png,O,m,991,15,1,2012.6000000238419,234575.30000001192,7161,VNB,C,14
15,test,1,0.0,1-Back,1,m,Mon Jun 09 2025 10:19:52 GMT-0500 (Central Daylight Time),238953.20000004768,014_m_m_d_a.png,O,m,1335,16,1,2361.100000023842,236592.10000002384,7161,VNB,C,15
16,test,1,0.0,1-Back,1,m,Mon Jun 09 2025 10:19:52 GMT-0500 (Central Daylight Time),241052.30000001192,025_y_m_n_a.png,O,m,1073,17,1,2095.0,238957.30000001192,7161,VNB,C,16
17,test,1,0.0,1-Back,1,m,Mon Jun 09 2025 10:19:52 GMT-0500 (Central Daylight Time),243351.70000004768,012_o_f_h_a.png,O,m,1270,18,1,2295.900000035763,241055.80000001192,7161,VNB,C,17
0,test,2,0.0,1-Back,,,Mon Jun 09 2025 10:19:52 GMT-0500 (Central Daylight Time),243351.70000004768,025_y_m_n_a.png,O,space,2091,1,1,2295.900000035763,241055.80000001192,7161,VNB,C,0
1,test,2,0.0,1-Back,1,m,Mon Jun 09 2025 10:19:52 GMT-0500 (Central Daylight Time),249599.70000004768,022_y_f_h_a.png,O,m,1111,2,1,2127.300000011921,247472.40000003576,7161,VNB,C,1
2,test,2,1.0,1-Back,1,m,Mon Jun 09 2025 10:19:52 GMT-0500 (Central Daylight Time),251682.40000003576,015_o_m_n_a.png,O,m,1059,3,1,2079.0,249603.40000003576,7161,VNB,C,2
3,test,2,0.0,1-Back,1,m,Mon Jun 09 2025 10:19:52 GMT-0500 (Central Daylight Time),253948.30000001192,019_m_f_d_a.png,O,m,1248,4,1,2261.199999988079,251687.10000002384,7161,VNB,C,3
3,test,2,0.0,1-Back,0,z,Mon Jun 09 2025 10:19:52 GMT-0500 (Central Daylight Time),256164.10000002384,014_m_m_d_a.png,O,m,1190,5,1,2210.399999976158,253953.70000004768,7161,VNB,C,4
4,test,2,0.0,1-Back,1,m,Mon Jun 09 2025 10:19:52 GMT-0500 (Central Daylight Time),258130.30000001192,025_y_m_h_a.png,O,m,934,6,1,1962.199999988079,256168.10000002384,7161,VNB,C,5
5,test,2,1.0,1-Back,1,z,Mon Jun 09 2025 10:19:52 GMT-0500 (Central Daylight Time),260363.0,012_o_f_h_a.png,O,z,1208,7,1,2227.899999976158,258135.10000002384,7161,VNB,C,6
6,test,2,0.0,1-Back,1,m,Mon Jun 09 2025 10:19:52 GMT-0500 (Central Daylight Time),262395.60000002384,019_m_f_n_a.png,O,m,1007,8,1,2027.8999999761581,260367.70000004768,7161,VNB,C,7
7,test,2,0.0,1-Back,1,m,Mon Jun 09 2025 10:19:52 GMT-0500 (Central Daylight Time),264394.90000003576,022_y_f_d_a.png,O,m,975,9,1,1994.800000011921,262400.10000002384,7161,VNB,C,8
8,test,2,0.0,1-Back,1,m,Mon Jun 09 2025 10:19:52 GMT-0500 (Central Daylight Time),266327.7000000477,014_m_m_n_a.png,O,m,911,10,1,1928.4000000357628,264399.3000000119,7161,VNB,C,9
9,test,2,1.0,1-Back,1,m,Mon Jun 09 2025 10:19:52 GMT-0500 (Central Daylight Time),268110.60000002384,019_m_f_h_a.png,O,m,763,11,1,1778.1000000238419,266332.5,7161,VNB,C,10
10,test,2,0.0,1-Back,1,z,Mon Jun 09 2025 10:19:52 GMT-0500 (Central Daylight Time),270226.60000002384,015_o_m_h_a.png,O,z,1083,12,1,2111.199999988079,268115.40000003576,7161,VNB,C,11
11,test,2,0.0,1-Back,1,m,Mon Jun 09 2025 10:19:52 GMT-0500 (Central Daylight Time),272192.5,025_y_m_d_a.png,O,m,944,13,1,1960.8999999761581,270231.60000002384,7161,VNB,C,12
12,test,2,0.0,1-Back,1,m,Mon Jun 09 2025 10:19:52 GMT-0500 (Central Daylight Time),274125.40000003576,012_o_f_n_a.png,O,m,914,14,1,1927.5,272197.90000003576,7161,VNB,C,13
13,test,2,0.0,1-Back,1,z,Mon Jun 09 2025 10:19:52 GMT-0500 (Central Daylight Time),276691.3000000119,022_y_f_n_a.png,O,z,1541,15,1,2562.300000011921,274129.0,7161,VNB,C,14
14,test,2,1.0,1-Back,1,m,Mon Jun 09 2025 10:19:52 GMT-0500 (Central Daylight Time),278607.3000000119,014_m_m_h_a.png,O,m,895,16,1,1910.699999988079,276696.60000002384,7161,VNB,C,15
15,test,2,0.0,1-Back,1,m,Mon Jun 09 2025 10:19:52 GMT-0500 (Central Daylight Time),280606.60000002384,012_o_f_d_a.png,O,m,979,17,1,1995.5,278611.10000002384,7161,VNB,C,16
16,test,2,1.0,1-Back,1,z,Mon Jun 09 2025 10:19:52 GMT-0500 (Central Daylight Time),282705.7000000477,015_o_m_d_a.png,O,z,1075,18,1,2095.5,280610.2000000477,7161,VNB,C,17
0,test,3,1.0,1-Back,,,Mon Jun 09 2025 10:19:52 GMT-0500 (Central Daylight Time),282705.7000000477,012_o_f_h_a.png,O,space,33817,1,1,2095.5,280610.2000000477,7161,VNB,C,0
1,test,3,0.0,1-Back,1,m,Mon Jun 09 2025 10:19:52 GMT-0500 (Central Daylight Time),321160.7000000477,019_m_f_d_a.png,O,m,1485,2,1,2510.7000000476837,318650.0,7161,VNB,C,1
2,test,3,1.0,1-Back,1,m,Mon Jun 09 2025 10:19:52 GMT-0500 (Central Daylight Time),323426.5,014_m_m_n_a.png,O,m,1242,3,1,2261.199999988079,321165.3000000119,7161,VNB,C,2
3,test,3,0.0,1-Back,1,z,Mon Jun 09 2025 10:19:52 GMT-0500 (Central Daylight Time),325659.40000003576,012_o_f_n_a.png,O,z,1215,4,1,2228.600000023842,323430.8000000119,7161,VNB,C,3
4,test,3,1.0,1-Back,1,m,Mon Jun 09 2025 10:19:52 GMT-0500 (Central Daylight Time),327575.2000000477,015_o_m_d_a.png,O,m,895,5,1,1911.0,325664.2000000477,7161,VNB,C,4
5,test,3,0.0,1-Back,1,m,Mon Jun 09 2025 10:19:52 GMT-0500 (Central Daylight Time),329691.40000003576,022_y_f_h_a.png,O,m,1091,6,1,2112.800000011921,327578.60000002384,7161,VNB,C,5
6,test,3,0.0,1-Back,1,z,Mon Jun 09 2025 10:19:52 GMT-0500 (Central Daylight Time),331890.60000002384,025_y_m_h_a.png,O,z,1174,7,1,2194.800000011921,329695.8000000119,7161,VNB,C,6
7,test,3,0.0,1-Back,1,m,Mon Jun 09 2025 10:19:52 GMT-0500 (Central Daylight Time),334306.40000003576,019_m_f_n_a.png,O,m,1392,8,1,2411.199999988079,331895.2000000477,7161,VNB,C,7
8,test,3,0.0,1-Back,1,m,Mon Jun 09 2025 10:19:52 GMT-0500 (Central Daylight Time),336955.7000000477,022_y_f_d_a.png,O,m,1623,9,1,2645.800000011921,334309.90000003576,7161,VNB,C,8
9,test,3,1.0,1-Back,1,m,Mon Jun 09 2025 10:19:52 GMT-0500 (Central Daylight Time),339299.2000000477,015_o_m_n_a.png,O,m,1327,10,1,2339.300000011921,336959.90000003576,7161,VNB,C,9
10,test,3,0.0,1-Back,1,m,Mon Jun 09 2025 10:19:52 GMT-0500 (Central Daylight Time),341587.40000003576,014_m_m_h_a.png,O,m,1282,11,1,2283.800000011921,339303.60000002384,7161,VNB,C,10
11,test,3,0.0,1-Back,1,z,Mon Jun 09 2025 10:19:52 GMT-0500 (Central Daylight Time),343536.90000003576,019_m_f_h_a.png,O,z,927,12,1,1945.699999988079,341591.2000000477,7161,VNB,C,11
12,test,3,1.0,1-Back,1,m,Mon Jun 09 2025 10:19:52 GMT-0500 (Central Daylight Time),345402.90000003576,012_o_f_d_a.png,O,m,833,13,1,1862.0,343540.90000003576,7161,VNB,C,12
13,test,3,0.0,1-Back,1,z,Mon Jun 09 2025 10:19:52 GMT-0500 (Central Daylight Time),348252.0,014_m_m_d_a.png,O,z,1823,14,1,2844.399999976158,345407.60000002384,7161,VNB,C,13
14,test,3,0.0,1-Back,1,m,Mon Jun 09 2025 10:19:52 GMT-0500 (Central Daylight Time),350201.40000003576,025_y_m_n_a.png,O,m,918,15,1,1945.1000000238419,348256.3000000119,7161,VNB,C,14
15,test,3,1.0,1-Back,1,m,Mon Jun 09 2025 10:19:52 GMT-0500 (Central Daylight Time),352100.60000002384,015_o_m_h_a.png,O,m,881,16,1,1894.8999999761581,350205.7000000477,7161,VNB,C,15
16,test,3,0.0,1-Back,1,m,Mon Jun 09 2025 10:19:52 GMT-0500 (Central Daylight Time),354166.90000003576,025_y_m_d_a.png,O,m,1038,17,1,2061.800000011921,352105.10000002384,7161,VNB,C,16
16,test,3,1.0,1-Back,0,m,Mon Jun 09 2025 10:19:52 GMT-0500 (Central Daylight Time),356282.8000000119,022_y_f_n_a.png,O,z,1092,18,1,2112.300000011921,354170.5,7161,VNB,C,17
0,test,4,1.0,1-Back,,,Mon Jun 09 2025 10:19:52 GMT-0500 (Central Daylight Time),356282.8000000119,014_m_m_d_a.png,O,space,1679,1,1,2112.300000011921,354170.5,7161,VNB,C,0
1,test,4,0.0,1-Back,1,z,Mon Jun 09 2025 10:19:52 GMT-0500 (Central Daylight Time),362114.5,015_o_m_d_a.png,O,z,1100,2,1,2128.199999988079,359986.3000000119,7161,VNB,C,1
2,test,4,0.0,1-Back,1,m,Mon Jun 09 2025 10:19:52 GMT-0500 (Central Daylight Time),364097.40000003576,025_y_m_h_a.png,O,m,960,3,1,1978.4000000357628,362119.0,7161,VNB,C,2
3,test,4,0.0,1-Back,1,m,Mon Jun 09 2025 10:19:52 GMT-0500 (Central Daylight Time),366496.60000002384,019_m_f_n_a.png,O,m,1369,4,1,2396.0,364100.60000002384,7161,VNB,C,3
4,test,4,1.0,1-Back,1,m,Mon Jun 09 2025 10:19:52 GMT-0500 (Central Daylight Time),369295.60000002384,012_o_f_h_a.png,O,m,1770,5,1,2794.300000011921,366501.3000000119,7161,VNB,C,4
5,test,4,0.0,1-Back,1,m,Mon Jun 09 2025 10:19:52 GMT-0500 (Central Daylight Time),371178.10000002384,014_m_m_n_a.png,O,m,851,6,1,1878.300000011921,369299.8000000119,7161,VNB,C,5
6,test,4,0.0,1-Back,1,m,Mon Jun 09 2025 10:19:52 GMT-0500 (Central Daylight Time),374027.7000000477,025_y_m_d_a.png,O,m,1817,7,1,2845.0,371182.7000000477,7161,VNB,C,6
7,test,4,1.0,1-Back,1,z,Mon Jun 09 2025 10:19:52 GMT-0500 (Central Daylight Time),376093.40000003576,022_y_f_d_a.png,O,z,1047,8,1,2061.100000023842,374032.3000000119,7161,VNB,C,7
8,test,4,0.0,1-Back,1,m,Mon Jun 09 2025 10:19:52 GMT-0500 (Central Daylight Time),378059.60000002384,019_m_f_h_a.png,O,m,948,9,1,1961.8999999761581,376097.7000000477,7161,VNB,C,8
9,test,4,0.0,1-Back,1,z,Mon Jun 09 2025 10:19:52 GMT-0500 (Central Daylight Time),380225.5,015_o_m_h_a.png,O,z,1143,10,1,2161.2999999523163,378064.2000000477,7161,VNB,C,9
10,test,4,1.0,1-Back,1,m,Mon Jun 09 2025 10:19:52 GMT-0500 (Central Daylight Time),382191.3000000119,012_o_f_n_a.png,O,m,945,11,1,1959.8999999761581,380231.40000003576,7161,VNB,C,10
11,test,4,0.0,1-Back,1,m,Mon Jun 09 2025 10:19:52 GMT-0500 (Central Daylight Time),384823.90000003576,019_m_f_d_a.png,O,m,1603,12,1,2628.5,382195.40000003576,7161,VNB,C,11
12,test,4,0.0,1-Back,1,m,Mon Jun 09 2025 10:19:52 GMT-0500 (Central Daylight Time),387290.0,022_y_f_n_a.png,O,m,1434,13,1,2460.599999964237,384829.40000003576,7161,VNB,C,12
13,test,4,0.0,1-Back,1,m,Mon Jun 09 2025 10:19:52 GMT-0500 (Central Daylight Time),389456.0,012_o_f_d_a.png,O,m,1144,14,1,2161.399999976158,387294.60000002384,7161,VNB,C,13
14,test,4,0.0,1-Back,1,m,Mon Jun 09 2025 10:19:52 GMT-0500 (Central Daylight Time),391688.5,022_y_f_h_a.png,O,m,1202,15,1,2228.0,389460.5,7161,VNB,C,14
15,test,4,1.0,1-Back,1,z,Mon Jun 09 2025 10:19:52 GMT-0500 (Central Daylight Time),393771.3000000119,014_m_m_h_a.png,O,z,1056,16,1,2078.599999964237,391692.7000000477,7161,VNB,C,15
16,test,4,0.0,1-Back,1,m,Mon Jun 09 2025 10:19:52 GMT-0500 (Central Daylight Time),395720.60000002384,015_o_m_n_a.png,O,m,927,17,1,1945.300000011921,393775.3000000119,7161,VNB,C,16
17,test,4,1.0,1-Back,1,z,Mon Jun 09 2025 10:19:52 GMT-0500 (Central Daylight Time),398120.10000002384,025_y_m_n_a.png,O,z,1370,18,1,2395.399999976158,395724.7000000477,7161,VNB,C,17
0,test,5,1.0,1-Back,,,Mon Jun 09 2025 10:19:52 GMT-0500 (Central Daylight Time),398120.10000002384,015_o_m_n_a.png,O,space,1594,1,1,2395.399999976158,395724.7000000477,7161,VNB,C,0
1,test,5,1.0,1-Back,1,m,Mon Jun 09 2025 10:19:52 GMT-0500 (Central Daylight Time),403801.3000000119,012_o_f_h_a.png,O,m,1043,2,1,2061.099999964237,401740.2000000477,7161,VNB,C,1
2,test,5,0.0,1-Back,1,m,Mon Jun 09 2025 10:19:52 GMT-0500 (Central Daylight Time),405617.5,025_y_m_d_a.png,O,m,785,3,1,1811.7999999523163,403805.7000000477,7161,VNB,C,2
2,test,5,0.0,1-Back,0,z,Mon Jun 09 2025 10:19:52 GMT-0500 (Central Daylight Time),407717.0,015_o_m_d_a.png,O,m,1073,4,1,2095.199999988079,405621.8000000119,7161,VNB,C,3
3,test,5,0.0,1-Back,1,m,Mon Jun 09 2025 10:19:52 GMT-0500 (Central Daylight Time),409549.7000000477,019_m_f_h_a.png,O,m,813,5,1,1828.1000000238419,407721.60000002384,7161,VNB,C,4
4,test,5,0.0,1-Back,1,m,Mon Jun 09 2025 10:19:52 GMT-0500 (Central Daylight Time),411349.2000000477,022_y_f_n_a.png,O,m,773,6,1,1796.1000000238419,409553.10000002384,7161,VNB,C,5
5,test,5,1.0,1-Back,1,z,Mon Jun 09 2025 10:19:52 GMT-0500 (Central Daylight Time),413498.3000000119,012_o_f_n_a.png,O,z,1125,7,1,2145.0,411353.3000000119,7161,VNB,C,6
6,test,5,0.0,1-Back,1,m,Mon Jun 09 2025 10:19:52 GMT-0500 (Central Daylight Time),415297.90000003576,019_m_f_d_a.png,O,m,776,8,1,1796.1000000238419,413501.8000000119,7161,VNB,C,7
6,test,5,0.0,1-Back,0,m,Mon Jun 09 2025 10:19:52 GMT-0500 (Central Daylight Time),417313.8000000119,025_y_m_h_a.png,O,z,992,9,1,2011.8999999761581,415301.90000003576,7161,VNB,C,8
7,test,5,0.0,1-Back,1,m,Mon Jun 09 2025 10:19:52 GMT-0500 (Central Daylight Time),419229.90000003576,022_y_f_d_a.png,O,m,896,10,1,1912.5,417317.40000003576,7161,VNB,C,9
8,test,5,0.0,1-Back,1,m,Mon Jun 09 2025 10:19:52 GMT-0500 (Central Daylight Time),421446.10000002384,014_m_m_n_a.png,O,m,1188,11,1,2212.0,419234.10000002384,7161,VNB,C,10
8,test,5,1.0,1-Back,0,z,Mon Jun 09 2025 10:19:52 GMT-0500 (Central Daylight Time),424228.10000002384,019_m_f_n_a.png,O,m,1764,12,1,2778.399999976158,421449.7000000477,7161,VNB,C,11
8,test,5,0.0,1-Back,0,m,Mon Jun 09 2025 10:19:52 GMT-0500 (Central Daylight Time),426245.2000000477,015_o_m_h_a.png,O,z,990,13,1,2013.2000000476837,424232.0,7161,VNB,C,12
9,test,5,0.0,1-Back,1,z,Mon Jun 09 2025 10:19:52 GMT-0500 (Central Daylight Time),428893.5,014_m_m_h_a.png,O,z,1621,14,1,2644.399999976158,426249.10000002384,7161,VNB,C,13
10,test,5,1.0,1-Back,1,m,Mon Jun 09 2025 10:19:52 GMT-0500 (Central Daylight Time),430809.60000002384,012_o_f_d_a.png,O,m,893,15,1,1911.3999999761581,428898.2000000477,7161,VNB,C,14
11,test,5,0.0,1-Back,1,m,Mon Jun 09 2025 10:19:52 GMT-0500 (Central Daylight Time),433566.8000000119,025_y_m_n_a.png,O,m,1740,16,1,2753.099999964237,430813.7000000477,7161,VNB,C,15
12,test,5,0.0,1-Back,1,m,Mon Jun 09 2025 10:19:52 GMT-0500 (Central Daylight Time),435474.90000003576,022_y_f_h_a.png,O,m,892,17,1,1903.800000011921,433571.10000002384,7161,VNB,C,16
13,test,5,0.0,1-Back,1,m,Mon Jun 09 2025 10:19:52 GMT-0500 (Central Daylight Time),437523.90000003576,014_m_m_d_a.png,O,m,1032,18,1,2045.199999988079,435478.7000000477,7161,VNB,C,17
0,prac,1,0.0,2-Back,,,Mon Jun 09 2025 10:19:52 GMT-0500 (Central Daylight Time),437523.90000003576,019_m_f_n_a.png,O,space,6769,1,1,2045.199999988079,435478.7000000477,7161,VNB,C,0
0,prac,1,0.0,2-Back,,,Mon Jun 09 2025 10:19:52 GMT-0500 (Central Daylight Time),437523.90000003576,012_o_f_h_a.png,O,space,6769,2,1,2045.199999988079,435478.7000000477,7161,VNB,C,0
1,prac,1,0.0,2-Back,1,m,Mon Jun 09 2025 10:19:52 GMT-0500 (Central Daylight Time),583062.0,015_o_m_d_a.png,O,m,1293,3,1,2175.899999976158,580886.1000000238,7161,VNB,C,1
2,prac,1,1.0,2-Back,1,z,Mon Jun 09 2025 10:19:52 GMT-0500 (Central Daylight Time),585661.2000000477,014_m_m_h_a.png,O,z,1736,4,1,2592.7000000476837,583068.5,7161,VNB,C,2
2,prac,1,0.0,2-Back,0,m,Mon Jun 09 2025 10:19:52 GMT-0500 (Central Daylight Time),588193.9000000358,022_y_f_n_a.png,O,z,1639,5,1,2526.600000023842,585667.3000000119,7161,VNB,C,3
2,prac,1,1.0,2-Back,0,z,Mon Jun 09 2025 10:19:52 GMT-0500 (Central Daylight Time),591076.3000000119,015_o_m_h_a.png,O,None,2001,6,1,2876.099999964237,588200.2000000477,7161,VNB,C,4
2,prac,1,1.0,2-Back,0,z,Mon Jun 09 2025 10:19:52 GMT-0500 (Central Daylight Time),593425.6000000238,025_y_m_n_a.png,O,m,1476,7,1,2342.0,591083.6000000238,7161,VNB,C,5
2,prac,1,0.0,2-Back,0,m,Mon Jun 09 2025 10:19:52 GMT-0500 (Central Daylight Time),595991.5,019_m_f_d_a.png,O,z,1677,8,1,2560.0,593431.5,7161,VNB,C,6
3,prac,1,0.0,2-Back,1,m,Mon Jun 09 2025 10:19:52 GMT-0500 (Central Daylight Time),597557.5,012_o_f_d_a.png,O,m,683,9,1,1559.3999999761581,595998.1000000238,7161,VNB,C,7
3,prac,1,0.0,2-Back,0,m,Mon Jun 09 2025 10:19:52 GMT-0500 (Central Daylight Time),599923.6000000238,014_m_m_h_a.png,O,z,1583,10,1,2359.699999988079,597563.9000000358,7161,VNB,C,8
3,prac,1,1.0,2-Back,0,z,Mon Jun 09 2025 10:19:52 GMT-0500 (Central Daylight Time),601706.2000000477,022_y_f_d_a.png,O,m,898,11,1,1775.6000000238419,599930.6000000238,7161,VNB,C,9
4,prac,1,0.0,2-Back,1,m,Mon Jun 09 2025 10:19:52 GMT-0500 (Central Daylight Time),603872.1000000238,015_o_m_n_a.png,O,m,1282,12,1,2159.899999976158,601712.2000000477,7161,VNB,C,10
0,prac,2,0.0,2-Back,,,Mon Jun 09 2025 10:19:52 GMT-0500 (Central Daylight Time),603872.1000000238,019_m_f_n_a.png,O,a,1983,1,1,2159.899999976158,601712.2000000477,7161,VNB,C,0
0,prac,2,0.0,2-Back,,,Mon Jun 09 2025 10:19:52 GMT-0500 (Central Daylight Time),603872.1000000238,012_o_f_h_a.png,O,a,1983,2,1,2159.899999976158,601712.2000000477,7161,VNB,C,0
1,prac,2,0.0,2-Back,1,m,Mon Jun 09 2025 10:19:52 GMT-0500 (Central Daylight Time),613819.1000000238,015_o_m_d_a.png,O,m,1820,3,1,2691.5,611127.6000000238,7161,VNB,C,1
1,prac,2,1.0,2-Back,0,z,Mon Jun 09 2025 10:19:52 GMT-0500 (Central Daylight Time),616601.6000000238,014_m_m_h_a.png,O,None,2008,4,1,2775.699999988079,613825.9000000358,7161,VNB,C,2
1,prac,2,0.0,2-Back,0,m,Mon Jun 09 2025 10:19:52 GMT-0500 (Central Daylight Time),619483.9000000358,022_y_f_n_a.png,O,None,2006,5,1,2874.800000011921,616609.1000000238,7161,VNB,C,3
1,prac,2,1.0,2-Back,0,z,Mon Jun 09 2025 10:19:52 GMT-0500 (Central Daylight Time),622366.4000000358,015_o_m_h_a.png,O,None,2006,6,1,2876.100000023842,619490.3000000119,7161,VNB,C,4
1,prac,2,1.0,2-Back,0,z,Mon Jun 09 2025 10:19:52 GMT-0500 (Central Daylight Time),625232.1000000238,025_y_m_n_a.png,O,None,2008,7,1,2858.800000011921,622373.3000000119,7161,VNB,C,5
1,prac,2,0.0,2-Back,0,m,Mon Jun 09 2025 10:19:52 GMT-0500 (Central Daylight Time),628114.4000000358,019_m_f_d_a.png,O,None,2005,8,1,2874.900000035763,625239.5,7161,VNB,C,6
1,prac,2,0.0,2-Back,0,m,Mon Jun 09 2025 10:19:52 GMT-0500 (Central Daylight Time),630996.9000000358,012_o_f_d_a.png,O,None,2004,9,1,2875.300000011921,628121.6000000238,7161,VNB,C,7
1,prac,2,0.0,2-Back,0,m,Mon Jun 09 2025 10:19:52 GMT-0500 (Central Daylight Time),633779.5,014_m_m_h_a.png,O,None,2008,10,1,2775.0,631004.5,7161,VNB,C,8
1,prac,2,1.0,2-Back,0,z,Mon Jun 09 2025 10:19:52 GMT-0500 (Central Daylight Time),636661.9000000358,022_y_f_d_a.png,O,None,2006,11,1,2874.900000035763,633787.0,7161,VNB,C,9
1,prac,2,0.0,2-Back,0,m,Mon Jun 09 2025 10:19:52 GMT-0500 (Central Daylight Time),639560.9000000358,015_o_m_n_a.png,O,None,2016,12,1,2893.5,636667.4000000358,7161,VNB,C,10
0,prac,3,0.0,2-Back,,,Mon Jun 09 2025 10:19:52 GMT-0500 (Central Daylight Time),639560.9000000358,019_m_f_n_a.png,O,a,15717,1,1,2893.5,636667.4000000358,7161,VNB,C,0
0,prac,3,0.0,2-Back,,,Mon Jun 09 2025 10:19:52 GMT-0500 (Central Daylight Time),639560.9000000358,012_o_f_h_a.png,O,a,15717,2,1,2893.5,636667.4000000358,7161,VNB,C,0
1,prac,3,0.0,2-Back,1,m,Mon Jun 09 2025 10:19:52 GMT-0500 (Central Daylight Time),662503.8000000119,015_o_m_d_a.png,O,m,1083,3,1,1959.5999999642372,660544.2000000477,7161,VNB,C,1
2,prac,3,1.0,2-Back,1,z,Mon Jun 09 2025 10:19:52 GMT-0500 (Central Daylight Time),665036.3000000119,014_m_m_h_a.png,O,z,1755,4,1,2525.5,662510.8000000119,7161,VNB,C,2
2,prac,3,0.0,2-Back,0,m,Mon Jun 09 2025 10:19:52 GMT-0500 (Central Daylight Time),667918.8000000119,022_y_f_n_a.png,O,None,2005,5,1,2875.599999964237,665043.2000000477,7161,VNB,C,3
2,prac,3,1.0,2-Back,0,z,Mon Jun 09 2025 10:19:52 GMT-0500 (Central Daylight Time),669951.7000000477,015_o_m_h_a.png,O,m,1157,6,1,2026.2000000476837,667925.5,7161,VNB,C,4
2,prac,3,1.0,2-Back,0,z,Mon Jun 09 2025 10:19:52 GMT-0500 (Central Daylight Time),672100.7000000477,025_y_m_n_a.png,O,m,1288,7,1,2142.100000023842,669958.6000000238,7161,VNB,C,5
3,prac,3,0.0,2-Back,1,m,Mon Jun 09 2025 10:19:52 GMT-0500 (Central Daylight Time),673716.9000000358,019_m_f_d_a.png,O,m,730,8,1,1611.0,672105.9000000358,7161,VNB,C,6
3,prac,3,0.0,2-Back,0,m,Mon Jun 09 2025 10:19:52 GMT-0500 (Central Daylight Time),675816.2000000477,012_o_f_d_a.png,O,z,1221,9,1,2092.300000011921,673723.9000000358,7161,VNB,C,7
4,prac,3,0.0,2-Back,1,m,Mon Jun 09 2025 10:19:52 GMT-0500 (Central Daylight Time),677498.9000000358,014_m_m_h_a.png,O,m,909,10,1,1677.1000000238419,675821.8000000119,7161,VNB,C,8
4,prac,3,1.0,2-Back,0,z,Mon Jun 09 2025 10:19:52 GMT-0500 (Central Daylight Time),679898.5,022_y_f_d_a.png,O,m,1514,11,1,2393.099999964237,677505.4000000358,7161,VNB,C,9
5,prac,3,0.0,2-Back,1,m,Mon Jun 09 2025 10:19:52 GMT-0500 (Central Daylight Time),682580.6000000238,015_o_m_n_a.png,O,m,1803,12,1,2675.899999976158,679904.7000000477,7161,VNB,C,10
0,prac,4,0.0,2-Back,,,Mon Jun 09 2025 10:19:52 GMT-0500 (Central Daylight Time),682580.6000000238,019_m_f_n_a.png,O,a,1819,1,1,2675.899999976158,679904.7000000477,7161,VNB,C,0
0,prac,4,0.0,2-Back,,,Mon Jun 09 2025 10:19:52 GMT-0500 (Central Daylight Time),682580.6000000238,012_o_f_h_a.png,O,a,1819,2,1,2675.899999976158,679904.7000000477,7161,VNB,C,0
1,prac,4,0.0,2-Back,1,m,Mon Jun 09 2025 10:19:52 GMT-0500 (Central Daylight Time),692244.6000000238,015_o_m_d_a.png,O,m,1699,3,1,2575.399999976158,689669.2000000477,7161,VNB,C,1
1,prac,4,1.0,2-Back,0,z,Mon Jun 09 2025 10:19:52 GMT-0500 (Central Daylight Time),694643.8000000119,014_m_m_h_a.png,O,m,1624,4,1,2393.599999964237,692250.2000000477,7161,VNB,C,2
1,prac,4,0.0,2-Back,0,m,Mon Jun 09 2025 10:19:52 GMT-0500 (Central Daylight Time),697026.4000000358,022_y_f_n_a.png,O,z,1505,5,1,2376.0,694650.4000000358,7161,VNB,C,3
1,prac,4,1.0,2-Back,0,z,Mon Jun 09 2025 10:19:52 GMT-0500 (Central Daylight Time),698625.7000000477,015_o_m_h_a.png,O,m,706,6,1,1592.6000000238419,697033.1000000238,7161,VNB,C,4
1,prac,4,1.0,2-Back,0,z,Mon Jun 09 2025 10:19:52 GMT-0500 (Central Daylight Time),699958.8000000119,025_y_m_n_a.png,O,m,470,7,1,1325.800000011921,698633.0,7161,VNB,C,5
1,prac,4,0.0,2-Back,0,m,Mon Jun 09 2025 10:19:52 GMT-0500 (Central Daylight Time),702841.1000000238,019_m_f_d_a.png,O,None,2004,8,1,2874.5,699966.6000000238,7161,VNB,C,6
2,prac,4,0.0,2-Back,1,m,Mon Jun 09 2025 10:19:52 GMT-0500 (Central Daylight Time),704340.3000000119,012_o_f_d_a.png,O,m,617,9,1,1493.300000011921,702847.0,7161,VNB,C,7
2,prac,4,0.0,2-Back,0,m,Mon Jun 09 2025 10:19:52 GMT-0500 (Central Daylight Time),707123.2000000477,014_m_m_h_a.png,O,None,2010,10,1,2776.400000035763,704346.8000000119,7161,VNB,C,8
2,prac,4,1.0,2-Back,0,z,Mon Jun 09 2025 10:19:52 GMT-0500 (Central Daylight Time),709056.1000000238,022_y_f_d_a.png,O,m,1050,11,1,1926.6000000238419,707129.5,7161,VNB,C,9
2,prac,4,0.0,2-Back,0,m,Mon Jun 09 2025 10:19:52 GMT-0500 (Central Daylight Time),711938.3000000119,015_o_m_n_a.png,O,None,2005,12,1,2876.099999964237,709062.2000000477,7161,VNB,C,10
0,test,1,0.0,2-Back,,,Mon Jun 09 2025 10:19:52 GMT-0500 (Central Daylight Time),711938.3000000119,025_y_m_h_a.png,O,space,3111,1,1,2876.099999964237,709062.2000000477,7161,VNB,C,0
0,test,1,0.0,2-Back,,,Mon Jun 09 2025 10:19:52 GMT-0500 (Central Daylight Time),711938.3000000119,012_o_f_n_a.png,O,space,3111,2,1,2876.099999964237,709062.2000000477,7161,VNB,C,0
1,test,1,0.0,2-Back,1,z,Mon Jun 09 2025 10:19:52 GMT-0500 (Central Daylight Time),753909.5,015_o_m_h_a.png,O,z,1747,3,1,2762.7999999523163,751146.7000000477,7161,VNB,C,1
2,test,1,0.0,2-Back,1,m,Mon Jun 09 2025 10:19:52 GMT-0500 (Central Daylight Time),756241.3000000119,019_m_f_d_a.png,O,m,1302,4,1,2327.300000011921,753914.0,7161,VNB,C,2
2,test,1,1.0,2-Back,0,m,Mon Jun 09 2025 10:19:52 GMT-0500 (Central Daylight Time),758858.0,025_y_m_n_a.png,O,z,1585,5,1,2613.099999964237,756244.9000000358,7161,VNB,C,3
2,test,1,0.0,2-Back,0,z,Mon Jun 09 2025 10:19:52 GMT-0500 (Central Daylight Time),761889.4000000358,022_y_f_d_a.png,O,None,2015,6,1,3027.900000035763,758861.5,7161,VNB,C,4
3,test,1,0.0,2-Back,1,m,Mon Jun 09 2025 10:19:52 GMT-0500 (Central Daylight Time),764571.5,014_m_m_h_a.png,O,m,1665,7,1,2677.399999976158,761894.1000000238,7161,VNB,C,5
3,test,1,1.0,2-Back,0,m,Mon Jun 09 2025 10:19:52 GMT-0500 (Central Daylight Time),767504.1000000238,022_y_f_n_a.png,O,z,1902,8,1,2927.699999988079,764576.4000000358,7161,VNB,C,6
3,test,1,0.0,2-Back,0,z,Mon Jun 09 2025 10:19:52 GMT-0500 (Central Daylight Time),770536.8000000119,012_o_f_h_a.png,O,None,2016,9,1,3028.699999988079,767508.1000000238,7161,VNB,C,7
4,test,1,0.0,2-Back,1,m,Mon Jun 09 2025 10:19:52 GMT-0500 (Central Daylight Time),772985.7000000477,015_o_m_d_a.png,O,m,1417,10,1,2444.600000023842,770541.1000000238,7161,VNB,C,8
5,test,1,1.0,2-Back,1,m,Mon Jun 09 2025 10:19:52 GMT-0500 (Central Daylight Time),775651.6000000238,014_m_m_d_a.png,O,m,1641,11,1,2661.699999988079,772989.9000000358,7161,VNB,C,9
5,test,1,0.0,2-Back,0,m,Mon Jun 09 2025 10:19:52 GMT-0500 (Central Daylight Time),777917.8000000119,019_m_f_n_a.png,O,z,1246,12,1,2262.300000011921,775655.5,7161,VNB,C,10
5,test,1,0.0,2-Back,0,m,Mon Jun 09 2025 10:19:52 GMT-0500 (Central Daylight Time),780316.8000000119,022_y_f_h_a.png,O,z,1381,13,1,2395.199999988079,777921.6000000238,7161,VNB,C,11
5,test,1,0.0,2-Back,0,z,Mon Jun 09 2025 10:19:52 GMT-0500 (Central Daylight Time),782482.8000000119,014_m_m_n_a.png,O,m,1133,14,1,2162.599999964237,780320.2000000477,7161,VNB,C,12
5,test,1,0.0,2-Back,0,m,Mon Jun 09 2025 10:19:52 GMT-0500 (Central Daylight Time),784731.9000000358,025_y_m_d_a.png,O,z,1231,15,1,2245.100000023842,782486.8000000119,7161,VNB,C,13
6,test,1,1.0,2-Back,1,m,Mon Jun 09 2025 10:19:52 GMT-0500 (Central Daylight Time),787001.3000000119,019_m_f_h_a.png,O,m,1238,16,1,2266.099999964237,784735.2000000477,7161,VNB,C,14
6,test,1,0.0,2-Back,0,z,Mon Jun 09 2025 10:19:52 GMT-0500 (Central Daylight Time),789064.2000000477,012_o_f_d_a.png,O,m,1044,17,1,2058.5,787005.7000000477,7161,VNB,C,15
6,test,1,0.0,2-Back,0,m,Mon Jun 09 2025 10:19:52 GMT-0500 (Central Daylight Time),790880.3000000119,015_o_m_n_a.png,O,z,794,18,1,1812.0,789068.3000000119,7161,VNB,C,16
0,test,2,0.0,2-Back,,,Mon Jun 09 2025 10:19:52 GMT-0500 (Central Daylight Time),790880.3000000119,014_m_m_h_a.png,O,space,3018,1,1,1812.0,789068.3000000119,7161,VNB,C,0
0,test,2,0.0,2-Back,,,Mon Jun 09 2025 10:19:52 GMT-0500 (Central Daylight Time),790880.3000000119,022_y_f_n_a.png,O,space,3018,2,1,1812.0,789068.3000000119,7161,VNB,C,0
1,test,2,1.0,2-Back,1,z,Mon Jun 09 2025 10:19:52 GMT-0500 (Central Daylight Time),801276.9000000358,012_o_f_h_a.png,O,z,1106,3,1,2128.699999988079,799148.2000000477,7161,VNB,C,1
2,test,2,0.0,2-Back,1,m,Mon Jun 09 2025 10:19:52 GMT-0500 (Central Daylight Time),803676.2000000477,015_o_m_d_a.png,O,m,1374,4,1,2395.0,801281.2000000477,7161,VNB,C,2
2,test,2,0.0,2-Back,0,m,Mon Jun 09 2025 10:19:52 GMT-0500 (Central Daylight Time),806475.4000000358,019_m_f_d_a.png,O,z,1767,5,1,2794.699999988079,803680.7000000477,7161,VNB,C,3
2,test,2,0.0,2-Back,0,m,Mon Jun 09 2025 10:19:52 GMT-0500 (Central Daylight Time),809507.8000000119,025_y_m_h_a.png,O,None,2016,6,1,3028.0,806479.8000000119,7161,VNB,C,4
3,test,2,0.0,2-Back,1,m,Mon Jun 09 2025 10:19:52 GMT-0500 (Central Daylight Time),812273.5,012_o_f_n_a.png,O,m,1743,7,1,2761.0,809512.5,7161,VNB,C,5
4,test,2,1.0,2-Back,1,z,Mon Jun 09 2025 10:19:52 GMT-0500 (Central Daylight Time),814289.5,015_o_m_h_a.png,O,z,994,8,1,2011.7999999523163,812277.7000000477,7161,VNB,C,6
5,test,2,0.0,2-Back,1,m,Mon Jun 09 2025 10:19:52 GMT-0500 (Central Daylight Time),816822.1000000238,022_y_f_d_a.png,O,m,1514,9,1,2528.399999976158,814293.7000000477,7161,VNB,C,7
6,test,2,0.0,2-Back,1,m,Mon Jun 09 2025 10:19:52 GMT-0500 (Central Daylight Time),819471.3000000119,025_y_m_d_a.png,O,m,1620,10,1,2645.099999964237,816826.2000000477,7161,VNB,C,8
7,test,2,0.0,2-Back,1,m,Mon Jun 09 2025 10:19:52 GMT-0500 (Central Daylight Time),821704.0,014_m_m_n_a.png,O,m,1211,11,1,2228.199999988079,819475.8000000119,7161,VNB,C,9
8,test,2,0.0,2-Back,1,m,Mon Jun 09 2025 10:19:52 GMT-0500 (Central Daylight Time),824352.6000000238,019_m_f_h_a.png,O,m,1626,12,1,2644.199999988079,821708.4000000358,7161,VNB,C,10
9,test,2,1.0,2-Back,1,z,Mon Jun 09 2025 10:19:52 GMT-0500 (Central Daylight Time),826718.8000000119,015_o_m_n_a.png,O,z,1346,13,1,2361.099999964237,824357.7000000477,7161,VNB,C,11
10,test,2,0.0,2-Back,1,m,Mon Jun 09 2025 10:19:52 GMT-0500 (Central Daylight Time),828701.7000000477,012_o_f_d_a.png,O,m,956,14,1,1978.6000000238419,826723.1000000238,7161,VNB,C,12
10,test,2,0.0,2-Back,0,m,Mon Jun 09 2025 10:19:52 GMT-0500 (Central Daylight Time),830934.3000000119,022_y_f_h_a.png,O,z,1213,15,1,2228.800000011921,828705.5,7161,VNB,C,13
10,test,2,0.0,2-Back,0,z,Mon Jun 09 2025 10:19:52 GMT-0500 (Central Daylight Time),833400.2000000477,014_m_m_d_a.png,O,m,1445,16,1,2461.7000000476837,830938.5,7161,VNB,C,14
11,test,2,0.0,2-Back,1,m,Mon Jun 09 2025 10:19:52 GMT-0500 (Central Daylight Time),835799.8000000119,025_y_m_n_a.png,O,m,1379,17,1,2395.300000011921,833404.5,7161,VNB,C,15
12,test,2,1.0,2-Back,1,m,Mon Jun 09 2025 10:19:52 GMT-0500 (Central Daylight Time),838015.5,019_m_f_n_a.png,O,m,1196,18,1,2211.899999976158,835803.6000000238,7161,VNB,C,16
0,test,3,1.0,2-Back,,,Mon Jun 09 2025 10:19:52 GMT-0500 (Central Daylight Time),838015.5,015_o_m_n_a.png,O,space,1435,1,1,2211.899999976158,835803.6000000238,7161,VNB,C,0
0,test,3,1.0,2-Back,,,Mon Jun 09 2025 10:19:52 GMT-0500 (Central Daylight Time),838015.5,012_o_f_d_a.png,O,space,1435,2,1,2211.899999976158,835803.6000000238,7161,VNB,C,0
1,test,3,0.0,2-Back,1,m,Mon Jun 09 2025 10:19:52 GMT-0500 (Central Daylight Time),846496.2000000477,022_y_f_h_a.png,O,m,962,3,1,1977.9000000357628,844518.3000000119,7161,VNB,C,1
2,test,3,0.0,2-Back,1,z,Mon Jun 09 2025 10:19:52 GMT-0500 (Central Daylight Time),849178.4000000358,019_m_f_d_a.png,O,z,1658,4,1,2678.600000023842,846499.8000000119,7161,VNB,C,2
3,test,3,1.0,2-Back,1,m,Mon Jun 09 2025 10:19:52 GMT-0500 (Central Daylight Time),851994.5,025_y_m_n_a.png,O,m,1791,5,1,2812.199999988079,849182.3000000119,7161,VNB,C,3
4,test,3,0.0,2-Back,1,m,Mon Jun 09 2025 10:19:52 GMT-0500 (Central Daylight Time),854926.7000000477,015_o_m_h_a.png,O,m,1904,6,1,2928.800000011921,851997.9000000358,7161,VNB,C,4
5,test,3,0.0,2-Back,1,z,Mon Jun 09 2025 10:19:52 GMT-0500 (Central Daylight Time),857259.5,022_y_f_n_a.png,O,z,1308,7,1,2328.199999988079,854931.3000000119,7161,VNB,C,5
5,test,3,1.0,2-Back,0,m,Mon Jun 09 2025 10:19:52 GMT-0500 (Central Daylight Time),860292.2000000477,014_m_m_d_a.png,O,None,2016,8,1,3029.100000023842,857263.1000000238,7161,VNB,C,6
5,test,3,0.0,2-Back,0,m,Mon Jun 09 2025 10:19:52 GMT-0500 (Central Daylight Time),862841.1000000238,025_y_m_d_a.png,O,z,1517,9,1,2545.5,860295.6000000238,7161,VNB,C,7
6,test,3,0.0,2-Back,1,m,Mon Jun 09 2025 10:19:52 GMT-0500 (Central Daylight Time),865057.0,012_o_f_h_a.png,O,m,1185,10,1,2211.899999976158,862845.1000000238,7161,VNB,C,8
7,test,3,1.0,2-Back,1,m,Mon Jun 09 2025 10:19:52 GMT-0500 (Central Daylight Time),867939.4000000358,019_m_f_n_a.png,O,m,1850,11,1,2878.300000011921,865061.1000000238,7161,VNB,C,9
7,test,3,1.0,2-Back,0,z,Mon Jun 09 2025 10:19:52 GMT-0500 (Central Daylight Time),870705.2000000477,014_m_m_h_a.png,O,m,1736,12,1,2762.0,867943.2000000477,7161,VNB,C,10
8,test,3,0.0,2-Back,1,m,Mon Jun 09 2025 10:19:52 GMT-0500 (Central Daylight Time),873687.7000000477,022_y_f_d_a.png,O,m,1954,13,1,2979.300000011921,870708.4000000358,7161,VNB,C,11
8,test,3,0.0,2-Back,0,m,Mon Jun 09 2025 10:19:52 GMT-0500 (Central Daylight Time),875820.4000000358,012_o_f_n_a.png,O,z,1107,14,1,2128.900000035763,873691.5,7161,VNB,C,12
9,test,3,0.0,2-Back,1,z,Mon Jun 09 2025 10:19:52 GMT-0500 (Central Daylight Time),878452.7000000477,015_o_m_d_a.png,O,z,1614,15,1,2628.2000000476837,875824.5,7161,VNB,C,13
9,test,3,1.0,2-Back,0,m,Mon Jun 09 2025 10:19:52 GMT-0500 (Central Daylight Time),881201.7000000477,019_m_f_h_a.png,O,z,1717,16,1,2745.0,878456.7000000477,7161,VNB,C,14
10,test,3,0.0,2-Back,1,m,Mon Jun 09 2025 10:19:52 GMT-0500 (Central Daylight Time),882984.9000000358,014_m_m_n_a.png,O,m,752,17,1,1778.5,881206.4000000358,7161,VNB,C,15
11,test,3,0.0,2-Back,1,z,Mon Jun 09 2025 10:19:52 GMT-0500 (Central Daylight Time),885000.5,025_y_m_h_a.png,O,z,993,18,1,2011.7999999523163,882988.7000000477,7161,VNB,C,16
0,test,4,0.0,2-Back,,,Mon Jun 09 2025 10:19:52 GMT-0500 (Central Daylight Time),885000.5,019_m_f_n_a.png,O,space,1018,1,1,2011.7999999523163,882988.7000000477,7161,VNB,C,0
0,test,4,0.0,2-Back,,,Mon Jun 09 2025 10:19:52 GMT-0500 (Central Daylight Time),885000.5,015_o_m_n_a.png,O,space,1018,2,1,2011.7999999523163,882988.7000000477,7161,VNB,C,0
1,test,4,1.0,2-Back,1,m,Mon Jun 09 2025 10:19:52 GMT-0500 (Central Daylight Time),893181.7000000477,025_y_m_h_a.png,O,m,898,3,1,1911.9000000357628,891269.8000000119,7161,VNB,C,1
2,test,4,1.0,2-Back,1,m,Mon Jun 09 2025 10:19:52 GMT-0500 (Central Daylight Time),895364.0,012_o_f_d_a.png,O,m,1165,4,1,2178.599999964237,893185.4000000358,7161,VNB,C,2
3,test,4,0.0,2-Back,1,z,Mon Jun 09 2025 10:19:52 GMT-0500 (Central Daylight Time),897413.6000000238,015_o_m_h_a.png,O,z,1023,5,1,2045.800000011921,895367.8000000119,7161,VNB,C,3
4,test,4,0.0,2-Back,1,m,Mon Jun 09 2025 10:19:52 GMT-0500 (Central Daylight Time),899862.6000000238,014_m_m_n_a.png,O,m,1422,6,1,2444.600000023842,897418.0,7161,VNB,C,4
5,test,4,0.0,2-Back,1,m,Mon Jun 09 2025 10:19:52 GMT-0500 (Central Daylight Time),901762.3000000119,019_m_f_d_a.png,O,m,867,7,1,1896.199999988079,899866.1000000238,7161,VNB,C,5
6,test,4,0.0,2-Back,1,z,Mon Jun 09 2025 10:19:52 GMT-0500 (Central Daylight Time),904111.4000000358,022_y_f_n_a.png,O,z,1321,8,1,2345.100000023842,901766.3000000119,7161,VNB,C,6
6,test,4,1.0,2-Back,0,m,Mon Jun 09 2025 10:19:52 GMT-0500 (Central Daylight Time),906960.6000000238,012_o_f_h_a.png,O,z,1826,9,1,2845.699999988079,904114.9000000358,7161,VNB,C,7
6,test,4,0.0,2-Back,0,m,Mon Jun 09 2025 10:19:52 GMT-0500 (Central Daylight Time),909742.8000000119,014_m_m_h_a.png,O,z,1755,10,1,2778.399999976158,906964.4000000358,7161,VNB,C,8
7,test,4,0.0,2-Back,1,m,Mon Jun 09 2025 10:19:52 GMT-0500 (Central Daylight Time),911858.9000000358,022_y_f_d_a.png,O,m,1092,11,1,2112.300000011921,909746.6000000238,7161,VNB,C,9
8,test,4,0.0,2-Back,1,m,Mon Jun 09 2025 10:19:52 GMT-0500 (Central Daylight Time),914408.3000000119,025_y_m_n_a.png,O,m,1519,12,1,2545.0,911863.3000000119,7161,VNB,C,10
9,test,4,0.0,2-Back,1,z,Mon Jun 09 2025 10:19:52 GMT-0500 (Central Daylight Time),916507.5,015_o_m_d_a.png,O,z,1074,13,1,2095.7999999523163,914411.7000000477,7161,VNB,C,11
10,test,4,1.0,2-Back,1,m,Mon Jun 09 2025 10:19:52 GMT-0500 (Central Daylight Time),918673.6000000238,019_m_f_h_a.png,O,m,1143,14,1,2161.899999976158,916511.7000000477,7161,VNB,C,12
11,test,4,1.0,2-Back,1,m,Mon Jun 09 2025 10:19:52 GMT-0500 (Central Daylight Time),921339.5,022_y_f_h_a.png,O,m,1633,15,1,2661.699999988079,918677.8000000119,7161,VNB,C,13
11,test,4,0.0,2-Back,0,m,Mon Jun 09 2025 10:19:52 GMT-0500 (Central Daylight Time),923456.2000000477,012_o_f_n_a.png,O,z,1094,16,1,2113.0,921343.2000000477,7161,VNB,C,14
12,test,4,0.0,2-Back,1,m,Mon Jun 09 2025 10:19:52 GMT-0500 (Central Daylight Time),925988.1000000238,025_y_m_d_a.png,O,m,1516,17,1,2528.399999976158,923459.7000000477,7161,VNB,C,15
12,test,4,1.0,2-Back,0,m,Mon Jun 09 2025 10:19:52 GMT-0500 (Central Daylight Time),928288.5,014_m_m_d_a.png,O,z,1278,18,1,2297.399999976158,925991.1000000238,7161,VNB,C,16
0,test,5,1.0,2-Back,,,Mon Jun 09 2025 10:19:52 GMT-0500 (Central Daylight Time),928288.5,022_y_f_d_a.png,O,space,1442,1,1,2297.399999976158,925991.1000000238,7161,VNB,C,0
0,test,5,1.0,2-Back,,,Mon Jun 09 2025 10:19:52 GMT-0500 (Central Daylight Time),928288.5,012_o_f_h_a.png,O,space,1442,2,1,2297.399999976158,925991.1000000238,7161,VNB,C,0
1,test,5,1.0,2-Back,1,z,Mon Jun 09 2025 10:19:52 GMT-0500 (Central Daylight Time),937317.7000000477,015_o_m_d_a.png,O,z,1331,3,1,2345.100000023842,934972.6000000238,7161,VNB,C,1
1,test,5,1.0,2-Back,0,m,Mon Jun 09 2025 10:19:52 GMT-0500 (Central Daylight Time),940016.8000000119,019_m_f_n_a.png,O,z,1669,4,1,2695.800000011921,937321.0,7161,VNB,C,2
2,test,5,0.0,2-Back,1,m,Mon Jun 09 2025 10:19:52 GMT-0500 (Central Daylight Time),942499.5,014_m_m_h_a.png,O,m,1449,5,1,2479.399999976158,940020.1000000238,7161,VNB,C,3
2,test,5,0.0,2-Back,0,z,Mon Jun 09 2025 10:19:52 GMT-0500 (Central Daylight Time),945298.3000000119,022_y_f_n_a.png,O,m,1767,6,1,2795.199999988079,942503.1000000238,7161,VNB,C,4
2,test,5,0.0,2-Back,0,m,Mon Jun 09 2025 10:19:52 GMT-0500 (Central Daylight Time),947897.8000000119,012_o_f_d_a.png,O,z,1569,7,1,2594.399999976158,945303.4000000358,7161,VNB,C,5
2,test,5,0.0,2-Back,0,m,Mon Jun 09 2025 10:19:52 GMT-0500 (Central Daylight Time),950930.2000000477,015_o_m_h_a.png,O,None,2016,8,1,3029.0,947901.2000000477,7161,VNB,C,6
3,test,5,1.0,2-Back,1,z,Mon Jun 09 2025 10:19:52 GMT-0500 (Central Daylight Time),953445.9000000358,019_m_f_d_a.png,O,z,1496,9,1,2511.900000035763,950934.0,7161,VNB,C,7
4,test,5,0.0,2-Back,1,m,Mon Jun 09 2025 10:19:52 GMT-0500 (Central Daylight Time),955312.0,025_y_m_n_a.png,O,m,837,10,1,1862.2999999523163,953449.7000000477,7161,VNB,C,8
5,test,5,0.0,2-Back,1,m,Mon Jun 09 2025 10:19:52 GMT-0500 (Central Daylight Time),957828.2000000477,014_m_m_n_a.png,O,m,1491,11,1,2512.400000035763,955315.8000000119,7161,VNB,C,9
6,test,5,0.0,2-Back,1,m,Mon Jun 09 2025 10:19:52 GMT-0500 (Central Daylight Time),960110.6000000238,022_y_f_h_a.png,O,m,1255,12,1,2278.100000023842,957832.5,7161,VNB,C,10
6,test,5,0.0,2-Back,0,m,Mon Jun 09 2025 10:19:52 GMT-0500 (Central Daylight Time),962226.6000000238,025_y_m_d_a.png,O,z,1084,13,1,2112.600000023842,960114.0,7161,VNB,C,11
6,test,5,1.0,2-Back,0,z,Mon Jun 09 2025 10:19:52 GMT-0500 (Central Daylight Time),964625.8000000119,019_m_f_h_a.png,O,m,1375,14,1,2395.199999988079,962230.6000000238,7161,VNB,C,12
6,test,5,0.0,2-Back,0,m,Mon Jun 09 2025 10:19:52 GMT-0500 (Central Daylight Time),967074.9000000358,015_o_m_n_a.png,O,z,1416,15,1,2445.600000023842,964629.3000000119,7161,VNB,C,13
6,test,5,0.0,2-Back,0,m,Mon Jun 09 2025 10:19:52 GMT-0500 (Central Daylight Time),969257.7000000477,014_m_m_d_a.png,O,z,1151,16,1,2178.7000000476837,967079.0,7161,VNB,C,14
6,test,5,0.0,2-Back,0,z,Mon Jun 09 2025 10:19:52 GMT-0500 (Central Daylight Time),971306.8000000119,012_o_f_n_a.png,O,m,1026,17,1,2045.300000011921,969261.5,7161,VNB,C,15
6,test,5,1.0,2-Back,0,m,Mon Jun 09 2025 10:19:52 GMT-0500 (Central Daylight Time),973556.3000000119,025_y_m_h_a.png,O,z,1224,18,1,2246.199999988079,971310.1000000238,7161,VNB,C,16
