acc_sum,block,block_c,change,condition,correct,correct_response,datetime,endtime,face,project,response,response_time,row_sel,session_number,start_end,starttime,subject_id,task,task_vers,trial
0,prac,1,,1-Back,,,Wed Oct 08 2025 16:56:43 GMT-0500 (Central Daylight Time),,005_o_f_d_a.png,I,space,4848,1,1,,,8070,VNB,B,0
1,prac,1,0.0,1-Back,1.0,m,Wed Oct 08 2025 16:56:43 GMT-0500 (Central Daylight Time),89794.20000004768,020_y_f_n_a.png,I,m,815,2,1,1687.3000001907349,88106.89999985695,8070,VNB,B,1
2,prac,1,0.0,1-Back,1.0,m,Wed Oct 08 2025 16:56:43 GMT-0500 (Central Daylight Time),91860.59999990463,007_m_m_h_a.png,I,m,1174,3,1,2056.0,89804.59999990463,8070,VNB,B,2
3,prac,1,0.0,1-Back,1.0,m,Wed Oct 08 2025 16:56:43 GMT-0500 (Central Daylight Time),93560.09999990463,016_y_m_d_a.png,I,m,812,4,1,1690.5,91869.59999990463,8070,VNB,B,3
4,prac,1,0.0,1-Back,1.0,m,Wed Oct 08 2025 16:56:43 GMT-0500 (Central Daylight Time),95542.59999990463,005_o_f_n_a.png,I,m,1093,5,1,1972.2999999523163,93570.29999995232,8070,VNB,B,4
5,prac,1,1.0,1-Back,1.0,z,Wed Oct 08 2025 16:56:43 GMT-0500 (Central Daylight Time),97258.89999985695,016_y_m_n_a.png,I,z,828,6,1,1708.2999999523163,95550.59999990463,8070,VNB,B,5
6,prac,1,0.0,1-Back,1.0,m,Wed Oct 08 2025 16:56:43 GMT-0500 (Central Daylight Time),98925.0,004_o_m_h_a.png,I,m,794,7,1,1656.9000000953674,97268.09999990463,8070,VNB,B,6
7,prac,1,0.0,1-Back,1.0,m,Wed Oct 08 2025 16:56:43 GMT-0500 (Central Daylight Time),100741.09999990463,011_m_f_d_a.png,I,m,921,8,1,1806.0999999046326,98935.0,8070,VNB,B,7
8,prac,1,1.0,1-Back,1.0,z,Wed Oct 08 2025 16:56:43 GMT-0500 (Central Daylight Time),102423.59999990463,020_y_f_d_a.png,I,z,810,9,1,1673.0999999046326,100750.5,8070,VNB,B,8
9,prac,1,0.0,1-Back,1.0,m,Wed Oct 08 2025 16:56:43 GMT-0500 (Central Daylight Time),104156.5,007_m_m_n_a.png,I,m,839,10,1,1725.4000000953674,102431.09999990463,8070,VNB,B,9
9,prac,1,0.0,1-Back,0.0,m,Wed Oct 08 2025 16:56:43 GMT-0500 (Central Daylight Time),105905.89999985695,005_o_f_h_a.png,I,z,865,11,1,1740.8999998569489,104165.0,8070,VNB,B,10
10,prac,1,0.0,1-Back,1.0,m,Wed Oct 08 2025 16:56:43 GMT-0500 (Central Daylight Time),108068.20000004768,016_y_m_d_a.png,I,m,1159,12,1,2154.4000000953674,105913.79999995232,8070,VNB,B,11
0,test,1,0.0,1-Back,,,Wed Oct 08 2025 16:56:43 GMT-0500 (Central Daylight Time),108068.20000004768,020_y_f_d_a.png,I,space,4948,1,1,2154.4000000953674,105913.79999995232,8070,VNB,B,0
1,test,1,0.0,1-Back,1.0,m,Wed Oct 08 2025 16:56:43 GMT-0500 (Central Daylight Time),122800.59999990463,011_m_f_n_a.png,I,m,839,2,1,1859.0999999046326,120941.5,8070,VNB,B,1
2,test,1,0.0,1-Back,1.0,m,Wed Oct 08 2025 16:56:43 GMT-0500 (Central Daylight Time),124766.70000004768,004_o_m_h_a.png,I,m,941,3,1,1959.8000001907349,122806.89999985695,8070,VNB,B,2
3,test,1,1.0,1-Back,1.0,z,Wed Oct 08 2025 16:56:43 GMT-0500 (Central Daylight Time),126866.09999990463,007_m_m_h_a.png,I,z,1078,4,1,2092.5,124773.59999990463,8070,VNB,B,3
4,test,1,0.0,1-Back,1.0,m,Wed Oct 08 2025 16:56:43 GMT-0500 (Central Daylight Time),128582.39999985695,005_o_f_n_a.png,I,m,691,5,1,1709.8999998569489,126872.5,8070,VNB,B,4
5,test,1,0.0,1-Back,1.0,m,Wed Oct 08 2025 16:56:43 GMT-0500 (Central Daylight Time),130465.20000004768,016_y_m_d_a.png,I,m,863,6,1,1876.1000001430511,128589.09999990463,8070,VNB,B,5
6,test,1,1.0,1-Back,1.0,z,Wed Oct 08 2025 16:56:43 GMT-0500 (Central Daylight Time),132430.79999995232,011_m_f_d_a.png,I,z,884,7,1,1962.2000000476837,130468.59999990463,8070,VNB,B,6
7,test,1,0.0,1-Back,1.0,m,Wed Oct 08 2025 16:56:43 GMT-0500 (Central Daylight Time),134447.09999990463,020_y_f_h_a.png,I,m,990,8,1,2009.7999999523163,132437.29999995232,8070,VNB,B,7
8,test,1,0.0,1-Back,1.0,m,Wed Oct 08 2025 16:56:43 GMT-0500 (Central Daylight Time),136213.39999985695,004_o_m_n_a.png,I,m,742,9,1,1760.3999998569489,134453.0,8070,VNB,B,8
8,test,1,0.0,1-Back,0.0,m,Wed Oct 08 2025 16:56:43 GMT-0500 (Central Daylight Time),138012.70000004768,016_y_m_h_a.png,I,z,767,10,1,1794.1000001430511,136218.59999990463,8070,VNB,B,9
9,test,1,0.0,1-Back,1.0,m,Wed Oct 08 2025 16:56:43 GMT-0500 (Central Daylight Time),140228.5,004_o_m_d_a.png,I,m,1185,11,1,2209.600000143051,138018.89999985695,8070,VNB,B,10
10,test,1,1.0,1-Back,1.0,z,Wed Oct 08 2025 16:56:43 GMT-0500 (Central Daylight Time),142144.39999985695,005_o_f_d_a.png,I,z,897,12,1,1910.5999999046326,140233.79999995232,8070,VNB,B,11
11,test,1,0.0,1-Back,1.0,m,Wed Oct 08 2025 16:56:43 GMT-0500 (Central Daylight Time),144010.79999995232,007_m_m_n_a.png,I,m,843,13,1,1860.9000000953674,142149.89999985695,8070,VNB,B,12
12,test,1,1.0,1-Back,1.0,z,Wed Oct 08 2025 16:56:43 GMT-0500 (Central Daylight Time),146210.0,020_y_f_n_a.png,I,z,1170,14,1,2193.2999999523163,144016.70000004768,8070,VNB,B,13
13,test,1,0.0,1-Back,1.0,m,Wed Oct 08 2025 16:56:43 GMT-0500 (Central Daylight Time),148092.70000004768,011_m_f_h_a.png,I,m,859,15,1,1877.0,146215.70000004768,8070,VNB,B,14
14,test,1,0.0,1-Back,1.0,m,Wed Oct 08 2025 16:56:43 GMT-0500 (Central Daylight Time),150125.79999995232,007_m_m_d_a.png,I,m,1008,16,1,2027.7000000476837,148098.09999990463,8070,VNB,B,15
15,test,1,0.0,1-Back,1.0,m,Wed Oct 08 2025 16:56:43 GMT-0500 (Central Daylight Time),152058.09999990463,016_y_m_n_a.png,I,m,911,17,1,1926.5999999046326,150131.5,8070,VNB,B,16
16,test,1,0.0,1-Back,1.0,m,Wed Oct 08 2025 16:56:43 GMT-0500 (Central Daylight Time),154040.89999985695,005_o_f_h_a.png,I,m,955,18,1,1977.8999998569489,152063.0,8070,VNB,B,17
0,test,2,0.0,1-Back,,,Wed Oct 08 2025 16:56:43 GMT-0500 (Central Daylight Time),154040.89999985695,016_y_m_n_a.png,I,space,1380,1,1,1977.8999998569489,152063.0,8070,VNB,B,0
1,test,2,0.0,1-Back,1.0,m,Wed Oct 08 2025 16:56:43 GMT-0500 (Central Daylight Time),159439.29999995232,020_y_f_h_a.png,I,m,980,2,1,1991.7999999523163,157447.5,8070,VNB,B,1
2,test,2,1.0,1-Back,1.0,m,Wed Oct 08 2025 16:56:43 GMT-0500 (Central Daylight Time),161188.70000004768,004_o_m_n_a.png,I,m,718,3,1,1745.2000000476837,159443.5,8070,VNB,B,2
3,test,2,0.0,1-Back,1.0,m,Wed Oct 08 2025 16:56:43 GMT-0500 (Central Daylight Time),163121.59999990463,011_m_f_d_a.png,I,m,913,4,1,1926.5,161195.09999990463,8070,VNB,B,3
4,test,2,0.0,1-Back,1.0,z,Wed Oct 08 2025 16:56:43 GMT-0500 (Central Daylight Time),165020.70000004768,007_m_m_d_a.png,I,z,868,5,1,1893.5,163127.20000004768,8070,VNB,B,4
5,test,2,0.0,1-Back,1.0,m,Wed Oct 08 2025 16:56:43 GMT-0500 (Central Daylight Time),166853.5,016_y_m_h_a.png,I,m,808,6,1,1826.5,165027.0,8070,VNB,B,5
6,test,2,1.0,1-Back,1.0,z,Wed Oct 08 2025 16:56:43 GMT-0500 (Central Daylight Time),168702.79999995232,005_o_f_h_a.png,I,z,833,7,1,1843.7000000476837,166859.09999990463,8070,VNB,B,6
7,test,2,0.0,1-Back,1.0,m,Wed Oct 08 2025 16:56:43 GMT-0500 (Central Daylight Time),170485.89999985695,011_m_f_n_a.png,I,m,750,8,1,1777.5,168708.39999985695,8070,VNB,B,7
7,test,2,0.0,1-Back,0.0,m,Wed Oct 08 2025 16:56:43 GMT-0500 (Central Daylight Time),172368.59999990463,020_y_f_d_a.png,I,z,864,9,1,1878.3999998569489,170490.20000004768,8070,VNB,B,8
8,test,2,0.0,1-Back,1.0,m,Wed Oct 08 2025 16:56:43 GMT-0500 (Central Daylight Time),174201.39999985695,007_m_m_n_a.png,I,m,813,10,1,1827.0999999046326,172374.29999995232,8070,VNB,B,9
8,test,2,1.0,1-Back,0.0,m,Wed Oct 08 2025 16:56:43 GMT-0500 (Central Daylight Time),176700.79999995232,011_m_f_h_a.png,I,z,1467,11,1,2494.0,174206.79999995232,8070,VNB,B,10
9,test,2,0.0,1-Back,1.0,z,Wed Oct 08 2025 16:56:43 GMT-0500 (Central Daylight Time),178834.39999985695,004_o_m_h_a.png,I,z,1112,12,1,2128.2999999523163,176706.09999990463,8070,VNB,B,11
10,test,2,0.0,1-Back,1.0,m,Wed Oct 08 2025 16:56:43 GMT-0500 (Central Daylight Time),180566.0,016_y_m_d_a.png,I,m,700,13,1,1725.0,178841.0,8070,VNB,B,12
11,test,2,0.0,1-Back,1.0,m,Wed Oct 08 2025 16:56:43 GMT-0500 (Central Daylight Time),182732.20000004768,005_o_f_n_a.png,I,m,1135,14,1,2160.300000190735,180571.89999985695,8070,VNB,B,13
12,test,2,0.0,1-Back,1.0,z,Wed Oct 08 2025 16:56:43 GMT-0500 (Central Daylight Time),184864.79999995232,020_y_f_n_a.png,I,z,1113,15,1,2126.9000000953674,182737.89999985695,8070,VNB,B,14
13,test,2,1.0,1-Back,1.0,m,Wed Oct 08 2025 16:56:43 GMT-0500 (Central Daylight Time),186964.0,007_m_m_h_a.png,I,m,1077,16,1,2094.7000000476837,184869.29999995232,8070,VNB,B,15
14,test,2,0.0,1-Back,1.0,m,Wed Oct 08 2025 16:56:43 GMT-0500 (Central Daylight Time),188980.09999990463,005_o_f_d_a.png,I,m,985,17,1,2009.0999999046326,186971.0,8070,VNB,B,16
15,test,2,1.0,1-Back,1.0,z,Wed Oct 08 2025 16:56:43 GMT-0500 (Central Daylight Time),191545.79999995232,004_o_m_d_a.png,I,z,1545,18,1,2560.7000000476837,188985.09999990463,8070,VNB,B,17
0,test,3,1.0,1-Back,,,Wed Oct 08 2025 16:56:43 GMT-0500 (Central Daylight Time),191545.79999995232,005_o_f_h_a.png,I,space,1388,1,1,2560.7000000476837,188985.09999990463,8070,VNB,B,0
1,test,3,0.0,1-Back,1.0,m,Wed Oct 08 2025 16:56:43 GMT-0500 (Central Daylight Time),196777.89999985695,011_m_f_d_a.png,I,m,688,2,1,1711.0999999046326,195066.79999995232,8070,VNB,B,1
1,test,3,1.0,1-Back,0.0,m,Wed Oct 08 2025 16:56:43 GMT-0500 (Central Daylight Time),198710.09999990463,007_m_m_n_a.png,I,z,900,3,1,1925.7999999523163,196784.29999995232,8070,VNB,B,2
2,test,3,0.0,1-Back,1.0,z,Wed Oct 08 2025 16:56:43 GMT-0500 (Central Daylight Time),201009.39999985695,005_o_f_n_a.png,I,z,1279,4,1,2294.699999809265,198714.70000004768,8070,VNB,B,3
3,test,3,1.0,1-Back,1.0,m,Wed Oct 08 2025 16:56:43 GMT-0500 (Central Daylight Time),202842.09999990463,004_o_m_d_a.png,I,m,804,5,1,1827.3999998569489,201014.70000004768,8070,VNB,B,4
3,test,3,0.0,1-Back,0.0,m,Wed Oct 08 2025 16:56:43 GMT-0500 (Central Daylight Time),205208.39999985695,020_y_f_h_a.png,I,z,1339,6,1,2361.0,202847.39999985695,8070,VNB,B,5
4,test,3,0.0,1-Back,1.0,z,Wed Oct 08 2025 16:56:43 GMT-0500 (Central Daylight Time),207124.09999990463,016_y_m_h_a.png,I,z,893,7,1,1909.2000000476837,205214.89999985695,8070,VNB,B,6
5,test,3,0.0,1-Back,1.0,m,Wed Oct 08 2025 16:56:43 GMT-0500 (Central Daylight Time),209140.29999995232,011_m_f_n_a.png,I,m,985,8,1,2010.2999999523163,207130.0,8070,VNB,B,7
6,test,3,0.0,1-Back,1.0,m,Wed Oct 08 2025 16:56:43 GMT-0500 (Central Daylight Time),211189.70000004768,020_y_f_d_a.png,I,m,1017,9,1,2043.2000000476837,209146.5,8070,VNB,B,8
7,test,3,1.0,1-Back,1.0,m,Wed Oct 08 2025 16:56:43 GMT-0500 (Central Daylight Time),213189.09999990463,004_o_m_n_a.png,I,m,976,10,1,1993.7000000476837,211195.39999985695,8070,VNB,B,9
8,test,3,0.0,1-Back,1.0,m,Wed Oct 08 2025 16:56:43 GMT-0500 (Central Daylight Time),215221.70000004768,007_m_m_h_a.png,I,m,1009,11,1,2026.8000001907349,213194.89999985695,8070,VNB,B,10
9,test,3,0.0,1-Back,1.0,z,Wed Oct 08 2025 16:56:43 GMT-0500 (Central Daylight Time),217071.09999990463,011_m_f_h_a.png,I,z,824,12,1,1843.5999999046326,215227.5,8070,VNB,B,11
10,test,3,1.0,1-Back,1.0,m,Wed Oct 08 2025 16:56:43 GMT-0500 (Central Daylight Time),218853.89999985695,005_o_f_d_a.png,I,m,758,13,1,1777.5,217076.39999985695,8070,VNB,B,12
10,test,3,0.0,1-Back,0.0,z,Wed Oct 08 2025 16:56:43 GMT-0500 (Central Daylight Time),221053.20000004768,007_m_m_d_a.png,I,m,1175,14,1,2193.5,218859.70000004768,8070,VNB,B,13
11,test,3,0.0,1-Back,1.0,m,Wed Oct 08 2025 16:56:43 GMT-0500 (Central Daylight Time),223086.0,016_y_m_n_a.png,I,m,1016,15,1,2027.9000000953674,221058.09999990463,8070,VNB,B,14
12,test,3,1.0,1-Back,1.0,m,Wed Oct 08 2025 16:56:43 GMT-0500 (Central Daylight Time),225001.89999985695,004_o_m_h_a.png,I,m,895,16,1,1910.6999998092651,223091.20000004768,8070,VNB,B,15
13,test,3,0.0,1-Back,1.0,m,Wed Oct 08 2025 16:56:43 GMT-0500 (Central Daylight Time),226868.09999990463,016_y_m_d_a.png,I,m,819,17,1,1861.7000000476837,225006.39999985695,8070,VNB,B,16
14,test,3,1.0,1-Back,1.0,m,Wed Oct 08 2025 16:56:43 GMT-0500 (Central Daylight Time),228684.09999990463,020_y_f_n_a.png,I,m,785,18,1,1810.7999999523163,226873.29999995232,8070,VNB,B,17
0,test,4,1.0,1-Back,,,Wed Oct 08 2025 16:56:43 GMT-0500 (Central Daylight Time),228684.09999990463,007_m_m_d_a.png,I,space,1289,1,1,1810.7999999523163,226873.29999995232,8070,VNB,B,0
1,test,4,0.0,1-Back,1.0,z,Wed Oct 08 2025 16:56:43 GMT-0500 (Central Daylight Time),233766.0,004_o_m_d_a.png,I,z,742,2,1,1760.4000000953674,232005.59999990463,8070,VNB,B,1
2,test,4,0.0,1-Back,1.0,m,Wed Oct 08 2025 16:56:43 GMT-0500 (Central Daylight Time),235382.09999990463,016_y_m_h_a.png,I,m,591,3,1,1609.8999998569489,233772.20000004768,8070,VNB,B,2
3,test,4,0.0,1-Back,1.0,m,Wed Oct 08 2025 16:56:43 GMT-0500 (Central Daylight Time),237314.79999995232,011_m_f_n_a.png,I,m,911,4,1,1927.0999999046326,235387.70000004768,8070,VNB,B,3
4,test,4,1.0,1-Back,1.0,m,Wed Oct 08 2025 16:56:43 GMT-0500 (Central Daylight Time),239697.09999990463,005_o_f_h_a.png,I,m,1363,5,1,2377.5999999046326,237319.5,8070,VNB,B,4
5,test,4,0.0,1-Back,1.0,m,Wed Oct 08 2025 16:56:43 GMT-0500 (Central Daylight Time),241580.09999990463,007_m_m_n_a.png,I,m,860,6,1,1877.2999999523163,239702.79999995232,8070,VNB,B,5
6,test,4,0.0,1-Back,1.0,m,Wed Oct 08 2025 16:56:43 GMT-0500 (Central Daylight Time),243413.09999990463,016_y_m_d_a.png,I,m,809,7,1,1826.7999999523163,241586.29999995232,8070,VNB,B,6
7,test,4,1.0,1-Back,1.0,z,Wed Oct 08 2025 16:56:43 GMT-0500 (Central Daylight Time),245545.20000004768,020_y_f_d_a.png,I,z,1112,8,1,2127.800000190735,243417.39999985695,8070,VNB,B,7
8,test,4,0.0,1-Back,1.0,m,Wed Oct 08 2025 16:56:43 GMT-0500 (Central Daylight Time),247345.09999990463,011_m_f_h_a.png,I,m,772,9,1,1793.7999999523163,245551.29999995232,8070,VNB,B,8
9,test,4,0.0,1-Back,1.0,z,Wed Oct 08 2025 16:56:43 GMT-0500 (Central Daylight Time),249261.20000004768,004_o_m_h_a.png,I,z,892,10,1,1911.7000000476837,247349.5,8070,VNB,B,9
10,test,4,1.0,1-Back,1.0,m,Wed Oct 08 2025 16:56:43 GMT-0500 (Central Daylight Time),251027.20000004768,005_o_f_n_a.png,I,m,745,11,1,1758.4000000953674,249268.79999995232,8070,VNB,B,10
11,test,4,0.0,1-Back,1.0,m,Wed Oct 08 2025 16:56:43 GMT-0500 (Central Daylight Time),253243.09999990463,011_m_f_d_a.png,I,m,1194,12,1,2210.2999999523163,251032.79999995232,8070,VNB,B,11
12,test,4,0.0,1-Back,1.0,m,Wed Oct 08 2025 16:56:43 GMT-0500 (Central Daylight Time),255225.89999985695,020_y_f_n_a.png,I,m,953,13,1,1978.1999998092651,253247.70000004768,8070,VNB,B,12
13,test,4,0.0,1-Back,1.0,m,Wed Oct 08 2025 16:56:43 GMT-0500 (Central Daylight Time),257258.5,005_o_f_d_a.png,I,m,1003,14,1,2026.4000000953674,255232.09999990463,8070,VNB,B,13
14,test,4,0.0,1-Back,1.0,m,Wed Oct 08 2025 16:56:43 GMT-0500 (Central Daylight Time),259257.89999985695,020_y_f_h_a.png,I,m,970,15,1,1993.8999998569489,257264.0,8070,VNB,B,14
15,test,4,1.0,1-Back,1.0,z,Wed Oct 08 2025 16:56:43 GMT-0500 (Central Daylight Time),261024.0,007_m_m_h_a.png,I,z,738,16,1,1759.9000000953674,259264.09999990463,8070,VNB,B,15
16,test,4,0.0,1-Back,1.0,m,Wed Oct 08 2025 16:56:43 GMT-0500 (Central Daylight Time),262623.5,004_o_m_n_a.png,I,m,573,17,1,1594.7000000476837,261028.79999995232,8070,VNB,B,16
17,test,4,1.0,1-Back,1.0,z,Wed Oct 08 2025 16:56:43 GMT-0500 (Central Daylight Time),264822.59999990463,016_y_m_n_a.png,I,z,1182,18,1,2194.7000000476837,262627.89999985695,8070,VNB,B,17
0,test,5,1.0,1-Back,,,Wed Oct 08 2025 16:56:43 GMT-0500 (Central Daylight Time),264822.59999990463,004_o_m_n_a.png,I,space,1295,1,1,2194.7000000476837,262627.89999985695,8070,VNB,B,0
1,test,5,1.0,1-Back,1.0,m,Wed Oct 08 2025 16:56:43 GMT-0500 (Central Daylight Time),269954.7999999523,005_o_f_h_a.png,I,m,795,2,1,1812.4000000953674,268142.39999985695,8070,VNB,B,1
2,test,5,0.0,1-Back,1.0,m,Wed Oct 08 2025 16:56:43 GMT-0500 (Central Daylight Time),271637.2999999523,016_y_m_d_a.png,I,m,658,3,1,1677.5999999046326,269959.7000000477,8070,VNB,B,2
3,test,5,0.0,1-Back,1.0,z,Wed Oct 08 2025 16:56:43 GMT-0500 (Central Daylight Time),273436.7999999523,004_o_m_d_a.png,I,z,767,4,1,1792.0,271644.7999999523,8070,VNB,B,3
4,test,5,0.0,1-Back,1.0,m,Wed Oct 08 2025 16:56:43 GMT-0500 (Central Daylight Time),275252.89999985695,011_m_f_h_a.png,I,m,785,5,1,1808.8999998569489,273444.0,8070,VNB,B,4
5,test,5,0.0,1-Back,1.0,m,Wed Oct 08 2025 16:56:43 GMT-0500 (Central Daylight Time),276985.5,020_y_f_n_a.png,I,m,704,6,1,1726.4000000953674,275259.09999990463,8070,VNB,B,5
6,test,5,1.0,1-Back,1.0,z,Wed Oct 08 2025 16:56:43 GMT-0500 (Central Daylight Time),278835.2999999523,005_o_f_n_a.png,I,z,820,7,1,1845.5999999046326,276989.7000000477,8070,VNB,B,6
7,test,5,0.0,1-Back,1.0,m,Wed Oct 08 2025 16:56:43 GMT-0500 (Central Daylight Time),280834.2999999523,011_m_f_d_a.png,I,m,970,8,1,1993.2000000476837,278841.09999990463,8070,VNB,B,7
8,test,5,0.0,1-Back,1.0,m,Wed Oct 08 2025 16:56:43 GMT-0500 (Central Daylight Time),283350.39999985695,016_y_m_h_a.png,I,m,1482,9,1,2511.0999999046326,280839.2999999523,8070,VNB,B,8
9,test,5,0.0,1-Back,1.0,m,Wed Oct 08 2025 16:56:43 GMT-0500 (Central Daylight Time),285100.09999990463,020_y_f_d_a.png,I,m,719,10,1,1744.3999998569489,283355.7000000477,8070,VNB,B,9
10,test,5,0.0,1-Back,1.0,m,Wed Oct 08 2025 16:56:43 GMT-0500 (Central Daylight Time),286866.0,007_m_m_n_a.png,I,m,736,11,1,1761.2999999523163,285104.7000000477,8070,VNB,B,10
11,test,5,1.0,1-Back,1.0,z,Wed Oct 08 2025 16:56:43 GMT-0500 (Central Daylight Time),288815.5,011_m_f_n_a.png,I,z,931,12,1,1944.2999999523163,286871.2000000477,8070,VNB,B,11
12,test,5,0.0,1-Back,1.0,m,Wed Oct 08 2025 16:56:43 GMT-0500 (Central Daylight Time),290548.0,004_o_m_h_a.png,I,m,701,13,1,1726.7000000476837,288821.2999999523,8070,VNB,B,12
13,test,5,0.0,1-Back,1.0,z,Wed Oct 08 2025 16:56:43 GMT-0500 (Central Daylight Time),292447.2999999523,007_m_m_h_a.png,I,z,881,14,1,1894.5999999046326,290552.7000000477,8070,VNB,B,13
14,test,5,1.0,1-Back,1.0,m,Wed Oct 08 2025 16:56:43 GMT-0500 (Central Daylight Time),294196.7999999523,005_o_f_d_a.png,I,m,725,15,1,1744.4000000953674,292452.39999985695,8070,VNB,B,14
15,test,5,0.0,1-Back,1.0,m,Wed Oct 08 2025 16:56:43 GMT-0500 (Central Daylight Time),296263.2999999523,016_y_m_n_a.png,I,m,1039,16,1,2061.0,294202.2999999523,8070,VNB,B,15
16,test,5,0.0,1-Back,1.0,m,Wed Oct 08 2025 16:56:43 GMT-0500 (Central Daylight Time),298095.7000000477,020_y_f_h_a.png,I,m,806,17,1,1827.2000000476837,296268.5,8070,VNB,B,16
17,test,5,0.0,1-Back,1.0,m,Wed Oct 08 2025 16:56:43 GMT-0500 (Central Daylight Time),300061.89999985695,007_m_m_d_a.png,I,m,934,18,1,1960.8999998569489,298101.0,8070,VNB,B,17
0,prac,1,0.0,2-Back,,,Wed Oct 08 2025 16:56:43 GMT-0500 (Central Daylight Time),300061.89999985695,011_m_f_n_a.png,I,space,2810,1,1,1960.8999998569489,298101.0,8070,VNB,B,0
0,prac,1,0.0,2-Back,,,Wed Oct 08 2025 16:56:43 GMT-0500 (Central Daylight Time),300061.89999985695,005_o_f_h_a.png,I,space,2810,2,1,1960.8999998569489,298101.0,8070,VNB,B,0
1,prac,1,0.0,2-Back,1.0,m,Wed Oct 08 2025 16:56:43 GMT-0500 (Central Daylight Time),381236.2999999523,004_o_m_d_a.png,I,m,1388,3,1,2255.7999999523163,378980.5,8070,VNB,B,1
2,prac,1,1.0,2-Back,1.0,z,Wed Oct 08 2025 16:56:43 GMT-0500 (Central Daylight Time),383752.2000000477,007_m_m_h_a.png,I,z,1624,4,1,2507.800000190735,381244.39999985695,8070,VNB,B,2
2,prac,1,0.0,2-Back,0.0,m,Wed Oct 08 2025 16:56:43 GMT-0500 (Central Daylight Time),386634.59999990463,020_y_f_n_a.png,I,None,2018,5,1,2872.0,383762.59999990463,8070,VNB,B,3
3,prac,1,1.0,2-Back,1.0,z,Wed Oct 08 2025 16:56:43 GMT-0500 (Central Daylight Time),388767.5,004_o_m_h_a.png,I,z,1346,6,1,2124.2999999523163,386643.2000000477,8070,VNB,B,4
4,prac,1,1.0,2-Back,1.0,z,Wed Oct 08 2025 16:56:43 GMT-0500 (Central Daylight Time),390717.59999990463,016_y_m_n_a.png,I,z,1085,7,1,1942.7999999523163,388774.7999999523,8070,VNB,B,5
5,prac,1,0.0,2-Back,1.0,m,Wed Oct 08 2025 16:56:43 GMT-0500 (Central Daylight Time),392615.89999985695,011_m_f_d_a.png,I,m,1009,8,1,1889.3999998569489,390726.5,8070,VNB,B,6
6,prac,1,0.0,2-Back,1.0,m,Wed Oct 08 2025 16:56:43 GMT-0500 (Central Daylight Time),394898.7999999523,005_o_f_d_a.png,I,m,1401,9,1,2275.2000000476837,392623.59999990463,8070,VNB,B,7
7,prac,1,0.0,2-Back,1.0,m,Wed Oct 08 2025 16:56:43 GMT-0500 (Central Daylight Time),397048.2000000477,007_m_m_h_a.png,I,m,1362,10,1,2140.2000000476837,394908.0,8070,VNB,B,8
8,prac,1,1.0,2-Back,1.0,z,Wed Oct 08 2025 16:56:43 GMT-0500 (Central Daylight Time),399130.7000000477,020_y_f_d_a.png,I,z,1201,11,1,2073.0,397057.7000000477,8070,VNB,B,9
9,prac,1,0.0,2-Back,1.0,m,Wed Oct 08 2025 16:56:43 GMT-0500 (Central Daylight Time),401363.2999999523,004_o_m_n_a.png,I,m,1356,12,1,2224.5999999046326,399138.7000000477,8070,VNB,B,10
0,test,1,0.0,2-Back,,,Wed Oct 08 2025 16:56:43 GMT-0500 (Central Daylight Time),401363.2999999523,016_y_m_h_a.png,I,space,4415,1,1,2224.5999999046326,399138.7000000477,8070,VNB,B,0
0,test,1,0.0,2-Back,,,Wed Oct 08 2025 16:56:43 GMT-0500 (Central Daylight Time),401363.2999999523,005_o_f_n_a.png,I,space,4415,2,1,2224.5999999046326,399138.7000000477,8070,VNB,B,0
1,test,1,0.0,2-Back,1.0,z,Wed Oct 08 2025 16:56:43 GMT-0500 (Central Daylight Time),424039.2999999523,004_o_m_h_a.png,I,z,1231,3,1,2242.9000000953674,421796.39999985695,8070,VNB,B,1
2,test,1,0.0,2-Back,1.0,m,Wed Oct 08 2025 16:56:43 GMT-0500 (Central Daylight Time),426240.0,011_m_f_d_a.png,I,m,1182,4,1,2196.7000000476837,424043.2999999523,8070,VNB,B,2
3,test,1,1.0,2-Back,1.0,m,Wed Oct 08 2025 16:56:43 GMT-0500 (Central Daylight Time),429037.89999985695,016_y_m_n_a.png,I,m,1765,5,1,2791.0999999046326,426246.7999999523,8070,VNB,B,3
4,test,1,0.0,2-Back,1.0,z,Wed Oct 08 2025 16:56:43 GMT-0500 (Central Daylight Time),431353.7999999523,020_y_f_d_a.png,I,z,1296,6,1,2312.4000000953674,429041.39999985695,8070,VNB,B,4
5,test,1,0.0,2-Back,1.0,m,Wed Oct 08 2025 16:56:43 GMT-0500 (Central Daylight Time),434003.09999990463,007_m_m_h_a.png,I,m,1619,7,1,2645.5999999046326,431357.5,8070,VNB,B,5
6,test,1,1.0,2-Back,1.0,m,Wed Oct 08 2025 16:56:43 GMT-0500 (Central Daylight Time),436918.7999999523,020_y_f_n_a.png,I,m,1890,8,1,2912.0999999046326,434006.7000000477,8070,VNB,B,6
7,test,1,0.0,2-Back,1.0,z,Wed Oct 08 2025 16:56:43 GMT-0500 (Central Daylight Time),439784.2999999523,005_o_f_h_a.png,I,z,1838,9,1,2861.0999999046326,436923.2000000477,8070,VNB,B,7
8,test,1,0.0,2-Back,1.0,m,Wed Oct 08 2025 16:56:43 GMT-0500 (Central Daylight Time),442467.2000000477,004_o_m_d_a.png,I,m,1653,10,1,2677.7000000476837,439789.5,8070,VNB,B,8
9,test,1,1.0,2-Back,1.0,m,Wed Oct 08 2025 16:56:43 GMT-0500 (Central Daylight Time),445149.39999985695,007_m_m_d_a.png,I,m,1658,11,1,2678.5999999046326,442470.7999999523,8070,VNB,B,9
9,test,1,0.0,2-Back,0.0,m,Wed Oct 08 2025 16:56:43 GMT-0500 (Central Daylight Time),448048.59999990463,011_m_f_n_a.png,I,z,1872,12,1,2895.0,445153.59999990463,8070,VNB,B,10
10,test,1,0.0,2-Back,1.0,m,Wed Oct 08 2025 16:56:43 GMT-0500 (Central Daylight Time),450248.0,020_y_f_h_a.png,I,m,1172,13,1,2193.9000000953674,448054.09999990463,8070,VNB,B,11
10,test,1,0.0,2-Back,0.0,z,Wed Oct 08 2025 16:56:43 GMT-0500 (Central Daylight Time),452797.2000000477,007_m_m_n_a.png,I,m,1526,14,1,2545.0,450252.2000000477,8070,VNB,B,12
11,test,1,0.0,2-Back,1.0,m,Wed Oct 08 2025 16:56:43 GMT-0500 (Central Daylight Time),455146.5,016_y_m_d_a.png,I,m,1328,15,1,2345.600000143051,452800.89999985695,8070,VNB,B,13
12,test,1,1.0,2-Back,1.0,m,Wed Oct 08 2025 16:56:43 GMT-0500 (Central Daylight Time),457829.2000000477,011_m_f_h_a.png,I,m,1658,16,1,2678.9000000953674,455150.2999999523,8070,VNB,B,14
12,test,1,0.0,2-Back,0.0,z,Wed Oct 08 2025 16:56:43 GMT-0500 (Central Daylight Time),460528.09999990463,005_o_f_d_a.png,I,m,1671,17,1,2694.5,457833.59999990463,8070,VNB,B,15
12,test,1,0.0,2-Back,0.0,m,Wed Oct 08 2025 16:56:43 GMT-0500 (Central Daylight Time),463277.09999990463,004_o_m_n_a.png,I,z,1725,18,1,2742.0,460535.09999990463,8070,VNB,B,16
0,test,2,0.0,2-Back,,,Wed Oct 08 2025 16:56:43 GMT-0500 (Central Daylight Time),463277.09999990463,007_m_m_h_a.png,I,space,3527,1,1,2742.0,460535.09999990463,8070,VNB,B,0
0,test,2,0.0,2-Back,,,Wed Oct 08 2025 16:56:43 GMT-0500 (Central Daylight Time),463277.09999990463,020_y_f_n_a.png,I,space,3527,2,1,2742.0,460535.09999990463,8070,VNB,B,0
1,test,2,1.0,2-Back,1.0,z,Wed Oct 08 2025 16:56:43 GMT-0500 (Central Daylight Time),474107.0,005_o_f_h_a.png,I,z,1045,3,1,2061.100000143051,472045.89999985695,8070,VNB,B,1
2,test,2,0.0,2-Back,1.0,m,Wed Oct 08 2025 16:56:43 GMT-0500 (Central Daylight Time),476256.2000000477,004_o_m_d_a.png,I,m,1121,4,1,2144.300000190735,474111.89999985695,8070,VNB,B,2
3,test,2,0.0,2-Back,1.0,m,Wed Oct 08 2025 16:56:43 GMT-0500 (Central Daylight Time),478855.7000000477,011_m_f_d_a.png,I,m,1581,5,1,2594.2000000476837,476261.5,8070,VNB,B,3
4,test,2,0.0,2-Back,1.0,m,Wed Oct 08 2025 16:56:43 GMT-0500 (Central Daylight Time),481604.7999999523,016_y_m_h_a.png,I,m,1717,6,1,2744.7000000476837,478860.09999990463,8070,VNB,B,4
5,test,2,0.0,2-Back,1.0,m,Wed Oct 08 2025 16:56:43 GMT-0500 (Central Daylight Time),483887.2000000477,005_o_f_n_a.png,I,m,1264,7,1,2275.4000000953674,481611.7999999523,8070,VNB,B,5
6,test,2,1.0,2-Back,1.0,z,Wed Oct 08 2025 16:56:43 GMT-0500 (Central Daylight Time),486003.2000000477,004_o_m_h_a.png,I,z,1094,8,1,2110.300000190735,483892.89999985695,8070,VNB,B,6
7,test,2,0.0,2-Back,1.0,m,Wed Oct 08 2025 16:56:43 GMT-0500 (Central Daylight Time),488452.7999999523,020_y_f_d_a.png,I,m,1425,9,1,2445.2000000476837,486007.59999990463,8070,VNB,B,7
8,test,2,0.0,2-Back,1.0,m,Wed Oct 08 2025 16:56:43 GMT-0500 (Central Daylight Time),490918.59999990463,016_y_m_d_a.png,I,m,1440,10,1,2461.899999856949,488456.7000000477,8070,VNB,B,8
9,test,2,0.0,2-Back,1.0,m,Wed Oct 08 2025 16:56:43 GMT-0500 (Central Daylight Time),493467.7000000477,007_m_m_n_a.png,I,m,1526,11,1,2543.100000143051,490924.59999990463,8070,VNB,B,9
10,test,2,0.0,2-Back,1.0,m,Wed Oct 08 2025 16:56:43 GMT-0500 (Central Daylight Time),495950.2000000477,011_m_f_h_a.png,I,m,1457,12,1,2476.5,493473.7000000477,8070,VNB,B,10
10,test,2,1.0,2-Back,0.0,z,Wed Oct 08 2025 16:56:43 GMT-0500 (Central Daylight Time),498483.09999990463,004_o_m_n_a.png,I,m,1509,13,1,2528.5999999046326,495954.5,8070,VNB,B,11
11,test,2,0.0,2-Back,1.0,m,Wed Oct 08 2025 16:56:43 GMT-0500 (Central Daylight Time),500948.7999999523,005_o_f_d_a.png,I,m,1441,14,1,2461.5999999046326,498487.2000000477,8070,VNB,B,12
12,test,2,0.0,2-Back,1.0,m,Wed Oct 08 2025 16:56:43 GMT-0500 (Central Daylight Time),503281.2000000477,020_y_f_h_a.png,I,m,1305,15,1,2326.600000143051,500954.59999990463,8070,VNB,B,13
13,test,2,0.0,2-Back,1.0,z,Wed Oct 08 2025 16:56:43 GMT-0500 (Central Daylight Time),505414.0,007_m_m_d_a.png,I,z,1100,16,1,2129.0,503285.0,8070,VNB,B,14
14,test,2,0.0,2-Back,1.0,m,Wed Oct 08 2025 16:56:43 GMT-0500 (Central Daylight Time),507596.7000000477,016_y_m_n_a.png,I,m,1159,17,1,2177.300000190735,505419.39999985695,8070,VNB,B,15
15,test,2,1.0,2-Back,1.0,m,Wed Oct 08 2025 16:56:43 GMT-0500 (Central Daylight Time),510279.09999990463,011_m_f_n_a.png,I,m,1656,18,1,2675.5,507603.59999990463,8070,VNB,B,16
0,test,3,1.0,2-Back,,,Wed Oct 08 2025 16:56:43 GMT-0500 (Central Daylight Time),510279.09999990463,004_o_m_n_a.png,I,space,1421,1,1,2675.5,507603.59999990463,8070,VNB,B,0
0,test,3,1.0,2-Back,,,Wed Oct 08 2025 16:56:43 GMT-0500 (Central Daylight Time),510279.09999990463,005_o_f_d_a.png,I,space,1421,2,1,2675.5,507603.59999990463,8070,VNB,B,0
1,test,3,0.0,2-Back,1.0,m,Wed Oct 08 2025 16:56:43 GMT-0500 (Central Daylight Time),519059.7000000477,020_y_f_h_a.png,I,m,1277,3,1,2295.100000143051,516764.59999990463,8070,VNB,B,1
2,test,3,0.0,2-Back,1.0,z,Wed Oct 08 2025 16:56:43 GMT-0500 (Central Daylight Time),521859.0,011_m_f_d_a.png,I,z,1768,4,1,2794.2000000476837,519064.7999999523,8070,VNB,B,2
3,test,3,1.0,2-Back,1.0,m,Wed Oct 08 2025 16:56:43 GMT-0500 (Central Daylight Time),523941.39999985695,016_y_m_n_a.png,I,m,1057,5,1,2077.7999999523163,521863.59999990463,8070,VNB,B,3
4,test,3,0.0,2-Back,1.0,m,Wed Oct 08 2025 16:56:43 GMT-0500 (Central Daylight Time),526290.7999999523,004_o_m_h_a.png,I,m,1319,6,1,2344.7999999523163,523946.0,8070,VNB,B,4
4,test,3,0.0,2-Back,0.0,z,Wed Oct 08 2025 16:56:43 GMT-0500 (Central Daylight Time),528490.2000000477,020_y_f_n_a.png,I,m,1178,7,1,2194.7000000476837,526295.5,8070,VNB,B,5
5,test,3,1.0,2-Back,1.0,m,Wed Oct 08 2025 16:56:43 GMT-0500 (Central Daylight Time),530905.7999999523,007_m_m_d_a.png,I,m,1395,8,1,2411.0,528494.7999999523,8070,VNB,B,6
6,test,3,0.0,2-Back,1.0,m,Wed Oct 08 2025 16:56:43 GMT-0500 (Central Daylight Time),533455.399999857,016_y_m_d_a.png,I,m,1523,9,1,2545.0999999046326,530910.2999999523,8070,VNB,B,7
7,test,3,0.0,2-Back,1.0,m,Wed Oct 08 2025 16:56:43 GMT-0500 (Central Daylight Time),535904.399999857,005_o_f_h_a.png,I,m,1422,10,1,2444.2999999523163,533460.0999999046,8070,VNB,B,8
8,test,3,1.0,2-Back,1.0,m,Wed Oct 08 2025 16:56:43 GMT-0500 (Central Daylight Time),538187.0999999046,011_m_f_n_a.png,I,m,1253,11,1,2278.899999856949,535908.2000000477,8070,VNB,B,9
9,test,3,1.0,2-Back,1.0,z,Wed Oct 08 2025 16:56:43 GMT-0500 (Central Daylight Time),540303.2000000477,007_m_m_h_a.png,I,z,1090,12,1,2111.5,538191.7000000477,8070,VNB,B,10
10,test,3,0.0,2-Back,1.0,m,Wed Oct 08 2025 16:56:43 GMT-0500 (Central Daylight Time),542819.0,020_y_f_d_a.png,I,m,1494,13,1,2510.4000000953674,540308.5999999046,8070,VNB,B,11
11,test,3,0.0,2-Back,1.0,m,Wed Oct 08 2025 16:56:43 GMT-0500 (Central Daylight Time),545151.2000000477,005_o_f_n_a.png,I,m,1315,14,1,2327.4000000953674,542823.7999999523,8070,VNB,B,12
11,test,3,0.0,2-Back,0.0,z,Wed Oct 08 2025 16:56:43 GMT-0500 (Central Daylight Time),547500.7000000477,004_o_m_d_a.png,I,m,1318,15,1,2344.0,545156.7000000477,8070,VNB,B,13
12,test,3,1.0,2-Back,1.0,m,Wed Oct 08 2025 16:56:43 GMT-0500 (Central Daylight Time),549683.2000000477,011_m_f_h_a.png,I,m,1161,16,1,2177.100000143051,547506.0999999046,8070,VNB,B,14
13,test,3,0.0,2-Back,1.0,m,Wed Oct 08 2025 16:56:43 GMT-0500 (Central Daylight Time),551967.0,007_m_m_n_a.png,I,m,1265,17,1,2280.2000000476837,549686.7999999523,8070,VNB,B,15
13,test,3,0.0,2-Back,0.0,z,Wed Oct 08 2025 16:56:43 GMT-0500 (Central Daylight Time),554415.2999999523,016_y_m_h_a.png,I,m,1430,18,1,2443.0999999046326,551972.2000000477,8070,VNB,B,16
0,test,4,0.0,2-Back,,,Wed Oct 08 2025 16:56:43 GMT-0500 (Central Daylight Time),554415.2999999523,011_m_f_n_a.png,I,space,1286,1,1,2443.0999999046326,551972.2000000477,8070,VNB,B,0
0,test,4,0.0,2-Back,,,Wed Oct 08 2025 16:56:43 GMT-0500 (Central Daylight Time),554415.2999999523,004_o_m_n_a.png,I,space,1286,2,1,2443.0999999046326,551972.2000000477,8070,VNB,B,0
1,test,4,1.0,2-Back,1.0,m,Wed Oct 08 2025 16:56:43 GMT-0500 (Central Daylight Time),562895.899999857,016_y_m_h_a.png,I,m,946,3,1,1960.7999999523163,560935.0999999046,8070,VNB,B,1
2,test,4,1.0,2-Back,1.0,m,Wed Oct 08 2025 16:56:43 GMT-0500 (Central Daylight Time),565178.399999857,005_o_f_d_a.png,I,m,1261,4,1,2278.5999999046326,562899.7999999523,8070,VNB,B,2
3,test,4,0.0,2-Back,1.0,z,Wed Oct 08 2025 16:56:43 GMT-0500 (Central Daylight Time),567027.899999857,004_o_m_h_a.png,I,z,827,5,1,1845.1999998092651,565182.7000000477,8070,VNB,B,3
4,test,4,0.0,2-Back,1.0,m,Wed Oct 08 2025 16:56:43 GMT-0500 (Central Daylight Time),568994.0,007_m_m_n_a.png,I,m,944,6,1,1962.0,567032.0,8070,VNB,B,4
5,test,4,0.0,2-Back,1.0,m,Wed Oct 08 2025 16:56:43 GMT-0500 (Central Daylight Time),571076.7000000477,011_m_f_d_a.png,I,m,1058,7,1,2077.600000143051,568999.0999999046,8070,VNB,B,5
6,test,4,0.0,2-Back,1.0,z,Wed Oct 08 2025 16:56:43 GMT-0500 (Central Daylight Time),573042.5,020_y_f_n_a.png,I,z,944,8,1,1961.1000001430511,571081.399999857,8070,VNB,B,6
7,test,4,1.0,2-Back,1.0,m,Wed Oct 08 2025 16:56:43 GMT-0500 (Central Daylight Time),575158.5,005_o_f_h_a.png,I,m,1089,9,1,2110.2000000476837,573048.2999999523,8070,VNB,B,7
8,test,4,0.0,2-Back,1.0,m,Wed Oct 08 2025 16:56:43 GMT-0500 (Central Daylight Time),577358.5999999046,007_m_m_h_a.png,I,m,1183,10,1,2195.399999856949,575163.2000000477,8070,VNB,B,8
9,test,4,0.0,2-Back,1.0,m,Wed Oct 08 2025 16:56:43 GMT-0500 (Central Daylight Time),579602.2999999523,020_y_f_d_a.png,I,m,1227,11,1,2238.7999999523163,577363.5,8070,VNB,B,9
10,test,4,0.0,2-Back,1.0,m,Wed Oct 08 2025 16:56:43 GMT-0500 (Central Daylight Time),581773.5,016_y_m_n_a.png,I,m,1142,12,1,2167.0,579606.5,8070,VNB,B,10
11,test,4,0.0,2-Back,1.0,z,Wed Oct 08 2025 16:56:43 GMT-0500 (Central Daylight Time),584322.7000000477,004_o_m_d_a.png,I,z,1528,13,1,2545.2000000476837,581777.5,8070,VNB,B,11
12,test,4,1.0,2-Back,1.0,m,Wed Oct 08 2025 16:56:43 GMT-0500 (Central Daylight Time),586405.2000000477,011_m_f_h_a.png,I,m,1058,14,1,2077.7000000476837,584327.5,8070,VNB,B,12
13,test,4,1.0,2-Back,1.0,m,Wed Oct 08 2025 16:56:43 GMT-0500 (Central Daylight Time),589004.2000000477,020_y_f_h_a.png,I,m,1568,15,1,2594.600000143051,586409.5999999046,8070,VNB,B,13
14,test,4,0.0,2-Back,1.0,m,Wed Oct 08 2025 16:56:43 GMT-0500 (Central Daylight Time),591436.5999999046,005_o_f_n_a.png,I,m,1408,16,1,2427.899999856949,589008.7000000477,8070,VNB,B,14
14,test,4,0.0,2-Back,0.0,m,Wed Oct 08 2025 16:56:43 GMT-0500 (Central Daylight Time),594369.2000000477,016_y_m_d_a.png,I,z,1912,17,1,2927.7000000476837,591441.5,8070,VNB,B,15
15,test,4,1.0,2-Back,1.0,m,Wed Oct 08 2025 16:56:43 GMT-0500 (Central Daylight Time),596768.5999999046,007_m_m_d_a.png,I,m,1372,18,1,2394.7999999523163,594373.7999999523,8070,VNB,B,16
0,test,5,1.0,2-Back,,,Wed Oct 08 2025 16:56:43 GMT-0500 (Central Daylight Time),596768.5999999046,020_y_f_d_a.png,I,space,2533,1,1,2394.7999999523163,594373.7999999523,8070,VNB,B,0
0,test,5,1.0,2-Back,,,Wed Oct 08 2025 16:56:43 GMT-0500 (Central Daylight Time),596768.5999999046,005_o_f_h_a.png,I,space,2533,2,1,2394.7999999523163,594373.7999999523,8070,VNB,B,0
1,test,5,1.0,2-Back,1.0,z,Wed Oct 08 2025 16:56:43 GMT-0500 (Central Daylight Time),606665.7999999523,004_o_m_d_a.png,I,z,1088,3,1,2111.9000000953674,604553.899999857,8070,VNB,B,1
2,test,5,1.0,2-Back,1.0,m,Wed Oct 08 2025 16:56:43 GMT-0500 (Central Daylight Time),608881.5,011_m_f_n_a.png,I,m,1188,4,1,2211.5,606670.0,8070,VNB,B,2
2,test,5,0.0,2-Back,0.0,m,Wed Oct 08 2025 16:56:43 GMT-0500 (Central Daylight Time),610914.2000000477,007_m_m_h_a.png,I,z,1012,5,1,2028.2000000476837,608886.0,8070,VNB,B,3
3,test,5,0.0,2-Back,1.0,z,Wed Oct 08 2025 16:56:43 GMT-0500 (Central Daylight Time),612963.7000000477,020_y_f_n_a.png,I,z,1018,6,1,2045.0,610918.7000000477,8070,VNB,B,4
4,test,5,0.0,2-Back,1.0,m,Wed Oct 08 2025 16:56:43 GMT-0500 (Central Daylight Time),615462.5999999046,005_o_f_d_a.png,I,m,1482,7,1,2494.2000000476837,612968.399999857,8070,VNB,B,5
5,test,5,0.0,2-Back,1.0,m,Wed Oct 08 2025 16:56:43 GMT-0500 (Central Daylight Time),618228.7000000477,004_o_m_h_a.png,I,m,1735,8,1,2761.7000000476837,615467.0,8070,VNB,B,6
5,test,5,1.0,2-Back,0.0,z,Wed Oct 08 2025 16:56:43 GMT-0500 (Central Daylight Time),620911.0999999046,011_m_f_d_a.png,I,m,1656,9,1,2678.5,618232.5999999046,8070,VNB,B,7
6,test,5,0.0,2-Back,1.0,m,Wed Oct 08 2025 16:56:43 GMT-0500 (Central Daylight Time),623210.2999999523,016_y_m_n_a.png,I,m,1270,10,1,2295.0999999046326,620915.2000000477,8070,VNB,B,8
7,test,5,0.0,2-Back,1.0,m,Wed Oct 08 2025 16:56:43 GMT-0500 (Central Daylight Time),625525.899999857,007_m_m_n_a.png,I,m,1298,11,1,2311.699999809265,623214.2000000477,8070,VNB,B,9
8,test,5,0.0,2-Back,1.0,m,Wed Oct 08 2025 16:56:43 GMT-0500 (Central Daylight Time),627725.2999999523,020_y_f_h_a.png,I,m,1167,12,1,2195.5,625529.7999999523,8070,VNB,B,10
9,test,5,0.0,2-Back,1.0,m,Wed Oct 08 2025 16:56:43 GMT-0500 (Central Daylight Time),629991.2999999523,016_y_m_d_a.png,I,m,1248,13,1,2258.5,627732.7999999523,8070,VNB,B,11
9,test,5,1.0,2-Back,0.0,z,Wed Oct 08 2025 16:56:43 GMT-0500 (Central Daylight Time),632474.2000000477,011_m_f_h_a.png,I,m,1462,14,1,2478.800000190735,629995.399999857,8070,VNB,B,12
9,test,5,0.0,2-Back,0.0,m,Wed Oct 08 2025 16:56:43 GMT-0500 (Central Daylight Time),634756.5999999046,004_o_m_n_a.png,I,z,1258,15,1,2278.399999856949,632478.2000000477,8070,VNB,B,13
10,test,5,0.0,2-Back,1.0,m,Wed Oct 08 2025 16:56:43 GMT-0500 (Central Daylight Time),636939.5,007_m_m_d_a.png,I,m,1160,16,1,2175.9000000953674,634763.5999999046,8070,VNB,B,14
10,test,5,0.0,2-Back,0.0,z,Wed Oct 08 2025 16:56:43 GMT-0500 (Central Daylight Time),639322.0999999046,005_o_f_n_a.png,I,m,1362,17,1,2378.399999856949,636943.7000000477,8070,VNB,B,15
11,test,5,1.0,2-Back,1.0,m,Wed Oct 08 2025 16:56:43 GMT-0500 (Central Daylight Time),641838.0,016_y_m_h_a.png,I,m,1492,18,1,2511.7000000476837,639326.2999999523,8070,VNB,B,16
