Number,acc_sum,block,block_c,block_cond,con_img,correct,correct_response,datetime,endtime,jitter,project,response,response_time,row_sel,session_number,start_end,starttime,subject_id,task,task_vers,trial
1,0,prac,1,A,circle.png,0,z,Wed Jun 03 2026 09:23:52 GMT-0400 (Eastern Daylight Time),107971.30000019073,1000,I,None,1513,1,2,3288.7000002861023,104682.59999990463,9067,NTS,A,1
4,1,prac,1,A,circle.png,1,z,Wed Jun 03 2026 09:23:52 GMT-0400 (Eastern Daylight Time),111021.40000009537,1400,I,z,846,4,2,3038.800000190735,107982.59999990463,9067,NTS,A,2
7,2,prac,1,A,circle.png,1,m,Wed Jun 03 2026 09:23:52 GMT-0400 (Eastern Daylight Time),114371.30000019073,1700,I,m,858,6,2,3337.6000003814697,111033.69999980927,9067,NTS,A,3
9,3,prac,1,A,circle.png,1,m,Wed Jun 03 2026 09:23:52 GMT-0400 (Eastern Daylight Time),117338.09999990463,1500,I,m,668,8,2,2954.7999997138977,114383.30000019073,9067,NTS,A,4
8,4,prac,1,A,circle.png,1,m,Wed Jun 03 2026 09:23:52 GMT-0400 (Eastern Daylight Time),120338.0,1600,I,m,609,7,2,2988.300000190735,117349.69999980927,9067,NTS,A,5
2,5,prac,1,A,circle.png,1,z,Wed Jun 03 2026 09:23:52 GMT-0400 (Eastern Daylight Time),123804.69999980927,2000,I,z,666,2,2,3454.699999809265,120350.0,9067,NTS,A,6
7,6,prac,1,A,circle.png,1,m,Wed Jun 03 2026 09:23:52 GMT-0400 (Eastern Daylight Time),126838.0,1700,I,m,540,6,2,3021.0999999046326,123816.90000009537,9067,NTS,A,7
6,7,prac,1,A,circle.png,1,m,Wed Jun 03 2026 09:23:52 GMT-0400 (Eastern Daylight Time),130137.59999990463,1900,I,m,602,5,2,3287.4000000953674,126850.19999980927,9067,NTS,A,8
9,8,prac,1,A,circle.png,1,m,Wed Jun 03 2026 09:23:52 GMT-0400 (Eastern Daylight Time),133021.30000019073,1500,I,m,582,8,2,2873.5,130147.80000019073,9067,NTS,A,9
4,9,prac,1,A,circle.png,1,z,Wed Jun 03 2026 09:23:52 GMT-0400 (Eastern Daylight Time),135838.0,1400,I,z,631,4,2,2803.0999999046326,133034.90000009537,9067,NTS,A,10
6,10,prac,1,A,circle.png,1,m,Wed Jun 03 2026 09:23:52 GMT-0400 (Eastern Daylight Time),139088.09999990463,1900,I,m,562,5,2,3238.199999809265,135849.90000009537,9067,NTS,A,11
3,11,prac,1,A,circle.png,1,z,Wed Jun 03 2026 09:23:52 GMT-0400 (Eastern Daylight Time),141854.80000019073,1200,I,z,781,3,2,2755.5,139099.30000019073,9067,NTS,A,12
6,1,prac,1,B,triangle.png,1,m,Wed Jun 03 2026 09:23:52 GMT-0400 (Eastern Daylight Time),175021.30000019073,1000,I,m,766,5,2,2556.5,172464.80000019073,9067,NTS,A,1
8,2,prac,1,B,triangle.png,1,m,Wed Jun 03 2026 09:23:52 GMT-0400 (Eastern Daylight Time),177721.30000019073,1200,I,m,703,7,2,2686.4000000953674,175034.90000009537,9067,NTS,A,2
8,3,prac,1,B,triangle.png,1,m,Wed Jun 03 2026 09:23:52 GMT-0400 (Eastern Daylight Time),180354.69999980927,1200,I,m,643,7,2,2623.0,177731.69999980927,9067,NTS,A,3
4,4,prac,1,B,triangle.png,1,m,Wed Jun 03 2026 09:23:52 GMT-0400 (Eastern Daylight Time),183370.90000009537,1500,I,m,718,4,2,3003.800000190735,180367.09999990463,9067,NTS,A,4
4,5,prac,1,B,triangle.png,1,m,Wed Jun 03 2026 09:23:52 GMT-0400 (Eastern Daylight Time),186204.80000019073,1500,I,m,533,4,2,2827.0,183377.80000019073,9067,NTS,A,5
6,6,prac,1,B,triangle.png,1,m,Wed Jun 03 2026 09:23:52 GMT-0400 (Eastern Daylight Time),188604.69999980927,1000,I,m,600,5,2,2386.0999999046326,186218.59999990463,9067,NTS,A,6
1,7,prac,1,B,triangle.png,1,z,Wed Jun 03 2026 09:23:52 GMT-0400 (Eastern Daylight Time),191854.80000019073,1900,I,z,564,1,2,3238.9000000953674,188615.90000009537,9067,NTS,A,7
7,8,prac,1,B,triangle.png,1,z,Wed Jun 03 2026 09:23:52 GMT-0400 (Eastern Daylight Time),195288.0,2000,I,z,638,6,2,3420.5,191867.5,9067,NTS,A,8
2,9,prac,1,B,triangle.png,1,m,Wed Jun 03 2026 09:23:52 GMT-0400 (Eastern Daylight Time),198721.5,1700,I,m,945,2,2,3422.300000190735,195299.19999980927,9067,NTS,A,9
9,9,prac,1,B,triangle.png,0,z,Wed Jun 03 2026 09:23:52 GMT-0400 (Eastern Daylight Time),201521.30000019073,1400,I,m,611,8,2,2787.0,198734.30000019073,9067,NTS,A,10
9,10,prac,1,B,triangle.png,1,z,Wed Jun 03 2026 09:23:52 GMT-0400 (Eastern Daylight Time),204421.40000009537,1400,I,z,707,8,2,2889.300000190735,201532.09999990463,9067,NTS,A,11
3,11,prac,1,B,triangle.png,1,z,Wed Jun 03 2026 09:23:52 GMT-0400 (Eastern Daylight Time),207471.5,1600,I,z,663,3,2,3039.300000190735,204432.19999980927,9067,NTS,A,12
7,1,test,1,A,circle.png,1,m,Wed Jun 03 2026 09:23:52 GMT-0400 (Eastern Daylight Time),233771.5,1700,I,m,651,6,2,2373.5999999046326,231397.90000009537,9067,NTS,A,1
8,2,test,1,A,circle.png,1,m,Wed Jun 03 2026 09:23:52 GMT-0400 (Eastern Daylight Time),236054.69999980927,1600,I,m,657,7,2,2271.199999809265,233783.5,9067,NTS,A,2
6,3,test,1,A,circle.png,1,m,Wed Jun 03 2026 09:23:52 GMT-0400 (Eastern Daylight Time),238688.0,1900,I,m,713,5,2,2624.4000000953674,236063.59999990463,9067,NTS,A,3
6,4,test,1,A,circle.png,1,m,Wed Jun 03 2026 09:23:52 GMT-0400 (Eastern Daylight Time),241254.69999980927,1900,I,m,640,5,2,2557.699999809265,238697.0,9067,NTS,A,4
6,5,test,1,A,circle.png,1,m,Wed Jun 03 2026 09:23:52 GMT-0400 (Eastern Daylight Time),243721.19999980927,1900,I,m,538,5,2,2457.199999809265,241264.0,9067,NTS,A,5
9,6,test,1,A,circle.png,1,m,Wed Jun 03 2026 09:23:52 GMT-0400 (Eastern Daylight Time),245821.30000019073,1500,I,m,566,8,2,2091.300000190735,243730.0,9067,NTS,A,6
1,7,test,1,A,circle.png,1,z,Wed Jun 03 2026 09:23:52 GMT-0400 (Eastern Daylight Time),247438.0,1000,I,z,583,1,2,1607.8000001907349,245830.19999980927,9067,NTS,A,7
7,8,test,1,A,circle.png,1,m,Wed Jun 03 2026 09:23:52 GMT-0400 (Eastern Daylight Time),249754.19999980927,1700,I,m,583,6,2,2307.2999997138977,247446.90000009537,9067,NTS,A,8
4,9,test,1,A,circle.png,1,z,Wed Jun 03 2026 09:23:52 GMT-0400 (Eastern Daylight Time),251971.19999980927,1400,I,z,793,4,2,2210.8999996185303,249760.30000019073,9067,NTS,A,9
7,10,test,1,A,circle.png,1,m,Wed Jun 03 2026 09:23:52 GMT-0400 (Eastern Daylight Time),254321.30000019073,1700,I,m,627,6,2,2341.6000003814697,251979.69999980927,9067,NTS,A,10
2,11,test,1,A,circle.png,1,z,Wed Jun 03 2026 09:23:52 GMT-0400 (Eastern Daylight Time),257021.30000019073,2000,I,z,667,2,2,2688.800000190735,254332.5,9067,NTS,A,11
8,12,test,1,A,circle.png,1,m,Wed Jun 03 2026 09:23:52 GMT-0400 (Eastern Daylight Time),259221.40000009537,1600,I,m,575,7,2,2190.5999999046326,257030.80000019073,9067,NTS,A,12
3,13,test,1,A,circle.png,1,z,Wed Jun 03 2026 09:23:52 GMT-0400 (Eastern Daylight Time),261104.69999980927,1200,I,z,663,3,2,1874.5999999046326,259230.09999990463,9067,NTS,A,13
1,14,test,1,A,circle.png,1,z,Wed Jun 03 2026 09:23:52 GMT-0400 (Eastern Daylight Time),262754.69999980927,1000,I,z,627,1,2,1640.6999998092651,261114.0,9067,NTS,A,14
3,15,test,1,A,circle.png,1,z,Wed Jun 03 2026 09:23:52 GMT-0400 (Eastern Daylight Time),264821.40000009537,1200,I,z,841,3,2,2057.2000002861023,262764.19999980927,9067,NTS,A,15
2,16,test,1,A,circle.png,1,z,Wed Jun 03 2026 09:23:52 GMT-0400 (Eastern Daylight Time),267554.59999990463,2000,I,z,710,2,2,2724.9000000953674,264829.69999980927,9067,NTS,A,16
9,17,test,1,A,circle.png,1,m,Wed Jun 03 2026 09:23:52 GMT-0400 (Eastern Daylight Time),269654.59999990463,1500,I,m,573,8,2,2090.2999997138977,267564.30000019073,9067,NTS,A,17
7,18,test,1,A,circle.png,1,m,Wed Jun 03 2026 09:23:52 GMT-0400 (Eastern Daylight Time),271938.0,1700,I,m,561,6,2,2274.0,269664.0,9067,NTS,A,18
6,19,test,1,A,circle.png,1,m,Wed Jun 03 2026 09:23:52 GMT-0400 (Eastern Daylight Time),274354.69999980927,1900,I,m,494,5,2,2407.5999999046326,271947.09999990463,9067,NTS,A,19
3,20,test,1,A,circle.png,1,z,Wed Jun 03 2026 09:23:52 GMT-0400 (Eastern Daylight Time),276255.09999990463,1200,I,z,680,3,2,1890.9000000953674,274364.19999980927,9067,NTS,A,20
4,21,test,1,A,circle.png,1,z,Wed Jun 03 2026 09:23:52 GMT-0400 (Eastern Daylight Time),278554.59999990463,1400,I,z,869,4,2,2290.199999809265,276264.40000009537,9067,NTS,A,21
4,22,test,1,A,circle.png,1,z,Wed Jun 03 2026 09:23:52 GMT-0400 (Eastern Daylight Time),280654.69999980927,1400,I,z,664,4,2,2086.699999809265,278568.0,9067,NTS,A,22
9,23,test,1,A,circle.png,1,m,Wed Jun 03 2026 09:23:52 GMT-0400 (Eastern Daylight Time),282838.0,1500,I,m,657,8,2,2172.5,280665.5,9067,NTS,A,23
2,24,test,1,A,circle.png,1,z,Wed Jun 03 2026 09:23:52 GMT-0400 (Eastern Daylight Time),285471.09999990463,2000,I,z,614,2,2,2624.4000000953674,282846.69999980927,9067,NTS,A,24
1,1,test,1,B,triangle.png,1,z,Wed Jun 03 2026 09:23:52 GMT-0400 (Eastern Daylight Time),303471.09999990463,1900,I,z,581,1,2,2491.9000000953674,300979.19999980927,9067,NTS,A,1
2,2,test,1,B,triangle.png,1,m,Wed Jun 03 2026 09:23:52 GMT-0400 (Eastern Daylight Time),305504.69999980927,1200,I,m,813,10,2,2023.1999998092651,303481.5,9067,NTS,A,2
4,3,test,1,B,triangle.png,1,m,Wed Jun 03 2026 09:23:52 GMT-0400 (Eastern Daylight Time),307838.0,1500,I,m,800,4,2,2324.5,305513.5,9067,NTS,A,3
1,4,test,1,B,triangle.png,1,z,Wed Jun 03 2026 09:23:52 GMT-0400 (Eastern Daylight Time),309837.59999990463,1400,I,z,582,9,2,1991.1999998092651,307846.40000009537,9067,NTS,A,4
9,5,test,1,B,triangle.png,1,z,Wed Jun 03 2026 09:23:52 GMT-0400 (Eastern Daylight Time),311988.0,1400,I,z,727,8,2,2145.0999999046326,309842.90000009537,9067,NTS,A,5
3,6,test,1,B,triangle.png,1,z,Wed Jun 03 2026 09:23:52 GMT-0400 (Eastern Daylight Time),314737.90000009537,2000,I,z,729,11,2,2741.7000002861023,311996.19999980927,9067,NTS,A,6
8,7,test,1,B,triangle.png,1,m,Wed Jun 03 2026 09:23:52 GMT-0400 (Eastern Daylight Time),317154.59999990463,1700,I,m,694,15,2,2406.0,314748.59999990463,9067,NTS,A,7
7,8,test,1,B,triangle.png,1,z,Wed Jun 03 2026 09:23:52 GMT-0400 (Eastern Daylight Time),319854.80000019073,2000,I,z,682,6,2,2690.6000003814697,317164.19999980927,9067,NTS,A,8
6,9,test,1,B,triangle.png,1,m,Wed Jun 03 2026 09:23:52 GMT-0400 (Eastern Daylight Time),321588.0,1000,I,m,710,5,2,1724.6999998092651,319863.30000019073,9067,NTS,A,9
1,10,test,1,B,triangle.png,1,z,Wed Jun 03 2026 09:23:52 GMT-0400 (Eastern Daylight Time),323588.0,1400,I,z,578,9,2,1991.4000000953674,321596.59999990463,9067,NTS,A,10
8,11,test,1,B,triangle.png,1,m,Wed Jun 03 2026 09:23:52 GMT-0400 (Eastern Daylight Time),325404.69999980927,1200,I,m,585,7,2,1807.7999997138977,323596.90000009537,9067,NTS,A,11
6,12,test,1,B,triangle.png,1,m,Wed Jun 03 2026 09:23:52 GMT-0400 (Eastern Daylight Time),327654.69999980927,1500,I,m,724,13,2,2239.7999997138977,325414.90000009537,9067,NTS,A,12
4,13,test,1,B,triangle.png,1,m,Wed Jun 03 2026 09:23:52 GMT-0400 (Eastern Daylight Time),329388.0,1000,I,m,702,12,2,1725.0,327663.0,9067,NTS,A,13
3,14,test,1,B,triangle.png,1,z,Wed Jun 03 2026 09:23:52 GMT-0400 (Eastern Daylight Time),332071.5,2000,I,z,656,11,2,2674.300000190735,329397.19999980927,9067,NTS,A,14
6,15,test,1,B,triangle.png,1,m,Wed Jun 03 2026 09:23:52 GMT-0400 (Eastern Daylight Time),333771.19999980927,1000,I,m,670,5,2,1688.5,332082.69999980927,9067,NTS,A,15
8,16,test,1,B,triangle.png,1,m,Wed Jun 03 2026 09:23:52 GMT-0400 (Eastern Daylight Time),336154.69999980927,1700,I,m,653,15,2,2374.699999809265,333780.0,9067,NTS,A,16
1,17,test,1,B,triangle.png,1,z,Wed Jun 03 2026 09:23:52 GMT-0400 (Eastern Daylight Time),338771.30000019073,1900,I,z,694,1,2,2607.6000003814697,336163.69999980927,9067,NTS,A,17
7,17,test,1,B,triangle.png,0,z,Wed Jun 03 2026 09:23:52 GMT-0400 (Eastern Daylight Time),341238.09999990463,1600,I,m,841,14,2,2458.699999809265,338779.40000009537,9067,NTS,A,18
9,17,test,1,B,triangle.png,0,z,Wed Jun 03 2026 09:23:52 GMT-0400 (Eastern Daylight Time),343821.40000009537,1900,I,m,650,16,2,2574.5,341246.90000009537,9067,NTS,A,19
2,17,test,1,B,triangle.png,0,m,Wed Jun 03 2026 09:23:52 GMT-0400 (Eastern Daylight Time),346171.40000009537,1700,I,z,619,2,2,2341.5999999046326,343829.80000019073,9067,NTS,A,20
2,17,test,1,B,triangle.png,0,m,Wed Jun 03 2026 09:23:52 GMT-0400 (Eastern Daylight Time),348771.40000009537,1700,I,z,877,2,2,2590.800000190735,346180.59999990463,9067,NTS,A,21
8,18,test,1,B,triangle.png,1,m,Wed Jun 03 2026 09:23:52 GMT-0400 (Eastern Daylight Time),351204.69999980927,1200,I,m,1209,7,2,2424.199999809265,348780.5,9067,NTS,A,22
9,19,test,1,B,triangle.png,1,z,Wed Jun 03 2026 09:23:52 GMT-0400 (Eastern Daylight Time),353838.09999990463,1900,I,z,700,16,2,2624.4000000953674,351213.69999980927,9067,NTS,A,23
3,20,test,1,B,triangle.png,1,z,Wed Jun 03 2026 09:23:52 GMT-0400 (Eastern Daylight Time),356371.30000019073,1600,I,z,911,3,2,2524.5,353846.80000019073,9067,NTS,A,24
4,0,prac,1,C,circle.png,0,z,Wed Jun 03 2026 09:23:52 GMT-0400 (Eastern Daylight Time),423571.5,1000,I,m,876,4,2,2656.5999999046326,420914.90000009537,9067,NTS,A,1
3,1,prac,1,C,triangle.png,1,z,Wed Jun 03 2026 09:23:52 GMT-0400 (Eastern Daylight Time),426588.19999980927,1500,I,z,717,3,2,3002.7999997138977,423585.40000009537,9067,NTS,A,2
2,2,prac,1,C,triangle.png,1,m,Wed Jun 03 2026 09:23:52 GMT-0400 (Eastern Daylight Time),429971.5,1600,I,m,993,2,2,3372.5,426599.0,9067,NTS,A,3
4,3,prac,1,C,circle.png,1,z,Wed Jun 03 2026 09:23:52 GMT-0400 (Eastern Daylight Time),432738.19999980927,1000,I,z,961,4,2,2746.699999809265,429991.5,9067,NTS,A,4
6,3,prac,1,C,circle.png,0,m,Wed Jun 03 2026 09:23:52 GMT-0400 (Eastern Daylight Time),436221.5,2000,I,z,699,5,2,3473.4000000953674,432748.09999990463,9067,NTS,A,5
9,4,prac,1,C,circle.png,1,m,Wed Jun 03 2026 09:23:52 GMT-0400 (Eastern Daylight Time),439738.30000019073,1900,I,m,819,8,2,3503.800000190735,436234.5,9067,NTS,A,6
1,5,prac,1,C,circle.png,1,z,Wed Jun 03 2026 09:23:52 GMT-0400 (Eastern Daylight Time),443038.09999990463,1700,I,z,816,1,2,3289.0,439749.09999990463,9067,NTS,A,7
8,6,prac,1,C,triangle.png,1,m,Wed Jun 03 2026 09:23:52 GMT-0400 (Eastern Daylight Time),445988.19999980927,1400,I,m,760,7,2,2939.0,443049.19999980927,9067,NTS,A,8
8,7,prac,1,C,triangle.png,1,m,Wed Jun 03 2026 09:23:52 GMT-0400 (Eastern Daylight Time),448954.90000009537,1400,I,m,769,7,2,2955.7000002861023,445999.19999980927,9067,NTS,A,9
7,8,prac,1,C,triangle.png,1,z,Wed Jun 03 2026 09:23:52 GMT-0400 (Eastern Daylight Time),451621.59999990463,1200,I,z,674,6,2,2655.0,448966.59999990463,9067,NTS,A,10
9,9,prac,1,C,circle.png,1,m,Wed Jun 03 2026 09:23:52 GMT-0400 (Eastern Daylight Time),454838.19999980927,1900,I,m,524,8,2,3206.199999809265,451632.0,9067,NTS,A,11
1,10,prac,1,C,circle.png,1,z,Wed Jun 03 2026 09:23:52 GMT-0400 (Eastern Daylight Time),457888.19999980927,1700,I,z,563,1,2,3040.0,454848.19999980927,9067,NTS,A,12
4,0,test,1,C,circle.png,0,z,Wed Jun 03 2026 09:23:52 GMT-0400 (Eastern Daylight Time),477955.0,1400,I,None,1516,4,2,2925.9000000953674,475029.09999990463,9067,NTS,A,1
1,1,test,1,C,triangle.png,1,z,Wed Jun 03 2026 09:23:52 GMT-0400 (Eastern Daylight Time),480704.69999980927,1900,I,z,830,17,2,2741.199999809265,477963.5,9067,NTS,A,2
3,1,test,1,C,circle.png,0,z,Wed Jun 03 2026 09:23:52 GMT-0400 (Eastern Daylight Time),483088.09999990463,1600,I,m,764,19,2,2373.7999997138977,480714.30000019073,9067,NTS,A,3
1,1,test,1,C,circle.png,0,z,Wed Jun 03 2026 09:23:52 GMT-0400 (Eastern Daylight Time),485038.09999990463,1000,I,m,918,1,2,1940.2999997138977,483097.80000019073,9067,NTS,A,4
3,1,test,1,C,triangle.png,0,z,Wed Jun 03 2026 09:23:52 GMT-0400 (Eastern Daylight Time),487671.5,1200,I,m,1407,3,2,2620.699999809265,485050.80000019073,9067,NTS,A,5
6,2,test,1,C,circle.png,1,m,Wed Jun 03 2026 09:23:52 GMT-0400 (Eastern Daylight Time),490588.09999990463,1900,I,m,985,5,2,2905.9000000953674,487682.19999980927,9067,NTS,A,6
2,2,test,1,C,circle.png,0,z,Wed Jun 03 2026 09:23:52 GMT-0400 (Eastern Daylight Time),493488.09999990463,1700,I,m,1181,18,2,2891.7999997138977,490596.30000019073,9067,NTS,A,7
8,3,test,1,C,triangle.png,1,m,Wed Jun 03 2026 09:23:52 GMT-0400 (Eastern Daylight Time),496388.19999980927,1600,I,m,1278,7,2,2890.8999996185303,493497.30000019073,9067,NTS,A,8
6,4,test,1,C,circle.png,1,m,Wed Jun 03 2026 09:23:52 GMT-0400 (Eastern Daylight Time),499538.09999990463,1900,I,m,1229,21,2,3140.699999809265,496397.40000009537,9067,NTS,A,9
2,5,test,1,C,triangle.png,1,m,Wed Jun 03 2026 09:23:52 GMT-0400 (Eastern Daylight Time),503004.80000019073,2000,I,m,1435,2,2,3456.6000003814697,499548.19999980927,9067,NTS,A,10
9,6,test,1,C,triangle.png,1,z,Wed Jun 03 2026 09:23:52 GMT-0400 (Eastern Daylight Time),505438.19999980927,1400,I,z,1000,16,2,2423.8999996185303,503014.30000019073,9067,NTS,A,11
4,7,test,1,C,triangle.png,1,m,Wed Jun 03 2026 09:23:52 GMT-0400 (Eastern Daylight Time),507954.69999980927,1500,I,m,996,20,2,2507.5,505447.19999980927,9067,NTS,A,12
7,8,test,1,C,circle.png,1,m,Wed Jun 03 2026 09:23:52 GMT-0400 (Eastern Daylight Time),511121.5,2000,I,m,1146,14,2,3158.0,507963.5,9067,NTS,A,13
6,8,test,1,C,triangle.png,0,m,Wed Jun 03 2026 09:23:52 GMT-0400 (Eastern Daylight Time),513421.5,1000,I,z,1267,13,2,2290.300000190735,511131.19999980927,9067,NTS,A,14
2,9,test,1,C,circle.png,1,z,Wed Jun 03 2026 09:23:52 GMT-0400 (Eastern Daylight Time),516421.5,1700,I,z,1276,10,2,2989.699999809265,513431.80000019073,9067,NTS,A,15
9,10,test,1,C,circle.png,1,m,Wed Jun 03 2026 09:23:52 GMT-0400 (Eastern Daylight Time),518788.19999980927,1500,I,m,844,8,2,2357.7999997138977,516430.40000009537,9067,NTS,A,16
7,11,test,1,C,triangle.png,1,z,Wed Jun 03 2026 09:23:52 GMT-0400 (Eastern Daylight Time),521588.19999980927,1700,I,z,1077,22,2,2790.199999809265,518798.0,9067,NTS,A,17
1,12,test,1,C,triangle.png,1,z,Wed Jun 03 2026 09:23:52 GMT-0400 (Eastern Daylight Time),524388.0999999046,1900,I,z,877,9,2,2790.5,521597.59999990463,9067,NTS,A,18
8,13,test,1,C,circle.png,1,m,Wed Jun 03 2026 09:23:52 GMT-0400 (Eastern Daylight Time),526588.1999998093,1200,I,m,969,15,2,2191.5,524396.6999998093,9067,NTS,A,19
7,14,test,1,C,triangle.png,1,z,Wed Jun 03 2026 09:23:52 GMT-0400 (Eastern Daylight Time),529321.5,1700,I,z,1006,6,2,2724.9000000953674,526596.5999999046,9067,NTS,A,20
4,15,test,1,C,triangle.png,1,m,Wed Jun 03 2026 09:23:52 GMT-0400 (Eastern Daylight Time),531921.5,1500,I,m,1079,12,2,2591.5,529330.0,9067,NTS,A,21
3,16,test,1,C,circle.png,1,z,Wed Jun 03 2026 09:23:52 GMT-0400 (Eastern Daylight Time),534554.5,1600,I,z,1003,11,2,2624.0999999046326,531930.4000000954,9067,NTS,A,22
8,16,test,1,C,triangle.png,0,m,Wed Jun 03 2026 09:23:52 GMT-0400 (Eastern Daylight Time),537338.1999998093,1600,I,z,1154,23,2,2778.0,534560.1999998093,9067,NTS,A,23
9,17,test,1,C,circle.png,1,m,Wed Jun 03 2026 09:23:52 GMT-0400 (Eastern Daylight Time),539954.9000000954,1500,I,m,1096,24,2,2607.5999999046326,537347.3000001907,9067,NTS,A,24
6,1,test,2,C,triangle.png,1,m,Wed Jun 03 2026 09:23:52 GMT-0400 (Eastern Daylight Time),549338.4000000954,1000,I,m,1387,13,2,2406.2000002861023,546932.1999998093,9067,NTS,A,1
1,2,test,2,C,circle.png,1,z,Wed Jun 03 2026 09:23:52 GMT-0400 (Eastern Daylight Time),551288.1999998093,1000,I,z,924,1,2,1938.8999996185303,549349.3000001907,9067,NTS,A,2
2,3,test,2,C,triangle.png,1,m,Wed Jun 03 2026 09:23:52 GMT-0400 (Eastern Daylight Time),554221.5,2000,I,m,901,2,2,2924.5999999046326,551296.9000000954,9067,NTS,A,3
7,4,test,2,C,triangle.png,1,z,Wed Jun 03 2026 09:23:52 GMT-0400 (Eastern Daylight Time),557104.5999999046,1700,I,z,1163,6,2,2873.5,554231.0999999046,9067,NTS,A,4
8,5,test,2,C,triangle.png,1,m,Wed Jun 03 2026 09:23:52 GMT-0400 (Eastern Daylight Time),559804.8000001907,1600,I,m,1068,7,2,2690.7000002861023,557114.0999999046,9067,NTS,A,5
4,6,test,2,C,circle.png,1,z,Wed Jun 03 2026 09:23:52 GMT-0400 (Eastern Daylight Time),562288.0,1400,I,z,1065,4,2,2473.5999999046326,559814.4000000954,9067,NTS,A,6
3,7,test,2,C,circle.png,1,z,Wed Jun 03 2026 09:23:52 GMT-0400 (Eastern Daylight Time),564871.5999999046,1600,I,z,956,19,2,2574.0999999046326,562297.5,9067,NTS,A,7
2,8,test,2,C,circle.png,1,z,Wed Jun 03 2026 09:23:52 GMT-0400 (Eastern Daylight Time),567721.5999999046,1700,I,z,1121,10,2,2841.699999809265,564879.9000000954,9067,NTS,A,8
6,8,test,2,C,triangle.png,0,m,Wed Jun 03 2026 09:23:52 GMT-0400 (Eastern Daylight Time),570255.0999999046,1000,I,None,1516,21,2,2523.9000000953674,567731.1999998093,9067,NTS,A,9
8,9,test,2,C,circle.png,1,m,Wed Jun 03 2026 09:23:52 GMT-0400 (Eastern Daylight Time),572154.8000001907,1200,I,m,670,23,2,1890.5,570264.3000001907,9067,NTS,A,10
4,9,test,2,C,triangle.png,0,m,Wed Jun 03 2026 09:23:52 GMT-0400 (Eastern Daylight Time),574704.6999998093,1500,I,z,1031,20,2,2540.5,572164.1999998093,9067,NTS,A,11
2,10,test,2,C,circle.png,1,z,Wed Jun 03 2026 09:23:52 GMT-0400 (Eastern Daylight Time),577371.5999999046,1700,I,z,936,18,2,2658.0999999046326,574713.5,9067,NTS,A,12
7,11,test,2,C,circle.png,1,m,Wed Jun 03 2026 09:23:52 GMT-0400 (Eastern Daylight Time),580421.5999999046,2000,I,m,1025,14,2,3041.0999999046326,577380.5,9067,NTS,A,13
7,12,test,2,C,circle.png,1,m,Wed Jun 03 2026 09:23:52 GMT-0400 (Eastern Daylight Time),583338.1999998093,2000,I,m,887,22,2,2904.7999997138977,580433.4000000954,9067,NTS,A,14
3,13,test,2,C,triangle.png,1,z,Wed Jun 03 2026 09:23:52 GMT-0400 (Eastern Daylight Time),585421.5999999046,1200,I,z,851,3,2,2069.5999999046326,583352.0,9067,NTS,A,15
1,14,test,2,C,triangle.png,1,z,Wed Jun 03 2026 09:23:52 GMT-0400 (Eastern Daylight Time),587954.9000000954,1900,I,z,611,17,2,2523.800000190735,585431.0999999046,9067,NTS,A,16
3,15,test,2,C,circle.png,1,z,Wed Jun 03 2026 09:23:52 GMT-0400 (Eastern Daylight Time),590738.1999998093,1600,I,z,1162,11,2,2769.2999997138977,587968.9000000954,9067,NTS,A,17
9,16,test,2,C,triangle.png,1,z,Wed Jun 03 2026 09:23:52 GMT-0400 (Eastern Daylight Time),593421.5999999046,1400,I,z,1251,24,2,2673.2999997138977,590748.3000001907,9067,NTS,A,18
9,17,test,2,C,circle.png,1,m,Wed Jun 03 2026 09:23:52 GMT-0400 (Eastern Daylight Time),595904.8000001907,1500,I,m,964,8,2,2473.7000002861023,593431.0999999046,9067,NTS,A,19
9,18,test,2,C,triangle.png,1,z,Wed Jun 03 2026 09:23:52 GMT-0400 (Eastern Daylight Time),597988.1999998093,1400,I,z,660,16,2,2073.7999997138977,595914.4000000954,9067,NTS,A,20
4,19,test,2,C,triangle.png,1,m,Wed Jun 03 2026 09:23:52 GMT-0400 (Eastern Daylight Time),600655.0,1500,I,m,1150,12,2,2657.5999999046326,597997.4000000954,9067,NTS,A,21
6,20,test,2,C,circle.png,1,m,Wed Jun 03 2026 09:23:52 GMT-0400 (Eastern Daylight Time),603671.5,1900,I,m,1091,5,2,3008.9000000953674,600662.5999999046,9067,NTS,A,22
8,21,test,2,C,circle.png,1,m,Wed Jun 03 2026 09:23:52 GMT-0400 (Eastern Daylight Time),605571.5999999046,1200,I,m,677,15,2,1890.1999998092651,603681.4000000954,9067,NTS,A,23
1,22,test,2,C,triangle.png,1,z,Wed Jun 03 2026 09:23:52 GMT-0400 (Eastern Daylight Time),608287.8000001907,1900,I,z,797,9,2,2706.6000003814697,605581.1999998093,9067,NTS,A,24
7,0,test,3,C,triangle.png,0,z,Wed Jun 03 2026 09:23:52 GMT-0400 (Eastern Daylight Time),616771.8000001907,1700,I,None,1517,6,2,3225.2000002861023,613546.5999999046,9067,NTS,A,1
2,0,test,3,C,circle.png,0,z,Wed Jun 03 2026 09:23:52 GMT-0400 (Eastern Daylight Time),619638.0999999046,1700,I,m,1142,10,2,2856.7999997138977,616781.3000001907,9067,NTS,A,2
8,1,test,3,C,circle.png,1,m,Wed Jun 03 2026 09:23:52 GMT-0400 (Eastern Daylight Time),621521.5999999046,1200,I,m,664,15,2,1874.7999997138977,619646.8000001907,9067,NTS,A,3
1,2,test,3,C,circle.png,1,z,Wed Jun 03 2026 09:23:52 GMT-0400 (Eastern Daylight Time),623154.9000000954,1000,I,z,611,1,2,1624.3000001907349,621530.5999999046,9067,NTS,A,4
6,3,test,3,C,circle.png,1,m,Wed Jun 03 2026 09:23:52 GMT-0400 (Eastern Daylight Time),625738.1999998093,1900,I,m,655,5,2,2568.699999809265,623169.5,9067,NTS,A,5
4,3,test,3,C,circle.png,0,z,Wed Jun 03 2026 09:23:52 GMT-0400 (Eastern Daylight Time),627938.0999999046,1400,I,m,778,4,2,2190.2999997138977,625747.8000001907,9067,NTS,A,6
6,4,test,3,C,circle.png,1,m,Wed Jun 03 2026 09:23:52 GMT-0400 (Eastern Daylight Time),630504.9000000954,1900,I,m,640,21,2,2558.0,627946.9000000954,9067,NTS,A,7
9,5,test,3,C,circle.png,1,m,Wed Jun 03 2026 09:23:52 GMT-0400 (Eastern Daylight Time),632605.0,1500,I,m,569,24,2,2089.9000000953674,630515.0999999046,9067,NTS,A,8
2,6,test,3,C,triangle.png,1,m,Wed Jun 03 2026 09:23:52 GMT-0400 (Eastern Daylight Time),635838.0,2000,I,m,1216,2,2,3224.199999809265,632613.8000001907,9067,NTS,A,9
8,7,test,3,C,triangle.png,1,m,Wed Jun 03 2026 09:23:52 GMT-0400 (Eastern Daylight Time),638321.5999999046,1600,I,m,863,23,2,2475.9000000953674,635845.6999998093,9067,NTS,A,10
1,8,test,3,C,circle.png,1,z,Wed Jun 03 2026 09:23:52 GMT-0400 (Eastern Daylight Time),640255.0,1000,I,z,900,17,2,1924.0999999046326,638330.9000000954,9067,NTS,A,11
7,8,test,3,C,triangle.png,0,z,Wed Jun 03 2026 09:23:52 GMT-0400 (Eastern Daylight Time),643104.6999998093,1700,I,m,1131,22,2,2841.199999809265,640263.5,9067,NTS,A,12
2,9,test,3,C,triangle.png,1,m,Wed Jun 03 2026 09:23:52 GMT-0400 (Eastern Daylight Time),646204.9000000954,2000,I,m,1068,18,2,3090.4000000953674,643114.5,9067,NTS,A,13
9,10,test,3,C,circle.png,1,m,Wed Jun 03 2026 09:23:52 GMT-0400 (Eastern Daylight Time),648688.0,1500,I,m,965,8,2,2472.699999809265,646215.3000001907,9067,NTS,A,14
8,11,test,3,C,triangle.png,1,m,Wed Jun 03 2026 09:23:52 GMT-0400 (Eastern Daylight Time),651371.5999999046,1600,I,m,1054,7,2,2674.199999809265,648697.4000000954,9067,NTS,A,15
3,12,test,3,C,triangle.png,1,z,Wed Jun 03 2026 09:23:52 GMT-0400 (Eastern Daylight Time),653355.0,1200,I,z,754,19,2,1972.1999998092651,651382.8000001907,9067,NTS,A,16
7,13,test,3,C,circle.png,1,m,Wed Jun 03 2026 09:23:52 GMT-0400 (Eastern Daylight Time),656271.1999998093,2000,I,m,899,14,2,2908.3999996185303,653362.8000001907,9067,NTS,A,17
9,13,test,3,C,triangle.png,0,z,Wed Jun 03 2026 09:23:52 GMT-0400 (Eastern Daylight Time),658821.5999999046,1400,I,m,1125,16,2,2541.0999999046326,656280.5,9067,NTS,A,18
4,13,test,3,C,circle.png,0,z,Wed Jun 03 2026 09:23:52 GMT-0400 (Eastern Daylight Time),661238.3000001907,1400,I,m,992,20,2,2407.9000000953674,658830.4000000954,9067,NTS,A,19
1,13,test,3,C,triangle.png,0,z,Wed Jun 03 2026 09:23:52 GMT-0400 (Eastern Daylight Time),664571.5999999046,1900,I,m,1404,9,2,3323.4000000953674,661248.1999998093,9067,NTS,A,20
3,14,test,3,C,triangle.png,1,z,Wed Jun 03 2026 09:23:52 GMT-0400 (Eastern Daylight Time),666704.6999998093,1200,I,z,913,3,2,2122.5,664582.1999998093,9067,NTS,A,21
6,15,test,3,C,triangle.png,1,m,Wed Jun 03 2026 09:23:52 GMT-0400 (Eastern Daylight Time),668554.9000000954,1000,I,m,820,13,2,1842.2000002861023,666712.6999998093,9067,NTS,A,22
4,16,test,3,C,triangle.png,1,m,Wed Jun 03 2026 09:23:52 GMT-0400 (Eastern Daylight Time),670905.0,1500,I,m,822,12,2,2341.300000190735,668563.6999998093,9067,NTS,A,23
3,17,test,3,C,circle.png,1,z,Wed Jun 03 2026 09:23:52 GMT-0400 (Eastern Daylight Time),673588.3000001907,1600,I,z,1061,11,2,2674.6000003814697,670913.6999998093,9067,NTS,A,24
6,1,test,4,C,circle.png,1,m,Wed Jun 03 2026 09:23:52 GMT-0400 (Eastern Daylight Time),685038.5,1900,I,m,766,21,2,2692.0,682346.5,9067,NTS,A,1
3,2,test,4,C,circle.png,1,z,Wed Jun 03 2026 09:23:52 GMT-0400 (Eastern Daylight Time),687605.0,1600,I,z,944,11,2,2556.699999809265,685048.3000001907,9067,NTS,A,2
2,2,test,4,C,triangle.png,0,m,Wed Jun 03 2026 09:23:52 GMT-0400 (Eastern Daylight Time),690638.3000001907,2000,I,z,1000,2,2,3024.7000002861023,687613.5999999046,9067,NTS,A,3
9,3,test,4,C,circle.png,1,m,Wed Jun 03 2026 09:23:52 GMT-0400 (Eastern Daylight Time),693055.0,1500,I,m,884,24,2,2408.0,690647.0,9067,NTS,A,4
8,4,test,4,C,circle.png,1,m,Wed Jun 03 2026 09:23:52 GMT-0400 (Eastern Daylight Time),695538.3000001907,1200,I,m,1263,15,2,2474.5,693063.8000001907,9067,NTS,A,5
2,4,test,4,C,circle.png,0,z,Wed Jun 03 2026 09:23:52 GMT-0400 (Eastern Daylight Time),698188.3000001907,1700,I,m,919,10,2,2640.6000003814697,695547.6999998093,9067,NTS,A,6
7,5,test,4,C,triangle.png,1,z,Wed Jun 03 2026 09:23:52 GMT-0400 (Eastern Daylight Time),700838.1999998093,1700,I,z,925,22,2,2640.699999809265,698197.5,9067,NTS,A,7
1,6,test,4,C,triangle.png,1,z,Wed Jun 03 2026 09:23:52 GMT-0400 (Eastern Daylight Time),703471.5,1900,I,z,716,9,2,2624.5999999046326,700846.9000000954,9067,NTS,A,8
3,7,test,4,C,triangle.png,1,z,Wed Jun 03 2026 09:23:52 GMT-0400 (Eastern Daylight Time),705338.3000001907,1200,I,z,638,19,2,1857.4000000953674,703480.9000000954,9067,NTS,A,9
8,8,test,4,C,triangle.png,1,m,Wed Jun 03 2026 09:23:52 GMT-0400 (Eastern Daylight Time),707871.3000001907,1600,I,m,915,23,2,2524.1000003814697,705347.1999998093,9067,NTS,A,10
8,9,test,4,C,triangle.png,1,m,Wed Jun 03 2026 09:23:52 GMT-0400 (Eastern Daylight Time),710288.0999999046,1600,I,m,798,7,2,2408.5999999046326,707879.5,9067,NTS,A,11
1,10,test,4,C,circle.png,1,z,Wed Jun 03 2026 09:23:52 GMT-0400 (Eastern Daylight Time),712404.9000000954,1000,I,z,1093,1,2,2108.2000002861023,710296.6999998093,9067,NTS,A,12
6,11,test,4,C,circle.png,1,m,Wed Jun 03 2026 09:23:52 GMT-0400 (Eastern Daylight Time),715204.9000000954,1900,I,m,877,5,2,2790.7000002861023,712414.1999998093,9067,NTS,A,13
7,11,test,4,C,triangle.png,0,z,Wed Jun 03 2026 09:23:52 GMT-0400 (Eastern Daylight Time),717971.5999999046,1700,I,m,1045,6,2,2755.199999809265,715216.4000000954,9067,NTS,A,14
2,11,test,4,C,triangle.png,0,m,Wed Jun 03 2026 09:23:52 GMT-0400 (Eastern Daylight Time),720638.3000001907,2000,I,z,633,18,2,2656.6000003814697,717981.6999998093,9067,NTS,A,15
4,12,test,4,C,circle.png,1,z,Wed Jun 03 2026 09:23:52 GMT-0400 (Eastern Daylight Time),723104.6999998093,1400,I,z,1048,20,2,2456.699999809265,720648.0,9067,NTS,A,16
4,13,test,4,C,circle.png,1,z,Wed Jun 03 2026 09:23:52 GMT-0400 (Eastern Daylight Time),725621.5999999046,1400,I,z,1093,4,2,2505.7999997138977,723115.8000001907,9067,NTS,A,17
9,13,test,4,C,circle.png,0,m,Wed Jun 03 2026 09:23:52 GMT-0400 (Eastern Daylight Time),728655.0999999046,1500,I,None,1516,8,2,3024.5999999046326,725630.5,9067,NTS,A,18
7,14,test,4,C,circle.png,1,m,Wed Jun 03 2026 09:23:52 GMT-0400 (Eastern Daylight Time),731388.3000001907,2000,I,m,703,14,2,2723.7000002861023,728664.5999999046,9067,NTS,A,19
4,15,test,4,C,triangle.png,1,m,Wed Jun 03 2026 09:23:52 GMT-0400 (Eastern Daylight Time),734021.6999998093,1500,I,m,1109,12,2,2623.5999999046326,731398.0999999046,9067,NTS,A,20
1,16,test,4,C,circle.png,1,z,Wed Jun 03 2026 09:23:52 GMT-0400 (Eastern Daylight Time),736021.5999999046,1000,I,z,976,17,2,1990.5999999046326,734031.0,9067,NTS,A,21
3,17,test,4,C,triangle.png,1,z,Wed Jun 03 2026 09:23:52 GMT-0400 (Eastern Daylight Time),738471.4000000954,1200,I,z,1224,3,2,2440.800000190735,736030.5999999046,9067,NTS,A,22
9,18,test,4,C,triangle.png,1,z,Wed Jun 03 2026 09:23:52 GMT-0400 (Eastern Daylight Time),740721.6999998093,1400,I,z,830,16,2,2241.7999997138977,738479.9000000954,9067,NTS,A,23
6,19,test,4,C,triangle.png,1,m,Wed Jun 03 2026 09:23:52 GMT-0400 (Eastern Daylight Time),742438.3000001907,1000,I,m,692,13,2,1707.9000000953674,740730.4000000954,9067,NTS,A,24
