acc_sum,block,block_c,condition,correct,correct_response,datetime,endtime,flanker,jitter,project,response,response_test_buffer_response,response_test_target_response,response_time,response_time_test_buffer_response,response_time_test_target_response,row_sel,session_number,start_end,starttime,subject_id,target,task,task_vers,time_test_buffer,time_test_buffer_response,time_test_constants,time_test_flanker,time_test_jitter,time_test_logger,time_test_target,time_test_target_response,time_test_variables,trial
1,prac,1,con,1,m,Tue Dec 09 2025 13:40:25 GMT-0600 (Central Standard Time),104900.0,jacket,800,O,m,,,826,,,5,1,2909.899999976158,101990.10000002384,7243,jacket,AF,A,,,,,,,,,,1
2,prac,1,con,1,z,Tue Dec 09 2025 13:40:25 GMT-0600 (Central Standard Time),107764.60000002384,brutal,800,O,z,,,769,,,13,1,2857.600000023842,104907.0,7243,brutal,AF,A,,,,,,,,,,2
3,prac,1,con,1,z,Tue Dec 09 2025 13:40:25 GMT-0600 (Central Standard Time),110797.5,rage,1000,O,z,,,729,,,15,1,3026.699999988079,107770.80000001192,7243,rage,AF,A,,,,,,,,,,3
4,prac,1,inc,1,m,Tue Dec 09 2025 13:40:25 GMT-0600 (Central Standard Time),113664.0,kind,900,O,m,,,652,,,2,1,2861.199999988079,110802.80000001192,7243,rock,AF,A,,,,,,,,,,4
5,prac,1,con,1,m,Tue Dec 09 2025 13:40:25 GMT-0600 (Central Standard Time),116546.0,remote,1000,O,m,,,574,,,7,1,2877.599999964237,113668.40000003576,7243,remote,AF,A,,,,,,,,,,5
6,prac,1,con,1,m,Tue Dec 09 2025 13:40:25 GMT-0600 (Central Standard Time),119426.60000002384,bell,1000,O,m,,,590,,,3,1,2874.899999976158,116551.70000004768,7243,bell,AF,A,,,,,,,,,,6
6,prac,1,inc,0,z,Tue Dec 09 2025 13:40:25 GMT-0600 (Central Standard Time),123009.90000003576,napkin,1100,O,m,,,1183,,,12,1,3569.800000011921,119440.10000002384,7243,friend,AF,A,,,,,,,,,,7
7,prac,1,inc,1,z,Tue Dec 09 2025 13:40:25 GMT-0600 (Central Standard Time),125975.40000003576,rock,900,O,z,,,752,,,10,1,2957.900000035763,123017.5,7243,kind,AF,A,,,,,,,,,,8
8,prac,1,con,1,z,Tue Dec 09 2025 13:40:25 GMT-0600 (Central Standard Time),128958.5,love,1000,O,z,,,693,,,11,1,2978.599999964237,125979.90000003576,7243,love,AF,A,,,,,,,,,,9
9,prac,1,inc,1,m,Tue Dec 09 2025 13:40:25 GMT-0600 (Central Standard Time),132074.20000004768,brutal,1100,O,m,,,700,,,8,1,3110.600000023842,128963.60000002384,7243,window,AF,A,,,,,,,,,,10
10,prac,1,inc,1,m,Tue Dec 09 2025 13:40:25 GMT-0600 (Central Standard Time),135189.5,hate,1100,O,m,,,713,,,4,1,3108.0,132081.5,7243,film,AF,A,,,,,,,,,,11
11,prac,1,inc,1,z,Tue Dec 09 2025 13:40:25 GMT-0600 (Central Standard Time),138071.20000004768,film,900,O,z,,,676,,,14,1,2874.600000023842,135196.60000002384,7243,hate,AF,A,,,,,,,,,,12
12,prac,1,inc,1,m,Tue Dec 09 2025 13:40:25 GMT-0600 (Central Standard Time),140887.80000001192,elated,900,O,m,,,626,,,6,1,2813.099999964237,138074.70000004768,7243,napkin,AF,A,,,,,,,,,,13
13,prac,1,inc,1,z,Tue Dec 09 2025 13:40:25 GMT-0600 (Central Standard Time),143970.10000002384,window,1100,O,z,,,675,,,16,1,3074.399999976158,140895.70000004768,7243,temper,AF,A,,,,,,,,,,14
14,prac,1,con,1,z,Tue Dec 09 2025 13:40:25 GMT-0600 (Central Standard Time),146836.0,elated,800,O,z,,,747,,,9,1,2858.399999976158,143977.60000002384,7243,elated,AF,A,,,,,,,,,,15
15,prac,1,con,1,m,Tue Dec 09 2025 13:40:25 GMT-0600 (Central Standard Time),149602.30000001192,step,800,O,m,,,649,,,1,1,2757.699999988079,146844.60000002384,7243,step,AF,A,,,,,,,,,,16
1,test,1,inc,1,z,Tue Dec 09 2025 13:40:25 GMT-0600 (Central Standard Time),165716.70000004768,jacket,800,O,z,z,None,842,627.0,215.0,37,1,2163.400000035763,163553.30000001192,7243,brutal,AF,A,162628,162628,161101,161911,161102,163265,162413,162413,163265,1
2,test,1,con,1,m,Tue Dec 09 2025 13:40:25 GMT-0600 (Central Standard Time),167763.20000004768,film,1000,O,m,m,None,532,331.0,201.0,91,1,2041.5,165721.70000004768,7243,film,AF,A,164980,164980,163270,164277,163270,165311,164778,164778,165311,2
3,test,1,con,1,m,Tue Dec 09 2025 13:40:25 GMT-0600 (Central Standard Time),169994.40000003576,bell,1000,O,m,m,None,690,491.0,199.0,83,1,2225.0,167769.40000003576,7243,bell,AF,A,167044,167044,165317,166327,165318,167542,166844,166844,167542,3
4,test,1,con,1,z,Tue Dec 09 2025 13:40:25 GMT-0600 (Central Standard Time),172028.30000001192,hate,800,O,z,z,None,692,491.0,201.0,41,1,2027.5999999642372,170000.70000004768,7243,hate,AF,A,169077,169077,167549,168362,167549,169576,168876,168876,169576,4
5,test,1,inc,1,z,Tue Dec 09 2025 13:40:25 GMT-0600 (Central Standard Time),174110.10000002384,step,800,O,z,z,None,747,548.0,199.0,21,1,2077.0,172033.10000002384,7243,love,AF,A,171110,171110,169581,170394,169582,171658,170910,170910,171658,5
6,test,1,inc,1,z,Tue Dec 09 2025 13:40:25 GMT-0600 (Central Standard Time),176159.80000001192,rock,900,O,z,z,None,611,410.0,201.0,46,1,2045.5,174114.30000001192,7243,hate,AF,A,173293,173293,171662,172575,171663,173708,173092,173092,173708,6
7,test,1,con,1,z,Tue Dec 09 2025 13:40:25 GMT-0600 (Central Standard Time),178376.0,elated,1000,O,z,z,None,694,495.0,199.0,3,1,2212.199999988079,176163.80000001192,7243,elated,AF,A,175425,175425,173712,174725,173712,175924,175226,175226,175924,7
8,test,1,inc,1,m,Tue Dec 09 2025 13:40:25 GMT-0600 (Central Standard Time),180474.10000002384,love,1000,O,m,m,None,573,374.0,199.0,87,1,2093.5,178380.60000002384,7243,bell,AF,A,177641,177641,175929,176940,175929,178022,177441,177441,178022,8
9,test,1,con,1,m,Tue Dec 09 2025 13:40:25 GMT-0600 (Central Standard Time),182474.5,napkin,800,O,m,m,None,650,450.0,200.0,105,1,1997.3999999761581,180477.10000002384,7243,napkin,AF,A,179557,179557,178025,178841,178025,180023,179357,179357,180023,9
10,test,1,inc,1,z,Tue Dec 09 2025 13:40:25 GMT-0600 (Central Standard Time),184573.30000001192,napkin,900,O,z,z,None,660,461.0,199.0,38,1,2095.5,182477.80000001192,7243,brutal,AF,A,181658,181658,180026,180939,180026,182121,181457,181457,182121,10
11,test,1,con,1,z,Tue Dec 09 2025 13:40:25 GMT-0600 (Central Standard Time),186723.30000001192,hate,1000,O,z,z,None,599,400.0,199.0,43,1,2144.300000011921,184579.0,7243,hate,AF,A,183855,183855,182127,183138,182127,184271,183655,183655,184271,11
12,test,1,con,1,z,Tue Dec 09 2025 13:40:25 GMT-0600 (Central Standard Time),188672.70000004768,hate,900,O,z,z,None,509,310.0,199.0,42,1,1946.0,186726.70000004768,7243,hate,AF,A,185905,185905,184275,185187,184275,186221,185705,185705,186221,12
13,test,1,inc,1,z,Tue Dec 09 2025 13:40:25 GMT-0600 (Central Standard Time),190955.60000002384,napkin,900,O,z,z,None,849,648.0,201.0,30,1,2278.5,188677.10000002384,7243,friend,AF,A,187855,187855,186225,187138,186225,188504,187654,187654,188504,13
14,test,1,con,1,m,Tue Dec 09 2025 13:40:25 GMT-0600 (Central Standard Time),192937.20000004768,napkin,900,O,m,m,None,535,335.0,200.0,106,1,1978.2000000476837,190959.0,7243,napkin,AF,A,190136,190136,188507,189421,188507,190485,189936,189936,190485,14
15,test,1,con,1,z,Tue Dec 09 2025 13:40:25 GMT-0600 (Central Standard Time),195154.5,love,1100,O,z,z,None,567,366.0,201.0,20,1,2212.5,192942.0,7243,love,AF,A,192320,192321,190490,191603,190490,192703,192119,192119,192703,15
16,test,1,con,1,m,Tue Dec 09 2025 13:40:25 GMT-0600 (Central Standard Time),197519.20000004768,napkin,1000,O,m,m,None,827,611.0,216.0,107,1,2360.100000023842,195159.10000002384,7243,napkin,AF,A,194452,194452,192707,193720,192707,195067,194236,194236,195067,16
17,test,1,inc,1,z,Tue Dec 09 2025 13:40:25 GMT-0600 (Central Standard Time),199653.60000002384,jacket,800,O,z,z,None,789,588.0,201.0,29,1,2131.100000023842,197522.5,7243,friend,AF,A,196603,196603,195070,195887,195071,197202,196401,196401,197202,17
18,test,1,inc,1,m,Tue Dec 09 2025 13:40:25 GMT-0600 (Central Standard Time),202167.20000004768,rage,800,O,m,m,None,1178,977.0,201.0,69,1,2510.5,199656.70000004768,7243,step,AF,A,198734,198734,197205,198018,197205,199715,198533,198533,199715,18
19,test,1,con,1,z,Tue Dec 09 2025 13:40:25 GMT-0600 (Central Standard Time),204301.80000001192,love,900,O,z,z,None,700,496.0,204.0,18,1,2131.0,202170.80000001192,7243,love,AF,A,201354,201354,199719,200634,199719,201850,201149,201149,201850,19
20,test,1,inc,1,m,Tue Dec 09 2025 13:40:25 GMT-0600 (Central Standard Time),206450.60000002384,temper,1000,O,m,m,None,626,427.0,199.0,127,1,2144.399999976158,204306.20000004768,7243,window,AF,A,203566,203566,201854,202865,201854,203999,203367,203367,203999,20
21,test,1,inc,1,m,Tue Dec 09 2025 13:40:25 GMT-0600 (Central Standard Time),208608.60000002384,temper,1000,O,m,m,None,611,411.0,200.0,111,1,2155.0,206453.60000002384,7243,napkin,AF,A,205731,205731,204002,205016,204002,206157,205531,205531,206157,21
22,test,1,inc,1,m,Tue Dec 09 2025 13:40:25 GMT-0600 (Central Standard Time),210699.80000001192,elated,800,O,m,m,None,774,575.0,199.0,101,1,2087.399999976158,208612.40000003576,7243,jacket,AF,A,207665,207665,206160,206964,206161,208248,207466,207466,208248,22
23,test,1,con,1,z,Tue Dec 09 2025 13:40:25 GMT-0600 (Central Standard Time),212831.80000001192,love,800,O,z,z,None,787,587.0,200.0,17,1,2125.699999988079,210706.10000002384,7243,love,AF,A,209780,209780,208254,209064,208254,210380,209580,209580,210380,23
24,test,1,inc,1,m,Tue Dec 09 2025 13:40:25 GMT-0600 (Central Standard Time),214716.10000002384,rage,800,O,m,m,None,558,359.0,199.0,93,1,1880.5,212835.60000002384,7243,film,AF,A,211896,211896,210384,211196,210384,212264,211697,211697,212264,24
25,test,1,con,1,z,Tue Dec 09 2025 13:40:25 GMT-0600 (Central Standard Time),217114.20000004768,temper,1000,O,z,z,None,851,651.0,200.0,59,1,2394.5,214719.70000004768,7243,temper,AF,A,213996,213996,212268,213281,212268,214662,213796,213796,214662,25
26,test,1,con,1,m,Tue Dec 09 2025 13:40:25 GMT-0600 (Central Standard Time),219879.5,jacket,900,O,m,m,None,1335,1120.0,215.0,98,1,2762.0,217117.5,7243,jacket,AF,A,216295,216295,214666,215578,214666,217428,216079,216080,217428,26
27,test,1,inc,1,z,Tue Dec 09 2025 13:40:25 GMT-0600 (Central Standard Time),221911.70000004768,step,800,O,z,z,None,685,486.0,199.0,13,1,2028.7000000476837,219883.0,7243,kind,AF,A,218961,218961,217431,218244,217431,219460,218761,218761,219460,27
28,test,1,con,1,m,Tue Dec 09 2025 13:40:25 GMT-0600 (Central Standard Time),224228.80000001192,remote,900,O,m,m,None,870,657.0,213.0,114,1,2314.099999964237,221914.70000004768,7243,remote,AF,A,221110,221110,219463,220377,219463,221777,220895,220896,221777,28
28,test,1,con,0,m,Tue Dec 09 2025 13:40:25 GMT-0600 (Central Standard Time),226510.0,film,1100,O,z,z,None,653,454.0,199.0,92,1,2277.199999988079,224232.80000001192,7243,film,AF,A,223593,223593,221781,222892,221781,224058,223393,223393,224058,29
29,test,1,con,1,m,Tue Dec 09 2025 13:40:25 GMT-0600 (Central Standard Time),228942.90000003576,step,1000,O,m,m,None,886,686.0,200.0,67,1,2430.100000023842,226512.80000001192,7243,step,AF,A,225793,225793,224061,225075,224061,226491,225593,225593,226491,30
30,test,1,con,1,m,Tue Dec 09 2025 13:40:25 GMT-0600 (Central Standard Time),231675.70000004768,jacket,1100,O,m,m,None,1107,908.0,199.0,100,1,2729.0,228946.70000004768,7243,jacket,AF,A,228307,228307,226495,227607,226495,229224,228108,228108,229224,31
31,test,1,inc,1,m,Tue Dec 09 2025 13:40:25 GMT-0600 (Central Standard Time),233692.20000004768,elated,800,O,m,m,None,674,471.0,203.0,109,1,2012.300000011921,231679.90000003576,7243,napkin,AF,A,230760,230760,229228,230041,229228,231240,230556,230556,231240,32
32,test,1,con,1,m,Tue Dec 09 2025 13:40:25 GMT-0600 (Central Standard Time),235857.70000004768,step,800,O,m,m,None,827,628.0,199.0,65,1,2162.800000011921,233694.90000003576,7243,step,AF,A,232772,232772,231243,232058,231243,233406,232573,232573,233406,33
33,test,1,con,1,m,Tue Dec 09 2025 13:40:25 GMT-0600 (Central Standard Time),238156.70000004768,window,800,O,m,m,None,982,767.0,215.0,121,1,2295.7000000476837,235861.0,7243,window,AF,A,234938,234938,233409,234222,233409,235705,234723,234723,235705,34
34,test,1,con,1,z,Tue Dec 09 2025 13:40:25 GMT-0600 (Central Standard Time),240123.10000002384,temper,800,O,z,z,None,641,425.0,216.0,57,1,1961.800000011921,238161.30000001192,7243,temper,AF,A,237238,237238,235709,236520,235710,237671,237022,237022,237671,35
35,test,1,inc,1,z,Tue Dec 09 2025 13:40:25 GMT-0600 (Central Standard Time),242588.90000003576,film,1100,O,z,z,None,833,630.0,203.0,56,1,2462.100000023842,240126.80000001192,7243,rage,AF,A,239506,239506,237675,238787,237675,240137,239303,239303,240137,36
36,test,1,inc,1,z,Tue Dec 09 2025 13:40:25 GMT-0600 (Central Standard Time),244971.40000003576,film,1100,O,z,z,None,731,532.0,199.0,48,1,2377.400000035763,242594.0,7243,hate,AF,A,241970,241970,240142,241254,240142,242520,241770,241770,242519,37
37,test,1,con,1,m,Tue Dec 09 2025 13:40:25 GMT-0600 (Central Standard Time),247403.90000003576,bell,1100,O,m,m,None,783,584.0,199.0,84,1,2429.800000011921,244974.10000002384,7243,bell,AF,A,244352,244352,242522,243637,242522,244952,244153,244153,244952,38
38,test,1,inc,1,m,Tue Dec 09 2025 13:40:25 GMT-0600 (Central Standard Time),249519.5,kind,900,O,m,m,None,678,478.0,200.0,94,1,2107.199999988079,247412.30000001192,7243,film,AF,A,246585,246585,244960,245869,244961,247068,246385,246385,247068,39
39,test,1,inc,1,z,Tue Dec 09 2025 13:40:25 GMT-0600 (Central Standard Time),251986.60000002384,remote,1000,O,z,z,None,916,700.0,216.0,31,1,2462.899999976158,249523.70000004768,7243,friend,AF,A,248818,248819,247072,248085,247072,249535,248602,248602,249535,40
40,test,1,inc,1,z,Tue Dec 09 2025 13:40:25 GMT-0600 (Central Standard Time),254051.90000003576,rock,900,O,z,z,None,637,438.0,199.0,54,1,2058.300000011921,251993.60000002384,7243,rage,AF,A,251153,251153,249542,250450,249542,251600,250952,250952,251600,41
41,test,1,con,1,z,Tue Dec 09 2025 13:40:25 GMT-0600 (Central Standard Time),256317.40000003576,elated,800,O,z,z,None,923,707.0,216.0,1,1,2261.699999988079,254055.70000004768,7243,elated,AF,A,253149,253149,251604,252416,251604,253866,252933,252933,253865,42
42,test,1,inc,1,z,Tue Dec 09 2025 13:40:25 GMT-0600 (Central Standard Time),258884.20000004768,rock,900,O,z,z,None,1122,907.0,215.0,14,1,2556.400000035763,256327.80000001192,7243,kind,AF,A,255516,255516,253876,254783,253876,256432,255300,255300,256432,43
43,test,1,inc,1,z,Tue Dec 09 2025 13:40:25 GMT-0600 (Central Standard Time),261099.30000001192,film,1100,O,z,z,None,565,365.0,200.0,24,1,2209.800000011921,258889.5,7243,love,AF,A,258266,258267,256438,257548,256438,258647,258065,258065,258647,44
44,test,1,con,1,z,Tue Dec 09 2025 13:40:25 GMT-0600 (Central Standard Time),263048.0,brutal,900,O,z,z,None,509,309.0,200.0,34,1,1937.7999999523163,261110.20000004768,7243,brutal,AF,A,260282,260282,258658,259565,258659,260596,260081,260081,260596,45
45,test,1,inc,1,m,Tue Dec 09 2025 13:40:25 GMT-0600 (Central Standard Time),265064.60000002384,rage,800,O,m,m,None,668,469.0,199.0,77,1,2011.3999999761581,263053.2000000477,7243,rock,AF,A,262130,262130,260601,261414,260602,262613,261930,261930,262613,46
46,test,1,con,1,m,Tue Dec 09 2025 13:40:25 GMT-0600 (Central Standard Time),267347.3000000119,jacket,1000,O,m,m,None,733,534.0,199.0,99,1,2274.899999976158,265072.40000003576,7243,jacket,AF,A,264346,264346,262620,263630,262621,264895,264146,264146,264895,47
47,test,1,inc,1,m,Tue Dec 09 2025 13:40:25 GMT-0600 (Central Standard Time),269596.60000002384,kind,900,O,m,m,None,813,613.0,200.0,78,1,2240.399999976158,267356.2000000477,7243,rock,AF,A,266530,266530,264904,265812,264905,267145,266329,266329,267145,48
48,test,1,inc,1,z,Tue Dec 09 2025 13:40:25 GMT-0600 (Central Standard Time),271563.5,napkin,900,O,z,z,None,524,324.0,200.0,62,1,1959.2999999523163,269604.2000000477,7243,temper,AF,A,268779,268779,267152,268062,267152,269112,268578,268578,269111,49
49,test,1,con,1,z,Tue Dec 09 2025 13:40:25 GMT-0600 (Central Standard Time),273579.90000003576,friend,1000,O,z,z,None,481,267.0,214.0,27,1,2009.4000000357628,271570.5,7243,friend,AF,A,270844,270844,269119,270127,269119,271128,270628,270629,271128,50
50,test,1,inc,1,z,Tue Dec 09 2025 13:40:25 GMT-0600 (Central Standard Time),275494.7000000477,jacket,800,O,z,z,None,570,371.0,199.0,5,1,1909.7000000476837,273585.0,7243,elated,AF,A,272660,272660,271133,271944,271133,273043,272460,272461,273043,51
50,test,1,inc,0,z,Tue Dec 09 2025 13:40:25 GMT-0600 (Central Standard Time),277527.90000003576,bell,1000,O,m,m,None,488,288.0,200.0,55,1,2028.1000000238419,275499.8000000119,7243,rage,AF,A,274776,274776,273048,274060,273048,275076,274576,274576,275076,52
51,test,1,inc,1,m,Tue Dec 09 2025 13:40:25 GMT-0600 (Central Standard Time),279710.5,brutal,900,O,m,m,None,739,535.0,204.0,102,1,2177.699999988079,277532.8000000119,7243,jacket,AF,A,276713,276713,275081,275993,275081,277259,276509,276509,277259,53
52,test,1,inc,1,z,Tue Dec 09 2025 13:40:25 GMT-0600 (Central Standard Time),282124.90000003576,remote,1000,O,z,z,None,870,670.0,200.0,39,1,2410.900000035763,279714.0,7243,brutal,AF,A,278993,278993,277262,278275,277262,279673,278792,278792,279673,54
53,test,1,inc,1,z,Tue Dec 09 2025 13:40:25 GMT-0600 (Central Standard Time),284157.8000000119,step,800,O,z,z,None,686,486.0,200.0,53,1,2030.0999999642372,282127.7000000477,7243,rage,AF,A,281209,281209,279676,280492,279676,281706,281008,281008,281706,55
54,test,1,con,1,z,Tue Dec 09 2025 13:40:25 GMT-0600 (Central Standard Time),286624.5,hate,1100,O,z,z,None,827,626.0,201.0,44,1,2463.2999999523163,284161.2000000477,7243,hate,AF,A,283541,283541,281709,282823,281709,284173,283340,283340,284173,56
55,test,1,con,1,z,Tue Dec 09 2025 13:40:25 GMT-0600 (Central Standard Time),288840.5,love,1000,O,z,z,None,685,486.0,199.0,19,1,2212.2999999523163,286628.2000000477,7243,love,AF,A,285889,285889,284176,285189,284177,286389,285690,285690,286389,57
56,test,1,con,1,z,Tue Dec 09 2025 13:40:25 GMT-0600 (Central Standard Time),291107.40000003576,elated,1100,O,z,z,None,617,418.0,199.0,4,1,2262.400000035763,288845.0,7243,elated,AF,A,288222,288222,286393,287508,286393,288655,288022,288022,288655,58
57,test,1,inc,1,m,Tue Dec 09 2025 13:40:25 GMT-0600 (Central Standard Time),294122.7000000477,brutal,900,O,m,m,None,1575,1376.0,199.0,118,1,3011.600000023842,291111.10000002384,7243,remote,AF,A,290288,290288,288659,289571,288659,291671,290088,290088,291671,59
58,test,1,con,1,z,Tue Dec 09 2025 13:40:25 GMT-0600 (Central Standard Time),296539.40000003576,rage,800,O,z,z,None,1067,867.0,200.0,49,1,2412.199999988079,294127.2000000477,7243,rage,AF,A,293205,293205,291675,292490,291675,294088,293004,293004,294087,60
59,test,1,inc,1,z,Tue Dec 09 2025 13:40:25 GMT-0600 (Central Standard Time),298771.2000000477,bell,1000,O,z,z,None,698,499.0,199.0,15,1,2226.100000023842,296545.10000002384,7243,kind,AF,A,295819,295820,294093,295104,294093,296319,295620,295620,296319,61
60,test,1,inc,1,z,Tue Dec 09 2025 13:40:25 GMT-0600 (Central Standard Time),300704.5,jacket,800,O,z,z,None,610,410.0,200.0,61,1,1929.699999988079,298774.8000000119,7243,temper,AF,A,297837,297837,296323,297135,296323,298253,297636,297636,298253,62
61,test,1,inc,1,z,Tue Dec 09 2025 13:40:25 GMT-0600 (Central Standard Time),302792.60000002384,remote,1000,O,z,z,None,565,350.0,215.0,63,1,2084.199999988079,300708.40000003576,7243,temper,AF,A,299984,299984,298256,299267,298257,300341,299769,299769,300341,63
62,test,1,inc,1,m,Tue Dec 09 2025 13:40:25 GMT-0600 (Central Standard Time),305419.0,temper,1000,O,m,m,None,1093,892.0,201.0,119,1,2621.099999964237,302797.90000003576,7243,remote,AF,A,302068,302068,300346,301351,300346,302967,301867,301867,302967,64
63,test,1,inc,1,z,Tue Dec 09 2025 13:40:25 GMT-0600 (Central Standard Time),307452.10000002384,step,800,O,z,z,None,700,500.0,200.0,45,1,2029.1000000238419,305423.0,7243,hate,AF,A,304500,304500,302971,303784,302971,305000,304300,304300,305000,65
64,test,1,inc,1,m,Tue Dec 09 2025 13:40:25 GMT-0600 (Central Standard Time),309717.40000003576,hate,1100,O,m,m,None,639,425.0,214.0,88,1,2262.300000011921,307455.10000002384,7243,bell,AF,A,306832,306832,305003,306115,305003,307265,306618,306618,307265,66
65,test,1,inc,1,z,Tue Dec 09 2025 13:40:25 GMT-0600 (Central Standard Time),311916.40000003576,remote,1000,O,z,z,None,672,457.0,215.0,7,1,2195.0,309721.40000003576,7243,elated,AF,A,308998,308998,307269,308281,307270,309465,308783,308783,309464,67
66,test,1,inc,1,z,Tue Dec 09 2025 13:40:25 GMT-0600 (Central Standard Time),314134.2000000477,window,1100,O,z,z,None,583,368.0,215.0,8,1,2213.7000000476837,311920.5,7243,elated,AF,A,311314,311314,309469,310582,309469,311682,311099,311099,311682,68
67,test,1,con,1,m,Tue Dec 09 2025 13:40:25 GMT-0600 (Central Standard Time),316032.2000000477,jacket,800,O,m,m,None,575,361.0,214.0,97,1,1894.300000011921,314137.90000003576,7243,jacket,AF,A,313214,313214,311686,312497,311686,313580,312999,312999,313580,69
68,test,1,inc,1,m,Tue Dec 09 2025 13:40:25 GMT-0600 (Central Standard Time),318015.7000000477,rage,800,O,m,m,None,640,441.0,199.0,85,1,1980.6000000238419,316035.10000002384,7243,bell,AF,A,315112,315112,313583,314397,313583,315564,314913,314913,315564,70
68,test,1,inc,0,z,Tue Dec 09 2025 13:40:25 GMT-0600 (Central Standard Time),320630.40000003576,window,1100,O,m,m,None,979,779.0,200.0,32,1,2610.400000035763,318020.0,7243,friend,AF,A,317396,317396,315568,316680,315568,318178,317196,317196,318178,71
69,test,1,con,1,z,Tue Dec 09 2025 13:40:25 GMT-0600 (Central Standard Time),322812.5,rage,900,O,z,z,None,739,540.0,199.0,50,1,2179.0,320633.5,7243,rage,AF,A,319811,319811,318182,319096,318182,320361,319612,319612,320361,72
70,test,1,con,1,z,Tue Dec 09 2025 13:40:25 GMT-0600 (Central Standard Time),324928.8000000119,elated,900,O,z,z,None,667,452.0,215.0,2,1,2113.0,322815.8000000119,7243,elated,AF,A,322011,322011,320364,321278,320364,322477,321796,321796,322477,73
71,test,1,inc,1,z,Tue Dec 09 2025 13:40:25 GMT-0600 (Central Standard Time),327380.60000002384,window,1100,O,z,z,None,801,600.0,201.0,40,1,2447.800000011921,324932.8000000119,7243,brutal,AF,A,324311,324311,322481,323595,322481,324929,324109,324109,324929,74
72,test,1,con,1,z,Tue Dec 09 2025 13:40:25 GMT-0600 (Central Standard Time),329327.8000000119,friend,800,O,z,z,None,610,396.0,214.0,25,1,1942.199999988079,327385.60000002384,7243,friend,AF,A,326475,326475,324934,325743,324934,326876,326261,326261,326876,75
73,test,1,inc,1,z,Tue Dec 09 2025 13:40:25 GMT-0600 (Central Standard Time),331643.90000003576,film,1100,O,z,z,None,673,474.0,199.0,16,1,2312.300000011921,329331.60000002384,7243,kind,AF,A,328710,328710,326880,327993,326880,329192,328510,328510,329192,76
74,test,1,con,1,m,Tue Dec 09 2025 13:40:25 GMT-0600 (Central Standard Time),333975.0,remote,1000,O,m,m,None,785,586.0,199.0,115,1,2327.399999976158,331647.60000002384,7243,remote,AF,A,330925,330925,329196,330209,329196,331523,330726,330726,331523,77
75,test,1,con,1,z,Tue Dec 09 2025 13:40:25 GMT-0600 (Central Standard Time),336275.7000000477,kind,1000,O,z,z,None,757,557.0,200.0,11,1,2298.100000023842,333977.60000002384,7243,kind,AF,A,333258,333258,331526,332541,331526,333824,333058,333058,333824,78
76,test,1,con,1,m,Tue Dec 09 2025 13:40:25 GMT-0600 (Central Standard Time),338557.2000000477,rock,1000,O,m,m,None,739,539.0,200.0,75,1,2277.600000023842,336279.60000002384,7243,rock,AF,A,335556,335556,333828,334841,333828,336105,335356,335356,336105,79
77,test,1,con,1,z,Tue Dec 09 2025 13:40:25 GMT-0600 (Central Standard Time),341340.40000003576,brutal,1100,O,z,z,None,1138,938.0,200.0,36,1,2779.900000035763,338560.5,7243,brutal,AF,A,337941,337941,336109,337223,336109,338888,337740,337740,338888,80
78,test,1,con,1,m,Tue Dec 09 2025 13:40:25 GMT-0600 (Central Standard Time),343307.7000000477,film,900,O,m,m,None,535,335.0,200.0,90,1,1963.7000000476837,341344.0,7243,film,AF,A,340521,340521,338892,339807,338892,340856,340321,340321,340856,81
79,test,1,inc,1,z,Tue Dec 09 2025 13:40:25 GMT-0600 (Central Standard Time),345522.40000003576,bell,1000,O,z,z,None,689,473.0,216.0,47,1,2210.600000023842,343311.8000000119,7243,hate,AF,A,342589,342590,340860,341871,340860,343070,342372,342372,343070,82
80,test,1,con,1,m,Tue Dec 09 2025 13:40:25 GMT-0600 (Central Standard Time),347605.40000003576,film,800,O,m,m,None,748,534.0,214.0,89,1,2078.800000011921,345526.60000002384,7243,film,AF,A,344603,344603,343075,343887,343075,345153,344389,344389,345153,83
81,test,1,con,1,z,Tue Dec 09 2025 13:40:25 GMT-0600 (Central Standard Time),350192.7000000477,friend,1100,O,z,z,None,928,715.0,213.0,28,1,2582.400000035763,347610.3000000119,7243,friend,AF,A,347004,347004,345158,346271,345159,347741,346790,346790,347741,84
82,test,1,inc,1,m,Tue Dec 09 2025 13:40:25 GMT-0600 (Central Standard Time),352554.2000000477,friend,1100,O,m,m,None,740,524.0,216.0,120,1,2358.900000035763,350195.3000000119,7243,remote,AF,A,349571,349571,347743,348852,347744,350102,349355,349355,350102,85
83,test,1,con,1,z,Tue Dec 09 2025 13:40:25 GMT-0600 (Central Standard Time),354536.10000002384,kind,800,O,z,z,None,636,435.0,201.0,9,1,1977.5,352558.60000002384,7243,kind,AF,A,351636,351636,350107,350920,350107,352084,351435,351435,352084,86
84,test,1,inc,1,m,Tue Dec 09 2025 13:40:25 GMT-0600 (Central Standard Time),356619.10000002384,brutal,900,O,m,m,None,642,443.0,199.0,110,1,2078.0,354541.10000002384,7243,napkin,AF,A,353718,353718,352089,353001,352089,354167,353518,353518,354167,87
85,test,1,inc,1,m,Tue Dec 09 2025 13:40:25 GMT-0600 (Central Standard Time),359251.10000002384,elated,800,O,m,m,None,1290,1090.0,200.0,117,1,2629.0,356622.10000002384,7243,remote,AF,A,355701,355701,354170,354985,354170,356799,355501,355501,356799,88
86,test,1,con,1,m,Tue Dec 09 2025 13:40:25 GMT-0600 (Central Standard Time),361367.7000000477,step,1100,O,m,m,None,486,287.0,199.0,68,1,2114.0,359253.7000000477,7243,step,AF,A,358616,358616,356802,357915,356802,358916,358416,358416,358916,89
87,test,1,con,1,z,Tue Dec 09 2025 13:40:25 GMT-0600 (Central Standard Time),363750.3000000119,temper,1100,O,z,z,None,747,546.0,201.0,60,1,2379.300000011921,361371.0,7243,temper,AF,A,360749,360749,358919,360034,358919,361298,360548,360548,361298,90
88,test,1,inc,1,m,Tue Dec 09 2025 13:40:25 GMT-0600 (Central Standard Time),366000.3000000119,elated,800,O,m,m,None,911,708.0,203.0,125,1,2245.699999988079,363754.60000002384,7243,window,AF,A,362835,362835,361303,362116,361303,363548,362631,362631,363548,91
89,test,1,inc,1,m,Tue Dec 09 2025 13:40:25 GMT-0600 (Central Standard Time),368248.3000000119,friend,1100,O,m,m,None,612,412.0,200.0,104,1,2241.0,366007.3000000119,7243,jacket,AF,A,365380,365380,363555,364664,363556,365796,365180,365180,365796,92
90,test,1,con,1,m,Tue Dec 09 2025 13:40:25 GMT-0600 (Central Standard Time),370314.8000000119,window,1000,O,m,m,None,517,317.0,200.0,123,1,2061.199999988079,368253.60000002384,7243,window,AF,A,367530,367530,365802,366814,365802,367863,367330,367330,367863,93
91,test,1,con,1,m,Tue Dec 09 2025 13:40:25 GMT-0600 (Central Standard Time),372330.0,bell,800,O,m,m,None,675,476.0,199.0,81,1,2007.5999999642372,370322.40000003576,7243,bell,AF,A,369396,369396,367870,368681,367871,369878,369196,369196,369878,94
92,test,1,con,1,z,Tue Dec 09 2025 13:40:25 GMT-0600 (Central Standard Time),374679.5,rage,1000,O,z,z,None,802,603.0,199.0,51,1,2346.2999999523163,372333.2000000477,7243,rage,AF,A,371612,371612,369881,370895,369881,372228,371412,371412,372228,95
93,test,1,con,1,m,Tue Dec 09 2025 13:40:25 GMT-0600 (Central Standard Time),376928.8000000119,bell,900,O,m,m,None,810,609.0,201.0,82,1,2241.399999976158,374687.40000003576,7243,bell,AF,A,373862,373862,372235,373145,372236,374477,373661,373661,374477,96
94,test,1,con,1,z,Tue Dec 09 2025 13:40:25 GMT-0600 (Central Standard Time),379211.7000000477,brutal,1000,O,z,z,None,731,517.0,214.0,35,1,2276.600000023842,376935.10000002384,7243,brutal,AF,A,376227,376227,374483,375499,374484,376760,376012,376012,376760,97
95,test,1,inc,1,z,Tue Dec 09 2025 13:40:25 GMT-0600 (Central Standard Time),381644.8000000119,bell,1000,O,z,z,None,889,690.0,199.0,23,1,2428.399999976158,379216.40000003576,7243,love,AF,A,378493,378493,376764,377776,376765,379193,378293,378293,379193,98
96,test,1,con,1,z,Tue Dec 09 2025 13:40:25 GMT-0600 (Central Standard Time),383993.5,kind,1100,O,z,z,None,698,485.0,213.0,12,1,2342.399999976158,381651.10000002384,7243,kind,AF,A,381042,381042,379199,380309,379199,381542,380829,380829,381542,99
97,test,1,inc,1,m,Tue Dec 09 2025 13:40:25 GMT-0600 (Central Standard Time),386243.0,love,1000,O,m,m,None,700,500.0,200.0,79,1,2243.5,383999.5,7243,rock,AF,A,383275,383275,381548,382559,381548,383791,383074,383074,383791,100
98,test,1,inc,1,m,Tue Dec 09 2025 13:40:25 GMT-0600 (Central Standard Time),388543.10000002384,hate,1100,O,m,m,None,663,463.0,200.0,96,1,2294.0,386249.10000002384,7243,film,AF,A,385624,385624,383797,384907,383797,386091,385424,385424,386091,101
99,test,1,inc,1,z,Tue Dec 09 2025 13:40:25 GMT-0600 (Central Standard Time),390758.2000000477,rock,900,O,z,z,None,781,581.0,200.0,22,1,2208.0,388550.2000000477,7243,love,AF,A,387723,387723,386098,387008,386099,388306,387523,387523,388306,102
100,test,1,inc,1,m,Tue Dec 09 2025 13:40:25 GMT-0600 (Central Standard Time),392957.7000000477,kind,900,O,m,m,None,756,556.0,200.0,86,1,2193.400000035763,390764.3000000119,7243,bell,AF,A,389939,389939,388312,389223,388313,390506,389739,389739,390506,103
101,test,1,con,1,m,Tue Dec 09 2025 13:40:25 GMT-0600 (Central Standard Time),394973.8000000119,rock,800,O,m,m,None,696,497.0,199.0,73,1,2013.300000011921,392960.5,7243,rock,AF,A,392023,392023,390509,391322,390509,392522,391823,391823,392522,104
102,test,1,con,1,m,Tue Dec 09 2025 13:40:25 GMT-0600 (Central Standard Time),397823.3000000119,remote,800,O,m,m,None,1510,1295.0,215.0,113,1,2843.0,394980.3000000119,7243,remote,AF,A,394072,394072,392528,393338,392528,395371,393856,393856,395371,105
103,test,1,con,1,m,Tue Dec 09 2025 13:40:25 GMT-0600 (Central Standard Time),400189.10000002384,window,1100,O,m,m,None,732,533.0,199.0,124,1,2362.699999988079,397826.40000003576,7243,window,AF,A,397204,397204,395374,396488,395375,397737,397004,397004,397737,106
104,test,1,con,1,z,Tue Dec 09 2025 13:40:25 GMT-0600 (Central Standard Time),402354.2000000477,kind,900,O,z,z,None,717,518.0,199.0,10,1,2161.2000000476837,400193.0,7243,kind,AF,A,399370,399370,397741,398654,397741,399902,399171,399171,399902,107
105,test,1,con,1,m,Tue Dec 09 2025 13:40:25 GMT-0600 (Central Standard Time),404469.40000003576,window,900,O,m,m,None,669,470.0,199.0,122,1,2109.5,402359.90000003576,7243,window,AF,A,401536,401536,399908,400820,399908,402017,401336,401336,402017,108
106,test,1,inc,1,z,Tue Dec 09 2025 13:40:25 GMT-0600 (Central Standard Time),406971.40000003576,window,1100,O,z,z,None,861,660.0,201.0,64,1,2499.100000023842,404472.3000000119,7243,temper,AF,A,403852,403852,402020,403135,402020,404519,403650,403650,404519,109
107,test,1,inc,1,m,Tue Dec 09 2025 13:40:25 GMT-0600 (Central Standard Time),409203.60000002384,hate,1100,O,m,m,None,600,400.0,200.0,80,1,2228.199999988079,406975.40000003576,7243,rock,AF,A,406351,406351,404523,405635,404524,406752,406151,406151,406752,110
108,test,1,inc,1,m,Tue Dec 09 2025 13:40:25 GMT-0600 (Central Standard Time),411335.5,brutal,900,O,m,m,None,687,487.0,200.0,126,1,2126.099999964237,409209.40000003576,7243,window,AF,A,408385,408385,406757,407668,406758,408884,408184,408184,408883,111
109,test,1,inc,1,m,Tue Dec 09 2025 13:40:25 GMT-0600 (Central Standard Time),413733.3000000119,hate,1100,O,m,m,None,756,557.0,199.0,72,1,2392.399999976158,411340.90000003576,7243,step,AF,A,410714,410714,408889,410000,408889,411281,410515,410515,411281,112
110,test,1,inc,1,m,Tue Dec 09 2025 13:40:25 GMT-0600 (Central Standard Time),415700.8000000119,kind,900,O,m,m,None,517,317.0,200.0,70,1,1964.5999999642372,413736.2000000477,7243,step,AF,A,412916,412916,411284,412199,411284,413249,412715,412716,413249,113
111,test,1,inc,1,m,Tue Dec 09 2025 13:40:25 GMT-0600 (Central Standard Time),417748.8000000119,temper,1000,O,m,m,None,521,321.0,200.0,103,1,2044.0,415704.8000000119,7243,jacket,AF,A,414965,414965,413253,414263,413253,415297,414764,414764,415297,114
112,test,1,con,1,m,Tue Dec 09 2025 13:40:25 GMT-0600 (Central Standard Time),419781.90000003576,rock,900,O,m,m,None,596,397.0,199.0,74,1,2030.5,417751.40000003576,7243,rock,AF,A,416930,416930,415299,416215,415300,417330,416731,416731,417330,115
113,test,1,inc,1,m,Tue Dec 09 2025 13:40:25 GMT-0600 (Central Standard Time),421998.0,friend,1100,O,m,m,None,580,381.0,199.0,112,1,2211.2999999523163,419786.7000000477,7243,napkin,AF,A,419163,419163,417335,418453,417335,419546,418964,418964,419546,116
114,test,1,con,1,m,Tue Dec 09 2025 13:40:25 GMT-0600 (Central Standard Time),424181.60000002384,step,900,O,m,m,None,740,541.0,199.0,66,1,2180.399999976158,422001.2000000477,7243,step,AF,A,421179,421179,419549,420463,419549,421730,420980,420980,421730,117
115,test,1,con,1,m,Tue Dec 09 2025 13:40:25 GMT-0600 (Central Standard Time),426363.5,napkin,1100,O,m,m,None,549,350.0,199.0,108,1,2177.199999988079,424186.3000000119,7243,napkin,AF,A,423561,423561,421734,422846,421734,423912,423362,423362,423912,118
116,test,1,con,1,z,Tue Dec 09 2025 13:40:25 GMT-0600 (Central Standard Time),428478.8000000119,brutal,800,O,z,z,None,770,567.0,203.0,33,1,2111.899999976158,426366.90000003576,7243,brutal,AF,A,425448,425448,423915,424728,423915,426027,425245,425245,426027,119
117,test,1,con,1,m,Tue Dec 09 2025 13:40:25 GMT-0600 (Central Standard Time),430747.90000003576,remote,1100,O,m,m,None,649,450.0,199.0,116,1,2265.699999988079,428482.2000000477,7243,remote,AF,A,427845,427845,426030,427144,426031,428296,427645,427645,428296,120
118,test,1,inc,1,m,Tue Dec 09 2025 13:40:25 GMT-0600 (Central Standard Time),433009.90000003576,love,1000,O,m,m,None,723,523.0,200.0,95,1,2256.900000035763,430753.0,7243,film,AF,A,430027,430027,428301,429310,428301,430558,429827,429827,430558,121
119,test,1,con,1,z,Tue Dec 09 2025 13:40:25 GMT-0600 (Central Standard Time),435360.2000000477,rage,1100,O,z,z,None,710,510.0,200.0,52,1,2347.400000035763,433012.8000000119,7243,rage,AF,A,432393,432393,430561,431675,430561,432908,432192,432192,432908,122
120,test,1,con,1,z,Tue Dec 09 2025 13:40:25 GMT-0600 (Central Standard Time),437460.90000003576,temper,900,O,z,z,None,667,467.0,200.0,58,1,2097.600000023842,435363.3000000119,7243,temper,AF,A,434542,434542,432911,433826,432911,435009,434342,434342,435009,123
121,test,1,con,1,z,Tue Dec 09 2025 13:40:25 GMT-0600 (Central Standard Time),439842.5,friend,900,O,z,z,None,956,742.0,214.0,26,1,2377.5,437465.0,7243,friend,AF,A,436641,436641,435013,435924,435013,437391,436426,436427,437391,124
122,test,1,inc,1,z,Tue Dec 09 2025 13:40:25 GMT-0600 (Central Standard Time),441894.5,napkin,900,O,z,z,None,605,389.0,216.0,6,1,2045.8999999761581,439848.60000002384,7243,elated,AF,A,439042,439042,437397,438308,437397,439443,438825,438825,439443,125
123,test,1,inc,1,m,Tue Dec 09 2025 13:40:25 GMT-0600 (Central Standard Time),444041.5,friend,1100,O,m,m,None,517,302.0,215.0,128,1,2143.399999976158,441898.10000002384,7243,window,AF,A,441273,441273,439446,440556,439446,441590,441057,441058,441590,126
124,test,1,con,1,m,Tue Dec 09 2025 13:40:25 GMT-0600 (Central Standard Time),446140.90000003576,rock,1100,O,m,m,None,470,257.0,213.0,76,1,2093.0,444047.90000003576,7243,rock,AF,A,443422,443422,441596,442706,441596,443689,443207,443208,443689,127
125,test,1,inc,1,m,Tue Dec 09 2025 13:40:25 GMT-0600 (Central Standard Time),448773.7000000477,love,1000,O,m,m,None,1088,888.0,200.0,71,1,2629.5,446144.2000000477,7243,step,AF,A,445423,445423,443692,444706,443692,446322,445222,445222,446322,128
