Q,Q1,Q2,Q3,Q4,acc_sum,block,block_c,correct,correct_response,datetime,endtime,project,response,response_time,row_sel,session_number,squiggle1,squiggle1x,squiggle1y,squiggle2,squiggle2x,squiggle2y,squiggle3,squiggle3x,squiggle3y,squiggle4,squiggle4x,squiggle4y,start_end,starttime,subject_id,target_congruent,task,task_vers,testsquiggle,testsquigglex,testsquiggley,time_practice_delay,time_practice_fixation,time_practice_stimuli,time_practice_study,time_test_delay,time_test_fixation,time_test_stimuli,time_test_study,trial
1,1,0,0,0,1,prac,1,1,z,Tue Feb 03 2026 12:00:04 GMT-0500 (Eastern Standard Time),161906.5,I,z,1143,1,1,116.bmp,-120,-120,117.bmp,120,-120,118.bmp,-120,120,119.bmp,120,120,9959.699999809265,151946.80000019073,9050,yes,SM,A,116.bmp,-120,-120,155318,149292,157335,151302,,,,,1
3,0,0,1,0,1,prac,1,0,m,Tue Feb 03 2026 12:00:04 GMT-0500 (Eastern Standard Time),172739.5,I,None,2016,2,1,120.bmp,-120,-120,121.bmp,120,-120,122.bmp,-120,120,123.bmp,120,120,10825.800000190735,161913.69999980927,9050,no,SM,A,123.bmp,-120,120,165285,159259,167302,161268,,,,,2
4,0,0,0,1,1,prac,1,0,m,Tue Feb 03 2026 12:00:04 GMT-0500 (Eastern Standard Time),182923.10000038147,I,z,1351,3,1,124.bmp,-120,-120,125.bmp,120,-120,126.bmp,-120,120,127.bmp,120,120,10175.800000190735,172747.30000019073,9050,no,SM,A,124.bmp,120,120,176118,170093,178135,172102,,,,,3
2,0,1,0,0,2,prac,1,1,z,Tue Feb 03 2026 12:00:04 GMT-0500 (Eastern Standard Time),192889.89999961853,I,z,1134,4,1,128.bmp,-120,-120,129.bmp,120,-120,130.bmp,-120,120,131.bmp,120,120,9959.699999809265,182930.19999980927,9050,yes,SM,A,129.bmp,120,-120,186301,180276,188318,182285,,,,,4
3,0,0,1,0,3,prac,1,1,z,Tue Feb 03 2026 12:00:04 GMT-0500 (Eastern Standard Time),202989.80000019073,I,z,1282,5,1,132.bmp,-120,-120,133.bmp,120,-120,134.bmp,-120,120,135.bmp,120,120,10091.699999809265,192898.10000038147,9050,yes,SM,A,134.bmp,-120,120,196268,190243,198285,192252,,,,,5
1,1,0,0,0,3,prac,1,0,m,Tue Feb 03 2026 12:00:04 GMT-0500 (Eastern Standard Time),213822.89999961853,I,None,2016,6,1,136.bmp,-120,-120,137.bmp,120,-120,138.bmp,-120,120,139.bmp,120,120,10824.29999923706,202998.60000038147,9050,no,SM,A,139.bmp,-120,-120,206368,200344,208385,202352,,,,,6
2,0,1,0,0,3,prac,1,0,m,Tue Feb 03 2026 12:00:04 GMT-0500 (Eastern Standard Time),224039.39999961853,I,z,1388,7,1,140.bmp,-120,-120,141.bmp,120,-120,142.bmp,-120,120,143.bmp,120,120,10209.39999961853,213830.0,9050,no,SM,A,140.bmp,120,-120,217201,211175,219218,213185,,,,,7
4,0,0,0,1,3,prac,1,0,z,Tue Feb 03 2026 12:00:04 GMT-0500 (Eastern Standard Time),234873.0,I,None,2016,8,1,144.bmp,-120,-120,145.bmp,120,-120,146.bmp,-120,120,147.bmp,120,120,10826.5,224046.5,9050,yes,SM,A,147.bmp,120,120,227418,221392,229435,223402,,,,,8
1,1,0,0,0,1,prac,2,1,z,Tue Feb 03 2026 12:00:04 GMT-0500 (Eastern Standard Time),255172.80000019073,I,z,774,1,1,116.bmp,-120,-120,117.bmp,120,-120,118.bmp,-120,120,119.bmp,120,120,9592.800000190735,245580.0,9050,yes,SM,A,116.bmp,-120,-120,248951,242925,250968,244935,,,,,1
3,0,0,1,0,1,prac,2,0,m,Tue Feb 03 2026 12:00:04 GMT-0500 (Eastern Standard Time),266006.30000019073,I,None,2015,2,1,120.bmp,-120,-120,121.bmp,120,-120,122.bmp,-120,120,123.bmp,120,120,10824.900000572205,255181.39999961853,9050,no,SM,A,123.bmp,-120,120,258551,252527,260569,254535,,,,,2
4,0,0,0,1,2,prac,2,1,m,Tue Feb 03 2026 12:00:04 GMT-0500 (Eastern Standard Time),276123.30000019073,I,m,1284,3,1,124.bmp,-120,-120,125.bmp,120,-120,126.bmp,-120,120,127.bmp,120,120,10108.800000190735,266014.5,9050,no,SM,A,124.bmp,120,120,269384,263360,271402,265368,,,,,3
2,0,1,0,0,2,prac,2,0,z,Tue Feb 03 2026 12:00:04 GMT-0500 (Eastern Standard Time),286539.5,I,m,1583,4,1,128.bmp,-120,-120,129.bmp,120,-120,130.bmp,-120,120,131.bmp,120,120,10408.5,276131.0,9050,yes,SM,A,129.bmp,120,-120,279501,273476,281519,275485,,,,,4
3,0,0,1,0,2,prac,2,0,z,Tue Feb 03 2026 12:00:04 GMT-0500 (Eastern Standard Time),297239.39999961853,I,m,1872,5,1,132.bmp,-120,-120,133.bmp,120,-120,134.bmp,-120,120,135.bmp,120,120,10691.39999961853,286548.0,9050,yes,SM,A,134.bmp,-120,120,289918,283893,291935,285901,,,,,5
1,1,0,0,0,3,prac,2,1,m,Tue Feb 03 2026 12:00:04 GMT-0500 (Eastern Standard Time),307156.0,I,m,1108,6,1,136.bmp,-120,-120,137.bmp,120,-120,138.bmp,-120,120,139.bmp,120,120,9909.300000190735,297246.69999980927,9050,no,SM,A,139.bmp,-120,-120,300617,294592,302618,296602,,,,,6
2,0,1,0,0,3,prac,2,0,m,Tue Feb 03 2026 12:00:04 GMT-0500 (Eastern Standard Time),317139.30000019073,I,z,1159,7,1,140.bmp,-120,-120,141.bmp,120,-120,142.bmp,-120,120,143.bmp,120,120,9976.800000190735,307162.5,9050,no,SM,A,140.bmp,120,-120,310535,304508,312552,306518,,,,,7
4,0,0,0,1,3,prac,2,0,z,Tue Feb 03 2026 12:00:04 GMT-0500 (Eastern Standard Time),327856.10000038147,I,m,1896,8,1,144.bmp,-120,-120,145.bmp,120,-120,146.bmp,-120,120,147.bmp,120,120,10708.400000572205,317147.69999980927,9050,yes,SM,A,147.bmp,120,120,320518,314493,322535,316502,,,,,8
4,0,0,0,1,0,test,1,0,m,Tue Feb 03 2026 12:00:04 GMT-0500 (Eastern Standard Time),351456.10000038147,I,z,729,1,1,148.bmp,-120,-120,149.bmp,120,-120,150.bmp,-120,120,143.bmp,120,120,8776.60000038147,342679.5,9050,no,SM,A,150.bmp,120,120,320518,314493,322535,316502,346051.0,340025.0,348069.0,342035.0,1
2,0,1,0,0,0,test,1,0,m,Tue Feb 03 2026 12:00:04 GMT-0500 (Eastern Standard Time),360605.5,I,z,1083,2,1,101.bmp,-120,-120,102.bmp,120,-120,103.bmp,-120,120,104.bmp,120,120,9141.699999809265,351463.80000019073,9050,no,SM,A,103.bmp,120,-120,320518,314493,322535,316502,354834.0,348809.0,356851.0,350818.0,2
1,1,0,0,0,1,test,1,1,z,Tue Feb 03 2026 12:00:04 GMT-0500 (Eastern Standard Time),370505.69999980927,I,z,1837,3,1,105.bmp,-120,-120,106.bmp,120,-120,107.bmp,-120,120,108.bmp,120,120,9896.599999427795,360609.10000038147,9050,yes,SM,A,105.bmp,-120,-120,320518,314493,322535,316502,363984.0,357954.0,366001.0,359968.0,3
3,0,0,1,0,1,test,1,0,m,Tue Feb 03 2026 12:00:04 GMT-0500 (Eastern Standard Time),379656.19999980927,I,z,1089,4,1,109.bmp,-120,-120,110.bmp,120,-120,111.bmp,-120,120,112.bmp,120,120,9142.300000190735,370513.89999961853,9050,no,SM,A,109.bmp,-120,120,320518,314493,322535,316502,373884.0,367859.0,375902.0,369868.0,4
2,0,1,0,0,1,test,1,0,z,Tue Feb 03 2026 12:00:04 GMT-0500 (Eastern Standard Time),389722.60000038147,I,None,2015,5,1,113.bmp,-120,-120,114.bmp,120,-120,115.bmp,-120,120,116.bmp,120,120,10059.10000038147,379663.5,9050,yes,SM,A,114.bmp,120,-120,320518,314493,322535,316502,383034.0,377009.0,385052.0,379018.0,5
3,0,0,1,0,2,test,1,1,z,Tue Feb 03 2026 12:00:04 GMT-0500 (Eastern Standard Time),399088.80000019073,I,z,1311,6,1,117.bmp,-120,-120,118.bmp,120,-120,119.bmp,-120,120,120.bmp,120,120,9358.400000572205,389730.39999961853,9050,yes,SM,A,119.bmp,-120,120,320518,314493,322535,316502,393101.0,387076.0,395118.0,389085.0,6
4,0,0,0,1,3,test,1,1,z,Tue Feb 03 2026 12:00:04 GMT-0500 (Eastern Standard Time),408589.5,I,z,1434,7,1,121.bmp,-120,-120,122.bmp,120,-120,123.bmp,-120,120,124.bmp,120,120,9496.60000038147,399092.89999961853,9050,yes,SM,A,124.bmp,120,120,320518,314493,322535,316502,402468.0,396438.0,404485.0,398451.0,7
2,0,1,0,0,4,test,1,1,m,Tue Feb 03 2026 12:00:04 GMT-0500 (Eastern Standard Time),417822.10000038147,I,m,1181,8,1,125.bmp,-120,-120,126.bmp,120,-120,127.bmp,-120,120,128.bmp,120,120,9225.5,408596.60000038147,9050,no,SM,A,125.bmp,120,-120,320518,314493,322535,316502,411968.0,405942.0,413985.0,407951.0,8
3,0,0,1,0,5,test,1,1,m,Tue Feb 03 2026 12:00:04 GMT-0500 (Eastern Standard Time),427406.5,I,m,1532,9,1,129.bmp,-120,-120,130.bmp,120,-120,131.bmp,-120,120,132.bmp,120,120,9578.10000038147,417828.39999961853,9050,no,SM,A,130.bmp,-120,120,320518,314493,322535,316502,421201.0,415174.0,423218.0,417185.0,9
4,0,0,0,1,6,test,1,1,z,Tue Feb 03 2026 12:00:04 GMT-0500 (Eastern Standard Time),437422.30000019073,I,z,1965,10,1,137.bmp,-120,-120,138.bmp,120,-120,139.bmp,-120,120,140.bmp,120,120,10011.900000572205,427410.39999961853,9050,yes,SM,A,140.bmp,120,120,320518,314493,322535,316502,430784.0,424756.0,432801.0,426768.0,10
3,0,0,1,0,6,test,1,0,z,Tue Feb 03 2026 12:00:04 GMT-0500 (Eastern Standard Time),447155.80000019073,I,m,1676,11,1,133.bmp,-120,-120,134.bmp,120,-120,135.bmp,-120,120,136.bmp,120,120,9726.400000572205,437429.39999961853,9050,yes,SM,A,135.bmp,-120,120,320518,314493,322535,316502,440801.0,434775.0,442818.0,436785.0,11
2,0,1,0,0,6,test,1,0,m,Tue Feb 03 2026 12:00:04 GMT-0500 (Eastern Standard Time),456289.0,I,z,1080,12,1,141.bmp,-120,-120,142.bmp,120,-120,143.bmp,-120,120,144.bmp,120,120,9122.89999961853,447166.10000038147,9050,no,SM,A,141.bmp,120,-120,320518,314493,322535,316502,450534.0,444511.0,452551.0,446518.0,12
3,0,0,1,0,6,test,1,0,m,Tue Feb 03 2026 12:00:04 GMT-0500 (Eastern Standard Time),465922.39999961853,I,z,1579,13,1,145.bmp,-120,-120,146.bmp,120,-120,147.bmp,-120,120,148.bmp,120,120,9624.099999427795,456298.30000019073,9050,no,SM,A,146.bmp,-120,120,320518,314493,322535,316502,459668.0,453644.0,461683.0,455651.0,13
1,1,0,0,0,7,test,1,1,z,Tue Feb 03 2026 12:00:04 GMT-0500 (Eastern Standard Time),475055.60000038147,I,z,1080,14,1,149.bmp,-120,-120,150.bmp,120,-120,104.bmp,-120,120,101.bmp,120,120,9125.800000190735,465929.80000019073,9050,yes,SM,A,149.bmp,-120,-120,320518,314493,322535,316502,469301.0,463275.0,471318.0,465285.0,14
4,0,0,0,1,7,test,1,0,m,Tue Feb 03 2026 12:00:04 GMT-0500 (Eastern Standard Time),484305.69999980927,I,z,1195,15,1,110.bmp,-120,-120,111.bmp,120,-120,112.bmp,-120,120,113.bmp,120,120,9241.89999961853,475063.80000019073,9050,no,SM,A,111.bmp,120,120,320518,314493,322535,316502,478434.0,472409.0,480451.0,474418.0,15
1,1,0,0,0,7,test,1,0,m,Tue Feb 03 2026 12:00:04 GMT-0500 (Eastern Standard Time),494022.30000019073,I,z,1657,16,1,102.bmp,-120,-120,103.bmp,120,-120,104.bmp,-120,120,105.bmp,120,120,9708.400000572205,484313.89999961853,9050,no,SM,A,105.bmp,-120,-120,320518,314493,322535,316502,487684.0,481659.0,489701.0,483668.0,16
3,0,0,1,0,7,test,1,0,m,Tue Feb 03 2026 12:00:04 GMT-0500 (Eastern Standard Time),503438.89999961853,I,z,1364,17,1,122.bmp,-120,-120,123.bmp,120,-120,124.bmp,-120,120,125.bmp,120,120,9408.89999961853,494030.0,9050,no,SM,A,122.bmp,-120,120,320518,314493,322535,316502,497401.0,491375.0,499418.0,493386.0,17
1,1,0,0,0,7,test,1,0,z,Tue Feb 03 2026 12:00:04 GMT-0500 (Eastern Standard Time),512905.80000019073,I,m,1403,18,1,106.bmp,-120,-120,107.bmp,120,-120,108.bmp,-120,120,109.bmp,120,120,9459.60000038147,503446.19999980927,9050,yes,SM,A,106.bmp,-120,-120,320518,314493,322535,316502,506818.0,500791.0,508835.0,502801.0,18
2,0,1,0,0,8,test,1,1,z,Tue Feb 03 2026 12:00:04 GMT-0500 (Eastern Standard Time),521905.60000038147,I,z,945,19,1,126.bmp,-120,-120,127.bmp,120,-120,128.bmp,-120,120,129.bmp,120,120,8992.300000190735,512913.30000019073,9050,yes,SM,A,127.bmp,120,-120,320518,314493,322535,316502,516284.0,510259.0,518301.0,512268.0,19
3,0,0,1,0,9,test,1,1,z,Tue Feb 03 2026 12:00:04 GMT-0500 (Eastern Standard Time),530672.1999998093,I,z,713,20,1,130.bmp,-120,-120,131.bmp,120,-120,132.bmp,-120,120,133.bmp,120,120,8759.89999961853,521912.30000019073,9050,yes,SM,A,132.bmp,-120,120,320518,314493,322535,316502,525284.0,519258.0,527301.0,521268.0,20
1,1,0,0,0,10,test,1,1,m,Tue Feb 03 2026 12:00:04 GMT-0500 (Eastern Standard Time),540172.0,I,m,1434,21,1,114.bmp,-120,-120,115.bmp,120,-120,116.bmp,-120,120,117.bmp,120,120,9491.60000038147,530680.3999996185,9050,no,SM,A,116.bmp,-120,-120,320518,314493,322535,316502,534051.0,528026.0,536068.0,530034.0,21
4,0,0,0,1,10,test,1,0,z,Tue Feb 03 2026 12:00:04 GMT-0500 (Eastern Standard Time),550239.1000003815,I,None,2016,22,1,118.bmp,-120,-120,119.bmp,120,-120,120.bmp,-120,120,121.bmp,120,120,10063.20000076294,540175.8999996185,9050,yes,SM,A,121.bmp,120,120,320518,314493,322535,316502,543551.0,537521.0,545568.0,539534.0,22
1,1,0,0,0,11,test,1,1,m,Tue Feb 03 2026 12:00:04 GMT-0500 (Eastern Standard Time),559755.5,I,m,1451,23,1,134.bmp,-120,-120,135.bmp,120,-120,136.bmp,-120,120,137.bmp,120,120,9508.0,550247.5,9050,no,SM,A,137.bmp,-120,-120,320518,314493,322535,316502,553618.0,547593.0,555635.0,549601.0,23
2,0,1,0,0,12,test,1,1,z,Tue Feb 03 2026 12:00:04 GMT-0500 (Eastern Standard Time),569406.1000003815,I,z,1600,24,1,142.bmp,-120,-120,143.bmp,120,-120,144.bmp,-120,120,145.bmp,120,120,9643.10000038147,559763.0,9050,yes,SM,A,143.bmp,120,-120,320518,314493,322535,316502,563134.0,557108.0,565151.0,559118.0,24
4,0,0,0,1,12,test,1,0,m,Tue Feb 03 2026 12:00:04 GMT-0500 (Eastern Standard Time),579023.1000003815,I,z,1565,25,1,146.bmp,-120,-120,147.bmp,120,-120,148.bmp,-120,120,149.bmp,120,120,9610.300000190735,569412.8000001907,9050,no,SM,A,148.bmp,120,120,320518,314493,322535,316502,572784.0,566758.0,574801.0,568768.0,25
1,1,0,0,0,13,test,1,1,z,Tue Feb 03 2026 12:00:04 GMT-0500 (Eastern Standard Time),588038.8999996185,I,z,956,26,1,138.bmp,-120,-120,139.bmp,120,-120,140.bmp,-120,120,141.bmp,120,120,9008.199999809265,579030.6999998093,9050,yes,SM,A,138.bmp,-120,-120,320518,314493,322535,316502,582401.0,576376.0,584418.0,578384.0,26
4,0,0,0,1,13,test,1,0,z,Tue Feb 03 2026 12:00:04 GMT-0500 (Eastern Standard Time),597755.5,I,m,1651,27,1,150.bmp,-120,-120,111.bmp,120,-120,101.bmp,-120,120,102.bmp,120,120,9708.10000038147,588047.3999996185,9050,yes,SM,A,102.bmp,120,120,320518,314493,322535,316502,591418.0,585393.0,593434.0,587401.0,27
3,0,0,1,0,13,test,1,0,m,Tue Feb 03 2026 12:00:04 GMT-0500 (Eastern Standard Time),607122.3999996185,I,z,1311,28,1,103.bmp,-120,-120,104.bmp,120,-120,105.bmp,-120,120,106.bmp,120,120,9358.5,597763.8999996185,9050,no,SM,A,103.bmp,-120,120,320518,314493,322535,316502,601134.0,595109.0,603151.0,597117.0,28
2,0,1,0,0,14,test,1,1,z,Tue Feb 03 2026 12:00:04 GMT-0500 (Eastern Standard Time),615838.6999998093,I,z,664,29,1,107.bmp,-120,-120,108.bmp,120,-120,109.bmp,-120,120,110.bmp,120,120,8708.699999809265,607130.0,9050,yes,SM,A,108.bmp,120,-120,320518,314493,322535,316502,610501.0,604475.0,612518.0,606485.0,29
3,0,0,1,0,15,test,1,1,z,Tue Feb 03 2026 12:00:04 GMT-0500 (Eastern Standard Time),624972.1000003815,I,z,1067,30,1,111.bmp,-120,-120,112.bmp,120,-120,113.bmp,-120,120,114.bmp,120,120,9124.5,615847.6000003815,9050,yes,SM,A,113.bmp,-120,120,320518,314493,322535,316502,619217.0,613193.0,621235.0,615201.0,30
1,1,0,0,0,16,test,1,1,z,Tue Feb 03 2026 12:00:04 GMT-0500 (Eastern Standard Time),634372.0,I,z,1342,31,1,115.bmp,-120,-120,116.bmp,120,-120,117.bmp,-120,120,118.bmp,120,120,9392.699999809265,624979.3000001907,9050,yes,SM,A,115.bmp,-120,-120,320518,314493,322535,316502,628351.0,622325.0,630368.0,624334.0,31
2,0,1,0,0,16,test,1,0,m,Tue Feb 03 2026 12:00:04 GMT-0500 (Eastern Standard Time),643505.6999998093,I,z,1078,32,1,119.bmp,-120,-120,120.bmp,120,-120,121.bmp,-120,120,122.bmp,120,120,9124.300000190735,634381.3999996185,9050,no,SM,A,119.bmp,120,-120,320518,314493,322535,316502,637751.0,631727.0,639768.0,633734.0,32
4,0,0,0,1,17,test,1,1,z,Tue Feb 03 2026 12:00:04 GMT-0500 (Eastern Standard Time),653421.8000001907,I,z,1865,33,1,131.bmp,-120,-120,132.bmp,120,-120,133.bmp,-120,120,134.bmp,120,120,9906.699999809265,643515.1000003815,9050,yes,SM,A,134.bmp,120,120,320518,314493,322535,316502,646884.0,640860.0,648901.0,642868.0,33
2,0,1,0,0,18,test,1,1,z,Tue Feb 03 2026 12:00:04 GMT-0500 (Eastern Standard Time),662888.6999998093,I,z,1404,34,1,123.bmp,-120,-120,124.bmp,120,-120,125.bmp,-120,120,126.bmp,120,120,9459.699999809265,653429.0,9050,yes,SM,A,124.bmp,120,-120,320518,314493,322535,316502,656801.0,650774.0,658818.0,652784.0,34
4,0,0,0,1,18,test,1,0,m,Tue Feb 03 2026 12:00:04 GMT-0500 (Eastern Standard Time),672588.8999996185,I,z,1634,35,1,127.bmp,-120,-120,128.bmp,120,-120,129.bmp,-120,120,130.bmp,120,120,9693.29999923706,662895.6000003815,9050,no,SM,A,129.bmp,120,120,320518,314493,322535,316502,666267.0,660241.0,668284.0,662251.0,35
3,0,0,1,0,18,test,1,0,m,Tue Feb 03 2026 12:00:04 GMT-0500 (Eastern Standard Time),681655.5,I,z,1006,36,1,135.bmp,-120,-120,136.bmp,120,-120,137.bmp,-120,120,138.bmp,120,120,9057.39999961853,672598.1000003815,9050,no,SM,A,135.bmp,-120,120,320518,314493,322535,316502,675967.0,669943.0,677984.0,671951.0,36
1,1,0,0,0,18,test,1,0,m,Tue Feb 03 2026 12:00:04 GMT-0500 (Eastern Standard Time),691322.1000003815,I,z,1603,37,1,139.bmp,-120,-120,140.bmp,120,-120,141.bmp,-120,120,142.bmp,120,120,9659.60000038147,681662.5,9050,no,SM,A,140.bmp,-120,-120,320518,314493,322535,316502,685034.0,679008.0,687051.0,681018.0,37
2,0,1,0,0,18,test,1,0,m,Tue Feb 03 2026 12:00:04 GMT-0500 (Eastern Standard Time),701389.3000001907,I,None,2016,38,1,143.bmp,-120,-120,144.bmp,120,-120,145.bmp,-120,120,146.bmp,120,120,10057.60000038147,691331.6999998093,9050,no,SM,A,145.bmp,120,-120,320518,314493,322535,316502,694701.0,688677.0,696718.0,690685.0,38
4,0,0,0,1,19,test,1,1,z,Tue Feb 03 2026 12:00:04 GMT-0500 (Eastern Standard Time),711372.1999998093,I,z,1918,39,1,147.bmp,-120,-120,148.bmp,120,-120,149.bmp,-120,120,150.bmp,120,120,9973.599999427795,701398.6000003815,9050,yes,SM,A,150.bmp,120,120,320518,314493,322535,316502,704767.0,698744.0,706784.0,700751.0,39
3,0,0,1,0,19,test,1,0,m,Tue Feb 03 2026 12:00:04 GMT-0500 (Eastern Standard Time),721438.5,I,None,2015,40,1,104.bmp,-120,-120,105.bmp,120,-120,106.bmp,-120,120,107.bmp,120,120,10059.699999809265,711378.8000001907,9050,no,SM,A,105.bmp,-120,120,320518,314493,322535,316502,714751.0,708724.0,716768.0,710735.0,40
1,1,0,0,0,20,test,1,1,z,Tue Feb 03 2026 12:00:04 GMT-0500 (Eastern Standard Time),730605.5,I,z,1116,41,1,108.bmp,-120,-120,109.bmp,120,-120,110.bmp,-120,120,111.bmp,120,120,9162.699999809265,721442.8000001907,9050,yes,SM,A,108.bmp,-120,-120,320518,314493,322535,316502,724817.0,718788.0,726834.0,720801.0,41
4,0,0,0,1,20,test,1,0,z,Tue Feb 03 2026 12:00:04 GMT-0500 (Eastern Standard Time),740672.1999998093,I,None,2016,42,1,112.bmp,-120,-120,113.bmp,120,-120,114.bmp,-120,120,115.bmp,120,120,10058.599999427795,730613.6000003815,9050,yes,SM,A,115.bmp,120,120,320518,314493,322535,316502,733984.0,727959.0,736001.0,729968.0,42
1,1,0,0,0,21,test,1,1,z,Tue Feb 03 2026 12:00:04 GMT-0500 (Eastern Standard Time),749605.1999998093,I,z,874,43,1,116.bmp,-120,-120,117.bmp,120,-120,118.bmp,-120,120,119.bmp,120,120,8925.5,740679.6999998093,9050,yes,SM,A,116.bmp,-120,-120,320518,314493,322535,316502,744051.0,738025.0,746068.0,740034.0,43
4,0,0,0,1,21,test,1,0,m,Tue Feb 03 2026 12:00:04 GMT-0500 (Eastern Standard Time),759105.3999996185,I,z,1445,44,1,104.bmp,-120,-120,101.bmp,120,-120,102.bmp,-120,120,103.bmp,120,120,9492.39999961853,749613.0,9050,no,SM,A,104.bmp,120,120,320518,314493,322535,316502,752984.0,746958.0,755001.0,748968.0,44
1,1,0,0,0,22,test,1,1,m,Tue Feb 03 2026 12:00:04 GMT-0500 (Eastern Standard Time),768272.1999998093,I,m,1113,45,1,128.bmp,-120,-120,129.bmp,120,-120,130.bmp,-120,120,131.bmp,120,120,9159.39999961853,759112.8000001907,9050,no,SM,A,131.bmp,-120,-120,320518,314493,322535,316502,762484.0,756458.0,764501.0,758468.0,45
1,1,0,0,0,23,test,1,1,m,Tue Feb 03 2026 12:00:04 GMT-0500 (Eastern Standard Time),777522.1000003815,I,m,1211,46,1,120.bmp,-120,-120,121.bmp,120,-120,122.bmp,-120,120,123.bmp,120,120,9242.60000038147,768279.5,9050,no,SM,A,121.bmp,-120,-120,320518,314493,322535,316502,771650.0,765625.0,773651.0,767634.0,46
3,0,0,1,0,24,test,1,1,z,Tue Feb 03 2026 12:00:04 GMT-0500 (Eastern Standard Time),786322.0,I,z,744,47,1,124.bmp,-120,-120,125.bmp,120,-120,126.bmp,-120,120,127.bmp,120,120,8792.300000190735,777529.6999998093,9050,yes,SM,A,126.bmp,-120,120,320518,314493,322535,316502,780901.0,774875.0,782918.0,776884.0,47
3,0,0,1,0,25,test,1,1,z,Tue Feb 03 2026 12:00:04 GMT-0500 (Eastern Standard Time),795405.5,I,z,1016,48,1,140.bmp,-120,-120,141.bmp,120,-120,142.bmp,-120,120,143.bmp,120,120,9076.300000190735,786329.1999998093,9050,yes,SM,A,142.bmp,-120,120,320518,314493,322535,316502,789701.0,783674.0,791718.0,785684.0,48
2,0,1,0,0,26,test,1,1,z,Tue Feb 03 2026 12:00:04 GMT-0500 (Eastern Standard Time),804655.3000001907,I,z,1197,49,1,136.bmp,-120,-120,137.bmp,120,-120,138.bmp,-120,120,139.bmp,120,120,9240.5,795414.8000001907,9050,yes,SM,A,137.bmp,120,-120,320518,314493,322535,316502,798784.0,792760.0,800801.0,794767.0,49
3,0,0,1,0,26,test,1,0,m,Tue Feb 03 2026 12:00:04 GMT-0500 (Eastern Standard Time),813872.1000003815,I,z,1163,50,1,132.bmp,-120,-120,133.bmp,120,-120,134.bmp,-120,120,135.bmp,120,120,9208.20000076294,804663.8999996185,9050,no,SM,A,132.bmp,-120,120,320518,314493,322535,316502,808034.0,802009.0,810051.0,804018.0,50
2,0,1,0,0,27,test,1,1,z,Tue Feb 03 2026 12:00:04 GMT-0500 (Eastern Standard Time),823355.1999998093,I,z,1419,51,1,144.bmp,-120,-120,145.bmp,120,-120,146.bmp,-120,120,147.bmp,120,120,9476.39999961853,813878.8000001907,9050,yes,SM,A,145.bmp,120,-120,320518,314493,322535,316502,817251.0,811224.0,819267.0,813234.0,51
4,0,0,0,1,27,test,1,0,m,Tue Feb 03 2026 12:00:04 GMT-0500 (Eastern Standard Time),832388.5,I,z,975,52,1,148.bmp,-120,-120,149.bmp,120,-120,150.bmp,-120,120,131.bmp,120,120,9025.39999961853,823363.1000003815,9050,no,SM,A,148.bmp,120,120,320518,314493,322535,316502,826734.0,820708.0,828751.0,822718.0,52
3,0,0,1,0,28,test,1,1,z,Tue Feb 03 2026 12:00:04 GMT-0500 (Eastern Standard Time),841689.1000003815,I,z,1238,53,1,101.bmp,-120,-120,102.bmp,120,-120,103.bmp,-120,120,104.bmp,120,120,9293.20000076294,832395.8999996185,9050,yes,SM,A,103.bmp,-120,120,320518,314493,322535,316502,835768.0,829741.0,837784.0,831751.0,53
1,1,0,0,0,28,test,1,0,m,Tue Feb 03 2026 12:00:04 GMT-0500 (Eastern Standard Time),850721.8999996185,I,z,977,54,1,105.bmp,-120,-120,106.bmp,120,-120,107.bmp,-120,120,108.bmp,120,120,9025.39999961853,841696.5,9050,no,SM,A,107.bmp,-120,-120,320518,314493,322535,316502,845067.0,839042.0,847084.0,841051.0,54
4,0,0,0,1,28,test,1,0,z,Tue Feb 03 2026 12:00:04 GMT-0500 (Eastern Standard Time),859955.1999998093,I,m,1177,55,1,109.bmp,-120,-120,110.bmp,120,-120,111.bmp,-120,120,112.bmp,120,120,9227.0,850728.1999998093,9050,yes,SM,A,112.bmp,120,120,320518,314493,322535,316502,854100.0,848074.0,856117.0,850084.0,55
2,0,1,0,0,29,test,1,1,m,Tue Feb 03 2026 12:00:04 GMT-0500 (Eastern Standard Time),869655.1999998093,I,m,1639,56,1,113.bmp,-120,-120,114.bmp,120,-120,115.bmp,-120,120,116.bmp,120,120,9690.699999809265,859964.5,9050,no,SM,A,113.bmp,120,-120,320518,314493,322535,316502,863334.0,857310.0,865351.0,859317.0,56
4,0,0,0,1,29,test,1,0,m,Tue Feb 03 2026 12:00:04 GMT-0500 (Eastern Standard Time),878988.8999996185,I,z,1267,57,1,117.bmp,-120,-120,118.bmp,120,-120,119.bmp,-120,120,120.bmp,120,120,9324.199999809265,869664.6999998093,9050,no,SM,A,118.bmp,120,120,320518,314493,322535,316502,873034.0,867010.0,875051.0,869018.0,57
3,0,0,1,0,30,test,1,1,z,Tue Feb 03 2026 12:00:04 GMT-0500 (Eastern Standard Time),887871.6000003815,I,z,830,58,1,121.bmp,-120,-120,122.bmp,120,-120,123.bmp,-120,120,124.bmp,120,120,8875.10000038147,878996.5,9050,yes,SM,A,123.bmp,-120,120,320518,314493,322535,316502,882367.0,876342.0,884384.0,878351.0,58
2,0,1,0,0,30,test,1,0,m,Tue Feb 03 2026 12:00:04 GMT-0500 (Eastern Standard Time),897388.6000003815,I,z,1451,59,1,125.bmp,-120,-120,126.bmp,120,-120,127.bmp,-120,120,128.bmp,120,120,9507.60000038147,887881.0,9050,no,SM,A,128.bmp,120,-120,320518,314493,322535,316502,891250.0,885227.0,893267.0,887234.0,59
1,1,0,0,0,31,test,1,1,z,Tue Feb 03 2026 12:00:04 GMT-0500 (Eastern Standard Time),906138.8999996185,I,z,686,60,1,129.bmp,-120,-120,130.bmp,120,-120,131.bmp,-120,120,132.bmp,120,120,8743.0,897395.8999996185,9050,yes,SM,A,129.bmp,-120,-120,320518,314493,322535,316502,900767.0,894741.0,902784.0,896751.0,60
2,0,1,0,0,32,test,1,1,z,Tue Feb 03 2026 12:00:04 GMT-0500 (Eastern Standard Time),915221.8000001907,I,z,1040,61,1,133.bmp,-120,-120,134.bmp,120,-120,135.bmp,-120,120,136.bmp,120,120,9074.900000572205,906146.8999996185,9050,yes,SM,A,134.bmp,120,-120,320518,314493,322535,316502,909501.0,903492.0,911517.0,905500.0,61
4,0,0,0,1,32,test,1,0,z,Tue Feb 03 2026 12:00:04 GMT-0500 (Eastern Standard Time),924855.1000003815,I,m,1573,62,1,141.bmp,-120,-120,142.bmp,120,-120,143.bmp,-120,120,144.bmp,120,120,9625.0,915230.1000003815,9050,yes,SM,A,144.bmp,120,120,320518,314493,322535,316502,918600.0,912576.0,920617.0,914584.0,62
1,1,0,0,0,32,test,1,0,m,Tue Feb 03 2026 12:00:04 GMT-0500 (Eastern Standard Time),934071.8000001907,I,z,1155,63,1,145.bmp,-120,-120,146.bmp,120,-120,147.bmp,-120,120,148.bmp,120,120,9210.199999809265,924861.6000003815,9050,no,SM,A,145.bmp,-120,120,320518,314493,322535,316502,928234.0,922207.0,930251.0,924217.0,63
2,0,1,0,0,33,test,1,1,z,Tue Feb 03 2026 12:00:04 GMT-0500 (Eastern Standard Time),943538.3999996185,I,z,1411,64,1,149.bmp,-120,-120,150.bmp,120,-120,112.bmp,-120,120,101.bmp,120,120,9456.79999923706,934081.6000003815,9050,yes,SM,A,150.bmp,120,-120,320518,314493,322535,316502,937450.0,931427.0,939467.0,933434.0,64
4,0,0,0,1,33,test,1,0,m,Tue Feb 03 2026 12:00:04 GMT-0500 (Eastern Standard Time),953088.3999996185,I,z,1496,65,1,102.bmp,-120,-120,103.bmp,120,-120,104.bmp,-120,120,105.bmp,120,120,9542.199999809265,943546.1999998093,9050,no,SM,A,104.bmp,120,120,320518,314493,322535,316502,946917.0,940891.0,948934.0,942901.0,65
3,0,0,1,0,33,test,1,0,m,Tue Feb 03 2026 12:00:04 GMT-0500 (Eastern Standard Time),962671.8999996185,I,z,1530,66,1,106.bmp,-120,-120,107.bmp,120,-120,108.bmp,-120,120,109.bmp,120,120,9574.0,953097.8999996185,9050,no,SM,A,109.bmp,-120,120,320518,314493,322535,316502,956467.0,950443.0,958484.0,952451.0,66
2,0,1,0,0,33,test,1,0,m,Tue Feb 03 2026 12:00:04 GMT-0500 (Eastern Standard Time),972222.0,I,z,1498,67,1,137.bmp,-120,-120,138.bmp,120,-120,139.bmp,-120,120,140.bmp,120,120,9542.0,962680.0,9050,no,SM,A,139.bmp,120,-120,320518,314493,322535,316502,966050.0,960025.0,968068.0,962034.0,67
3,0,0,1,0,34,test,1,1,z,Tue Feb 03 2026 12:00:04 GMT-0500 (Eastern Standard Time),981238.5,I,z,957,68,1,110.bmp,-120,-120,111.bmp,120,-120,112.bmp,-120,120,113.bmp,120,120,9008.89999961853,972229.6000003815,9050,yes,SM,A,112.bmp,-120,120,320518,314493,322535,316502,975600.0,969575.0,977617.0,971584.0,68
1,1,0,0,0,34,test,1,0,m,Tue Feb 03 2026 12:00:04 GMT-0500 (Eastern Standard Time),990721.8000001907,I,z,1428,69,1,114.bmp,-120,-120,115.bmp,120,-120,116.bmp,-120,120,117.bmp,120,120,9476.900000572205,981244.8999996185,9050,no,SM,A,115.bmp,-120,-120,320518,314493,322535,316502,984617.0,978590.0,986634.0,980601.0,69
2,0,1,0,0,34,test,1,0,m,Tue Feb 03 2026 12:00:04 GMT-0500 (Eastern Standard Time),1000055.0,I,z,1273,70,1,118.bmp,-120,-120,119.bmp,120,-120,120.bmp,-120,120,121.bmp,120,120,9324.800000190735,990730.1999998093,9050,no,SM,A,120.bmp,120,-120,320518,314493,322535,316502,994100.0,988075.0,996117.0,990084.0,70
4,0,0,0,1,34,test,1,0,z,Tue Feb 03 2026 12:00:04 GMT-0500 (Eastern Standard Time),1009688.3999996185,I,m,1588,71,1,122.bmp,-120,-120,123.bmp,120,-120,124.bmp,-120,120,125.bmp,120,120,9626.39999961853,1000062.0,9050,yes,SM,A,125.bmp,120,120,320518,314493,322535,316502,1003417.0,997407.0,1005434.0,999416.0,71
1,1,0,0,0,35,test,1,1,z,Tue Feb 03 2026 12:00:04 GMT-0500 (Eastern Standard Time),1019055.1000003815,I,z,1314,72,1,126.bmp,-120,-120,127.bmp,120,-120,128.bmp,-120,120,129.bmp,120,120,9357.800000190735,1009697.3000001907,9050,yes,SM,A,126.bmp,-120,-120,320518,314493,322535,316502,1013067.0,1007043.0,1015084.0,1009051.0,72
2,0,1,0,0,36,test,1,1,z,Tue Feb 03 2026 12:00:04 GMT-0500 (Eastern Standard Time),1028021.6999998093,I,z,907,73,1,130.bmp,-120,-120,131.bmp,120,-120,132.bmp,-120,120,133.bmp,120,120,8957.300000190735,1019064.3999996185,9050,yes,SM,A,131.bmp,120,-120,320518,314493,322535,316502,1022434.0,1016410.0,1024451.0,1018417.0,73
4,0,0,0,1,36,test,1,0,m,Tue Feb 03 2026 12:00:04 GMT-0500 (Eastern Standard Time),1037021.6999998093,I,z,933,74,1,134.bmp,-120,-120,135.bmp,120,-120,136.bmp,-120,120,137.bmp,120,120,8992.800000190735,1028028.8999996185,9050,no,SM,A,136.bmp,120,120,320518,314493,322535,316502,1031400.0,1025374.0,1033417.0,1027384.0,74
2,0,1,0,0,37,test,1,1,m,Tue Feb 03 2026 12:00:04 GMT-0500 (Eastern Standard Time),1046355.1000003815,I,m,1277,75,1,138.bmp,-120,-120,139.bmp,120,-120,140.bmp,-120,120,141.bmp,120,120,9324.70000076294,1037030.3999996185,9050,no,SM,A,141.bmp,120,-120,320518,314493,322535,316502,1040400.0,1034376.0,1042417.0,1036384.0,75
1,1,0,0,0,38,test,1,1,z,Tue Feb 03 2026 12:00:04 GMT-0500 (Eastern Standard Time),1055938.6999998093,I,z,1527,76,1,142.bmp,-120,-120,143.bmp,120,-120,144.bmp,-120,120,145.bmp,120,120,9576.199999809265,1046362.5,9050,yes,SM,A,142.bmp,-120,-120,320518,314493,322535,316502,1049734.0,1043708.0,1051751.0,1045717.0,76
3,0,0,1,0,39,test,1,1,z,Tue Feb 03 2026 12:00:04 GMT-0500 (Eastern Standard Time),1064638.0,I,z,648,77,1,150.bmp,-120,-120,111.bmp,120,-120,101.bmp,-120,120,102.bmp,120,120,8692.199999809265,1055945.8000001907,9050,yes,SM,A,101.bmp,-120,120,320518,314493,322535,316502,1059317.0,1053291.0,1061334.0,1055301.0,77
1,1,0,0,0,39,test,1,0,m,Tue Feb 03 2026 12:00:04 GMT-0500 (Eastern Standard Time),1073471.6000003815,I,z,780,78,1,146.bmp,-120,-120,147.bmp,120,-120,148.bmp,-120,120,149.bmp,120,120,8828.0,1064643.6000003815,9050,no,SM,A,147.bmp,-120,-120,320518,314493,322535,316502,1068017.0,1061989.0,1070034.0,1064000.0,78
4,0,0,0,1,39,test,1,0,m,Tue Feb 03 2026 12:00:04 GMT-0500 (Eastern Standard Time),1083121.6000003815,I,z,1595,79,1,107.bmp,-120,-120,108.bmp,120,-120,109.bmp,-120,120,110.bmp,120,120,9643.0,1073478.6000003815,9050,no,SM,A,107.bmp,120,120,320518,314493,322535,316502,1076850.0,1070824.0,1078867.0,1072833.0,79
3,0,0,1,0,39,test,1,0,m,Tue Feb 03 2026 12:00:04 GMT-0500 (Eastern Standard Time),1091971.6999998093,I,z,793,80,1,103.bmp,-120,-120,104.bmp,120,-120,105.bmp,-120,120,106.bmp,120,120,8843.0,1083128.6999998093,9050,no,SM,A,106.bmp,-120,120,320518,314493,322535,316502,1086500.0,1080474.0,1088517.0,1082484.0,80
