Q,Q1,Q2,Q3,Q4,acc_sum,block,block_c,correct,correct_response,datetime,endtime,project,response,response_time,row_sel,session_number,squiggle1,squiggle1x,squiggle1y,squiggle2,squiggle2x,squiggle2y,squiggle3,squiggle3x,squiggle3y,squiggle4,squiggle4x,squiggle4y,start_end,starttime,subject_id,target_congruent,task,task_vers,testsquiggle,testsquigglex,testsquiggley,time_practice_delay,time_practice_fixation,time_practice_stimuli,time_practice_study,time_test_delay,time_test_fixation,time_test_stimuli,time_test_study,trial
1,1,0,0,0,1,prac,1,1,z,Wed Nov 12 2025 14:44:21 GMT-0500 (Eastern Standard Time),224487.69999999995,I,z,1584,1,,16.bmp,-120,-120,17.bmp,120,-120,18.bmp,-120,120,19.bmp,120,120,10412.600000000093,214075.09999999986,,yes,SM,B,16.bmp,-120,-120,56525,50496,58542,52509,,,,,1
3,0,0,1,0,1,prac,1,0,m,Wed Nov 12 2025 14:44:21 GMT-0500 (Eastern Standard Time),234504.2999999998,I,z,1200,2,,20.bmp,-120,-120,21.bmp,120,-120,22.bmp,-120,120,23.bmp,120,120,10010.699999999953,224493.59999999986,,no,SM,B,23.bmp,-120,120,66942,60915,68959,62926,,,,,2
4,0,0,0,1,2,prac,1,1,m,Wed Nov 12 2025 14:44:21 GMT-0500 (Eastern Standard Time),244137.59999999986,I,m,814,3,,24.bmp,-120,-120,25.bmp,120,-120,26.bmp,-120,120,27.bmp,120,120,9628.0,234509.59999999986,,no,SM,B,24.bmp,120,120,76959,70931,78976,72942,,,,,3
2,0,1,0,0,2,prac,1,0,z,Wed Nov 12 2025 14:44:21 GMT-0500 (Eastern Standard Time),254037.5,I,m,1070,4,,28.bmp,-120,-120,29.bmp,120,-120,30.bmp,-120,120,31.bmp,120,120,9896.0,244141.5,,yes,SM,B,29.bmp,120,-120,86592,80563,88609,82576,,,,,4
3,0,0,1,0,2,prac,1,0,z,Wed Nov 12 2025 14:44:21 GMT-0500 (Eastern Standard Time),263687.5,I,m,818,5,,32.bmp,-120,-120,33.bmp,120,-120,34.bmp,-120,120,35.bmp,120,120,9645.0,254042.5,,yes,SM,B,34.bmp,-120,120,96492,90464,98509,92475,,,,,5
1,1,0,0,0,2,prac,1,0,m,Wed Nov 12 2025 14:44:21 GMT-0500 (Eastern Standard Time),274520.8999999999,I,None,2016,6,,36.bmp,-120,-120,37.bmp,120,-120,38.bmp,-120,120,39.bmp,120,120,10829.199999999953,263691.69999999995,,no,SM,B,39.bmp,-120,-120,106142,100113,108159,102125,,,,,6
2,0,1,0,0,2,prac,1,0,m,Wed Nov 12 2025 14:44:21 GMT-0500 (Eastern Standard Time),284320.7999999998,I,z,975,7,,40.bmp,-120,-120,41.bmp,120,-120,42.bmp,-120,120,43.bmp,120,120,9794.699999999953,274526.09999999986,,no,SM,B,40.bmp,120,-120,116975,110947,118992,112959,,,,,7
4,0,0,0,1,2,prac,1,0,z,Wed Nov 12 2025 14:44:21 GMT-0500 (Eastern Standard Time),293838.09999999986,I,m,694,8,,44.bmp,-120,-120,45.bmp,120,-120,46.bmp,-120,120,47.bmp,120,120,9512.5,284325.59999999986,,yes,SM,B,47.bmp,120,120,126775,120747,128793,122759,,,,,8
4,0,0,0,1,0,test,1,0,m,Wed Nov 12 2025 14:44:21 GMT-0500 (Eastern Standard Time),308888.3999999999,I,None,2016,1,,48.bmp,-120,-120,49.bmp,120,-120,50.bmp,-120,120,43.bmp,120,120,10057.600000000093,298830.7999999998,,yes,SM,B,50.bmp,120,120,126775,120747,128793,122759,141276.0,135252.0,143293.0,137260.0,1
2,0,1,0,0,1,test,1,1,m,Wed Nov 12 2025 14:44:21 GMT-0500 (Eastern Standard Time),317688.09999999986,I,m,736,2,,1.bmp,-120,-120,2.bmp,120,-120,3.bmp,-120,120,4.bmp,120,120,8791.09999999986,308897.0,,yes,SM,B,3.bmp,120,-120,126775,120747,128793,122759,151342.0,145318.0,153360.0,147326.0,2
1,1,0,0,0,1,test,1,0,z,Wed Nov 12 2025 14:44:21 GMT-0500 (Eastern Standard Time),326387.59999999986,I,m,639,3,,5.bmp,-120,-120,6.bmp,120,-120,7.bmp,-120,120,8.bmp,120,120,8691.09999999986,317696.5,,yes,SM,B,5.bmp,-120,-120,126775,120747,128793,122759,160142.0,154118.0,162160.0,156126.0,3
3,0,0,1,0,2,test,1,1,m,Wed Nov 12 2025 14:44:21 GMT-0500 (Eastern Standard Time),335371.19999999995,I,m,932,4,,9.bmp,-120,-120,10.bmp,120,-120,11.bmp,-120,120,12.bmp,120,120,8979.699999999953,326391.5,,yes,SM,B,9.bmp,-120,120,126775,120747,128793,122759,168843.0,162813.0,170860.0,164826.0,4
2,0,1,0,0,2,test,1,0,z,Wed Nov 12 2025 14:44:21 GMT-0500 (Eastern Standard Time),344171.0,I,m,748,5,,13.bmp,-120,-120,14.bmp,120,-120,15.bmp,-120,120,16.bmp,120,120,8790.700000000186,335380.2999999998,,yes,SM,B,14.bmp,120,-120,126775,120747,128793,122759,177826.0,171801.0,179843.0,173810.0,5
3,0,0,1,0,2,test,1,0,z,Wed Nov 12 2025 14:44:21 GMT-0500 (Eastern Standard Time),352804.3999999999,I,m,570,6,,17.bmp,-120,-120,18.bmp,120,-120,19.bmp,-120,120,20.bmp,120,120,8626.600000000093,344177.7999999998,,yes,SM,B,19.bmp,-120,120,126775,120747,128793,122759,186626.0,180599.0,188644.0,182610.0,6
4,0,0,0,1,2,test,1,0,z,Wed Nov 12 2025 14:44:21 GMT-0500 (Eastern Standard Time),361554.69999999995,I,m,691,7,,21.bmp,-120,-120,22.bmp,120,-120,23.bmp,-120,120,24.bmp,120,120,8745.699999999953,352809.0,,yes,SM,B,24.bmp,120,120,126775,120747,128793,122759,195259.0,189230.0,197276.0,191243.0,7
2,0,1,0,0,3,test,1,1,m,Wed Nov 12 2025 14:44:21 GMT-0500 (Eastern Standard Time),370804.59999999986,I,m,1189,8,,25.bmp,-120,-120,26.bmp,120,-120,27.bmp,-120,120,28.bmp,120,120,9243.5,361561.09999999986,,yes,SM,B,25.bmp,120,-120,126775,120747,128793,122759,204009.0,197982.0,206026.0,199993.0,8
3,0,0,1,0,4,test,1,1,m,Wed Nov 12 2025 14:44:21 GMT-0500 (Eastern Standard Time),379871.19999999995,I,m,1011,9,,29.bmp,-120,-120,30.bmp,120,-120,31.bmp,-120,120,32.bmp,120,120,9059.0,370812.19999999995,,yes,SM,B,30.bmp,-120,120,126775,120747,128793,122759,213259.0,207233.0,215276.0,209243.0,9
4,0,0,0,1,4,test,1,0,z,Wed Nov 12 2025 14:44:21 GMT-0500 (Eastern Standard Time),389238.09999999986,I,m,1305,10,,37.bmp,-120,-120,38.bmp,120,-120,39.bmp,-120,120,40.bmp,120,120,9358.800000000047,379879.2999999998,,yes,SM,B,40.bmp,120,120,126775,120747,128793,122759,222326.0,216301.0,224343.0,218309.0,10
3,0,0,1,0,4,test,1,0,z,Wed Nov 12 2025 14:44:21 GMT-0500 (Eastern Standard Time),399221.2999999998,I,m,1921,11,,33.bmp,-120,-120,34.bmp,120,-120,35.bmp,-120,120,36.bmp,120,120,9975.0,389246.2999999998,,yes,SM,B,35.bmp,-120,120,126775,120747,128793,122759,231692.0,225668.0,233710.0,227676.0,11
2,0,1,0,0,5,test,1,1,m,Wed Nov 12 2025 14:44:21 GMT-0500 (Eastern Standard Time),408404.69999999995,I,m,1123,12,,41.bmp,-120,-120,42.bmp,120,-120,43.bmp,-120,120,44.bmp,120,120,9174.800000000047,399229.8999999999,,yes,SM,B,41.bmp,120,-120,126775,120747,128793,122759,241676.0,235651.0,243693.0,237660.0,12
3,0,0,1,0,6,test,1,1,m,Wed Nov 12 2025 14:44:21 GMT-0500 (Eastern Standard Time),417287.8999999999,I,m,819,13,,45.bmp,-120,-120,46.bmp,120,-120,47.bmp,-120,120,48.bmp,120,120,8876.0,408411.8999999999,,yes,SM,B,46.bmp,-120,120,126775,120747,128793,122759,250859.0,244833.0,252876.0,246843.0,13
1,1,0,0,0,7,test,1,1,z,Wed Nov 12 2025 14:44:21 GMT-0500 (Eastern Standard Time),426054.69999999995,I,z,703,14,,49.bmp,-120,-120,50.bmp,120,-120,4.bmp,-120,120,1.bmp,120,120,8757.199999999953,417297.5,,yes,SM,B,49.bmp,-120,-120,126775,120747,128793,122759,259742.0,253719.0,261759.0,255726.0,14
4,0,0,0,1,8,test,1,1,m,Wed Nov 12 2025 14:44:21 GMT-0500 (Eastern Standard Time),434738.09999999986,I,m,626,15,,10.bmp,-120,-120,11.bmp,120,-120,12.bmp,-120,120,13.bmp,120,120,8676.699999999953,426061.3999999999,,yes,SM,B,11.bmp,120,120,126775,120747,128793,122759,268509.0,262483.0,270526.0,264492.0,15
1,1,0,0,0,9,test,1,1,m,Wed Nov 12 2025 14:44:21 GMT-0500 (Eastern Standard Time),443154.69999999995,I,m,357,16,,2.bmp,-120,-120,3.bmp,120,-120,4.bmp,-120,120,5.bmp,120,120,8406.90000000014,434747.7999999998,,yes,SM,B,5.bmp,-120,-120,126775,120747,128793,122759,277193.0,271169.0,279210.0,273176.0,16
3,0,0,1,0,10,test,1,1,m,Wed Nov 12 2025 14:44:21 GMT-0500 (Eastern Standard Time),451721.2999999998,I,m,501,17,,22.bmp,-120,-120,23.bmp,120,-120,24.bmp,-120,120,25.bmp,120,120,8559.699999999953,443161.59999999986,,yes,SM,B,22.bmp,-120,120,126775,120747,128793,122759,285609.0,279583.0,287626.0,281593.0,17
1,1,0,0,0,10,test,1,0,z,Wed Nov 12 2025 14:44:21 GMT-0500 (Eastern Standard Time),461237.8999999999,I,m,1454,18,,6.bmp,-120,-120,7.bmp,120,-120,8.bmp,-120,120,9.bmp,120,120,9505.0,451732.8999999999,,yes,SM,B,6.bmp,-120,-120,126775,120747,128793,122759,294176.0,288154.0,296193.0,290159.0,18
2,0,1,0,0,10,test,1,0,z,Wed Nov 12 2025 14:44:21 GMT-0500 (Eastern Standard Time),470104.5,I,m,801,19,,26.bmp,-120,-120,27.bmp,120,-120,28.bmp,-120,120,29.bmp,120,120,8857.90000000014,461246.59999999986,,yes,SM,B,27.bmp,120,-120,126775,120747,128793,122759,303693.0,297668.0,305710.0,299676.0,19
3,0,0,1,0,10,test,1,0,z,Wed Nov 12 2025 14:44:21 GMT-0500 (Eastern Standard Time),478737.69999999995,I,m,575,20,,30.bmp,-120,-120,31.bmp,120,-120,32.bmp,-120,120,33.bmp,120,120,8625.300000000047,470112.3999999999,,yes,SM,B,32.bmp,-120,120,126775,120747,128793,122759,312559.0,306534.0,314576.0,308543.0,20
1,1,0,0,0,10,test,1,0,m,Wed Nov 12 2025 14:44:21 GMT-0500 (Eastern Standard Time),488804.8999999999,I,None,2016,21,,14.bmp,-120,-120,15.bmp,120,-120,16.bmp,-120,120,17.bmp,120,120,10062.0,478742.8999999999,,yes,SM,B,16.bmp,-120,-120,126775,120747,128793,122759,321192.0,315164.0,323210.0,317176.0,21
4,0,0,0,1,10,test,1,0,z,Wed Nov 12 2025 14:44:21 GMT-0500 (Eastern Standard Time),498871.2999999998,I,None,2016,22,,18.bmp,-120,-120,19.bmp,120,-120,20.bmp,-120,120,21.bmp,120,120,10057.199999999953,488814.09999999986,,yes,SM,B,21.bmp,120,120,126775,120747,128793,122759,331259.0,325236.0,333276.0,327243.0,22
1,1,0,0,0,10,test,1,0,m,Wed Nov 12 2025 14:44:21 GMT-0500 (Eastern Standard Time),508937.69999999995,I,None,2015,23,,34.bmp,-120,-120,35.bmp,120,-120,36.bmp,-120,120,37.bmp,120,120,10058.5,498879.19999999995,,yes,SM,B,37.bmp,-120,-120,126775,120747,128793,122759,341326.0,335301.0,343344.0,337309.0,23
2,0,1,0,0,10,test,1,0,z,Wed Nov 12 2025 14:44:21 GMT-0500 (Eastern Standard Time),518988.0,I,None,2016,24,,42.bmp,-120,-120,43.bmp,120,-120,44.bmp,-120,120,45.bmp,120,120,10046.200000000186,508941.7999999998,,yes,SM,B,43.bmp,120,-120,126775,120747,128793,122759,351376.0,345363.0,353393.0,347375.0,24
4,0,0,0,1,10,test,1,0,m,Wed Nov 12 2025 14:44:21 GMT-0500 (Eastern Standard Time),529054.7999999998,I,None,2016,25,,46.bmp,-120,-120,47.bmp,120,-120,48.bmp,-120,120,49.bmp,120,120,10060.0,518994.7999999998,,yes,SM,B,48.bmp,120,120,126775,120747,128793,122759,361443.0,355416.0,363460.0,357426.0,25
1,1,0,0,0,10,test,1,0,z,Wed Nov 12 2025 14:44:21 GMT-0500 (Eastern Standard Time),539121.7999999998,I,None,2016,26,,38.bmp,-120,-120,39.bmp,120,-120,40.bmp,-120,120,41.bmp,120,120,10058.5,529063.2999999998,,yes,SM,B,38.bmp,-120,-120,126775,120747,128793,122759,371509.0,365484.0,373527.0,367493.0,26
4,0,0,0,1,10,test,1,0,z,Wed Nov 12 2025 14:44:21 GMT-0500 (Eastern Standard Time),549187.8999999999,I,None,2016,27,,50.bmp,-120,-120,11.bmp,120,-120,1.bmp,-120,120,2.bmp,120,120,10059.300000000047,539128.5999999999,,yes,SM,B,2.bmp,120,120,126775,120747,128793,122759,381576.0,375550.0,383593.0,377559.0,27
3,0,0,1,0,10,test,1,0,m,Wed Nov 12 2025 14:44:21 GMT-0500 (Eastern Standard Time),559254.7,I,None,2016,28,,3.bmp,-120,-120,4.bmp,120,-120,5.bmp,-120,120,6.bmp,120,120,10058.0,549196.7,,yes,SM,B,3.bmp,-120,120,126775,120747,128793,122759,391643.0,385618.0,393660.0,387626.0,28
2,0,1,0,0,10,test,1,0,z,Wed Nov 12 2025 14:44:21 GMT-0500 (Eastern Standard Time),569321.0,I,None,2016,29,,7.bmp,-120,-120,8.bmp,120,-120,9.bmp,-120,120,10.bmp,120,120,10058.90000000014,559262.0999999999,,yes,SM,B,8.bmp,120,-120,126775,120747,128793,122759,401709.0,395683.0,403726.0,397693.0,29
3,0,0,1,0,10,test,1,0,z,Wed Nov 12 2025 14:44:21 GMT-0500 (Eastern Standard Time),579388.0999999999,I,None,2016,30,,11.bmp,-120,-120,12.bmp,120,-120,13.bmp,-120,120,14.bmp,120,120,10062.09999999986,569326.0,,yes,SM,B,13.bmp,-120,120,126775,120747,128793,122759,411776.0,405747.0,413793.0,407759.0,30
1,1,0,0,0,10,test,1,0,z,Wed Nov 12 2025 14:44:21 GMT-0500 (Eastern Standard Time),589454.5999999999,I,None,2017,31,,15.bmp,-120,-120,16.bmp,120,-120,17.bmp,-120,120,18.bmp,120,120,10057.800000000047,579396.7999999998,,yes,SM,B,15.bmp,-120,-120,126775,120747,128793,122759,421842.0,415818.0,423859.0,417826.0,31
2,0,1,0,0,10,test,1,0,m,Wed Nov 12 2025 14:44:21 GMT-0500 (Eastern Standard Time),599521.5,I,None,2016,32,,19.bmp,-120,-120,20.bmp,120,-120,21.bmp,-120,120,22.bmp,120,120,10060.100000000093,589461.3999999999,,yes,SM,B,19.bmp,120,-120,126775,120747,128793,122759,431909.0,425883.0,433926.0,427892.0,32
4,0,0,0,1,10,test,1,0,z,Wed Nov 12 2025 14:44:21 GMT-0500 (Eastern Standard Time),609588.0,I,None,2016,33,,31.bmp,-120,-120,32.bmp,120,-120,33.bmp,-120,120,34.bmp,120,120,10059.5,599528.5,,yes,SM,B,34.bmp,120,120,126775,120747,128793,122759,441976.0,435950.0,443993.0,437959.0,33
2,0,1,0,0,10,test,1,0,z,Wed Nov 12 2025 14:44:21 GMT-0500 (Eastern Standard Time),619654.7,I,None,2016,34,,23.bmp,-120,-120,24.bmp,120,-120,25.bmp,-120,120,26.bmp,120,120,10058.90000000014,609595.7999999998,,yes,SM,B,24.bmp,120,-120,126775,120747,128793,122759,452042.0,446017.0,454059.0,448025.0,34
4,0,0,0,1,10,test,1,0,m,Wed Nov 12 2025 14:44:21 GMT-0500 (Eastern Standard Time),629721.5999999999,I,None,2016,35,,27.bmp,-120,-120,28.bmp,120,-120,29.bmp,-120,120,30.bmp,120,120,10060.300000000047,619661.2999999998,,yes,SM,B,29.bmp,120,120,126775,120747,128793,122759,462109.0,456083.0,464126.0,458093.0,35
3,0,0,1,0,10,test,1,0,m,Wed Nov 12 2025 14:44:21 GMT-0500 (Eastern Standard Time),639788.0999999999,I,None,2017,36,,35.bmp,-120,-120,36.bmp,120,-120,37.bmp,-120,120,38.bmp,120,120,10057.59999999986,629730.5,,yes,SM,B,35.bmp,-120,120,126775,120747,128793,122759,472176.0,466152.0,474192.0,468160.0,36
1,1,0,0,0,10,test,1,0,m,Wed Nov 12 2025 14:44:21 GMT-0500 (Eastern Standard Time),649854.7999999998,I,None,2016,37,,39.bmp,-120,-120,40.bmp,120,-120,41.bmp,-120,120,42.bmp,120,120,10058.899999999907,639795.8999999999,,yes,SM,B,40.bmp,-120,-120,126775,120747,128793,122759,482242.0,476217.0,484260.0,478226.0,37
2,0,1,0,0,10,test,1,0,m,Wed Nov 12 2025 14:44:21 GMT-0500 (Eastern Standard Time),659921.0999999999,I,None,2016,38,,43.bmp,-120,-120,44.bmp,120,-120,45.bmp,-120,120,46.bmp,120,120,10058.800000000047,649862.2999999998,,yes,SM,B,45.bmp,120,-120,126775,120747,128793,122759,492309.0,486284.0,494326.0,488292.0,38
4,0,0,0,1,10,test,1,0,z,Wed Nov 12 2025 14:44:21 GMT-0500 (Eastern Standard Time),669988.0999999999,I,None,2016,39,,47.bmp,-120,-120,48.bmp,120,-120,49.bmp,-120,120,50.bmp,120,120,10061.5,659926.5999999999,,yes,SM,B,50.bmp,120,120,126775,120747,128793,122759,502376.0,496348.0,504393.0,498359.0,39
3,0,0,1,0,10,test,1,0,m,Wed Nov 12 2025 14:44:21 GMT-0500 (Eastern Standard Time),680054.7,I,None,2016,40,,4.bmp,-120,-120,5.bmp,120,-120,6.bmp,-120,120,7.bmp,120,120,10058.40000000014,669996.2999999998,,yes,SM,B,5.bmp,-120,120,126775,120747,128793,122759,512443.0,506418.0,514460.0,508426.0,40
1,1,0,0,0,10,test,1,0,z,Wed Nov 12 2025 14:44:21 GMT-0500 (Eastern Standard Time),690121.3999999999,I,None,2016,41,,8.bmp,-120,-120,9.bmp,120,-120,10.bmp,-120,120,11.bmp,120,120,10056.899999999907,680064.5,,yes,SM,B,8.bmp,-120,-120,126775,120747,128793,122759,522509.0,516486.0,524526.0,518493.0,41
4,0,0,0,1,10,test,1,0,z,Wed Nov 12 2025 14:44:21 GMT-0500 (Eastern Standard Time),700188.2,I,None,2016,42,,12.bmp,-120,-120,13.bmp,120,-120,14.bmp,-120,120,15.bmp,120,120,10060.300000000047,690127.8999999999,,yes,SM,B,15.bmp,120,120,126775,120747,128793,122759,532576.0,526549.0,534593.0,528560.0,42
1,1,0,0,0,10,test,1,0,z,Wed Nov 12 2025 14:44:21 GMT-0500 (Eastern Standard Time),710254.7,I,None,2016,43,,16.bmp,-120,-120,17.bmp,120,-120,18.bmp,-120,120,19.bmp,120,120,10059.90000000014,700194.7999999998,,yes,SM,B,16.bmp,-120,-120,126775,120747,128793,122759,542642.0,536616.0,544659.0,538626.0,43
4,0,0,0,1,10,test,1,0,m,Wed Nov 12 2025 14:44:21 GMT-0500 (Eastern Standard Time),720321.3999999999,I,None,2016,44,,4.bmp,-120,-120,1.bmp,120,-120,2.bmp,-120,120,3.bmp,120,120,10060.0,710261.3999999999,,yes,SM,B,4.bmp,120,120,126775,120747,128793,122759,552709.0,546683.0,554726.0,548693.0,44
1,1,0,0,0,10,test,1,0,m,Wed Nov 12 2025 14:44:21 GMT-0500 (Eastern Standard Time),730387.8999999999,I,None,2016,45,,28.bmp,-120,-120,29.bmp,120,-120,30.bmp,-120,120,31.bmp,120,120,10059.5,720328.3999999999,,yes,SM,B,31.bmp,-120,-120,126775,120747,128793,122759,562776.0,556750.0,564793.0,558759.0,45
1,1,0,0,0,10,test,1,0,m,Wed Nov 12 2025 14:44:21 GMT-0500 (Eastern Standard Time),740454.7,I,None,2016,46,,20.bmp,-120,-120,21.bmp,120,-120,22.bmp,-120,120,23.bmp,120,120,10060.300000000047,730394.3999999999,,yes,SM,B,21.bmp,-120,-120,126775,120747,128793,122759,572842.0,566816.0,574860.0,568826.0,46
3,0,0,1,0,10,test,1,0,z,Wed Nov 12 2025 14:44:21 GMT-0500 (Eastern Standard Time),750521.0999999999,I,None,2016,47,,24.bmp,-120,-120,25.bmp,120,-120,26.bmp,-120,120,27.bmp,120,120,10058.59999999986,740462.5,,yes,SM,B,26.bmp,-120,120,126775,120747,128793,122759,582909.0,576884.0,584926.0,578893.0,47
3,0,0,1,0,10,test,1,0,z,Wed Nov 12 2025 14:44:21 GMT-0500 (Eastern Standard Time),760587.7,I,None,2016,48,,40.bmp,-120,-120,41.bmp,120,-120,42.bmp,-120,120,43.bmp,120,120,10063.100000000093,750524.5999999999,,yes,SM,B,42.bmp,-120,120,126775,120747,128793,122759,592976.0,586946.0,594993.0,588959.0,48
2,0,1,0,0,10,test,1,0,z,Wed Nov 12 2025 14:44:21 GMT-0500 (Eastern Standard Time),770621.2999999998,I,None,2015,49,,36.bmp,-120,-120,37.bmp,120,-120,38.bmp,-120,120,39.bmp,120,120,10030.0,760591.2999999998,,yes,SM,B,37.bmp,120,-120,126775,120747,128793,122759,603026.0,597013.0,605027.0,599025.0,49
3,0,0,1,0,10,test,1,0,m,Wed Nov 12 2025 14:44:21 GMT-0500 (Eastern Standard Time),780687.7999999998,I,None,2017,50,,32.bmp,-120,-120,33.bmp,120,-120,34.bmp,-120,120,35.bmp,120,120,10058.5,770629.2999999998,,yes,SM,B,32.bmp,-120,120,126775,120747,128793,122759,613076.0,607051.0,615092.0,609060.0,50
2,0,1,0,0,10,test,1,0,z,Wed Nov 12 2025 14:44:21 GMT-0500 (Eastern Standard Time),790738.0,I,None,2016,51,,44.bmp,-120,-120,45.bmp,120,-120,46.bmp,-120,120,47.bmp,120,120,10045.0,780693.0,,yes,SM,B,45.bmp,120,-120,126775,120747,128793,122759,623142.0,617114.0,625143.0,619126.0,51
4,0,0,0,1,10,test,1,0,m,Wed Nov 12 2025 14:44:21 GMT-0500 (Eastern Standard Time),800804.0999999999,I,None,2015,52,,48.bmp,-120,-120,49.bmp,120,-120,50.bmp,-120,120,31.bmp,120,120,10058.800000000047,790745.2999999998,,yes,SM,B,48.bmp,120,120,126775,120747,128793,122759,633192.0,627167.0,635209.0,629175.0,52
3,0,0,1,0,10,test,1,0,z,Wed Nov 12 2025 14:44:21 GMT-0500 (Eastern Standard Time),810870.7999999998,I,None,2016,53,,1.bmp,-120,-120,2.bmp,120,-120,3.bmp,-120,120,4.bmp,120,120,10063.199999999953,800807.5999999999,,yes,SM,B,3.bmp,-120,120,126775,120747,128793,122759,643259.0,637229.0,645276.0,639243.0,53
1,1,0,0,0,10,test,1,0,m,Wed Nov 12 2025 14:44:21 GMT-0500 (Eastern Standard Time),820937.5999999999,I,None,2017,54,,5.bmp,-120,-120,6.bmp,120,-120,7.bmp,-120,120,8.bmp,120,120,10062.699999999953,810874.8999999999,,yes,SM,B,7.bmp,-120,-120,126775,120747,128793,122759,653327.0,647296.0,655342.0,649309.0,54
4,0,0,0,1,10,test,1,0,z,Wed Nov 12 2025 14:44:21 GMT-0500 (Eastern Standard Time),831004.3999999999,I,None,2016,55,,9.bmp,-120,-120,10.bmp,120,-120,11.bmp,-120,120,12.bmp,120,120,10061.199999999953,820943.2,,yes,SM,B,12.bmp,120,120,126775,120747,128793,122759,663392.0,657365.0,665409.0,659376.0,55
2,0,1,0,0,10,test,1,0,m,Wed Nov 12 2025 14:44:21 GMT-0500 (Eastern Standard Time),841071.0,I,None,2016,56,,13.bmp,-120,-120,14.bmp,120,-120,15.bmp,-120,120,16.bmp,120,120,10060.300000000047,831010.7,,yes,SM,B,13.bmp,120,-120,126775,120747,128793,122759,673459.0,667432.0,675476.0,669443.0,56
4,0,0,0,1,10,test,1,0,m,Wed Nov 12 2025 14:44:21 GMT-0500 (Eastern Standard Time),851139.5999999999,I,None,2019,57,,17.bmp,-120,-120,18.bmp,120,-120,19.bmp,-120,120,20.bmp,120,120,10063.199999999953,841076.3999999999,,yes,SM,B,18.bmp,120,120,126775,120747,128793,122759,683525.0,677498.0,685542.0,679509.0,57
3,0,0,1,0,10,test,1,0,z,Wed Nov 12 2025 14:44:21 GMT-0500 (Eastern Standard Time),861205.5999999999,I,None,2018,58,,21.bmp,-120,-120,22.bmp,120,-120,23.bmp,-120,120,24.bmp,120,120,10060.59999999986,851145.0,,yes,SM,B,23.bmp,-120,120,126775,120747,128793,122759,693592.0,687566.0,695609.0,689576.0,58
2,0,1,0,0,10,test,1,0,m,Wed Nov 12 2025 14:44:21 GMT-0500 (Eastern Standard Time),871270.8999999999,I,None,2016,59,,25.bmp,-120,-120,26.bmp,120,-120,27.bmp,-120,120,28.bmp,120,120,10061.399999999907,861209.5,,yes,SM,B,28.bmp,120,-120,126775,120747,128793,122759,703659.0,697631.0,705676.0,699642.0,59
1,1,0,0,0,10,test,1,0,z,Wed Nov 12 2025 14:44:21 GMT-0500 (Eastern Standard Time),881321.2999999998,I,None,2016,60,,29.bmp,-120,-120,30.bmp,120,-120,31.bmp,-120,120,32.bmp,120,120,10046.0,871275.2999999998,,yes,SM,B,29.bmp,-120,-120,126775,120747,128793,122759,713725.0,707697.0,715726.0,709709.0,60
2,0,1,0,0,10,test,1,0,z,Wed Nov 12 2025 14:44:21 GMT-0500 (Eastern Standard Time),891387.7999999998,I,None,2017,61,,33.bmp,-120,-120,34.bmp,120,-120,35.bmp,-120,120,36.bmp,120,120,10059.09999999986,881328.7,,yes,SM,B,34.bmp,120,-120,126775,120747,128793,122759,723776.0,717750.0,725792.0,719759.0,61
4,0,0,0,1,10,test,1,0,z,Wed Nov 12 2025 14:44:21 GMT-0500 (Eastern Standard Time),901454.5,I,None,2016,62,,41.bmp,-120,-120,42.bmp,120,-120,43.bmp,-120,120,44.bmp,120,120,10060.600000000093,891393.8999999999,,yes,SM,B,44.bmp,120,120,126775,120747,128793,122759,733842.0,727815.0,735859.0,729825.0,62
1,1,0,0,0,10,test,1,0,m,Wed Nov 12 2025 14:44:21 GMT-0500 (Eastern Standard Time),911521.0,I,None,2016,63,,45.bmp,-120,-120,46.bmp,120,-120,47.bmp,-120,120,48.bmp,120,120,10058.800000000047,901462.2,,yes,SM,B,45.bmp,-120,120,126775,120747,128793,122759,743909.0,737883.0,745926.0,739892.0,63
2,0,1,0,0,10,test,1,0,z,Wed Nov 12 2025 14:44:21 GMT-0500 (Eastern Standard Time),921587.7999999998,I,None,2017,64,,49.bmp,-120,-120,50.bmp,120,-120,12.bmp,-120,120,1.bmp,120,120,10062.699999999953,911525.0999999999,,yes,SM,B,50.bmp,120,-120,126775,120747,128793,122759,753975.0,747946.0,755992.0,749959.0,64
4,0,0,0,1,10,test,1,0,m,Wed Nov 12 2025 14:44:21 GMT-0500 (Eastern Standard Time),931654.5999999999,I,None,2015,65,,2.bmp,-120,-120,3.bmp,120,-120,4.bmp,-120,120,5.bmp,120,120,10062.0,921592.5999999999,,yes,SM,B,4.bmp,120,120,126775,120747,128793,122759,764043.0,758014.0,766059.0,760026.0,65
3,0,0,1,0,10,test,1,0,m,Wed Nov 12 2025 14:44:21 GMT-0500 (Eastern Standard Time),941720.8999999999,I,None,2016,66,,6.bmp,-120,-120,7.bmp,120,-120,8.bmp,-120,120,9.bmp,120,120,10060.399999999907,931660.5,,yes,SM,B,9.bmp,-120,120,126775,120747,128793,122759,774109.0,768082.0,776126.0,770093.0,66
2,0,1,0,0,10,test,1,0,m,Wed Nov 12 2025 14:44:21 GMT-0500 (Eastern Standard Time),951788.0,I,None,2017,67,,37.bmp,-120,-120,38.bmp,120,-120,39.bmp,-120,120,40.bmp,120,120,10063.0,941725.0,,yes,SM,B,39.bmp,120,-120,126775,120747,128793,122759,784176.0,778146.0,786192.0,780159.0,67
3,0,0,1,0,10,test,1,0,z,Wed Nov 12 2025 14:44:21 GMT-0500 (Eastern Standard Time),961854.7999999998,I,None,2015,68,,10.bmp,-120,-120,11.bmp,120,-120,12.bmp,-120,120,13.bmp,120,120,10059.899999999907,951794.8999999999,,yes,SM,B,12.bmp,-120,120,126775,120747,128793,122759,794242.0,788216.0,796261.0,790226.0,68
1,1,0,0,0,10,test,1,0,m,Wed Nov 12 2025 14:44:21 GMT-0500 (Eastern Standard Time),971921.2999999998,I,None,2016,69,,14.bmp,-120,-120,15.bmp,120,-120,16.bmp,-120,120,17.bmp,120,120,10059.59999999986,961861.7,,yes,SM,B,15.bmp,-120,-120,126775,120747,128793,122759,804309.0,798283.0,806326.0,800293.0,69
2,0,1,0,0,10,test,1,0,m,Wed Nov 12 2025 14:44:21 GMT-0500 (Eastern Standard Time),981987.7999999998,I,None,2016,70,,18.bmp,-120,-120,19.bmp,120,-120,20.bmp,-120,120,21.bmp,120,120,10059.799999999814,971928.0,,yes,SM,B,20.bmp,120,-120,126775,120747,128793,122759,814376.0,808349.0,816393.0,810360.0,70
4,0,0,0,1,10,test,1,0,z,Wed Nov 12 2025 14:44:21 GMT-0500 (Eastern Standard Time),992054.2,I,None,2016,71,,22.bmp,-120,-120,23.bmp,120,-120,24.bmp,-120,120,25.bmp,120,120,10060.699999999953,981993.5,,yes,SM,B,25.bmp,120,120,126775,120747,128793,122759,824442.0,818415.0,826459.0,820426.0,71
1,1,0,0,0,10,test,1,0,z,Wed Nov 12 2025 14:44:21 GMT-0500 (Eastern Standard Time),1002104.2999999998,I,None,2016,72,,26.bmp,-120,-120,27.bmp,120,-120,28.bmp,-120,120,29.bmp,120,120,10046.5,992057.7999999998,,yes,SM,B,26.bmp,-120,-120,126775,120747,128793,122759,834493.0,828479.0,836509.0,830492.0,72
2,0,1,0,0,10,test,1,0,z,Wed Nov 12 2025 14:44:21 GMT-0500 (Eastern Standard Time),1012171.3999999999,I,None,2016,73,,30.bmp,-120,-120,31.bmp,120,-120,32.bmp,-120,120,33.bmp,120,120,10064.0,1002107.3999999999,,yes,SM,B,31.bmp,120,-120,126775,120747,128793,122759,844559.0,838529.0,846576.0,840542.0,73
4,0,0,0,1,10,test,1,0,m,Wed Nov 12 2025 14:44:21 GMT-0500 (Eastern Standard Time),1022238.1000000001,I,None,2016,74,,34.bmp,-120,-120,35.bmp,120,-120,36.bmp,-120,120,37.bmp,120,120,10058.30000000028,1012179.7999999998,,yes,SM,B,36.bmp,120,120,126775,120747,128793,122759,854626.0,848601.0,856643.0,850609.0,74
2,0,1,0,0,10,test,1,0,m,Wed Nov 12 2025 14:44:21 GMT-0500 (Eastern Standard Time),1032304.6999999997,I,None,2016,75,,38.bmp,-120,-120,39.bmp,120,-120,40.bmp,-120,120,41.bmp,120,120,10057.5,1022247.1999999997,,yes,SM,B,41.bmp,120,-120,126775,120747,128793,122759,864692.0,858669.0,866710.0,860676.0,75
1,1,0,0,0,10,test,1,0,z,Wed Nov 12 2025 14:44:21 GMT-0500 (Eastern Standard Time),1042371.2999999998,I,None,2016,76,,42.bmp,-120,-120,43.bmp,120,-120,44.bmp,-120,120,45.bmp,120,120,10060.5,1032310.7999999998,,yes,SM,B,42.bmp,-120,-120,126775,120747,128793,122759,874759.0,868732.0,876776.0,870743.0,76
3,0,0,1,0,10,test,1,0,z,Wed Nov 12 2025 14:44:21 GMT-0500 (Eastern Standard Time),1052438.1,I,None,2016,77,,50.bmp,-120,-120,11.bmp,120,-120,1.bmp,-120,120,2.bmp,120,120,10060.400000000373,1042377.6999999997,,yes,SM,B,1.bmp,-120,120,126775,120747,128793,122759,884826.0,878799.0,886843.0,880810.0,77
1,1,0,0,0,10,test,1,0,m,Wed Nov 12 2025 14:44:21 GMT-0500 (Eastern Standard Time),1062504.7999999998,I,None,2016,78,,46.bmp,-120,-120,47.bmp,120,-120,48.bmp,-120,120,49.bmp,120,120,10059.600000000093,1052445.1999999997,,yes,SM,B,47.bmp,-120,-120,126775,120747,128793,122759,894892.0,888866.0,896910.0,890876.0,78
4,0,0,0,1,10,test,1,0,m,Wed Nov 12 2025 14:44:21 GMT-0500 (Eastern Standard Time),1072571.4,I,None,2016,79,,7.bmp,-120,-120,8.bmp,120,-120,9.bmp,-120,120,10.bmp,120,120,10060.299999999814,1062511.1,,yes,SM,B,7.bmp,120,120,126775,120747,128793,122759,904959.0,898932.0,906976.0,900943.0,79
3,0,0,1,0,10,test,1,0,m,Wed Nov 12 2025 14:44:21 GMT-0500 (Eastern Standard Time),1082638.1,I,None,2016,80,,3.bmp,-120,-120,4.bmp,120,-120,5.bmp,-120,120,6.bmp,120,120,10060.200000000186,1072577.9,,yes,SM,B,6.bmp,-120,120,126775,120747,128793,122759,915026.0,908999.0,917043.0,911010.0,80
