acc_sum,block,block_c,condition,correct,correct_response,datetime,endtime,flanker,jitter,project,response,response_test_buffer_response,response_test_target_response,response_time,response_time_test_buffer_response,response_time_test_target_response,row_sel,session_number,start_end,starttime,subject_id,target,task,task_vers,time_test_buffer,time_test_buffer_response,time_test_constants,time_test_flanker,time_test_jitter,time_test_logger,time_test_target,time_test_target_response,time_test_variables,trial
0,prac,1,inc,0,z,Wed Oct 29 2025 09:38:04 GMT-0500 (Central Daylight Time),88193.69999999925,napkin,1100,I,None,,,1799,,,12,1,5159.699999999255,83034.0,8075,friend,AF,B,,,,,,,,,,1
1,prac,1,inc,1,m,Wed Oct 29 2025 09:38:04 GMT-0500 (Central Daylight Time),91326.10000000149,brutal,1100,I,m,,,727,,,8,1,3125.800000000745,88200.30000000075,8075,window,AF,B,,,,,,,,,,2
2,prac,1,con,1,m,Wed Oct 29 2025 09:38:04 GMT-0500 (Central Daylight Time),94175.39999999851,step,800,I,m,,,742,,,1,1,2845.0,91330.39999999851,8075,step,AF,B,,,,,,,,,,3
3,prac,1,inc,1,z,Wed Oct 29 2025 09:38:04 GMT-0500 (Central Daylight Time),97457.60000000149,window,1100,I,z,,,874,,,16,1,3276.60000000149,94181.0,8075,temper,AF,B,,,,,,,,,,4
4,prac,1,con,1,m,Wed Oct 29 2025 09:38:04 GMT-0500 (Central Daylight Time),100256.69999999925,jacket,800,I,m,,,682,,,5,1,2793.5,97463.19999999925,8075,jacket,AF,B,,,,,,,,,,5
5,prac,1,con,1,z,Wed Oct 29 2025 09:38:04 GMT-0500 (Central Daylight Time),103289.10000000149,rage,1000,I,z,,,723,,,15,1,3027.60000000149,100261.5,8075,rage,AF,B,,,,,,,,,,6
6,prac,1,con,1,z,Wed Oct 29 2025 09:38:04 GMT-0500 (Central Daylight Time),105971.60000000149,love,1000,I,z,,,372,,,11,1,2676.5,103295.10000000149,8075,love,AF,B,,,,,,,,,,7
7,prac,1,inc,1,m,Wed Oct 29 2025 09:38:04 GMT-0500 (Central Daylight Time),108804.10000000149,elated,900,I,m,,,620,,,6,1,2828.2000000029802,105975.89999999851,8075,napkin,AF,B,,,,,,,,,,8
8,prac,1,inc,1,m,Wed Oct 29 2025 09:38:04 GMT-0500 (Central Daylight Time),111686.60000000149,kind,900,I,m,,,669,,,2,1,2877.60000000149,108809.0,8075,rock,AF,B,,,,,,,,,,9
9,prac,1,inc,1,z,Wed Oct 29 2025 09:38:04 GMT-0500 (Central Daylight Time),114437.89999999851,rock,900,I,z,,,537,,,10,1,2746.39999999851,111691.5,8075,kind,AF,B,,,,,,,,,,10
10,prac,1,con,1,z,Wed Oct 29 2025 09:38:04 GMT-0500 (Central Daylight Time),116984.80000000075,brutal,800,I,z,,,440,,,13,1,2540.800000000745,114444.0,8075,brutal,AF,B,,,,,,,,,,11
11,prac,1,con,1,z,Wed Oct 29 2025 09:38:04 GMT-0500 (Central Daylight Time),119800.69999999925,elated,800,I,z,,,708,,,9,1,2811.39999999851,116989.30000000075,8075,elated,AF,B,,,,,,,,,,12
12,prac,1,inc,1,z,Wed Oct 29 2025 09:38:04 GMT-0500 (Central Daylight Time),122799.60000000149,film,900,I,z,,,783,,,14,1,2994.7000000029802,119804.89999999851,8075,hate,AF,B,,,,,,,,,,13
13,prac,1,inc,1,m,Wed Oct 29 2025 09:38:04 GMT-0500 (Central Daylight Time),125732.0,hate,1100,I,m,,,528,,,4,1,2927.5,122804.5,8075,film,AF,B,,,,,,,,,,14
14,prac,1,con,1,m,Wed Oct 29 2025 09:38:04 GMT-0500 (Central Daylight Time),129081.0,remote,1000,I,m,,,1033,,,7,1,3344.5,125736.5,8075,remote,AF,B,,,,,,,,,,15
15,prac,1,con,1,m,Wed Oct 29 2025 09:38:04 GMT-0500 (Central Daylight Time),132013.6000000015,bell,1000,I,m,,,620,,,3,1,2928.5,129085.10000000149,8075,bell,AF,B,,,,,,,,,,16
1,test,1,con,1,z,Wed Oct 29 2025 09:38:04 GMT-0500 (Central Daylight Time),145142.6000000015,love,800,I,z,z,None,570,371.0,199.0,17,1,1912.800000000745,143229.80000000075,8075,love,AF,B,142540,142540,141011,141824,141011,142924,142341,142341,142924,1
2,test,1,inc,1,z,Wed Oct 29 2025 09:38:04 GMT-0500 (Central Daylight Time),147375.19999999925,window,1100,I,z,z,None,594,395.0,199.0,8,1,2227.5,145147.69999999925,8075,elated,AF,B,144756,144756,142929,144040,142929,145156,144557,144557,145156,2
3,test,1,con,1,z,Wed Oct 29 2025 09:38:04 GMT-0500 (Central Daylight Time),149258.19999999925,hate,900,I,z,z,None,450,250.0,200.0,42,1,1878.800000000745,147379.3999999985,8075,hate,AF,B,146789,146789,145160,146073,145161,147039,146589,146589,147039,3
4,test,1,inc,1,m,Wed Oct 29 2025 09:38:04 GMT-0500 (Central Daylight Time),151073.8999999985,rage,800,I,m,m,None,475,275.0,200.0,85,1,1810.7999999970198,149263.1000000015,8075,bell,AF,B,148572,148572,147044,147856,147044,148855,148372,148372,148855,4
5,test,1,con,1,m,Wed Oct 29 2025 09:38:04 GMT-0500 (Central Daylight Time),153189.8999999985,remote,800,I,m,m,None,779,579.0,200.0,113,1,2111.7999999970198,151078.1000000015,8075,remote,AF,B,150388,150388,148859,149672,148860,150971,150188,150188,150971,5
6,test,1,con,1,z,Wed Oct 29 2025 09:38:04 GMT-0500 (Central Daylight Time),155206.1000000015,temper,1000,I,z,z,None,471,271.0,200.0,59,1,2012.0,153194.1000000015,8075,temper,AF,B,152704,152704,150975,151988,150975,152987,152504,152504,152987,6
7,test,1,inc,1,z,Wed Oct 29 2025 09:38:04 GMT-0500 (Central Daylight Time),157355.3999999985,bell,1000,I,z,z,None,615,415.0,200.0,47,1,2145.199999999255,155210.19999999925,8075,hate,AF,B,154720,154720,152991,154004,152992,155136,154520,154520,155136,7
8,test,1,inc,1,z,Wed Oct 29 2025 09:38:04 GMT-0500 (Central Daylight Time),159588.1000000015,film,1100,I,z,z,None,598,398.0,200.0,24,1,2228.400000002235,157359.69999999925,8075,love,AF,B,156969,156969,155141,156253,155141,157369,156769,156769,157369,8
9,test,1,inc,1,z,Wed Oct 29 2025 09:38:04 GMT-0500 (Central Daylight Time),162013.80000000075,film,1100,I,z,z,None,793,593.0,200.0,48,1,2421.5,159592.30000000075,8075,hate,AF,B,159202,159202,157373,158486,157374,159795,159002,159002,159795,9
10,test,1,con,1,m,Wed Oct 29 2025 09:38:04 GMT-0500 (Central Daylight Time),164186.6000000015,rock,1100,I,m,m,None,541,341.0,200.0,76,1,2168.0,162018.6000000015,8075,rock,AF,B,161618,161618,159800,160901,159800,161968,161418,161418,161968,10
11,test,1,con,1,m,Wed Oct 29 2025 09:38:04 GMT-0500 (Central Daylight Time),166285.80000000075,rock,1000,I,m,m,None,561,362.0,199.0,75,1,2093.900000002235,164191.8999999985,8075,rock,AF,B,163701,163701,161973,162985,161973,164067,163501,163501,164067,11
12,test,1,con,1,z,Wed Oct 29 2025 09:38:04 GMT-0500 (Central Daylight Time),168185.30000000075,love,900,I,z,z,None,451,251.0,200.0,18,1,1895.0,166290.30000000075,8075,love,AF,B,165700,165700,164071,164984,164072,165966,165500,165500,165966,12
13,test,1,inc,1,m,Wed Oct 29 2025 09:38:04 GMT-0500 (Central Daylight Time),170317.8999999985,temper,1000,I,m,m,None,587,388.0,199.0,119,1,2128.699999999255,168189.19999999925,8075,remote,AF,B,167699,167699,165970,166983,165971,168099,167500,167500,168099,13
14,test,1,inc,1,z,Wed Oct 29 2025 09:38:04 GMT-0500 (Central Daylight Time),172451.69999999925,bell,1000,I,z,z,None,591,391.0,200.0,23,1,2129.800000000745,170321.8999999985,8075,love,AF,B,169832,169832,168103,169115,168103,170233,169632,169632,170233,14
15,test,1,con,1,m,Wed Oct 29 2025 09:38:04 GMT-0500 (Central Daylight Time),174783.30000000075,film,1100,I,m,m,None,686,486.0,200.0,92,1,2327.400000002235,172455.8999999985,8075,film,AF,B,172065,172065,170237,171348,170237,172564,171865,171865,172564,15
16,test,1,inc,1,m,Wed Oct 29 2025 09:38:04 GMT-0500 (Central Daylight Time),176832.6000000015,rage,800,I,m,m,None,709,510.0,199.0,69,1,2045.0,174787.6000000015,8075,step,AF,B,174097,174097,172569,173381,172569,174614,173898,173898,174614,16
17,test,1,con,1,z,Wed Oct 29 2025 09:38:04 GMT-0500 (Central Daylight Time),178698.6000000015,friend,900,I,z,z,None,423,224.0,199.0,26,1,1860.7000000029802,176837.8999999985,8075,friend,AF,B,176247,176247,174619,175530,174619,176480,176047,176047,176480,17
18,test,1,con,1,m,Wed Oct 29 2025 09:38:04 GMT-0500 (Central Daylight Time),180548.1000000015,window,800,I,m,m,None,505,306.0,199.0,121,1,1845.2000000029802,178702.8999999985,8075,window,AF,B,178013,178013,176484,177296,176484,178329,177813,177813,178329,18
18,test,1,con,0,z,Wed Oct 29 2025 09:38:04 GMT-0500 (Central Daylight Time),182714.19999999925,kind,1000,I,m,m,None,625,425.0,200.0,11,1,2162.099999997765,180552.1000000015,8075,kind,AF,B,180062,180062,178333,179346,178333,180495,179862,179862,180495,19
19,test,1,con,1,z,Wed Oct 29 2025 09:38:04 GMT-0500 (Central Daylight Time),184780.19999999925,brutal,1000,I,z,z,None,523,323.0,200.0,35,1,2062.099999997765,182718.1000000015,8075,brutal,AF,B,182228,182228,180499,181512,180499,182561,182028,182028,182561,20
20,test,1,con,1,m,Wed Oct 29 2025 09:38:04 GMT-0500 (Central Daylight Time),186829.3999999985,step,1000,I,m,m,None,505,305.0,200.0,67,1,2045.0,184784.3999999985,8075,step,AF,B,184294,184294,182565,183578,182566,184611,184094,184094,184610,21
21,test,1,con,1,m,Wed Oct 29 2025 09:38:04 GMT-0500 (Central Daylight Time),188928.69999999925,bell,900,I,m,m,None,667,468.0,199.0,82,1,2093.699999999255,186835.0,8075,bell,AF,B,186227,186227,184616,185527,184616,186710,186028,186028,186710,22
22,test,1,inc,1,z,Wed Oct 29 2025 09:38:04 GMT-0500 (Central Daylight Time),191228.1000000015,film,1100,I,z,z,None,656,456.0,200.0,16,1,2295.2000000029802,188932.8999999985,8075,kind,AF,B,188543,188543,186714,187826,186715,189009,188343,188343,189009,23
23,test,1,con,1,m,Wed Oct 29 2025 09:38:04 GMT-0500 (Central Daylight Time),193260.69999999925,window,1000,I,m,m,None,497,297.0,200.0,123,1,2028.5999999977648,191232.1000000015,8075,window,AF,B,190742,190742,189013,190026,189013,191042,190542,190542,191042,24
24,test,1,inc,1,m,Wed Oct 29 2025 09:38:04 GMT-0500 (Central Daylight Time),195426.80000000075,rage,800,I,m,m,None,832,632.0,200.0,93,1,2162.300000000745,193264.5,8075,film,AF,B,192575,192575,191046,191859,191046,193208,192375,192375,193208,25
25,test,1,con,1,z,Wed Oct 29 2025 09:38:04 GMT-0500 (Central Daylight Time),197559.3999999985,friend,1100,I,z,z,None,494,294.0,200.0,28,1,2128.5,195430.8999999985,8075,friend,AF,B,195041,195041,193212,194324,193212,195340,194841,194841,195340,26
26,test,1,inc,1,m,Wed Oct 29 2025 09:38:04 GMT-0500 (Central Daylight Time),199525.3999999985,elated,800,I,m,m,None,628,429.0,199.0,117,1,1962.199999999255,197563.19999999925,8075,remote,AF,B,196874,196874,195344,196157,195344,197306,196674,196674,197306,27
27,test,1,con,1,z,Wed Oct 29 2025 09:38:04 GMT-0500 (Central Daylight Time),201958.19999999925,rage,1000,I,z,z,None,894,695.0,199.0,51,1,2428.599999997765,199529.6000000015,8075,rage,AF,B,199040,199040,197311,198323,197311,199739,198840,198840,199739,28
28,test,1,con,1,z,Wed Oct 29 2025 09:38:04 GMT-0500 (Central Daylight Time),203974.5,rage,900,I,z,z,None,571,371.0,200.0,50,1,2012.699999999255,201961.80000000075,8075,rage,AF,B,201372,201372,199743,200656,199743,201756,201172,201172,201756,29
29,test,1,con,1,m,Wed Oct 29 2025 09:38:04 GMT-0500 (Central Daylight Time),206306.80000000075,bell,1100,I,m,m,None,691,491.0,200.0,84,1,2327.900000002235,203978.8999999985,8075,bell,AF,B,203588,203588,201760,202872,201760,204088,203388,203388,204088,30
30,test,1,con,1,m,Wed Oct 29 2025 09:38:04 GMT-0500 (Central Daylight Time),208357.1000000015,jacket,900,I,m,m,None,614,414.0,200.0,98,1,2046.5,206310.6000000015,8075,jacket,AF,B,205721,205721,204092,205004,204092,206138,205521,205521,206138,31
31,test,1,con,1,m,Wed Oct 29 2025 09:38:04 GMT-0500 (Central Daylight Time),210338.80000000075,window,900,I,m,m,None,549,349.0,200.0,122,1,1977.199999999255,208361.6000000015,8075,window,AF,B,207770,207770,206143,207054,206143,208120,207570,207570,208120,32
32,test,1,inc,1,m,Wed Oct 29 2025 09:38:04 GMT-0500 (Central Daylight Time),212571.30000000075,hate,1100,I,m,m,None,590,390.0,200.0,96,1,2228.10000000149,210343.19999999925,8075,film,AF,B,209953,209953,208124,209236,208125,210352,209753,209753,210352,33
33,test,1,con,1,m,Wed Oct 29 2025 09:38:04 GMT-0500 (Central Daylight Time),214537.30000000075,remote,900,I,m,m,None,517,317.0,200.0,114,1,1962.300000000745,212575.0,8075,remote,AF,B,211986,211986,210356,211269,210356,212318,211785,211785,212318,34
34,test,1,con,1,z,Wed Oct 29 2025 09:38:04 GMT-0500 (Central Daylight Time),216453.5,temper,900,I,z,z,None,479,280.0,199.0,58,1,1912.5,214541.0,8075,temper,AF,B,213951,213951,212322,213235,212322,214235,213752,213752,214234,35
35,test,1,inc,1,m,Wed Oct 29 2025 09:38:04 GMT-0500 (Central Daylight Time),218486.19999999925,brutal,900,I,m,m,None,594,395.0,199.0,126,1,2028.800000000745,216457.3999999985,8075,window,AF,B,215868,215868,214238,215151,214239,216267,215668,215668,216267,36
36,test,1,inc,1,z,Wed Oct 29 2025 09:38:04 GMT-0500 (Central Daylight Time),220552.30000000075,napkin,900,I,z,z,None,627,427.0,200.0,6,1,2062.300000000745,218490.0,8075,elated,AF,B,217900,217900,216271,217185,216271,218333,217700,217700,218333,37
37,test,1,con,1,z,Wed Oct 29 2025 09:38:04 GMT-0500 (Central Daylight Time),222701.80000000075,brutal,900,I,z,z,None,705,505.0,200.0,34,1,2145.10000000149,220556.69999999925,8075,brutal,AF,B,219966,219966,218338,219250,218338,220483,219766,219766,220483,38
38,test,1,inc,1,m,Wed Oct 29 2025 09:38:04 GMT-0500 (Central Daylight Time),224867.5,temper,1000,I,m,m,None,630,431.0,199.0,111,1,2161.699999999255,222705.80000000075,8075,napkin,AF,B,222216,222216,220487,221499,220487,222649,222016,222016,222649,39
39,test,1,inc,1,m,Wed Oct 29 2025 09:38:04 GMT-0500 (Central Daylight Time),227116.8999999985,love,1000,I,m,m,None,704,505.0,199.0,71,1,2245.2999999970198,224871.6000000015,8075,step,AF,B,224382,224382,222653,223665,222653,224898,224182,224182,224898,40
40,test,1,inc,1,z,Wed Oct 29 2025 09:38:04 GMT-0500 (Central Daylight Time),229232.80000000075,bell,1000,I,z,z,None,576,375.0,201.0,55,1,2112.199999999255,227120.6000000015,8075,rage,AF,B,226632,226632,224902,225914,224902,227014,226431,226431,227014,41
41,test,1,inc,1,m,Wed Oct 29 2025 09:38:04 GMT-0500 (Central Daylight Time),231265.3999999985,brutal,900,I,m,m,None,584,384.0,200.0,102,1,2028.199999999255,229237.19999999925,8075,jacket,AF,B,228647,228647,227018,227930,227018,229046,228447,228447,229046,42
42,test,1,inc,1,m,Wed Oct 29 2025 09:38:04 GMT-0500 (Central Daylight Time),233581.69999999925,friend,1100,I,m,m,None,679,480.0,199.0,112,1,2312.599999997765,231269.1000000015,8075,napkin,AF,B,230880,230880,229050,230165,229050,231363,230680,230680,231363,43
42,test,1,con,0,z,Wed Oct 29 2025 09:38:04 GMT-0500 (Central Daylight Time),235830.69999999925,brutal,800,I,m,m,None,903,703.0,200.0,33,1,2245.099999997765,233585.6000000015,8075,brutal,AF,B,232896,232896,231367,232179,231367,233612,232696,232696,233612,44
43,test,1,con,1,z,Wed Oct 29 2025 09:38:04 GMT-0500 (Central Daylight Time),238130.19999999925,brutal,1100,I,z,z,None,658,458.0,200.0,36,1,2295.39999999851,235834.80000000075,8075,brutal,AF,B,235445,235445,233616,234728,233616,235911,235245,235245,235911,45
44,test,1,inc,1,z,Wed Oct 29 2025 09:38:04 GMT-0500 (Central Daylight Time),240146.1000000015,jacket,800,I,z,z,None,667,467.0,200.0,5,1,2012.2000000029802,238133.8999999985,8075,elated,AF,B,237444,237444,235915,236728,235915,237927,237244,237244,237927,46
45,test,1,inc,1,m,Wed Oct 29 2025 09:38:04 GMT-0500 (Central Daylight Time),242245.3999999985,brutal,900,I,m,m,None,655,455.0,200.0,118,1,2095.099999997765,240150.30000000075,8075,remote,AF,B,239560,239560,237931,238844,237932,240027,239360,239360,240026,47
46,test,1,inc,1,m,Wed Oct 29 2025 09:38:04 GMT-0500 (Central Daylight Time),244661.69999999925,friend,1100,I,m,m,None,771,572.0,199.0,128,1,2411.699999999255,242250.0,8075,window,AF,B,241859,241859,240031,241143,240031,242443,241660,241660,242443,48
47,test,1,inc,1,m,Wed Oct 29 2025 09:38:04 GMT-0500 (Central Daylight Time),246727.30000000075,elated,800,I,m,m,None,720,520.0,200.0,109,1,2061.60000000149,244665.69999999925,8075,napkin,AF,B,243975,243975,242447,243259,242447,244508,243775,243775,244508,49
48,test,1,con,1,m,Wed Oct 29 2025 09:38:04 GMT-0500 (Central Daylight Time),249259.80000000075,jacket,1100,I,m,m,None,896,696.0,200.0,100,1,2528.60000000149,246731.19999999925,8075,jacket,AF,B,246343,246343,244512,245625,244512,247041,246142,246142,247041,50
49,test,1,inc,1,m,Wed Oct 29 2025 09:38:04 GMT-0500 (Central Daylight Time),251459.1000000015,love,1000,I,m,m,None,665,465.0,200.0,79,1,2195.5,249263.6000000015,8075,rock,AF,B,248774,248774,247045,248057,247045,249240,248574,248574,249240,51
50,test,1,inc,1,z,Wed Oct 29 2025 09:38:04 GMT-0500 (Central Daylight Time),253675.1000000015,step,800,I,z,z,None,882,682.0,200.0,45,1,2212.300000000745,251462.80000000075,8075,hate,AF,B,250773,250773,249244,250057,249244,251456,250573,250573,251456,52
51,test,1,con,1,z,Wed Oct 29 2025 09:38:04 GMT-0500 (Central Daylight Time),255927.0,love,1100,I,z,z,None,619,419.0,200.0,20,1,2248.0,253679.0,8075,love,AF,B,253289,253289,251460,252573,251460,253708,253089,253089,253708,53
52,test,1,inc,1,z,Wed Oct 29 2025 09:38:04 GMT-0500 (Central Daylight Time),257973.8999999985,rock,900,I,z,z,None,603,404.0,199.0,46,1,2042.3999999985099,255931.5,8075,hate,AF,B,255339,255339,253713,254622,253713,255755,255139,255139,255755,54
53,test,1,con,1,z,Wed Oct 29 2025 09:38:04 GMT-0500 (Central Daylight Time),260356.30000000075,elated,1000,I,z,z,None,839,639.0,200.0,3,1,2378.60000000149,257977.69999999925,8075,elated,AF,B,257488,257488,255759,256771,255759,258137,257288,257288,258137,55
54,test,1,con,1,z,Wed Oct 29 2025 09:38:04 GMT-0500 (Central Daylight Time),262972.19999999925,kind,900,I,z,z,None,1181,981.0,200.0,10,1,2612.099999997765,260360.1000000015,8075,kind,AF,B,259770,259770,258141,259054,258141,260753,259570,259570,260753,56
55,test,1,con,1,z,Wed Oct 29 2025 09:38:04 GMT-0500 (Central Daylight Time),265204.80000000075,elated,900,I,z,z,None,797,597.0,200.0,2,1,2228.5,262976.30000000075,8075,elated,AF,B,262386,262386,260757,261670,260758,262986,262186,262186,262986,57
56,test,1,inc,1,z,Wed Oct 29 2025 09:38:04 GMT-0500 (Central Daylight Time),267604.1000000015,remote,1000,I,z,z,None,863,664.0,199.0,63,1,2395.400000002235,265208.69999999925,8075,temper,AF,B,264719,264719,262990,264003,262990,265385,264520,264520,265385,58
57,test,1,con,1,z,Wed Oct 29 2025 09:38:04 GMT-0500 (Central Daylight Time),269953.3999999985,friend,1000,I,z,z,None,809,609.0,200.0,27,1,2345.7999999970198,267607.6000000015,8075,friend,AF,B,267118,267118,265389,266402,265389,267734,266918,266918,267734,59
58,test,1,inc,1,m,Wed Oct 29 2025 09:38:04 GMT-0500 (Central Daylight Time),272036.0,brutal,900,I,m,m,None,647,448.0,199.0,110,1,2079.0,269957.0,8075,napkin,AF,B,269367,269367,267738,268651,267738,269817,269168,269168,269817,60
59,test,1,inc,1,z,Wed Oct 29 2025 09:38:04 GMT-0500 (Central Daylight Time),274251.8999999985,window,1100,I,z,z,None,581,381.0,200.0,32,1,2211.39999999851,272040.5,8075,friend,AF,B,271650,271650,269822,270934,269822,272033,271450,271450,272033,61
60,test,1,con,1,m,Wed Oct 29 2025 09:38:04 GMT-0500 (Central Daylight Time),276318.0,film,800,I,m,m,None,729,529.0,200.0,89,1,2062.0,274256.0,8075,film,AF,B,273566,273566,272037,272850,272037,274099,273366,273366,274099,62
61,test,1,con,1,m,Wed Oct 29 2025 09:38:04 GMT-0500 (Central Daylight Time),278384.0,step,800,I,m,m,None,727,527.0,200.0,65,1,2062.199999999255,276321.80000000075,8075,step,AF,B,275632,275632,274103,274916,274103,276165,275432,275432,276165,63
62,test,1,inc,1,m,Wed Oct 29 2025 09:38:04 GMT-0500 (Central Daylight Time),280566.6000000015,love,1000,I,m,m,None,637,437.0,200.0,95,1,2178.900000002235,278387.69999999925,8075,film,AF,B,277898,277898,276169,277182,276169,278348,277698,277698,278348,64
63,test,1,con,1,z,Wed Oct 29 2025 09:38:04 GMT-0500 (Central Daylight Time),282582.80000000075,elated,800,I,z,z,None,669,470.0,199.0,1,1,2012.6000000014901,280570.19999999925,8075,elated,AF,B,279881,279881,278351,279165,278352,280364,279682,279682,280364,65
64,test,1,con,1,z,Wed Oct 29 2025 09:38:04 GMT-0500 (Central Daylight Time),284965.30000000075,temper,1100,I,z,z,None,737,538.0,199.0,60,1,2377.5,282587.80000000075,8075,temper,AF,B,282197,282197,280369,281480,280369,282746,281997,281997,282746,66
65,test,1,inc,1,m,Wed Oct 29 2025 09:38:04 GMT-0500 (Central Daylight Time),286964.69999999925,elated,800,I,m,m,None,663,464.0,199.0,125,1,1995.300000000745,284969.3999999985,8075,window,AF,B,284279,284279,282750,283563,282751,284746,284080,284080,284746,67
66,test,1,inc,1,z,Wed Oct 29 2025 09:38:04 GMT-0500 (Central Daylight Time),288914.1000000015,jacket,800,I,z,z,None,608,408.0,200.0,61,1,1945.4000000022352,286968.69999999925,8075,temper,AF,B,286279,286279,284750,285562,284750,286695,286079,286079,286695,68
67,test,1,con,1,z,Wed Oct 29 2025 09:38:04 GMT-0500 (Central Daylight Time),291013.5,love,1000,I,z,z,None,555,355.0,200.0,19,1,2095.300000000745,288918.19999999925,8075,love,AF,B,288428,288428,286699,287712,286700,288795,288228,288228,288794,69
68,test,1,inc,1,z,Wed Oct 29 2025 09:38:04 GMT-0500 (Central Daylight Time),293246.1000000015,rock,900,I,z,z,None,787,588.0,199.0,54,1,2229.2000000029802,291016.8999999985,8075,rage,AF,B,290427,290427,288798,289712,288798,291027,290228,290228,291027,70
69,test,1,inc,1,z,Wed Oct 29 2025 09:38:04 GMT-0500 (Central Daylight Time),295462.0,napkin,900,I,z,z,None,779,579.0,200.0,38,1,2212.10000000149,293249.8999999985,8075,brutal,AF,B,292660,292660,291031,291944,291031,293243,292460,292460,293243,71
70,test,1,con,1,z,Wed Oct 29 2025 09:38:04 GMT-0500 (Central Daylight Time),297378.1000000015,rage,800,I,z,z,None,575,375.0,200.0,49,1,1912.300000000745,295465.80000000075,8075,rage,AF,B,294776,294776,293247,294060,293247,295159,294576,294576,295159,72
71,test,1,inc,1,m,Wed Oct 29 2025 09:38:04 GMT-0500 (Central Daylight Time),299510.69999999925,temper,1000,I,m,m,None,595,395.0,200.0,103,1,2128.699999999255,297382.0,8075,jacket,AF,B,296892,296892,295163,296176,295163,297292,296692,296692,297292,73
72,test,1,inc,1,z,Wed Oct 29 2025 09:38:04 GMT-0500 (Central Daylight Time),301510.1000000015,step,800,I,z,z,None,654,454.0,200.0,53,1,1995.6000000014901,299514.5,8075,rage,AF,B,298825,298825,297296,298108,297296,299291,298625,298625,299291,74
73,test,1,con,1,m,Wed Oct 29 2025 09:38:04 GMT-0500 (Central Daylight Time),304026.1000000015,napkin,1100,I,m,m,None,866,559.0,307.0,108,1,2512.400000002235,301513.69999999925,8075,napkin,AF,B,301232,301232,299295,300408,299295,301807,300925,300925,301807,75
74,test,1,inc,1,m,Wed Oct 29 2025 09:38:04 GMT-0500 (Central Daylight Time),306408.5,friend,1100,I,m,m,None,743,543.0,200.0,104,1,2378.800000000745,304029.69999999925,8075,jacket,AF,B,303640,303640,301811,302923,301811,304190,303440,303440,304190,76
75,test,1,con,1,m,Wed Oct 29 2025 09:38:04 GMT-0500 (Central Daylight Time),308608.0,jacket,1000,I,m,m,None,651,452.0,199.0,99,1,2195.300000000745,306412.69999999925,8075,jacket,AF,B,305923,305923,304194,305206,304194,306389,305723,305723,306389,77
76,test,1,inc,1,m,Wed Oct 29 2025 09:38:04 GMT-0500 (Central Daylight Time),310757.19999999925,kind,900,I,m,m,None,713,513.0,200.0,86,1,2144.89999999851,308612.30000000075,8075,bell,AF,B,308022,308022,306393,307305,306394,308538,307822,307822,308538,78
77,test,1,inc,1,m,Wed Oct 29 2025 09:38:04 GMT-0500 (Central Daylight Time),313056.5,friend,1100,I,m,m,None,660,460.0,200.0,120,1,2295.60000000149,310760.8999999985,8075,remote,AF,B,310371,310371,308542,309656,308542,310838,310171,310171,310838,79
78,test,1,inc,1,z,Wed Oct 29 2025 09:38:04 GMT-0500 (Central Daylight Time),315305.69999999925,remote,1000,I,z,z,None,707,508.0,199.0,39,1,2245.5,313060.19999999925,8075,brutal,AF,B,312571,312571,310841,311854,310842,313087,312371,312371,313087,80
79,test,1,inc,1,z,Wed Oct 29 2025 09:38:04 GMT-0500 (Central Daylight Time),317471.80000000075,napkin,900,I,z,z,None,719,519.0,200.0,30,1,2162.5,315309.30000000075,8075,friend,AF,B,314720,314720,313090,314003,313091,315253,314520,314520,315253,81
80,test,1,con,1,z,Wed Oct 29 2025 09:38:04 GMT-0500 (Central Daylight Time),319621.1000000015,temper,800,I,z,z,None,805,605.0,200.0,57,1,2145.400000002235,317475.69999999925,8075,temper,AF,B,316786,316786,315257,316069,315257,317402,316586,316586,317402,82
81,test,1,inc,1,z,Wed Oct 29 2025 09:38:04 GMT-0500 (Central Daylight Time),321803.80000000075,remote,1000,I,z,z,None,648,448.0,200.0,7,1,2178.800000000745,319625.0,8075,elated,AF,B,319135,319135,317406,318419,317406,319585,318935,318935,319585,83
82,test,1,inc,1,z,Wed Oct 29 2025 09:38:04 GMT-0500 (Central Daylight Time),323753.19999999925,jacket,800,I,z,z,None,609,409.0,200.0,29,1,1945.699999999255,321807.5,8075,friend,AF,B,321118,321118,319589,320401,319589,321534,320918,320918,321534,84
83,test,1,con,1,z,Wed Oct 29 2025 09:38:04 GMT-0500 (Central Daylight Time),325835.69999999925,hate,1100,I,z,z,None,448,248.0,200.0,44,1,2078.5,323757.19999999925,8075,hate,AF,B,323367,323367,321538,322651,321538,323617,323167,323167,323617,85
84,test,1,inc,1,z,Wed Oct 29 2025 09:38:04 GMT-0500 (Central Daylight Time),328268.30000000075,remote,1000,I,z,z,None,906,706.0,200.0,31,1,2428.800000000745,325839.5,8075,friend,AF,B,325333,325333,323621,324625,323621,326049,325133,325133,326049,86
85,test,1,inc,1,z,Wed Oct 29 2025 09:38:04 GMT-0500 (Central Daylight Time),330550.8999999985,film,1100,I,z,z,None,645,445.0,200.0,56,1,2278.89999999851,328272.0,8075,rage,AF,B,327882,327882,326053,327166,326053,328332,327682,327682,328332,87
86,test,1,inc,1,z,Wed Oct 29 2025 09:38:04 GMT-0500 (Central Daylight Time),332883.6000000015,window,1100,I,z,z,None,698,498.0,200.0,64,1,2328.60000000149,330555.0,8075,temper,AF,B,330165,330165,328336,329449,328336,330665,329965,329965,330665,88
87,test,1,con,1,m,Wed Oct 29 2025 09:38:04 GMT-0500 (Central Daylight Time),334866.19999999925,napkin,800,I,m,m,None,640,441.0,199.0,105,1,1977.699999999255,332888.5,8075,napkin,AF,B,332198,332198,330670,331481,330670,332647,331998,331998,332647,89
88,test,1,con,1,z,Wed Oct 29 2025 09:38:04 GMT-0500 (Central Daylight Time),337082.30000000075,rage,1100,I,z,z,None,575,375.0,200.0,52,1,2212.10000000149,334870.19999999925,8075,rage,AF,B,334480,334480,332651,333764,332651,334863,334280,334280,334863,90
89,test,1,con,1,m,Wed Oct 29 2025 09:38:04 GMT-0500 (Central Daylight Time),339198.30000000075,bell,800,I,m,m,None,778,579.0,199.0,81,1,2112.300000000745,337086.0,8075,bell,AF,B,336396,336396,334867,335680,334867,336979,336197,336197,336979,91
90,test,1,inc,1,z,Wed Oct 29 2025 09:38:04 GMT-0500 (Central Daylight Time),341280.8999999985,jacket,800,I,z,z,None,743,543.0,200.0,37,1,2078.0,339202.8999999985,8075,brutal,AF,B,338512,338512,336984,337796,336984,339062,338312,338312,339062,92
91,test,1,con,1,m,Wed Oct 29 2025 09:38:04 GMT-0500 (Central Daylight Time),343397.3999999985,film,900,I,m,m,None,680,480.0,200.0,90,1,2112.7999999970198,341284.6000000015,8075,film,AF,B,340695,340695,339066,339979,339066,341178,340495,340495,341178,93
92,test,1,con,1,m,Wed Oct 29 2025 09:38:04 GMT-0500 (Central Daylight Time),345464.1000000015,step,900,I,m,m,None,628,428.0,200.0,66,1,2063.2000000029802,343400.8999999985,8075,step,AF,B,342811,342811,341182,342095,341182,343245,342611,342611,343245,94
93,test,1,con,1,z,Wed Oct 29 2025 09:38:04 GMT-0500 (Central Daylight Time),347229.19999999925,hate,800,I,z,z,None,422,222.0,200.0,41,1,1761.3999999985099,345467.80000000075,8075,hate,AF,B,344777,344777,343249,344061,343249,345010,344577,344577,345010,95
94,test,1,inc,1,m,Wed Oct 29 2025 09:38:04 GMT-0500 (Central Daylight Time),349395.1000000015,love,1000,I,m,m,None,624,424.0,200.0,87,1,2162.10000000149,347233.0,8075,bell,AF,B,346743,346743,345014,346027,345014,347176,346543,346543,347176,96
95,test,1,inc,1,z,Wed Oct 29 2025 09:38:04 GMT-0500 (Central Daylight Time),351527.69999999925,bell,1000,I,z,z,None,552,352.0,200.0,15,1,2128.699999999255,349399.0,8075,kind,AF,B,348942,348943,347180,348238,347180,349309,348742,348742,349309,97
96,test,1,con,1,m,Wed Oct 29 2025 09:38:04 GMT-0500 (Central Daylight Time),353577.1000000015,film,1000,I,m,m,None,501,301.0,200.0,91,1,2045.6000000014901,351531.5,8075,film,AF,B,351042,351042,349313,350325,349313,351358,350842,350842,351358,98
97,test,1,inc,1,z,Wed Oct 29 2025 09:38:04 GMT-0500 (Central Daylight Time),355476.3999999985,step,800,I,z,z,None,556,356.0,200.0,21,1,1895.7999999970198,353580.6000000015,8075,love,AF,B,352891,352891,351362,352175,351362,353257,352691,352691,353257,99
98,test,1,con,1,z,Wed Oct 29 2025 09:38:04 GMT-0500 (Central Daylight Time),357859.1000000015,elated,1100,I,z,z,None,740,541.0,199.0,4,1,2378.7000000029802,355480.3999999985,8075,elated,AF,B,355090,355090,353261,354374,353262,355640,354891,354891,355640,100
99,test,1,con,1,z,Wed Oct 29 2025 09:38:04 GMT-0500 (Central Daylight Time),359825.19999999925,kind,800,I,z,z,None,618,418.0,200.0,9,1,1962.5,357862.69999999925,8075,kind,AF,B,357173,357173,355644,356457,355644,357606,356973,356973,357606,101
100,test,1,inc,1,z,Wed Oct 29 2025 09:38:04 GMT-0500 (Central Daylight Time),361974.30000000075,rock,900,I,z,z,None,712,512.0,200.0,22,1,2145.199999999255,359829.1000000015,8075,love,AF,B,359239,359239,357610,358523,357610,359755,359039,359039,359755,102
101,test,1,inc,1,m,Wed Oct 29 2025 09:38:04 GMT-0500 (Central Daylight Time),364290.5,hate,1100,I,m,m,None,666,466.0,200.0,80,1,2312.300000000745,361978.19999999925,8075,rock,AF,B,361589,361589,359759,360872,359760,362072,361388,361388,362072,103
102,test,1,inc,1,z,Wed Oct 29 2025 09:38:04 GMT-0500 (Central Daylight Time),366306.3999999985,napkin,900,I,z,z,None,574,374.0,200.0,62,1,2012.2999999970198,364294.1000000015,8075,temper,AF,B,363705,363705,362075,362988,362075,364088,363504,363505,364087,104
103,test,1,con,1,z,Wed Oct 29 2025 09:38:04 GMT-0500 (Central Daylight Time),368472.3999999985,hate,1000,I,z,z,None,626,426.0,200.0,43,1,2162.2999999970198,366310.1000000015,8075,hate,AF,B,365821,365821,364091,365104,364091,366253,365620,365620,366253,105
104,test,1,con,1,m,Wed Oct 29 2025 09:38:04 GMT-0500 (Central Daylight Time),370438.5,jacket,800,I,m,m,None,627,428.0,199.0,97,1,1961.8999999985099,368476.6000000015,8075,jacket,AF,B,367787,367787,366258,367070,366258,368220,367587,367587,368220,106
105,test,1,inc,1,m,Wed Oct 29 2025 09:38:04 GMT-0500 (Central Daylight Time),372471.19999999925,elated,800,I,m,m,None,685,486.0,199.0,101,1,2028.5999999977648,370442.6000000015,8075,jacket,AF,B,369753,369753,368224,369036,368224,370252,369553,369553,370252,107
106,test,1,con,1,m,Wed Oct 29 2025 09:38:04 GMT-0500 (Central Daylight Time),374287.1000000015,rock,800,I,m,m,None,477,235.0,242.0,73,1,1811.9000000022352,372475.19999999925,8075,rock,AF,B,371828,371828,370256,371069,370256,372068,371585,371586,372068,108
107,test,1,con,1,z,Wed Oct 29 2025 09:38:04 GMT-0500 (Central Daylight Time),376570.19999999925,kind,1100,I,z,z,None,650,450.0,200.0,12,1,2279.300000000745,374290.8999999985,8075,kind,AF,B,373901,373901,372072,373185,372072,374351,373701,373701,374351,109
108,test,1,inc,1,m,Wed Oct 29 2025 09:38:04 GMT-0500 (Central Daylight Time),378952.3999999985,hate,1100,I,m,m,None,735,535.0,200.0,88,1,2378.099999997765,376574.30000000075,8075,bell,AF,B,376184,376184,374355,375467,374356,376733,375984,375984,376733,110
109,test,1,inc,1,m,Wed Oct 29 2025 09:38:04 GMT-0500 (Central Daylight Time),381168.5,temper,1000,I,m,m,None,676,476.0,200.0,127,1,2212.199999999255,378956.30000000075,8075,window,AF,B,378467,378467,376737,377750,376738,378950,378266,378266,378950,111
110,test,1,inc,1,z,Wed Oct 29 2025 09:38:04 GMT-0500 (Central Daylight Time),383134.6000000015,step,800,I,z,z,None,627,428.0,199.0,13,1,1962.2000000029802,381172.3999999985,8075,kind,AF,B,380483,380483,378953,379766,378954,380916,380283,380283,380916,112
111,test,1,con,1,z,Wed Oct 29 2025 09:38:04 GMT-0500 (Central Daylight Time),385183.8999999985,friend,800,I,z,z,None,702,501.0,201.0,25,1,2045.0999999977648,383138.80000000075,8075,friend,AF,B,382450,382450,380920,381732,380920,382965,382249,382249,382965,113
112,test,1,inc,1,m,Wed Oct 29 2025 09:38:04 GMT-0500 (Central Daylight Time),387250.0,kind,900,I,m,m,None,617,417.0,200.0,70,1,2062.39999999851,385187.6000000015,8075,step,AF,B,384598,384598,382969,383882,382969,385031,384398,384398,385031,114
113,test,1,inc,1,z,Wed Oct 29 2025 09:38:04 GMT-0500 (Central Daylight Time),389332.6000000015,rock,900,I,z,z,None,639,439.0,200.0,14,1,2079.10000000149,387253.5,8075,kind,AF,B,386664,386664,385035,385947,385035,387114,386464,386464,387114,115
114,test,1,inc,1,m,Wed Oct 29 2025 09:38:04 GMT-0500 (Central Daylight Time),391465.19999999925,kind,900,I,m,m,None,691,492.0,199.0,78,1,2129.099999997765,389336.1000000015,8075,rock,AF,B,388747,388747,387117,388030,387117,389246,388547,388547,389246,116
115,test,1,con,1,m,Wed Oct 29 2025 09:38:04 GMT-0500 (Central Daylight Time),393881.19999999925,napkin,1000,I,m,m,None,876,676.0,200.0,107,1,2412.39999999851,391468.80000000075,8075,napkin,AF,B,390979,390979,389250,390263,389250,391662,390779,390779,391662,117
116,test,1,con,1,m,Wed Oct 29 2025 09:38:04 GMT-0500 (Central Daylight Time),396130.30000000075,remote,1100,I,m,m,None,614,415.0,199.0,116,1,2244.800000000745,393885.5,8075,remote,AF,B,393496,393496,391667,392779,391667,393911,393296,393296,393911,118
117,test,1,con,1,m,Wed Oct 29 2025 09:38:04 GMT-0500 (Central Daylight Time),398279.80000000075,bell,1000,I,m,m,None,533,319.0,214.0,83,1,2145.60000000149,396134.19999999925,8075,bell,AF,B,395728,395728,393915,394928,393915,396061,395513,395513,396061,119
118,test,1,con,1,m,Wed Oct 29 2025 09:38:04 GMT-0500 (Central Daylight Time),400445.6000000015,step,1100,I,m,m,None,528,329.0,199.0,68,1,2162.400000002235,398283.19999999925,8075,step,AF,B,397894,397894,396064,397177,396065,398227,397694,397694,398227,120
119,test,1,con,1,m,Wed Oct 29 2025 09:38:04 GMT-0500 (Central Daylight Time),402578.3999999985,window,1100,I,m,m,None,491,291.0,200.0,124,1,2129.199999999255,400449.19999999925,8075,window,AF,B,400060,400060,398230,399343,398230,400360,399860,399860,400359,121
120,test,1,inc,1,z,Wed Oct 29 2025 09:38:04 GMT-0500 (Central Daylight Time),404877.69999999925,window,1100,I,z,z,None,663,463.0,200.0,40,1,2295.5,402582.19999999925,8075,brutal,AF,B,402192,402192,400363,401476,400364,402659,401992,401992,402659,122
121,test,1,inc,1,m,Wed Oct 29 2025 09:38:04 GMT-0500 (Central Daylight Time),406910.30000000075,rage,800,I,m,m,None,695,495.0,200.0,77,1,2028.5,404881.80000000075,8075,rock,AF,B,404192,404192,402663,403475,402663,404691,403992,403992,404691,123
122,test,1,con,1,m,Wed Oct 29 2025 09:38:04 GMT-0500 (Central Daylight Time),409159.69999999925,rock,900,I,m,m,None,803,603.0,200.0,74,1,2245.699999999255,406914.0,8075,rock,AF,B,406324,406324,404695,405608,404695,406941,406124,406124,406941,124
123,test,1,inc,1,m,Wed Oct 29 2025 09:38:04 GMT-0500 (Central Daylight Time),411325.80000000075,kind,900,I,m,m,None,721,521.0,200.0,94,1,2162.60000000149,409163.19999999925,8075,film,AF,B,408574,408574,406944,407857,406944,409107,408374,408374,409107,125
124,test,1,inc,1,m,Wed Oct 29 2025 09:38:04 GMT-0500 (Central Daylight Time),413608.30000000075,hate,1100,I,m,m,None,635,435.0,200.0,72,1,2278.699999999255,411329.6000000015,8075,step,AF,B,410940,410940,409111,410223,409111,411389,410740,410740,411389,126
125,test,1,con,1,m,Wed Oct 29 2025 09:38:04 GMT-0500 (Central Daylight Time),415774.19999999925,napkin,900,I,m,m,None,729,529.0,200.0,106,1,2162.099999997765,413612.1000000015,8075,napkin,AF,B,413022,413022,411393,412306,411393,413555,412822,412822,413555,127
126,test,1,con,1,m,Wed Oct 29 2025 09:38:04 GMT-0500 (Central Daylight Time),418023.69999999925,remote,1000,I,m,m,None,703,503.0,200.0,115,1,2245.39999999851,415778.30000000075,8075,remote,AF,B,415288,415288,413559,414572,413560,415805,415088,415088,415805,128
