acc_sum,block_c,block_dur,condition,correct,correct_response,countdown,datetime,endtime,project,response,response_time,response_time_test1_response,response_time_test2_response,row_sel,same,session_number,start_end,starttime,stim1,stim2,subject_id,task,task_vers,time_test1,time_test2,trial
1,1,0.0,prac,1,z,30000.0,Tue Aug 12 2025 18:16:05 GMT-0500 (Central Daylight Time),42476.09999990463,O,z,2906,,,3,yes,1,4429.5,38046.59999990463,practrial3.png,practrial3.png,7215,PC,A,,,1
2,1,0.0,prac,1,m,30000.0,Tue Aug 12 2025 18:16:05 GMT-0500 (Central Daylight Time),46191.09999990463,O,m,2167,,,6,no,1,3695.2999999523163,42495.799999952316,practrial6.png,practrial6b.png,7215,PC,A,,,2
3,1,0.0,prac,1,m,30000.0,Tue Aug 12 2025 18:16:05 GMT-0500 (Central Daylight Time),49290.799999952316,O,m,1575,,,4,no,1,3094.7000000476837,46196.09999990463,practrial4.png,practrial4b.png,7215,PC,A,,,3
4,1,0.0,prac,1,m,30000.0,Tue Aug 12 2025 18:16:05 GMT-0500 (Central Daylight Time),51990.0,O,m,1154,,,2,no,1,2680.800000190735,49309.199999809265,practrial2.png,practrial2b.png,7215,PC,A,,,4
5,1,0.0,prac,1,z,30000.0,Tue Aug 12 2025 18:16:05 GMT-0500 (Central Daylight Time),54972.5,O,z,1441,,,1,yes,1,2964.9000000953674,52007.59999990463,practrial1.png,practrial1.png,7215,PC,A,,,5
5,1,0.0,prac,0,z,30000.0,Tue Aug 12 2025 18:16:05 GMT-0500 (Central Daylight Time),59237.5,O,m,2721,,,5,yes,1,4247.0,54990.5,practrial5.png,practrial5.png,7215,PC,A,,,6
1,1,2.9820001125335693,test,1,z,27017.99988746643,Tue Aug 12 2025 18:16:05 GMT-0500 (Central Daylight Time),68168.79999995232,O,z,2955,2955,,1,yes,1,2971.100000143051,65197.699999809265,test1trial1.png,test1trial1.png,7215,PC,A,62413,,1
2,1,4.197999954223633,test,1,m,25802.000045776367,Tue Aug 12 2025 18:16:05 GMT-0500 (Central Daylight Time),69384.39999985695,O,m,1194,1194,,2,no,1,1203.2000000476837,68181.19999980927,test1trial2.png,test1trial2b.png,7215,PC,A,65397,,2
3,1,7.0959999561309814,test,1,z,22904.00004386902,Tue Aug 12 2025 18:16:05 GMT-0500 (Central Daylight Time),72282.79999995232,O,z,2866,2866,,3,yes,1,2885.7000000476837,69397.09999990463,test1trial3.png,test1trial3.png,7215,PC,A,66612,,3
4,1,8.396000146865845,test,1,m,21603.999853134155,Tue Aug 12 2025 18:16:05 GMT-0500 (Central Daylight Time),73583.19999980927,O,m,1292,1292,,4,no,1,1296.7999999523163,72286.39999985695,test1trial4.png,test1trial4b.png,7215,PC,A,69500,,4
5,1,10.51200008392334,test,1,z,19487.99991607666,Tue Aug 12 2025 18:16:05 GMT-0500 (Central Daylight Time),75699.0,O,z,2085,2085,,5,yes,1,2104.4000000953674,73594.59999990463,test1trial5.png,test1trial5.png,7215,PC,A,70810,,5
6,1,11.712000131607056,test,1,m,18287.999868392944,Tue Aug 12 2025 18:16:05 GMT-0500 (Central Daylight Time),76898.79999995232,O,m,1175,1175,,6,no,1,1187.9000000953674,75710.89999985695,test1trial6.png,test1trial6b.png,7215,PC,A,72928,,6
7,1,12.84500002861023,test,1,z,17154.99997138977,Tue Aug 12 2025 18:16:05 GMT-0500 (Central Daylight Time),78031.59999990463,O,z,1114,1114,,7,yes,1,1121.0,76910.59999990463,test1trial7.png,test1trial7.png,7215,PC,A,74125,,7
8,1,15.677000045776367,test,1,m,14322.999954223633,Tue Aug 12 2025 18:16:05 GMT-0500 (Central Daylight Time),80864.19999980927,O,m,2812,2812,,8,no,1,2820.7999999523163,78043.39999985695,test1trial8.png,test1trial8b.png,7215,PC,A,75260,,8
9,1,17.47699999809265,test,1,z,12523.000001907349,Tue Aug 12 2025 18:16:05 GMT-0500 (Central Daylight Time),82663.39999985695,O,z,1781,1781,,9,yes,1,1787.0,80876.39999985695,test1trial9.png,test1trial9.png,7215,PC,A,78091,,9
10,1,18.743000030517578,test,1,m,11256.999969482422,Tue Aug 12 2025 18:16:05 GMT-0500 (Central Daylight Time),83929.89999985695,O,m,1245,1245,,10,no,1,1254.8999998569489,82675.0,test1trial10.png,test1trial10b.png,7215,PC,A,79891,,10
11,1,20.509000062942505,test,1,z,9490.999937057495,Tue Aug 12 2025 18:16:05 GMT-0500 (Central Daylight Time),85695.39999985695,O,z,1745,1745,,11,yes,1,1753.2000000476837,83942.19999980927,test1trial11.png,test1trial11.png,7215,PC,A,81158,,11
12,1,22.02500009536743,test,1,m,7974.999904632568,Tue Aug 12 2025 18:16:05 GMT-0500 (Central Daylight Time),87211.89999985695,O,m,1490,1490,,12,no,1,1509.5999999046326,85702.29999995232,test1trial12.png,test1trial12b.png,7215,PC,A,82917,,12
13,1,23.341000080108643,test,1,m,6658.999919891357,Tue Aug 12 2025 18:16:05 GMT-0500 (Central Daylight Time),88528.09999990463,O,m,1288,1288,,13,no,1,1304.5999999046326,87223.5,test1trial13.png,test1trial13b.png,7215,PC,A,84440,,13
14,1,27.006999969482422,test,1,m,2993.000030517578,Tue Aug 12 2025 18:16:05 GMT-0500 (Central Daylight Time),92193.79999995232,O,m,3634,3634,,14,no,1,3653.4000000953674,88540.39999985695,test1trial14.png,test1trial14b.png,7215,PC,A,85757,,14
14,1,29.889000177383423,test,0,z,110.99982261657715,Tue Aug 12 2025 18:16:05 GMT-0500 (Central Daylight Time),95076.09999990463,O,m,2851,2851,,15,yes,1,2870.4000000953674,92205.69999980927,test1trial15.png,test1trial15.png,7215,PC,A,89421,,15
14,1,30.02300000190735,test,0,m,-23.000001907348633,Tue Aug 12 2025 18:16:05 GMT-0500 (Central Daylight Time),95209.69999980927,O,None,116,116,,16,no,1,121.79999995231628,95087.89999985695,test1trial16.png,test1trial16b.png,7215,PC,A,92305,,16
1,2,2.383000135421753,test,1,m,27616.999864578247,Tue Aug 12 2025 18:16:05 GMT-0500 (Central Daylight Time),98608.69999980927,O,m,2364,,2364.0,1,no,1,3520.7999999523163,95087.89999985695,test2trial1.png,test2trial1b.png,7215,PC,A,,93452.0,1
2,2,4.697999954223633,test,1,m,25302.000045776367,Tue Aug 12 2025 18:16:05 GMT-0500 (Central Daylight Time),100924.19999980927,O,m,2283,,2283.0,2,no,1,5836.299999952316,95087.89999985695,test2trial2.png,test2trial2b.png,7215,PC,A,,95837.0,2
3,2,6.781000137329102,test,1,z,23218.9998626709,Tue Aug 12 2025 18:16:05 GMT-0500 (Central Daylight Time),103007.09999990463,O,z,2066,,2066.0,3,yes,1,7919.200000047684,95087.89999985695,test2trial3.png,test2trial3.png,7215,PC,A,,98150.0,3
4,2,8.180999994277954,test,1,z,21819.000005722046,Tue Aug 12 2025 18:16:05 GMT-0500 (Central Daylight Time),104406.5,O,z,1373,,1373.0,4,yes,1,9318.600000143051,95087.89999985695,test2trial4.png,test2trial4.png,7215,PC,A,,100235.0,4
5,2,10.27999997138977,test,1,z,19720.00002861023,Tue Aug 12 2025 18:16:05 GMT-0500 (Central Daylight Time),106505.69999980927,O,z,2071,,2071.0,5,yes,1,11417.799999952316,95087.89999985695,test2trial5.png,test2trial5.png,7215,PC,A,,101633.0,5
6,2,12.345999956130981,test,1,z,17654.00004386902,Tue Aug 12 2025 18:16:05 GMT-0500 (Central Daylight Time),108571.69999980927,O,z,2036,,2036.0,6,yes,1,13483.799999952316,95087.89999985695,test2trial6.png,test2trial6.png,7215,PC,A,,103732.0,6
7,2,14.045000076293945,test,1,m,15954.999923706055,Tue Aug 12 2025 18:16:05 GMT-0500 (Central Daylight Time),110271.09999990463,O,m,1672,,1672.0,7,no,1,15183.200000047684,95087.89999985695,test2trial7.png,test2trial7b.png,7215,PC,A,,105800.0,7
8,2,15.32800006866455,test,1,m,14671.99993133545,Tue Aug 12 2025 18:16:05 GMT-0500 (Central Daylight Time),111554.09999990463,O,m,1262,,1262.0,8,no,1,16466.200000047684,95087.89999985695,test2trial8.png,test2trial8b.png,7215,PC,A,,107498.0,8
9,2,17.844000101089478,test,1,z,12155.999898910522,Tue Aug 12 2025 18:16:05 GMT-0500 (Central Daylight Time),114069.69999980927,O,z,2500,,2500.0,9,yes,1,18981.799999952316,95087.89999985695,test2trial9.png,test2trial9.png,7215,PC,A,,108780.0,9
10,2,19.628999948501587,test,1,z,10371.000051498413,Tue Aug 12 2025 18:16:05 GMT-0500 (Central Daylight Time),115852.5,O,z,1759,,1759.0,10,yes,1,20764.60000014305,95087.89999985695,test2trial10.png,test2trial10.png,7215,PC,A,,111297.0,10
11,2,21.045000076293945,test,1,m,8954.999923706055,Tue Aug 12 2025 18:16:05 GMT-0500 (Central Daylight Time),117269.09999990463,O,m,1400,,1400.0,11,no,1,22181.200000047684,95087.89999985695,test2trial11.png,test2trial11b.png,7215,PC,A,,113080.0,11
12,2,22.710999965667725,test,1,m,7289.000034332275,Tue Aug 12 2025 18:16:05 GMT-0500 (Central Daylight Time),118935.0,O,m,1648,,1648.0,12,no,1,23847.10000014305,95087.89999985695,test2trial12.png,test2trial12b.png,7215,PC,A,,114496.0,12
13,2,24.89400005340576,test,1,z,5105.999946594238,Tue Aug 12 2025 18:16:05 GMT-0500 (Central Daylight Time),121117.59999990463,O,z,2159,,2159.0,13,yes,1,26029.700000047684,95087.89999985695,test2trial13.png,test2trial13.png,7215,PC,A,,116161.0,13
14,2,26.41000008583069,test,1,m,3589.9999141693115,Tue Aug 12 2025 18:16:05 GMT-0500 (Central Daylight Time),122633.89999985695,O,m,1487,,1487.0,14,no,1,27546.0,95087.89999985695,test2trial14.png,test2trial14b.png,7215,PC,A,,118345.0,14
15,2,27.610000133514404,test,1,m,2389.9998664855957,Tue Aug 12 2025 18:16:05 GMT-0500 (Central Daylight Time),123833.29999995232,O,m,1178,,1178.0,15,no,1,28745.400000095367,95087.89999985695,test2trial15.png,test2trial15b.png,7215,PC,A,,119861.0,15
16,2,29.325999975204468,test,1,m,674.0000247955322,Tue Aug 12 2025 18:16:05 GMT-0500 (Central Daylight Time),125549.29999995232,O,m,1699,,1699.0,16,no,1,30461.400000095367,95087.89999985695,test2trial16.png,test2trial16b.png,7215,PC,A,,121061.0,16
16,2,30.026000022888184,test,0,z,-26.000022888183594,Tue Aug 12 2025 18:16:05 GMT-0500 (Central Daylight Time),126249.19999980927,O,None,685,,685.0,17,yes,1,31161.299999952316,95087.89999985695,test2trial17.png,test2trial17.png,7215,PC,A,,122776.0,17
