acc_sum,block,block_c,change,condition,correct,correct_response,datetime,endtime,face,project,response,response_time,row_sel,session_number,start_end,starttime,subject_id,task,task_vers,trial
0,prac,1,,1-Back,,,Mon Aug 04 2025 15:14:42 GMT-0500 (Central Daylight Time),,124_o_f_d_a.png,I,space,5023,1,2,,,8023,VNB,A,0
1,prac,1,0.0,1-Back,1,m,Mon Aug 04 2025 15:14:42 GMT-0500 (Central Daylight Time),134651.79999995232,071_y_f_n_a.png,I,m,1226,2,2,2024.199999988079,132627.59999996424,8023,VNB,A,1
2,prac,1,0.0,1-Back,1,m,Mon Aug 04 2025 15:14:42 GMT-0500 (Central Daylight Time),136917.69999998808,165_m_m_h_a.png,I,m,1459,3,2,2257.800000011921,134659.89999997616,8023,VNB,A,2
3,prac,1,0.0,1-Back,1,m,Mon Aug 04 2025 15:14:42 GMT-0500 (Central Daylight Time),139017.0,109_y_m_d_a.png,I,m,1286,4,2,2091.800000011921,136925.19999998808,8023,VNB,A,3
4,prac,1,0.0,1-Back,1,m,Mon Aug 04 2025 15:14:42 GMT-0500 (Central Daylight Time),140866.39999997616,124_o_f_n_a.png,I,m,1010,5,2,1842.1000000238419,139024.29999995232,8023,VNB,A,4
5,prac,1,1.0,1-Back,1,z,Mon Aug 04 2025 15:14:42 GMT-0500 (Central Daylight Time),142550.5,109_y_m_n_a.png,I,z,864,6,2,1676.800000011921,140873.69999998808,8023,VNB,A,5
6,prac,1,0.0,1-Back,1,m,Mon Aug 04 2025 15:14:42 GMT-0500 (Central Daylight Time),144598.79999995232,039_o_m_h_a.png,I,m,1235,7,2,2040.7999999523163,142558.0,8023,VNB,A,6
7,prac,1,0.0,1-Back,1,m,Mon Aug 04 2025 15:14:42 GMT-0500 (Central Daylight Time),146364.69999998808,139_m_f_d_a.png,I,m,954,8,2,1758.4000000357628,144606.29999995232,8023,VNB,A,7
8,prac,1,1.0,1-Back,1,z,Mon Aug 04 2025 15:14:42 GMT-0500 (Central Daylight Time),147947.5,071_y_f_d_a.png,I,z,781,9,2,1575.2000000476837,146372.29999995232,8023,VNB,A,8
9,prac,1,0.0,1-Back,1,m,Mon Aug 04 2025 15:14:42 GMT-0500 (Central Daylight Time),149780.39999997616,165_m_m_n_a.png,I,m,1021,10,2,1825.3999999761581,147955.0,8023,VNB,A,9
10,prac,1,0.0,1-Back,1,m,Mon Aug 04 2025 15:14:42 GMT-0500 (Central Daylight Time),151713.09999996424,124_o_f_h_a.png,I,m,1101,11,2,1925.300000011921,149787.79999995232,8023,VNB,A,10
11,prac,1,0.0,1-Back,1,m,Mon Aug 04 2025 15:14:42 GMT-0500 (Central Daylight Time),153412.59999996424,109_y_m_d_a.png,I,m,913,12,2,1691.8999999761581,151720.69999998808,8023,VNB,A,11
0,test,1,0.0,1-Back,,,Mon Aug 04 2025 15:14:42 GMT-0500 (Central Daylight Time),153412.59999996424,071_y_f_d_a.png,I,space,7569,1,2,1691.8999999761581,151720.69999998808,8023,VNB,A,0
1,test,1,0.0,1-Back,1,m,Mon Aug 04 2025 15:14:42 GMT-0500 (Central Daylight Time),174439.29999995232,139_m_f_n_a.png,I,m,1444,2,2,2459.199999988079,171980.09999996424,8023,VNB,A,1
2,test,1,0.0,1-Back,1,m,Mon Aug 04 2025 15:14:42 GMT-0500 (Central Daylight Time),176571.89999997616,039_o_m_h_a.png,I,m,1105,3,2,2126.199999988079,174445.69999998808,8023,VNB,A,2
3,test,1,1.0,1-Back,1,z,Mon Aug 04 2025 15:14:42 GMT-0500 (Central Daylight Time),178371.09999996424,165_m_m_h_a.png,I,z,781,4,2,1793.0,176578.09999996424,8023,VNB,A,3
4,test,1,0.0,1-Back,1,m,Mon Aug 04 2025 15:14:42 GMT-0500 (Central Daylight Time),180187.5,124_o_f_n_a.png,I,m,790,5,2,1810.6000000238419,178376.89999997616,8023,VNB,A,4
5,test,1,0.0,1-Back,1,m,Mon Aug 04 2025 15:14:42 GMT-0500 (Central Daylight Time),182053.5,109_y_m_d_a.png,I,m,846,6,2,1859.800000011921,180193.69999998808,8023,VNB,A,5
6,test,1,1.0,1-Back,1,z,Mon Aug 04 2025 15:14:42 GMT-0500 (Central Daylight Time),183969.69999998808,139_m_f_d_a.png,I,z,892,7,2,1908.9000000357628,182060.79999995232,8023,VNB,A,6
7,test,1,0.0,1-Back,1,m,Mon Aug 04 2025 15:14:42 GMT-0500 (Central Daylight Time),185918.89999997616,071_y_f_h_a.png,I,m,920,8,2,1941.6000000238419,183977.29999995232,8023,VNB,A,7
8,test,1,0.0,1-Back,1,m,Mon Aug 04 2025 15:14:42 GMT-0500 (Central Daylight Time),187635.0,039_o_m_n_a.png,I,m,698,9,2,1709.800000011921,185925.19999998808,8023,VNB,A,8
9,test,1,0.0,1-Back,1,m,Mon Aug 04 2025 15:14:42 GMT-0500 (Central Daylight Time),189468.19999998808,109_y_m_h_a.png,I,m,806,10,2,1827.1000000238419,187641.09999996424,8023,VNB,A,9
10,test,1,0.0,1-Back,1,m,Mon Aug 04 2025 15:14:42 GMT-0500 (Central Daylight Time),191417.19999998808,039_o_m_d_a.png,I,m,918,11,2,1943.0,189474.19999998808,8023,VNB,A,10
11,test,1,1.0,1-Back,1,z,Mon Aug 04 2025 15:14:42 GMT-0500 (Central Daylight Time),193266.89999997616,124_o_f_d_a.png,I,z,816,12,2,1843.3999999761581,191423.5,8023,VNB,A,11
12,test,1,0.0,1-Back,1,m,Mon Aug 04 2025 15:14:42 GMT-0500 (Central Daylight Time),195166.09999996424,165_m_m_n_a.png,I,m,878,13,2,1892.699999988079,193273.39999997616,8023,VNB,A,12
13,test,1,1.0,1-Back,1,z,Mon Aug 04 2025 15:14:42 GMT-0500 (Central Daylight Time),196982.19999998808,071_y_f_n_a.png,I,z,796,14,2,1809.6000000238419,195172.59999996424,8023,VNB,A,13
14,test,1,0.0,1-Back,1,m,Mon Aug 04 2025 15:14:42 GMT-0500 (Central Daylight Time),198931.5,139_m_f_h_a.png,I,m,923,15,2,1943.0,196988.5,8023,VNB,A,14
15,test,1,0.0,1-Back,1,m,Mon Aug 04 2025 15:14:42 GMT-0500 (Central Daylight Time),200780.89999997616,165_m_m_d_a.png,I,m,822,16,2,1843.300000011921,198937.59999996424,8023,VNB,A,15
16,test,1,0.0,1-Back,1,m,Mon Aug 04 2025 15:14:42 GMT-0500 (Central Daylight Time),202680.39999997616,109_y_m_n_a.png,I,m,868,17,2,1892.8999999761581,200787.5,8023,VNB,A,16
17,test,1,0.0,1-Back,1,m,Mon Aug 04 2025 15:14:42 GMT-0500 (Central Daylight Time),204546.29999995232,124_o_f_h_a.png,I,m,849,18,2,1859.5,202686.79999995232,8023,VNB,A,17
0,test,2,0.0,1-Back,,,Mon Aug 04 2025 15:14:42 GMT-0500 (Central Daylight Time),204546.29999995232,109_y_m_n_a.png,I,space,1841,1,2,1859.5,202686.79999995232,8023,VNB,A,0
1,test,2,0.0,1-Back,1,m,Mon Aug 04 2025 15:14:42 GMT-0500 (Central Daylight Time),210161.19999998808,071_y_f_h_a.png,I,m,717,2,2,1743.199999988079,208418.0,8023,VNB,A,1
2,test,2,1.0,1-Back,1,m,Mon Aug 04 2025 15:14:42 GMT-0500 (Central Daylight Time),211960.89999997616,039_o_m_n_a.png,I,m,768,3,2,1793.5,210167.39999997616,8023,VNB,A,2
3,test,2,0.0,1-Back,1,m,Mon Aug 04 2025 15:14:42 GMT-0500 (Central Daylight Time),214409.89999997616,139_m_f_d_a.png,I,m,1425,4,2,2442.199999988079,211967.69999998808,8023,VNB,A,3
4,test,2,0.0,1-Back,1,z,Mon Aug 04 2025 15:14:42 GMT-0500 (Central Daylight Time),216109.5,165_m_m_d_a.png,I,z,671,5,2,1693.300000011921,214416.19999998808,8023,VNB,A,4
5,test,2,0.0,1-Back,1,m,Mon Aug 04 2025 15:14:42 GMT-0500 (Central Daylight Time),218225.0,109_y_m_h_a.png,I,m,1084,6,2,2109.0,216116.0,8023,VNB,A,5
6,test,2,1.0,1-Back,1,z,Mon Aug 04 2025 15:14:42 GMT-0500 (Central Daylight Time),220191.69999998808,124_o_f_h_a.png,I,z,944,7,2,1960.6000000238419,218231.09999996424,8023,VNB,A,6
7,test,2,0.0,1-Back,1,m,Mon Aug 04 2025 15:14:42 GMT-0500 (Central Daylight Time),222241.19999998808,139_m_f_n_a.png,I,m,1018,8,2,2043.1000000238419,220198.09999996424,8023,VNB,A,7
8,test,2,0.0,1-Back,1,m,Mon Aug 04 2025 15:14:42 GMT-0500 (Central Daylight Time),224290.09999996424,071_y_f_d_a.png,I,m,1017,9,2,2042.699999988079,222247.39999997616,8023,VNB,A,8
9,test,2,0.0,1-Back,1,m,Mon Aug 04 2025 15:14:42 GMT-0500 (Central Daylight Time),226789.39999997616,165_m_m_n_a.png,I,m,1471,10,2,2492.699999988079,224296.69999998808,8023,VNB,A,9
10,test,2,1.0,1-Back,1,m,Mon Aug 04 2025 15:14:42 GMT-0500 (Central Daylight Time),228805.39999997616,139_m_f_h_a.png,I,m,996,11,2,2009.699999988079,226795.69999998808,8023,VNB,A,10
11,test,2,0.0,1-Back,1,z,Mon Aug 04 2025 15:14:42 GMT-0500 (Central Daylight Time),230704.89999997616,039_o_m_h_a.png,I,z,880,12,2,1893.199999988079,228811.69999998808,8023,VNB,A,11
12,test,2,0.0,1-Back,1,m,Mon Aug 04 2025 15:14:42 GMT-0500 (Central Daylight Time),232720.89999997616,109_y_m_d_a.png,I,m,984,13,2,2009.8999999761581,230711.0,8023,VNB,A,12
13,test,2,0.0,1-Back,1,m,Mon Aug 04 2025 15:14:42 GMT-0500 (Central Daylight Time),234637.19999998808,124_o_f_n_a.png,I,m,888,14,2,1909.6000000238419,232727.59999996424,8023,VNB,A,13
14,test,2,0.0,1-Back,1,z,Mon Aug 04 2025 15:14:42 GMT-0500 (Central Daylight Time),236469.69999998808,071_y_f_n_a.png,I,z,813,15,2,1826.1000000238419,234643.59999996424,8023,VNB,A,14
15,test,2,1.0,1-Back,1,m,Mon Aug 04 2025 15:14:42 GMT-0500 (Central Daylight Time),238402.59999996424,165_m_m_h_a.png,I,m,916,16,2,1926.3999999761581,236476.19999998808,8023,VNB,A,15
16,test,2,0.0,1-Back,1,m,Mon Aug 04 2025 15:14:42 GMT-0500 (Central Daylight Time),240335.09999996424,124_o_f_d_a.png,I,m,911,17,2,1926.199999988079,238408.89999997616,8023,VNB,A,16
17,test,2,1.0,1-Back,1,z,Mon Aug 04 2025 15:14:42 GMT-0500 (Central Daylight Time),242034.69999998808,039_o_m_d_a.png,I,z,674,18,2,1693.1000000238419,240341.59999996424,8023,VNB,A,17
0,test,3,1.0,1-Back,,,Mon Aug 04 2025 15:14:42 GMT-0500 (Central Daylight Time),242034.69999998808,124_o_f_h_a.png,I,space,2431,1,2,1693.1000000238419,240341.59999996424,8023,VNB,A,0
1,test,3,0.0,1-Back,1,m,Mon Aug 04 2025 15:14:42 GMT-0500 (Central Daylight Time),248416.0,139_m_f_d_a.png,I,m,869,2,2,1892.6000000238419,246523.39999997616,8023,VNB,A,1
2,test,3,1.0,1-Back,1,m,Mon Aug 04 2025 15:14:42 GMT-0500 (Central Daylight Time),250365.79999995232,165_m_m_n_a.png,I,m,922,3,2,1943.3999999761581,248422.39999997616,8023,VNB,A,2
3,test,3,0.0,1-Back,1,z,Mon Aug 04 2025 15:14:42 GMT-0500 (Central Daylight Time),252164.79999995232,124_o_f_n_a.png,I,z,780,4,2,1792.699999988079,250372.09999996424,8023,VNB,A,3
4,test,3,1.0,1-Back,1,m,Mon Aug 04 2025 15:14:42 GMT-0500 (Central Daylight Time),254064.19999998808,039_o_m_d_a.png,I,m,877,5,2,1893.0,252171.19999998808,8023,VNB,A,4
5,test,3,0.0,1-Back,1,m,Mon Aug 04 2025 15:14:42 GMT-0500 (Central Daylight Time),256180.39999997616,071_y_f_h_a.png,I,m,1089,6,2,2109.399999976158,254071.0,8023,VNB,A,5
6,test,3,0.0,1-Back,1,z,Mon Aug 04 2025 15:14:42 GMT-0500 (Central Daylight Time),257929.89999997616,109_y_m_h_a.png,I,z,717,7,2,1742.8999999761581,256187.0,8023,VNB,A,6
7,test,3,0.0,1-Back,1,m,Mon Aug 04 2025 15:14:42 GMT-0500 (Central Daylight Time),260095.59999996424,139_m_f_n_a.png,I,m,1136,8,2,2159.399999976158,257936.19999998808,8023,VNB,A,7
8,test,3,0.0,1-Back,1,m,Mon Aug 04 2025 15:14:42 GMT-0500 (Central Daylight Time),262078.5,071_y_f_d_a.png,I,m,954,9,2,1976.2000000476837,260102.29999995232,8023,VNB,A,8
9,test,3,1.0,1-Back,1,m,Mon Aug 04 2025 15:14:42 GMT-0500 (Central Daylight Time),264111.1999999881,039_o_m_n_a.png,I,m,1003,10,2,2026.5,262084.69999998808,8023,VNB,A,9
10,test,3,0.0,1-Back,1,m,Mon Aug 04 2025 15:14:42 GMT-0500 (Central Daylight Time),266076.89999997616,165_m_m_h_a.png,I,m,938,11,2,1958.8999999761581,264118.0,8023,VNB,A,10
11,test,3,0.0,1-Back,1,z,Mon Aug 04 2025 15:14:42 GMT-0500 (Central Daylight Time),267910.0,139_m_f_h_a.png,I,z,804,12,2,1826.800000011921,266083.1999999881,8023,VNB,A,11
12,test,3,1.0,1-Back,1,m,Mon Aug 04 2025 15:14:42 GMT-0500 (Central Daylight Time),269776.0,124_o_f_d_a.png,I,m,843,13,2,1859.4000000357628,267916.59999996424,8023,VNB,A,12
13,test,3,0.0,1-Back,1,z,Mon Aug 04 2025 15:14:42 GMT-0500 (Central Daylight Time),271592.09999996424,165_m_m_d_a.png,I,z,793,14,2,1809.800000011921,269782.2999999523,8023,VNB,A,13
14,test,3,0.0,1-Back,1,m,Mon Aug 04 2025 15:14:42 GMT-0500 (Central Daylight Time),273574.6999999881,109_y_m_n_a.png,I,m,953,15,2,1976.0,271598.6999999881,8023,VNB,A,14
15,test,3,1.0,1-Back,1,m,Mon Aug 04 2025 15:14:42 GMT-0500 (Central Daylight Time),275640.6999999881,039_o_m_h_a.png,I,m,1034,16,2,2058.900000035763,273581.7999999523,8023,VNB,A,15
16,test,3,0.0,1-Back,1,m,Mon Aug 04 2025 15:14:42 GMT-0500 (Central Daylight Time),278090.09999996424,109_y_m_d_a.png,I,m,1417,17,2,2442.699999988079,275647.39999997616,8023,VNB,A,16
17,test,3,1.0,1-Back,1,m,Mon Aug 04 2025 15:14:42 GMT-0500 (Central Daylight Time),279839.39999997616,071_y_f_n_a.png,I,m,728,18,2,1742.699999988079,278096.6999999881,8023,VNB,A,17
0,test,4,1.0,1-Back,,,Mon Aug 04 2025 15:14:42 GMT-0500 (Central Daylight Time),279839.39999997616,165_m_m_d_a.png,I,space,1978,1,2,1742.699999988079,278096.6999999881,8023,VNB,A,0
1,test,4,0.0,1-Back,1,z,Mon Aug 04 2025 15:14:42 GMT-0500 (Central Daylight Time),286537.59999996424,039_o_m_d_a.png,I,z,1676,2,2,2692.5,283845.09999996424,8023,VNB,A,1
2,test,4,0.0,1-Back,1,m,Mon Aug 04 2025 15:14:42 GMT-0500 (Central Daylight Time),289186.5,109_y_m_h_a.png,I,m,1624,3,2,2642.100000023842,286544.39999997616,8023,VNB,A,2
3,test,4,0.0,1-Back,1,m,Mon Aug 04 2025 15:14:42 GMT-0500 (Central Daylight Time),291386.0,139_m_f_n_a.png,I,m,1167,4,2,2193.2000000476837,289192.7999999523,8023,VNB,A,3
4,test,4,1.0,1-Back,1,m,Mon Aug 04 2025 15:14:42 GMT-0500 (Central Daylight Time),293234.89999997616,124_o_f_h_a.png,I,m,831,5,2,1842.3999999761581,291392.5,8023,VNB,A,4
5,test,4,0.0,1-Back,1,m,Mon Aug 04 2025 15:14:42 GMT-0500 (Central Daylight Time),295051.1999999881,165_m_m_n_a.png,I,m,798,6,2,1809.699999988079,293241.5,8023,VNB,A,5
6,test,4,0.0,1-Back,1,m,Mon Aug 04 2025 15:14:42 GMT-0500 (Central Daylight Time),297050.59999996424,109_y_m_d_a.png,I,m,982,7,2,1992.800000011921,295057.7999999523,8023,VNB,A,6
7,test,4,1.0,1-Back,1,z,Mon Aug 04 2025 15:14:42 GMT-0500 (Central Daylight Time),299049.89999997616,071_y_f_d_a.png,I,z,975,8,2,1992.8999999761581,297057.0,8023,VNB,A,7
8,test,4,0.0,1-Back,1,m,Mon Aug 04 2025 15:14:42 GMT-0500 (Central Daylight Time),301199.39999997616,139_m_f_h_a.png,I,m,1119,9,2,2142.600000023842,299056.7999999523,8023,VNB,A,8
8,test,4,0.0,1-Back,0,z,Mon Aug 04 2025 15:14:42 GMT-0500 (Central Daylight Time),303532.0,039_o_m_h_a.png,I,m,1306,10,2,2325.800000011921,301206.1999999881,8023,VNB,A,9
9,test,4,1.0,1-Back,1,m,Mon Aug 04 2025 15:14:42 GMT-0500 (Central Daylight Time),305748.09999996424,124_o_f_n_a.png,I,m,1189,11,2,2209.0,303539.09999996424,8023,VNB,A,10
10,test,4,0.0,1-Back,1,m,Mon Aug 04 2025 15:14:42 GMT-0500 (Central Daylight Time),307947.0,139_m_f_d_a.png,I,m,1181,12,2,2192.600000023842,305754.39999997616,8023,VNB,A,11
11,test,4,0.0,1-Back,1,m,Mon Aug 04 2025 15:14:42 GMT-0500 (Central Daylight Time),310646.59999996424,071_y_f_n_a.png,I,m,1669,13,2,2692.699999988079,307953.89999997616,8023,VNB,A,12
11,test,4,0.0,1-Back,0,m,Mon Aug 04 2025 15:14:42 GMT-0500 (Central Daylight Time),312762.59999996424,124_o_f_d_a.png,I,z,1083,14,2,2109.699999988079,310652.89999997616,8023,VNB,A,13
12,test,4,0.0,1-Back,1,m,Mon Aug 04 2025 15:14:42 GMT-0500 (Central Daylight Time),314661.89999997616,071_y_f_h_a.png,I,m,879,15,2,1892.699999988079,312769.1999999881,8023,VNB,A,14
13,test,4,1.0,1-Back,1,z,Mon Aug 04 2025 15:14:42 GMT-0500 (Central Daylight Time),316494.1999999881,165_m_m_h_a.png,I,z,812,16,2,1825.800000011921,314668.39999997616,8023,VNB,A,15
14,test,4,0.0,1-Back,1,m,Mon Aug 04 2025 15:14:42 GMT-0500 (Central Daylight Time),318860.59999996424,039_o_m_n_a.png,I,m,1347,17,2,2359.599999964237,316501.0,8023,VNB,A,16
14,test,4,1.0,1-Back,0,z,Mon Aug 04 2025 15:14:42 GMT-0500 (Central Daylight Time),321509.7999999523,109_y_m_n_a.png,I,m,1629,18,2,2642.5,318867.2999999523,8023,VNB,A,17
0,test,5,1.0,1-Back,,,Mon Aug 04 2025 15:14:42 GMT-0500 (Central Daylight Time),321509.7999999523,039_o_m_n_a.png,I,space,3404,1,2,2642.5,318867.2999999523,8023,VNB,A,0
1,test,5,1.0,1-Back,1,m,Mon Aug 04 2025 15:14:42 GMT-0500 (Central Daylight Time),328874.09999996424,124_o_f_h_a.png,I,m,908,2,2,1926.0,326948.09999996424,8023,VNB,A,1
2,test,5,0.0,1-Back,1,m,Mon Aug 04 2025 15:14:42 GMT-0500 (Central Daylight Time),331539.59999996424,109_y_m_d_a.png,I,m,1647,3,2,2659.0,328880.59999996424,8023,VNB,A,2
3,test,5,0.0,1-Back,1,z,Mon Aug 04 2025 15:14:42 GMT-0500 (Central Daylight Time),333322.7999999523,039_o_m_d_a.png,I,z,766,4,2,1776.199999988079,331546.59999996424,8023,VNB,A,3
4,test,5,0.0,1-Back,1,m,Mon Aug 04 2025 15:14:42 GMT-0500 (Central Daylight Time),335838.5,139_m_f_h_a.png,I,m,1487,5,2,2508.900000035763,333329.59999996424,8023,VNB,A,4
5,test,5,0.0,1-Back,1,m,Mon Aug 04 2025 15:14:42 GMT-0500 (Central Daylight Time),338554.5,071_y_f_n_a.png,I,m,1683,6,2,2709.2000000476837,335845.2999999523,8023,VNB,A,5
6,test,5,1.0,1-Back,1,z,Mon Aug 04 2025 15:14:42 GMT-0500 (Central Daylight Time),340403.59999996424,124_o_f_n_a.png,I,z,831,7,2,1842.300000011921,338561.2999999523,8023,VNB,A,6
7,test,5,0.0,1-Back,1,m,Mon Aug 04 2025 15:14:42 GMT-0500 (Central Daylight Time),342419.6999999881,139_m_f_d_a.png,I,m,998,8,2,2009.5,340410.1999999881,8023,VNB,A,7
8,test,5,0.0,1-Back,1,m,Mon Aug 04 2025 15:14:42 GMT-0500 (Central Daylight Time),344635.89999997616,109_y_m_h_a.png,I,m,1197,9,2,2210.100000023842,342425.7999999523,8023,VNB,A,8
8,test,5,0.0,1-Back,0,m,Mon Aug 04 2025 15:14:42 GMT-0500 (Central Daylight Time),347761.7999999523,071_y_f_d_a.png,I,None,2110,10,2,3119.199999988079,344642.59999996424,8023,VNB,A,9
9,test,5,0.0,1-Back,1,m,Mon Aug 04 2025 15:14:42 GMT-0500 (Central Daylight Time),350084.09999996424,165_m_m_n_a.png,I,m,1289,11,2,2315.399999976158,347768.6999999881,8023,VNB,A,10
10,test,5,1.0,1-Back,1,z,Mon Aug 04 2025 15:14:42 GMT-0500 (Central Daylight Time),352083.1999999881,139_m_f_n_a.png,I,z,982,12,2,1992.800000011921,350090.39999997616,8023,VNB,A,11
11,test,5,0.0,1-Back,1,m,Mon Aug 04 2025 15:14:42 GMT-0500 (Central Daylight Time),354632.5,039_o_m_h_a.png,I,m,1518,13,2,2543.0,352089.5,8023,VNB,A,12
12,test,5,0.0,1-Back,1,z,Mon Aug 04 2025 15:14:42 GMT-0500 (Central Daylight Time),356415.5,165_m_m_h_a.png,I,z,753,14,2,1776.800000011921,354638.6999999881,8023,VNB,A,13
13,test,5,1.0,1-Back,1,m,Mon Aug 04 2025 15:14:42 GMT-0500 (Central Daylight Time),358548.1999999881,124_o_f_d_a.png,I,m,1114,15,2,2126.5,356421.6999999881,8023,VNB,A,14
14,test,5,0.0,1-Back,1,m,Mon Aug 04 2025 15:14:42 GMT-0500 (Central Daylight Time),360397.59999996424,109_y_m_n_a.png,I,m,821,16,2,1843.300000011921,358554.2999999523,8023,VNB,A,15
15,test,5,0.0,1-Back,1,m,Mon Aug 04 2025 15:14:42 GMT-0500 (Central Daylight Time),362546.7999999523,071_y_f_h_a.png,I,m,1124,17,2,2142.2999999523163,360404.5,8023,VNB,A,16
15,test,5,0.0,1-Back,0,m,Mon Aug 04 2025 15:14:42 GMT-0500 (Central Daylight Time),365179.2999999523,165_m_m_d_a.png,I,z,1607,18,2,2626.0,362553.2999999523,8023,VNB,A,17
0,prac,1,0.0,2-Back,,,Mon Aug 04 2025 15:14:42 GMT-0500 (Central Daylight Time),365179.2999999523,139_m_f_n_a.png,I,space,5405,1,2,2626.0,362553.2999999523,8023,VNB,A,0
0,prac,1,0.0,2-Back,,,Mon Aug 04 2025 15:14:42 GMT-0500 (Central Daylight Time),365179.2999999523,124_o_f_h_a.png,I,space,5405,2,2,2626.0,362553.2999999523,8023,VNB,A,0
1,prac,1,0.0,2-Back,1,m,Mon Aug 04 2025 15:14:42 GMT-0500 (Central Daylight Time),474161.7999999523,039_o_m_d_a.png,I,m,1283,3,2,2075.199999988079,472086.59999996424,8023,VNB,A,1
2,prac,1,1.0,2-Back,1,z,Mon Aug 04 2025 15:14:42 GMT-0500 (Central Daylight Time),475878.0,165_m_m_h_a.png,I,z,910,4,2,1708.6000000238419,474169.39999997616,8023,VNB,A,2
2,prac,1,0.0,2-Back,0,m,Mon Aug 04 2025 15:14:42 GMT-0500 (Central Daylight Time),478227.39999997616,071_y_f_n_a.png,I,z,1538,5,2,2341.699999988079,475885.6999999881,8023,VNB,A,3
2,prac,1,1.0,2-Back,0,z,Mon Aug 04 2025 15:14:42 GMT-0500 (Central Daylight Time),480793.09999996424,039_o_m_h_a.png,I,m,1752,6,2,2558.5,478234.59999996424,8023,VNB,A,4
2,prac,1,1.0,2-Back,0,z,Mon Aug 04 2025 15:14:42 GMT-0500 (Central Daylight Time),483608.89999997616,109_y_m_n_a.png,I,None,2010,7,2,2808.300000011921,480800.59999996424,8023,VNB,A,5
2,prac,1,0.0,2-Back,0,m,Mon Aug 04 2025 15:14:42 GMT-0500 (Central Daylight Time),486424.7999999523,139_m_f_d_a.png,I,None,2016,8,2,2808.599999964237,483616.1999999881,8023,VNB,A,6
2,prac,1,0.0,2-Back,0,m,Mon Aug 04 2025 15:14:42 GMT-0500 (Central Daylight Time),488257.39999997616,124_o_f_d_a.png,I,z,1003,9,2,1825.0,486432.39999997616,8023,VNB,A,7
3,prac,1,0.0,2-Back,1,m,Mon Aug 04 2025 15:14:42 GMT-0500 (Central Daylight Time),490556.5,165_m_m_h_a.png,I,m,1521,10,2,2291.400000035763,488265.09999996424,8023,VNB,A,8
4,prac,1,1.0,2-Back,1,z,Mon Aug 04 2025 15:14:42 GMT-0500 (Central Daylight Time),492822.59999996424,071_y_f_d_a.png,I,z,1462,11,2,2258.800000011921,490563.7999999523,8023,VNB,A,9
4,prac,1,0.0,2-Back,0,m,Mon Aug 04 2025 15:14:42 GMT-0500 (Central Daylight Time),495621.7999999523,039_o_m_n_a.png,I,None,2001,12,2,2791.599999964237,492830.1999999881,8023,VNB,A,10
0,prac,2,0.0,2-Back,,,Mon Aug 04 2025 15:14:42 GMT-0500 (Central Daylight Time),495621.7999999523,139_m_f_n_a.png,I,a,18496,1,2,2791.599999964237,492830.1999999881,8023,VNB,A,0
0,prac,2,0.0,2-Back,,,Mon Aug 04 2025 15:14:42 GMT-0500 (Central Daylight Time),495621.7999999523,124_o_f_h_a.png,I,a,18496,2,2,2791.599999964237,492830.1999999881,8023,VNB,A,0
0,prac,2,0.0,2-Back,0,m,Mon Aug 04 2025 15:14:42 GMT-0500 (Central Daylight Time),522030.0,039_o_m_d_a.png,I,None,2002,3,2,2791.100000023842,519238.89999997616,8023,VNB,A,1
0,prac,2,1.0,2-Back,0,z,Mon Aug 04 2025 15:14:42 GMT-0500 (Central Daylight Time),524812.5,165_m_m_h_a.png,I,None,2008,4,2,2774.800000011921,522037.6999999881,8023,VNB,A,2
0,prac,2,0.0,2-Back,0,m,Mon Aug 04 2025 15:14:42 GMT-0500 (Central Daylight Time),527628.2999999523,071_y_f_n_a.png,I,None,2015,5,2,2807.599999964237,524820.6999999881,8023,VNB,A,3
0,prac,2,1.0,2-Back,0,z,Mon Aug 04 2025 15:14:42 GMT-0500 (Central Daylight Time),530445.2999999523,039_o_m_h_a.png,I,None,2010,6,2,2809.2999999523163,527636.0,8023,VNB,A,4
1,prac,2,1.0,2-Back,1,z,Mon Aug 04 2025 15:14:42 GMT-0500 (Central Daylight Time),532260.1999999881,109_y_m_n_a.png,I,z,1005,7,2,1806.4000000357628,530453.7999999523,8023,VNB,A,5
1,prac,2,0.0,2-Back,0,m,Mon Aug 04 2025 15:14:42 GMT-0500 (Central Daylight Time),535075.8999999762,139_m_f_d_a.png,I,None,2016,8,2,2808.100000023842,532267.7999999523,8023,VNB,A,6
1,prac,2,0.0,2-Back,0,m,Mon Aug 04 2025 15:14:42 GMT-0500 (Central Daylight Time),537025.3999999762,124_o_f_d_a.png,I,z,1128,9,2,1941.800000011921,535083.5999999642,8023,VNB,A,7
2,prac,2,0.0,2-Back,1,m,Mon Aug 04 2025 15:14:42 GMT-0500 (Central Daylight Time),539474.3999999762,165_m_m_h_a.png,I,m,1666,10,2,2441.5,537032.8999999762,8023,VNB,A,8
2,prac,2,1.0,2-Back,0,z,Mon Aug 04 2025 15:14:42 GMT-0500 (Central Daylight Time),542290.2999999523,071_y_f_d_a.png,I,None,2016,11,2,2808.0,539482.2999999523,8023,VNB,A,9
2,prac,2,0.0,2-Back,0,m,Mon Aug 04 2025 15:14:42 GMT-0500 (Central Daylight Time),545089.5,039_o_m_n_a.png,I,None,2001,12,2,2791.800000011921,542297.6999999881,8023,VNB,A,10
0,test,1,0.0,2-Back,,,Mon Aug 04 2025 15:14:42 GMT-0500 (Central Daylight Time),545089.5,109_y_m_h_a.png,I,space,44182,1,2,2791.800000011921,542297.6999999881,8023,VNB,A,0
0,test,1,0.0,2-Back,,,Mon Aug 04 2025 15:14:42 GMT-0500 (Central Daylight Time),545089.5,124_o_f_n_a.png,I,space,44182,2,2,2791.800000011921,542297.6999999881,8023,VNB,A,0
1,test,1,0.0,2-Back,1,z,Mon Aug 04 2025 15:14:42 GMT-0500 (Central Daylight Time),604703.7999999523,039_o_m_h_a.png,I,z,719,3,2,1742.5999999642372,602961.1999999881,8023,VNB,A,1
2,test,1,0.0,2-Back,1,m,Mon Aug 04 2025 15:14:42 GMT-0500 (Central Daylight Time),606768.0,139_m_f_d_a.png,I,m,1047,4,2,2057.0,604711.0,8023,VNB,A,2
3,test,1,1.0,2-Back,1,m,Mon Aug 04 2025 15:14:42 GMT-0500 (Central Daylight Time),609286.0,109_y_m_n_a.png,I,m,1495,5,2,2511.400000035763,606774.5999999642,8023,VNB,A,3
3,test,1,0.0,2-Back,0,z,Mon Aug 04 2025 15:14:42 GMT-0500 (Central Daylight Time),611801.7999999523,071_y_f_d_a.png,I,m,1492,6,2,2508.899999976158,609292.8999999762,8023,VNB,A,4
3,test,1,0.0,2-Back,0,m,Mon Aug 04 2025 15:14:42 GMT-0500 (Central Daylight Time),613834.2999999523,165_m_m_h_a.png,I,z,1016,7,2,2025.8999999761581,611808.3999999762,8023,VNB,A,5
3,test,1,1.0,2-Back,0,m,Mon Aug 04 2025 15:14:42 GMT-0500 (Central Daylight Time),616266.8999999762,071_y_f_n_a.png,I,z,1415,8,2,2425.699999988079,613841.1999999881,8023,VNB,A,6
3,test,1,0.0,2-Back,0,z,Mon Aug 04 2025 15:14:42 GMT-0500 (Central Daylight Time),618916.1999999881,124_o_f_h_a.png,I,m,1622,9,2,2642.300000011921,616273.8999999762,8023,VNB,A,7
3,test,1,0.0,2-Back,0,m,Mon Aug 04 2025 15:14:42 GMT-0500 (Central Daylight Time),621948.5999999642,039_o_m_d_a.png,I,None,2015,10,2,3025.899999976158,618922.6999999881,8023,VNB,A,8
3,test,1,1.0,2-Back,0,m,Mon Aug 04 2025 15:14:42 GMT-0500 (Central Daylight Time),624981.0999999642,165_m_m_d_a.png,I,None,2016,11,2,3025.599999964237,621955.5,8023,VNB,A,9
3,test,1,0.0,2-Back,0,m,Mon Aug 04 2025 15:14:42 GMT-0500 (Central Daylight Time),628013.2999999523,139_m_f_n_a.png,I,None,2016,12,2,3025.599999964237,624987.6999999881,8023,VNB,A,10
3,test,1,0.0,2-Back,0,m,Mon Aug 04 2025 15:14:42 GMT-0500 (Central Daylight Time),630196.3999999762,071_y_f_h_a.png,I,z,1156,13,2,2176.0,628020.3999999762,8023,VNB,A,11
3,test,1,0.0,2-Back,0,z,Mon Aug 04 2025 15:14:42 GMT-0500 (Central Daylight Time),633228.3999999762,165_m_m_n_a.png,I,None,2015,14,2,3025.300000011921,630203.0999999642,8023,VNB,A,12
3,test,1,0.0,2-Back,0,m,Mon Aug 04 2025 15:14:42 GMT-0500 (Central Daylight Time),635661.0999999642,109_y_m_d_a.png,I,z,1405,15,2,2425.800000011921,633235.2999999523,8023,VNB,A,13
3,test,1,1.0,2-Back,0,m,Mon Aug 04 2025 15:14:42 GMT-0500 (Central Daylight Time),637993.8999999762,139_m_f_h_a.png,I,z,1300,16,2,2326.199999988079,635667.6999999881,8023,VNB,A,14
3,test,1,0.0,2-Back,0,z,Mon Aug 04 2025 15:14:42 GMT-0500 (Central Daylight Time),640842.6999999881,124_o_f_d_a.png,I,m,1824,17,2,2842.0,638000.6999999881,8023,VNB,A,15
3,test,1,0.0,2-Back,0,m,Mon Aug 04 2025 15:14:42 GMT-0500 (Central Daylight Time),643808.3999999762,039_o_m_n_a.png,I,z,1935,18,2,2958.800000011921,640849.5999999642,8023,VNB,A,16
0,test,2,0.0,2-Back,,,Mon Aug 04 2025 15:14:42 GMT-0500 (Central Daylight Time),643808.3999999762,165_m_m_h_a.png,I,space,8233,1,2,2958.800000011921,640849.5999999642,8023,VNB,A,0
0,test,2,0.0,2-Back,,,Mon Aug 04 2025 15:14:42 GMT-0500 (Central Daylight Time),643808.3999999762,071_y_f_n_a.png,I,space,8233,2,2,2958.800000011921,640849.5999999642,8023,VNB,A,0
1,test,2,1.0,2-Back,1,z,Mon Aug 04 2025 15:14:42 GMT-0500 (Central Daylight Time),658887.1999999881,124_o_f_h_a.png,I,z,704,3,2,1725.699999988079,657161.5,8023,VNB,A,1
2,test,2,0.0,2-Back,1,m,Mon Aug 04 2025 15:14:42 GMT-0500 (Central Daylight Time),661069.6999999881,039_o_m_d_a.png,I,m,1154,4,2,2175.800000011921,658893.8999999762,8023,VNB,A,2
3,test,2,0.0,2-Back,1,m,Mon Aug 04 2025 15:14:42 GMT-0500 (Central Daylight Time),664036.3999999762,139_m_f_d_a.png,I,m,1948,5,2,2959.100000023842,661077.2999999523,8023,VNB,A,3
3,test,2,0.0,2-Back,0,m,Mon Aug 04 2025 15:14:42 GMT-0500 (Central Daylight Time),666018.1999999881,109_y_m_h_a.png,I,z,966,6,2,1974.5,664043.6999999881,8023,VNB,A,4
3,test,2,0.0,2-Back,0,m,Mon Aug 04 2025 15:14:42 GMT-0500 (Central Daylight Time),668567.2999999523,124_o_f_n_a.png,I,z,1519,7,2,2542.699999988079,666024.5999999642,8023,VNB,A,5
3,test,2,1.0,2-Back,0,z,Mon Aug 04 2025 15:14:42 GMT-0500 (Central Daylight Time),670983.2999999523,039_o_m_h_a.png,I,m,1394,8,2,2409.2999999523163,668574.0,8023,VNB,A,6
3,test,2,0.0,2-Back,0,m,Mon Aug 04 2025 15:14:42 GMT-0500 (Central Daylight Time),674015.6999999881,071_y_f_d_a.png,I,None,2015,9,2,3026.100000023842,670989.5999999642,8023,VNB,A,7
3,test,2,0.0,2-Back,0,m,Mon Aug 04 2025 15:14:42 GMT-0500 (Central Daylight Time),676831.2999999523,109_y_m_d_a.png,I,z,1794,10,2,2809.099999964237,674022.1999999881,8023,VNB,A,8
4,test,2,0.0,2-Back,1,m,Mon Aug 04 2025 15:14:42 GMT-0500 (Central Daylight Time),679113.8999999762,165_m_m_n_a.png,I,m,1258,11,2,2275.899999976158,676838.0,8023,VNB,A,9
4,test,2,0.0,2-Back,0,m,Mon Aug 04 2025 15:14:42 GMT-0500 (Central Daylight Time),681746.3999999762,139_m_f_h_a.png,I,z,1607,12,2,2625.5,679120.8999999762,8023,VNB,A,10
4,test,2,1.0,2-Back,0,z,Mon Aug 04 2025 15:14:42 GMT-0500 (Central Daylight Time),684479.0,039_o_m_n_a.png,I,m,1703,13,2,2725.7000000476837,681753.2999999523,8023,VNB,A,11
5,test,2,0.0,2-Back,1,m,Mon Aug 04 2025 15:14:42 GMT-0500 (Central Daylight Time),686378.5999999642,124_o_f_d_a.png,I,m,881,14,2,1892.8999999761581,684485.6999999881,8023,VNB,A,12
5,test,2,0.0,2-Back,0,m,Mon Aug 04 2025 15:14:42 GMT-0500 (Central Daylight Time),689177.5999999642,071_y_f_h_a.png,I,z,1767,15,2,2792.399999976158,686385.1999999881,8023,VNB,A,13
5,test,2,0.0,2-Back,0,z,Mon Aug 04 2025 15:14:42 GMT-0500 (Central Daylight Time),692010.7999999523,165_m_m_d_a.png,I,m,1800,16,2,2826.0,689184.7999999523,8023,VNB,A,14
5,test,2,0.0,2-Back,0,m,Mon Aug 04 2025 15:14:42 GMT-0500 (Central Daylight Time),694709.0999999642,109_y_m_n_a.png,I,z,1671,17,2,2691.300000011921,692017.7999999523,8023,VNB,A,15
5,test,2,1.0,2-Back,0,m,Mon Aug 04 2025 15:14:42 GMT-0500 (Central Daylight Time),697741.6999999881,139_m_f_n_a.png,I,None,2016,18,2,3026.0,694715.6999999881,8023,VNB,A,16
0,test,3,1.0,2-Back,,,Mon Aug 04 2025 15:14:42 GMT-0500 (Central Daylight Time),697741.6999999881,039_o_m_n_a.png,I,space,4364,1,2,3026.0,694715.6999999881,8023,VNB,A,0
0,test,3,1.0,2-Back,,,Mon Aug 04 2025 15:14:42 GMT-0500 (Central Daylight Time),697741.6999999881,124_o_f_d_a.png,I,space,4364,2,2,3026.0,694715.6999999881,8023,VNB,A,0
1,test,3,0.0,2-Back,1,m,Mon Aug 04 2025 15:14:42 GMT-0500 (Central Daylight Time),709088.0,071_y_f_h_a.png,I,m,902,3,2,1925.9000000357628,707162.0999999642,8023,VNB,A,1
2,test,3,0.0,2-Back,1,z,Mon Aug 04 2025 15:14:42 GMT-0500 (Central Daylight Time),711020.5999999642,139_m_f_d_a.png,I,z,913,4,2,1925.699999988079,709094.8999999762,8023,VNB,A,2
3,test,3,1.0,2-Back,1,m,Mon Aug 04 2025 15:14:42 GMT-0500 (Central Daylight Time),713319.7999999523,109_y_m_n_a.png,I,m,1269,5,2,2292.199999988079,711027.5999999642,8023,VNB,A,3
3,test,3,0.0,2-Back,0,m,Mon Aug 04 2025 15:14:42 GMT-0500 (Central Daylight Time),715386.0999999642,039_o_m_h_a.png,I,z,1041,6,2,2059.699999988079,713326.3999999762,8023,VNB,A,4
3,test,3,0.0,2-Back,0,z,Mon Aug 04 2025 15:14:42 GMT-0500 (Central Daylight Time),718418.3999999762,071_y_f_n_a.png,I,None,2015,7,2,3025.5,715392.8999999762,8023,VNB,A,5
4,test,3,1.0,2-Back,1,m,Mon Aug 04 2025 15:14:42 GMT-0500 (Central Daylight Time),720867.6999999881,165_m_m_d_a.png,I,m,1423,8,2,2443.0,718424.6999999881,8023,VNB,A,6
5,test,3,0.0,2-Back,1,m,Mon Aug 04 2025 15:14:42 GMT-0500 (Central Daylight Time),722833.5,109_y_m_d_a.png,I,m,934,9,2,1959.2000000476837,720874.2999999523,8023,VNB,A,7
6,test,3,0.0,2-Back,1,m,Mon Aug 04 2025 15:14:42 GMT-0500 (Central Daylight Time),725199.5999999642,124_o_f_h_a.png,I,m,1336,10,2,2358.599999964237,722841.0,8023,VNB,A,8
7,test,3,1.0,2-Back,1,m,Mon Aug 04 2025 15:14:42 GMT-0500 (Central Daylight Time),728098.5999999642,139_m_f_n_a.png,I,m,1867,11,2,2892.5,725206.0999999642,8023,VNB,A,9
8,test,3,1.0,2-Back,1,z,Mon Aug 04 2025 15:14:42 GMT-0500 (Central Daylight Time),729998.1999999881,165_m_m_h_a.png,I,z,879,12,2,1892.800000011921,728105.3999999762,8023,VNB,A,10
9,test,3,0.0,2-Back,1,m,Mon Aug 04 2025 15:14:42 GMT-0500 (Central Daylight Time),732763.7999999523,071_y_f_d_a.png,I,m,1747,13,2,2758.699999988079,730005.0999999642,8023,VNB,A,11
9,test,3,0.0,2-Back,0,m,Mon Aug 04 2025 15:14:42 GMT-0500 (Central Daylight Time),735796.3999999762,124_o_f_n_a.png,I,None,2015,14,2,3025.600000023842,732770.7999999523,8023,VNB,A,12
10,test,3,0.0,2-Back,1,z,Mon Aug 04 2025 15:14:42 GMT-0500 (Central Daylight Time),738328.3999999762,039_o_m_d_a.png,I,z,1501,15,2,2525.199999988079,735803.1999999881,8023,VNB,A,13
11,test,3,1.0,2-Back,1,m,Mon Aug 04 2025 15:14:42 GMT-0500 (Central Daylight Time),740594.6999999881,139_m_f_h_a.png,I,m,1241,16,2,2259.0,738335.6999999881,8023,VNB,A,14
11,test,3,0.0,2-Back,0,m,Mon Aug 04 2025 15:14:42 GMT-0500 (Central Daylight Time),742594.2999999523,165_m_m_n_a.png,I,z,967,17,2,1992.8999999761581,740601.3999999762,8023,VNB,A,15
11,test,3,0.0,2-Back,0,z,Mon Aug 04 2025 15:14:42 GMT-0500 (Central Daylight Time),745593.1999999881,109_y_m_h_a.png,I,m,1975,18,2,2991.300000011921,742601.8999999762,8023,VNB,A,16
0,test,4,0.0,2-Back,,,Mon Aug 04 2025 15:14:42 GMT-0500 (Central Daylight Time),745593.1999999881,139_m_f_n_a.png,I,space,2392,1,2,2991.300000011921,742601.8999999762,8023,VNB,A,0
0,test,4,0.0,2-Back,,,Mon Aug 04 2025 15:14:42 GMT-0500 (Central Daylight Time),745593.1999999881,039_o_m_n_a.png,I,space,2392,2,2,2991.300000011921,742601.8999999762,8023,VNB,A,0
1,test,4,1.0,2-Back,1,m,Mon Aug 04 2025 15:14:42 GMT-0500 (Central Daylight Time),755073.5,109_y_m_h_a.png,I,m,992,3,2,2009.5,753064.0,8023,VNB,A,1
2,test,4,1.0,2-Back,1,m,Mon Aug 04 2025 15:14:42 GMT-0500 (Central Daylight Time),757922.5999999642,124_o_f_d_a.png,I,m,1824,4,2,2842.099999964237,755080.5,8023,VNB,A,2
3,test,4,0.0,2-Back,1,z,Mon Aug 04 2025 15:14:42 GMT-0500 (Central Daylight Time),759772.1999999881,039_o_m_h_a.png,I,z,831,5,2,1842.9000000357628,757929.2999999523,8023,VNB,A,3
3,test,4,0.0,2-Back,0,m,Mon Aug 04 2025 15:14:42 GMT-0500 (Central Daylight Time),762204.5999999642,165_m_m_n_a.png,I,z,1413,6,2,2425.5,759779.0999999642,8023,VNB,A,4
4,test,4,0.0,2-Back,1,m,Mon Aug 04 2025 15:14:42 GMT-0500 (Central Daylight Time),764370.5999999642,139_m_f_d_a.png,I,m,1149,7,2,2159.199999988079,762211.3999999762,8023,VNB,A,5
5,test,4,0.0,2-Back,1,z,Mon Aug 04 2025 15:14:42 GMT-0500 (Central Daylight Time),766386.5999999642,071_y_f_n_a.png,I,z,991,8,2,2009.300000011921,764377.2999999523,8023,VNB,A,6
6,test,4,1.0,2-Back,1,m,Mon Aug 04 2025 15:14:42 GMT-0500 (Central Daylight Time),768919.2999999523,124_o_f_h_a.png,I,m,1511,9,2,2526.0,766393.2999999523,8023,VNB,A,7
6,test,4,0.0,2-Back,0,m,Mon Aug 04 2025 15:14:42 GMT-0500 (Central Daylight Time),771951.1999999881,165_m_m_h_a.png,I,None,2014,10,2,3025.100000023842,768926.0999999642,8023,VNB,A,8
7,test,4,0.0,2-Back,1,m,Mon Aug 04 2025 15:14:42 GMT-0500 (Central Daylight Time),774034.1999999881,071_y_f_d_a.png,I,m,1058,11,2,2076.699999988079,771957.5,8023,VNB,A,9
7,test,4,0.0,2-Back,0,m,Mon Aug 04 2025 15:14:42 GMT-0500 (Central Daylight Time),776333.5,109_y_m_n_a.png,I,z,1271,12,2,2292.5,774041.0,8023,VNB,A,10
7,test,4,0.0,2-Back,0,z,Mon Aug 04 2025 15:14:42 GMT-0500 (Central Daylight Time),778666.1999999881,039_o_m_d_a.png,I,m,1308,13,2,2325.900000035763,776340.2999999523,8023,VNB,A,11
7,test,4,1.0,2-Back,0,m,Mon Aug 04 2025 15:14:42 GMT-0500 (Central Daylight Time),780615.5,139_m_f_h_a.png,I,z,927,14,2,1942.6000000238419,778672.8999999762,8023,VNB,A,12
8,test,4,1.0,2-Back,1,m,Mon Aug 04 2025 15:14:42 GMT-0500 (Central Daylight Time),782864.6999999881,071_y_f_h_a.png,I,m,1218,15,2,2242.300000011921,780622.3999999762,8023,VNB,A,13
8,test,4,0.0,2-Back,0,m,Mon Aug 04 2025 15:14:42 GMT-0500 (Central Daylight Time),785497.1999999881,124_o_f_n_a.png,I,z,1609,16,2,2625.199999988079,782872.0,8023,VNB,A,14
8,test,4,0.0,2-Back,0,m,Mon Aug 04 2025 15:14:42 GMT-0500 (Central Daylight Time),787830.0999999642,109_y_m_d_a.png,I,z,1312,17,2,2326.0,785504.0999999642,8023,VNB,A,15
9,test,4,1.0,2-Back,1,m,Mon Aug 04 2025 15:14:42 GMT-0500 (Central Daylight Time),790562.2999999523,165_m_m_d_a.png,I,m,1700,18,2,2725.699999988079,787836.5999999642,8023,VNB,A,16
0,test,5,1.0,2-Back,,,Mon Aug 04 2025 15:14:42 GMT-0500 (Central Daylight Time),790562.2999999523,071_y_f_d_a.png,I,space,2983,1,2,2725.699999988079,787836.5999999642,8023,VNB,A,0
0,test,5,1.0,2-Back,,,Mon Aug 04 2025 15:14:42 GMT-0500 (Central Daylight Time),790562.2999999523,124_o_f_h_a.png,I,space,2983,2,2,2725.699999988079,787836.5999999642,8023,VNB,A,0
1,test,5,1.0,2-Back,1,z,Mon Aug 04 2025 15:14:42 GMT-0500 (Central Daylight Time),801392.1999999881,039_o_m_d_a.png,I,z,1726,3,2,2743.0,798649.1999999881,8023,VNB,A,1
2,test,5,1.0,2-Back,1,m,Mon Aug 04 2025 15:14:42 GMT-0500 (Central Daylight Time),803391.5999999642,139_m_f_n_a.png,I,m,969,4,2,1991.0999999642372,801400.5,8023,VNB,A,2
3,test,5,0.0,2-Back,1,m,Mon Aug 04 2025 15:14:42 GMT-0500 (Central Daylight Time),805924.2999999523,165_m_m_h_a.png,I,m,1506,5,2,2525.7999999523163,803398.5,8023,VNB,A,3
4,test,5,0.0,2-Back,1,z,Mon Aug 04 2025 15:14:42 GMT-0500 (Central Daylight Time),808390.0999999642,071_y_f_n_a.png,I,z,1445,6,2,2458.699999988079,805931.3999999762,8023,VNB,A,4
5,test,5,0.0,2-Back,1,m,Mon Aug 04 2025 15:14:42 GMT-0500 (Central Daylight Time),810256.2999999523,124_o_f_d_a.png,I,m,843,7,2,1859.5999999642372,808396.6999999881,8023,VNB,A,5
6,test,5,0.0,2-Back,1,m,Mon Aug 04 2025 15:14:42 GMT-0500 (Central Daylight Time),812688.6999999881,039_o_m_h_a.png,I,m,1409,8,2,2425.699999988079,810263.0,8023,VNB,A,6
7,test,5,1.0,2-Back,1,z,Mon Aug 04 2025 15:14:42 GMT-0500 (Central Daylight Time),815188.0,139_m_f_d_a.png,I,z,1473,9,2,2492.7000000476837,812695.2999999523,8023,VNB,A,7
7,test,5,0.0,2-Back,0,m,Mon Aug 04 2025 15:14:42 GMT-0500 (Central Daylight Time),817887.3999999762,109_y_m_n_a.png,I,z,1677,10,2,2692.899999976158,815194.5,8023,VNB,A,8
8,test,5,0.0,2-Back,1,m,Mon Aug 04 2025 15:14:42 GMT-0500 (Central Daylight Time),820219.5999999642,165_m_m_n_a.png,I,m,1240,11,2,2325.099999964237,817894.5,8023,VNB,A,9
9,test,5,0.0,2-Back,1,m,Mon Aug 04 2025 15:14:42 GMT-0500 (Central Daylight Time),822935.3999999762,071_y_f_h_a.png,I,m,1686,12,2,2708.899999976158,820226.5,8023,VNB,A,10
9,test,5,0.0,2-Back,0,m,Mon Aug 04 2025 15:14:42 GMT-0500 (Central Daylight Time),825201.5999999642,109_y_m_d_a.png,I,z,1242,13,2,2259.300000011921,822942.2999999523,8023,VNB,A,11
10,test,5,1.0,2-Back,1,z,Mon Aug 04 2025 15:14:42 GMT-0500 (Central Daylight Time),828050.5999999642,139_m_f_h_a.png,I,z,1832,14,2,2842.300000011921,825208.2999999523,8023,VNB,A,12
11,test,5,0.0,2-Back,1,m,Mon Aug 04 2025 15:14:42 GMT-0500 (Central Daylight Time),830733.0,039_o_m_n_a.png,I,m,1655,15,2,2675.5,828057.5,8023,VNB,A,13
12,test,5,0.0,2-Back,1,m,Mon Aug 04 2025 15:14:42 GMT-0500 (Central Daylight Time),833149.0,165_m_m_d_a.png,I,m,1396,16,2,2408.900000035763,830740.0999999642,8023,VNB,A,14
13,test,5,0.0,2-Back,1,z,Mon Aug 04 2025 15:14:42 GMT-0500 (Central Daylight Time),835415.8999999762,124_o_f_n_a.png,I,z,1237,17,2,2260.199999988079,833155.6999999881,8023,VNB,A,15
14,test,5,1.0,2-Back,1,m,Mon Aug 04 2025 15:14:42 GMT-0500 (Central Daylight Time),837980.6999999881,109_y_m_h_a.png,I,m,1539,18,2,2558.300000011921,835422.3999999762,8023,VNB,A,16
