acc_sum,block,block_c,condition,correct,correct_response,datetime,endtime,flanker,jitter,project,response,response_test_buffer_response,response_test_target_response,response_time,response_time_test_buffer_response,response_time_test_target_response,row_sel,session_number,start_end,starttime,subject_id,target,task,task_vers,time_test_buffer,time_test_buffer_response,time_test_constants,time_test_flanker,time_test_jitter,time_test_logger,time_test_target,time_test_target_response,time_test_variables,trial
1,prac,1,inc,1,z,Thu Nov 06 2025 16:30:14 GMT-0600 (Central Standard Time),88916.90000000596,film,900,O,z,,,872,,,14,1,3077.7000000029802,85839.20000000298,7235,hate,AF,C,,,,,,,,,,1
2,prac,1,con,1,z,Thu Nov 06 2025 16:30:14 GMT-0600 (Central Standard Time),91550.40000000596,elated,800,O,z,,,530,,,9,1,2629.7000000029802,88920.70000000298,7235,elated,AF,C,,,,,,,,,,2
3,prac,1,con,1,m,Thu Nov 06 2025 16:30:14 GMT-0600 (Central Standard Time),94232.40000000596,remote,1000,O,m,,,369,,,7,1,2678.9000000059605,91553.5,7235,remote,AF,C,,,,,,,,,,3
4,prac,1,inc,1,z,Thu Nov 06 2025 16:30:14 GMT-0600 (Central Standard Time),96981.0,rock,900,O,z,,,547,,,10,1,2743.5999999940395,94237.40000000596,7235,kind,AF,C,,,,,,,,,,4
5,prac,1,inc,1,m,Thu Nov 06 2025 16:30:14 GMT-0600 (Central Standard Time),99696.90000000596,kind,900,O,m,,,517,,,2,1,2712.4000000059605,96984.5,7235,rock,AF,C,,,,,,,,,,5
6,prac,1,con,1,m,Thu Nov 06 2025 16:30:14 GMT-0600 (Central Standard Time),102796.0,bell,1000,O,m,,,798,,,3,1,3095.2999999970198,99700.70000000298,7235,bell,AF,C,,,,,,,,,,6
7,prac,1,con,1,z,Thu Nov 06 2025 16:30:14 GMT-0600 (Central Standard Time),105494.79999999702,rage,1000,O,z,,,394,,,15,1,2695.0999999940395,102799.70000000298,7235,rage,AF,C,,,,,,,,,,7
8,prac,1,con,1,m,Thu Nov 06 2025 16:30:14 GMT-0600 (Central Standard Time),108177.60000000894,jacket,800,O,m,,,575,,,5,1,2679.1000000089407,105498.5,7235,jacket,AF,C,,,,,,,,,,8
9,prac,1,inc,1,z,Thu Nov 06 2025 16:30:14 GMT-0600 (Central Standard Time),111110.60000000894,window,1100,O,z,,,529,,,16,1,2929.4000000059605,108181.20000000298,7235,temper,AF,C,,,,,,,,,,9
10,prac,1,con,1,z,Thu Nov 06 2025 16:30:14 GMT-0600 (Central Standard Time),113659.5,brutal,800,O,z,,,431,,,13,1,2545.7999999970198,111113.70000000298,7235,brutal,AF,C,,,,,,,,,,10
11,prac,1,inc,1,m,Thu Nov 06 2025 16:30:14 GMT-0600 (Central Standard Time),116458.40000000596,hate,1100,O,m,,,392,,,4,1,2795.1000000089407,113663.29999999702,7235,film,AF,C,,,,,,,,,,11
12,prac,1,con,1,m,Thu Nov 06 2025 16:30:14 GMT-0600 (Central Standard Time),119255.90000000596,step,800,O,m,,,701,,,1,1,2793.2999999970198,116462.60000000894,7235,step,AF,C,,,,,,,,,,12
13,prac,1,inc,1,m,Thu Nov 06 2025 16:30:14 GMT-0600 (Central Standard Time),122290.40000000596,brutal,1100,O,m,,,626,,,8,1,3030.6000000089407,119259.79999999702,7235,window,AF,C,,,,,,,,,,13
14,prac,1,con,1,z,Thu Nov 06 2025 16:30:14 GMT-0600 (Central Standard Time),125055.79999999702,love,1000,O,z,,,455,,,11,1,2762.0,122293.79999999702,7235,love,AF,C,,,,,,,,,,14
15,prac,1,inc,1,m,Thu Nov 06 2025 16:30:14 GMT-0600 (Central Standard Time),127804.60000000894,elated,900,O,m,,,539,,,6,1,2745.6000000089407,125059.0,7235,napkin,AF,C,,,,,,,,,,15
15,prac,1,inc,0,z,Thu Nov 06 2025 16:30:14 GMT-0600 (Central Standard Time),130987.0,napkin,1100,O,m,,,767,,,12,1,3179.5999999940395,127807.40000000596,7235,friend,AF,C,,,,,,,,,,16
1,test,1,inc,1,z,Thu Nov 06 2025 16:30:14 GMT-0600 (Central Standard Time),139917.90000000596,window,1100,O,z,z,None,556,357.0,199.0,64,1,2179.9000000059605,137738.0,7235,temper,AF,C,132609,132609,130796,131909,130796,132976,132410,132410,132976,1
2,test,1,inc,1,z,Thu Nov 06 2025 16:30:14 GMT-0600 (Central Standard Time),141733.5,step,800,O,z,z,None,473,274.0,199.0,45,1,1812.5999999940395,139920.90000000596,7235,hate,AF,C,134508,134508,132979,133792,132979,134792,134309,134309,134792,2
3,test,1,inc,1,m,Thu Nov 06 2025 16:30:14 GMT-0600 (Central Standard Time),143832.90000000596,hate,1100,O,m,m,None,461,262.0,199.0,96,1,2096.2000000029802,141736.70000000298,7235,film,AF,C,136624,136624,134795,135908,134795,136891,136425,136425,136891,3
4,test,1,inc,1,z,Thu Nov 06 2025 16:30:14 GMT-0600 (Central Standard Time),145849.60000000894,jacket,800,O,z,z,None,668,468.0,200.0,61,1,2013.4000000059605,143836.20000000298,7235,temper,AF,C,138425,138425,136894,137708,136894,138908,138224,138224,138908,4
5,test,1,inc,1,m,Thu Nov 06 2025 16:30:14 GMT-0600 (Central Standard Time),147748.90000000596,rage,800,O,m,m,None,556,352.0,204.0,69,1,1896.2999999970198,145852.60000000894,7235,step,AF,C,140446,140446,138911,139724,138911,140807,140241,140241,140807,5
6,test,1,inc,1,m,Thu Nov 06 2025 16:30:14 GMT-0600 (Central Standard Time),149714.79999999702,rage,800,O,m,m,None,626,426.0,200.0,93,1,1963.0,147751.79999999702,7235,film,AF,C,142340,142340,140810,141623,140810,142773,142140,142140,142773,6
7,test,1,con,1,m,Thu Nov 06 2025 16:30:14 GMT-0600 (Central Standard Time),151780.60000000894,step,1100,O,m,m,None,424,225.0,199.0,68,1,2063.1000000089407,149717.5,7235,step,AF,C,144605,144605,142776,143889,142776,144839,144406,144406,144839,7
8,test,1,con,1,m,Thu Nov 06 2025 16:30:14 GMT-0600 (Central Standard Time),153797.29999999702,napkin,1000,O,m,m,None,465,266.0,199.0,107,1,2013.699999988079,151783.60000000894,7235,napkin,AF,C,146572,146572,144842,145855,144842,146855,146372,146372,146855,8
9,test,1,con,1,m,Thu Nov 06 2025 16:30:14 GMT-0600 (Central Standard Time),155663.0,remote,900,O,m,m,None,430,230.0,200.0,114,1,1863.0,153800.0,7235,remote,AF,C,148487,148488,146858,147771,146858,148721,148287,148287,148721,9
10,test,1,con,1,z,Thu Nov 06 2025 16:30:14 GMT-0600 (Central Standard Time),157462.20000000298,friend,900,O,z,z,None,355,156.0,199.0,26,1,1796.2999999970198,155665.90000000596,7235,friend,AF,C,150354,150354,148724,149638,148724,150520,150154,150154,150520,10
11,test,1,con,1,z,Thu Nov 06 2025 16:30:14 GMT-0600 (Central Standard Time),159244.20000000298,love,900,O,z,z,None,332,133.0,199.0,18,1,1778.9000000059605,157465.29999999702,7235,love,AF,C,152153,152153,150523,151437,150524,152302,151954,151954,152302,11
12,test,1,con,1,m,Thu Nov 06 2025 16:30:14 GMT-0600 (Central Standard Time),161243.5,film,1100,O,m,m,None,358,158.0,200.0,92,1,1996.0999999940395,159247.40000000596,7235,film,AF,C,154136,154136,152305,153419,152306,154302,153936,153936,154302,12
13,test,1,con,1,m,Thu Nov 06 2025 16:30:14 GMT-0600 (Central Standard Time),162943.70000000298,film,800,O,m,m,None,363,163.0,200.0,89,1,1697.2000000029802,161246.5,7235,film,AF,C,155835,155835,154305,155118,154305,156002,155635,155635,156002,13
14,test,1,con,1,z,Thu Nov 06 2025 16:30:14 GMT-0600 (Central Standard Time),164676.70000000298,elated,900,O,z,z,None,290,91.0,199.0,2,1,1730.2000000029802,162946.5,7235,elated,AF,C,157635,157635,156005,156918,156005,157735,157435,157435,157735,14
15,test,1,inc,1,z,Thu Nov 06 2025 16:30:14 GMT-0600 (Central Standard Time),166676.0,rock,900,O,z,z,None,566,367.0,199.0,22,1,1996.2999999970198,164679.70000000298,7235,love,AF,C,159367,159367,157738,158651,157738,159734,159168,159168,159734,15
16,test,1,inc,1,z,Thu Nov 06 2025 16:30:14 GMT-0600 (Central Standard Time),168758.70000000298,film,1100,O,z,z,None,447,248.0,199.0,16,1,2079.7999999970198,166678.90000000596,7235,kind,AF,C,161566,161566,159737,160851,159737,161817,161367,161367,161817,16
17,test,1,con,1,z,Thu Nov 06 2025 16:30:14 GMT-0600 (Central Standard Time),170730.10000000894,rage,1000,O,z,z,None,431,232.0,199.0,51,1,1968.300000011921,168761.79999999702,7235,rage,AF,C,163550,163550,161820,162833,161820,163788,163350,163350,163788,17
18,test,1,inc,1,m,Thu Nov 06 2025 16:30:14 GMT-0600 (Central Standard Time),172958.5,temper,1000,O,m,m,None,698,498.0,200.0,119,1,2222.3999999910593,170736.10000000894,7235,remote,AF,C,165516,165516,163794,164799,163794,166017,165316,165316,166017,18
19,test,1,con,1,z,Thu Nov 06 2025 16:30:14 GMT-0600 (Central Standard Time),174640.20000000298,hate,800,O,z,z,None,345,145.0,200.0,41,1,1677.9000000059605,172962.29999999702,7235,hate,AF,C,167549,167549,166020,166832,166021,167698,167349,167349,167698,19
20,test,1,con,1,m,Thu Nov 06 2025 16:30:14 GMT-0600 (Central Standard Time),176372.10000000894,remote,800,O,m,m,None,399,198.0,201.0,113,1,1729.1000000089407,174643.0,7235,remote,AF,C,169232,169232,167701,168514,167701,169430,169031,169031,169430,20
21,test,1,con,1,z,Thu Nov 06 2025 16:30:14 GMT-0600 (Central Standard Time),178354.70000000298,elated,800,O,z,z,None,634,430.0,204.0,1,1,1979.7000000029802,176375.0,7235,elated,AF,C,170967,170967,169433,170247,169433,171413,170763,170763,171413,21
22,test,1,con,1,m,Thu Nov 06 2025 16:30:14 GMT-0600 (Central Standard Time),180070.90000000596,napkin,800,O,m,m,None,379,179.0,200.0,105,1,1712.4000000059605,178358.5,7235,napkin,AF,C,172947,172947,171417,172230,171417,173129,172746,172746,173129,22
23,test,1,con,1,m,Thu Nov 06 2025 16:30:14 GMT-0600 (Central Standard Time),181987.29999999702,bell,1000,O,m,m,None,391,192.0,199.0,83,1,1912.7999999970198,180074.5,7235,bell,AF,C,174846,174846,173133,174146,173133,175045,174647,174647,175045,23
24,test,1,con,1,z,Thu Nov 06 2025 16:30:14 GMT-0600 (Central Standard Time),183887.0,kind,800,O,z,z,None,556,356.0,200.0,9,1,1896.5999999940395,181990.40000000596,7235,kind,AF,C,176578,176578,175048,175862,175049,176945,176378,176378,176945,24
25,test,1,con,1,m,Thu Nov 06 2025 16:30:14 GMT-0600 (Central Standard Time),185937.0,window,900,O,m,m,None,603,404.0,199.0,122,1,2047.2999999970198,183889.70000000298,7235,window,AF,C,178577,178578,176948,177861,176948,178995,178378,178378,178995,25
25,test,1,inc,0,m,Thu Nov 06 2025 16:30:14 GMT-0600 (Central Standard Time),188285.0,hate,1100,O,z,z,None,715,515.0,200.0,80,1,2345.2000000029802,185939.79999999702,7235,rock,AF,C,180827,180827,178998,180112,178998,181343,180627,180627,181343,26
26,test,1,con,1,z,Thu Nov 06 2025 16:30:14 GMT-0600 (Central Standard Time),190351.20000000298,brutal,900,O,z,z,None,620,405.0,215.0,34,1,2063.5999999940395,188287.60000000894,7235,brutal,AF,C,182993,182993,181346,182260,181346,183409,182778,182778,183409,27
27,test,1,inc,1,z,Thu Nov 06 2025 16:30:14 GMT-0600 (Central Standard Time),192551.0,film,1100,O,z,z,None,564,363.0,201.0,24,1,2196.8999999910593,190354.10000000894,7235,love,AF,C,185243,185243,183412,184526,183412,185609,185042,185042,185609,28
28,test,1,inc,1,m,Thu Nov 06 2025 16:30:14 GMT-0600 (Central Standard Time),194634.10000000894,love,1000,O,m,m,None,544,342.0,202.0,79,1,2080.5,192553.60000000894,7235,rock,AF,C,187344,187344,185612,186626,185612,187692,187142,187142,187692,29
29,test,1,con,1,m,Thu Nov 06 2025 16:30:14 GMT-0600 (Central Standard Time),196899.40000000596,bell,1100,O,m,m,None,618,418.0,200.0,84,1,2262.6000000089407,194636.79999999702,7235,bell,AF,C,189524,189524,187695,188807,187695,189957,189324,189324,189957,30
30,test,1,con,1,z,Thu Nov 06 2025 16:30:14 GMT-0600 (Central Standard Time),199032.40000000596,temper,900,O,z,z,None,687,487.0,200.0,58,1,2130.5,196901.90000000596,7235,temper,AF,C,191590,191590,189960,190874,189960,192091,191390,191390,192090,31
31,test,1,inc,1,m,Thu Nov 06 2025 16:30:14 GMT-0600 (Central Standard Time),201131.90000000596,kind,900,O,m,m,None,650,450.0,200.0,94,1,2096.7000000029802,199035.20000000298,7235,film,AF,C,193723,193723,192093,193007,192093,194190,193523,193523,194190,32
32,test,1,con,1,z,Thu Nov 06 2025 16:30:14 GMT-0600 (Central Standard Time),203280.5,love,1000,O,z,z,None,603,404.0,199.0,19,1,2145.8999999910593,201134.60000000894,7235,love,AF,C,195922,195922,194193,195206,194193,196339,195723,195723,196339,33
33,test,1,con,1,m,Thu Nov 06 2025 16:30:14 GMT-0600 (Central Standard Time),205396.79999999702,rock,1000,O,m,m,None,566,366.0,200.0,75,1,2113.5999999940395,203283.20000000298,7235,rock,AF,C,198072,198072,196341,197355,196341,198455,197872,197872,198455,34
34,test,1,inc,1,m,Thu Nov 06 2025 16:30:14 GMT-0600 (Central Standard Time),207629.79999999702,hate,1100,O,m,m,None,615,416.0,199.0,72,1,2230.199999988079,205399.60000000894,7235,step,AF,C,200271,200271,198458,199571,198458,200688,200072,200072,200688,35
35,test,1,inc,1,m,Thu Nov 06 2025 16:30:14 GMT-0600 (Central Standard Time),209744.79999999702,love,1000,O,m,m,None,578,378.0,200.0,71,1,2111.3999999910593,207633.40000000596,7235,step,AF,C,202420,202420,200691,201704,200692,202803,202220,202220,202803,36
36,test,1,con,1,m,Thu Nov 06 2025 16:30:14 GMT-0600 (Central Standard Time),211661.70000000298,bell,900,O,m,m,None,484,284.0,200.0,82,1,1914.0999999940395,209747.60000000894,7235,bell,AF,C,204436,204436,202806,203720,202806,204720,204236,204236,204720,37
37,test,1,con,1,z,Thu Nov 06 2025 16:30:14 GMT-0600 (Central Standard Time),214011.10000000894,friend,1100,O,z,z,None,701,501.0,200.0,28,1,2346.9000000059605,211664.20000000298,7235,friend,AF,C,206552,206552,204722,205836,204722,207069,206352,206352,207069,38
38,test,1,inc,1,z,Thu Nov 06 2025 16:30:14 GMT-0600 (Central Standard Time),216226.29999999702,window,1100,O,z,z,None,568,368.0,200.0,32,1,2212.5999999940395,214013.70000000298,7235,friend,AF,C,208902,208902,207072,208186,207072,209284,208702,208702,209284,39
39,test,1,inc,1,z,Thu Nov 06 2025 16:30:14 GMT-0600 (Central Standard Time),218459.70000000298,film,1100,O,z,z,None,612,400.0,212.0,56,1,2229.7000000029802,216230.0,7235,rage,AF,C,211118,211118,209288,210401,209288,211518,210905,210905,211518,40
40,test,1,con,1,m,Thu Nov 06 2025 16:30:14 GMT-0600 (Central Standard Time),220625.60000000894,rock,1100,O,m,m,None,528,328.0,200.0,76,1,2163.300000011921,218462.29999999702,7235,rock,AF,C,213350,213350,211520,212635,211521,213684,213150,213150,213684,41
41,test,1,inc,1,z,Thu Nov 06 2025 16:30:14 GMT-0600 (Central Standard Time),222624.79999999702,napkin,900,O,z,z,None,562,362.0,200.0,38,1,1995.7999999970198,220629.0,7235,brutal,AF,C,215316,215316,213687,214600,213687,215683,215116,215116,215683,42
42,test,1,con,1,z,Thu Nov 06 2025 16:30:14 GMT-0600 (Central Standard Time),224540.40000000596,elated,1000,O,z,z,None,381,182.0,199.0,3,1,1913.0,222627.40000000596,7235,elated,AF,C,217416,217416,215685,216699,215686,217598,217216,217216,217598,43
43,test,1,con,1,z,Thu Nov 06 2025 16:30:14 GMT-0600 (Central Standard Time),226373.40000000596,hate,900,O,z,z,None,391,192.0,199.0,42,1,1830.6000000089407,224542.79999999702,7235,hate,AF,C,219231,219231,217601,218515,217601,219432,219032,219032,219431,44
44,test,1,con,1,m,Thu Nov 06 2025 16:30:14 GMT-0600 (Central Standard Time),228290.20000000298,step,800,O,m,m,None,593,378.0,215.0,65,1,1914.2000000029802,226376.0,7235,step,AF,C,220964,220964,219434,220248,219434,221348,220749,220749,221348,45
45,test,1,inc,1,z,Thu Nov 06 2025 16:30:14 GMT-0600 (Central Standard Time),230439.10000000894,film,1100,O,z,z,None,513,313.0,200.0,48,1,2146.2000000029802,228292.90000000596,7235,hate,AF,C,223181,223181,221351,222464,221351,223497,222980,222980,223497,46
46,test,1,inc,1,m,Thu Nov 06 2025 16:30:14 GMT-0600 (Central Standard Time),232588.10000000894,brutal,900,O,m,m,None,709,507.0,202.0,126,1,2146.0,230442.10000000894,7235,window,AF,C,225131,225131,223500,224414,223500,225646,224929,224929,225646,47
47,test,1,inc,1,z,Thu Nov 06 2025 16:30:14 GMT-0600 (Central Standard Time),234537.70000000298,jacket,800,O,z,z,None,611,411.0,200.0,37,1,1946.7000000029802,232591.0,7235,brutal,AF,C,227179,227179,225649,226463,225649,227596,226979,226979,227596,48
48,test,1,inc,1,z,Thu Nov 06 2025 16:30:14 GMT-0600 (Central Standard Time),236620.0,napkin,900,O,z,z,None,634,434.0,200.0,30,1,2079.2999999970198,234540.70000000298,7235,friend,AF,C,229228,229228,227599,228513,227599,229678,229028,229028,229678,49
49,test,1,inc,1,z,Thu Nov 06 2025 16:30:14 GMT-0600 (Central Standard Time),238602.60000000894,bell,1000,O,z,z,None,434,235.0,199.0,23,1,1979.9000000059605,236622.70000000298,7235,love,AF,C,231411,231411,229681,230694,229681,231661,231212,231212,231660,50
50,test,1,inc,1,z,Thu Nov 06 2025 16:30:14 GMT-0600 (Central Standard Time),240434.60000000894,jacket,800,O,z,z,None,491,291.0,200.0,5,1,1829.5,238605.10000000894,7235,elated,AF,C,233195,233195,231663,232477,231663,233493,232994,232994,233493,51
51,test,1,con,1,m,Thu Nov 06 2025 16:30:14 GMT-0600 (Central Standard Time),242568.5,remote,1100,O,m,m,None,494,295.0,199.0,116,1,2131.2000000029802,240437.29999999702,7235,remote,AF,C,235327,235327,233495,234610,233496,235627,235127,235127,235627,52
52,test,1,inc,1,m,Thu Nov 06 2025 16:30:14 GMT-0600 (Central Standard Time),244534.5,elated,800,O,m,m,None,622,422.0,200.0,109,1,1963.2999999970198,242571.20000000298,7235,napkin,AF,C,237160,237160,235629,236442,235630,237593,236959,236959,237592,53
53,test,1,inc,1,m,Thu Nov 06 2025 16:30:14 GMT-0600 (Central Standard Time),246500.40000000596,kind,900,O,m,m,None,516,317.0,199.0,78,1,1963.2999999970198,244537.10000000894,7235,rock,AF,C,239225,239225,237595,238509,237595,239558,239026,239026,239558,54
54,test,1,con,1,z,Thu Nov 06 2025 16:30:14 GMT-0600 (Central Standard Time),248583.10000000894,brutal,1000,O,z,z,None,546,347.0,199.0,35,1,2079.5,246503.60000000894,7235,brutal,AF,C,241291,241291,239562,240575,239562,241641,241092,241092,241641,55
55,test,1,con,1,z,Thu Nov 06 2025 16:30:14 GMT-0600 (Central Standard Time),250282.90000000596,brutal,800,O,z,z,None,360,160.0,200.0,33,1,1697.2000000029802,248585.70000000298,7235,brutal,AF,C,243174,243174,241644,242458,241644,243341,242974,242974,243341,56
56,test,1,inc,1,z,Thu Nov 06 2025 16:30:14 GMT-0600 (Central Standard Time),252148.79999999702,step,800,O,z,z,None,516,316.0,200.0,13,1,1863.2999999970198,250285.5,7235,kind,AF,C,244874,244874,243344,244157,243344,245207,244674,244674,245207,57
57,test,1,inc,1,m,Thu Nov 06 2025 16:30:14 GMT-0600 (Central Standard Time),254131.0,rage,800,O,m,m,None,642,441.0,201.0,85,1,1979.7999999970198,252151.20000000298,7235,bell,AF,C,246740,246740,245209,246024,245209,247189,246539,246539,247189,58
58,test,1,con,1,z,Thu Nov 06 2025 16:30:14 GMT-0600 (Central Standard Time),256046.90000000596,love,800,O,z,z,None,580,380.0,200.0,17,1,1913.4000000059605,254133.5,7235,love,AF,C,248722,248722,247192,248006,247192,249105,248522,248522,249105,59
59,test,1,con,1,m,Thu Nov 06 2025 16:30:14 GMT-0600 (Central Standard Time),258096.5,film,900,O,m,m,None,611,412.0,199.0,90,1,2047.0999999940395,256049.40000000596,7235,film,AF,C,250738,250738,249107,250022,249108,251155,250539,250539,251155,60
60,test,1,inc,1,z,Thu Nov 06 2025 16:30:14 GMT-0600 (Central Standard Time),260179.29999999702,remote,1000,O,z,z,None,543,341.0,202.0,31,1,2080.0999999940395,258099.20000000298,7235,friend,AF,C,252889,252889,251157,252171,251157,253237,252687,252687,253237,61
61,test,1,con,1,z,Thu Nov 06 2025 16:30:14 GMT-0600 (Central Standard Time),262128.70000000298,friend,1000,O,z,z,None,412,212.0,200.0,27,1,1946.5999999940395,260182.10000000894,7235,friend,AF,C,254970,254970,253240,254254,253240,255187,254770,254770,255187,62
62,test,1,inc,1,m,Thu Nov 06 2025 16:30:14 GMT-0600 (Central Standard Time),264295.799999997,hate,1100,O,m,m,None,531,331.0,200.0,88,1,2164.5,262131.29999999702,7235,bell,AF,C,257019,257019,255189,256303,255190,257354,256819,256819,257354,63
63,test,1,inc,1,z,Thu Nov 06 2025 16:30:14 GMT-0600 (Central Standard Time),266393.90000000596,remote,1000,O,z,z,None,559,360.0,199.0,7,1,2095.4000000059605,264298.5,7235,elated,AF,C,259086,259086,257357,258369,257357,259452,258886,258886,259452,64
64,test,1,inc,1,m,Thu Nov 06 2025 16:30:14 GMT-0600 (Central Standard Time),268476.799999997,love,1000,O,m,m,None,549,350.0,199.0,95,1,2080.3999999910593,266396.40000000596,7235,film,AF,C,261168,261168,259454,260468,259455,261535,260969,260969,261535,65
65,test,1,con,1,m,Thu Nov 06 2025 16:30:14 GMT-0600 (Central Standard Time),270442.799999997,napkin,900,O,m,m,None,519,319.0,200.0,106,1,1963.3999999910593,268479.40000000596,7235,napkin,AF,C,263167,263167,261537,262451,261538,263501,262967,262967,263501,66
66,test,1,inc,1,m,Thu Nov 06 2025 16:30:14 GMT-0600 (Central Standard Time),272741.90000000596,friend,1100,O,m,m,None,657,457.0,200.0,120,1,2296.6000000089407,270445.299999997,7235,remote,AF,C,265333,265333,263503,264617,263503,265800,265133,265133,265800,67
67,test,1,con,1,z,Thu Nov 06 2025 16:30:14 GMT-0600 (Central Standard Time),275190.5,kind,1100,O,z,z,None,806,605.0,201.0,12,1,2446.2000000029802,272744.299999997,7235,kind,AF,C,267633,267633,265802,266916,265803,268249,267432,267432,268248,68
68,test,1,con,1,z,Thu Nov 06 2025 16:30:14 GMT-0600 (Central Standard Time),277589.60000000894,temper,1100,O,z,z,None,764,564.0,200.0,60,1,2396.6000000089407,275193.0,7235,temper,AF,C,270082,270082,268251,269366,268251,270648,269882,269882,270648,69
69,test,1,inc,1,m,Thu Nov 06 2025 16:30:14 GMT-0600 (Central Standard Time),279640.10000000894,temper,1000,O,m,m,None,511,296.0,215.0,111,1,2048.1000000089407,277592.0,7235,napkin,AF,C,272398,272398,270650,271665,270650,272698,272183,272183,272698,70
70,test,1,inc,1,z,Thu Nov 06 2025 16:30:14 GMT-0600 (Central Standard Time),281722.799999997,bell,1000,O,z,z,None,543,343.0,200.0,47,1,2080.0,279642.799999997,7235,hate,AF,C,274431,274431,272701,273714,272701,274781,274230,274231,274781,71
71,test,1,inc,1,m,Thu Nov 06 2025 16:30:14 GMT-0600 (Central Standard Time),283821.799999997,brutal,900,O,m,m,None,655,456.0,199.0,118,1,2096.199999988079,281725.60000000894,7235,remote,AF,C,276414,276414,274784,275697,274784,276880,276214,276214,276880,72
72,test,1,con,1,z,Thu Nov 06 2025 16:30:14 GMT-0600 (Central Standard Time),285620.799999997,rage,800,O,z,z,None,481,266.0,215.0,49,1,1796.0,283824.799999997,7235,rage,AF,C,278413,278413,276883,277696,276883,278679,278198,278198,278679,73
73,test,1,inc,1,m,Thu Nov 06 2025 16:30:14 GMT-0600 (Central Standard Time),287520.299999997,rage,800,O,m,m,None,554,353.0,201.0,77,1,1896.8999999910593,285623.40000000596,7235,rock,AF,C,280213,280213,278681,279496,278682,280579,280012,280012,280578,74
74,test,1,inc,1,m,Thu Nov 06 2025 16:30:14 GMT-0600 (Central Standard Time),289803.60000000894,friend,1100,O,m,m,None,642,442.0,200.0,128,1,2279.800000011921,287523.799999997,7235,window,AF,C,282412,282412,280582,281695,280582,282862,282212,282212,282862,75
75,test,1,con,1,z,Thu Nov 06 2025 16:30:14 GMT-0600 (Central Standard Time),291902.40000000596,hate,1000,O,z,z,None,564,364.0,200.0,43,1,2096.2999999970198,289806.10000000894,7235,hate,AF,C,284594,284594,282864,283877,282864,284961,284394,284394,284960,76
76,test,1,con,1,m,Thu Nov 06 2025 16:30:14 GMT-0600 (Central Standard Time),293968.90000000596,window,1100,O,m,m,None,419,219.0,200.0,124,1,2063.2000000029802,291905.700000003,7235,window,AF,C,286795,286795,284964,286077,284964,287027,286594,286594,287027,77
77,test,1,con,1,z,Thu Nov 06 2025 16:30:14 GMT-0600 (Central Standard Time),296134.40000000596,brutal,1100,O,z,z,None,529,330.0,199.0,36,1,2162.0,293972.40000000596,7235,brutal,AF,C,288860,288860,287030,288143,287031,289192,288660,288660,289192,78
78,test,1,con,1,m,Thu Nov 06 2025 16:30:14 GMT-0600 (Central Standard Time),298084.700000003,film,1000,O,m,m,None,409,209.0,200.0,91,1,1947.7999999970198,296136.90000000596,7235,film,AF,C,290925,290925,289195,290209,289195,291143,290725,290725,291143,79
79,test,1,inc,1,z,Thu Nov 06 2025 16:30:14 GMT-0600 (Central Standard Time),299866.5,step,800,O,z,z,None,435,235.0,200.0,53,1,1779.2999999970198,298087.200000003,7235,rage,AF,C,292675,292675,291145,291958,291145,292925,292475,292475,292925,80
80,test,1,con,1,m,Thu Nov 06 2025 16:30:14 GMT-0600 (Central Standard Time),301801.5,window,1000,O,m,m,None,387,188.0,199.0,123,1,1932.0999999940395,299869.40000000596,7235,window,AF,C,294658,294658,292927,293941,292928,294860,294458,294458,294860,81
81,test,1,con,1,z,Thu Nov 06 2025 16:30:14 GMT-0600 (Central Standard Time),303898.60000000894,elated,1100,O,z,z,None,458,259.0,199.0,4,1,2093.800000011921,301804.799999997,7235,elated,AF,C,296691,296691,294863,295974,294863,296957,296491,296491,296957,82
82,test,1,con,1,z,Thu Nov 06 2025 16:30:14 GMT-0600 (Central Standard Time),305831.60000000894,rage,900,O,z,z,None,496,296.0,200.0,50,1,1930.0,303901.60000000894,7235,rage,AF,C,298590,298590,296960,297873,296960,298890,298390,298390,298890,83
83,test,1,con,1,z,Thu Nov 06 2025 16:30:14 GMT-0600 (Central Standard Time),307831.5,love,1100,O,z,z,None,356,156.0,200.0,20,1,1997.0999999940395,305834.40000000596,7235,love,AF,C,300722,300722,298892,300006,298893,300890,300522,300522,300890,84
84,test,1,con,1,z,Thu Nov 06 2025 16:30:14 GMT-0600 (Central Standard Time),309747.799999997,kind,1000,O,z,z,None,376,177.0,199.0,11,1,1913.5,307834.299999997,7235,kind,AF,C,302621,302621,300892,301906,300892,302806,302422,302422,302806,85
84,test,1,con,0,m,Thu Nov 06 2025 16:30:14 GMT-0600 (Central Standard Time),311849.299999997,jacket,1100,O,z,z,None,456,256.0,200.0,100,1,2098.5,309750.799999997,7235,jacket,AF,C,304638,304638,302809,303922,302809,304907,304438,304438,304907,86
85,test,1,con,1,m,Thu Nov 06 2025 16:30:14 GMT-0600 (Central Standard Time),313828.799999997,step,1000,O,m,m,None,441,241.0,200.0,67,1,1976.2999999970198,311852.5,7235,step,AF,C,306637,306637,304911,305921,304911,306887,306437,306437,306887,87
86,test,1,inc,1,m,Thu Nov 06 2025 16:30:14 GMT-0600 (Central Standard Time),316028.0,temper,1000,O,m,m,None,665,466.0,199.0,103,1,2196.0999999940395,313831.90000000596,7235,jacket,AF,C,308620,308620,306890,307904,306890,309086,308420,308420,309086,88
87,test,1,con,1,m,Thu Nov 06 2025 16:30:14 GMT-0600 (Central Standard Time),318210.90000000596,napkin,1100,O,m,m,None,558,343.0,215.0,108,1,2180.1000000089407,316030.799999997,7235,napkin,AF,C,310919,310919,309089,310202,309089,311269,310704,310704,311269,89
88,test,1,inc,1,z,Thu Nov 06 2025 16:30:14 GMT-0600 (Central Standard Time),320343.5,window,1100,O,z,z,None,495,296.0,199.0,40,1,2130.0,318213.5,7235,brutal,AF,C,313102,313102,311272,312385,311272,313402,312902,312902,313402,90
89,test,1,inc,1,m,Thu Nov 06 2025 16:30:14 GMT-0600 (Central Standard Time),322409.700000003,brutal,900,O,m,m,None,618,419.0,199.0,110,1,2063.5999999940395,320346.10000000894,7235,napkin,AF,C,315035,315035,313404,314319,313404,315468,314835,314835,315468,91
90,test,1,inc,1,m,Thu Nov 06 2025 16:30:14 GMT-0600 (Central Standard Time),324525.40000000596,love,1000,O,m,m,None,581,381.0,200.0,87,1,2112.9000000059605,322412.5,7235,bell,AF,C,317201,317201,315471,316484,315471,317583,317000,317000,317583,92
91,test,1,inc,1,z,Thu Nov 06 2025 16:30:14 GMT-0600 (Central Standard Time),326624.299999997,bell,1000,O,z,z,None,561,362.0,199.0,55,1,2096.3999999910593,324527.90000000596,7235,rage,AF,C,319316,319316,317586,318600,317586,319682,319117,319117,319682,93
92,test,1,con,1,m,Thu Nov 06 2025 16:30:14 GMT-0600 (Central Standard Time),328608.60000000894,rock,900,O,m,m,None,537,337.0,200.0,74,1,1981.1000000089407,326627.5,7235,rock,AF,C,321317,321317,319686,320600,319686,321667,321116,321116,321667,94
93,test,1,inc,1,m,Thu Nov 06 2025 16:30:14 GMT-0600 (Central Standard Time),330857.0,friend,1100,O,m,m,None,611,411.0,200.0,104,1,2243.0,328614.0,7235,jacket,AF,C,323499,323499,321672,322782,321672,323915,323299,323299,323915,95
94,test,1,con,1,z,Thu Nov 06 2025 16:30:14 GMT-0600 (Central Standard Time),332755.700000003,kind,900,O,z,z,None,448,249.0,199.0,10,1,1896.0999999940395,330859.60000000894,7235,kind,AF,C,325548,325548,323918,324831,323918,325814,325348,325348,325814,96
95,test,1,inc,1,m,Thu Nov 06 2025 16:30:14 GMT-0600 (Central Standard Time),334906.200000003,friend,1100,O,m,m,None,511,311.0,200.0,112,1,2147.7999999970198,332758.40000000596,7235,napkin,AF,C,327647,327647,325816,326931,325817,327964,327447,327447,327964,97
96,test,1,inc,1,m,Thu Nov 06 2025 16:30:14 GMT-0600 (Central Standard Time),337004.200000003,temper,1000,O,m,m,None,565,365.0,200.0,127,1,2095.0,334909.200000003,7235,window,AF,C,329697,329697,327967,328980,327967,330062,329496,329496,330062,98
97,test,1,con,1,m,Thu Nov 06 2025 16:30:14 GMT-0600 (Central Standard Time),338805.200000003,bell,800,O,m,m,None,466,266.0,200.0,81,1,1798.4000000059605,337006.799999997,7235,bell,AF,C,331596,331596,330065,330880,330065,331863,331396,331396,331863,99
98,test,1,inc,1,z,Thu Nov 06 2025 16:30:14 GMT-0600 (Central Standard Time),340953.299999997,remote,1000,O,z,z,None,603,403.0,200.0,63,1,2145.5,338807.799999997,7235,temper,AF,C,333595,333595,331866,332880,331866,334011,333395,333395,334011,100
99,test,1,inc,1,z,Thu Nov 06 2025 16:30:14 GMT-0600 (Central Standard Time),342919.299999997,rock,900,O,z,z,None,520,321.0,199.0,46,1,1963.5,340955.799999997,7235,hate,AF,C,335645,335645,334014,334928,334014,335977,335445,335445,335977,101
100,test,1,inc,1,z,Thu Nov 06 2025 16:30:14 GMT-0600 (Central Standard Time),344735.799999997,step,800,O,z,z,None,472,271.0,201.0,21,1,1813.3999999910593,342922.40000000596,7235,love,AF,C,337511,337511,335980,336794,335981,337794,337310,337310,337794,102
101,test,1,inc,1,m,Thu Nov 06 2025 16:30:14 GMT-0600 (Central Standard Time),346701.60000000894,brutal,900,O,m,m,None,522,323.0,199.0,102,1,1962.9000000059605,344738.700000003,7235,jacket,AF,C,339427,339427,337797,338711,337797,339760,339227,339227,339760,103
102,test,1,con,1,m,Thu Nov 06 2025 16:30:14 GMT-0600 (Central Standard Time),348717.799999997,remote,1000,O,m,m,None,472,273.0,199.0,115,1,2013.5999999940395,346704.200000003,7235,remote,AF,C,341493,341493,339762,340776,339762,341776,341293,341293,341776,104
103,test,1,con,1,z,Thu Nov 06 2025 16:30:14 GMT-0600 (Central Standard Time),350650.40000000596,temper,800,O,z,z,None,593,393.0,200.0,57,1,1929.4000000059605,348721.0,7235,temper,AF,C,343309,343309,341779,342592,341779,343708,343109,343109,343708,105
104,test,1,inc,1,z,Thu Nov 06 2025 16:30:14 GMT-0600 (Central Standard Time),352633.0,napkin,900,O,z,z,None,536,337.0,199.0,62,1,1980.0999999940395,350652.90000000596,7235,temper,AF,C,345341,345341,343711,344625,343711,345691,345142,345142,345691,106
105,test,1,inc,1,z,Thu Nov 06 2025 16:30:14 GMT-0600 (Central Standard Time),354650.5,remote,1000,O,z,z,None,468,269.0,199.0,39,1,2015.0,352635.5,7235,brutal,AF,C,347425,347425,345694,346708,345694,347709,347225,347225,347709,107
106,test,1,inc,1,m,Thu Nov 06 2025 16:30:14 GMT-0600 (Central Standard Time),356564.799999997,elated,800,O,m,m,None,573,374.0,199.0,125,1,1911.5999999940395,354653.200000003,7235,window,AF,C,349240,349240,347711,348524,347711,349623,349041,349041,349623,108
107,test,1,con,1,z,Thu Nov 06 2025 16:30:14 GMT-0600 (Central Standard Time),358764.60000000894,rage,1100,O,z,z,None,558,358.0,200.0,52,1,2196.800000011921,356567.799999997,7235,rage,AF,C,351456,351456,349626,350740,349626,351823,351256,351256,351823,109
108,test,1,con,1,m,Thu Nov 06 2025 16:30:14 GMT-0600 (Central Standard Time),360597.799999997,step,900,O,m,m,None,389,189.0,200.0,66,1,1830.0999999940395,358767.700000003,7235,step,AF,C,353457,353457,351826,352739,351826,353656,353255,353256,353656,110
109,test,1,inc,1,m,Thu Nov 06 2025 16:30:14 GMT-0600 (Central Standard Time),362713.60000000894,kind,900,O,m,m,None,670,469.0,201.0,70,1,2112.6000000089407,360601.0,7235,step,AF,C,355289,355289,353659,354572,353659,355772,355088,355088,355772,111
110,test,1,inc,1,m,Thu Nov 06 2025 16:30:14 GMT-0600 (Central Standard Time),364729.40000000596,kind,900,O,m,m,None,570,369.0,201.0,86,1,2012.9000000059605,362716.5,7235,bell,AF,C,357405,357405,355775,356688,355775,357787,357204,357204,357787,112
111,test,1,con,1,m,Thu Nov 06 2025 16:30:14 GMT-0600 (Central Standard Time),366462.200000003,jacket,800,O,m,m,None,398,198.0,200.0,97,1,1730.0999999940395,364732.10000000894,7235,jacket,AF,C,359320,359320,357790,358604,357790,359520,359120,359120,359520,113
112,test,1,con,1,m,Thu Nov 06 2025 16:30:14 GMT-0600 (Central Standard Time),368295.40000000596,jacket,900,O,m,m,None,389,189.0,200.0,98,1,1830.4000000059605,366465.0,7235,jacket,AF,C,361153,361153,359523,360436,359523,361353,360953,360953,361353,114
113,test,1,inc,1,z,Thu Nov 06 2025 16:30:14 GMT-0600 (Central Standard Time),370243.90000000596,napkin,900,O,z,z,None,523,324.0,199.0,6,1,1946.0,368297.90000000596,7235,elated,AF,C,362970,362970,361356,362269,361356,363302,362770,362770,363302,115
114,test,1,inc,1,z,Thu Nov 06 2025 16:30:14 GMT-0600 (Central Standard Time),372276.60000000894,rock,900,O,z,z,None,583,374.0,209.0,54,1,2030.1000000089407,370246.5,7235,rage,AF,C,364952,364952,363305,364219,363305,365335,364743,364743,365335,116
115,test,1,con,1,z,Thu Nov 06 2025 16:30:14 GMT-0600 (Central Standard Time),374393.200000003,hate,1100,O,z,z,None,493,293.0,200.0,44,1,2114.0999999940395,372279.10000000894,7235,hate,AF,C,367152,367152,365337,366451,365337,367451,366952,366952,367451,117
116,test,1,con,1,m,Thu Nov 06 2025 16:30:14 GMT-0600 (Central Standard Time),376092.700000003,window,800,O,m,m,None,358,158.0,200.0,121,1,1697.0999999940395,374395.60000000894,7235,window,AF,C,368984,368984,367454,368267,367454,369151,368784,368784,369151,118
117,test,1,inc,1,z,Thu Nov 06 2025 16:30:14 GMT-0600 (Central Standard Time),378259.10000000894,bell,1000,O,z,z,None,626,426.0,200.0,15,1,2163.7000000029802,376095.40000000596,7235,kind,AF,C,370883,370884,369153,370167,369154,371317,370683,370683,371317,119
118,test,1,con,1,z,Thu Nov 06 2025 16:30:14 GMT-0600 (Central Standard Time),380191.0,temper,1000,O,z,z,None,389,189.0,200.0,59,1,1929.3999999910593,378261.60000000894,7235,temper,AF,C,373049,373049,371320,372333,371320,373249,372849,372849,373249,120
119,test,1,inc,1,m,Thu Nov 06 2025 16:30:14 GMT-0600 (Central Standard Time),382007.299999997,elated,800,O,m,m,None,480,280.0,200.0,101,1,1813.2999999970198,380194.0,7235,jacket,AF,C,374782,374782,373252,374066,373252,375065,374582,374582,375065,121
120,test,1,con,1,m,Thu Nov 06 2025 16:30:14 GMT-0600 (Central Standard Time),383739.700000003,rock,800,O,m,m,None,391,191.0,200.0,73,1,1730.0,382009.700000003,7235,rock,AF,C,376599,376599,375068,375882,375068,376798,376398,376398,376798,122
121,test,1,inc,1,z,Thu Nov 06 2025 16:30:14 GMT-0600 (Central Standard Time),385855.5,window,1100,O,z,z,None,471,271.0,200.0,8,1,2113.2000000029802,383742.299999997,7235,elated,AF,C,378631,378631,376800,377914,376800,378914,378431,378431,378914,123
122,test,1,inc,1,z,Thu Nov 06 2025 16:30:14 GMT-0600 (Central Standard Time),387638.200000003,jacket,800,O,z,z,None,438,239.0,199.0,29,1,1779.7999999970198,385858.40000000596,7235,friend,AF,C,380447,380447,378916,379731,378917,380696,380248,380248,380696,124
123,test,1,inc,1,m,Thu Nov 06 2025 16:30:14 GMT-0600 (Central Standard Time),389588.0,elated,800,O,m,m,None,608,409.0,199.0,117,1,1947.2000000029802,387640.799999997,7235,remote,AF,C,382229,382229,380699,381513,380699,382646,382030,382030,382646,125
124,test,1,con,1,m,Thu Nov 06 2025 16:30:14 GMT-0600 (Central Standard Time),391704.299999997,jacket,1000,O,m,m,None,569,354.0,215.0,99,1,2113.0,389591.299999997,7235,jacket,AF,C,384396,384396,382649,383663,382650,384762,384181,384181,384762,126
124,test,1,con,0,z,Thu Nov 06 2025 16:30:14 GMT-0600 (Central Standard Time),393470.10000000894,friend,800,O,m,m,None,438,239.0,199.0,25,1,1761.9000000059605,391708.200000003,7235,friend,AF,C,386279,386279,384766,385578,384767,386528,386080,386080,386528,127
125,test,1,inc,1,z,Thu Nov 06 2025 16:30:14 GMT-0600 (Central Standard Time),395469.700000003,rock,900,O,z,z,None,567,367.0,200.0,14,1,1996.9000000059605,393472.799999997,7235,kind,AF,C,388161,388161,386531,387445,386531,388528,387961,387961,388528,128
