acc_sum,block,block_c,change,condition,correct,correct_response,datetime,endtime,face,project,response,response_time,row_sel,session_number,start_end,starttime,subject_id,task,task_vers,trial
0,prac,1,,1-Back,,,Fri May 23 2025 10:52:57 GMT-0500 (Central Daylight Time),,005_o_f_d_a.png,O,space,10268,1,1,,,7150,VNB,B,0
1,prac,1,0.0,1-Back,1,m,Fri May 23 2025 10:52:57 GMT-0500 (Central Daylight Time),194539.5,020_y_f_n_a.png,O,m,1483,2,1,2352.0999999940395,192187.40000000596,7150,VNB,B,1
2,prac,1,0.0,1-Back,1,m,Fri May 23 2025 10:52:57 GMT-0500 (Central Daylight Time),197323.0,007_m_m_h_a.png,O,m,1894,3,1,2772.9000000059605,194550.09999999404,7150,VNB,B,2
3,prac,1,0.0,1-Back,1,m,Fri May 23 2025 10:52:57 GMT-0500 (Central Daylight Time),200087.09999999404,016_y_m_d_a.png,O,m,1859,4,1,2755.399999976158,197331.70000001788,7150,VNB,B,3
4,prac,1,0.0,1-Back,1,m,Fri May 23 2025 10:52:57 GMT-0500 (Central Daylight Time),202138.59999999404,005_o_f_n_a.png,O,m,1162,5,1,2042.8999999761581,200095.70000001788,7150,VNB,B,4
4,prac,1,1.0,1-Back,0,z,Fri May 23 2025 10:52:57 GMT-0500 (Central Daylight Time),204853.70000001788,016_y_m_n_a.png,O,m,1818,6,1,2704.800000011921,202148.90000000596,7150,VNB,B,5
5,prac,1,0.0,1-Back,1,m,Fri May 23 2025 10:52:57 GMT-0500 (Central Daylight Time),206719.20000001788,004_o_m_h_a.png,O,m,988,7,1,1856.1000000238419,204863.09999999404,7150,VNB,B,6
6,prac,1,0.0,1-Back,1,m,Fri May 23 2025 10:52:57 GMT-0500 (Central Daylight Time),208650.40000000596,011_m_f_d_a.png,O,m,1047,8,1,1921.0999999940395,206729.30000001192,7150,VNB,B,7
6,prac,1,1.0,1-Back,0,z,Fri May 23 2025 10:52:57 GMT-0500 (Central Daylight Time),210750.70000001788,020_y_f_d_a.png,O,m,1218,9,1,2089.800000011921,208660.90000000596,7150,VNB,B,8
7,prac,1,0.0,1-Back,1,m,Fri May 23 2025 10:52:57 GMT-0500 (Central Daylight Time),212714.90000000596,007_m_m_n_a.png,O,m,1059,10,1,1955.300000011921,210759.59999999404,7150,VNB,B,9
8,prac,1,0.0,1-Back,1,m,Fri May 23 2025 10:52:57 GMT-0500 (Central Daylight Time),214833.80000001192,005_o_f_h_a.png,O,m,1230,11,1,2110.9000000059605,212722.90000000596,7150,VNB,B,10
9,prac,1,0.0,1-Back,1,m,Fri May 23 2025 10:52:57 GMT-0500 (Central Daylight Time),216583.59999999404,016_y_m_d_a.png,O,m,844,12,1,1741.199999988079,214842.40000000596,7150,VNB,B,11
0,test,1,0.0,1-Back,,,Fri May 23 2025 10:52:57 GMT-0500 (Central Daylight Time),216583.59999999404,020_y_f_d_a.png,O,space,6484,1,1,1741.199999988079,214842.40000000596,7150,VNB,B,0
1,test,1,0.0,1-Back,1,m,Fri May 23 2025 10:52:57 GMT-0500 (Central Daylight Time),235892.20000001788,011_m_f_n_a.png,O,m,780,2,1,1793.9000000059605,234098.30000001192,7150,VNB,B,1
2,test,1,0.0,1-Back,1,m,Fri May 23 2025 10:52:57 GMT-0500 (Central Daylight Time),237626.0,004_o_m_h_a.png,O,m,708,3,1,1728.199999988079,235897.80000001192,7150,VNB,B,2
2,test,1,1.0,1-Back,0,z,Fri May 23 2025 10:52:57 GMT-0500 (Central Daylight Time),239792.09999999404,007_m_m_h_a.png,O,m,1134,4,1,2158.0,237634.09999999404,7150,VNB,B,3
3,test,1,0.0,1-Back,1,m,Fri May 23 2025 10:52:57 GMT-0500 (Central Daylight Time),241524.90000000596,005_o_f_n_a.png,O,m,703,5,1,1728.800000011921,239796.09999999404,7150,VNB,B,4
4,test,1,0.0,1-Back,1,m,Fri May 23 2025 10:52:57 GMT-0500 (Central Daylight Time),243224.40000000596,016_y_m_d_a.png,O,m,676,6,1,1692.300000011921,241532.09999999404,7150,VNB,B,5
5,test,1,1.0,1-Back,1,z,Fri May 23 2025 10:52:57 GMT-0500 (Central Daylight Time),245309.20000001788,011_m_f_d_a.png,O,z,1067,7,1,2075.7000000178814,243233.5,7150,VNB,B,6
6,test,1,0.0,1-Back,1,m,Fri May 23 2025 10:52:57 GMT-0500 (Central Daylight Time),247107.59999999404,020_y_f_h_a.png,O,m,784,8,1,1794.199999988079,245313.40000000596,7150,VNB,B,7
7,test,1,0.0,1-Back,1,m,Fri May 23 2025 10:52:57 GMT-0500 (Central Daylight Time),249023.09999999404,004_o_m_n_a.png,O,m,885,9,1,1908.3999999761581,247114.70000001788,7150,VNB,B,8
8,test,1,0.0,1-Back,1,m,Fri May 23 2025 10:52:57 GMT-0500 (Central Daylight Time),250839.80000001192,016_y_m_h_a.png,O,m,794,10,1,1809.4000000059605,249030.40000000596,7150,VNB,B,9
9,test,1,0.0,1-Back,1,m,Fri May 23 2025 10:52:57 GMT-0500 (Central Daylight Time),252618.30000001192,004_o_m_d_a.png,O,m,753,11,1,1771.0999999940395,250847.20000001788,7150,VNB,B,10
10,test,1,1.0,1-Back,1,z,Fri May 23 2025 10:52:57 GMT-0500 (Central Daylight Time),254736.5,005_o_f_d_a.png,O,z,1091,12,1,2113.0,252623.5,7150,VNB,B,11
11,test,1,0.0,1-Back,1,m,Fri May 23 2025 10:52:57 GMT-0500 (Central Daylight Time),256835.30000001192,007_m_m_n_a.png,O,m,1071,13,1,2091.4000000059605,254743.90000000596,7150,VNB,B,12
12,test,1,1.0,1-Back,1,z,Fri May 23 2025 10:52:57 GMT-0500 (Central Daylight Time),258969.09999999404,020_y_f_n_a.png,O,z,1109,14,1,2127.5999999940395,256841.5,7150,VNB,B,13
13,test,1,0.0,1-Back,1,m,Fri May 23 2025 10:52:57 GMT-0500 (Central Daylight Time),260968.09999999404,011_m_f_h_a.png,O,m,975,15,1,1991.5,258976.59999999404,7150,VNB,B,14
14,test,1,0.0,1-Back,1,m,Fri May 23 2025 10:52:57 GMT-0500 (Central Daylight Time),262984.59999999404,007_m_m_d_a.png,O,m,991,16,1,2008.5,260976.09999999404,7150,VNB,B,15
15,test,1,0.0,1-Back,1,m,Fri May 23 2025 10:52:57 GMT-0500 (Central Daylight Time),264834.90000000596,016_y_m_n_a.png,O,m,825,17,1,1842.5,262992.40000000596,7150,VNB,B,16
16,test,1,0.0,1-Back,1,m,Fri May 23 2025 10:52:57 GMT-0500 (Central Daylight Time),266515.40000000596,005_o_f_h_a.png,O,m,661,18,1,1671.699999988079,264843.7000000179,7150,VNB,B,17
0,test,2,0.0,1-Back,,,Fri May 23 2025 10:52:57 GMT-0500 (Central Daylight Time),266515.40000000596,016_y_m_n_a.png,O,space,2566,1,1,1671.699999988079,264843.7000000179,7150,VNB,B,0
1,test,2,0.0,1-Back,1,m,Fri May 23 2025 10:52:57 GMT-0500 (Central Daylight Time),273231.8000000119,020_y_f_h_a.png,O,m,1102,2,1,2124.7000000178814,271107.09999999404,7150,VNB,B,1
2,test,2,1.0,1-Back,1,m,Fri May 23 2025 10:52:57 GMT-0500 (Central Daylight Time),275346.09999999404,004_o_m_n_a.png,O,m,1090,3,1,2106.2999999821186,273239.8000000119,7150,VNB,B,2
3,test,2,0.0,1-Back,1,m,Fri May 23 2025 10:52:57 GMT-0500 (Central Daylight Time),277212.3000000119,011_m_f_d_a.png,O,m,846,4,1,1858.9000000059605,275353.40000000596,7150,VNB,B,3
3,test,2,0.0,1-Back,0,z,Fri May 23 2025 10:52:57 GMT-0500 (Central Daylight Time),278945.8000000119,007_m_m_d_a.png,O,m,707,5,1,1726.0,277219.8000000119,7150,VNB,B,4
4,test,2,0.0,1-Back,1,m,Fri May 23 2025 10:52:57 GMT-0500 (Central Daylight Time),280943.7000000179,016_y_m_h_a.png,O,m,972,6,1,1989.7000000178814,278954.0,7150,VNB,B,5
5,test,2,1.0,1-Back,1,z,Fri May 23 2025 10:52:57 GMT-0500 (Central Daylight Time),282678.0,005_o_f_h_a.png,O,z,703,7,1,1730.4000000059605,280947.59999999404,7150,VNB,B,6
6,test,2,0.0,1-Back,1,m,Fri May 23 2025 10:52:57 GMT-0500 (Central Daylight Time),284344.59999999404,011_m_f_n_a.png,O,m,643,8,1,1659.199999988079,282685.40000000596,7150,VNB,B,7
7,test,2,0.0,1-Back,1,m,Fri May 23 2025 10:52:57 GMT-0500 (Central Daylight Time),286326.09999999404,020_y_f_d_a.png,O,m,960,9,1,1974.3999999761581,284351.7000000179,7150,VNB,B,8
7,test,2,0.0,1-Back,0,m,Fri May 23 2025 10:52:57 GMT-0500 (Central Daylight Time),289142.3000000119,007_m_m_n_a.png,O,z,1793,10,1,2808.7000000178814,286333.59999999404,7150,VNB,B,9
8,test,2,1.0,1-Back,1,m,Fri May 23 2025 10:52:57 GMT-0500 (Central Daylight Time),290925.40000000596,011_m_f_h_a.png,O,m,754,11,1,1775.699999988079,289149.7000000179,7150,VNB,B,10
8,test,2,0.0,1-Back,0,z,Fri May 23 2025 10:52:57 GMT-0500 (Central Daylight Time),292824.5,004_o_m_h_a.png,O,m,875,12,1,1890.9000000059605,290933.59999999404,7150,VNB,B,11
9,test,2,0.0,1-Back,1,m,Fri May 23 2025 10:52:57 GMT-0500 (Central Daylight Time),294857.59999999404,016_y_m_d_a.png,O,m,1007,13,1,2025.3999999761581,292832.2000000179,7150,VNB,B,12
10,test,2,0.0,1-Back,1,m,Fri May 23 2025 10:52:57 GMT-0500 (Central Daylight Time),297056.09999999404,005_o_f_n_a.png,O,m,1176,14,1,2189.5,294866.59999999404,7150,VNB,B,13
11,test,2,0.0,1-Back,1,z,Fri May 23 2025 10:52:57 GMT-0500 (Central Daylight Time),299507.09999999404,020_y_f_n_a.png,O,z,1435,15,1,2443.899999976158,297063.2000000179,7150,VNB,B,14
12,test,2,1.0,1-Back,1,m,Fri May 23 2025 10:52:57 GMT-0500 (Central Daylight Time),301387.7000000179,007_m_m_h_a.png,O,m,862,16,1,1873.9000000059605,299513.8000000119,7150,VNB,B,15
13,test,2,0.0,1-Back,1,m,Fri May 23 2025 10:52:57 GMT-0500 (Central Daylight Time),303204.90000000596,005_o_f_d_a.png,O,m,799,17,1,1809.4000000059605,301395.5,7150,VNB,B,16
14,test,2,1.0,1-Back,1,z,Fri May 23 2025 10:52:57 GMT-0500 (Central Daylight Time),305722.0,004_o_m_d_a.png,O,z,1501,18,1,2509.9000000059605,303212.09999999404,7150,VNB,B,17
0,test,3,1.0,1-Back,,,Fri May 23 2025 10:52:57 GMT-0500 (Central Daylight Time),305722.0,005_o_f_h_a.png,O,space,2248,1,1,2509.9000000059605,303212.09999999404,7150,VNB,B,0
1,test,3,0.0,1-Back,1,m,Fri May 23 2025 10:52:57 GMT-0500 (Central Daylight Time),312101.5,011_m_f_d_a.png,O,m,986,2,1,2011.9000000059605,310089.59999999404,7150,VNB,B,1
2,test,3,1.0,1-Back,1,m,Fri May 23 2025 10:52:57 GMT-0500 (Central Daylight Time),314034.5,007_m_m_n_a.png,O,m,905,3,1,1925.0999999940395,312109.40000000596,7150,VNB,B,2
2,test,3,0.0,1-Back,0,z,Fri May 23 2025 10:52:57 GMT-0500 (Central Daylight Time),316664.59999999404,005_o_f_n_a.png,O,m,1605,4,1,2622.5999999940395,314042.0,7150,VNB,B,3
2,test,3,1.0,1-Back,0,m,Fri May 23 2025 10:52:57 GMT-0500 (Central Daylight Time),319268.2000000179,004_o_m_d_a.png,O,z,1585,5,1,2600.300000011921,316667.90000000596,7150,VNB,B,4
3,test,3,0.0,1-Back,1,m,Fri May 23 2025 10:52:57 GMT-0500 (Central Daylight Time),320999.59999999404,020_y_f_h_a.png,O,m,710,6,1,1723.5999999940395,319276.0,7150,VNB,B,5
4,test,3,0.0,1-Back,1,z,Fri May 23 2025 10:52:57 GMT-0500 (Central Daylight Time),323283.8000000119,016_y_m_h_a.png,O,z,1265,7,1,2278.0,321005.8000000119,7150,VNB,B,6
5,test,3,0.0,1-Back,1,m,Fri May 23 2025 10:52:57 GMT-0500 (Central Daylight Time),325231.09999999404,011_m_f_n_a.png,O,m,927,8,1,1938.5999999940395,323292.5,7150,VNB,B,7
6,test,3,0.0,1-Back,1,m,Fri May 23 2025 10:52:57 GMT-0500 (Central Daylight Time),327680.59999999404,020_y_f_d_a.png,O,m,1416,9,1,2444.399999976158,325236.2000000179,7150,VNB,B,8
7,test,3,1.0,1-Back,1,m,Fri May 23 2025 10:52:57 GMT-0500 (Central Daylight Time),329662.7000000179,004_o_m_n_a.png,O,m,950,10,1,1972.5,327690.2000000179,7150,VNB,B,9
8,test,3,0.0,1-Back,1,m,Fri May 23 2025 10:52:57 GMT-0500 (Central Daylight Time),331729.7000000179,007_m_m_h_a.png,O,m,1049,11,1,2060.300000011921,329669.40000000596,7150,VNB,B,10
9,test,3,0.0,1-Back,1,z,Fri May 23 2025 10:52:57 GMT-0500 (Central Daylight Time),333581.09999999404,011_m_f_h_a.png,O,z,835,12,1,1844.8999999761581,331736.2000000179,7150,VNB,B,11
10,test,3,1.0,1-Back,1,m,Fri May 23 2025 10:52:57 GMT-0500 (Central Daylight Time),335327.90000000596,005_o_f_d_a.png,O,m,726,13,1,1735.9000000059605,333592.0,7150,VNB,B,12
11,test,3,0.0,1-Back,1,z,Fri May 23 2025 10:52:57 GMT-0500 (Central Daylight Time),337260.09999999404,007_m_m_d_a.png,O,z,916,14,1,1925.199999988079,335334.90000000596,7150,VNB,B,13
12,test,3,0.0,1-Back,1,m,Fri May 23 2025 10:52:57 GMT-0500 (Central Daylight Time),339011.59999999404,016_y_m_n_a.png,O,m,733,15,1,1745.2999999821186,337266.3000000119,7150,VNB,B,14
13,test,3,1.0,1-Back,1,m,Fri May 23 2025 10:52:57 GMT-0500 (Central Daylight Time),340859.8000000119,004_o_m_h_a.png,O,m,824,16,1,1839.800000011921,339020.0,7150,VNB,B,15
14,test,3,0.0,1-Back,1,m,Fri May 23 2025 10:52:57 GMT-0500 (Central Daylight Time),342775.90000000596,016_y_m_d_a.png,O,m,895,17,1,1911.0999999940395,340864.8000000119,7150,VNB,B,16
15,test,3,1.0,1-Back,1,m,Fri May 23 2025 10:52:57 GMT-0500 (Central Daylight Time),344525.2000000179,020_y_f_n_a.png,O,m,729,18,1,1742.5,342782.7000000179,7150,VNB,B,17
0,test,4,1.0,1-Back,,,Fri May 23 2025 10:52:57 GMT-0500 (Central Daylight Time),344525.2000000179,007_m_m_d_a.png,O,space,1597,1,1,1742.5,342782.7000000179,7150,VNB,B,0
1,test,4,0.0,1-Back,1,z,Fri May 23 2025 10:52:57 GMT-0500 (Central Daylight Time),350439.59999999404,004_o_m_d_a.png,O,z,1267,2,1,2290.0999999940395,348149.5,7150,VNB,B,1
2,test,4,0.0,1-Back,1,m,Fri May 23 2025 10:52:57 GMT-0500 (Central Daylight Time),352440.7000000179,016_y_m_h_a.png,O,m,978,3,1,1991.5,350449.2000000179,7150,VNB,B,2
3,test,4,0.0,1-Back,1,m,Fri May 23 2025 10:52:57 GMT-0500 (Central Daylight Time),354305.8000000119,011_m_f_n_a.png,O,m,848,4,1,1856.300000011921,352449.5,7150,VNB,B,3
4,test,4,1.0,1-Back,1,m,Fri May 23 2025 10:52:57 GMT-0500 (Central Daylight Time),356155.7000000179,005_o_f_h_a.png,O,m,817,5,1,1841.800000011921,354313.90000000596,7150,VNB,B,4
5,test,4,0.0,1-Back,1,m,Fri May 23 2025 10:52:57 GMT-0500 (Central Daylight Time),357886.7000000179,007_m_m_n_a.png,O,m,700,6,1,1723.7000000178814,356163.0,7150,VNB,B,5
6,test,4,0.0,1-Back,1,m,Fri May 23 2025 10:52:57 GMT-0500 (Central Daylight Time),359588.8000000119,016_y_m_d_a.png,O,m,672,7,1,1693.4000000059605,357895.40000000596,7150,VNB,B,6
6,test,4,1.0,1-Back,0,z,Fri May 23 2025 10:52:57 GMT-0500 (Central Daylight Time),362620.59999999404,020_y_f_d_a.png,O,None,2016,8,1,3023.699999988079,359596.90000000596,7150,VNB,B,7
7,test,4,0.0,1-Back,1,m,Fri May 23 2025 10:52:57 GMT-0500 (Central Daylight Time),364468.59999999404,011_m_f_h_a.png,O,m,821,9,1,1840.699999988079,362627.90000000596,7150,VNB,B,8
7,test,4,0.0,1-Back,0,z,Fri May 23 2025 10:52:57 GMT-0500 (Central Daylight Time),366735.7000000179,004_o_m_h_a.png,O,m,1235,10,1,2260.0,364475.7000000179,7150,VNB,B,9
8,test,4,1.0,1-Back,1,m,Fri May 23 2025 10:52:57 GMT-0500 (Central Daylight Time),368399.8000000119,005_o_f_n_a.png,O,m,635,11,1,1654.0999999940395,366745.7000000179,7150,VNB,B,10
9,test,4,0.0,1-Back,1,m,Fri May 23 2025 10:52:57 GMT-0500 (Central Daylight Time),370083.40000000596,011_m_f_d_a.png,O,m,655,12,1,1676.800000011921,368406.59999999404,7150,VNB,B,11
10,test,4,0.0,1-Back,1,m,Fri May 23 2025 10:52:57 GMT-0500 (Central Daylight Time),372066.40000000596,020_y_f_n_a.png,O,m,957,13,1,1974.0,370092.40000000596,7150,VNB,B,12
11,test,4,0.0,1-Back,1,m,Fri May 23 2025 10:52:57 GMT-0500 (Central Daylight Time),374082.0,005_o_f_d_a.png,O,m,990,14,1,2010.199999988079,372071.8000000119,7150,VNB,B,13
12,test,4,0.0,1-Back,1,m,Fri May 23 2025 10:52:57 GMT-0500 (Central Daylight Time),376281.8000000119,020_y_f_h_a.png,O,m,1166,15,1,2193.9000000059605,374087.90000000596,7150,VNB,B,14
13,test,4,1.0,1-Back,1,z,Fri May 23 2025 10:52:57 GMT-0500 (Central Daylight Time),378145.59999999404,007_m_m_h_a.png,O,z,839,16,1,1856.0,376289.59999999404,7150,VNB,B,15
14,test,4,0.0,1-Back,1,m,Fri May 23 2025 10:52:57 GMT-0500 (Central Daylight Time),379846.09999999404,004_o_m_n_a.png,O,m,677,17,1,1694.0,378152.09999999404,7150,VNB,B,16
15,test,4,1.0,1-Back,1,z,Fri May 23 2025 10:52:57 GMT-0500 (Central Daylight Time),381846.40000000596,016_y_m_n_a.png,O,z,967,18,1,1992.300000011921,379854.09999999404,7150,VNB,B,17
0,test,5,1.0,1-Back,,,Fri May 23 2025 10:52:57 GMT-0500 (Central Daylight Time),381846.40000000596,004_o_m_n_a.png,O,space,1618,1,1,1992.300000011921,379854.09999999404,7150,VNB,B,0
1,test,5,1.0,1-Back,1,m,Fri May 23 2025 10:52:57 GMT-0500 (Central Daylight Time),387711.59999999404,005_o_f_h_a.png,O,m,1182,2,1,2206.199999988079,385505.40000000596,7150,VNB,B,1
2,test,5,0.0,1-Back,1,m,Fri May 23 2025 10:52:57 GMT-0500 (Central Daylight Time),389560.59999999404,016_y_m_d_a.png,O,m,818,3,1,1842.0,387718.59999999404,7150,VNB,B,2
3,test,5,0.0,1-Back,1,z,Fri May 23 2025 10:52:57 GMT-0500 (Central Daylight Time),391826.2000000179,004_o_m_d_a.png,O,z,1239,4,1,2258.800000011921,389567.40000000596,7150,VNB,B,3
4,test,5,0.0,1-Back,1,m,Fri May 23 2025 10:52:57 GMT-0500 (Central Daylight Time),394241.7000000179,011_m_f_h_a.png,O,m,1390,5,1,2408.5,391833.2000000179,7150,VNB,B,4
5,test,5,0.0,1-Back,1,m,Fri May 23 2025 10:52:57 GMT-0500 (Central Daylight Time),395974.5,020_y_f_n_a.png,O,m,702,6,1,1723.0,394251.5,7150,VNB,B,5
5,test,5,1.0,1-Back,0,z,Fri May 23 2025 10:52:57 GMT-0500 (Central Daylight Time),398173.90000000596,005_o_f_n_a.png,O,m,1176,7,1,2193.0,395980.90000000596,7150,VNB,B,6
6,test,5,0.0,1-Back,1,m,Fri May 23 2025 10:52:57 GMT-0500 (Central Daylight Time),400439.90000000596,011_m_f_d_a.png,O,m,1234,8,1,2259.4000000059605,398180.5,7150,VNB,B,7
7,test,5,0.0,1-Back,1,m,Fri May 23 2025 10:52:57 GMT-0500 (Central Daylight Time),402390.09999999404,016_y_m_h_a.png,O,m,919,9,1,1944.699999988079,400445.40000000596,7150,VNB,B,8
8,test,5,0.0,1-Back,1,m,Fri May 23 2025 10:52:57 GMT-0500 (Central Daylight Time),404105.40000000596,020_y_f_d_a.png,O,m,691,10,1,1706.5999999940395,402398.8000000119,7150,VNB,B,9
9,test,5,0.0,1-Back,1,m,Fri May 23 2025 10:52:57 GMT-0500 (Central Daylight Time),405756.5,007_m_m_n_a.png,O,m,633,11,1,1645.2999999821186,404111.2000000179,7150,VNB,B,10
9,test,5,1.0,1-Back,0,z,Fri May 23 2025 10:52:57 GMT-0500 (Central Daylight Time),407690.2000000179,011_m_f_n_a.png,O,m,917,12,1,1925.2000000178814,405765.0,7150,VNB,B,11
10,test,5,0.0,1-Back,1,m,Fri May 23 2025 10:52:57 GMT-0500 (Central Daylight Time),409938.5,004_o_m_h_a.png,O,m,1215,13,1,2242.9000000059605,407695.59999999404,7150,VNB,B,12
11,test,5,0.0,1-Back,1,z,Fri May 23 2025 10:52:57 GMT-0500 (Central Daylight Time),411720.8000000119,007_m_m_h_a.png,O,z,758,14,1,1773.800000011921,409947.0,7150,VNB,B,13
12,test,5,1.0,1-Back,1,m,Fri May 23 2025 10:52:57 GMT-0500 (Central Daylight Time),413452.0,005_o_f_d_a.png,O,m,711,15,1,1723.5,411728.5,7150,VNB,B,14
13,test,5,0.0,1-Back,1,m,Fri May 23 2025 10:52:57 GMT-0500 (Central Daylight Time),415204.2000000179,016_y_m_n_a.png,O,m,735,16,1,1744.800000011921,413459.40000000596,7150,VNB,B,15
14,test,5,0.0,1-Back,1,m,Fri May 23 2025 10:52:57 GMT-0500 (Central Daylight Time),416934.0,020_y_f_h_a.png,O,m,710,17,1,1724.9000000059605,415209.09999999404,7150,VNB,B,16
15,test,5,0.0,1-Back,1,m,Fri May 23 2025 10:52:57 GMT-0500 (Central Daylight Time),418701.2000000179,007_m_m_d_a.png,O,m,749,18,1,1760.2000000178814,416941.0,7150,VNB,B,17
0,prac,1,0.0,2-Back,,,Fri May 23 2025 10:52:57 GMT-0500 (Central Daylight Time),418701.2000000179,011_m_f_n_a.png,O,space,9859,1,1,1760.2000000178814,416941.0,7150,VNB,B,0
0,prac,1,0.0,2-Back,,,Fri May 23 2025 10:52:57 GMT-0500 (Central Daylight Time),418701.2000000179,005_o_f_h_a.png,O,space,9859,2,1,1760.2000000178814,416941.0,7150,VNB,B,0
1,prac,1,0.0,2-Back,1,m,Fri May 23 2025 10:52:57 GMT-0500 (Central Daylight Time),552491.099999994,004_o_m_d_a.png,O,m,1769,3,1,2624.199999988079,549866.900000006,7150,VNB,B,1
1,prac,1,1.0,2-Back,0,z,Fri May 23 2025 10:52:57 GMT-0500 (Central Daylight Time),555391.2000000179,007_m_m_h_a.png,O,None,2009,4,1,2895.5,552495.7000000179,7150,VNB,B,2
1,prac,1,0.0,2-Back,0,m,Fri May 23 2025 10:52:57 GMT-0500 (Central Daylight Time),557606.900000006,020_y_f_n_a.png,O,z,1344,5,1,2207.199999988079,555399.7000000179,7150,VNB,B,3
1,prac,1,1.0,2-Back,0,z,Fri May 23 2025 10:52:57 GMT-0500 (Central Daylight Time),560472.900000006,004_o_m_h_a.png,O,None,2007,6,1,2858.5999999940395,557614.3000000119,7150,VNB,B,4
2,prac,1,1.0,2-Back,1,z,Fri May 23 2025 10:52:57 GMT-0500 (Central Daylight Time),563172.3000000119,016_y_m_n_a.png,O,z,1805,7,1,2690.5,560481.8000000119,7150,VNB,B,5
2,prac,1,0.0,2-Back,0,m,Fri May 23 2025 10:52:57 GMT-0500 (Central Daylight Time),566038.7000000179,011_m_f_d_a.png,O,None,2003,8,1,2858.600000023842,563180.099999994,7150,VNB,B,6
3,prac,1,0.0,2-Back,1,m,Fri May 23 2025 10:52:57 GMT-0500 (Central Daylight Time),567953.8000000119,005_o_f_d_a.png,O,m,1036,9,1,1907.0,566046.8000000119,7150,VNB,B,7
3,prac,1,0.0,2-Back,0,m,Fri May 23 2025 10:52:57 GMT-0500 (Central Daylight Time),570037.8000000119,007_m_m_h_a.png,O,z,1304,10,1,2076.800000011921,567961.0,7150,VNB,B,8
3,prac,1,1.0,2-Back,0,z,Fri May 23 2025 10:52:57 GMT-0500 (Central Daylight Time),572386.400000006,020_y_f_d_a.png,O,m,1480,11,1,2340.0999999940395,570046.3000000119,7150,VNB,B,9
4,prac,1,0.0,2-Back,1,m,Fri May 23 2025 10:52:57 GMT-0500 (Central Daylight Time),574753.099999994,004_o_m_n_a.png,O,m,1511,12,1,2358.199999988079,572394.900000006,7150,VNB,B,10
0,prac,2,0.0,2-Back,,,Fri May 23 2025 10:52:57 GMT-0500 (Central Daylight Time),574753.099999994,011_m_f_n_a.png,O,a,6694,1,1,2358.199999988079,572394.900000006,7150,VNB,B,0
0,prac,2,0.0,2-Back,,,Fri May 23 2025 10:52:57 GMT-0500 (Central Daylight Time),574753.099999994,005_o_f_h_a.png,O,a,6694,2,1,2358.199999988079,572394.900000006,7150,VNB,B,0
1,prac,2,0.0,2-Back,1,m,Fri May 23 2025 10:52:57 GMT-0500 (Central Daylight Time),589230.3000000119,004_o_m_d_a.png,O,m,1651,3,1,2509.300000011921,586721.0,7150,VNB,B,1
1,prac,2,1.0,2-Back,0,z,Fri May 23 2025 10:52:57 GMT-0500 (Central Daylight Time),592013.7000000179,007_m_m_h_a.png,O,None,2009,4,1,2775.100000023842,589238.599999994,7150,VNB,B,2
1,prac,2,0.0,2-Back,0,m,Fri May 23 2025 10:52:57 GMT-0500 (Central Daylight Time),594445.8000000119,020_y_f_n_a.png,O,z,1553,5,1,2422.5,592023.3000000119,7150,VNB,B,3
2,prac,2,1.0,2-Back,1,z,Fri May 23 2025 10:52:57 GMT-0500 (Central Daylight Time),597077.900000006,004_o_m_h_a.png,O,z,1755,6,1,2622.699999988079,594455.2000000179,7150,VNB,B,4
2,prac,2,1.0,2-Back,0,z,Fri May 23 2025 10:52:57 GMT-0500 (Central Daylight Time),599977.3000000119,016_y_m_n_a.png,O,None,2010,7,1,2888.7000000178814,597088.599999994,7150,VNB,B,5
2,prac,2,0.0,2-Back,0,m,Fri May 23 2025 10:52:57 GMT-0500 (Central Daylight Time),602075.2000000179,011_m_f_d_a.png,O,z,1215,8,1,2087.7000000178814,599987.5,7150,VNB,B,6
3,prac,2,0.0,2-Back,1,m,Fri May 23 2025 10:52:57 GMT-0500 (Central Daylight Time),604592.8000000119,005_o_f_d_a.png,O,m,1628,9,1,2509.5999999940395,602083.2000000179,7150,VNB,B,7
4,prac,2,0.0,2-Back,1,m,Fri May 23 2025 10:52:57 GMT-0500 (Central Daylight Time),606974.900000006,007_m_m_h_a.png,O,m,1608,10,1,2374.0,604600.900000006,7150,VNB,B,8
5,prac,2,1.0,2-Back,1,z,Fri May 23 2025 10:52:57 GMT-0500 (Central Daylight Time),609157.0,020_y_f_d_a.png,O,z,1299,11,1,2173.0999999940395,606983.900000006,7150,VNB,B,9
6,prac,2,0.0,2-Back,1,m,Fri May 23 2025 10:52:57 GMT-0500 (Central Daylight Time),611572.5,004_o_m_n_a.png,O,m,1534,12,1,2408.0999999940395,609164.400000006,7150,VNB,B,10
0,test,1,0.0,2-Back,,,Fri May 23 2025 10:52:57 GMT-0500 (Central Daylight Time),611572.5,016_y_m_h_a.png,O,space,8375,1,1,2408.0999999940395,609164.400000006,7150,VNB,B,0
0,test,1,0.0,2-Back,,,Fri May 23 2025 10:52:57 GMT-0500 (Central Daylight Time),611572.5,005_o_f_n_a.png,O,space,8375,2,1,2408.0999999940395,609164.400000006,7150,VNB,B,0
1,test,1,0.0,2-Back,1,z,Fri May 23 2025 10:52:57 GMT-0500 (Central Daylight Time),632333.5,004_o_m_h_a.png,O,z,953,3,1,1973.7999999821186,630359.7000000179,7150,VNB,B,1
1,test,1,0.0,2-Back,0,m,Fri May 23 2025 10:52:57 GMT-0500 (Central Daylight Time),634634.3000000119,011_m_f_d_a.png,O,z,1283,4,1,2293.2000000178814,632341.099999994,7150,VNB,B,2
2,test,1,1.0,2-Back,1,m,Fri May 23 2025 10:52:57 GMT-0500 (Central Daylight Time),636948.599999994,016_y_m_n_a.png,O,m,1296,5,1,2306.0999999940395,634642.5,7150,VNB,B,3
3,test,1,0.0,2-Back,1,z,Fri May 23 2025 10:52:57 GMT-0500 (Central Daylight Time),639499.599999994,020_y_f_d_a.png,O,z,1535,6,1,2544.199999988079,636955.400000006,7150,VNB,B,4
3,test,1,0.0,2-Back,0,m,Fri May 23 2025 10:52:57 GMT-0500 (Central Daylight Time),641331.3000000119,007_m_m_h_a.png,O,z,816,7,1,1826.9000000059605,639504.400000006,7150,VNB,B,5
3,test,1,1.0,2-Back,0,m,Fri May 23 2025 10:52:57 GMT-0500 (Central Daylight Time),644079.099999994,020_y_f_n_a.png,O,z,1726,8,1,2740.5999999940395,641338.5,7150,VNB,B,6
3,test,1,0.0,2-Back,0,z,Fri May 23 2025 10:52:57 GMT-0500 (Central Daylight Time),646727.5,005_o_f_h_a.png,O,m,1623,9,1,2642.2999999821186,644085.2000000179,7150,VNB,B,7
4,test,1,0.0,2-Back,1,m,Fri May 23 2025 10:52:57 GMT-0500 (Central Daylight Time),649043.5,004_o_m_d_a.png,O,m,1296,10,1,2309.699999988079,646733.8000000119,7150,VNB,B,8
4,test,1,1.0,2-Back,0,m,Fri May 23 2025 10:52:57 GMT-0500 (Central Daylight Time),652077.7000000179,007_m_m_d_a.png,O,None,2016,11,1,3029.2000000178814,649048.5,7150,VNB,B,9
5,test,1,0.0,2-Back,1,m,Fri May 23 2025 10:52:57 GMT-0500 (Central Daylight Time),654476.599999994,011_m_f_n_a.png,O,m,1383,12,1,2392.199999988079,652084.400000006,7150,VNB,B,10
5,test,1,0.0,2-Back,0,m,Fri May 23 2025 10:52:57 GMT-0500 (Central Daylight Time),656891.7000000179,020_y_f_h_a.png,O,z,1389,13,1,2407.5,654484.2000000179,7150,VNB,B,11
5,test,1,0.0,2-Back,0,z,Fri May 23 2025 10:52:57 GMT-0500 (Central Daylight Time),659389.599999994,007_m_m_n_a.png,O,m,1467,14,1,2490.2999999821186,656899.3000000119,7150,VNB,B,12
6,test,1,0.0,2-Back,1,m,Fri May 23 2025 10:52:57 GMT-0500 (Central Daylight Time),661840.3000000119,016_y_m_d_a.png,O,m,1417,15,1,2445.5,659394.8000000119,7150,VNB,B,13
6,test,1,1.0,2-Back,0,m,Fri May 23 2025 10:52:57 GMT-0500 (Central Daylight Time),664023.7000000179,011_m_f_h_a.png,O,z,1152,16,1,2175.0,661848.7000000179,7150,VNB,B,14
6,test,1,0.0,2-Back,0,z,Fri May 23 2025 10:52:57 GMT-0500 (Central Daylight Time),666723.900000006,005_o_f_d_a.png,O,m,1683,17,1,2692.9000000059605,664031.0,7150,VNB,B,15
6,test,1,0.0,2-Back,0,m,Fri May 23 2025 10:52:57 GMT-0500 (Central Daylight Time),669287.900000006,004_o_m_n_a.png,O,z,1543,18,1,2556.9000000059605,666731.0,7150,VNB,B,16
0,test,2,0.0,2-Back,,,Fri May 23 2025 10:52:57 GMT-0500 (Central Daylight Time),669287.900000006,007_m_m_h_a.png,O,space,2049,1,1,2556.9000000059605,666731.0,7150,VNB,B,0
0,test,2,0.0,2-Back,,,Fri May 23 2025 10:52:57 GMT-0500 (Central Daylight Time),669287.900000006,020_y_f_n_a.png,O,space,2049,2,1,2556.9000000059605,666731.0,7150,VNB,B,0
1,test,2,1.0,2-Back,1,z,Fri May 23 2025 10:52:57 GMT-0500 (Central Daylight Time),679084.900000006,005_o_f_h_a.png,O,z,1470,3,1,2493.0,676591.900000006,7150,VNB,B,1
1,test,2,0.0,2-Back,0,m,Fri May 23 2025 10:52:57 GMT-0500 (Central Daylight Time),682116.5,004_o_m_d_a.png,O,None,2015,4,1,3024.199999988079,679092.3000000119,7150,VNB,B,2
2,test,2,0.0,2-Back,1,m,Fri May 23 2025 10:52:57 GMT-0500 (Central Daylight Time),684582.5,011_m_f_d_a.png,O,m,1435,5,1,2458.2999999821186,682124.2000000179,7150,VNB,B,3
2,test,2,0.0,2-Back,0,m,Fri May 23 2025 10:52:57 GMT-0500 (Central Daylight Time),687216.099999994,016_y_m_h_a.png,O,z,1602,6,1,2626.0,684590.099999994,7150,VNB,B,4
3,test,2,0.0,2-Back,1,m,Fri May 23 2025 10:52:57 GMT-0500 (Central Daylight Time),689749.0,005_o_f_n_a.png,O,m,1504,7,1,2526.9000000059605,687222.099999994,7150,VNB,B,5
3,test,2,1.0,2-Back,0,z,Fri May 23 2025 10:52:57 GMT-0500 (Central Daylight Time),691796.900000006,004_o_m_h_a.png,O,m,1027,8,1,2040.800000011921,689756.099999994,7150,VNB,B,6
4,test,2,0.0,2-Back,1,m,Fri May 23 2025 10:52:57 GMT-0500 (Central Daylight Time),694629.599999994,020_y_f_d_a.png,O,m,1811,9,1,2825.5,691804.099999994,7150,VNB,B,7
5,test,2,0.0,2-Back,1,m,Fri May 23 2025 10:52:57 GMT-0500 (Central Daylight Time),696629.099999994,016_y_m_d_a.png,O,m,980,10,1,1991.0999999940395,694638.0,7150,VNB,B,8
5,test,2,0.0,2-Back,0,m,Fri May 23 2025 10:52:57 GMT-0500 (Central Daylight Time),698778.5,007_m_m_n_a.png,O,z,1124,11,1,2142.0,696636.5,7150,VNB,B,9
6,test,2,0.0,2-Back,1,m,Fri May 23 2025 10:52:57 GMT-0500 (Central Daylight Time),700977.8000000119,011_m_f_h_a.png,O,m,1174,12,1,2191.0,698786.8000000119,7150,VNB,B,10
7,test,2,1.0,2-Back,1,z,Fri May 23 2025 10:52:57 GMT-0500 (Central Daylight Time),702961.2000000179,004_o_m_n_a.png,O,z,967,13,1,1976.0,700985.2000000179,7150,VNB,B,11
7,test,2,0.0,2-Back,0,m,Fri May 23 2025 10:52:57 GMT-0500 (Central Daylight Time),705842.8000000119,005_o_f_d_a.png,O,z,1855,14,1,2877.2000000178814,702965.599999994,7150,VNB,B,12
8,test,2,0.0,2-Back,1,m,Fri May 23 2025 10:52:57 GMT-0500 (Central Daylight Time),708643.5,020_y_f_h_a.png,O,m,1783,15,1,2791.7999999821186,705851.7000000179,7150,VNB,B,13
8,test,2,0.0,2-Back,0,z,Fri May 23 2025 10:52:57 GMT-0500 (Central Daylight Time),711208.2000000179,007_m_m_d_a.png,O,m,1542,16,1,2557.2000000178814,708651.0,7150,VNB,B,14
9,test,2,0.0,2-Back,1,m,Fri May 23 2025 10:52:57 GMT-0500 (Central Daylight Time),713590.8000000119,016_y_m_n_a.png,O,m,1360,17,1,2373.4000000059605,711217.400000006,7150,VNB,B,15
10,test,2,1.0,2-Back,1,m,Fri May 23 2025 10:52:57 GMT-0500 (Central Daylight Time),715873.400000006,011_m_f_n_a.png,O,m,1256,18,1,2275.300000011921,713598.099999994,7150,VNB,B,16
0,test,3,1.0,2-Back,,,Fri May 23 2025 10:52:57 GMT-0500 (Central Daylight Time),715873.400000006,004_o_m_n_a.png,O,space,1484,1,1,2275.300000011921,713598.099999994,7150,VNB,B,0
0,test,3,1.0,2-Back,,,Fri May 23 2025 10:52:57 GMT-0500 (Central Daylight Time),715873.400000006,005_o_f_d_a.png,O,space,1484,2,1,2275.300000011921,713598.099999994,7150,VNB,B,0
1,test,3,0.0,2-Back,1,m,Fri May 23 2025 10:52:57 GMT-0500 (Central Daylight Time),724837.400000006,020_y_f_h_a.png,O,m,1385,3,1,2405.9000000059605,722431.5,7150,VNB,B,1
1,test,3,0.0,2-Back,0,z,Fri May 23 2025 10:52:57 GMT-0500 (Central Daylight Time),726970.5,011_m_f_d_a.png,O,m,1102,4,1,2125.199999988079,724845.3000000119,7150,VNB,B,2
2,test,3,1.0,2-Back,1,m,Fri May 23 2025 10:52:57 GMT-0500 (Central Daylight Time),728918.5,016_y_m_n_a.png,O,m,927,5,1,1941.4000000059605,726977.099999994,7150,VNB,B,3
2,test,3,0.0,2-Back,0,m,Fri May 23 2025 10:52:57 GMT-0500 (Central Daylight Time),731051.3000000119,004_o_m_h_a.png,O,z,1115,6,1,2126.300000011921,728925.0,7150,VNB,B,4
2,test,3,0.0,2-Back,0,z,Fri May 23 2025 10:52:57 GMT-0500 (Central Daylight Time),733317.5,020_y_f_n_a.png,O,m,1245,7,1,2259.699999988079,731057.8000000119,7150,VNB,B,5
3,test,3,1.0,2-Back,1,m,Fri May 23 2025 10:52:57 GMT-0500 (Central Daylight Time),735083.8000000119,007_m_m_d_a.png,O,m,749,8,1,1759.0,733324.8000000119,7150,VNB,B,6
3,test,3,0.0,2-Back,0,m,Fri May 23 2025 10:52:57 GMT-0500 (Central Daylight Time),737432.7000000179,016_y_m_d_a.png,O,z,1325,9,1,2342.9000000059605,735089.8000000119,7150,VNB,B,7
4,test,3,0.0,2-Back,1,m,Fri May 23 2025 10:52:57 GMT-0500 (Central Daylight Time),739132.099999994,005_o_f_h_a.png,O,m,681,10,1,1693.199999988079,737438.900000006,7150,VNB,B,8
5,test,3,1.0,2-Back,1,m,Fri May 23 2025 10:52:57 GMT-0500 (Central Daylight Time),741514.3000000119,011_m_f_n_a.png,O,m,1354,11,1,2375.7000000178814,739138.599999994,7150,VNB,B,9
6,test,3,1.0,2-Back,1,z,Fri May 23 2025 10:52:57 GMT-0500 (Central Daylight Time),743114.7000000179,007_m_m_h_a.png,O,z,573,12,1,1594.1000000238419,741520.599999994,7150,VNB,B,10
6,test,3,0.0,2-Back,0,m,Fri May 23 2025 10:52:57 GMT-0500 (Central Daylight Time),745779.900000006,020_y_f_d_a.png,O,z,1631,13,1,2656.9000000059605,743123.0,7150,VNB,B,11
7,test,3,0.0,2-Back,1,m,Fri May 23 2025 10:52:57 GMT-0500 (Central Daylight Time),747880.2000000179,005_o_f_n_a.png,O,m,1068,14,1,2091.7000000178814,745788.5,7150,VNB,B,12
7,test,3,0.0,2-Back,0,z,Fri May 23 2025 10:52:57 GMT-0500 (Central Daylight Time),750028.3000000119,004_o_m_d_a.png,O,m,1119,15,1,2139.5,747888.8000000119,7150,VNB,B,13
7,test,3,1.0,2-Back,0,m,Fri May 23 2025 10:52:57 GMT-0500 (Central Daylight Time),752461.3000000119,011_m_f_h_a.png,O,z,1412,16,1,2425.5,750035.8000000119,7150,VNB,B,14
8,test,3,0.0,2-Back,1,m,Fri May 23 2025 10:52:57 GMT-0500 (Central Daylight Time),754694.099999994,007_m_m_n_a.png,O,m,1212,17,1,2225.199999988079,752468.900000006,7150,VNB,B,15
9,test,3,0.0,2-Back,1,z,Fri May 23 2025 10:52:57 GMT-0500 (Central Daylight Time),756943.7000000179,016_y_m_h_a.png,O,z,1225,18,1,2247.2000000178814,754696.5,7150,VNB,B,16
0,test,4,0.0,2-Back,,,Fri May 23 2025 10:52:57 GMT-0500 (Central Daylight Time),756943.7000000179,011_m_f_n_a.png,O,space,1416,1,1,2247.2000000178814,754696.5,7150,VNB,B,0
0,test,4,0.0,2-Back,,,Fri May 23 2025 10:52:57 GMT-0500 (Central Daylight Time),756943.7000000179,004_o_m_n_a.png,O,space,1416,2,1,2247.2000000178814,754696.5,7150,VNB,B,0
1,test,4,1.0,2-Back,1,m,Fri May 23 2025 10:52:57 GMT-0500 (Central Daylight Time),765475.099999994,016_y_m_h_a.png,O,m,851,3,1,1859.199999988079,763615.900000006,7150,VNB,B,1
1,test,4,1.0,2-Back,0,m,Fri May 23 2025 10:52:57 GMT-0500 (Central Daylight Time),768272.599999994,005_o_f_d_a.png,O,z,1773,4,1,2791.899999976158,765480.7000000179,7150,VNB,B,2
2,test,4,0.0,2-Back,1,z,Fri May 23 2025 10:52:57 GMT-0500 (Central Daylight Time),770538.5,004_o_m_h_a.png,O,z,1240,5,1,2259.199999988079,768279.3000000119,7150,VNB,B,3
3,test,4,0.0,2-Back,1,m,Fri May 23 2025 10:52:57 GMT-0500 (Central Daylight Time),772605.3000000119,007_m_m_n_a.png,O,m,1045,6,1,2059.5,770545.8000000119,7150,VNB,B,4
4,test,4,0.0,2-Back,1,m,Fri May 23 2025 10:52:57 GMT-0500 (Central Daylight Time),775087.0,011_m_f_d_a.png,O,m,1460,7,1,2478.0,772609.0,7150,VNB,B,5
4,test,4,0.0,2-Back,0,z,Fri May 23 2025 10:52:57 GMT-0500 (Central Daylight Time),777585.7000000179,020_y_f_n_a.png,O,m,1474,8,1,2492.600000023842,775093.099999994,7150,VNB,B,6
4,test,4,1.0,2-Back,0,m,Fri May 23 2025 10:52:57 GMT-0500 (Central Daylight Time),779220.400000006,005_o_f_h_a.png,O,z,616,9,1,1627.9000000059605,777592.5,7150,VNB,B,7
5,test,4,0.0,2-Back,1,m,Fri May 23 2025 10:52:57 GMT-0500 (Central Daylight Time),781586.8000000119,007_m_m_h_a.png,O,m,1349,10,1,2357.5,779229.3000000119,7150,VNB,B,8
6,test,4,0.0,2-Back,1,m,Fri May 23 2025 10:52:57 GMT-0500 (Central Daylight Time),784133.7000000179,020_y_f_d_a.png,O,m,1526,11,1,2541.7000000178814,781592.0,7150,VNB,B,9
7,test,4,0.0,2-Back,1,m,Fri May 23 2025 10:52:57 GMT-0500 (Central Daylight Time),786649.8000000119,016_y_m_n_a.png,O,m,1496,12,1,2508.4000000059605,784141.400000006,7150,VNB,B,10
8,test,4,0.0,2-Back,1,z,Fri May 23 2025 10:52:57 GMT-0500 (Central Daylight Time),789365.7000000179,004_o_m_d_a.png,O,z,1694,13,1,2712.300000011921,786653.400000006,7150,VNB,B,11
9,test,4,1.0,2-Back,1,m,Fri May 23 2025 10:52:57 GMT-0500 (Central Daylight Time),791515.900000006,011_m_f_h_a.png,O,m,1121,14,1,2145.5,789370.400000006,7150,VNB,B,12
9,test,4,1.0,2-Back,0,m,Fri May 23 2025 10:52:57 GMT-0500 (Central Daylight Time),793397.599999994,020_y_f_h_a.png,O,z,863,15,1,1872.5999999940395,791525.0,7150,VNB,B,13
10,test,4,0.0,2-Back,1,m,Fri May 23 2025 10:52:57 GMT-0500 (Central Daylight Time),795231.3000000119,005_o_f_n_a.png,O,m,810,16,1,1828.5999999940395,793402.7000000179,7150,VNB,B,14
11,test,4,0.0,2-Back,1,m,Fri May 23 2025 10:52:57 GMT-0500 (Central Daylight Time),797414.2000000179,016_y_m_d_a.png,O,m,1154,17,1,2175.0,795239.2000000179,7150,VNB,B,15
12,test,4,1.0,2-Back,1,m,Fri May 23 2025 10:52:57 GMT-0500 (Central Daylight Time),800145.7000000179,007_m_m_d_a.png,O,m,1706,18,1,2721.2000000178814,797424.5,7150,VNB,B,16
0,test,5,1.0,2-Back,,,Fri May 23 2025 10:52:57 GMT-0500 (Central Daylight Time),800145.7000000179,020_y_f_d_a.png,O,space,1518,1,1,2721.2000000178814,797424.5,7150,VNB,B,0
0,test,5,1.0,2-Back,,,Fri May 23 2025 10:52:57 GMT-0500 (Central Daylight Time),800145.7000000179,005_o_f_h_a.png,O,space,1518,2,1,2721.2000000178814,797424.5,7150,VNB,B,0
1,test,5,1.0,2-Back,1,z,Fri May 23 2025 10:52:57 GMT-0500 (Central Daylight Time),809178.400000006,004_o_m_d_a.png,O,z,1231,3,1,2263.0,806915.400000006,7150,VNB,B,1
2,test,5,1.0,2-Back,1,m,Fri May 23 2025 10:52:57 GMT-0500 (Central Daylight Time),811476.3000000119,011_m_f_n_a.png,O,m,1270,4,1,2290.300000011921,809186.0,7150,VNB,B,2
2,test,5,0.0,2-Back,0,m,Fri May 23 2025 10:52:57 GMT-0500 (Central Daylight Time),813259.400000006,007_m_m_h_a.png,O,z,767,5,1,1774.800000011921,811484.599999994,7150,VNB,B,3
2,test,5,0.0,2-Back,0,z,Fri May 23 2025 10:52:57 GMT-0500 (Central Daylight Time),815175.8000000119,020_y_f_n_a.png,O,m,884,6,1,1910.0999999940395,813265.7000000179,7150,VNB,B,4
2,test,5,0.0,2-Back,0,m,Fri May 23 2025 10:52:57 GMT-0500 (Central Daylight Time),818173.5,005_o_f_d_a.png,O,z,1968,7,1,2989.5,815184.0,7150,VNB,B,5
3,test,5,0.0,2-Back,1,m,Fri May 23 2025 10:52:57 GMT-0500 (Central Daylight Time),820539.8000000119,004_o_m_h_a.png,O,m,1350,8,1,2358.800000011921,818181.0,7150,VNB,B,6
3,test,5,1.0,2-Back,0,z,Fri May 23 2025 10:52:57 GMT-0500 (Central Daylight Time),822922.099999994,011_m_f_d_a.png,O,m,1356,9,1,2375.0999999940395,820547.0,7150,VNB,B,7
3,test,5,0.0,2-Back,0,m,Fri May 23 2025 10:52:57 GMT-0500 (Central Daylight Time),825939.599999994,016_y_m_n_a.png,O,None,2001,10,1,3012.0,822927.599999994,7150,VNB,B,8
3,test,5,0.0,2-Back,0,m,Fri May 23 2025 10:52:57 GMT-0500 (Central Daylight Time),828970.7000000179,007_m_m_n_a.png,O,None,2016,11,1,3024.800000011921,825945.900000006,7150,VNB,B,9
3,test,5,0.0,2-Back,0,m,Fri May 23 2025 10:52:57 GMT-0500 (Central Daylight Time),831203.400000006,020_y_f_h_a.png,O,z,1206,12,1,2225.199999988079,828978.2000000179,7150,VNB,B,10
4,test,5,0.0,2-Back,1,m,Fri May 23 2025 10:52:57 GMT-0500 (Central Daylight Time),833436.900000006,016_y_m_d_a.png,O,m,1205,13,1,2227.4000000059605,831209.5,7150,VNB,B,11
4,test,5,1.0,2-Back,0,z,Fri May 23 2025 10:52:57 GMT-0500 (Central Daylight Time),835184.8000000119,011_m_f_h_a.png,O,m,725,14,1,1741.5,833443.3000000119,7150,VNB,B,12
4,test,5,0.0,2-Back,0,m,Fri May 23 2025 10:52:57 GMT-0500 (Central Daylight Time),837617.599999994,004_o_m_n_a.png,O,z,1408,15,1,2424.0999999940395,835193.5,7150,VNB,B,13
5,test,5,0.0,2-Back,1,m,Fri May 23 2025 10:52:57 GMT-0500 (Central Daylight Time),839418.7000000179,007_m_m_d_a.png,O,m,768,16,1,1795.2000000178814,837623.5,7150,VNB,B,14
6,test,5,0.0,2-Back,1,z,Fri May 23 2025 10:52:57 GMT-0500 (Central Daylight Time),841583.3000000119,005_o_f_n_a.png,O,z,1142,17,1,2157.7000000178814,839425.599999994,7150,VNB,B,15
7,test,5,1.0,2-Back,1,m,Fri May 23 2025 10:52:57 GMT-0500 (Central Daylight Time),843783.3000000119,016_y_m_h_a.png,O,m,1169,18,1,2193.4000000059605,841589.900000006,7150,VNB,B,16
