acc_sum,block,block_c,block_cond,con_img,correct,correct_response,datetime,endtime,face,jitter,line,project,response,response_time,row_sel,session_number,start_end,starttime,subject_id,task,task_vers,trial
1,prac,1,A,haborder.png,1,m,Wed Sep 17 2025 13:47:21 GMT-0500 (Central Daylight Time),30631.900000095367,CFD-BF-035-007-HC.jpg,2000,solid,O,m,465,5,1,3249.4000000953674,27382.5,9999,ATS,B,1
2,prac,1,A,haborder.png,1,m,Wed Sep 17 2025 13:47:21 GMT-0500 (Central Daylight Time),33230.59999990463,CFD-WM-011-006-HC.jpg,1400,solid,O,m,407,7,1,5848.099999904633,27382.5,9999,ATS,B,2
3,prac,1,A,haborder.png,1,z,Wed Sep 17 2025 13:47:21 GMT-0500 (Central Daylight Time),35414.200000047684,CFD-BF-051-043-A.jpg,1000,solid,O,z,392,4,1,8031.700000047684,27382.5,9999,ATS,B,3
3,prac,1,A,haborder.png,0,z,Wed Sep 17 2025 13:47:21 GMT-0500 (Central Daylight Time),38212.5,CFD-BM-037-041-A.jpg,1600,solid,O,m,402,2,1,10830.0,27382.5,9999,ATS,B,4
4,prac,1,A,haborder.png,1,m,Wed Sep 17 2025 13:47:21 GMT-0500 (Central Daylight Time),41144.90000009537,CFD-WF-011-006-HC.jpg,1500,solid,O,m,647,11,1,13762.400000095367,27382.5,9999,ATS,B,5
5,prac,1,A,haborder.png,1,m,Wed Sep 17 2025 13:47:21 GMT-0500 (Central Daylight Time),44177.299999952316,CFD-BM-015-017-HC.jpg,1700,solid,O,m,538,1,1,16794.799999952316,27382.5,9999,ATS,B,6
6,prac,1,A,haborder.png,1,z,Wed Sep 17 2025 13:47:21 GMT-0500 (Central Daylight Time),46576.59999990463,CFD-BF-050-012-A.jpg,1200,solid,O,z,405,6,1,19194.099999904633,27382.5,9999,ATS,B,7
7,prac,1,A,haborder.png,1,m,Wed Sep 17 2025 13:47:21 GMT-0500 (Central Daylight Time),49425.700000047684,CFD-BM-020-024-HC.jpg,1500,solid,O,m,555,3,1,22043.200000047684,27382.5,9999,ATS,B,8
8,prac,1,A,haborder.png,1,z,Wed Sep 17 2025 13:47:21 GMT-0500 (Central Daylight Time),52374.59999990463,CFD-WF-026-008-A.jpg,1600,solid,O,z,566,10,1,24992.099999904633,27382.5,9999,ATS,B,9
9,prac,1,A,haborder.png,1,m,Wed Sep 17 2025 13:47:21 GMT-0500 (Central Daylight Time),55273.90000009537,CFD-WM-012-007-HC.jpg,1700,solid,O,m,405,9,1,27891.400000095367,27382.5,9999,ATS,B,10
10,prac,1,A,haborder.png,1,z,Wed Sep 17 2025 13:47:21 GMT-0500 (Central Daylight Time),58522.59999990463,CFD-WM-009-009-A.jpg,1900,solid,O,z,562,8,1,31140.099999904633,27382.5,9999,ATS,B,11
11,prac,1,A,haborder.png,1,z,Wed Sep 17 2025 13:47:21 GMT-0500 (Central Daylight Time),61038.700000047684,CFD-WF-013-015-A.jpg,1000,solid,O,z,732,12,1,33656.200000047684,27382.5,9999,ATS,B,12
1,prac,1,B,mfborder.png,1,z,Wed Sep 17 2025 13:47:21 GMT-0500 (Central Daylight Time),78899.79999995232,CFD-BF-051-043-A.jpg,1000,dash,O,z,503,4,1,2299.0,76600.79999995232,9999,ATS,B,1
2,prac,1,B,mfborder.png,1,m,Wed Sep 17 2025 13:47:21 GMT-0500 (Central Daylight Time),81799.0,CFD-BM-020-024-HC.jpg,1700,dash,O,m,407,1,1,5198.200000047684,76600.79999995232,9999,ATS,B,2
3,prac,1,B,mfborder.png,1,z,Wed Sep 17 2025 13:47:21 GMT-0500 (Central Daylight Time),84631.0,CFD-WF-026-008-A.jpg,1500,dash,O,z,533,11,1,8030.200000047684,76600.79999995232,9999,ATS,B,3
4,prac,1,B,mfborder.png,1,z,Wed Sep 17 2025 13:47:21 GMT-0500 (Central Daylight Time),86964.20000004768,CFD-WF-011-006-HC.jpg,1000,dash,O,z,544,12,1,10363.400000095367,76600.79999995232,9999,ATS,B,4
4,prac,1,B,mfborder.png,0,z,Wed Sep 17 2025 13:47:21 GMT-0500 (Central Daylight Time),89546.29999995232,CFD-BF-035-007-HC.jpg,1400,dash,O,m,396,7,1,12945.5,76600.79999995232,9999,ATS,B,5
5,prac,1,B,mfborder.png,1,m,Wed Sep 17 2025 13:47:21 GMT-0500 (Central Daylight Time),92262.29999995232,CFD-BM-041-048-A.jpg,1600,dash,O,m,317,2,1,15661.5,76600.79999995232,9999,ATS,B,6
6,prac,1,B,mfborder.png,1,m,Wed Sep 17 2025 13:47:21 GMT-0500 (Central Daylight Time),95311.20000004768,CFD-WM-009-009-A.jpg,1700,dash,O,m,557,9,1,18710.400000095367,76600.79999995232,9999,ATS,B,7
7,prac,1,B,mfborder.png,1,z,Wed Sep 17 2025 13:47:21 GMT-0500 (Central Daylight Time),98110.5,CFD-BF-027-013-HC.jpg,1500,dash,O,z,501,3,1,21509.700000047684,76600.79999995232,9999,ATS,B,8
8,prac,1,B,mfborder.png,1,m,Wed Sep 17 2025 13:47:21 GMT-0500 (Central Daylight Time),101359.29999995232,CFD-BM-037-041-A.jpg,2000,dash,O,m,457,5,1,24758.5,76600.79999995232,9999,ATS,B,9
9,prac,1,B,mfborder.png,1,z,Wed Sep 17 2025 13:47:21 GMT-0500 (Central Daylight Time),104508.5,CFD-WF-027-007-HC.jpg,1900,dash,O,z,452,8,1,27907.700000047684,76600.79999995232,9999,ATS,B,10
10,prac,1,B,mfborder.png,1,m,Wed Sep 17 2025 13:47:21 GMT-0500 (Central Daylight Time),107241.0,CFD-WM-037-060-A.jpg,1200,dash,O,m,739,6,1,30640.200000047684,76600.79999995232,9999,ATS,B,11
11,prac,1,B,mfborder.png,1,m,Wed Sep 17 2025 13:47:21 GMT-0500 (Central Daylight Time),110339.79999995232,CFD-WM-012-007-HC.jpg,1600,dash,O,m,710,10,1,33739.0,76600.79999995232,9999,ATS,B,12
0,test,1,A,haborder.png,0,m,Wed Sep 17 2025 13:47:21 GMT-0500 (Central Daylight Time),126268.09999990463,CFD-WM-012-007-HC.jpg,1700,solid,O,z,321,9,1,2049.2999999523163,124218.79999995232,9999,ATS,B,1
0,test,1,A,haborder.png,0,m,Wed Sep 17 2025 13:47:21 GMT-0500 (Central Daylight Time),128584.09999990463,CFD-BF-035-007-HC.jpg,2000,solid,O,z,299,5,1,4365.299999952316,124218.79999995232,9999,ATS,B,2
0,test,1,A,haborder.png,0,m,Wed Sep 17 2025 13:47:21 GMT-0500 (Central Daylight Time),130333.90000009537,CFD-WM-011-006-HC.jpg,1400,solid,O,z,320,7,1,6115.100000143051,124218.79999995232,9999,ATS,B,3
1,test,1,A,haborder.png,1,z,Wed Sep 17 2025 13:47:21 GMT-0500 (Central Daylight Time),132616.20000004768,CFD-WM-009-009-A.jpg,1900,solid,O,z,358,8,1,8397.400000095367,124218.79999995232,9999,ATS,B,4
1,test,1,A,haborder.png,0,m,Wed Sep 17 2025 13:47:21 GMT-0500 (Central Daylight Time),134632.09999990463,CFD-WM-012-007-HC.jpg,1700,solid,O,z,299,9,1,10413.299999952316,124218.79999995232,9999,ATS,B,5
1,test,1,A,haborder.png,0,m,Wed Sep 17 2025 13:47:21 GMT-0500 (Central Daylight Time),136314.90000009537,CFD-WM-011-006-HC.jpg,1400,solid,O,z,255,7,1,12096.100000143051,124218.79999995232,9999,ATS,B,6
2,test,1,A,haborder.png,1,z,Wed Sep 17 2025 13:47:21 GMT-0500 (Central Daylight Time),138414.29999995232,CFD-WF-026-008-A.jpg,1600,solid,O,z,467,10,1,14195.5,124218.79999995232,9999,ATS,B,7
2,test,1,A,haborder.png,0,m,Wed Sep 17 2025 13:47:21 GMT-0500 (Central Daylight Time),141946.90000009537,CFD-BF-035-007-HC.jpg,2000,solid,O,None,1516,5,1,17728.10000014305,124218.79999995232,9999,ATS,B,8
3,test,1,A,haborder.png,1,z,Wed Sep 17 2025 13:47:21 GMT-0500 (Central Daylight Time),143446.09999990463,CFD-BF-050-012-A.jpg,1200,solid,O,z,277,6,1,19227.299999952316,124218.79999995232,9999,ATS,B,9
4,test,1,A,haborder.png,1,z,Wed Sep 17 2025 13:47:21 GMT-0500 (Central Daylight Time),145495.59999990463,CFD-WF-026-008-A.jpg,1600,solid,O,z,425,10,1,21276.799999952316,124218.79999995232,9999,ATS,B,10
4,test,1,A,haborder.png,0,m,Wed Sep 17 2025 13:47:21 GMT-0500 (Central Daylight Time),147594.79999995232,CFD-BM-015-017-HC.jpg,1700,solid,O,z,380,1,1,23376.0,124218.79999995232,9999,ATS,B,11
4,test,1,A,haborder.png,0,m,Wed Sep 17 2025 13:47:21 GMT-0500 (Central Daylight Time),149444.5,CFD-WF-011-006-HC.jpg,1500,solid,O,z,329,11,1,25225.700000047684,124218.79999995232,9999,ATS,B,12
5,test,1,A,haborder.png,1,z,Wed Sep 17 2025 13:47:21 GMT-0500 (Central Daylight Time),151610.40000009537,CFD-WM-009-009-A.jpg,1900,solid,O,z,240,8,1,27391.60000014305,124218.79999995232,9999,ATS,B,13
6,test,1,A,haborder.png,1,z,Wed Sep 17 2025 13:47:21 GMT-0500 (Central Daylight Time),153126.40000009537,CFD-BF-051-043-A.jpg,1000,solid,O,z,493,4,1,28907.60000014305,124218.79999995232,9999,ATS,B,14
7,test,1,A,haborder.png,1,z,Wed Sep 17 2025 13:47:21 GMT-0500 (Central Daylight Time),154792.59999990463,CFD-BF-050-012-A.jpg,1200,solid,O,z,434,6,1,30573.799999952316,124218.79999995232,9999,ATS,B,15
8,test,1,A,haborder.png,1,z,Wed Sep 17 2025 13:47:21 GMT-0500 (Central Daylight Time),156775.29999995232,CFD-BM-037-041-A.jpg,1600,solid,O,z,359,2,1,32556.5,124218.79999995232,9999,ATS,B,16
8,test,1,A,haborder.png,0,m,Wed Sep 17 2025 13:47:21 GMT-0500 (Central Daylight Time),158524.40000009537,CFD-WF-011-006-HC.jpg,1500,solid,O,z,220,11,1,34305.60000014305,124218.79999995232,9999,ATS,B,17
9,test,1,A,haborder.png,1,z,Wed Sep 17 2025 13:47:21 GMT-0500 (Central Daylight Time),159974.20000004768,CFD-WF-013-015-A.jpg,1000,solid,O,z,427,12,1,35755.40000009537,124218.79999995232,9999,ATS,B,18
10,test,1,A,haborder.png,1,z,Wed Sep 17 2025 13:47:21 GMT-0500 (Central Daylight Time),161706.90000009537,CFD-WF-013-015-A.jpg,1000,solid,O,z,713,12,1,37488.10000014305,124218.79999995232,9999,ATS,B,19
11,test,1,A,haborder.png,1,z,Wed Sep 17 2025 13:47:21 GMT-0500 (Central Daylight Time),163423.20000004768,CFD-BF-051-043-A.jpg,1000,solid,O,z,692,4,1,39204.40000009537,124218.79999995232,9999,ATS,B,20
12,test,1,A,haborder.png,1,z,Wed Sep 17 2025 13:47:21 GMT-0500 (Central Daylight Time),165125.5,CFD-BM-037-041-A.jpg,1600,solid,O,z,78,2,1,40906.700000047684,124218.79999995232,9999,ATS,B,21
12,test,1,A,haborder.png,0,m,Wed Sep 17 2025 13:47:21 GMT-0500 (Central Daylight Time),166888.79999995232,CFD-BM-015-017-HC.jpg,1700,solid,O,z,17,1,1,42670.0,124218.79999995232,9999,ATS,B,22
12,test,1,A,haborder.png,0,m,Wed Sep 17 2025 13:47:21 GMT-0500 (Central Daylight Time),168755.0,CFD-BM-020-024-HC.jpg,1500,solid,O,z,346,3,1,44536.200000047684,124218.79999995232,9999,ATS,B,23
12,test,1,A,haborder.png,0,m,Wed Sep 17 2025 13:47:21 GMT-0500 (Central Daylight Time),170437.59999990463,CFD-BM-020-024-HC.jpg,1500,solid,O,z,161,3,1,46218.799999952316,124218.79999995232,9999,ATS,B,24
1,test,1,B,mfborder.png,1,z,Wed Sep 17 2025 13:47:21 GMT-0500 (Central Daylight Time),176935.70000004768,CFD-WF-026-008-A.jpg,1500,dash,O,z,577,11,1,2099.100000143051,174836.59999990463,9999,ATS,B,1
1,test,1,B,mfborder.png,0,m,Wed Sep 17 2025 13:47:21 GMT-0500 (Central Daylight Time),180067.70000004768,CFD-BM-041-048-A.jpg,1600,dash,O,None,1516,2,1,5231.100000143051,174836.59999990463,9999,ATS,B,2
1,test,1,B,mfborder.png,0,m,Wed Sep 17 2025 13:47:21 GMT-0500 (Central Daylight Time),182034.0,CFD-BM-020-024-HC.jpg,1700,dash,O,z,239,1,1,7197.400000095367,174836.59999990463,9999,ATS,B,3
1,test,1,B,mfborder.png,0,m,Wed Sep 17 2025 13:47:21 GMT-0500 (Central Daylight Time),183800.09999990463,CFD-WM-012-007-HC.jpg,1600,dash,O,z,150,10,1,8963.5,174836.59999990463,9999,ATS,B,4
2,test,1,B,mfborder.png,1,z,Wed Sep 17 2025 13:47:21 GMT-0500 (Central Daylight Time),185282.79999995232,CFD-WF-011-006-HC.jpg,1000,dash,O,z,463,12,1,10446.200000047684,174836.59999990463,9999,ATS,B,5
2,test,1,B,mfborder.png,0,m,Wed Sep 17 2025 13:47:21 GMT-0500 (Central Daylight Time),188115.20000004768,CFD-WM-009-009-A.jpg,1700,dash,O,z,1105,9,1,13278.600000143051,174836.59999990463,9999,ATS,B,6
2,test,1,B,mfborder.png,0,m,Wed Sep 17 2025 13:47:21 GMT-0500 (Central Daylight Time),190414.59999990463,CFD-BM-037-041-A.jpg,2000,dash,O,z,267,5,1,15578.0,174836.59999990463,9999,ATS,B,7
2,test,1,B,mfborder.png,0,m,Wed Sep 17 2025 13:47:21 GMT-0500 (Central Daylight Time),192464.0,CFD-WM-012-007-HC.jpg,1600,dash,O,z,425,10,1,17627.400000095367,174836.59999990463,9999,ATS,B,8
3,test,1,B,mfborder.png,1,z,Wed Sep 17 2025 13:47:21 GMT-0500 (Central Daylight Time),193896.70000004768,CFD-BF-051-043-A.jpg,1000,dash,O,z,407,4,1,19060.10000014305,174836.59999990463,9999,ATS,B,9
4,test,1,B,mfborder.png,1,z,Wed Sep 17 2025 13:47:21 GMT-0500 (Central Daylight Time),195413.20000004768,CFD-BF-051-043-A.jpg,1000,dash,O,z,486,4,1,20576.60000014305,174836.59999990463,9999,ATS,B,10
4,test,1,B,mfborder.png,0,m,Wed Sep 17 2025 13:47:21 GMT-0500 (Central Daylight Time),196929.29999995232,CFD-WM-037-060-A.jpg,1200,dash,O,z,290,6,1,22092.700000047684,174836.59999990463,9999,ATS,B,11
5,test,1,B,mfborder.png,1,z,Wed Sep 17 2025 13:47:21 GMT-0500 (Central Daylight Time),199095.40000009537,CFD-WF-027-007-HC.jpg,1900,dash,O,z,242,8,1,24258.800000190735,174836.59999990463,9999,ATS,B,12
5,test,1,B,mfborder.png,0,m,Wed Sep 17 2025 13:47:21 GMT-0500 (Central Daylight Time),201244.40000009537,CFD-BM-041-048-A.jpg,1600,dash,O,z,528,2,1,26407.800000190735,174836.59999990463,9999,ATS,B,13
6,test,1,B,mfborder.png,1,z,Wed Sep 17 2025 13:47:21 GMT-0500 (Central Daylight Time),203643.59999990463,CFD-WF-027-007-HC.jpg,1900,dash,O,z,479,8,1,28807.0,174836.59999990463,9999,ATS,B,14
7,test,1,B,mfborder.png,1,z,Wed Sep 17 2025 13:47:21 GMT-0500 (Central Daylight Time),205160.0,CFD-WF-011-006-HC.jpg,1000,dash,O,z,490,12,1,30323.400000095367,174836.59999990463,9999,ATS,B,15
8,test,1,B,mfborder.png,1,z,Wed Sep 17 2025 13:47:21 GMT-0500 (Central Daylight Time),207009.5,CFD-BF-035-007-HC.jpg,1400,dash,O,z,431,7,1,32172.900000095367,174836.59999990463,9999,ATS,B,16
9,test,1,B,mfborder.png,1,z,Wed Sep 17 2025 13:47:21 GMT-0500 (Central Daylight Time),208825.90000009537,CFD-BF-027-013-HC.jpg,1500,dash,O,z,298,3,1,33989.300000190735,174836.59999990463,9999,ATS,B,17
10,test,1,B,mfborder.png,1,z,Wed Sep 17 2025 13:47:21 GMT-0500 (Central Daylight Time),210641.40000009537,CFD-BF-035-007-HC.jpg,1400,dash,O,z,398,7,1,35804.800000190735,174836.59999990463,9999,ATS,B,18
11,test,1,B,mfborder.png,1,z,Wed Sep 17 2025 13:47:21 GMT-0500 (Central Daylight Time),212557.90000009537,CFD-BF-027-013-HC.jpg,1500,dash,O,z,288,3,1,37721.300000190735,174836.59999990463,9999,ATS,B,19
11,test,1,B,mfborder.png,0,m,Wed Sep 17 2025 13:47:21 GMT-0500 (Central Daylight Time),214623.5,CFD-BM-020-024-HC.jpg,1700,dash,O,z,332,1,1,39786.90000009537,174836.59999990463,9999,ATS,B,20
11,test,1,B,mfborder.png,0,m,Wed Sep 17 2025 13:47:21 GMT-0500 (Central Daylight Time),216589.59999990463,CFD-WM-009-009-A.jpg,1700,dash,O,z,243,9,1,41753.0,174836.59999990463,9999,ATS,B,21
11,test,1,B,mfborder.png,0,m,Wed Sep 17 2025 13:47:21 GMT-0500 (Central Daylight Time),218872.09999990463,CFD-BM-037-041-A.jpg,2000,dash,O,z,257,5,1,44035.5,174836.59999990463,9999,ATS,B,22
12,test,1,B,mfborder.png,1,z,Wed Sep 17 2025 13:47:21 GMT-0500 (Central Daylight Time),220688.40000009537,CFD-WF-026-008-A.jpg,1500,dash,O,z,291,11,1,45851.800000190735,174836.59999990463,9999,ATS,B,23
12,test,1,B,mfborder.png,0,m,Wed Sep 17 2025 13:47:21 GMT-0500 (Central Daylight Time),222271.0,CFD-WM-037-060-A.jpg,1200,dash,O,z,351,6,1,47434.40000009537,174836.59999990463,9999,ATS,B,24
1,10,1,C,haborder.png,1,m,Wed Sep 17 2025 13:47:21 GMT-0500 (Central Daylight Time),232951.29999995232,CFD-BM-020-024-HC.jpg,1500,solid,O,m,649,prac,1,2932.7000000476837,230018.59999990463,9999,ATS,B,1
2,7,1,C,haborder.png,1,z,Wed Sep 17 2025 13:47:21 GMT-0500 (Central Daylight Time),236017.0,CFD-BF-051-043-A.jpg,1900,dash,O,z,371,prac,1,5998.400000095367,230018.59999990463,9999,ATS,B,2
3,1,1,C,mfborder.png,1,z,Wed Sep 17 2025 13:47:21 GMT-0500 (Central Daylight Time),238766.5,CFD-WF-011-006-HC.jpg,1600,dash,O,z,351,prac,1,8747.900000095367,230018.59999990463,9999,ATS,B,3
4,2,1,C,mfborder.png,1,z,Wed Sep 17 2025 13:47:21 GMT-0500 (Central Daylight Time),241582.0,CFD-WF-013-015-A.jpg,1500,solid,O,z,526,prac,1,11563.400000095367,230018.59999990463,9999,ATS,B,4
5,12,1,C,haborder.png,1,m,Wed Sep 17 2025 13:47:21 GMT-0500 (Central Daylight Time),244197.79999995232,CFD-WM-011-006-HC.jpg,1400,solid,O,m,426,prac,1,14179.200000047684,230018.59999990463,9999,ATS,B,5
6,4,1,C,mfborder.png,1,m,Wed Sep 17 2025 13:47:21 GMT-0500 (Central Daylight Time),247380.40000009537,CFD-BM-015-017-HC.jpg,2000,solid,O,m,394,prac,1,17361.800000190735,230018.59999990463,9999,ATS,B,6
7,8,1,C,haborder.png,1,z,Wed Sep 17 2025 13:47:21 GMT-0500 (Central Daylight Time),250429.5,CFD-BF-050-012-A.jpg,1700,solid,O,z,550,prac,1,20410.900000095367,230018.59999990463,9999,ATS,B,7
8,3,1,C,mfborder.png,1,z,Wed Sep 17 2025 13:47:21 GMT-0500 (Central Daylight Time),252728.59999990463,CFD-BF-035-007-HC.jpg,1000,dash,O,z,506,prac,1,22710.0,230018.59999990463,9999,ATS,B,8
9,5,1,C,mfborder.png,1,m,Wed Sep 17 2025 13:47:21 GMT-0500 (Central Daylight Time),255261.09999990463,CFD-BM-037-041-A.jpg,1200,dash,O,m,543,prac,1,25242.5,230018.59999990463,9999,ATS,B,9
10,11,1,C,haborder.png,1,m,Wed Sep 17 2025 13:47:21 GMT-0500 (Central Daylight Time),257593.5,CFD-WM-011-006-HC.jpg,1000,dash,O,m,546,prac,1,27574.900000095367,230018.59999990463,9999,ATS,B,10
11,6,1,C,mfborder.png,1,m,Wed Sep 17 2025 13:47:21 GMT-0500 (Central Daylight Time),260776.0,CFD-WM-009-009-A.jpg,1700,solid,O,m,609,prac,1,30757.400000095367,230018.59999990463,9999,ATS,B,11
12,9,1,C,haborder.png,1,z,Wed Sep 17 2025 13:47:21 GMT-0500 (Central Daylight Time),263741.7999999523,CFD-WF-026-008-A.jpg,1600,dash,O,z,577,prac,1,33723.200000047684,230018.59999990463,9999,ATS,B,12
0,test,1,C,haborder.png,0,m,Wed Sep 17 2025 13:47:21 GMT-0500 (Central Daylight Time),269190.0,CFD-BF-035-007-HC.jpg,1600,solid,O,z,993,10,1,2615.7999999523163,266574.2000000477,9999,ATS,B,1
0,test,1,C,mfborder.png,0,m,Wed Sep 17 2025 13:47:21 GMT-0500 (Central Daylight Time),271472.7999999523,CFD-WM-037-060-A.jpg,2000,dash,O,z,251,5,1,4898.599999904633,266574.2000000477,9999,ATS,B,2
1,test,1,C,mfborder.png,1,z,Wed Sep 17 2025 13:47:21 GMT-0500 (Central Daylight Time),273438.59999990463,CFD-BF-051-043-A.jpg,1600,dash,O,z,334,2,1,6864.399999856949,266574.2000000477,9999,ATS,B,3
2,test,1,C,haborder.png,1,z,Wed Sep 17 2025 13:47:21 GMT-0500 (Central Daylight Time),275687.7000000477,CFD-BM-037-041-A.jpg,1900,solid,O,z,333,8,1,9113.5,266574.2000000477,9999,ATS,B,4
2,test,1,C,haborder.png,0,m,Wed Sep 17 2025 13:47:21 GMT-0500 (Central Daylight Time),277171.0,CFD-WF-011-006-HC.jpg,1000,solid,O,z,463,12,1,10596.799999952316,266574.2000000477,9999,ATS,B,5
2,test,1,C,mfborder.png,0,m,Wed Sep 17 2025 13:47:21 GMT-0500 (Central Daylight Time),278686.7999999523,CFD-BM-020-024-HC.jpg,1200,dash,O,z,283,6,1,12112.599999904633,266574.2000000477,9999,ATS,B,6
2,test,1,C,haborder.png,0,m,Wed Sep 17 2025 13:47:21 GMT-0500 (Central Daylight Time),280519.59999990463,CFD-WF-027-007-HC.jpg,1500,solid,O,z,308,11,1,13945.399999856949,266574.2000000477,9999,ATS,B,7
2,test,1,C,mfborder.png,0,m,Wed Sep 17 2025 13:47:21 GMT-0500 (Central Daylight Time),281836.09999990463,CFD-WM-012-007-HC.jpg,1000,dash,O,z,296,4,1,15261.899999856949,266574.2000000477,9999,ATS,B,8
3,test,1,C,haborder.png,1,z,Wed Sep 17 2025 13:47:21 GMT-0500 (Central Daylight Time),283585.59999990463,CFD-WM-009-009-A.jpg,1400,solid,O,z,323,7,1,17011.39999985695,266574.2000000477,9999,ATS,B,9
3,test,1,C,mfborder.png,0,m,Wed Sep 17 2025 13:47:21 GMT-0500 (Central Daylight Time),285018.5,CFD-WM-012-007-HC.jpg,1000,dash,O,z,406,4,1,18444.299999952316,266574.2000000477,9999,ATS,B,10
4,test,1,C,mfborder.png,1,z,Wed Sep 17 2025 13:47:21 GMT-0500 (Central Daylight Time),286867.7999999523,CFD-WF-026-008-A.jpg,1500,dash,O,z,323,3,1,20293.599999904633,266574.2000000477,9999,ATS,B,11
5,test,1,C,haborder.png,1,z,Wed Sep 17 2025 13:47:21 GMT-0500 (Central Daylight Time),288684.0,CFD-WM-009-009-A.jpg,1400,solid,O,z,396,7,1,22109.799999952316,266574.2000000477,9999,ATS,B,12
6,test,1,C,haborder.png,1,z,Wed Sep 17 2025 13:47:21 GMT-0500 (Central Daylight Time),290916.59999990463,CFD-BM-041-048-A.jpg,1700,solid,O,z,512,9,1,24342.39999985695,266574.2000000477,9999,ATS,B,13
6,test,1,C,haborder.png,0,m,Wed Sep 17 2025 13:47:21 GMT-0500 (Central Daylight Time),292782.90000009537,CFD-WF-027-007-HC.jpg,1500,solid,O,z,335,11,1,26208.700000047684,266574.2000000477,9999,ATS,B,14
7,test,1,C,mfborder.png,1,z,Wed Sep 17 2025 13:47:21 GMT-0500 (Central Daylight Time),294731.90000009537,CFD-WF-026-008-A.jpg,1500,dash,O,z,428,3,1,28157.700000047684,266574.2000000477,9999,ATS,B,15
7,test,1,C,haborder.png,0,m,Wed Sep 17 2025 13:47:21 GMT-0500 (Central Daylight Time),296348.2000000477,CFD-WF-011-006-HC.jpg,1000,solid,O,z,595,12,1,29774.0,266574.2000000477,9999,ATS,B,16
7,test,1,C,haborder.png,0,m,Wed Sep 17 2025 13:47:21 GMT-0500 (Central Daylight Time),298548.2999999523,CFD-BF-035-007-HC.jpg,1600,solid,O,z,570,10,1,31974.099999904633,266574.2000000477,9999,ATS,B,17
8,test,1,C,mfborder.png,1,z,Wed Sep 17 2025 13:47:21 GMT-0500 (Central Daylight Time),300729.90000009537,CFD-BF-027-013-HC.jpg,1700,dash,O,z,456,1,1,34155.700000047684,266574.2000000477,9999,ATS,B,18
9,test,1,C,haborder.png,1,z,Wed Sep 17 2025 13:47:21 GMT-0500 (Central Daylight Time),302762.7000000477,CFD-BM-041-048-A.jpg,1700,solid,O,z,305,9,1,36188.5,266574.2000000477,9999,ATS,B,19
10,test,1,C,mfborder.png,1,z,Wed Sep 17 2025 13:47:21 GMT-0500 (Central Daylight Time),304745.5,CFD-BF-051-043-A.jpg,1600,dash,O,z,357,2,1,38171.299999952316,266574.2000000477,9999,ATS,B,20
11,test,1,C,haborder.png,1,z,Wed Sep 17 2025 13:47:21 GMT-0500 (Central Daylight Time),307011.7999999523,CFD-BM-037-041-A.jpg,1900,solid,O,z,345,8,1,40437.59999990463,266574.2000000477,9999,ATS,B,21
11,test,1,C,mfborder.png,0,m,Wed Sep 17 2025 13:47:21 GMT-0500 (Central Daylight Time),308677.7999999523,CFD-BM-020-024-HC.jpg,1200,dash,O,z,444,6,1,42103.59999990463,266574.2000000477,9999,ATS,B,22
12,test,1,C,mfborder.png,1,z,Wed Sep 17 2025 13:47:21 GMT-0500 (Central Daylight Time),310743.90000009537,CFD-BF-027-013-HC.jpg,1700,dash,O,z,334,1,1,44169.700000047684,266574.2000000477,9999,ATS,B,23
12,test,1,C,mfborder.png,0,m,Wed Sep 17 2025 13:47:21 GMT-0500 (Central Daylight Time),313142.90000009537,CFD-WM-037-060-A.jpg,2000,dash,O,z,377,5,1,46568.700000047684,266574.2000000477,9999,ATS,B,24
0,test,2,C,haborder.png,0,m,Wed Sep 17 2025 13:47:21 GMT-0500 (Central Daylight Time),316308.40000009537,CFD-WM-011-006-HC.jpg,1000,solid,O,z,978,12,1,1999.0,314309.40000009537,9999,ATS,B,1
0,test,2,C,haborder.png,0,m,Wed Sep 17 2025 13:47:21 GMT-0500 (Central Daylight Time),318124.59999990463,CFD-WM-011-006-HC.jpg,1500,solid,O,z,295,11,1,3815.199999809265,314309.40000009537,9999,ATS,B,2
0,test,2,C,haborder.png,0,m,Wed Sep 17 2025 13:47:21 GMT-0500 (Central Daylight Time),320024.2000000477,CFD-BM-020-024-HC.jpg,1600,solid,O,z,267,10,1,5714.799999952316,314309.40000009537,9999,ATS,B,3
1,test,2,C,haborder.png,1,z,Wed Sep 17 2025 13:47:21 GMT-0500 (Central Daylight Time),322223.2999999523,CFD-BF-050-012-A.jpg,1900,solid,O,z,267,8,1,7913.899999856949,314309.40000009537,9999,ATS,B,4
1,test,2,C,mfborder.png,0,m,Wed Sep 17 2025 13:47:21 GMT-0500 (Central Daylight Time),324505.90000009537,CFD-BM-037-041-A.jpg,2000,dash,O,z,264,5,1,10196.5,314309.40000009537,9999,ATS,B,5
2,test,2,C,mfborder.png,1,z,Wed Sep 17 2025 13:47:21 GMT-0500 (Central Daylight Time),326388.7000000477,CFD-BF-035-007-HC.jpg,1500,dash,O,z,353,3,1,12079.299999952316,314309.40000009537,9999,ATS,B,6
3,test,2,C,mfborder.png,1,z,Wed Sep 17 2025 13:47:21 GMT-0500 (Central Daylight Time),328239.09999990463,CFD-BF-035-007-HC.jpg,1500,dash,O,z,327,3,1,13929.699999809265,314309.40000009537,9999,ATS,B,7
3,test,2,C,mfborder.png,0,m,Wed Sep 17 2025 13:47:21 GMT-0500 (Central Daylight Time),329787.7999999523,CFD-BM-015-017-HC.jpg,1000,dash,O,z,529,4,1,15478.399999856949,314309.40000009537,9999,ATS,B,8
4,test,2,C,haborder.png,1,z,Wed Sep 17 2025 13:47:21 GMT-0500 (Central Daylight Time),331753.59999990463,CFD-WF-026-008-A.jpg,1700,solid,O,z,240,9,1,17444.199999809265,314309.40000009537,9999,ATS,B,9
5,test,2,C,haborder.png,1,z,Wed Sep 17 2025 13:47:21 GMT-0500 (Central Daylight Time),333586.59999990463,CFD-BF-051-043-A.jpg,1400,solid,O,z,414,7,1,19277.199999809265,314309.40000009537,9999,ATS,B,10
6,test,2,C,mfborder.png,1,z,Wed Sep 17 2025 13:47:21 GMT-0500 (Central Daylight Time),335486.0,CFD-WF-013-015-A.jpg,1600,dash,O,z,277,2,1,21176.599999904633,314309.40000009537,9999,ATS,B,11
7,test,2,C,mfborder.png,1,z,Wed Sep 17 2025 13:47:21 GMT-0500 (Central Daylight Time),337553.2000000477,CFD-WF-011-006-HC.jpg,1700,dash,O,z,342,1,1,23243.799999952316,314309.40000009537,9999,ATS,B,12
7,test,2,C,mfborder.png,0,m,Wed Sep 17 2025 13:47:21 GMT-0500 (Central Daylight Time),339717.7000000477,CFD-WM-009-009-A.jpg,1200,dash,O,z,944,6,1,25408.299999952316,314309.40000009537,9999,ATS,B,13
7,test,2,C,haborder.png,0,m,Wed Sep 17 2025 13:47:21 GMT-0500 (Central Daylight Time),341084.0,CFD-WM-011-006-HC.jpg,1000,solid,O,z,346,12,1,26774.599999904633,314309.40000009537,9999,ATS,B,14
8,test,2,C,mfborder.png,1,z,Wed Sep 17 2025 13:47:21 GMT-0500 (Central Daylight Time),343083.2999999523,CFD-WF-011-006-HC.jpg,1700,dash,O,z,280,1,1,28773.89999985695,314309.40000009537,9999,ATS,B,15
8,test,2,C,mfborder.png,0,m,Wed Sep 17 2025 13:47:21 GMT-0500 (Central Daylight Time),344466.2000000477,CFD-BM-015-017-HC.jpg,1000,dash,O,z,356,4,1,30156.799999952316,314309.40000009537,9999,ATS,B,16
8,test,2,C,haborder.png,0,m,Wed Sep 17 2025 13:47:21 GMT-0500 (Central Daylight Time),346299.2000000477,CFD-WM-011-006-HC.jpg,1500,solid,O,z,313,11,1,31989.799999952316,314309.40000009537,9999,ATS,B,17
9,test,2,C,mfborder.png,1,z,Wed Sep 17 2025 13:47:21 GMT-0500 (Central Daylight Time),348215.40000009537,CFD-WF-013-015-A.jpg,1600,dash,O,z,284,2,1,33906.0,314309.40000009537,9999,ATS,B,18
9,test,2,C,mfborder.png,0,m,Wed Sep 17 2025 13:47:21 GMT-0500 (Central Daylight Time),350497.7999999523,CFD-BM-037-041-A.jpg,2000,dash,O,z,264,5,1,36188.39999985695,314309.40000009537,9999,ATS,B,19
9,test,2,C,mfborder.png,0,m,Wed Sep 17 2025 13:47:21 GMT-0500 (Central Daylight Time),352114.2999999523,CFD-WM-009-009-A.jpg,1200,dash,O,z,388,6,1,37804.89999985695,314309.40000009537,9999,ATS,B,20
10,test,2,C,haborder.png,1,z,Wed Sep 17 2025 13:47:21 GMT-0500 (Central Daylight Time),354363.0,CFD-BF-050-012-A.jpg,1900,solid,O,z,322,8,1,40053.59999990463,314309.40000009537,9999,ATS,B,21
11,test,2,C,haborder.png,1,z,Wed Sep 17 2025 13:47:21 GMT-0500 (Central Daylight Time),356512.2999999523,CFD-WF-026-008-A.jpg,1700,solid,O,z,423,9,1,42202.89999985695,314309.40000009537,9999,ATS,B,22
12,test,2,C,haborder.png,1,z,Wed Sep 17 2025 13:47:21 GMT-0500 (Central Daylight Time),358311.90000009537,CFD-BF-051-043-A.jpg,1400,solid,O,z,376,7,1,44002.5,314309.40000009537,9999,ATS,B,23
12,test,2,C,haborder.png,0,m,Wed Sep 17 2025 13:47:21 GMT-0500 (Central Daylight Time),360311.40000009537,CFD-BM-020-024-HC.jpg,1600,solid,O,z,367,10,1,46002.0,314309.40000009537,9999,ATS,B,24
1,test,3,C,mfborder.png,1,m,Wed Sep 17 2025 13:47:21 GMT-0500 (Central Daylight Time),363194.0,CFD-BM-020-024-HC.jpg,1200,dash,O,m,323,6,1,1549.7000000476837,361644.2999999523,9999,ATS,B,1
1,test,3,C,haborder.png,0,z,Wed Sep 17 2025 13:47:21 GMT-0500 (Central Daylight Time),365210.0,CFD-BM-041-048-A.jpg,1700,solid,O,m,291,9,1,3565.7000000476837,361644.2999999523,9999,ATS,B,2
2,test,3,C,mfborder.png,1,z,Wed Sep 17 2025 13:47:21 GMT-0500 (Central Daylight Time),367059.2000000477,CFD-BF-051-043-A.jpg,1600,dash,O,z,231,2,1,5414.900000095367,361644.2999999523,9999,ATS,B,3
2,test,3,C,mfborder.png,0,m,Wed Sep 17 2025 13:47:21 GMT-0500 (Central Daylight Time),368641.7999999523,CFD-WM-012-007-HC.jpg,1000,dash,O,z,563,4,1,6997.5,361644.2999999523,9999,ATS,B,4
2,test,3,C,haborder.png,0,m,Wed Sep 17 2025 13:47:21 GMT-0500 (Central Daylight Time),370641.5,CFD-WF-027-007-HC.jpg,1500,solid,O,z,473,11,1,8997.200000047684,361644.2999999523,9999,ATS,B,5
3,test,3,C,mfborder.png,1,z,Wed Sep 17 2025 13:47:21 GMT-0500 (Central Daylight Time),372474.2999999523,CFD-WF-026-008-A.jpg,1500,dash,O,z,314,3,1,10830.0,361644.2999999523,9999,ATS,B,6
3,test,3,C,haborder.png,0,m,Wed Sep 17 2025 13:47:21 GMT-0500 (Central Daylight Time),374407.2000000477,CFD-BF-035-007-HC.jpg,1600,solid,O,z,301,10,1,12762.900000095367,361644.2999999523,9999,ATS,B,7
3,test,3,C,haborder.png,0,m,Wed Sep 17 2025 13:47:21 GMT-0500 (Central Daylight Time),376339.59999990463,CFD-BF-035-007-HC.jpg,1600,solid,O,z,304,10,1,14695.299999952316,361644.2999999523,9999,ATS,B,8
3,test,3,C,haborder.png,0,m,Wed Sep 17 2025 13:47:21 GMT-0500 (Central Daylight Time),378206.09999990463,CFD-WF-027-007-HC.jpg,1500,solid,O,z,336,11,1,16561.799999952316,361644.2999999523,9999,ATS,B,9
4,test,3,C,mfborder.png,1,z,Wed Sep 17 2025 13:47:21 GMT-0500 (Central Daylight Time),380121.7999999523,CFD-BF-051-043-A.jpg,1600,dash,O,z,298,2,1,18477.5,361644.2999999523,9999,ATS,B,10
5,test,3,C,haborder.png,1,z,Wed Sep 17 2025 13:47:21 GMT-0500 (Central Daylight Time),381837.7999999523,CFD-WM-009-009-A.jpg,1400,solid,O,z,286,7,1,20193.5,361644.2999999523,9999,ATS,B,11
6,test,3,C,haborder.png,1,z,Wed Sep 17 2025 13:47:21 GMT-0500 (Central Daylight Time),384037.40000009537,CFD-BM-037-041-A.jpg,1900,solid,O,z,277,8,1,22393.10000014305,361644.2999999523,9999,ATS,B,12
6,test,3,C,mfborder.png,0,m,Wed Sep 17 2025 13:47:21 GMT-0500 (Central Daylight Time),385720.2000000477,CFD-BM-020-024-HC.jpg,1200,dash,O,z,450,6,1,24075.900000095367,361644.2999999523,9999,ATS,B,13
6,test,3,C,mfborder.png,0,m,Wed Sep 17 2025 13:47:21 GMT-0500 (Central Daylight Time),388019.7999999523,CFD-WM-037-060-A.jpg,2000,dash,O,z,273,5,1,26375.5,361644.2999999523,9999,ATS,B,14
7,test,3,C,mfborder.png,1,z,Wed Sep 17 2025 13:47:21 GMT-0500 (Central Daylight Time),389902.2000000477,CFD-WF-026-008-A.jpg,1500,dash,O,z,352,3,1,28257.900000095367,361644.2999999523,9999,ATS,B,15
8,test,3,C,haborder.png,1,z,Wed Sep 17 2025 13:47:21 GMT-0500 (Central Daylight Time),391935.09999990463,CFD-BM-041-048-A.jpg,1700,solid,O,z,309,9,1,30290.799999952316,361644.2999999523,9999,ATS,B,16
8,test,3,C,haborder.png,0,m,Wed Sep 17 2025 13:47:21 GMT-0500 (Central Daylight Time),393467.7999999523,CFD-WF-011-006-HC.jpg,1000,solid,O,z,504,12,1,31823.5,361644.2999999523,9999,ATS,B,17
8,test,3,C,mfborder.png,0,m,Wed Sep 17 2025 13:47:21 GMT-0500 (Central Daylight Time),395950.09999990463,CFD-WM-037-060-A.jpg,2000,dash,O,z,452,5,1,34305.799999952316,361644.2999999523,9999,ATS,B,18
9,test,3,C,mfborder.png,1,z,Wed Sep 17 2025 13:47:21 GMT-0500 (Central Daylight Time),398016.2999999523,CFD-BF-027-013-HC.jpg,1700,dash,O,z,349,1,1,36372.0,361644.2999999523,9999,ATS,B,19
9,test,3,C,mfborder.png,0,m,Wed Sep 17 2025 13:47:21 GMT-0500 (Central Daylight Time),399532.59999990463,CFD-WM-012-007-HC.jpg,1000,dash,O,z,495,4,1,37888.299999952316,361644.2999999523,9999,ATS,B,20
9,test,3,C,haborder.png,0,m,Wed Sep 17 2025 13:47:21 GMT-0500 (Central Daylight Time),400902.59999990463,CFD-WF-011-006-HC.jpg,1000,solid,O,z,338,12,1,39258.299999952316,361644.2999999523,9999,ATS,B,21
10,test,3,C,mfborder.png,1,z,Wed Sep 17 2025 13:47:21 GMT-0500 (Central Daylight Time),402898.0,CFD-BF-027-013-HC.jpg,1700,dash,O,z,281,1,1,41253.700000047684,361644.2999999523,9999,ATS,B,22
11,test,3,C,haborder.png,1,z,Wed Sep 17 2025 13:47:21 GMT-0500 (Central Daylight Time),405097.59999990463,CFD-BM-037-041-A.jpg,1900,solid,O,z,274,8,1,43453.299999952316,361644.2999999523,9999,ATS,B,23
12,test,3,C,haborder.png,1,z,Wed Sep 17 2025 13:47:21 GMT-0500 (Central Daylight Time),406880.0,CFD-WM-009-009-A.jpg,1400,solid,O,z,350,7,1,45235.700000047684,361644.2999999523,9999,ATS,B,24
1,test,4,C,mfborder.png,1,z,Wed Sep 17 2025 13:47:21 GMT-0500 (Central Daylight Time),410245.7999999523,CFD-WF-011-006-HC.jpg,1700,dash,O,z,545,1,1,2265.899999856949,407979.90000009537,9999,ATS,B,1
2,test,4,C,haborder.png,1,z,Wed Sep 17 2025 13:47:21 GMT-0500 (Central Daylight Time),412511.7999999523,CFD-BF-050-012-A.jpg,1900,solid,O,z,342,8,1,4531.899999856949,407979.90000009537,9999,ATS,B,2
3,test,4,C,haborder.png,1,z,Wed Sep 17 2025 13:47:21 GMT-0500 (Central Daylight Time),414661.0,CFD-WF-026-008-A.jpg,1700,solid,O,z,421,9,1,6681.099999904633,407979.90000009537,9999,ATS,B,3
4,test,4,C,mfborder.png,1,z,Wed Sep 17 2025 13:47:21 GMT-0500 (Central Daylight Time),416610.5,CFD-BF-035-007-HC.jpg,1500,dash,O,z,431,3,1,8630.599999904633,407979.90000009537,9999,ATS,B,4
4,test,4,C,haborder.png,0,m,Wed Sep 17 2025 13:47:21 GMT-0500 (Central Daylight Time),418143.40000009537,CFD-WM-011-006-HC.jpg,1000,solid,O,z,509,12,1,10163.5,407979.90000009537,9999,ATS,B,5
4,test,4,C,haborder.png,0,m,Wed Sep 17 2025 13:47:21 GMT-0500 (Central Daylight Time),420059.0,CFD-BM-020-024-HC.jpg,1600,solid,O,z,297,10,1,12079.099999904633,407979.90000009537,9999,ATS,B,6
4,test,4,C,mfborder.png,0,m,Wed Sep 17 2025 13:47:21 GMT-0500 (Central Daylight Time),421775.5,CFD-WM-009-009-A.jpg,1200,dash,O,z,484,6,1,13795.599999904633,407979.90000009537,9999,ATS,B,7
4,test,4,C,mfborder.png,0,m,Wed Sep 17 2025 13:47:21 GMT-0500 (Central Daylight Time),424141.40000009537,CFD-BM-037-041-A.jpg,2000,dash,O,z,336,5,1,16161.5,407979.90000009537,9999,ATS,B,8
4,test,4,C,haborder.png,0,m,Wed Sep 17 2025 13:47:21 GMT-0500 (Central Daylight Time),426107.5,CFD-WM-011-006-HC.jpg,1500,solid,O,z,438,11,1,18127.599999904633,407979.90000009537,9999,ATS,B,9
4,test,4,C,haborder.png,0,m,Wed Sep 17 2025 13:47:21 GMT-0500 (Central Daylight Time),428073.59999990463,CFD-WM-011-006-HC.jpg,1500,solid,O,z,448,11,1,20093.699999809265,407979.90000009537,9999,ATS,B,10
5,test,4,C,haborder.png,1,z,Wed Sep 17 2025 13:47:21 GMT-0500 (Central Daylight Time),430122.90000009537,CFD-WF-026-008-A.jpg,1700,solid,O,z,322,9,1,22143.0,407979.90000009537,9999,ATS,B,11
5,test,4,C,haborder.png,0,m,Wed Sep 17 2025 13:47:21 GMT-0500 (Central Daylight Time),432105.5,CFD-BM-020-024-HC.jpg,1600,solid,O,z,365,10,1,24125.599999904633,407979.90000009537,9999,ATS,B,12
5,test,4,C,mfborder.png,0,m,Wed Sep 17 2025 13:47:21 GMT-0500 (Central Daylight Time),433605.59999990463,CFD-BM-015-017-HC.jpg,1000,dash,O,z,478,4,1,25625.699999809265,407979.90000009537,9999,ATS,B,13
6,test,4,C,haborder.png,1,z,Wed Sep 17 2025 13:47:21 GMT-0500 (Central Daylight Time),435321.2000000477,CFD-BF-051-043-A.jpg,1400,solid,O,z,298,7,1,27341.299999952316,407979.90000009537,9999,ATS,B,14
7,test,4,C,haborder.png,1,z,Wed Sep 17 2025 13:47:21 GMT-0500 (Central Daylight Time),437037.7000000477,CFD-BF-051-043-A.jpg,1400,solid,O,z,295,7,1,29057.799999952316,407979.90000009537,9999,ATS,B,15
7,test,4,C,mfborder.png,0,m,Wed Sep 17 2025 13:47:21 GMT-0500 (Central Daylight Time),438503.7999999523,CFD-BM-015-017-HC.jpg,1000,dash,O,z,434,4,1,30523.89999985695,407979.90000009537,9999,ATS,B,16
8,test,4,C,mfborder.png,1,z,Wed Sep 17 2025 13:47:21 GMT-0500 (Central Daylight Time),440519.7999999523,CFD-WF-011-006-HC.jpg,1700,dash,O,z,284,1,1,32539.89999985695,407979.90000009537,9999,ATS,B,17
8,test,4,C,mfborder.png,0,m,Wed Sep 17 2025 13:47:21 GMT-0500 (Central Daylight Time),442852.5,CFD-BM-037-041-A.jpg,2000,dash,O,z,312,5,1,34872.59999990463,407979.90000009537,9999,ATS,B,18
9,test,4,C,haborder.png,1,z,Wed Sep 17 2025 13:47:21 GMT-0500 (Central Daylight Time),445134.90000009537,CFD-BF-050-012-A.jpg,1900,solid,O,z,360,8,1,37155.0,407979.90000009537,9999,ATS,B,19
9,test,4,C,haborder.png,0,m,Wed Sep 17 2025 13:47:21 GMT-0500 (Central Daylight Time),446551.09999990463,CFD-WM-011-006-HC.jpg,1000,solid,O,z,393,12,1,38571.199999809265,407979.90000009537,9999,ATS,B,20
9,test,4,C,mfborder.png,0,m,Wed Sep 17 2025 13:47:21 GMT-0500 (Central Daylight Time),448200.7999999523,CFD-WM-009-009-A.jpg,1200,dash,O,z,309,6,1,40220.89999985695,407979.90000009537,9999,ATS,B,21
10,test,4,C,mfborder.png,1,z,Wed Sep 17 2025 13:47:21 GMT-0500 (Central Daylight Time),450100.0,CFD-WF-013-015-A.jpg,1600,dash,O,z,280,2,1,42120.09999990463,407979.90000009537,9999,ATS,B,22
11,test,4,C,mfborder.png,1,z,Wed Sep 17 2025 13:47:21 GMT-0500 (Central Daylight Time),452215.90000009537,CFD-WF-013-015-A.jpg,1600,dash,O,z,500,2,1,44236.0,407979.90000009537,9999,ATS,B,23
12,test,4,C,mfborder.png,1,z,Wed Sep 17 2025 13:47:21 GMT-0500 (Central Daylight Time),454015.59999990463,CFD-BF-035-007-HC.jpg,1500,dash,O,z,268,3,1,46035.699999809265,407979.90000009537,9999,ATS,B,24
