acc_sum,block,block_c,block_cond,con_img,correct,correct_response,datetime,endtime,face,jitter,line,project,response,response_time,row_sel,session_number,start_end,starttime,subject_id,task,task_vers,trial
1,prac,1,A,haborder.png,1,m,Thu Sep 18 2025 18:42:26 GMT-0500 (Central Daylight Time),71860.0,CFD-BM-015-017-HC.jpg,1700,solid,O,m,536,1,1,3050.199999988079,68809.80000001192,9999,ATS,B,1
2,prac,1,A,haborder.png,1,z,Thu Sep 18 2025 18:42:26 GMT-0500 (Central Daylight Time),74476.20000004768,CFD-WF-013-015-A.jpg,1000,solid,O,z,800,12,1,5666.400000035763,68809.80000001192,9999,ATS,B,2
2,prac,1,A,haborder.png,0,m,Thu Sep 18 2025 18:42:26 GMT-0500 (Central Daylight Time),77409.60000002384,CFD-WM-012-007-HC.jpg,1700,solid,O,z,417,9,1,8599.800000011921,68809.80000001192,9999,ATS,B,3
3,prac,1,A,haborder.png,1,m,Thu Sep 18 2025 18:42:26 GMT-0500 (Central Daylight Time),80176.40000003576,CFD-WM-011-006-HC.jpg,1400,solid,O,m,557,7,1,11366.600000023842,68809.80000001192,9999,ATS,B,4
4,prac,1,A,haborder.png,1,z,Thu Sep 18 2025 18:42:26 GMT-0500 (Central Daylight Time),82593.30000001192,CFD-BF-051-043-A.jpg,1000,solid,O,z,616,4,1,13783.5,68809.80000001192,9999,ATS,B,5
5,prac,1,A,haborder.png,1,m,Thu Sep 18 2025 18:42:26 GMT-0500 (Central Daylight Time),85409.80000001192,CFD-BM-020-024-HC.jpg,1500,solid,O,m,500,3,1,16600.0,68809.80000001192,9999,ATS,B,6
6,prac,1,A,haborder.png,1,m,Thu Sep 18 2025 18:42:26 GMT-0500 (Central Daylight Time),88393.30000001192,CFD-WF-011-006-HC.jpg,1500,solid,O,m,672,11,1,19583.5,68809.80000001192,9999,ATS,B,7
7,prac,1,A,haborder.png,1,z,Thu Sep 18 2025 18:42:26 GMT-0500 (Central Daylight Time),91560.30000001192,CFD-WM-009-009-A.jpg,1900,solid,O,z,452,8,1,22750.5,68809.80000001192,9999,ATS,B,8
7,prac,1,A,haborder.png,0,z,Thu Sep 18 2025 18:42:26 GMT-0500 (Central Daylight Time),94360.0,CFD-BM-037-041-A.jpg,1600,solid,O,m,416,2,1,25550.19999998808,68809.80000001192,9999,ATS,B,9
8,prac,1,A,haborder.png,1,z,Thu Sep 18 2025 18:42:26 GMT-0500 (Central Daylight Time),97310.10000002384,CFD-WF-026-008-A.jpg,1600,solid,O,z,548,10,1,28500.30000001192,68809.80000001192,9999,ATS,B,10
9,prac,1,A,haborder.png,1,z,Thu Sep 18 2025 18:42:26 GMT-0500 (Central Daylight Time),99860.5,CFD-BF-050-012-A.jpg,1200,solid,O,z,533,6,1,31050.69999998808,68809.80000001192,9999,ATS,B,11
10,prac,1,A,haborder.png,1,m,Thu Sep 18 2025 18:42:26 GMT-0500 (Central Daylight Time),103260.40000003576,CFD-BF-035-007-HC.jpg,2000,solid,O,m,584,5,1,34450.60000002384,68809.80000001192,9999,ATS,B,12
1,prac,1,B,mfborder.png,1,m,Thu Sep 18 2025 18:42:26 GMT-0500 (Central Daylight Time),130727.5,CFD-BM-020-024-HC.jpg,1700,dash,O,m,556,1,1,3066.5,127661.0,9999,ATS,B,1
2,prac,1,B,mfborder.png,1,m,Thu Sep 18 2025 18:42:26 GMT-0500 (Central Daylight Time),133827.80000001192,CFD-WM-012-007-HC.jpg,1600,dash,O,m,699,10,1,6166.800000011921,127661.0,9999,ATS,B,2
3,prac,1,B,mfborder.png,1,m,Thu Sep 18 2025 18:42:26 GMT-0500 (Central Daylight Time),136811.0,CFD-BM-041-048-A.jpg,1600,dash,O,m,574,2,1,9150.0,127661.0,9999,ATS,B,3
4,prac,1,B,mfborder.png,1,m,Thu Sep 18 2025 18:42:26 GMT-0500 (Central Daylight Time),139361.10000002384,CFD-WM-037-060-A.jpg,1200,dash,O,m,540,6,1,11700.100000023842,127661.0,9999,ATS,B,4
5,prac,1,B,mfborder.png,1,z,Thu Sep 18 2025 18:42:26 GMT-0500 (Central Daylight Time),142178.80000001192,CFD-WF-026-008-A.jpg,1500,dash,O,z,509,11,1,14517.800000011921,127661.0,9999,ATS,B,5
6,prac,1,B,mfborder.png,1,z,Thu Sep 18 2025 18:42:26 GMT-0500 (Central Daylight Time),144561.30000001192,CFD-WF-011-006-HC.jpg,1000,dash,O,z,571,12,1,16900.30000001192,127661.0,9999,ATS,B,6
6,prac,1,B,mfborder.png,0,z,Thu Sep 18 2025 18:42:26 GMT-0500 (Central Daylight Time),147694.40000003576,CFD-WF-027-007-HC.jpg,1900,dash,O,m,441,8,1,20033.400000035763,127661.0,9999,ATS,B,7
7,prac,1,B,mfborder.png,1,z,Thu Sep 18 2025 18:42:26 GMT-0500 (Central Daylight Time),150561.30000001192,CFD-BF-027-013-HC.jpg,1500,dash,O,z,558,3,1,22900.30000001192,127661.0,9999,ATS,B,8
8,prac,1,B,mfborder.png,1,z,Thu Sep 18 2025 18:42:26 GMT-0500 (Central Daylight Time),153694.80000001192,CFD-BF-035-007-HC.jpg,1400,dash,O,z,927,7,1,26033.80000001192,127661.0,9999,ATS,B,9
9,prac,1,B,mfborder.png,1,m,Thu Sep 18 2025 18:42:26 GMT-0500 (Central Daylight Time),156844.80000001192,CFD-WM-009-009-A.jpg,1700,dash,O,m,641,9,1,29183.80000001192,127661.0,9999,ATS,B,10
10,prac,1,B,mfborder.png,1,z,Thu Sep 18 2025 18:42:26 GMT-0500 (Central Daylight Time),159344.90000003576,CFD-BF-051-043-A.jpg,1000,dash,O,z,684,4,1,31683.900000035763,127661.0,9999,ATS,B,11
11,prac,1,B,mfborder.png,1,m,Thu Sep 18 2025 18:42:26 GMT-0500 (Central Daylight Time),162545.70000004768,CFD-BM-037-041-A.jpg,2000,dash,O,m,389,5,1,34884.700000047684,127661.0,9999,ATS,B,12
0,test,1,A,haborder.png,0,z,Thu Sep 18 2025 18:42:26 GMT-0500 (Central Daylight Time),168712.30000001192,CFD-BM-037-041-A.jpg,1600,solid,O,None,1516,2,1,3133.800000011921,165578.5,9999,ATS,B,1
0,test,1,A,haborder.png,0,z,Thu Sep 18 2025 18:42:26 GMT-0500 (Central Daylight Time),171245.10000002384,CFD-WF-013-015-A.jpg,1000,solid,O,None,1516,12,1,5666.600000023842,165578.5,9999,ATS,B,2
0,test,1,A,haborder.png,0,z,Thu Sep 18 2025 18:42:26 GMT-0500 (Central Daylight Time),173978.40000003576,CFD-BF-050-012-A.jpg,1200,solid,O,None,1515,6,1,8399.900000035763,165578.5,9999,ATS,B,3
0,test,1,A,haborder.png,0,z,Thu Sep 18 2025 18:42:26 GMT-0500 (Central Daylight Time),176511.80000001192,CFD-BF-051-043-A.jpg,1000,solid,O,None,1516,4,1,10933.300000011921,165578.5,9999,ATS,B,4
0,test,1,A,haborder.png,0,z,Thu Sep 18 2025 18:42:26 GMT-0500 (Central Daylight Time),179645.70000004768,CFD-WF-026-008-A.jpg,1600,solid,O,None,1516,10,1,14067.200000047684,165578.5,9999,ATS,B,5
0,test,1,A,haborder.png,0,m,Thu Sep 18 2025 18:42:26 GMT-0500 (Central Daylight Time),183178.5,CFD-BF-035-007-HC.jpg,2000,solid,O,None,1515,5,1,17600.0,165578.5,9999,ATS,B,6
0,test,1,A,haborder.png,0,m,Thu Sep 18 2025 18:42:26 GMT-0500 (Central Daylight Time),186228.60000002384,CFD-WF-011-006-HC.jpg,1500,solid,O,None,1515,11,1,20650.100000023842,165578.5,9999,ATS,B,7
0,test,1,A,haborder.png,0,m,Thu Sep 18 2025 18:42:26 GMT-0500 (Central Daylight Time),189462.10000002384,CFD-BM-015-017-HC.jpg,1700,solid,O,None,1515,1,1,23883.600000023842,165578.5,9999,ATS,B,8
0,test,1,A,haborder.png,0,m,Thu Sep 18 2025 18:42:26 GMT-0500 (Central Daylight Time),192695.60000002384,CFD-BM-015-017-HC.jpg,1700,solid,O,None,1515,1,1,27117.100000023842,165578.5,9999,ATS,B,9
0,test,1,A,haborder.png,0,m,Thu Sep 18 2025 18:42:26 GMT-0500 (Central Daylight Time),195929.0,CFD-WM-012-007-HC.jpg,1700,solid,O,None,1516,9,1,30350.5,165578.5,9999,ATS,B,10
0,test,1,A,haborder.png,0,m,Thu Sep 18 2025 18:42:26 GMT-0500 (Central Daylight Time),198962.60000002384,CFD-WF-011-006-HC.jpg,1500,solid,O,None,1515,11,1,33384.10000002384,165578.5,9999,ATS,B,11
0,test,1,A,haborder.png,0,m,Thu Sep 18 2025 18:42:26 GMT-0500 (Central Daylight Time),201895.60000002384,CFD-WM-011-006-HC.jpg,1400,solid,O,None,1514,7,1,36317.10000002384,165578.5,9999,ATS,B,12
0,test,1,A,haborder.png,0,z,Thu Sep 18 2025 18:42:26 GMT-0500 (Central Daylight Time),205029.10000002384,CFD-BM-037-041-A.jpg,1600,solid,O,None,1516,2,1,39450.60000002384,165578.5,9999,ATS,B,13
0,test,1,A,haborder.png,0,z,Thu Sep 18 2025 18:42:26 GMT-0500 (Central Daylight Time),207562.5,CFD-WF-013-015-A.jpg,1000,solid,O,None,1515,12,1,41984.0,165578.5,9999,ATS,B,14
0,test,1,A,haborder.png,0,z,Thu Sep 18 2025 18:42:26 GMT-0500 (Central Daylight Time),210096.5,CFD-BF-051-043-A.jpg,1000,solid,O,None,1516,4,1,44518.0,165578.5,9999,ATS,B,15
0,test,1,A,haborder.png,0,m,Thu Sep 18 2025 18:42:26 GMT-0500 (Central Daylight Time),213129.20000004768,CFD-BM-020-024-HC.jpg,1500,solid,O,None,1515,3,1,47550.700000047684,165578.5,9999,ATS,B,16
0,test,1,A,haborder.png,0,z,Thu Sep 18 2025 18:42:26 GMT-0500 (Central Daylight Time),216579.40000003576,CFD-WM-009-009-A.jpg,1900,solid,O,None,1515,8,1,51000.90000003576,165578.5,9999,ATS,B,17
0,test,1,A,haborder.png,0,m,Thu Sep 18 2025 18:42:26 GMT-0500 (Central Daylight Time),220112.70000004768,CFD-BF-035-007-HC.jpg,2000,solid,O,None,1515,5,1,54534.200000047684,165578.5,9999,ATS,B,18
0,test,1,A,haborder.png,0,z,Thu Sep 18 2025 18:42:26 GMT-0500 (Central Daylight Time),223246.20000004768,CFD-WF-026-008-A.jpg,1600,solid,O,None,1515,10,1,57667.700000047684,165578.5,9999,ATS,B,19
0,test,1,A,haborder.png,0,z,Thu Sep 18 2025 18:42:26 GMT-0500 (Central Daylight Time),226679.60000002384,CFD-WM-009-009-A.jpg,1900,solid,O,None,1515,8,1,61101.10000002384,165578.5,9999,ATS,B,20
0,test,1,A,haborder.png,0,m,Thu Sep 18 2025 18:42:26 GMT-0500 (Central Daylight Time),229912.90000003576,CFD-WM-012-007-HC.jpg,1700,solid,O,None,1515,9,1,64334.40000003576,165578.5,9999,ATS,B,21
0,test,1,A,haborder.png,0,m,Thu Sep 18 2025 18:42:26 GMT-0500 (Central Daylight Time),232847.40000003576,CFD-WM-011-006-HC.jpg,1400,solid,O,None,1516,7,1,67268.90000003576,165578.5,9999,ATS,B,22
0,test,1,A,haborder.png,0,m,Thu Sep 18 2025 18:42:26 GMT-0500 (Central Daylight Time),235879.80000001192,CFD-BM-020-024-HC.jpg,1500,solid,O,None,1516,3,1,70301.30000001192,165578.5,9999,ATS,B,23
0,test,1,A,haborder.png,0,z,Thu Sep 18 2025 18:42:26 GMT-0500 (Central Daylight Time),238613.10000002384,CFD-BF-050-012-A.jpg,1200,solid,O,None,1516,6,1,73034.60000002384,165578.5,9999,ATS,B,24
0,test,1,B,mfborder.png,0,m,Thu Sep 18 2025 18:42:26 GMT-0500 (Central Daylight Time),255747.80000001192,CFD-BM-041-048-A.jpg,1600,dash,O,None,1508,2,1,3133.899999976158,252613.90000003576,9999,ATS,B,1
0,test,1,B,mfborder.png,0,z,Thu Sep 18 2025 18:42:26 GMT-0500 (Central Daylight Time),259180.30000001192,CFD-WF-027-007-HC.jpg,1900,dash,O,None,1516,8,1,6566.399999976158,252613.90000003576,9999,ATS,B,2
0,test,1,B,mfborder.png,0,m,Thu Sep 18 2025 18:42:26 GMT-0500 (Central Daylight Time),261913.60000002384,CFD-WM-037-060-A.jpg,1200,dash,O,None,1514,6,1,9299.699999988079,252613.90000003576,9999,ATS,B,3
0,test,1,B,mfborder.png,0,z,Thu Sep 18 2025 18:42:26 GMT-0500 (Central Daylight Time),264847.10000002384,CFD-BF-035-007-HC.jpg,1400,dash,O,None,1516,7,1,12233.199999988079,252613.90000003576,9999,ATS,B,4
0,test,1,B,mfborder.png,0,z,Thu Sep 18 2025 18:42:26 GMT-0500 (Central Daylight Time),267380.7000000477,CFD-WF-011-006-HC.jpg,1000,dash,O,None,1515,12,1,14766.800000011921,252613.90000003576,9999,ATS,B,5
0,test,1,B,mfborder.png,0,m,Thu Sep 18 2025 18:42:26 GMT-0500 (Central Daylight Time),270613.8000000119,CFD-BM-020-024-HC.jpg,1700,dash,O,None,1516,1,1,17999.899999976158,252613.90000003576,9999,ATS,B,6
0,test,1,B,mfborder.png,0,m,Thu Sep 18 2025 18:42:26 GMT-0500 (Central Daylight Time),273347.5,CFD-WM-037-060-A.jpg,1200,dash,O,None,1515,6,1,20733.599999964237,252613.90000003576,9999,ATS,B,7
0,test,1,B,mfborder.png,0,z,Thu Sep 18 2025 18:42:26 GMT-0500 (Central Daylight Time),276380.7000000477,CFD-WF-026-008-A.jpg,1500,dash,O,None,1515,11,1,23766.80000001192,252613.90000003576,9999,ATS,B,8
0,test,1,B,mfborder.png,0,m,Thu Sep 18 2025 18:42:26 GMT-0500 (Central Daylight Time),279630.8000000119,CFD-WM-009-009-A.jpg,1700,dash,O,None,1515,9,1,27016.899999976158,252613.90000003576,9999,ATS,B,9
0,test,1,B,mfborder.png,0,z,Thu Sep 18 2025 18:42:26 GMT-0500 (Central Daylight Time),282163.8000000119,CFD-BF-051-043-A.jpg,1000,dash,O,None,1516,4,1,29549.899999976158,252613.90000003576,9999,ATS,B,10
0,test,1,B,mfborder.png,0,z,Thu Sep 18 2025 18:42:26 GMT-0500 (Central Daylight Time),285097.60000002384,CFD-BF-035-007-HC.jpg,1400,dash,O,None,1515,7,1,32483.69999998808,252613.90000003576,9999,ATS,B,11
0,test,1,B,mfborder.png,0,m,Thu Sep 18 2025 18:42:26 GMT-0500 (Central Daylight Time),288231.10000002384,CFD-BM-041-048-A.jpg,1600,dash,O,None,1516,2,1,35617.19999998808,252613.90000003576,9999,ATS,B,12
0,test,1,B,mfborder.png,0,z,Thu Sep 18 2025 18:42:26 GMT-0500 (Central Daylight Time),291264.5,CFD-BF-027-013-HC.jpg,1500,dash,O,None,1514,3,1,38650.59999996424,252613.90000003576,9999,ATS,B,13
0,test,1,B,mfborder.png,0,m,Thu Sep 18 2025 18:42:26 GMT-0500 (Central Daylight Time),294397.5,CFD-WM-012-007-HC.jpg,1600,dash,O,None,1515,10,1,41783.59999996424,252613.90000003576,9999,ATS,B,14
0,test,1,B,mfborder.png,0,m,Thu Sep 18 2025 18:42:26 GMT-0500 (Central Daylight Time),297631.40000003576,CFD-WM-009-009-A.jpg,1700,dash,O,None,1515,9,1,45017.5,252613.90000003576,9999,ATS,B,15
0,test,1,B,mfborder.png,0,z,Thu Sep 18 2025 18:42:26 GMT-0500 (Central Daylight Time),300164.5,CFD-WF-011-006-HC.jpg,1000,dash,O,None,1516,12,1,47550.59999996424,252613.90000003576,9999,ATS,B,16
0,test,1,B,mfborder.png,0,m,Thu Sep 18 2025 18:42:26 GMT-0500 (Central Daylight Time),303714.7000000477,CFD-BM-037-041-A.jpg,2000,dash,O,None,1515,5,1,51100.80000001192,252613.90000003576,9999,ATS,B,17
0,test,1,B,mfborder.png,0,z,Thu Sep 18 2025 18:42:26 GMT-0500 (Central Daylight Time),306748.90000003576,CFD-BF-027-013-HC.jpg,1500,dash,O,None,1516,3,1,54135.0,252613.90000003576,9999,ATS,B,18
0,test,1,B,mfborder.png,0,m,Thu Sep 18 2025 18:42:26 GMT-0500 (Central Daylight Time),309981.10000002384,CFD-BM-020-024-HC.jpg,1700,dash,O,None,1515,1,1,57367.19999998808,252613.90000003576,9999,ATS,B,19
0,test,1,B,mfborder.png,0,m,Thu Sep 18 2025 18:42:26 GMT-0500 (Central Daylight Time),313114.90000003576,CFD-WM-012-007-HC.jpg,1600,dash,O,None,1516,10,1,60501.0,252613.90000003576,9999,ATS,B,20
0,test,1,B,mfborder.png,0,z,Thu Sep 18 2025 18:42:26 GMT-0500 (Central Daylight Time),316565.0,CFD-WF-027-007-HC.jpg,1900,dash,O,None,1516,8,1,63951.09999996424,252613.90000003576,9999,ATS,B,21
0,test,1,B,mfborder.png,0,z,Thu Sep 18 2025 18:42:26 GMT-0500 (Central Daylight Time),319598.40000003576,CFD-WF-026-008-A.jpg,1500,dash,O,None,1515,11,1,66984.5,252613.90000003576,9999,ATS,B,22
0,test,1,B,mfborder.png,0,m,Thu Sep 18 2025 18:42:26 GMT-0500 (Central Daylight Time),323131.90000003576,CFD-BM-037-041-A.jpg,2000,dash,O,None,1516,5,1,70518.0,252613.90000003576,9999,ATS,B,23
0,test,1,B,mfborder.png,0,z,Thu Sep 18 2025 18:42:26 GMT-0500 (Central Daylight Time),325665.10000002384,CFD-BF-051-043-A.jpg,1000,dash,O,None,1516,4,1,73051.19999998808,252613.90000003576,9999,ATS,B,24
1,10,1,C,haborder.png,1,m,Thu Sep 18 2025 18:42:26 GMT-0500 (Central Daylight Time),343599.60000002384,CFD-BM-020-024-HC.jpg,1500,solid,O,m,542,prac,1,2833.800000011921,340765.8000000119,9999,ATS,B,1
2,5,1,C,mfborder.png,1,m,Thu Sep 18 2025 18:42:26 GMT-0500 (Central Daylight Time),346099.90000003576,CFD-BM-037-041-A.jpg,1200,dash,O,m,508,prac,1,5334.100000023842,340765.8000000119,9999,ATS,B,2
3,1,1,C,mfborder.png,1,z,Thu Sep 18 2025 18:42:26 GMT-0500 (Central Daylight Time),349032.5,CFD-WF-011-006-HC.jpg,1600,dash,O,z,525,prac,1,8266.699999988079,340765.8000000119,9999,ATS,B,3
4,12,1,C,haborder.png,1,m,Thu Sep 18 2025 18:42:26 GMT-0500 (Central Daylight Time),351899.10000002384,CFD-WM-011-006-HC.jpg,1400,solid,O,m,664,prac,1,11133.300000011921,340765.8000000119,9999,ATS,B,4
5,7,1,C,haborder.png,1,z,Thu Sep 18 2025 18:42:26 GMT-0500 (Central Daylight Time),355132.5,CFD-BF-051-043-A.jpg,1900,dash,O,z,548,prac,1,14366.699999988079,340765.8000000119,9999,ATS,B,5
6,11,1,C,haborder.png,1,m,Thu Sep 18 2025 18:42:26 GMT-0500 (Central Daylight Time),357599.2000000477,CFD-WM-011-006-HC.jpg,1000,dash,O,m,672,prac,1,16833.400000035763,340765.8000000119,9999,ATS,B,6
7,8,1,C,haborder.png,1,z,Thu Sep 18 2025 18:42:26 GMT-0500 (Central Daylight Time),360632.60000002384,CFD-BF-050-012-A.jpg,1700,solid,O,z,529,prac,1,19866.80000001192,340765.8000000119,9999,ATS,B,7
8,2,1,C,mfborder.png,1,z,Thu Sep 18 2025 18:42:26 GMT-0500 (Central Daylight Time),363749.3000000119,CFD-WF-013-015-A.jpg,1500,solid,O,z,808,prac,1,22983.5,340765.8000000119,9999,ATS,B,8
8,3,1,C,mfborder.png,0,z,Thu Sep 18 2025 18:42:26 GMT-0500 (Central Daylight Time),366266.0,CFD-BF-035-007-HC.jpg,1000,dash,O,m,705,prac,1,25500.19999998808,340765.8000000119,9999,ATS,B,9
9,4,1,C,mfborder.png,1,m,Thu Sep 18 2025 18:42:26 GMT-0500 (Central Daylight Time),369966.2000000477,CFD-BM-015-017-HC.jpg,2000,solid,O,m,883,prac,1,29200.400000035763,340765.8000000119,9999,ATS,B,10
10,9,1,C,haborder.png,1,z,Thu Sep 18 2025 18:42:26 GMT-0500 (Central Daylight Time),373016.3000000119,CFD-WF-026-008-A.jpg,1600,dash,O,z,637,prac,1,32250.5,340765.8000000119,9999,ATS,B,11
11,6,1,C,mfborder.png,1,m,Thu Sep 18 2025 18:42:26 GMT-0500 (Central Daylight Time),376149.7000000477,CFD-WM-009-009-A.jpg,1700,solid,O,m,624,prac,1,35383.90000003576,340765.8000000119,9999,ATS,B,12
0,test,1,C,mfborder.png,0,z,Thu Sep 18 2025 18:42:26 GMT-0500 (Central Daylight Time),381499.90000003576,CFD-WF-026-008-A.jpg,1500,dash,O,None,1515,3,1,3032.600000023842,378467.3000000119,9999,ATS,B,1
0,test,1,C,haborder.png,0,m,Thu Sep 18 2025 18:42:26 GMT-0500 (Central Daylight Time),384033.0,CFD-WF-011-006-HC.jpg,1000,solid,O,None,1516,12,1,5565.699999988079,378467.3000000119,9999,ATS,B,2
0,test,1,C,mfborder.png,0,z,Thu Sep 18 2025 18:42:26 GMT-0500 (Central Daylight Time),387266.60000002384,CFD-BF-027-013-HC.jpg,1700,dash,O,None,1515,1,1,8799.300000011921,378467.3000000119,9999,ATS,B,3
0,test,1,C,haborder.png,0,z,Thu Sep 18 2025 18:42:26 GMT-0500 (Central Daylight Time),390199.90000003576,CFD-WM-009-009-A.jpg,1400,solid,O,None,1516,7,1,11732.600000023842,378467.3000000119,9999,ATS,B,4
0,test,1,C,haborder.png,0,z,Thu Sep 18 2025 18:42:26 GMT-0500 (Central Daylight Time),393633.3000000119,CFD-BM-037-041-A.jpg,1900,solid,O,None,1516,8,1,15166.0,378467.3000000119,9999,ATS,B,5
0,test,1,C,haborder.png,0,z,Thu Sep 18 2025 18:42:26 GMT-0500 (Central Daylight Time),396566.8000000119,CFD-WM-009-009-A.jpg,1400,solid,O,None,1516,7,1,18099.5,378467.3000000119,9999,ATS,B,6
0,test,1,C,mfborder.png,0,m,Thu Sep 18 2025 18:42:26 GMT-0500 (Central Daylight Time),400100.2000000477,CFD-WM-037-060-A.jpg,2000,dash,O,None,1516,5,1,21632.900000035763,378467.3000000119,9999,ATS,B,7
0,test,1,C,haborder.png,0,m,Thu Sep 18 2025 18:42:26 GMT-0500 (Central Daylight Time),402633.5,CFD-WF-011-006-HC.jpg,1000,solid,O,None,1516,12,1,24166.19999998808,378467.3000000119,9999,ATS,B,8
0,test,1,C,mfborder.png,0,z,Thu Sep 18 2025 18:42:26 GMT-0500 (Central Daylight Time),405766.90000003576,CFD-BF-051-043-A.jpg,1600,dash,O,None,1517,2,1,27299.600000023842,378467.3000000119,9999,ATS,B,9
0,test,1,C,haborder.png,0,m,Thu Sep 18 2025 18:42:26 GMT-0500 (Central Daylight Time),408916.90000003576,CFD-BF-035-007-HC.jpg,1600,solid,O,None,1516,10,1,30449.600000023842,378467.3000000119,9999,ATS,B,10
0,test,1,C,mfborder.png,0,z,Thu Sep 18 2025 18:42:26 GMT-0500 (Central Daylight Time),412050.3000000119,CFD-BF-051-043-A.jpg,1600,dash,O,None,1516,2,1,33583.0,378467.3000000119,9999,ATS,B,11
0,test,1,C,haborder.png,0,m,Thu Sep 18 2025 18:42:26 GMT-0500 (Central Daylight Time),415083.7000000477,CFD-WF-027-007-HC.jpg,1500,solid,O,None,1515,11,1,36616.40000003576,378467.3000000119,9999,ATS,B,12
0,test,1,C,haborder.png,0,z,Thu Sep 18 2025 18:42:26 GMT-0500 (Central Daylight Time),418517.10000002384,CFD-BM-037-041-A.jpg,1900,solid,O,None,1516,8,1,40049.80000001192,378467.3000000119,9999,ATS,B,13
0,test,1,C,haborder.png,0,m,Thu Sep 18 2025 18:42:26 GMT-0500 (Central Daylight Time),421550.60000002384,CFD-WF-027-007-HC.jpg,1500,solid,O,None,1515,11,1,43083.30000001192,378467.3000000119,9999,ATS,B,14
0,test,1,C,haborder.png,0,z,Thu Sep 18 2025 18:42:26 GMT-0500 (Central Daylight Time),424784.10000002384,CFD-BM-041-048-A.jpg,1700,solid,O,None,1516,9,1,46316.80000001192,378467.3000000119,9999,ATS,B,15
0,test,1,C,mfborder.png,0,m,Thu Sep 18 2025 18:42:26 GMT-0500 (Central Daylight Time),428317.3000000119,CFD-WM-037-060-A.jpg,2000,dash,O,None,1516,5,1,49850.0,378467.3000000119,9999,ATS,B,16
0,test,1,C,mfborder.png,0,m,Thu Sep 18 2025 18:42:26 GMT-0500 (Central Daylight Time),431050.8000000119,CFD-BM-020-024-HC.jpg,1200,dash,O,None,1515,6,1,52583.5,378467.3000000119,9999,ATS,B,17
0,test,1,C,haborder.png,0,m,Thu Sep 18 2025 18:42:26 GMT-0500 (Central Daylight Time),434184.10000002384,CFD-BF-035-007-HC.jpg,1600,solid,O,None,1516,10,1,55716.80000001192,378467.3000000119,9999,ATS,B,18
0,test,1,C,haborder.png,0,z,Thu Sep 18 2025 18:42:26 GMT-0500 (Central Daylight Time),437417.60000002384,CFD-BM-041-048-A.jpg,1700,solid,O,None,1515,9,1,58950.30000001192,378467.3000000119,9999,ATS,B,19
0,test,1,C,mfborder.png,0,m,Thu Sep 18 2025 18:42:26 GMT-0500 (Central Daylight Time),439951.0,CFD-WM-012-007-HC.jpg,1000,dash,O,None,1516,4,1,61483.69999998808,378467.3000000119,9999,ATS,B,20
0,test,1,C,mfborder.png,0,m,Thu Sep 18 2025 18:42:26 GMT-0500 (Central Daylight Time),442684.2000000477,CFD-BM-020-024-HC.jpg,1200,dash,O,None,1516,6,1,64216.90000003576,378467.3000000119,9999,ATS,B,21
0,test,1,C,mfborder.png,0,m,Thu Sep 18 2025 18:42:26 GMT-0500 (Central Daylight Time),445218.7000000477,CFD-WM-012-007-HC.jpg,1000,dash,O,None,1515,4,1,66751.40000003576,378467.3000000119,9999,ATS,B,22
0,test,1,C,mfborder.png,0,z,Thu Sep 18 2025 18:42:26 GMT-0500 (Central Daylight Time),448262.3000000119,CFD-WF-026-008-A.jpg,1500,dash,O,None,1526,3,1,69795.0,378467.3000000119,9999,ATS,B,23
0,test,1,C,mfborder.png,0,z,Thu Sep 18 2025 18:42:26 GMT-0500 (Central Daylight Time),451484.60000002384,CFD-BF-027-013-HC.jpg,1700,dash,O,None,1515,1,1,73017.30000001192,378467.3000000119,9999,ATS,B,24
0,test,2,C,haborder.png,0,z,Thu Sep 18 2025 18:42:26 GMT-0500 (Central Daylight Time),503369.40000003576,CFD-WF-026-008-A.jpg,1700,solid,O,None,1516,9,1,3233.699999988079,500135.7000000477,9999,ATS,B,1
0,test,2,C,haborder.png,0,z,Thu Sep 18 2025 18:42:26 GMT-0500 (Central Daylight Time),506802.7000000477,CFD-BF-050-012-A.jpg,1900,solid,O,None,1516,8,1,6667.0,500135.7000000477,9999,ATS,B,2
0,test,2,C,haborder.png,0,z,Thu Sep 18 2025 18:42:26 GMT-0500 (Central Daylight Time),509735.8000000119,CFD-BF-051-043-A.jpg,1400,solid,O,None,1516,7,1,9600.099999964237,500135.7000000477,9999,ATS,B,3
0,test,2,C,mfborder.png,0,z,Thu Sep 18 2025 18:42:26 GMT-0500 (Central Daylight Time),512969.3000000119,CFD-WF-011-006-HC.jpg,1700,dash,O,None,1516,1,1,12833.599999964237,500135.7000000477,9999,ATS,B,4
0,test,2,C,haborder.png,0,m,Thu Sep 18 2025 18:42:26 GMT-0500 (Central Daylight Time),515502.60000002384,CFD-WM-011-006-HC.jpg,1000,solid,O,None,1515,12,1,15366.899999976158,500135.7000000477,9999,ATS,B,5
0,test,2,C,mfborder.png,0,m,Thu Sep 18 2025 18:42:26 GMT-0500 (Central Daylight Time),519036.0,CFD-BM-037-041-A.jpg,2000,dash,O,None,1516,5,1,18900.299999952316,500135.7000000477,9999,ATS,B,6
0,test,2,C,haborder.png,0,z,Thu Sep 18 2025 18:42:26 GMT-0500 (Central Daylight Time),522269.60000002384,CFD-WF-026-008-A.jpg,1700,solid,O,None,1515,9,1,22133.899999976158,500135.7000000477,9999,ATS,B,7
0,test,2,C,mfborder.png,0,z,Thu Sep 18 2025 18:42:26 GMT-0500 (Central Daylight Time),525419.4000000358,CFD-WF-013-015-A.jpg,1600,dash,O,None,1515,2,1,25283.69999998808,500135.7000000477,9999,ATS,B,8
0,test,2,C,mfborder.png,0,m,Thu Sep 18 2025 18:42:26 GMT-0500 (Central Daylight Time),527952.9000000358,CFD-BM-015-017-HC.jpg,1000,dash,O,None,1516,4,1,27817.19999998808,500135.7000000477,9999,ATS,B,9
0,test,2,C,mfborder.png,0,m,Thu Sep 18 2025 18:42:26 GMT-0500 (Central Daylight Time),530686.5,CFD-WM-009-009-A.jpg,1200,dash,O,None,1516,6,1,30550.799999952316,500135.7000000477,9999,ATS,B,10
0,test,2,C,haborder.png,0,z,Thu Sep 18 2025 18:42:26 GMT-0500 (Central Daylight Time),533619.7000000477,CFD-BF-051-043-A.jpg,1400,solid,O,None,1515,7,1,33484.0,500135.7000000477,9999,ATS,B,11
0,test,2,C,mfborder.png,0,m,Thu Sep 18 2025 18:42:26 GMT-0500 (Central Daylight Time),536353.0,CFD-WM-009-009-A.jpg,1200,dash,O,None,1516,6,1,36217.299999952316,500135.7000000477,9999,ATS,B,12
0,test,2,C,mfborder.png,0,m,Thu Sep 18 2025 18:42:26 GMT-0500 (Central Daylight Time),538903.1000000238,CFD-BM-015-017-HC.jpg,1000,dash,O,None,1516,4,1,38767.39999997616,500135.7000000477,9999,ATS,B,13
0,test,2,C,mfborder.png,0,z,Thu Sep 18 2025 18:42:26 GMT-0500 (Central Daylight Time),542036.6000000238,CFD-WF-013-015-A.jpg,1600,dash,O,None,1515,2,1,41900.89999997616,500135.7000000477,9999,ATS,B,14
0,test,2,C,haborder.png,0,m,Thu Sep 18 2025 18:42:26 GMT-0500 (Central Daylight Time),544569.9000000358,CFD-WM-011-006-HC.jpg,1000,solid,O,None,1516,12,1,44434.19999998808,500135.7000000477,9999,ATS,B,15
0,test,2,C,mfborder.png,0,z,Thu Sep 18 2025 18:42:26 GMT-0500 (Central Daylight Time),547604.0,CFD-BF-035-007-HC.jpg,1500,dash,O,None,1517,3,1,47468.299999952316,500135.7000000477,9999,ATS,B,16
0,test,2,C,haborder.png,0,m,Thu Sep 18 2025 18:42:26 GMT-0500 (Central Daylight Time),550737.6000000238,CFD-BM-020-024-HC.jpg,1600,solid,O,None,1515,10,1,50601.89999997616,500135.7000000477,9999,ATS,B,17
0,test,2,C,haborder.png,0,m,Thu Sep 18 2025 18:42:26 GMT-0500 (Central Daylight Time),553770.3000000119,CFD-WM-011-006-HC.jpg,1500,solid,O,None,1516,11,1,53634.59999996424,500135.7000000477,9999,ATS,B,18
0,test,2,C,haborder.png,0,m,Thu Sep 18 2025 18:42:26 GMT-0500 (Central Daylight Time),556803.6000000238,CFD-WM-011-006-HC.jpg,1500,solid,O,None,1516,11,1,56667.89999997616,500135.7000000477,9999,ATS,B,19
0,test,2,C,haborder.png,0,z,Thu Sep 18 2025 18:42:26 GMT-0500 (Central Daylight Time),560237.1000000238,CFD-BF-050-012-A.jpg,1900,solid,O,None,1516,8,1,60101.39999997616,500135.7000000477,9999,ATS,B,20
0,test,2,C,mfborder.png,0,m,Thu Sep 18 2025 18:42:26 GMT-0500 (Central Daylight Time),563770.4000000358,CFD-BM-037-041-A.jpg,2000,dash,O,None,1515,5,1,63634.69999998808,500135.7000000477,9999,ATS,B,21
0,test,2,C,haborder.png,0,m,Thu Sep 18 2025 18:42:26 GMT-0500 (Central Daylight Time),566903.6000000238,CFD-BM-020-024-HC.jpg,1600,solid,O,None,1516,10,1,66767.89999997616,500135.7000000477,9999,ATS,B,22
0,test,2,C,mfborder.png,0,z,Thu Sep 18 2025 18:42:26 GMT-0500 (Central Daylight Time),569937.2000000477,CFD-BF-035-007-HC.jpg,1500,dash,O,None,1516,3,1,69801.5,500135.7000000477,9999,ATS,B,23
0,test,2,C,mfborder.png,0,z,Thu Sep 18 2025 18:42:26 GMT-0500 (Central Daylight Time),573170.5,CFD-WF-011-006-HC.jpg,1700,dash,O,None,1515,1,1,73034.79999995232,500135.7000000477,9999,ATS,B,24
0,test,3,C,mfborder.png,0,z,Thu Sep 18 2025 18:42:26 GMT-0500 (Central Daylight Time),578238.5,CFD-WF-026-008-A.jpg,1500,dash,O,None,1516,3,1,3034.199999988079,575204.3000000119,9999,ATS,B,1
0,test,3,C,mfborder.png,0,z,Thu Sep 18 2025 18:42:26 GMT-0500 (Central Daylight Time),581387.4000000358,CFD-BF-051-043-A.jpg,1600,dash,O,None,1515,2,1,6183.100000023842,575204.3000000119,9999,ATS,B,2
0,test,3,C,haborder.png,0,m,Thu Sep 18 2025 18:42:26 GMT-0500 (Central Daylight Time),584520.8000000119,CFD-BF-035-007-HC.jpg,1600,solid,O,None,1516,10,1,9316.5,575204.3000000119,9999,ATS,B,3
0,test,3,C,haborder.png,0,z,Thu Sep 18 2025 18:42:26 GMT-0500 (Central Daylight Time),587454.4000000358,CFD-WM-009-009-A.jpg,1400,solid,O,None,1506,7,1,12250.100000023842,575204.3000000119,9999,ATS,B,4
0,test,3,C,mfborder.png,0,m,Thu Sep 18 2025 18:42:26 GMT-0500 (Central Daylight Time),589987.7000000477,CFD-WM-012-007-HC.jpg,1000,dash,O,None,1516,4,1,14783.400000035763,575204.3000000119,9999,ATS,B,5
0,test,3,C,haborder.png,0,z,Thu Sep 18 2025 18:42:26 GMT-0500 (Central Daylight Time),593238.6000000238,CFD-BM-041-048-A.jpg,1700,solid,O,None,1516,9,1,18034.30000001192,575204.3000000119,9999,ATS,B,6
0,test,3,C,mfborder.png,0,z,Thu Sep 18 2025 18:42:26 GMT-0500 (Central Daylight Time),596471.3000000119,CFD-BF-027-013-HC.jpg,1700,dash,O,None,1516,1,1,21267.0,575204.3000000119,9999,ATS,B,7
0,test,3,C,mfborder.png,0,m,Thu Sep 18 2025 18:42:26 GMT-0500 (Central Daylight Time),600004.7000000477,CFD-WM-037-060-A.jpg,2000,dash,O,None,1515,5,1,24800.400000035763,575204.3000000119,9999,ATS,B,8
0,test,3,C,haborder.png,0,m,Thu Sep 18 2025 18:42:26 GMT-0500 (Central Daylight Time),603038.0,CFD-WF-027-007-HC.jpg,1500,solid,O,None,1516,11,1,27833.69999998808,575204.3000000119,9999,ATS,B,9
0,test,3,C,mfborder.png,0,z,Thu Sep 18 2025 18:42:26 GMT-0500 (Central Daylight Time),606071.5,CFD-WF-026-008-A.jpg,1500,dash,O,None,1515,3,1,30867.19999998808,575204.3000000119,9999,ATS,B,10
0,test,3,C,haborder.png,0,m,Thu Sep 18 2025 18:42:26 GMT-0500 (Central Daylight Time),609204.8000000119,CFD-BF-035-007-HC.jpg,1600,solid,O,None,1516,10,1,34000.5,575204.3000000119,9999,ATS,B,11
0,test,3,C,mfborder.png,0,z,Thu Sep 18 2025 18:42:26 GMT-0500 (Central Daylight Time),612438.2000000477,CFD-BF-027-013-HC.jpg,1700,dash,O,None,1516,1,1,37233.90000003576,575204.3000000119,9999,ATS,B,12
0,test,3,C,mfborder.png,0,m,Thu Sep 18 2025 18:42:26 GMT-0500 (Central Daylight Time),615171.7000000477,CFD-BM-020-024-HC.jpg,1200,dash,O,None,1515,6,1,39967.40000003576,575204.3000000119,9999,ATS,B,13
0,test,3,C,haborder.png,0,z,Thu Sep 18 2025 18:42:26 GMT-0500 (Central Daylight Time),618404.2000000477,CFD-BM-041-048-A.jpg,1700,solid,O,None,1515,9,1,43199.90000003576,575204.3000000119,9999,ATS,B,14
0,test,3,C,haborder.png,0,m,Thu Sep 18 2025 18:42:26 GMT-0500 (Central Daylight Time),620937.6000000238,CFD-WF-011-006-HC.jpg,1000,solid,O,None,1515,12,1,45733.30000001192,575204.3000000119,9999,ATS,B,15
0,test,3,C,haborder.png,0,z,Thu Sep 18 2025 18:42:26 GMT-0500 (Central Daylight Time),624372.8000000119,CFD-BM-037-041-A.jpg,1900,solid,O,None,1518,8,1,49168.5,575204.3000000119,9999,ATS,B,16
0,test,3,C,mfborder.png,0,m,Thu Sep 18 2025 18:42:26 GMT-0500 (Central Daylight Time),627105.3000000119,CFD-BM-020-024-HC.jpg,1200,dash,O,None,1516,6,1,51901.0,575204.3000000119,9999,ATS,B,17
0,test,3,C,mfborder.png,0,m,Thu Sep 18 2025 18:42:26 GMT-0500 (Central Daylight Time),630639.0,CFD-WM-037-060-A.jpg,2000,dash,O,None,1516,5,1,55434.69999998808,575204.3000000119,9999,ATS,B,18
0,test,3,C,haborder.png,0,z,Thu Sep 18 2025 18:42:26 GMT-0500 (Central Daylight Time),634072.0,CFD-BM-037-041-A.jpg,1900,solid,O,None,1516,8,1,58867.69999998808,575204.3000000119,9999,ATS,B,19
0,test,3,C,mfborder.png,0,m,Thu Sep 18 2025 18:42:26 GMT-0500 (Central Daylight Time),636606.4000000358,CFD-WM-012-007-HC.jpg,1000,dash,O,None,1517,4,1,61402.10000002384,575204.3000000119,9999,ATS,B,20
0,test,3,C,haborder.png,0,m,Thu Sep 18 2025 18:42:26 GMT-0500 (Central Daylight Time),639638.7000000477,CFD-WF-027-007-HC.jpg,1500,solid,O,None,1516,11,1,64434.40000003576,575204.3000000119,9999,ATS,B,21
0,test,3,C,haborder.png,0,m,Thu Sep 18 2025 18:42:26 GMT-0500 (Central Daylight Time),642172.0,CFD-WF-011-006-HC.jpg,1000,solid,O,None,1517,12,1,66967.69999998808,575204.3000000119,9999,ATS,B,22
0,test,3,C,haborder.png,0,z,Thu Sep 18 2025 18:42:26 GMT-0500 (Central Daylight Time),645105.4000000358,CFD-WM-009-009-A.jpg,1400,solid,O,None,1515,7,1,69901.10000002384,575204.3000000119,9999,ATS,B,23
0,test,3,C,mfborder.png,0,z,Thu Sep 18 2025 18:42:26 GMT-0500 (Central Daylight Time),648255.7000000477,CFD-BF-051-043-A.jpg,1600,dash,O,None,1515,2,1,73051.40000003576,575204.3000000119,9999,ATS,B,24
0,test,4,C,mfborder.png,0,m,Thu Sep 18 2025 18:42:26 GMT-0500 (Central Daylight Time),656255.7000000477,CFD-WM-009-009-A.jpg,1200,dash,O,None,1517,6,1,2733.5,653522.2000000477,9999,ATS,B,1
0,test,4,C,haborder.png,0,z,Thu Sep 18 2025 18:42:26 GMT-0500 (Central Daylight Time),659689.4000000358,CFD-BF-050-012-A.jpg,1900,solid,O,None,1516,8,1,6167.199999988079,653522.2000000477,9999,ATS,B,2
0,test,4,C,mfborder.png,0,z,Thu Sep 18 2025 18:42:26 GMT-0500 (Central Daylight Time),662822.5,CFD-WF-013-015-A.jpg,1600,dash,O,None,1514,2,1,9300.299999952316,653522.2000000477,9999,ATS,B,3
0,test,4,C,mfborder.png,0,m,Thu Sep 18 2025 18:42:26 GMT-0500 (Central Daylight Time),665372.5,CFD-BM-015-017-HC.jpg,1000,dash,O,None,1515,4,1,11850.299999952316,653522.2000000477,9999,ATS,B,4
0,test,4,C,haborder.png,0,z,Thu Sep 18 2025 18:42:26 GMT-0500 (Central Daylight Time),668806.0,CFD-BF-050-012-A.jpg,1900,solid,O,None,1515,8,1,15283.799999952316,653522.2000000477,9999,ATS,B,5
0,test,4,C,haborder.png,0,z,Thu Sep 18 2025 18:42:26 GMT-0500 (Central Daylight Time),672039.4000000358,CFD-WF-026-008-A.jpg,1700,solid,O,None,1515,9,1,18517.19999998808,653522.2000000477,9999,ATS,B,6
0,test,4,C,haborder.png,0,m,Thu Sep 18 2025 18:42:26 GMT-0500 (Central Daylight Time),675172.8000000119,CFD-BM-020-024-HC.jpg,1600,solid,O,None,1516,10,1,21650.599999964237,653522.2000000477,9999,ATS,B,7
0,test,4,C,mfborder.png,0,z,Thu Sep 18 2025 18:42:26 GMT-0500 (Central Daylight Time),678423.0,CFD-WF-011-006-HC.jpg,1700,dash,O,None,1516,1,1,24900.799999952316,653522.2000000477,9999,ATS,B,8
0,test,4,C,haborder.png,0,z,Thu Sep 18 2025 18:42:26 GMT-0500 (Central Daylight Time),681357.3000000119,CFD-BF-051-043-A.jpg,1400,solid,O,None,1516,7,1,27835.099999964237,653522.2000000477,9999,ATS,B,9
0,test,4,C,haborder.png,0,m,Thu Sep 18 2025 18:42:26 GMT-0500 (Central Daylight Time),683889.8000000119,CFD-WM-011-006-HC.jpg,1000,solid,O,None,1516,12,1,30367.599999964237,653522.2000000477,9999,ATS,B,10
0,test,4,C,mfborder.png,0,z,Thu Sep 18 2025 18:42:26 GMT-0500 (Central Daylight Time),687123.1000000238,CFD-WF-011-006-HC.jpg,1700,dash,O,None,1516,1,1,33600.89999997616,653522.2000000477,9999,ATS,B,11
0,test,4,C,mfborder.png,0,m,Thu Sep 18 2025 18:42:26 GMT-0500 (Central Daylight Time),689856.6000000238,CFD-WM-009-009-A.jpg,1200,dash,O,None,1515,6,1,36334.39999997616,653522.2000000477,9999,ATS,B,12
0,test,4,C,haborder.png,0,m,Thu Sep 18 2025 18:42:26 GMT-0500 (Central Daylight Time),692989.9000000358,CFD-BM-020-024-HC.jpg,1600,solid,O,None,1516,10,1,39467.69999998808,653522.2000000477,9999,ATS,B,13
0,test,4,C,haborder.png,0,m,Thu Sep 18 2025 18:42:26 GMT-0500 (Central Daylight Time),696023.3000000119,CFD-WM-011-006-HC.jpg,1500,solid,O,None,1516,11,1,42501.09999996424,653522.2000000477,9999,ATS,B,14
0,test,4,C,mfborder.png,0,z,Thu Sep 18 2025 18:42:26 GMT-0500 (Central Daylight Time),699156.7000000477,CFD-WF-013-015-A.jpg,1600,dash,O,None,1515,2,1,45634.5,653522.2000000477,9999,ATS,B,15
0,test,4,C,haborder.png,0,m,Thu Sep 18 2025 18:42:26 GMT-0500 (Central Daylight Time),702191.0,CFD-WM-011-006-HC.jpg,1500,solid,O,None,1516,11,1,48668.799999952316,653522.2000000477,9999,ATS,B,16
0,test,4,C,mfborder.png,0,m,Thu Sep 18 2025 18:42:26 GMT-0500 (Central Daylight Time),704723.5,CFD-BM-015-017-HC.jpg,1000,dash,O,None,1515,4,1,51201.299999952316,653522.2000000477,9999,ATS,B,17
0,test,4,C,mfborder.png,0,m,Thu Sep 18 2025 18:42:26 GMT-0500 (Central Daylight Time),708257.0,CFD-BM-037-041-A.jpg,2000,dash,O,None,1516,5,1,54734.799999952316,653522.2000000477,9999,ATS,B,18
0,test,4,C,mfborder.png,0,z,Thu Sep 18 2025 18:42:26 GMT-0500 (Central Daylight Time),711290.3000000119,CFD-BF-035-007-HC.jpg,1500,dash,O,None,1516,3,1,57768.09999996424,653522.2000000477,9999,ATS,B,19
0,test,4,C,mfborder.png,0,m,Thu Sep 18 2025 18:42:26 GMT-0500 (Central Daylight Time),714840.5,CFD-BM-037-041-A.jpg,2000,dash,O,None,1516,5,1,61318.299999952316,653522.2000000477,9999,ATS,B,20
0,test,4,C,haborder.png,0,m,Thu Sep 18 2025 18:42:26 GMT-0500 (Central Daylight Time),717373.8000000119,CFD-WM-011-006-HC.jpg,1000,solid,O,None,1516,12,1,63851.59999996424,653522.2000000477,9999,ATS,B,21
0,test,4,C,haborder.png,0,z,Thu Sep 18 2025 18:42:26 GMT-0500 (Central Daylight Time),720307.1000000238,CFD-BF-051-043-A.jpg,1400,solid,O,None,1516,7,1,66784.89999997616,653522.2000000477,9999,ATS,B,22
0,test,4,C,mfborder.png,0,z,Thu Sep 18 2025 18:42:26 GMT-0500 (Central Daylight Time),723340.6000000238,CFD-BF-035-007-HC.jpg,1500,dash,O,None,1515,3,1,69818.39999997616,653522.2000000477,9999,ATS,B,23
0,test,4,C,haborder.png,0,z,Thu Sep 18 2025 18:42:26 GMT-0500 (Central Daylight Time),726574.0,CFD-WF-026-008-A.jpg,1700,solid,O,None,1516,9,1,73051.79999995232,653522.2000000477,9999,ATS,B,24
