acc_sum,block,block_c,block_cond,con_img,correct,correct_response,datetime,endtime,face,jitter,line,project,response,response_time,row_sel,session_number,start_end,starttime,subject_id,task,task_vers,trial
1,prac,1,A,haborder.png,1,m,Thu Sep 18 2025 19:49:57 GMT-0500 (Central Daylight Time),41535.69999998808,CFD-BM-034-035-HC.jpg,1700,solid,O,m,1001,1,1,3516.600000023842,38019.09999996424,9999,ATS,C,1
2,prac,1,A,haborder.png,1,m,Thu Sep 18 2025 19:49:57 GMT-0500 (Central Daylight Time),44269.09999996424,CFD-WM-028-005-HC.jpg,1400,solid,O,m,529,7,1,6250.0,38019.09999996424,9999,ATS,C,2
3,prac,1,A,haborder.png,1,z,Thu Sep 18 2025 19:49:57 GMT-0500 (Central Daylight Time),47469.299999952316,CFD-WM-036-018-A.jpg,1900,solid,O,z,494,8,1,9450.199999988079,38019.09999996424,9999,ATS,C,3
4,prac,1,A,haborder.png,1,z,Thu Sep 18 2025 19:49:57 GMT-0500 (Central Daylight Time),50469.5,CFD-WF-037-016-A.jpg,1600,solid,O,z,592,10,1,12450.400000035763,38019.09999996424,9999,ATS,C,4
4,prac,1,A,haborder.png,0,z,Thu Sep 18 2025 19:49:57 GMT-0500 (Central Daylight Time),52802.89999997616,CFD-WF-023-013-A.jpg,1000,solid,O,m,522,12,1,14783.800000011921,38019.09999996424,9999,ATS,C,5
5,prac,1,A,haborder.png,1,z,Thu Sep 18 2025 19:49:57 GMT-0500 (Central Daylight Time),55152.89999997616,CFD-BF-031-020-A.jpg,1000,solid,O,z,534,4,1,17133.80000001192,38019.09999996424,9999,ATS,C,6
6,prac,1,A,haborder.png,1,m,Thu Sep 18 2025 19:49:57 GMT-0500 (Central Daylight Time),58153.09999996424,CFD-WM-035-036-HC.jpg,1700,solid,O,m,487,9,1,20134.0,38019.09999996424,9999,ATS,C,7
6,prac,1,A,haborder.png,0,m,Thu Sep 18 2025 19:49:57 GMT-0500 (Central Daylight Time),61486.19999998808,CFD-BF-019-004-HC.jpg,2000,solid,O,z,527,5,1,23467.100000023842,38019.09999996424,9999,ATS,C,8
6,prac,1,A,haborder.png,0,z,Thu Sep 18 2025 19:49:57 GMT-0500 (Central Daylight Time),64486.5,CFD-BM-043-014-A.jpg,1600,solid,O,m,592,2,1,26467.400000035763,38019.09999996424,9999,ATS,C,9
7,prac,1,A,haborder.png,1,z,Thu Sep 18 2025 19:49:57 GMT-0500 (Central Daylight Time),67086.59999996424,CFD-BF-002-018-A.jpg,1200,solid,O,z,587,6,1,29067.5,38019.09999996424,9999,ATS,C,10
8,prac,1,A,haborder.png,1,m,Thu Sep 18 2025 19:49:57 GMT-0500 (Central Daylight Time),70303.19999998808,CFD-WF-013-009-HC.jpg,1500,solid,O,m,906,11,1,32284.100000023842,38019.09999996424,9999,ATS,C,11
9,prac,1,A,haborder.png,1,m,Thu Sep 18 2025 19:49:57 GMT-0500 (Central Daylight Time),73253.29999995232,CFD-BM-022-004-HC.jpg,1500,solid,O,m,635,3,1,35234.19999998808,38019.09999996424,9999,ATS,C,12
1,prac,1,B,mfborder.png,1,m,Thu Sep 18 2025 19:49:57 GMT-0500 (Central Daylight Time),81003.39999997616,CFD-BM-022-004-HC.jpg,1700,1,O,m,556,dash,1,3066.399999976158,77937.0,9999,ATS,C,1
2,prac,1,B,mfborder.png,1,m,Thu Sep 18 2025 19:49:57 GMT-0500 (Central Daylight Time),84020.0,CFD-WM-036-018-A.jpg,1700,9,O,m,499,dash,1,6083.0,77937.0,9999,ATS,C,2
3,prac,1,B,mfborder.png,1,m,Thu Sep 18 2025 19:49:57 GMT-0500 (Central Daylight Time),87036.89999997616,CFD-BM-021-026-A.jpg,1600,2,O,m,625,dash,1,9099.899999976158,77937.0,9999,ATS,C,3
4,prac,1,B,mfborder.png,1,m,Thu Sep 18 2025 19:49:57 GMT-0500 (Central Daylight Time),90253.79999995232,CFD-BM-043-014-A.jpg,2000,5,O,m,403,dash,1,12316.799999952316,77937.0,9999,ATS,C,4
5,prac,1,B,mfborder.png,1,z,Thu Sep 18 2025 19:49:57 GMT-0500 (Central Daylight Time),93087.39999997616,CFD-BF-019-004-HC.jpg,1400,7,O,z,622,dash,1,15150.399999976158,77937.0,9999,ATS,C,5
6,prac,1,B,mfborder.png,1,z,Thu Sep 18 2025 19:49:57 GMT-0500 (Central Daylight Time),96353.79999995232,CFD-WF-001-010-HC.jpg,1900,8,O,z,565,dash,1,18416.799999952316,77937.0,9999,ATS,C,6
7,prac,1,B,mfborder.png,1,z,Thu Sep 18 2025 19:49:57 GMT-0500 (Central Daylight Time),99137.19999998808,CFD-BF-042-031-HC.jpg,1500,3,O,z,468,dash,1,21200.19999998808,77937.0,9999,ATS,C,7
8,prac,1,B,mfborder.png,1,z,Thu Sep 18 2025 19:49:57 GMT-0500 (Central Daylight Time),101453.79999995232,CFD-BF-031-020-A.jpg,1000,4,O,z,507,dash,1,23516.799999952316,77937.0,9999,ATS,C,8
9,prac,1,B,mfborder.png,1,m,Thu Sep 18 2025 19:49:57 GMT-0500 (Central Daylight Time),104304.89999997616,CFD-WM-034-040-A.jpg,1200,6,O,m,840,dash,1,26367.899999976158,77937.0,9999,ATS,C,9
10,prac,1,B,mfborder.png,1,z,Thu Sep 18 2025 19:49:57 GMT-0500 (Central Daylight Time),107170.69999998808,CFD-WF-037-016-A.jpg,1500,11,O,z,580,dash,1,29233.69999998808,77937.0,9999,ATS,C,10
11,prac,1,B,mfborder.png,1,m,Thu Sep 18 2025 19:49:57 GMT-0500 (Central Daylight Time),110020.59999996424,CFD-WM-035-036-HC.jpg,1600,10,O,m,440,dash,1,32083.599999964237,77937.0,9999,ATS,C,11
12,prac,1,B,mfborder.png,1,z,Thu Sep 18 2025 19:49:57 GMT-0500 (Central Daylight Time),112570.69999998808,CFD-WF-013-009-HC.jpg,1000,12,O,z,740,dash,1,34633.69999998808,77937.0,9999,ATS,C,12
0,test,1,A,haborder.png,0,m,Thu Sep 18 2025 19:49:57 GMT-0500 (Central Daylight Time),118354.5,CFD-BM-034-035-HC.jpg,1700,solid,O,None,1516,1,1,3233.5,115121.0,9999,ATS,C,1
0,test,1,A,haborder.png,0,z,Thu Sep 18 2025 19:49:57 GMT-0500 (Central Daylight Time),121487.59999996424,CFD-BM-043-014-A.jpg,1600,solid,O,None,1515,2,1,6366.599999964237,115121.0,9999,ATS,C,2
0,test,1,A,haborder.png,0,m,Thu Sep 18 2025 19:49:57 GMT-0500 (Central Daylight Time),125021.0,CFD-BF-019-004-HC.jpg,2000,solid,O,None,1516,5,1,9900.0,115121.0,9999,ATS,C,3
0,test,1,A,haborder.png,0,z,Thu Sep 18 2025 19:49:57 GMT-0500 (Central Daylight Time),127554.29999995232,CFD-BF-031-020-A.jpg,1000,solid,O,None,1516,4,1,12433.299999952316,115121.0,9999,ATS,C,4
0,test,1,A,haborder.png,0,z,Thu Sep 18 2025 19:49:57 GMT-0500 (Central Daylight Time),130687.79999995232,CFD-BM-043-014-A.jpg,1600,solid,O,None,1515,2,1,15566.799999952316,115121.0,9999,ATS,C,5
0,test,1,A,haborder.png,0,z,Thu Sep 18 2025 19:49:57 GMT-0500 (Central Daylight Time),133421.09999996424,CFD-BF-002-018-A.jpg,1200,solid,O,None,1516,6,1,18300.099999964237,115121.0,9999,ATS,C,6
0,test,1,A,haborder.png,0,m,Thu Sep 18 2025 19:49:57 GMT-0500 (Central Daylight Time),136955.39999997616,CFD-BF-019-004-HC.jpg,2000,solid,O,None,1516,5,1,21834.399999976158,115121.0,9999,ATS,C,7
0,test,1,A,haborder.png,0,m,Thu Sep 18 2025 19:49:57 GMT-0500 (Central Daylight Time),139904.59999996424,CFD-WM-028-005-HC.jpg,1400,solid,O,None,1515,7,1,24783.599999964237,115121.0,9999,ATS,C,8
0,test,1,A,haborder.png,0,z,Thu Sep 18 2025 19:49:57 GMT-0500 (Central Daylight Time),142638.0,CFD-BF-002-018-A.jpg,1200,solid,O,None,1516,6,1,27517.0,115121.0,9999,ATS,C,9
0,test,1,A,haborder.png,0,m,Thu Sep 18 2025 19:49:57 GMT-0500 (Central Daylight Time),145671.39999997616,CFD-BM-022-004-HC.jpg,1500,solid,O,None,1515,3,1,30550.399999976158,115121.0,9999,ATS,C,10
0,test,1,A,haborder.png,0,m,Thu Sep 18 2025 19:49:57 GMT-0500 (Central Daylight Time),148904.79999995232,CFD-WM-035-036-HC.jpg,1700,solid,O,None,1516,9,1,33783.799999952316,115121.0,9999,ATS,C,11
0,test,1,A,haborder.png,0,m,Thu Sep 18 2025 19:49:57 GMT-0500 (Central Daylight Time),151938.39999997616,CFD-WF-013-009-HC.jpg,1500,solid,O,None,1516,11,1,36817.39999997616,115121.0,9999,ATS,C,12
0,test,1,A,haborder.png,0,z,Thu Sep 18 2025 19:49:57 GMT-0500 (Central Daylight Time),155071.79999995232,CFD-WF-037-016-A.jpg,1600,solid,O,None,1516,10,1,39950.799999952316,115121.0,9999,ATS,C,13
0,test,1,A,haborder.png,0,z,Thu Sep 18 2025 19:49:57 GMT-0500 (Central Daylight Time),157604.59999996424,CFD-WF-023-013-A.jpg,1000,solid,O,None,1517,12,1,42483.59999996424,115121.0,9999,ATS,C,14
0,test,1,A,haborder.png,0,z,Thu Sep 18 2025 19:49:57 GMT-0500 (Central Daylight Time),161038.39999997616,CFD-WM-036-018-A.jpg,1900,solid,O,None,1515,8,1,45917.39999997616,115121.0,9999,ATS,C,15
0,test,1,A,haborder.png,0,z,Thu Sep 18 2025 19:49:57 GMT-0500 (Central Daylight Time),163571.69999998808,CFD-WF-023-013-A.jpg,1000,solid,O,None,1516,12,1,48450.69999998808,115121.0,9999,ATS,C,16
0,test,1,A,haborder.png,0,m,Thu Sep 18 2025 19:49:57 GMT-0500 (Central Daylight Time),166605.19999998808,CFD-WF-013-009-HC.jpg,1500,solid,O,None,1516,11,1,51484.19999998808,115121.0,9999,ATS,C,17
0,test,1,A,haborder.png,0,m,Thu Sep 18 2025 19:49:57 GMT-0500 (Central Daylight Time),169538.59999996424,CFD-WM-028-005-HC.jpg,1400,solid,O,None,1515,7,1,54417.59999996424,115121.0,9999,ATS,C,18
0,test,1,A,haborder.png,0,m,Thu Sep 18 2025 19:49:57 GMT-0500 (Central Daylight Time),172771.89999997616,CFD-BM-034-035-HC.jpg,1700,solid,O,None,1516,1,1,57650.89999997616,115121.0,9999,ATS,C,19
0,test,1,A,haborder.png,0,z,Thu Sep 18 2025 19:49:57 GMT-0500 (Central Daylight Time),175905.39999997616,CFD-WF-037-016-A.jpg,1600,solid,O,None,1515,10,1,60784.39999997616,115121.0,9999,ATS,C,20
0,test,1,A,haborder.png,0,z,Thu Sep 18 2025 19:49:57 GMT-0500 (Central Daylight Time),178438.79999995232,CFD-BF-031-020-A.jpg,1000,solid,O,None,1515,4,1,63317.799999952316,115121.0,9999,ATS,C,21
0,test,1,A,haborder.png,0,m,Thu Sep 18 2025 19:49:57 GMT-0500 (Central Daylight Time),181672.19999998808,CFD-WM-035-036-HC.jpg,1700,solid,O,None,1515,9,1,66551.19999998808,115121.0,9999,ATS,C,22
0,test,1,A,haborder.png,0,z,Thu Sep 18 2025 19:49:57 GMT-0500 (Central Daylight Time),185106.5,CFD-WM-036-018-A.jpg,1900,solid,O,None,1516,8,1,69985.5,115121.0,9999,ATS,C,23
0,test,1,A,haborder.png,0,m,Thu Sep 18 2025 19:49:57 GMT-0500 (Central Daylight Time),188139.0,CFD-BM-022-004-HC.jpg,1500,solid,O,None,1516,3,1,73018.0,115121.0,9999,ATS,C,24
0,test,1,B,mfborder.png,0,z,Thu Sep 18 2025 19:49:57 GMT-0500 (Central Daylight Time),282341.0,CFD-WF-001-010-HC.jpg,1900,dash,O,None,1515,8,1,3433.300000011921,278907.6999999881,9999,ATS,C,1
0,test,1,B,mfborder.png,0,m,Thu Sep 18 2025 19:49:57 GMT-0500 (Central Daylight Time),285874.39999997616,CFD-BM-043-014-A.jpg,2000,dash,O,None,1514,5,1,6966.699999988079,278907.6999999881,9999,ATS,C,2
0,test,1,B,mfborder.png,0,z,Thu Sep 18 2025 19:49:57 GMT-0500 (Central Daylight Time),288907.7999999523,CFD-BF-042-031-HC.jpg,1500,dash,O,None,1516,3,1,10000.099999964237,278907.6999999881,9999,ATS,C,3
0,test,1,B,mfborder.png,0,m,Thu Sep 18 2025 19:49:57 GMT-0500 (Central Daylight Time),292158.0,CFD-WM-036-018-A.jpg,1700,dash,O,None,1515,9,1,13250.300000011921,278907.6999999881,9999,ATS,C,4
0,test,1,B,mfborder.png,0,z,Thu Sep 18 2025 19:49:57 GMT-0500 (Central Daylight Time),295091.2999999523,CFD-BF-019-004-HC.jpg,1400,dash,O,None,1515,7,1,16183.599999964237,278907.6999999881,9999,ATS,C,5
0,test,1,B,mfborder.png,0,z,Thu Sep 18 2025 19:49:57 GMT-0500 (Central Daylight Time),298124.6999999881,CFD-WF-037-016-A.jpg,1500,dash,O,None,1516,11,1,19217.0,278907.6999999881,9999,ATS,C,6
0,test,1,B,mfborder.png,0,z,Thu Sep 18 2025 19:49:57 GMT-0500 (Central Daylight Time),301158.1999999881,CFD-WF-037-016-A.jpg,1500,dash,O,None,1515,11,1,22250.5,278907.6999999881,9999,ATS,C,7
0,test,1,B,mfborder.png,0,z,Thu Sep 18 2025 19:49:57 GMT-0500 (Central Daylight Time),304108.1999999881,CFD-BF-019-004-HC.jpg,1400,dash,O,None,1516,7,1,25200.5,278907.6999999881,9999,ATS,C,8
0,test,1,B,mfborder.png,0,m,Thu Sep 18 2025 19:49:57 GMT-0500 (Central Daylight Time),307241.59999996424,CFD-WM-035-036-HC.jpg,1600,dash,O,None,1515,10,1,28333.899999976158,278907.6999999881,9999,ATS,C,9
0,test,1,B,mfborder.png,0,m,Thu Sep 18 2025 19:49:57 GMT-0500 (Central Daylight Time),310475.09999996424,CFD-BM-022-004-HC.jpg,1700,dash,O,None,1515,1,1,31567.399999976158,278907.6999999881,9999,ATS,C,10
0,test,1,B,mfborder.png,0,z,Thu Sep 18 2025 19:49:57 GMT-0500 (Central Daylight Time),313925.1999999881,CFD-WF-001-010-HC.jpg,1900,dash,O,None,1515,8,1,35017.5,278907.6999999881,9999,ATS,C,11
0,test,1,B,mfborder.png,0,m,Thu Sep 18 2025 19:49:57 GMT-0500 (Central Daylight Time),317458.59999996424,CFD-BM-043-014-A.jpg,2000,dash,O,None,1514,5,1,38550.89999997616,278907.6999999881,9999,ATS,C,12
0,test,1,B,mfborder.png,0,m,Thu Sep 18 2025 19:49:57 GMT-0500 (Central Daylight Time),320191.89999997616,CFD-WM-034-040-A.jpg,1200,dash,O,None,1516,6,1,41284.19999998808,278907.6999999881,9999,ATS,C,13
0,test,1,B,mfborder.png,0,m,Thu Sep 18 2025 19:49:57 GMT-0500 (Central Daylight Time),322941.89999997616,CFD-WM-034-040-A.jpg,1200,dash,O,None,1515,6,1,44034.19999998808,278907.6999999881,9999,ATS,C,14
0,test,1,B,mfborder.png,0,z,Thu Sep 18 2025 19:49:57 GMT-0500 (Central Daylight Time),325492.09999996424,CFD-WF-013-009-HC.jpg,1000,dash,O,None,1515,12,1,46584.39999997616,278907.6999999881,9999,ATS,C,15
0,test,1,B,mfborder.png,0,m,Thu Sep 18 2025 19:49:57 GMT-0500 (Central Daylight Time),328625.39999997616,CFD-BM-021-026-A.jpg,1600,dash,O,None,1515,2,1,49717.69999998808,278907.6999999881,9999,ATS,C,16
0,test,1,B,mfborder.png,0,z,Thu Sep 18 2025 19:49:57 GMT-0500 (Central Daylight Time),331159.7999999523,CFD-BF-031-020-A.jpg,1000,dash,O,None,1515,4,1,52252.09999996424,278907.6999999881,9999,ATS,C,17
0,test,1,B,mfborder.png,0,m,Thu Sep 18 2025 19:49:57 GMT-0500 (Central Daylight Time),334292.2999999523,CFD-BM-021-026-A.jpg,1600,dash,O,None,1515,2,1,55384.59999996424,278907.6999999881,9999,ATS,C,18
0,test,1,B,mfborder.png,0,z,Thu Sep 18 2025 19:49:57 GMT-0500 (Central Daylight Time),336825.59999996424,CFD-WF-013-009-HC.jpg,1000,dash,O,None,1514,12,1,57917.89999997616,278907.6999999881,9999,ATS,C,19
0,test,1,B,mfborder.png,0,z,Thu Sep 18 2025 19:49:57 GMT-0500 (Central Daylight Time),339859.0,CFD-BF-042-031-HC.jpg,1500,dash,O,None,1516,3,1,60951.30000001192,278907.6999999881,9999,ATS,C,20
0,test,1,B,mfborder.png,0,m,Thu Sep 18 2025 19:49:57 GMT-0500 (Central Daylight Time),343109.1999999881,CFD-BM-022-004-HC.jpg,1700,dash,O,None,1516,1,1,64201.5,278907.6999999881,9999,ATS,C,21
0,test,1,B,mfborder.png,0,z,Thu Sep 18 2025 19:49:57 GMT-0500 (Central Daylight Time),345642.5,CFD-BF-031-020-A.jpg,1000,dash,O,None,1515,4,1,66734.80000001192,278907.6999999881,9999,ATS,C,22
0,test,1,B,mfborder.png,0,m,Thu Sep 18 2025 19:49:57 GMT-0500 (Central Daylight Time),348875.6999999881,CFD-WM-036-018-A.jpg,1700,dash,O,None,1515,9,1,69968.0,278907.6999999881,9999,ATS,C,23
0,test,1,B,mfborder.png,0,m,Thu Sep 18 2025 19:49:57 GMT-0500 (Central Daylight Time),352009.1999999881,CFD-WM-035-036-HC.jpg,1600,dash,O,None,1515,10,1,73101.5,278907.6999999881,9999,ATS,C,24
0,prac,1,C,mfborder.png,0,z,Thu Sep 18 2025 19:49:57 GMT-0500 (Central Daylight Time),384144.5,CFD-WF-023-013-A.jpg,1500,solid,O,m,667,10,1,2984.300000011921,381160.1999999881,9999,ATS,C,1
1,prac,1,C,haborder.png,1,m,Thu Sep 18 2025 19:49:57 GMT-0500 (Central Daylight Time),386794.39999997616,CFD-WM-028-005-HC.jpg,1400,solid,O,m,445,10,1,5634.199999988079,381160.1999999881,9999,ATS,C,2
2,prac,1,C,haborder.png,1,m,Thu Sep 18 2025 19:49:57 GMT-0500 (Central Daylight Time),389293.6999999881,CFD-WM-028-005-HC.jpg,1000,dash,O,m,693,10,1,8133.5,381160.1999999881,9999,ATS,C,3
3,prac,1,C,mfborder.png,1,m,Thu Sep 18 2025 19:49:57 GMT-0500 (Central Daylight Time),392860.2999999523,CFD-BM-034-035-HC.jpg,2000,solid,O,m,757,10,1,11700.099999964237,381160.1999999881,9999,ATS,C,4
4,prac,1,C,haborder.png,1,z,Thu Sep 18 2025 19:49:57 GMT-0500 (Central Daylight Time),395943.6999999881,CFD-BF-002-018-A.jpg,1700,solid,O,z,568,10,1,14783.5,381160.1999999881,9999,ATS,C,5
5,prac,1,C,mfborder.png,1,m,Thu Sep 18 2025 19:49:57 GMT-0500 (Central Daylight Time),399043.89999997616,CFD-WM-036-018-A.jpg,1700,solid,O,m,589,10,1,17883.69999998808,381160.1999999881,9999,ATS,C,6
6,prac,1,C,mfborder.png,1,m,Thu Sep 18 2025 19:49:57 GMT-0500 (Central Daylight Time),401527.2999999523,CFD-BM-043-014-A.jpg,1200,dash,O,m,485,10,1,20367.099999964237,381160.1999999881,9999,ATS,C,7
7,prac,1,C,mfborder.png,1,z,Thu Sep 18 2025 19:49:57 GMT-0500 (Central Daylight Time),403760.59999996424,CFD-BF-019-004-HC.jpg,1000,dash,O,z,436,10,1,22600.399999976158,381160.1999999881,9999,ATS,C,8
8,prac,1,C,haborder.png,1,z,Thu Sep 18 2025 19:49:57 GMT-0500 (Central Daylight Time),406610.6999999881,CFD-WF-037-016-A.jpg,1600,dash,O,z,461,10,1,25450.5,381160.1999999881,9999,ATS,C,9
9,prac,1,C,haborder.png,1,z,Thu Sep 18 2025 19:49:57 GMT-0500 (Central Daylight Time),409827.39999997616,CFD-BF-031-020-A.jpg,1900,dash,O,z,533,10,1,28667.19999998808,381160.1999999881,9999,ATS,C,10
10,prac,1,C,haborder.png,1,m,Thu Sep 18 2025 19:49:57 GMT-0500 (Central Daylight Time),412660.89999997616,CFD-BM-022-004-HC.jpg,1500,solid,O,m,530,10,1,31500.69999998808,381160.1999999881,9999,ATS,C,11
11,prac,1,C,mfborder.png,1,z,Thu Sep 18 2025 19:49:57 GMT-0500 (Central Daylight Time),415610.7999999523,CFD-WF-013-009-HC.jpg,1600,dash,O,z,540,10,1,34450.59999996424,381160.1999999881,9999,ATS,C,12
0,test,1,C,haborder.png,0,z,Thu Sep 18 2025 19:49:57 GMT-0500 (Central Daylight Time),421127.89999997616,CFD-BM-043-014-A.jpg,1900,solid,O,None,1516,8,1,3433.5,417694.39999997616,9999,ATS,C,1
0,test,1,C,mfborder.png,0,m,Thu Sep 18 2025 19:49:57 GMT-0500 (Central Daylight Time),424661.7999999523,CFD-WM-034-040-A.jpg,2000,dash,O,None,1517,5,1,6967.399999976158,417694.39999997616,9999,ATS,C,2
0,test,1,C,haborder.png,0,m,Thu Sep 18 2025 19:49:57 GMT-0500 (Central Daylight Time),427694.2999999523,CFD-WF-001-010-HC.jpg,1500,solid,O,None,1516,11,1,9999.899999976158,417694.39999997616,9999,ATS,C,3
0,test,1,C,haborder.png,0,z,Thu Sep 18 2025 19:49:57 GMT-0500 (Central Daylight Time),431127.7999999523,CFD-BM-043-014-A.jpg,1900,solid,O,None,1515,8,1,13433.399999976158,417694.39999997616,9999,ATS,C,4
0,test,1,C,haborder.png,0,m,Thu Sep 18 2025 19:49:57 GMT-0500 (Central Daylight Time),434261.7999999523,CFD-BF-019-004-HC.jpg,1600,solid,O,None,1517,10,1,16567.399999976158,417694.39999997616,9999,ATS,C,5
0,test,1,C,mfborder.png,0,z,Thu Sep 18 2025 19:49:57 GMT-0500 (Central Daylight Time),437511.2999999523,CFD-BF-042-031-HC.jpg,1700,dash,O,None,1516,1,1,19816.899999976158,417694.39999997616,9999,ATS,C,6
0,test,1,C,haborder.png,0,m,Thu Sep 18 2025 19:49:57 GMT-0500 (Central Daylight Time),440044.5,CFD-WF-013-009-HC.jpg,1000,solid,O,None,1516,12,1,22350.100000023842,417694.39999997616,9999,ATS,C,7
0,test,1,C,haborder.png,0,z,Thu Sep 18 2025 19:49:57 GMT-0500 (Central Daylight Time),442978.1999999881,CFD-WM-036-018-A.jpg,1400,solid,O,None,1516,7,1,25283.80000001192,417694.39999997616,9999,ATS,C,8
0,test,1,C,haborder.png,0,m,Thu Sep 18 2025 19:49:57 GMT-0500 (Central Daylight Time),446111.39999997616,CFD-BF-019-004-HC.jpg,1600,solid,O,None,1505,10,1,28417.0,417694.39999997616,9999,ATS,C,9
0,test,1,C,haborder.png,0,m,Thu Sep 18 2025 19:49:57 GMT-0500 (Central Daylight Time),449144.39999997616,CFD-WF-001-010-HC.jpg,1500,solid,O,None,1515,11,1,31450.0,417694.39999997616,9999,ATS,C,10
0,test,1,C,mfborder.png,0,m,Thu Sep 18 2025 19:49:57 GMT-0500 (Central Daylight Time),451878.1999999881,CFD-BM-022-004-HC.jpg,1200,dash,O,None,1516,6,1,34183.80000001192,417694.39999997616,9999,ATS,C,11
0,test,1,C,mfborder.png,0,m,Thu Sep 18 2025 19:49:57 GMT-0500 (Central Daylight Time),454412.39999997616,CFD-WM-035-036-HC.jpg,1000,dash,O,None,1516,4,1,36718.0,417694.39999997616,9999,ATS,C,12
0,test,1,C,mfborder.png,0,z,Thu Sep 18 2025 19:49:57 GMT-0500 (Central Daylight Time),457545.7999999523,CFD-BF-031-020-A.jpg,1600,dash,O,None,1517,2,1,39851.39999997616,417694.39999997616,9999,ATS,C,13
0,test,1,C,mfborder.png,0,z,Thu Sep 18 2025 19:49:57 GMT-0500 (Central Daylight Time),460578.39999997616,CFD-WF-037-016-A.jpg,1500,dash,O,None,1515,3,1,42884.0,417694.39999997616,9999,ATS,C,14
0,test,1,C,mfborder.png,0,m,Thu Sep 18 2025 19:49:57 GMT-0500 (Central Daylight Time),463111.59999996424,CFD-WM-035-036-HC.jpg,1000,dash,O,None,1515,4,1,45417.19999998808,417694.39999997616,9999,ATS,C,15
0,test,1,C,haborder.png,0,z,Thu Sep 18 2025 19:49:57 GMT-0500 (Central Daylight Time),466045.39999997616,CFD-WM-036-018-A.jpg,1400,solid,O,None,1516,7,1,48351.0,417694.39999997616,9999,ATS,C,16
0,test,1,C,mfborder.png,0,m,Thu Sep 18 2025 19:49:57 GMT-0500 (Central Daylight Time),468778.39999997616,CFD-BM-022-004-HC.jpg,1200,dash,O,None,1514,6,1,51084.0,417694.39999997616,9999,ATS,C,17
0,test,1,C,haborder.png,0,z,Thu Sep 18 2025 19:49:57 GMT-0500 (Central Daylight Time),472011.89999997616,CFD-BM-021-026-A.jpg,1700,solid,O,None,1515,9,1,54317.5,417694.39999997616,9999,ATS,C,18
0,test,1,C,haborder.png,0,z,Thu Sep 18 2025 19:49:57 GMT-0500 (Central Daylight Time),475245.39999997616,CFD-BM-021-026-A.jpg,1700,solid,O,None,1516,9,1,57551.0,417694.39999997616,9999,ATS,C,19
0,test,1,C,mfborder.png,0,z,Thu Sep 18 2025 19:49:57 GMT-0500 (Central Daylight Time),478495.59999996424,CFD-BF-042-031-HC.jpg,1700,dash,O,None,1516,1,1,60801.19999998808,417694.39999997616,9999,ATS,C,20
0,test,1,C,haborder.png,0,m,Thu Sep 18 2025 19:49:57 GMT-0500 (Central Daylight Time),481028.7999999523,CFD-WF-013-009-HC.jpg,1000,solid,O,None,1516,12,1,63334.39999997616,417694.39999997616,9999,ATS,C,21
0,test,1,C,mfborder.png,0,z,Thu Sep 18 2025 19:49:57 GMT-0500 (Central Daylight Time),484062.09999996424,CFD-WF-037-016-A.jpg,1500,dash,O,None,1516,3,1,66367.69999998808,417694.39999997616,9999,ATS,C,22
0,test,1,C,mfborder.png,0,m,Thu Sep 18 2025 19:49:57 GMT-0500 (Central Daylight Time),487595.59999996424,CFD-WM-034-040-A.jpg,2000,dash,O,None,1515,5,1,69901.19999998808,417694.39999997616,9999,ATS,C,23
0,test,1,C,mfborder.png,0,z,Thu Sep 18 2025 19:49:57 GMT-0500 (Central Daylight Time),490729.1999999881,CFD-BF-031-020-A.jpg,1600,dash,O,None,1516,2,1,73034.80000001192,417694.39999997616,9999,ATS,C,24
0,test,2,C,haborder.png,0,m,Thu Sep 18 2025 19:49:57 GMT-0500 (Central Daylight Time),498104.89999997616,CFD-WM-028-005-HC.jpg,1500,solid,O,None,1501,11,1,3025.300000011921,495079.59999996424,9999,ATS,C,1
0,test,2,C,mfborder.png,0,m,Thu Sep 18 2025 19:49:57 GMT-0500 (Central Daylight Time),500829.6999999881,CFD-WM-036-018-A.jpg,1200,dash,O,None,1515,6,1,5750.100000023842,495079.59999996424,9999,ATS,C,2
0,test,2,C,mfborder.png,0,z,Thu Sep 18 2025 19:49:57 GMT-0500 (Central Daylight Time),504062.59999996424,CFD-WF-013-009-HC.jpg,1700,dash,O,None,1515,1,1,8983.0,495079.59999996424,9999,ATS,C,3
0,test,2,C,mfborder.png,0,m,Thu Sep 18 2025 19:49:57 GMT-0500 (Central Daylight Time),506595.89999997616,CFD-BM-034-035-HC.jpg,1000,dash,O,None,1516,4,1,11516.300000011921,495079.59999996424,9999,ATS,C,4
0,test,2,C,haborder.png,0,z,Thu Sep 18 2025 19:49:57 GMT-0500 (Central Daylight Time),509529.39999997616,CFD-BF-031-020-A.jpg,1400,solid,O,None,1515,7,1,14449.800000011921,495079.59999996424,9999,ATS,C,5
0,test,2,C,haborder.png,0,m,Thu Sep 18 2025 19:49:57 GMT-0500 (Central Daylight Time),512062.89999997616,CFD-WM-028-005-HC.jpg,1000,solid,O,None,1516,12,1,16983.30000001192,495079.59999996424,9999,ATS,C,6
0,test,2,C,mfborder.png,0,m,Thu Sep 18 2025 19:49:57 GMT-0500 (Central Daylight Time),514796.1999999881,CFD-WM-036-018-A.jpg,1200,dash,O,None,1516,6,1,19716.600000023842,495079.59999996424,9999,ATS,C,7
0,test,2,C,mfborder.png,0,m,Thu Sep 18 2025 19:49:57 GMT-0500 (Central Daylight Time),518329.6999999881,CFD-BM-043-014-A.jpg,2000,dash,O,None,1515,5,1,23250.100000023842,495079.59999996424,9999,ATS,C,8
0,test,2,C,haborder.png,0,z,Thu Sep 18 2025 19:49:57 GMT-0500 (Central Daylight Time),521763.0,CFD-BF-002-018-A.jpg,1900,solid,O,None,1516,8,1,26683.400000035763,495079.59999996424,9999,ATS,C,9
0,test,2,C,mfborder.png,0,z,Thu Sep 18 2025 19:49:57 GMT-0500 (Central Daylight Time),524996.5,CFD-WF-013-009-HC.jpg,1700,dash,O,None,1515,1,1,29916.900000035763,495079.59999996424,9999,ATS,C,10
0,test,2,C,haborder.png,0,m,Thu Sep 18 2025 19:49:57 GMT-0500 (Central Daylight Time),528129.8999999762,CFD-BM-022-004-HC.jpg,1600,solid,O,None,1516,10,1,33050.30000001192,495079.59999996424,9999,ATS,C,11
0,test,2,C,haborder.png,0,z,Thu Sep 18 2025 19:49:57 GMT-0500 (Central Daylight Time),531363.2999999523,CFD-WF-037-016-A.jpg,1700,solid,O,None,1516,9,1,36283.69999998808,495079.59999996424,9999,ATS,C,12
0,test,2,C,haborder.png,0,m,Thu Sep 18 2025 19:49:57 GMT-0500 (Central Daylight Time),533896.5999999642,CFD-WM-028-005-HC.jpg,1000,solid,O,None,1515,12,1,38817.0,495079.59999996424,9999,ATS,C,13
0,test,2,C,mfborder.png,0,z,Thu Sep 18 2025 19:49:57 GMT-0500 (Central Daylight Time),537030.0999999642,CFD-WF-023-013-A.jpg,1600,dash,O,None,1516,2,1,41950.5,495079.59999996424,9999,ATS,C,14
0,test,2,C,mfborder.png,0,m,Thu Sep 18 2025 19:49:57 GMT-0500 (Central Daylight Time),540563.3999999762,CFD-BM-043-014-A.jpg,2000,dash,O,None,1516,5,1,45483.80000001192,495079.59999996424,9999,ATS,C,15
0,test,2,C,haborder.png,0,z,Thu Sep 18 2025 19:49:57 GMT-0500 (Central Daylight Time),543997.0,CFD-BF-002-018-A.jpg,1900,solid,O,None,1516,8,1,48917.40000003576,495079.59999996424,9999,ATS,C,16
0,test,2,C,mfborder.png,0,m,Thu Sep 18 2025 19:49:57 GMT-0500 (Central Daylight Time),546530.1999999881,CFD-BM-034-035-HC.jpg,1000,dash,O,None,1516,4,1,51450.60000002384,495079.59999996424,9999,ATS,C,17
0,test,2,C,mfborder.png,0,z,Thu Sep 18 2025 19:49:57 GMT-0500 (Central Daylight Time),549563.6999999881,CFD-BF-019-004-HC.jpg,1500,dash,O,None,1515,3,1,54484.10000002384,495079.59999996424,9999,ATS,C,18
0,test,2,C,mfborder.png,0,z,Thu Sep 18 2025 19:49:57 GMT-0500 (Central Daylight Time),552697.1999999881,CFD-WF-023-013-A.jpg,1600,dash,O,None,1515,2,1,57617.60000002384,495079.59999996424,9999,ATS,C,19
0,test,2,C,haborder.png,0,z,Thu Sep 18 2025 19:49:57 GMT-0500 (Central Daylight Time),555930.3999999762,CFD-WF-037-016-A.jpg,1700,solid,O,None,1516,9,1,60850.80000001192,495079.59999996424,9999,ATS,C,20
0,test,2,C,haborder.png,0,z,Thu Sep 18 2025 19:49:57 GMT-0500 (Central Daylight Time),558863.8999999762,CFD-BF-031-020-A.jpg,1400,solid,O,None,1516,7,1,63784.30000001192,495079.59999996424,9999,ATS,C,21
0,test,2,C,haborder.png,0,m,Thu Sep 18 2025 19:49:57 GMT-0500 (Central Daylight Time),561997.2999999523,CFD-BM-022-004-HC.jpg,1600,solid,O,None,1516,10,1,66917.69999998808,495079.59999996424,9999,ATS,C,22
0,test,2,C,mfborder.png,0,z,Thu Sep 18 2025 19:49:57 GMT-0500 (Central Daylight Time),565031.5,CFD-BF-019-004-HC.jpg,1500,dash,O,None,1516,3,1,69951.90000003576,495079.59999996424,9999,ATS,C,23
0,test,2,C,haborder.png,0,m,Thu Sep 18 2025 19:49:57 GMT-0500 (Central Daylight Time),568064.0,CFD-WM-028-005-HC.jpg,1500,solid,O,None,1516,11,1,72984.40000003576,495079.59999996424,9999,ATS,C,24
0,test,3,C,mfborder.png,0,m,Thu Sep 18 2025 19:49:57 GMT-0500 (Central Daylight Time),584115.0999999642,CFD-WM-034-040-A.jpg,2000,dash,O,None,1516,5,1,3534.300000011921,580580.7999999523,9999,ATS,C,1
0,test,3,C,haborder.png,0,m,Thu Sep 18 2025 19:49:57 GMT-0500 (Central Daylight Time),587247.8999999762,CFD-BF-019-004-HC.jpg,1600,solid,O,None,1516,10,1,6667.100000023842,580580.7999999523,9999,ATS,C,2
0,test,3,C,haborder.png,0,z,Thu Sep 18 2025 19:49:57 GMT-0500 (Central Daylight Time),590481.1999999881,CFD-BM-021-026-A.jpg,1700,solid,O,None,1516,9,1,9900.400000035763,580580.7999999523,9999,ATS,C,3
0,test,3,C,mfborder.png,0,m,Thu Sep 18 2025 19:49:57 GMT-0500 (Central Daylight Time),593214.6999999881,CFD-BM-022-004-HC.jpg,1200,dash,O,None,1515,6,1,12633.900000035763,580580.7999999523,9999,ATS,C,4
0,test,3,C,mfborder.png,0,m,Thu Sep 18 2025 19:49:57 GMT-0500 (Central Daylight Time),595748.0999999642,CFD-WM-035-036-HC.jpg,1000,dash,O,None,1516,4,1,15167.300000011921,580580.7999999523,9999,ATS,C,5
0,test,3,C,haborder.png,0,m,Thu Sep 18 2025 19:49:57 GMT-0500 (Central Daylight Time),598281.2999999523,CFD-WF-013-009-HC.jpg,1000,solid,O,None,1516,12,1,17700.5,580580.7999999523,9999,ATS,C,6
0,test,3,C,haborder.png,0,z,Thu Sep 18 2025 19:49:57 GMT-0500 (Central Daylight Time),601714.7999999523,CFD-BM-043-014-A.jpg,1900,solid,O,None,1515,8,1,21134.0,580580.7999999523,9999,ATS,C,7
0,test,3,C,haborder.png,0,m,Thu Sep 18 2025 19:49:57 GMT-0500 (Central Daylight Time),604748.1999999881,CFD-WF-001-010-HC.jpg,1500,solid,O,None,1516,11,1,24167.400000035763,580580.7999999523,9999,ATS,C,8
0,test,3,C,mfborder.png,0,z,Thu Sep 18 2025 19:49:57 GMT-0500 (Central Daylight Time),607781.7999999523,CFD-WF-037-016-A.jpg,1500,dash,O,None,1515,3,1,27201.0,580580.7999999523,9999,ATS,C,9
0,test,3,C,haborder.png,0,z,Thu Sep 18 2025 19:49:57 GMT-0500 (Central Daylight Time),611215.0,CFD-BM-043-014-A.jpg,1900,solid,O,None,1516,8,1,30634.200000047684,580580.7999999523,9999,ATS,C,10
0,test,3,C,mfborder.png,0,z,Thu Sep 18 2025 19:49:57 GMT-0500 (Central Daylight Time),614349.0,CFD-BF-031-020-A.jpg,1600,dash,O,None,1516,2,1,33768.200000047684,580580.7999999523,9999,ATS,C,11
0,test,3,C,haborder.png,0,m,Thu Sep 18 2025 19:49:57 GMT-0500 (Central Daylight Time),616881.7999999523,CFD-WF-013-009-HC.jpg,1000,solid,O,None,1516,12,1,36301.0,580580.7999999523,9999,ATS,C,12
0,test,3,C,mfborder.png,0,z,Thu Sep 18 2025 19:49:57 GMT-0500 (Central Daylight Time),619915.1999999881,CFD-WF-037-016-A.jpg,1500,dash,O,None,1516,3,1,39334.40000003576,580580.7999999523,9999,ATS,C,13
0,test,3,C,mfborder.png,0,m,Thu Sep 18 2025 19:49:57 GMT-0500 (Central Daylight Time),622648.5999999642,CFD-BM-022-004-HC.jpg,1200,dash,O,None,1515,6,1,42067.80000001192,580580.7999999523,9999,ATS,C,14
0,test,3,C,mfborder.png,0,z,Thu Sep 18 2025 19:49:57 GMT-0500 (Central Daylight Time),625882.0,CFD-BF-042-031-HC.jpg,1700,dash,O,None,1516,1,1,45301.200000047684,580580.7999999523,9999,ATS,C,15
0,test,3,C,mfborder.png,0,m,Thu Sep 18 2025 19:49:57 GMT-0500 (Central Daylight Time),628415.5,CFD-WM-035-036-HC.jpg,1000,dash,O,None,1516,4,1,47834.700000047684,580580.7999999523,9999,ATS,C,16
0,test,3,C,mfborder.png,0,z,Thu Sep 18 2025 19:49:57 GMT-0500 (Central Daylight Time),631649.0,CFD-BF-042-031-HC.jpg,1700,dash,O,None,1516,1,1,51068.200000047684,580580.7999999523,9999,ATS,C,17
0,test,3,C,haborder.png,0,m,Thu Sep 18 2025 19:49:57 GMT-0500 (Central Daylight Time),634682.3999999762,CFD-WF-001-010-HC.jpg,1500,solid,O,None,1516,11,1,54101.60000002384,580580.7999999523,9999,ATS,C,18
0,test,3,C,haborder.png,0,z,Thu Sep 18 2025 19:49:57 GMT-0500 (Central Daylight Time),637915.5999999642,CFD-BM-021-026-A.jpg,1700,solid,O,None,1515,9,1,57334.80000001192,580580.7999999523,9999,ATS,C,19
0,test,3,C,mfborder.png,0,m,Thu Sep 18 2025 19:49:57 GMT-0500 (Central Daylight Time),641449.0,CFD-WM-034-040-A.jpg,2000,dash,O,None,1516,5,1,60868.200000047684,580580.7999999523,9999,ATS,C,20
0,test,3,C,haborder.png,0,m,Thu Sep 18 2025 19:49:57 GMT-0500 (Central Daylight Time),644582.5999999642,CFD-BF-019-004-HC.jpg,1600,solid,O,None,1515,10,1,64001.80000001192,580580.7999999523,9999,ATS,C,21
0,test,3,C,haborder.png,0,z,Thu Sep 18 2025 19:49:57 GMT-0500 (Central Daylight Time),647516.6999999881,CFD-WM-036-018-A.jpg,1400,solid,O,None,1516,7,1,66935.90000003576,580580.7999999523,9999,ATS,C,22
0,test,3,C,mfborder.png,0,z,Thu Sep 18 2025 19:49:57 GMT-0500 (Central Daylight Time),650649.1999999881,CFD-BF-031-020-A.jpg,1600,dash,O,None,1516,2,1,70068.40000003576,580580.7999999523,9999,ATS,C,23
0,test,3,C,haborder.png,0,z,Thu Sep 18 2025 19:49:57 GMT-0500 (Central Daylight Time),653582.5999999642,CFD-WM-036-018-A.jpg,1400,solid,O,None,1514,7,1,73001.80000001192,580580.7999999523,9999,ATS,C,24
0,test,4,C,mfborder.png,0,z,Thu Sep 18 2025 19:49:57 GMT-0500 (Central Daylight Time),659049.5999999642,CFD-WF-013-009-HC.jpg,1700,dash,O,None,1515,1,1,3232.800000011921,655816.7999999523,9999,ATS,C,1
0,test,4,C,mfborder.png,0,m,Thu Sep 18 2025 19:49:57 GMT-0500 (Central Daylight Time),662583.0,CFD-BM-043-014-A.jpg,2000,dash,O,None,1516,5,1,6766.200000047684,655816.7999999523,9999,ATS,C,2
0,test,4,C,mfborder.png,0,m,Thu Sep 18 2025 19:49:57 GMT-0500 (Central Daylight Time),665316.1999999881,CFD-WM-036-018-A.jpg,1200,dash,O,None,1515,6,1,9499.400000035763,655816.7999999523,9999,ATS,C,3
0,test,4,C,mfborder.png,0,z,Thu Sep 18 2025 19:49:57 GMT-0500 (Central Daylight Time),668349.6999999881,CFD-BF-019-004-HC.jpg,1500,dash,O,None,1515,3,1,12532.900000035763,655816.7999999523,9999,ATS,C,4
0,test,4,C,haborder.png,0,z,Thu Sep 18 2025 19:49:57 GMT-0500 (Central Daylight Time),671783.1999999881,CFD-BF-002-018-A.jpg,1900,solid,O,None,1515,8,1,15966.400000035763,655816.7999999523,9999,ATS,C,5
0,test,4,C,mfborder.png,0,m,Thu Sep 18 2025 19:49:57 GMT-0500 (Central Daylight Time),674316.3999999762,CFD-BM-034-035-HC.jpg,1000,dash,O,None,1515,4,1,18499.600000023842,655816.7999999523,9999,ATS,C,6
0,test,4,C,mfborder.png,0,m,Thu Sep 18 2025 19:49:57 GMT-0500 (Central Daylight Time),676850.7999999523,CFD-BM-034-035-HC.jpg,1000,dash,O,None,1517,4,1,21034.0,655816.7999999523,9999,ATS,C,7
0,test,4,C,haborder.png,0,m,Thu Sep 18 2025 19:49:57 GMT-0500 (Central Daylight Time),679983.2999999523,CFD-BM-022-004-HC.jpg,1600,solid,O,None,1516,10,1,24166.5,655816.7999999523,9999,ATS,C,8
0,test,4,C,haborder.png,0,z,Thu Sep 18 2025 19:49:57 GMT-0500 (Central Daylight Time),682916.5999999642,CFD-BF-031-020-A.jpg,1400,solid,O,None,1516,7,1,27099.80000001192,655816.7999999523,9999,ATS,C,9
0,test,4,C,mfborder.png,0,m,Thu Sep 18 2025 19:49:57 GMT-0500 (Central Daylight Time),686450.8999999762,CFD-BM-043-014-A.jpg,2000,dash,O,None,1517,5,1,30634.100000023842,655816.7999999523,9999,ATS,C,10
0,test,4,C,mfborder.png,0,z,Thu Sep 18 2025 19:49:57 GMT-0500 (Central Daylight Time),689483.3999999762,CFD-BF-019-004-HC.jpg,1500,dash,O,None,1516,3,1,33666.60000002384,655816.7999999523,9999,ATS,C,11
0,test,4,C,mfborder.png,0,m,Thu Sep 18 2025 19:49:57 GMT-0500 (Central Daylight Time),692216.7999999523,CFD-WM-036-018-A.jpg,1200,dash,O,None,1515,6,1,36400.0,655816.7999999523,9999,ATS,C,12
0,test,4,C,haborder.png,0,m,Thu Sep 18 2025 19:49:57 GMT-0500 (Central Daylight Time),694751.0,CFD-WM-028-005-HC.jpg,1000,solid,O,None,1517,12,1,38934.200000047684,655816.7999999523,9999,ATS,C,13
0,test,4,C,haborder.png,0,m,Thu Sep 18 2025 19:49:57 GMT-0500 (Central Daylight Time),697883.5999999642,CFD-BM-022-004-HC.jpg,1600,solid,O,None,1515,10,1,42066.80000001192,655816.7999999523,9999,ATS,C,14
0,test,4,C,haborder.png,0,m,Thu Sep 18 2025 19:49:57 GMT-0500 (Central Daylight Time),700917.0,CFD-WM-028-005-HC.jpg,1500,solid,O,None,1516,11,1,45100.200000047684,655816.7999999523,9999,ATS,C,15
0,test,4,C,mfborder.png,0,z,Thu Sep 18 2025 19:49:57 GMT-0500 (Central Daylight Time),704050.3999999762,CFD-WF-023-013-A.jpg,1600,dash,O,None,1516,2,1,48233.60000002384,655816.7999999523,9999,ATS,C,16
0,test,4,C,haborder.png,0,z,Thu Sep 18 2025 19:49:57 GMT-0500 (Central Daylight Time),707483.8999999762,CFD-BF-002-018-A.jpg,1900,solid,O,None,1516,8,1,51667.10000002384,655816.7999999523,9999,ATS,C,17
0,test,4,C,haborder.png,0,z,Thu Sep 18 2025 19:49:57 GMT-0500 (Central Daylight Time),710717.1999999881,CFD-WF-037-016-A.jpg,1700,solid,O,None,1515,9,1,54900.40000003576,655816.7999999523,9999,ATS,C,18
0,test,4,C,haborder.png,0,z,Thu Sep 18 2025 19:49:57 GMT-0500 (Central Daylight Time),713650.5999999642,CFD-BF-031-020-A.jpg,1400,solid,O,None,1515,7,1,57833.80000001192,655816.7999999523,9999,ATS,C,19
0,test,4,C,mfborder.png,0,z,Thu Sep 18 2025 19:49:57 GMT-0500 (Central Daylight Time),716901.5999999642,CFD-WF-013-009-HC.jpg,1700,dash,O,None,1516,1,1,61084.80000001192,655816.7999999523,9999,ATS,C,20
0,test,4,C,haborder.png,0,m,Thu Sep 18 2025 19:49:57 GMT-0500 (Central Daylight Time),719434.1999999881,CFD-WM-028-005-HC.jpg,1000,solid,O,None,1516,12,1,63617.40000003576,655816.7999999523,9999,ATS,C,21
0,test,4,C,haborder.png,0,z,Thu Sep 18 2025 19:49:57 GMT-0500 (Central Daylight Time),722668.5,CFD-WF-037-016-A.jpg,1700,solid,O,None,1517,9,1,66851.70000004768,655816.7999999523,9999,ATS,C,22
0,test,4,C,mfborder.png,0,z,Thu Sep 18 2025 19:49:57 GMT-0500 (Central Daylight Time),725800.8999999762,CFD-WF-023-013-A.jpg,1600,dash,O,None,1516,2,1,69984.10000002384,655816.7999999523,9999,ATS,C,23
0,test,4,C,haborder.png,0,m,Thu Sep 18 2025 19:49:57 GMT-0500 (Central Daylight Time),728834.2999999523,CFD-WM-028-005-HC.jpg,1500,solid,O,None,1515,11,1,73017.5,655816.7999999523,9999,ATS,C,24
