Q,Q1,Q2,Q3,Q4,acc_sum,block,block_c,correct,correct_response,datetime,endtime,project,response,response_time,row_sel,session_number,squiggle1,squiggle1x,squiggle1y,squiggle2,squiggle2x,squiggle2y,squiggle3,squiggle3x,squiggle3y,squiggle4,squiggle4x,squiggle4y,start_end,starttime,subject_id,target_congruent,task,task_vers,testsquiggle,testsquigglex,testsquiggley,time_practice_delay,time_practice_fixation,time_practice_stimuli,time_practice_study,time_test_delay,time_test_fixation,time_test_stimuli,time_test_study,trial
1,1,0,0,0,1,prac,1,1,z,Thu Feb 05 2026 14:46:42 GMT-0500 (Eastern Standard Time),153313.40000000037,I,z,1495,1,1,116.bmp,-120,-120,117.bmp,120,-120,118.bmp,-120,120,119.bmp,120,120,10309.5,143003.90000000037,9057,yes,SM,A,116.bmp,-120,-120,144967,138941,146984,140951,,,,,1
3,0,0,1,0,2,prac,1,1,m,Thu Feb 05 2026 14:46:42 GMT-0500 (Eastern Standard Time),163713.2999999998,I,m,1570,2,1,120.bmp,-120,-120,121.bmp,120,-120,122.bmp,-120,120,123.bmp,120,120,10392.899999999441,153320.40000000037,9057,no,SM,A,123.bmp,-120,120,155284,149258,157301,151267,,,,,2
4,0,0,0,1,2,prac,1,0,m,Thu Feb 05 2026 14:46:42 GMT-0500 (Eastern Standard Time),174546.2999999998,I,None,2016,3,1,124.bmp,-120,-120,125.bmp,120,-120,126.bmp,-120,120,127.bmp,120,120,10822.399999999441,163723.90000000037,9057,no,SM,A,124.bmp,120,120,165684,159662,167701,161667,,,,,3
2,0,1,0,0,3,prac,1,1,z,Thu Feb 05 2026 14:46:42 GMT-0500 (Eastern Standard Time),184646.5,I,z,1273,4,1,128.bmp,-120,-120,129.bmp,120,-120,130.bmp,-120,120,131.bmp,120,120,10090.700000000186,174555.7999999998,9057,yes,SM,A,129.bmp,120,-120,176517,170493,178534,172501,,,,,4
3,0,0,1,0,4,prac,1,1,z,Thu Feb 05 2026 14:46:42 GMT-0500 (Eastern Standard Time),194696.5,I,z,1222,5,1,132.bmp,-120,-120,133.bmp,120,-120,134.bmp,-120,120,135.bmp,120,120,10041.900000000373,184654.59999999963,9057,yes,SM,A,134.bmp,-120,120,186617,180592,188633,182601,,,,,5
1,1,0,0,0,5,prac,1,1,m,Thu Feb 05 2026 14:46:42 GMT-0500 (Eastern Standard Time),204529.90000000037,I,m,1011,6,1,136.bmp,-120,-120,137.bmp,120,-120,138.bmp,-120,120,139.bmp,120,120,9826.0,194703.90000000037,9057,no,SM,A,139.bmp,-120,-120,196667,190641,198684,192651,,,,,6
2,0,1,0,0,6,prac,1,1,m,Thu Feb 05 2026 14:46:42 GMT-0500 (Eastern Standard Time),214746.59999999963,I,m,1394,7,1,140.bmp,-120,-120,141.bmp,120,-120,142.bmp,-120,120,143.bmp,120,120,10208.699999999255,204537.90000000037,9057,no,SM,A,140.bmp,120,-120,206500,200475,208517,202484,,,,,7
4,0,0,0,1,7,prac,1,1,z,Thu Feb 05 2026 14:46:42 GMT-0500 (Eastern Standard Time),224598.2999999998,I,z,1024,8,1,144.bmp,-120,-120,145.bmp,120,-120,146.bmp,-120,120,147.bmp,120,120,9844.700000000186,214753.59999999963,9057,yes,SM,A,147.bmp,120,120,216717,210691,218734,212701,,,,,8
4,0,0,0,1,0,test,1,0,m,Thu Feb 05 2026 14:46:42 GMT-0500 (Eastern Standard Time),246480.0,I,None,2017,1,1,148.bmp,-120,-120,149.bmp,120,-120,150.bmp,-120,120,143.bmp,120,120,10060.900000000373,236419.09999999963,9057,no,SM,A,150.bmp,120,120,216717,210691,218734,212701,238384.0,232356.0,240400.0,234367.0,1
2,0,1,0,0,1,test,1,1,m,Thu Feb 05 2026 14:46:42 GMT-0500 (Eastern Standard Time),255629.7999999998,I,m,1083,2,1,101.bmp,-120,-120,102.bmp,120,-120,103.bmp,-120,120,104.bmp,120,120,9146.200000000186,246483.59999999963,9057,no,SM,A,103.bmp,120,-120,216717,210691,218734,212701,248450.0,242421.0,250467.0,244434.0,2
1,1,0,0,0,2,test,1,1,z,Thu Feb 05 2026 14:46:42 GMT-0500 (Eastern Standard Time),264246.9000000004,I,z,566,3,1,105.bmp,-120,-120,106.bmp,120,-120,107.bmp,-120,120,108.bmp,120,120,8607.900000000373,255639.0,9057,yes,SM,A,105.bmp,-120,-120,216717,210691,218734,212701,257601.0,251576.0,259618.0,253584.0,3
3,0,0,1,0,2,test,1,0,m,Thu Feb 05 2026 14:46:42 GMT-0500 (Eastern Standard Time),273429.7000000002,I,z,1125,4,1,109.bmp,-120,-120,110.bmp,120,-120,111.bmp,-120,120,112.bmp,120,120,9171.400000000373,264258.2999999998,9057,no,SM,A,109.bmp,-120,120,216717,210691,218734,212701,266217.0,260195.0,268234.0,262201.0,4
2,0,1,0,0,3,test,1,1,z,Thu Feb 05 2026 14:46:42 GMT-0500 (Eastern Standard Time),283313.2999999998,I,z,1822,5,1,113.bmp,-120,-120,114.bmp,120,-120,115.bmp,-120,120,116.bmp,120,120,9877.5,273435.7999999998,9057,yes,SM,A,114.bmp,120,-120,216717,210691,218734,212701,275401.0,269373.0,277417.0,271384.0,5
3,0,0,1,0,4,test,1,1,z,Thu Feb 05 2026 14:46:42 GMT-0500 (Eastern Standard Time),292146.5999999996,I,z,778,6,1,117.bmp,-120,-120,118.bmp,120,-120,119.bmp,-120,120,120.bmp,120,120,8826.599999999627,283320.0,9057,yes,SM,A,119.bmp,-120,120,216717,210691,218734,212701,285284.0,279257.0,287301.0,281268.0,6
4,0,0,0,1,5,test,1,1,z,Thu Feb 05 2026 14:46:42 GMT-0500 (Eastern Standard Time),301613.2999999998,I,z,1401,7,1,121.bmp,-120,-120,122.bmp,120,-120,123.bmp,-120,120,124.bmp,120,120,9457.799999999814,292155.5,9057,yes,SM,A,124.bmp,120,120,216717,210691,218734,212701,294117.0,288093.0,296134.0,290101.0,7
2,0,1,0,0,6,test,1,1,m,Thu Feb 05 2026 14:46:42 GMT-0500 (Eastern Standard Time),311030.0999999996,I,m,1358,8,1,125.bmp,-120,-120,126.bmp,120,-120,127.bmp,-120,120,128.bmp,120,120,9409.399999999441,301620.7000000002,9057,no,SM,A,125.bmp,120,-120,216717,210691,218734,212701,303584.0,297558.0,305601.0,299568.0,8
3,0,0,1,0,7,test,1,1,m,Thu Feb 05 2026 14:46:42 GMT-0500 (Eastern Standard Time),320879.9000000004,I,m,1798,9,1,129.bmp,-120,-120,130.bmp,120,-120,131.bmp,-120,120,132.bmp,120,120,9840.0,311039.9000000004,9057,no,SM,A,130.bmp,-120,120,216717,210691,218734,212701,313001.0,306977.0,315018.0,308984.0,9
4,0,0,0,1,7,test,1,0,z,Thu Feb 05 2026 14:46:42 GMT-0500 (Eastern Standard Time),329813.2999999998,I,m,875,10,1,137.bmp,-120,-120,138.bmp,120,-120,139.bmp,-120,120,140.bmp,120,120,8924.700000000186,320888.5999999996,9057,yes,SM,A,140.bmp,120,120,216717,210691,218734,212701,322851.0,316826.0,324868.0,318834.0,10
3,0,0,1,0,8,test,1,1,z,Thu Feb 05 2026 14:46:42 GMT-0500 (Eastern Standard Time),338746.7000000002,I,z,871,11,1,133.bmp,-120,-120,134.bmp,120,-120,135.bmp,-120,120,136.bmp,120,120,8923.799999999814,329822.9000000004,9057,yes,SM,A,135.bmp,-120,120,216717,210691,218734,212701,331784.0,325760.0,333801.0,327768.0,11
2,0,1,0,0,9,test,1,1,m,Thu Feb 05 2026 14:46:42 GMT-0500 (Eastern Standard Time),348129.7999999998,I,m,1320,12,1,141.bmp,-120,-120,142.bmp,120,-120,143.bmp,-120,120,144.bmp,120,120,9376.099999999627,338753.7000000002,9057,no,SM,A,141.bmp,120,-120,216717,210691,218734,212701,340717.0,334691.0,342735.0,336701.0,12
3,0,0,1,0,10,test,1,1,m,Thu Feb 05 2026 14:46:42 GMT-0500 (Eastern Standard Time),357430.2000000002,I,m,1234,13,1,145.bmp,-120,-120,146.bmp,120,-120,147.bmp,-120,120,148.bmp,120,120,9294.200000000186,348136.0,9057,no,SM,A,146.bmp,-120,120,216717,210691,218734,212701,350101.0,344073.0,352118.0,346084.0,13
1,1,0,0,0,10,test,1,0,z,Thu Feb 05 2026 14:46:42 GMT-0500 (Eastern Standard Time),367496.5999999996,I,None,2016,14,1,149.bmp,-120,-120,150.bmp,120,-120,104.bmp,-120,120,101.bmp,120,120,10056.199999999255,357440.4000000004,9057,yes,SM,A,149.bmp,-120,-120,216717,210691,218734,212701,359401.0,353378.0,361418.0,355384.0,14
4,0,0,0,1,10,test,1,0,m,Thu Feb 05 2026 14:46:42 GMT-0500 (Eastern Standard Time),377080.2000000002,I,z,1522,15,1,110.bmp,-120,-120,111.bmp,120,-120,112.bmp,-120,120,113.bmp,120,120,9579.0,367501.2000000002,9057,no,SM,A,111.bmp,120,120,216717,210691,218734,212701,369467.0,363438.0,371484.0,365451.0,15
1,1,0,0,0,11,test,1,1,m,Thu Feb 05 2026 14:46:42 GMT-0500 (Eastern Standard Time),385930.0999999996,I,m,796,16,1,102.bmp,-120,-120,103.bmp,120,-120,104.bmp,-120,120,105.bmp,120,120,8841.0,377089.0999999996,9057,no,SM,A,105.bmp,-120,-120,216717,210691,218734,212701,379051.0,373026.0,381068.0,375034.0,16
3,0,0,1,0,11,test,1,0,m,Thu Feb 05 2026 14:46:42 GMT-0500 (Eastern Standard Time),395496.7000000002,I,z,1513,17,1,122.bmp,-120,-120,123.bmp,120,-120,124.bmp,-120,120,125.bmp,120,120,9557.200000000186,385939.5,9057,no,SM,A,122.bmp,-120,120,216717,210691,218734,212701,387901.0,381877.0,389918.0,383884.0,17
1,1,0,0,0,12,test,1,1,z,Thu Feb 05 2026 14:46:42 GMT-0500 (Eastern Standard Time),404880.2000000002,I,z,1332,18,1,106.bmp,-120,-120,107.bmp,120,-120,108.bmp,-120,120,109.bmp,120,120,9376.100000000559,395504.0999999996,9057,yes,SM,A,106.bmp,-120,-120,216717,210691,218734,212701,397467.0,391441.0,399484.0,393451.0,18
2,0,1,0,0,13,test,1,1,z,Thu Feb 05 2026 14:46:42 GMT-0500 (Eastern Standard Time),413913.5999999996,I,z,971,19,1,126.bmp,-120,-120,127.bmp,120,-120,128.bmp,-120,120,129.bmp,120,120,9025.899999999441,404887.7000000002,9057,yes,SM,A,127.bmp,120,-120,216717,210691,218734,212701,406851.0,400825.0,408868.0,402834.0,19
3,0,0,1,0,14,test,1,1,z,Thu Feb 05 2026 14:46:42 GMT-0500 (Eastern Standard Time),423013.7000000002,I,z,1034,20,1,130.bmp,-120,-120,131.bmp,120,-120,132.bmp,-120,120,133.bmp,120,120,9091.0,413922.7000000002,9057,yes,SM,A,132.bmp,-120,120,216717,210691,218734,212701,415884.0,409860.0,417901.0,411868.0,20
1,1,0,0,0,14,test,1,0,m,Thu Feb 05 2026 14:46:42 GMT-0500 (Eastern Standard Time),432296.7999999998,I,z,1222,21,1,114.bmp,-120,-120,115.bmp,120,-120,116.bmp,-120,120,117.bmp,120,120,9276.099999999627,423020.7000000002,9057,no,SM,A,116.bmp,-120,-120,216717,210691,218734,212701,424984.0,418958.0,427001.0,420968.0,21
4,0,0,0,1,15,test,1,1,z,Thu Feb 05 2026 14:46:42 GMT-0500 (Eastern Standard Time),441730.4000000004,I,z,1372,22,1,118.bmp,-120,-120,119.bmp,120,-120,120.bmp,-120,120,121.bmp,120,120,9427.400000000373,432303.0,9057,yes,SM,A,121.bmp,120,120,216717,210691,218734,212701,434267.0,428240.0,436284.0,430251.0,22
1,1,0,0,0,16,test,1,1,m,Thu Feb 05 2026 14:46:42 GMT-0500 (Eastern Standard Time),450863.5999999996,I,m,1073,23,1,134.bmp,-120,-120,135.bmp,120,-120,136.bmp,-120,120,137.bmp,120,120,9123.299999999814,441740.2999999998,9057,no,SM,A,137.bmp,-120,-120,216717,210691,218734,212701,443701.0,437678.0,445718.0,439684.0,23
2,0,1,0,0,17,test,1,1,z,Thu Feb 05 2026 14:46:42 GMT-0500 (Eastern Standard Time),459880.2999999998,I,z,965,24,1,142.bmp,-120,-120,143.bmp,120,-120,144.bmp,-120,120,145.bmp,120,120,9007.899999999441,450872.4000000004,9057,yes,SM,A,143.bmp,120,-120,216717,210691,218734,212701,452834.0,446810.0,454851.0,448818.0,24
4,0,0,0,1,18,test,1,1,m,Thu Feb 05 2026 14:46:42 GMT-0500 (Eastern Standard Time),469046.9000000004,I,m,1107,25,1,146.bmp,-120,-120,147.bmp,120,-120,148.bmp,-120,120,149.bmp,120,120,9160.0,459886.9000000004,9057,no,SM,A,148.bmp,120,120,216717,210691,218734,212701,461851.0,455824.0,463868.0,457834.0,25
1,1,0,0,0,19,test,1,1,z,Thu Feb 05 2026 14:46:42 GMT-0500 (Eastern Standard Time),478313.7000000002,I,z,1213,26,1,138.bmp,-120,-120,139.bmp,120,-120,140.bmp,-120,120,141.bmp,120,120,9259.799999999814,469053.9000000004,9057,yes,SM,A,138.bmp,-120,-120,216717,210691,218734,212701,471017.0,464991.0,473035.0,467001.0,26
4,0,0,0,1,20,test,1,1,z,Thu Feb 05 2026 14:46:42 GMT-0500 (Eastern Standard Time),487396.9000000004,I,z,1026,27,1,150.bmp,-120,-120,111.bmp,120,-120,101.bmp,-120,120,102.bmp,120,120,9073.700000000186,478323.2000000002,9057,yes,SM,A,102.bmp,120,120,216717,210691,218734,212701,480284.0,474261.0,482301.0,476268.0,27
3,0,0,1,0,21,test,1,1,m,Thu Feb 05 2026 14:46:42 GMT-0500 (Eastern Standard Time),496863.5999999996,I,m,1407,28,1,103.bmp,-120,-120,104.bmp,120,-120,105.bmp,-120,120,106.bmp,120,120,9458.0,487405.5999999996,9057,no,SM,A,103.bmp,-120,120,216717,210691,218734,212701,489367.0,483343.0,491385.0,485351.0,28
2,0,1,0,0,22,test,1,1,z,Thu Feb 05 2026 14:46:42 GMT-0500 (Eastern Standard Time),506347.0,I,z,1420,29,1,107.bmp,-120,-120,108.bmp,120,-120,109.bmp,-120,120,110.bmp,120,120,9475.599999999627,496871.4000000004,9057,yes,SM,A,108.bmp,120,-120,216717,210691,218734,212701,498834.0,492809.0,500851.0,494818.0,29
3,0,0,1,0,23,test,1,1,z,Thu Feb 05 2026 14:46:42 GMT-0500 (Eastern Standard Time),515930.5,I,z,1528,30,1,111.bmp,-120,-120,112.bmp,120,-120,113.bmp,-120,120,114.bmp,120,120,9574.900000000373,506355.5999999996,9057,yes,SM,A,113.bmp,-120,120,216717,210691,218734,212701,508318.0,502293.0,510334.0,504301.0,30
1,1,0,0,0,24,test,1,1,z,Thu Feb 05 2026 14:46:42 GMT-0500 (Eastern Standard Time),525530.4000000004,I,z,1538,31,1,115.bmp,-120,-120,116.bmp,120,-120,117.bmp,-120,120,118.bmp,120,120,9591.300000000745,515939.0999999996,9057,yes,SM,A,115.bmp,-120,-120,216717,210691,218734,212701,517901.0,511877.0,519918.0,513884.0,31
2,0,1,0,0,25,test,1,1,m,Thu Feb 05 2026 14:46:42 GMT-0500 (Eastern Standard Time),534830.4000000004,I,m,1242,32,1,119.bmp,-120,-120,120.bmp,120,-120,121.bmp,-120,120,122.bmp,120,120,9293.300000000745,525537.0999999996,9057,no,SM,A,119.bmp,120,-120,216717,210691,218734,212701,527501.0,521474.0,529518.0,523484.0,32
4,0,0,0,1,26,test,1,1,z,Thu Feb 05 2026 14:46:42 GMT-0500 (Eastern Standard Time),544263.5,I,z,1381,33,1,131.bmp,-120,-120,132.bmp,120,-120,133.bmp,-120,120,134.bmp,120,120,9425.599999999627,534837.9000000004,9057,yes,SM,A,134.bmp,120,120,216717,210691,218734,212701,536801.0,530775.0,538818.0,532785.0,33
2,0,1,0,0,27,test,1,1,z,Thu Feb 05 2026 14:46:42 GMT-0500 (Eastern Standard Time),553880.5,I,z,1574,34,1,123.bmp,-120,-120,124.bmp,120,-120,125.bmp,-120,120,126.bmp,120,120,9613.099999999627,544267.4000000004,9057,yes,SM,A,124.bmp,120,-120,216717,210691,218734,212701,546218.0,540205.0,548234.0,542217.0,34
4,0,0,0,1,27,test,1,0,m,Thu Feb 05 2026 14:46:42 GMT-0500 (Eastern Standard Time),563763.7999999998,I,z,1828,35,1,127.bmp,-120,-120,128.bmp,120,-120,129.bmp,-120,120,130.bmp,120,120,9877.5,553886.2999999998,9057,no,SM,A,129.bmp,120,120,216717,210691,218734,212701,555851.0,549824.0,557868.0,551835.0,35
3,0,0,1,0,27,test,1,0,m,Thu Feb 05 2026 14:46:42 GMT-0500 (Eastern Standard Time),572897.0999999996,I,z,1073,36,1,135.bmp,-120,-120,136.bmp,120,-120,137.bmp,-120,120,138.bmp,120,120,9125.699999999255,563771.4000000004,9057,no,SM,A,135.bmp,-120,120,216717,210691,218734,212701,565734.0,559709.0,567751.0,561718.0,36
1,1,0,0,0,28,test,1,1,m,Thu Feb 05 2026 14:46:42 GMT-0500 (Eastern Standard Time),581963.5999999996,I,m,1011,37,1,139.bmp,-120,-120,140.bmp,120,-120,141.bmp,-120,120,142.bmp,120,120,9059.699999999255,572903.9000000004,9057,no,SM,A,140.bmp,-120,-120,216717,210691,218734,212701,574868.0,568841.0,576884.0,570851.0,37
2,0,1,0,0,29,test,1,1,m,Thu Feb 05 2026 14:46:42 GMT-0500 (Eastern Standard Time),591280.4000000004,I,m,1264,38,1,143.bmp,-120,-120,144.bmp,120,-120,145.bmp,-120,120,146.bmp,120,120,9313.0,581967.4000000004,9057,no,SM,A,145.bmp,120,-120,216717,210691,218734,212701,583934.0,577905.0,585951.0,579918.0,38
4,0,0,0,1,30,test,1,1,z,Thu Feb 05 2026 14:46:42 GMT-0500 (Eastern Standard Time),600513.7999999998,I,z,1180,39,1,147.bmp,-120,-120,148.bmp,120,-120,149.bmp,-120,120,150.bmp,120,120,9228.099999999627,591285.7000000002,9057,yes,SM,A,150.bmp,120,120,216717,210691,218734,212701,593251.0,587223.0,595268.0,589235.0,39
3,0,0,1,0,31,test,1,1,m,Thu Feb 05 2026 14:46:42 GMT-0500 (Eastern Standard Time),610030.5999999996,I,m,1451,40,1,104.bmp,-120,-120,105.bmp,120,-120,106.bmp,-120,120,107.bmp,120,120,9509.399999999441,600521.2000000002,9057,no,SM,A,105.bmp,-120,120,216717,210691,218734,212701,602484.0,596458.0,604501.0,598468.0,40
1,1,0,0,0,32,test,1,1,z,Thu Feb 05 2026 14:46:42 GMT-0500 (Eastern Standard Time),619513.7999999998,I,z,1430,41,1,108.bmp,-120,-120,109.bmp,120,-120,110.bmp,-120,120,111.bmp,120,120,9476.0,610037.7999999998,9057,yes,SM,A,108.bmp,-120,-120,216717,210691,218734,212701,612001.0,605975.0,614018.0,607985.0,41
4,0,0,0,1,33,test,1,1,z,Thu Feb 05 2026 14:46:42 GMT-0500 (Eastern Standard Time),629313.9000000004,I,z,1739,42,1,112.bmp,-120,-120,113.bmp,120,-120,114.bmp,-120,120,115.bmp,120,120,9790.800000000745,619523.0999999996,9057,yes,SM,A,115.bmp,120,120,216717,210691,218734,212701,621485.0,615461.0,623501.0,617468.0,42
1,1,0,0,0,33,test,1,0,z,Thu Feb 05 2026 14:46:42 GMT-0500 (Eastern Standard Time),638397.2000000002,I,m,1026,43,1,116.bmp,-120,-120,117.bmp,120,-120,118.bmp,-120,120,119.bmp,120,120,9075.0,629322.2000000002,9057,yes,SM,A,116.bmp,-120,-120,216717,210691,218734,212701,631284.0,625259.0,633301.0,627268.0,43
4,0,0,0,1,34,test,1,1,m,Thu Feb 05 2026 14:46:42 GMT-0500 (Eastern Standard Time),647280.5,I,m,831,44,1,104.bmp,-120,-120,101.bmp,120,-120,102.bmp,-120,120,103.bmp,120,120,8875.099999999627,638405.4000000004,9057,no,SM,A,104.bmp,120,120,216717,210691,218734,212701,640368.0,634343.0,642385.0,636351.0,44
1,1,0,0,0,35,test,1,1,m,Thu Feb 05 2026 14:46:42 GMT-0500 (Eastern Standard Time),657297.4000000004,I,m,1964,45,1,128.bmp,-120,-120,129.bmp,120,-120,130.bmp,-120,120,131.bmp,120,120,10009.600000000559,647287.7999999998,9057,no,SM,A,131.bmp,-120,-120,216717,210691,218734,212701,649251.0,643225.0,651268.0,645235.0,45
1,1,0,0,0,36,test,1,1,m,Thu Feb 05 2026 14:46:42 GMT-0500 (Eastern Standard Time),666563.9000000004,I,m,1211,46,1,120.bmp,-120,-120,121.bmp,120,-120,122.bmp,-120,120,123.bmp,120,120,9258.300000000745,657305.5999999996,9057,no,SM,A,121.bmp,-120,-120,216717,210691,218734,212701,659268.0,653243.0,661285.0,655252.0,46
3,0,0,1,0,37,test,1,1,z,Thu Feb 05 2026 14:46:42 GMT-0500 (Eastern Standard Time),676447.2999999998,I,z,1832,47,1,124.bmp,-120,-120,125.bmp,120,-120,126.bmp,-120,120,127.bmp,120,120,9876.599999999627,666570.7000000002,9057,yes,SM,A,126.bmp,-120,120,216717,210691,218734,212701,668535.0,662508.0,670552.0,664518.0,47
3,0,0,1,0,38,test,1,1,z,Thu Feb 05 2026 14:46:42 GMT-0500 (Eastern Standard Time),685947.2000000002,I,z,1444,48,1,140.bmp,-120,-120,141.bmp,120,-120,142.bmp,-120,120,143.bmp,120,120,9490.900000000373,676456.2999999998,9057,yes,SM,A,142.bmp,-120,120,216717,210691,218734,212701,678418.0,672394.0,680435.0,674401.0,48
2,0,1,0,0,39,test,1,1,z,Thu Feb 05 2026 14:46:42 GMT-0500 (Eastern Standard Time),695280.7999999998,I,z,1281,49,1,136.bmp,-120,-120,137.bmp,120,-120,138.bmp,-120,120,139.bmp,120,120,9329.099999999627,685951.7000000002,9057,yes,SM,A,137.bmp,120,-120,216717,210691,218734,212701,687918.0,681889.0,689935.0,683901.0,49
3,0,0,1,0,40,test,1,1,m,Thu Feb 05 2026 14:46:42 GMT-0500 (Eastern Standard Time),705047.2999999998,I,m,1707,50,1,132.bmp,-120,-120,133.bmp,120,-120,134.bmp,-120,120,135.bmp,120,120,9759.399999999441,695287.9000000004,9057,no,SM,A,132.bmp,-120,120,216717,210691,218734,212701,697251.0,691225.0,699268.0,693235.0,50
2,0,1,0,0,41,test,1,1,z,Thu Feb 05 2026 14:46:42 GMT-0500 (Eastern Standard Time),714214.2000000002,I,z,1101,51,1,144.bmp,-120,-120,145.bmp,120,-120,146.bmp,-120,120,147.bmp,120,120,9163.400000000373,705050.7999999998,9057,yes,SM,A,145.bmp,120,-120,216717,210691,218734,212701,707018.0,700988.0,709035.0,703001.0,51
4,0,0,0,1,42,test,1,1,m,Thu Feb 05 2026 14:46:42 GMT-0500 (Eastern Standard Time),723980.9000000004,I,m,1710,52,1,148.bmp,-120,-120,149.bmp,120,-120,150.bmp,-120,120,131.bmp,120,120,9759.900000000373,714221.0,9057,no,SM,A,148.bmp,120,120,216717,210691,218734,212701,716185.0,710158.0,718202.0,712168.0,52
3,0,0,1,0,43,test,1,1,z,Thu Feb 05 2026 14:46:42 GMT-0500 (Eastern Standard Time),733264.0999999996,I,z,1232,53,1,101.bmp,-120,-120,102.bmp,120,-120,103.bmp,-120,120,104.bmp,120,120,9276.599999999627,723987.5,9057,yes,SM,A,103.bmp,-120,120,216717,210691,218734,212701,725951.0,719925.0,727968.0,721935.0,53
1,1,0,0,0,44,test,1,1,m,Thu Feb 05 2026 14:46:42 GMT-0500 (Eastern Standard Time),742447.5999999996,I,m,1125,54,1,105.bmp,-120,-120,106.bmp,120,-120,107.bmp,-120,120,108.bmp,120,120,9176.599999999627,733271.0,9057,no,SM,A,107.bmp,-120,-120,216717,210691,218734,212701,735235.0,729208.0,737251.0,731218.0,54
4,0,0,0,1,45,test,1,1,z,Thu Feb 05 2026 14:46:42 GMT-0500 (Eastern Standard Time),751647.5999999996,I,z,1141,55,1,109.bmp,-120,-120,110.bmp,120,-120,111.bmp,-120,120,112.bmp,120,120,9191.299999999814,742456.2999999998,9057,yes,SM,A,112.bmp,120,120,216717,210691,218734,212701,744418.0,738394.0,746435.0,740402.0,55
2,0,1,0,0,46,test,1,1,m,Thu Feb 05 2026 14:46:42 GMT-0500 (Eastern Standard Time),760680.9000000004,I,m,981,56,1,113.bmp,-120,-120,114.bmp,120,-120,115.bmp,-120,120,116.bmp,120,120,9024.600000000559,751656.2999999998,9057,no,SM,A,113.bmp,120,-120,216717,210691,218734,212701,753618.0,747594.0,755635.0,749601.0,56
4,0,0,0,1,46,test,1,0,m,Thu Feb 05 2026 14:46:42 GMT-0500 (Eastern Standard Time),770497.7999999998,I,z,1764,57,1,117.bmp,-120,-120,118.bmp,120,-120,119.bmp,-120,120,120.bmp,120,120,9808.599999999627,760689.2000000002,9057,no,SM,A,118.bmp,120,120,216717,210691,218734,212701,762651.0,756627.0,764668.0,758634.0,57
3,0,0,1,0,47,test,1,1,z,Thu Feb 05 2026 14:46:42 GMT-0500 (Eastern Standard Time),779731.0,I,z,1171,58,1,121.bmp,-120,-120,122.bmp,120,-120,123.bmp,-120,120,124.bmp,120,120,9224.700000000186,770506.2999999998,9057,yes,SM,A,123.bmp,-120,120,216717,210691,218734,212701,772468.0,766444.0,774485.0,768452.0,58
2,0,1,0,0,47,test,1,0,m,Thu Feb 05 2026 14:46:42 GMT-0500 (Eastern Standard Time),789397.5999999996,I,z,1610,59,1,125.bmp,-120,-120,126.bmp,120,-120,127.bmp,-120,120,128.bmp,120,120,9659.399999999441,779738.2000000002,9057,no,SM,A,128.bmp,120,-120,216717,210691,218734,212701,781701.0,775675.0,783718.0,777685.0,59
1,1,0,0,0,48,test,1,1,z,Thu Feb 05 2026 14:46:42 GMT-0500 (Eastern Standard Time),798580.7999999998,I,z,1126,60,1,129.bmp,-120,-120,130.bmp,120,-120,131.bmp,-120,120,132.bmp,120,120,9174.599999999627,789406.2000000002,9057,yes,SM,A,129.bmp,-120,-120,216717,210691,218734,212701,791368.0,785344.0,793385.0,787352.0,60
2,0,1,0,0,49,test,1,1,z,Thu Feb 05 2026 14:46:42 GMT-0500 (Eastern Standard Time),807447.2999999998,I,z,815,61,1,133.bmp,-120,-120,134.bmp,120,-120,135.bmp,-120,120,136.bmp,120,120,8863.099999999627,798584.2000000002,9057,yes,SM,A,134.bmp,120,-120,216717,210691,218734,212701,800552.0,794521.0,802569.0,796535.0,61
4,0,0,0,1,50,test,1,1,z,Thu Feb 05 2026 14:46:42 GMT-0500 (Eastern Standard Time),816731.0,I,z,1228,62,1,141.bmp,-120,-120,142.bmp,120,-120,143.bmp,-120,120,144.bmp,120,120,9276.900000000373,807454.0999999996,9057,yes,SM,A,144.bmp,120,120,216717,210691,218734,212701,809418.0,803391.0,811435.0,805401.0,62
1,1,0,0,0,50,test,1,0,m,Thu Feb 05 2026 14:46:42 GMT-0500 (Eastern Standard Time),826114.5,I,z,1322,63,1,145.bmp,-120,-120,146.bmp,120,-120,147.bmp,-120,120,148.bmp,120,120,9377.799999999814,816736.7000000002,9057,no,SM,A,145.bmp,-120,120,216717,210691,218734,212701,818702.0,812674.0,820718.0,814685.0,63
2,0,1,0,0,51,test,1,1,z,Thu Feb 05 2026 14:46:42 GMT-0500 (Eastern Standard Time),834831.4000000004,I,z,666,64,1,149.bmp,-120,-120,150.bmp,120,-120,112.bmp,-120,120,101.bmp,120,120,8710.400000000373,826121.0,9057,yes,SM,A,150.bmp,120,-120,216717,210691,218734,212701,828085.0,822058.0,830102.0,824068.0,64
4,0,0,0,1,51,test,1,0,m,Thu Feb 05 2026 14:46:42 GMT-0500 (Eastern Standard Time),844897.9000000004,I,None,2016,65,1,102.bmp,-120,-120,103.bmp,120,-120,104.bmp,-120,120,105.bmp,120,120,10057.300000000745,834840.5999999996,9057,no,SM,A,104.bmp,120,120,216717,210691,218734,212701,836802.0,830778.0,838819.0,832785.0,65
3,0,0,1,0,52,test,1,1,m,Thu Feb 05 2026 14:46:42 GMT-0500 (Eastern Standard Time),854614.4000000004,I,m,1659,66,1,106.bmp,-120,-120,107.bmp,120,-120,108.bmp,-120,120,109.bmp,120,120,9711.400000000373,844903.0,9057,no,SM,A,109.bmp,-120,120,216717,210691,218734,212701,846868.0,840840.0,848885.0,842852.0,66
2,0,1,0,0,53,test,1,1,m,Thu Feb 05 2026 14:46:42 GMT-0500 (Eastern Standard Time),863797.9000000004,I,m,1117,67,1,137.bmp,-120,-120,138.bmp,120,-120,139.bmp,-120,120,140.bmp,120,120,9176.800000000745,854621.0999999996,9057,no,SM,A,139.bmp,120,-120,216717,210691,218734,212701,856586.0,850558.0,858602.0,852569.0,67
3,0,0,1,0,54,test,1,1,z,Thu Feb 05 2026 14:46:42 GMT-0500 (Eastern Standard Time),872814.5,I,z,951,68,1,110.bmp,-120,-120,111.bmp,120,-120,112.bmp,-120,120,113.bmp,120,120,9007.299999999814,863807.2000000002,9057,yes,SM,A,112.bmp,-120,120,216717,210691,218734,212701,865768.0,859745.0,867785.0,861751.0,68
1,1,0,0,0,55,test,1,1,m,Thu Feb 05 2026 14:46:42 GMT-0500 (Eastern Standard Time),881747.7999999998,I,m,870,69,1,114.bmp,-120,-120,115.bmp,120,-120,116.bmp,-120,120,117.bmp,120,120,8927.0,872820.7999999998,9057,no,SM,A,115.bmp,-120,-120,216717,210691,218734,212701,874785.0,868758.0,876802.0,870768.0,69
2,0,1,0,0,56,test,1,1,m,Thu Feb 05 2026 14:46:42 GMT-0500 (Eastern Standard Time),890714.5999999996,I,m,905,70,1,118.bmp,-120,-120,119.bmp,120,-120,120.bmp,-120,120,121.bmp,120,120,8959.599999999627,881755.0,9057,no,SM,A,120.bmp,120,-120,216717,210691,218734,212701,883718.0,877692.0,885735.0,879701.0,70
4,0,0,0,1,56,test,1,0,z,Thu Feb 05 2026 14:46:42 GMT-0500 (Eastern Standard Time),900781.0999999996,I,None,2016,71,1,122.bmp,-120,-120,123.bmp,120,-120,124.bmp,-120,120,125.bmp,120,120,10057.0,890724.0999999996,9057,yes,SM,A,125.bmp,120,120,216717,210691,218734,212701,892685.0,886662.0,894702.0,888668.0,71
1,1,0,0,0,57,test,1,1,z,Thu Feb 05 2026 14:46:42 GMT-0500 (Eastern Standard Time),909931.0999999996,I,z,1112,72,1,126.bmp,-120,-120,127.bmp,120,-120,128.bmp,-120,120,129.bmp,120,120,9141.599999999627,900789.5,9057,yes,SM,A,126.bmp,-120,-120,216717,210691,218734,212701,902751.0,896727.0,904752.0,898735.0,72
2,0,1,0,0,58,test,1,1,z,Thu Feb 05 2026 14:46:42 GMT-0500 (Eastern Standard Time),919131.2999999998,I,z,1154,73,1,130.bmp,-120,-120,131.bmp,120,-120,132.bmp,-120,120,133.bmp,120,120,9193.099999999627,909938.2000000002,9057,yes,SM,A,131.bmp,120,-120,216717,210691,218734,212701,911901.0,905875.0,913902.0,907885.0,73
4,0,0,0,1,59,test,1,1,m,Thu Feb 05 2026 14:46:42 GMT-0500 (Eastern Standard Time),928064.5999999996,I,m,881,74,1,134.bmp,-120,-120,135.bmp,120,-120,136.bmp,-120,120,137.bmp,120,120,8927.299999999814,919137.2999999998,9057,no,SM,A,136.bmp,120,120,216717,210691,218734,212701,921102.0,915075.0,923119.0,917085.0,74
2,0,1,0,0,59,test,1,0,m,Thu Feb 05 2026 14:46:42 GMT-0500 (Eastern Standard Time),937481.0999999996,I,z,1356,75,1,138.bmp,-120,-120,139.bmp,120,-120,140.bmp,-120,120,141.bmp,120,120,9408.099999999627,928073.0,9057,no,SM,A,141.bmp,120,-120,216717,210691,218734,212701,930035.0,924010.0,932052.0,926019.0,75
1,1,0,0,0,60,test,1,1,z,Thu Feb 05 2026 14:46:42 GMT-0500 (Eastern Standard Time),946531.2999999998,I,z,987,76,1,142.bmp,-120,-120,143.bmp,120,-120,144.bmp,-120,120,145.bmp,120,120,9043.899999999441,937487.4000000004,9057,yes,SM,A,142.bmp,-120,-120,216717,210691,218734,212701,939452.0,933425.0,941469.0,935435.0,76
3,0,0,1,0,61,test,1,1,z,Thu Feb 05 2026 14:46:42 GMT-0500 (Eastern Standard Time),956298.0999999996,I,z,1705,77,1,150.bmp,-120,-120,111.bmp,120,-120,101.bmp,-120,120,102.bmp,120,120,9758.0,946540.0999999996,9057,yes,SM,A,101.bmp,-120,120,216717,210691,218734,212701,948502.0,942478.0,950519.0,944485.0,77
1,1,0,0,0,62,test,1,1,m,Thu Feb 05 2026 14:46:42 GMT-0500 (Eastern Standard Time),965448.0999999996,I,m,1090,78,1,146.bmp,-120,-120,147.bmp,120,-120,148.bmp,-120,120,149.bmp,120,120,9142.599999999627,956305.5,9057,no,SM,A,147.bmp,-120,-120,216717,210691,218734,212701,958269.0,952243.0,960285.0,954252.0,78
4,0,0,0,1,63,test,1,1,m,Thu Feb 05 2026 14:46:42 GMT-0500 (Eastern Standard Time),974864.4000000004,I,m,1355,79,1,107.bmp,-120,-120,108.bmp,120,-120,109.bmp,-120,120,110.bmp,120,120,9408.600000000559,965455.7999999998,9057,no,SM,A,107.bmp,120,120,216717,210691,218734,212701,967419.0,961393.0,969435.0,963402.0,79
3,0,0,1,0,64,test,1,1,m,Thu Feb 05 2026 14:46:42 GMT-0500 (Eastern Standard Time),984147.9000000004,I,m,1219,80,1,103.bmp,-120,-120,104.bmp,120,-120,105.bmp,-120,120,106.bmp,120,120,9278.700000000186,974869.2000000002,9057,no,SM,A,106.bmp,-120,120,216717,210691,218734,212701,976835.0,970806.0,978852.0,972819.0,80
