block_c,block_dur,condition,countdown,datetime,endtime,list,multichar_response,project,response,response_time,session_number,start_end,starttime,subject_id,task,task_vers,trial
,,,,Tue Feb 03 2026 17:59:40 GMT-0600 (Central Standard Time),,,,I,space,554,,,,8083,WL,B,
prac,,0,,Tue Feb 03 2026 17:59:40 GMT-0600 (Central Standard Time),,NA,b,I,b,4161,,,,8083,WL,B,1.0
prac,,0,,Tue Feb 03 2026 17:59:40 GMT-0600 (Central Standard Time),,NA,bo,I,o,209,,,,8083,WL,B,1.0
prac,,0,,Tue Feb 03 2026 17:59:40 GMT-0600 (Central Standard Time),,NA,boo,I,o,175,,,,8083,WL,B,1.0
prac,,0,,Tue Feb 03 2026 17:59:40 GMT-0600 (Central Standard Time),,NA,boos,I,s,201,,,,8083,WL,B,1.0
prac,,0,,Tue Feb 03 2026 17:59:40 GMT-0600 (Central Standard Time),,NA,boost,I,t,256,,,,8083,WL,B,1.0
prac,,0,,Tue Feb 03 2026 17:59:40 GMT-0600 (Central Standard Time),,NA,boostenter,I,enter,910,,,,8083,WL,B,1.0
1,4.448999881744385,learn,55551.000118255615,Tue Feb 03 2026 17:59:40 GMT-0600 (Central Standard Time),127335.60000002384,A,s,I,s,4438,,4448.300000011921,122887.30000001192,8083,WL,B,1.0
1,4.747999906539917,learn,55252.00009346008,Tue Feb 03 2026 17:59:40 GMT-0600 (Central Standard Time),127635.40000000596,A,st,I,t,285,,4748.0999999940395,122887.30000001192,8083,WL,B,1.0
1,5.0309998989105225,learn,54969.00010108948,Tue Feb 03 2026 17:59:40 GMT-0600 (Central Standard Time),127918.5,A,str,I,r,264,,5031.199999988079,122887.30000001192,8083,WL,B,1.0
1,5.264999866485596,learn,54735.000133514404,Tue Feb 03 2026 17:59:40 GMT-0600 (Central Standard Time),128151.70000001788,A,stre,I,e,213,,5264.4000000059605,122887.30000001192,8083,WL,B,1.0
1,5.365000009536743,learn,54634.99999046326,Tue Feb 03 2026 17:59:40 GMT-0600 (Central Standard Time),128251.60000002384,A,stree,I,e,93,,5364.300000011921,122887.30000001192,8083,WL,B,1.0
1,5.615000009536743,learn,54384.99999046326,Tue Feb 03 2026 17:59:40 GMT-0600 (Central Standard Time),128501.90000000596,A,street,I,t,233,,5614.5999999940395,122887.30000001192,8083,WL,B,1.0
1,6.164000034332275,learn,53835.999965667725,Tue Feb 03 2026 17:59:40 GMT-0600 (Central Standard Time),129051.60000002384,A,streetenter,I,enter,535,,6164.300000011921,122887.30000001192,8083,WL,B,1.0
1,6.563999891281128,learn,53436.00010871887,Tue Feb 03 2026 17:59:40 GMT-0600 (Central Standard Time),129451.20000001788,A,g,I,g,385,,399.09999999403954,129052.10000002384,8083,WL,B,2.0
1,6.930999994277954,learn,53069.000005722046,Tue Feb 03 2026 17:59:40 GMT-0600 (Central Standard Time),129818.0,A,gr,I,r,352,,765.8999999761581,129052.10000002384,8083,WL,B,2.0
1,7.0309998989105225,learn,52969.00010108948,Tue Feb 03 2026 17:59:40 GMT-0600 (Central Standard Time),129917.90000000596,A,gra,I,a,90,,865.7999999821186,129052.10000002384,8083,WL,B,2.0
1,7.447000026702881,learn,52552.99997329712,Tue Feb 03 2026 17:59:40 GMT-0600 (Central Standard Time),130334.40000000596,A,gras,I,s,398,,1282.2999999821186,129052.10000002384,8083,WL,B,2.0
1,7.580999851226807,learn,52419.00014877319,Tue Feb 03 2026 17:59:40 GMT-0600 (Central Standard Time),130467.70000001788,A,grass,I,s,118,,1415.5999999940395,129052.10000002384,8083,WL,B,2.0
1,7.914000034332275,learn,52085.999965667725,Tue Feb 03 2026 17:59:40 GMT-0600 (Central Standard Time),130800.90000000596,A,grassenter,I,enter,321,,1748.7999999821186,129052.10000002384,8083,WL,B,2.0
1,8.19700002670288,learn,51802.99997329712,Tue Feb 03 2026 17:59:40 GMT-0600 (Central Standard Time),131084.10000002384,A,d,I,d,268,,282.40000000596046,130801.70000001788,8083,WL,B,3.0
1,8.414000034332275,learn,51585.999965667725,Tue Feb 03 2026 17:59:40 GMT-0600 (Central Standard Time),131300.80000001192,A,do,I,o,201,,499.09999999403954,130801.70000001788,8083,WL,B,3.0
1,8.54699993133545,learn,51453.00006866455,Tue Feb 03 2026 17:59:40 GMT-0600 (Central Standard Time),131433.90000000596,A,doo,I,o,128,,632.1999999880791,130801.70000001788,8083,WL,B,3.0
1,10.230000019073486,learn,49769.999980926514,Tue Feb 03 2026 17:59:40 GMT-0600 (Central Standard Time),133116.80000001192,A,door,I,r,1667,,2315.0999999940395,130801.70000001788,8083,WL,B,3.0
1,11.995999813079834,learn,48004.000186920166,Tue Feb 03 2026 17:59:40 GMT-0600 (Central Standard Time),134882.70000001788,A,doorenter,I,enter,1759,,4081.0,130801.70000001788,8083,WL,B,3.0
1,12.296000003814697,learn,47703.9999961853,Tue Feb 03 2026 17:59:40 GMT-0600 (Central Standard Time),135182.90000000596,A,a,I,a,281,,300.0,134882.90000000596,8083,WL,B,4.0
1,12.394999980926514,learn,47605.000019073486,Tue Feb 03 2026 17:59:40 GMT-0600 (Central Standard Time),135282.40000000596,A,ar,I,r,93,,399.5,134882.90000000596,8083,WL,B,4.0
1,12.661999940872192,learn,47338.00005912781,Tue Feb 03 2026 17:59:40 GMT-0600 (Central Standard Time),135549.30000001192,A,arm,I,m,251,,666.4000000059605,134882.90000000596,8083,WL,B,4.0
1,15.044999837875366,learn,44955.000162124634,Tue Feb 03 2026 17:59:40 GMT-0600 (Central Standard Time),137932.20000001788,A,armenter,I,enter,2366,,3049.300000011921,134882.90000000596,8083,WL,B,4.0
1,23.825999975204468,learn,36174.00002479553,Tue Feb 03 2026 17:59:40 GMT-0600 (Central Standard Time),146712.70000001788,A,f,I,f,8768,,8780.09999999404,137932.60000002384,8083,WL,B,5.0
1,23.90999984741211,learn,36090.00015258789,Tue Feb 03 2026 17:59:40 GMT-0600 (Central Standard Time),146796.90000000596,A,fi,I,i,76,,8864.299999982119,137932.60000002384,8083,WL,B,5.0
1,24.408999919891357,learn,35591.00008010864,Tue Feb 03 2026 17:59:40 GMT-0600 (Central Standard Time),147295.70000001788,A,fir,I,r,480,,9363.09999999404,137932.60000002384,8083,WL,B,5.0
1,24.47499990463257,learn,35525.00009536743,Tue Feb 03 2026 17:59:40 GMT-0600 (Central Standard Time),147362.5,A,fire,I,e,53,,9429.899999976158,137932.60000002384,8083,WL,B,5.0
1,24.825000047683716,learn,35174.999952316284,Tue Feb 03 2026 17:59:40 GMT-0600 (Central Standard Time),147712.30000001192,A,fireenter,I,enter,338,,9779.699999988079,137932.60000002384,8083,WL,B,5.0
1,25.258999824523926,learn,34741.000175476074,Tue Feb 03 2026 17:59:40 GMT-0600 (Central Standard Time),148145.60000002384,A,w,I,w,420,,432.90000000596046,147712.70000001788,8083,WL,B,6.0
1,25.325000047683716,learn,34674.999952316284,Tue Feb 03 2026 17:59:40 GMT-0600 (Central Standard Time),148212.20000001788,A,wi,I,i,49,,499.5,147712.70000001788,8083,WL,B,6.0
1,25.507999897003174,learn,34492.000102996826,Tue Feb 03 2026 17:59:40 GMT-0600 (Central Standard Time),148395.40000000596,A,win,I,n,168,,682.6999999880791,147712.70000001788,8083,WL,B,6.0
1,25.657999992370605,learn,34342.000007629395,Tue Feb 03 2026 17:59:40 GMT-0600 (Central Standard Time),148545.30000001192,A,wind,I,d,137,,832.5999999940395,147712.70000001788,8083,WL,B,6.0
1,25.741999864578247,learn,34258.00013542175,Tue Feb 03 2026 17:59:40 GMT-0600 (Central Standard Time),148628.60000002384,A,windo,I,o,68,,915.9000000059605,147712.70000001788,8083,WL,B,6.0
1,25.907999992370605,learn,34092.000007629395,Tue Feb 03 2026 17:59:40 GMT-0600 (Central Standard Time),148795.30000001192,A,window,I,w,152,,1082.5999999940395,147712.70000001788,8083,WL,B,6.0
1,27.04099988937378,learn,32959.00011062622,Tue Feb 03 2026 17:59:40 GMT-0600 (Central Standard Time),149928.20000001788,A,windowenter,I,enter,1122,,2215.5,147712.70000001788,8083,WL,B,6.0
1,27.35800004005432,learn,32641.99995994568,Tue Feb 03 2026 17:59:40 GMT-0600 (Central Standard Time),150244.80000001192,A,c,I,c,300,,316.40000000596046,149928.40000000596,8083,WL,B,7.0
1,27.424999952316284,learn,32575.000047683716,Tue Feb 03 2026 17:59:40 GMT-0600 (Central Standard Time),150311.60000002384,A,ci,I,i,47,,383.2000000178814,149928.40000000596,8083,WL,B,7.0
1,27.62399983406067,learn,32376.00016593933,Tue Feb 03 2026 17:59:40 GMT-0600 (Central Standard Time),150511.60000002384,A,cit,I,t,182,,583.2000000178814,149928.40000000596,8083,WL,B,7.0
1,27.69099998474121,learn,32309.00001525879,Tue Feb 03 2026 17:59:40 GMT-0600 (Central Standard Time),150578.10000002384,A,city,I,y,54,,649.7000000178814,149928.40000000596,8083,WL,B,7.0
1,28.60699987411499,learn,31393.00012588501,Tue Feb 03 2026 17:59:40 GMT-0600 (Central Standard Time),151494.5,A,cityp,I,p,899,,1566.0999999940395,149928.40000000596,8083,WL,B,7.0
1,28.740999937057495,learn,31259.000062942505,Tue Feb 03 2026 17:59:40 GMT-0600 (Central Standard Time),151628.10000002384,A,citypu,I,u,119,,1699.7000000178814,149928.40000000596,8083,WL,B,7.0
1,29.306999921798706,learn,30693.000078201294,Tue Feb 03 2026 17:59:40 GMT-0600 (Central Standard Time),152194.5,A,cityp,I,backspace,553,,2266.0999999940395,149928.40000000596,8083,WL,B,7.0
1,29.539999961853027,learn,30460.000038146973,Tue Feb 03 2026 17:59:40 GMT-0600 (Central Standard Time),152427.10000002384,A,city,I,backspace,227,,2498.7000000178814,149928.40000000596,8083,WL,B,7.0
1,30.33999991416931,learn,29660.00008583069,Tue Feb 03 2026 17:59:40 GMT-0600 (Central Standard Time),153227.10000002384,A,cityenter,I,enter,786,,3298.7000000178814,149928.40000000596,8083,WL,B,7.0
1,30.957000017166138,learn,29042.999982833862,Tue Feb 03 2026 17:59:40 GMT-0600 (Central Standard Time),153843.70000001788,A,p,I,p,601,,616.3000000119209,153227.40000000596,8083,WL,B,8.0
1,31.18999981880188,learn,28810.00018119812,Tue Feb 03 2026 17:59:40 GMT-0600 (Central Standard Time),154077.0,A,pu,I,u,224,,849.5999999940395,153227.40000000596,8083,WL,B,8.0
1,31.389999866485596,learn,28610.000133514404,Tue Feb 03 2026 17:59:40 GMT-0600 (Central Standard Time),154277.10000002384,A,pup,I,p,184,,1049.7000000178814,153227.40000000596,8083,WL,B,8.0
1,31.639999866485596,learn,28360.000133514404,Tue Feb 03 2026 17:59:40 GMT-0600 (Central Standard Time),154527.0,A,pupi,I,i,232,,1299.5999999940395,153227.40000000596,8083,WL,B,8.0
1,32.40599989891052,learn,27594.000101089478,Tue Feb 03 2026 17:59:40 GMT-0600 (Central Standard Time),155293.20000001788,A,pupil,I,l,758,,2065.800000011921,153227.40000000596,8083,WL,B,8.0
1,35.187999963760376,learn,24812.000036239624,Tue Feb 03 2026 17:59:40 GMT-0600 (Central Standard Time),158075.5,A,pupilenter,I,enter,2776,,4848.0999999940395,153227.40000000596,8083,WL,B,8.0
1,46.45099997520447,learn,13549.000024795532,Tue Feb 03 2026 17:59:40 GMT-0600 (Central Standard Time),169338.60000002384,A,enter,I,enter,11258,,11262.90000000596,158075.70000001788,8083,WL,B,9.0
1,49.73399996757507,learn,10266.000032424927,Tue Feb 03 2026 17:59:40 GMT-0600 (Central Standard Time),172621.10000002384,A,enter,I,enter,3274,,3282.2000000178814,169338.90000000596,8083,WL,B,10.0
1,51.25,learn,8750.0,Tue Feb 03 2026 17:59:40 GMT-0600 (Central Standard Time),174137.30000001192,A,enter,I,enter,1496,,1515.9000000059605,172621.40000000596,8083,WL,B,11.0
1,51.75,learn,8250.0,Tue Feb 03 2026 17:59:40 GMT-0600 (Central Standard Time),174637.10000002384,A,enter,I,enter,484,,499.10000002384186,174138.0,8083,WL,B,12.0
1,52.299999952316284,learn,7700.000047683716,Tue Feb 03 2026 17:59:40 GMT-0600 (Central Standard Time),175187.20000001788,A,enter,I,enter,536,,549.5999999940395,174637.60000002384,8083,WL,B,13.0
1,53.18299984931946,learn,6817.000150680542,Tue Feb 03 2026 17:59:40 GMT-0600 (Central Standard Time),176070.40000000596,A,enter,I,enter,866,,882.6999999880791,175187.70000001788,8083,WL,B,14.0
1,54.098999977111816,learn,5901.000022888184,Tue Feb 03 2026 17:59:40 GMT-0600 (Central Standard Time),176986.30000001192,A,enter,I,enter,910,,915.5999999940395,176070.70000001788,8083,WL,B,15.0
2,2.366000175476074,learn,57633.999824523926,Tue Feb 03 2026 17:59:40 GMT-0600 (Central Standard Time),256295.10000002384,A,s,I,s,2349,,2365.800000011921,253929.30000001192,8083,WL,B,1.0
2,2.6490001678466797,learn,57350.99983215332,Tue Feb 03 2026 17:59:40 GMT-0600 (Central Standard Time),256578.30000001192,A,st,I,t,270,,2649.0,253929.30000001192,8083,WL,B,1.0
2,3.4820001125335693,learn,56517.99988746643,Tue Feb 03 2026 17:59:40 GMT-0600 (Central Standard Time),257411.5,A,str,I,r,819,,3482.199999988079,253929.30000001192,8083,WL,B,1.0
2,3.949000120162964,learn,56050.999879837036,Tue Feb 03 2026 17:59:40 GMT-0600 (Central Standard Time),257877.90000000596,A,stre,I,e,458,,3948.5999999940395,253929.30000001192,8083,WL,B,1.0
2,4.082000017166138,learn,55917.99998283386,Tue Feb 03 2026 17:59:40 GMT-0600 (Central Standard Time),258011.20000001788,A,stree,I,e,120,,4081.9000000059605,253929.30000001192,8083,WL,B,1.0
2,4.832000017166138,learn,55167.99998283386,Tue Feb 03 2026 17:59:40 GMT-0600 (Central Standard Time),258761.0,A,street,I,t,729,,4831.699999988079,253929.30000001192,8083,WL,B,1.0
2,7.13100004196167,learn,52868.99995803833,Tue Feb 03 2026 17:59:40 GMT-0600 (Central Standard Time),261060.30000001192,A,streetenter,I,enter,2292,,7131.0,253929.30000001192,8083,WL,B,1.0
2,8.347000122070312,learn,51652.99987792969,Tue Feb 03 2026 17:59:40 GMT-0600 (Central Standard Time),262276.60000002384,A,g,I,g,1209,,1216.0,261060.60000002384,8083,WL,B,2.0
2,8.78000020980835,learn,51219.99979019165,Tue Feb 03 2026 17:59:40 GMT-0600 (Central Standard Time),262709.90000000596,A,gr,I,r,425,,1649.2999999821186,261060.60000002384,8083,WL,B,2.0
2,9.064000129699707,learn,50935.99987030029,Tue Feb 03 2026 17:59:40 GMT-0600 (Central Standard Time),262993.2000000179,A,gra,I,a,272,,1932.5999999940395,261060.60000002384,8083,WL,B,2.0
2,9.597000122070312,learn,50402.99987792969,Tue Feb 03 2026 17:59:40 GMT-0600 (Central Standard Time),263526.2000000179,A,gras,I,s,524,,2465.5999999940395,261060.60000002384,8083,WL,B,2.0
2,9.748000144958496,learn,50251.999855041504,Tue Feb 03 2026 17:59:40 GMT-0600 (Central Standard Time),263677.2000000179,A,grass,I,s,134,,2616.5999999940395,261060.60000002384,8083,WL,B,2.0
2,10.163000106811523,learn,49836.99989318848,Tue Feb 03 2026 17:59:40 GMT-0600 (Central Standard Time),264092.7000000179,A,grassenter,I,enter,400,,3032.0999999940395,261060.60000002384,8083,WL,B,2.0
2,10.763000011444092,learn,49236.99998855591,Tue Feb 03 2026 17:59:40 GMT-0600 (Central Standard Time),264692.40000000596,A,d,I,d,585,,599.2999999821186,264093.10000002384,8083,WL,B,3.0
2,11.03000020980835,learn,48969.99979019165,Tue Feb 03 2026 17:59:40 GMT-0600 (Central Standard Time),264958.90000000596,A,do,I,o,257,,865.7999999821186,264093.10000002384,8083,WL,B,3.0
2,11.163000106811523,learn,48836.99989318848,Tue Feb 03 2026 17:59:40 GMT-0600 (Central Standard Time),265092.40000000596,A,doo,I,o,126,,999.2999999821186,264093.10000002384,8083,WL,B,3.0
2,11.92900013923645,learn,48070.99986076355,Tue Feb 03 2026 17:59:40 GMT-0600 (Central Standard Time),265858.60000002384,A,door,I,r,744,,1765.5,264093.10000002384,8083,WL,B,3.0
2,13.612000226974487,learn,46387.99977302551,Tue Feb 03 2026 17:59:40 GMT-0600 (Central Standard Time),267541.7000000179,A,doorenter,I,enter,1667,,3448.5999999940395,264093.10000002384,8083,WL,B,3.0
2,14.312000036239624,learn,45687.999963760376,Tue Feb 03 2026 17:59:40 GMT-0600 (Central Standard Time),268241.5,A,c,I,c,678,,699.2999999821186,267542.2000000179,8083,WL,B,4.0
2,14.395000219345093,learn,45604.99978065491,Tue Feb 03 2026 17:59:40 GMT-0600 (Central Standard Time),268324.7000000179,A,ci,I,i,76,,782.5,267542.2000000179,8083,WL,B,4.0
2,14.561000108718872,learn,45438.99989128113,Tue Feb 03 2026 17:59:40 GMT-0600 (Central Standard Time),268490.90000000596,A,cit,I,t,161,,948.6999999880791,267542.2000000179,8083,WL,B,4.0
2,14.645000219345093,learn,45354.99978065491,Tue Feb 03 2026 17:59:40 GMT-0600 (Central Standard Time),268574.60000002384,A,city,I,y,67,,1032.4000000059605,267542.2000000179,8083,WL,B,4.0
2,16.461000204086304,learn,43538.999795913696,Tue Feb 03 2026 17:59:40 GMT-0600 (Central Standard Time),270390.60000002384,A,cit,I,backspace,1807,,2848.4000000059605,267542.2000000179,8083,WL,B,4.0
2,16.695000171661377,learn,43304.99982833862,Tue Feb 03 2026 17:59:40 GMT-0600 (Central Standard Time),270624.2000000179,A,ci,I,backspace,214,,3082.0,267542.2000000179,8083,WL,B,4.0
2,16.89400005340576,learn,43105.99994659424,Tue Feb 03 2026 17:59:40 GMT-0600 (Central Standard Time),270823.7000000179,A,c,I,backspace,180,,3281.5,267542.2000000179,8083,WL,B,4.0
2,17.128000020980835,learn,42871.999979019165,Tue Feb 03 2026 17:59:40 GMT-0600 (Central Standard Time),271057.40000000596,A,,I,backspace,222,,3515.199999988079,267542.2000000179,8083,WL,B,4.0
2,17.57800006866455,learn,42421.99993133545,Tue Feb 03 2026 17:59:40 GMT-0600 (Central Standard Time),271506.90000000596,A,a,I,a,435,,3964.699999988079,267542.2000000179,8083,WL,B,4.0
2,17.66100001335144,learn,42338.99998664856,Tue Feb 03 2026 17:59:40 GMT-0600 (Central Standard Time),271590.3000000119,A,ar,I,r,75,,4048.0999999940395,267542.2000000179,8083,WL,B,4.0
2,17.8270001411438,learn,42172.9998588562,Tue Feb 03 2026 17:59:40 GMT-0600 (Central Standard Time),271756.8000000119,A,arm,I,m,151,,4214.5999999940395,267542.2000000179,8083,WL,B,4.0
2,19.927000045776367,learn,40072.99995422363,Tue Feb 03 2026 17:59:40 GMT-0600 (Central Standard Time),273856.2000000179,A,armenter,I,enter,2080,,6314.0,267542.2000000179,8083,WL,B,4.0
2,23.776000022888184,learn,36223.99997711182,Tue Feb 03 2026 17:59:40 GMT-0600 (Central Standard Time),277705.0,A,s,I,s,3837,,3848.199999988079,273856.8000000119,8083,WL,B,5.0
2,23.992000102996826,learn,36007.999897003174,Tue Feb 03 2026 17:59:40 GMT-0600 (Central Standard Time),277921.60000002384,A,st,I,t,204,,4064.800000011921,273856.8000000119,8083,WL,B,5.0
2,24.259000062942505,learn,35740.999937057495,Tue Feb 03 2026 17:59:40 GMT-0600 (Central Standard Time),278188.3000000119,A,sta,I,a,252,,4331.5,273856.8000000119,8083,WL,B,5.0
2,24.342000007629395,learn,35657.999992370605,Tue Feb 03 2026 17:59:40 GMT-0600 (Central Standard Time),278271.40000000596,A,star,I,r,65,,4414.5999999940395,273856.8000000119,8083,WL,B,5.0
2,24.825000047683716,learn,35174.999952316284,Tue Feb 03 2026 17:59:40 GMT-0600 (Central Standard Time),278754.60000002384,A,starenter,I,enter,470,,4897.800000011921,273856.8000000119,8083,WL,B,5.0
2,25.392000198364258,learn,34607.99980163574,Tue Feb 03 2026 17:59:40 GMT-0600 (Central Standard Time),279321.0,A,w,I,w,555,,566.0999999940395,278754.90000000596,8083,WL,B,6.0
2,25.475000143051147,learn,34524.99985694885,Tue Feb 03 2026 17:59:40 GMT-0600 (Central Standard Time),279404.40000000596,A,wi,I,i,69,,649.5,278754.90000000596,8083,WL,B,6.0
2,25.642000198364258,learn,34357.99980163574,Tue Feb 03 2026 17:59:40 GMT-0600 (Central Standard Time),279571.10000002384,A,wif,I,f,161,,816.2000000178814,278754.90000000596,8083,WL,B,6.0
2,25.77500009536743,learn,34224.99990463257,Tue Feb 03 2026 17:59:40 GMT-0600 (Central Standard Time),279704.5,A,wife,I,e,123,,949.5999999940395,278754.90000000596,8083,WL,B,6.0
2,27.52500009536743,learn,32474.99990463257,Tue Feb 03 2026 17:59:40 GMT-0600 (Central Standard Time),281454.0,A,wifeenter,I,enter,1741,,2699.0999999940395,278754.90000000596,8083,WL,B,6.0
2,31.17300009727478,learn,28826.99990272522,Tue Feb 03 2026 17:59:40 GMT-0600 (Central Standard Time),285102.7000000179,A,c,I,c,3640,,3648.5,281454.2000000179,8083,WL,B,7.0
2,31.258000135421753,learn,28741.999864578247,Tue Feb 03 2026 17:59:40 GMT-0600 (Central Standard Time),285187.0,A,ci,I,i,63,,3732.7999999821186,281454.2000000179,8083,WL,B,7.0
2,31.473000049591064,learn,28526.999950408936,Tue Feb 03 2026 17:59:40 GMT-0600 (Central Standard Time),285402.40000000596,A,cit,I,t,210,,3948.199999988079,281454.2000000179,8083,WL,B,7.0
2,31.540000200271606,learn,28459.999799728394,Tue Feb 03 2026 17:59:40 GMT-0600 (Central Standard Time),285469.10000002384,A,city,I,y,59,,4014.9000000059605,281454.2000000179,8083,WL,B,7.0
2,32.15700006484985,learn,27842.999935150146,Tue Feb 03 2026 17:59:40 GMT-0600 (Central Standard Time),286086.0,A,cityenter,I,enter,609,,4631.799999982119,281454.2000000179,8083,WL,B,7.0
2,32.59000015258789,learn,27409.99984741211,Tue Feb 03 2026 17:59:40 GMT-0600 (Central Standard Time),286519.0,A,w,I,w,423,,432.5,286086.5,8083,WL,B,8.0
2,32.63900017738342,learn,27360.999822616577,Tue Feb 03 2026 17:59:40 GMT-0600 (Central Standard Time),286568.90000000596,A,wi,I,i,30,,482.40000000596046,286086.5,8083,WL,B,8.0
2,32.82300019264221,learn,27176.999807357788,Tue Feb 03 2026 17:59:40 GMT-0600 (Central Standard Time),286752.2000000179,A,win,I,n,164,,665.7000000178814,286086.5,8083,WL,B,8.0
2,32.98900008201599,learn,27010.99991798401,Tue Feb 03 2026 17:59:40 GMT-0600 (Central Standard Time),286918.7000000179,A,wind,I,d,156,,832.2000000178814,286086.5,8083,WL,B,8.0
2,33.07200002670288,learn,26927.99997329712,Tue Feb 03 2026 17:59:40 GMT-0600 (Central Standard Time),287001.90000000596,A,windo,I,o,79,,915.4000000059605,286086.5,8083,WL,B,8.0
2,33.23900008201599,learn,26760.99991798401,Tue Feb 03 2026 17:59:40 GMT-0600 (Central Standard Time),287168.7000000179,A,window,I,w,155,,1082.2000000178814,286086.5,8083,WL,B,8.0
2,35.3050000667572,learn,24694.999933242798,Tue Feb 03 2026 17:59:40 GMT-0600 (Central Standard Time),289234.8000000119,A,windowenter,I,enter,2053,,3148.300000011921,286086.5,8083,WL,B,8.0
2,36.50500011444092,learn,23494.999885559082,Tue Feb 03 2026 17:59:40 GMT-0600 (Central Standard Time),290434.40000000596,A,p,I,p,1186,,1199.199999988079,289235.2000000179,8083,WL,B,9.0
2,37.58800005912781,learn,22411.999940872192,Tue Feb 03 2026 17:59:40 GMT-0600 (Central Standard Time),291517.5,A,pu,I,u,1066,,2282.2999999821186,289235.2000000179,8083,WL,B,9.0
2,37.82100009918213,learn,22178.99990081787,Tue Feb 03 2026 17:59:40 GMT-0600 (Central Standard Time),291750.7000000179,A,pup,I,p,223,,2515.5,289235.2000000179,8083,WL,B,9.0
2,38.521000146865845,learn,21478.999853134155,Tue Feb 03 2026 17:59:40 GMT-0600 (Central Standard Time),292450.5,A,pupi,I,i,679,,3215.2999999821186,289235.2000000179,8083,WL,B,9.0
2,38.7039999961853,learn,21296.000003814697,Tue Feb 03 2026 17:59:40 GMT-0600 (Central Standard Time),292633.7000000179,A,pupil,I,l,163,,3398.5,289235.2000000179,8083,WL,B,9.0
2,41.253000020980835,learn,18746.999979019165,Tue Feb 03 2026 17:59:40 GMT-0600 (Central Standard Time),295182.7000000179,A,pupilenter,I,enter,2532,,5947.5,289235.2000000179,8083,WL,B,9.0
2,41.78700017929077,learn,18212.99982070923,Tue Feb 03 2026 17:59:40 GMT-0600 (Central Standard Time),295716.0,A,c,I,c,526,,533.0999999940395,295182.90000000596,8083,WL,B,10.0
2,41.95300006866455,learn,18046.99993133545,Tue Feb 03 2026 17:59:40 GMT-0600 (Central Standard Time),295882.60000002384,A,ca,I,a,161,,699.7000000178814,295182.90000000596,8083,WL,B,10.0
2,42.13700008392334,learn,17862.99991607666,Tue Feb 03 2026 17:59:40 GMT-0600 (Central Standard Time),296065.90000000596,A,cab,I,b,170,,883.0,295182.90000000596,8083,WL,B,10.0
2,42.587000131607056,learn,17412.999868392944,Tue Feb 03 2026 17:59:40 GMT-0600 (Central Standard Time),296515.90000000596,A,cabi,I,i,443,,1333.0,295182.90000000596,8083,WL,B,10.0
2,42.77000021934509,learn,17229.999780654907,Tue Feb 03 2026 17:59:40 GMT-0600 (Central Standard Time),296699.10000002384,A,cabin,I,n,177,,1516.2000000178814,295182.90000000596,8083,WL,B,10.0
2,43.13600015640259,learn,16863.999843597412,Tue Feb 03 2026 17:59:40 GMT-0600 (Central Standard Time),297065.5,A,cabinenter,I,enter,361,,1882.5999999940395,295182.90000000596,8083,WL,B,10.0
2,43.7020001411438,learn,16297.999858856201,Tue Feb 03 2026 17:59:40 GMT-0600 (Central Standard Time),297632.0,A,l,I,l,548,,566.2999999821186,297065.7000000179,8083,WL,B,11.0
2,43.93600010871887,learn,16063.999891281128,Tue Feb 03 2026 17:59:40 GMT-0600 (Central Standard Time),297865.10000002384,A,la,I,a,212,,799.4000000059605,297065.7000000179,8083,WL,B,11.0
2,44.10199999809265,learn,15898.000001907349,Tue Feb 03 2026 17:59:40 GMT-0600 (Central Standard Time),298031.8000000119,A,lak,I,k,149,,966.0999999940395,297065.7000000179,8083,WL,B,11.0
2,44.36900019645691,learn,15630.99980354309,Tue Feb 03 2026 17:59:40 GMT-0600 (Central Standard Time),298298.5,A,lake,I,e,261,,1232.7999999821186,297065.7000000179,8083,WL,B,11.0
2,44.569000005722046,learn,15430.999994277954,Tue Feb 03 2026 17:59:40 GMT-0600 (Central Standard Time),298498.40000000596,A,lakeenter,I,enter,179,,1432.699999988079,297065.7000000179,8083,WL,B,11.0
2,45.18100023269653,learn,14818.999767303467,Tue Feb 03 2026 17:59:40 GMT-0600 (Central Standard Time),299110.5,A,f,I,f,607,,611.7999999821186,298498.7000000179,8083,WL,B,12.0
2,45.2020001411438,learn,14797.999858856201,Tue Feb 03 2026 17:59:40 GMT-0600 (Central Standard Time),299131.40000000596,A,fi,I,i,7,,632.6999999880791,298498.7000000179,8083,WL,B,12.0
2,45.33500003814697,learn,14664.999961853027,Tue Feb 03 2026 17:59:40 GMT-0600 (Central Standard Time),299264.7000000179,A,fir,I,r,119,,766.0,298498.7000000179,8083,WL,B,12.0
2,45.96900010108948,learn,14030.999898910522,Tue Feb 03 2026 17:59:40 GMT-0600 (Central Standard Time),299898.2000000179,A,fire,I,e,613,,1399.5,298498.7000000179,8083,WL,B,12.0
2,47.385000228881836,learn,12614.999771118164,Tue Feb 03 2026 17:59:40 GMT-0600 (Central Standard Time),301314.3000000119,A,fireenter,I,enter,1395,,2815.5999999940395,298498.7000000179,8083,WL,B,12.0
2,51.31700015068054,learn,8682.999849319458,Tue Feb 03 2026 17:59:40 GMT-0600 (Central Standard Time),305246.5,A,p,I,p,3914,,3931.699999988079,301314.8000000119,8083,WL,B,13.0
2,51.533000230789185,learn,8466.999769210815,Tue Feb 03 2026 17:59:40 GMT-0600 (Central Standard Time),305462.90000000596,A,pi,I,i,207,,4148.0999999940395,301314.8000000119,8083,WL,B,13.0
2,51.73300004005432,learn,8266.999959945679,Tue Feb 03 2026 17:59:40 GMT-0600 (Central Standard Time),305662.8000000119,A,pip,I,p,182,,4348.0,301314.8000000119,8083,WL,B,13.0
2,52.26700019836426,learn,7732.999801635742,Tue Feb 03 2026 17:59:40 GMT-0600 (Central Standard Time),306196.3000000119,A,pipe,I,e,519,,4881.5,301314.8000000119,8083,WL,B,13.0
2,53.73300004005432,learn,6266.999959945679,Tue Feb 03 2026 17:59:40 GMT-0600 (Central Standard Time),307662.3000000119,A,pipeenter,I,enter,1457,,6347.5,301314.8000000119,8083,WL,B,13.0
2,60.01400017738342,learn,-14.000177383422852,Tue Feb 03 2026 17:59:40 GMT-0600 (Central Standard Time),313943.90000000596,A,None,I,None,6277,,6281.199999988079,307662.7000000179,8083,WL,B,14.0
3,1.4830000400543213,learn,58516.99995994568,Tue Feb 03 2026 17:59:40 GMT-0600 (Central Standard Time),389087.10000002384,A,s,I,s,1466,,1483.0,387604.10000002384,8083,WL,B,1.0
3,1.6170001029968262,learn,58382.999897003174,Tue Feb 03 2026 17:59:40 GMT-0600 (Central Standard Time),389220.3000000119,A,sk,I,k,118,,1616.199999988079,387604.10000002384,8083,WL,B,1.0
3,1.7829999923706055,learn,58217.000007629395,Tue Feb 03 2026 17:59:40 GMT-0600 (Central Standard Time),389386.40000000596,A,ski,I,i,161,,1782.2999999821186,387604.10000002384,8083,WL,B,1.0
3,2.6000001430511475,learn,57399.99985694885,Tue Feb 03 2026 17:59:40 GMT-0600 (Central Standard Time),390203.3000000119,A,skin,I,n,811,,2599.199999988079,387604.10000002384,8083,WL,B,1.0
3,3.0490000247955322,learn,56950.99997520447,Tue Feb 03 2026 17:59:40 GMT-0600 (Central Standard Time),390653.0,A,skinenter,I,enter,434,,3048.899999976158,387604.10000002384,8083,WL,B,1.0
3,3.4160001277923584,learn,56583.99987220764,Tue Feb 03 2026 17:59:40 GMT-0600 (Central Standard Time),391019.5,A,c,I,c,353,,366.19999998807907,390653.3000000119,8083,WL,B,2.0
3,3.4830000400543213,learn,56516.99995994568,Tue Feb 03 2026 17:59:40 GMT-0600 (Central Standard Time),391086.40000000596,A,cl,I,l,58,,433.09999999403954,390653.3000000119,8083,WL,B,2.0
3,3.682000160217285,learn,56317.999839782715,Tue Feb 03 2026 17:59:40 GMT-0600 (Central Standard Time),391286.2000000179,A,clo,I,o,190,,632.9000000059605,390653.3000000119,8083,WL,B,2.0
3,3.9820001125335693,learn,56017.99988746643,Tue Feb 03 2026 17:59:40 GMT-0600 (Central Standard Time),391585.90000000596,A,cloc,I,c,294,,932.5999999940395,390653.3000000119,8083,WL,B,2.0
3,4.082000017166138,learn,55917.99998283386,Tue Feb 03 2026 17:59:40 GMT-0600 (Central Standard Time),391686.0,A,clock,I,k,91,,1032.699999988079,390653.3000000119,8083,WL,B,2.0
3,4.7820000648498535,learn,55217.99993515015,Tue Feb 03 2026 17:59:40 GMT-0600 (Central Standard Time),392386.10000002384,A,clockenter,I,enter,688,,1732.800000011921,390653.3000000119,8083,WL,B,2.0
3,5.465000152587891,learn,54534.99984741211,Tue Feb 03 2026 17:59:40 GMT-0600 (Central Standard Time),393068.90000000596,A,s,I,s,674,,682.4000000059605,392386.5,8083,WL,B,3.0
3,5.79800009727478,learn,54201.99990272522,Tue Feb 03 2026 17:59:40 GMT-0600 (Central Standard Time),393401.90000000596,A,st,I,t,314,,1015.4000000059605,392386.5,8083,WL,B,3.0
3,6.082000017166138,learn,53917.99998283386,Tue Feb 03 2026 17:59:40 GMT-0600 (Central Standard Time),393685.5,A,str,I,r,265,,1299.0,392386.5,8083,WL,B,3.0
3,6.348999977111816,learn,53651.00002288818,Tue Feb 03 2026 17:59:40 GMT-0600 (Central Standard Time),393952.3000000119,A,stre,I,e,248,,1565.800000011921,392386.5,8083,WL,B,3.0
3,6.465000152587891,learn,53534.99984741211,Tue Feb 03 2026 17:59:40 GMT-0600 (Central Standard Time),394068.7000000179,A,stree,I,e,108,,1682.2000000178814,392386.5,8083,WL,B,3.0
3,6.765000104904175,learn,53234.999895095825,Tue Feb 03 2026 17:59:40 GMT-0600 (Central Standard Time),394368.60000002384,A,street,I,t,281,,1982.1000000238419,392386.5,8083,WL,B,3.0
3,7.731000185012817,learn,52268.99981498718,Tue Feb 03 2026 17:59:40 GMT-0600 (Central Standard Time),395335.10000002384,A,stree,I,backspace,949,,2948.600000023842,392386.5,8083,WL,B,3.0
3,8.414000034332275,learn,51585.999965667725,Tue Feb 03 2026 17:59:40 GMT-0600 (Central Standard Time),396017.8000000119,A,street,I,t,678,,3631.300000011921,392386.5,8083,WL,B,3.0
3,8.664000034332275,learn,51335.999965667725,Tue Feb 03 2026 17:59:40 GMT-0600 (Central Standard Time),396268.10000002384,A,streetenter,I,enter,244,,3881.600000023842,392386.5,8083,WL,B,3.0
3,9.614000082015991,learn,50385.99991798401,Tue Feb 03 2026 17:59:40 GMT-0600 (Central Standard Time),397217.60000002384,A,g,I,g,938,,949.2000000178814,396268.40000000596,8083,WL,B,4.0
3,9.914000034332275,learn,50085.999965667725,Tue Feb 03 2026 17:59:40 GMT-0600 (Central Standard Time),397517.5,A,gr,I,r,284,,1249.0999999940395,396268.40000000596,8083,WL,B,4.0
3,10.180000066757202,learn,49819.9999332428,Tue Feb 03 2026 17:59:40 GMT-0600 (Central Standard Time),397784.0,A,gra,I,a,256,,1515.5999999940395,396268.40000000596,8083,WL,B,4.0
3,10.564000129699707,learn,49435.99987030029,Tue Feb 03 2026 17:59:40 GMT-0600 (Central Standard Time),398167.5,A,gras,I,s,365,,1899.0999999940395,396268.40000000596,8083,WL,B,4.0
3,10.680000066757202,learn,49319.9999332428,Tue Feb 03 2026 17:59:40 GMT-0600 (Central Standard Time),398283.90000000596,A,grass,I,s,110,,2015.5,396268.40000000596,8083,WL,B,4.0
3,12.380000114440918,learn,47619.99988555908,Tue Feb 03 2026 17:59:40 GMT-0600 (Central Standard Time),399983.40000000596,A,grassenter,I,enter,1682,,3715.0,396268.40000000596,8083,WL,B,4.0
3,12.779000043869019,learn,47220.99995613098,Tue Feb 03 2026 17:59:40 GMT-0600 (Central Standard Time),400383.10000002384,A,d,I,d,390,,399.40000000596046,399983.7000000179,8083,WL,B,5.0
3,12.963000059127808,learn,47036.99994087219,Tue Feb 03 2026 17:59:40 GMT-0600 (Central Standard Time),400566.7000000179,A,do,I,o,173,,583.0,399983.7000000179,8083,WL,B,5.0
3,13.11300015449524,learn,46886.99984550476,Tue Feb 03 2026 17:59:40 GMT-0600 (Central Standard Time),400716.40000000596,A,doo,I,o,135,,732.6999999880791,399983.7000000179,8083,WL,B,5.0
3,13.646000146865845,learn,46353.999853134155,Tue Feb 03 2026 17:59:40 GMT-0600 (Central Standard Time),401249.8000000119,A,door,I,r,521,,1266.0999999940395,399983.7000000179,8083,WL,B,5.0
3,16.51200008392334,learn,43487.99991607666,Tue Feb 03 2026 17:59:40 GMT-0600 (Central Standard Time),404115.40000000596,A,doorenter,I,enter,2860,,4131.699999988079,399983.7000000179,8083,WL,B,5.0
3,16.894999980926514,learn,43105.000019073486,Tue Feb 03 2026 17:59:40 GMT-0600 (Central Standard Time),404498.8000000119,A,a,I,a,371,,383.30000001192093,404115.5,8083,WL,B,6.0
3,16.979000091552734,learn,43020.999908447266,Tue Feb 03 2026 17:59:40 GMT-0600 (Central Standard Time),404582.3000000119,A,ar,I,r,66,,466.80000001192093,404115.5,8083,WL,B,6.0
3,17.062000036239624,learn,42937.999963760376,Tue Feb 03 2026 17:59:40 GMT-0600 (Central Standard Time),404665.60000002384,A,arm,I,m,62,,550.1000000238419,404115.5,8083,WL,B,6.0
3,18.028000116348267,learn,41971.99988365173,Tue Feb 03 2026 17:59:40 GMT-0600 (Central Standard Time),405632.0,A,armenter,I,enter,948,,1516.5,404115.5,8083,WL,B,6.0
3,19.42799997329712,learn,40572.00002670288,Tue Feb 03 2026 17:59:40 GMT-0600 (Central Standard Time),407031.3000000119,A,s,I,s,1382,,1399.0,405632.3000000119,8083,WL,B,7.0
3,19.66100001335144,learn,40338.99998664856,Tue Feb 03 2026 17:59:40 GMT-0600 (Central Standard Time),407264.40000000596,A,st,I,t,213,,1632.0999999940395,405632.3000000119,8083,WL,B,7.0
3,19.91100001335144,learn,40088.99998664856,Tue Feb 03 2026 17:59:40 GMT-0600 (Central Standard Time),407514.3000000119,A,sta,I,a,245,,1882.0,405632.3000000119,8083,WL,B,7.0
3,19.97699999809265,learn,40023.00000190735,Tue Feb 03 2026 17:59:40 GMT-0600 (Central Standard Time),407581.2000000179,A,star,I,r,59,,1948.9000000059605,405632.3000000119,8083,WL,B,7.0
3,21.261000156402588,learn,38738.99984359741,Tue Feb 03 2026 17:59:40 GMT-0600 (Central Standard Time),408864.3000000119,A,starenter,I,enter,1264,,3232.0,405632.3000000119,8083,WL,B,7.0
3,23.12600016593933,learn,36873.99983406067,Tue Feb 03 2026 17:59:40 GMT-0600 (Central Standard Time),410730.2000000179,A,w,I,w,1845,,1865.5999999940395,408864.60000002384,8083,WL,B,8.0
3,23.243000030517578,learn,36756.99996948242,Tue Feb 03 2026 17:59:40 GMT-0600 (Central Standard Time),410846.8000000119,A,wi,I,i,107,,1982.199999988079,408864.60000002384,8083,WL,B,8.0
3,23.509999990463257,learn,36490.00000953674,Tue Feb 03 2026 17:59:40 GMT-0600 (Central Standard Time),411113.60000002384,A,wif,I,f,245,,2249.0,408864.60000002384,8083,WL,B,8.0
3,24.042999982833862,learn,35957.00001716614,Tue Feb 03 2026 17:59:40 GMT-0600 (Central Standard Time),411646.5,A,wife,I,e,516,,2781.899999976158,408864.60000002384,8083,WL,B,8.0
3,25.20900011062622,learn,34790.99988937378,Tue Feb 03 2026 17:59:40 GMT-0600 (Central Standard Time),412812.60000002384,A,wifeenter,I,enter,1151,,3948.0,408864.60000002384,8083,WL,B,8.0
3,26.642000198364258,learn,33357.99980163574,Tue Feb 03 2026 17:59:40 GMT-0600 (Central Standard Time),414245.5,A,w,I,w,1417,,1432.5999999940395,412812.90000000596,8083,WL,B,9.0
3,26.742000102996826,learn,33257.999897003174,Tue Feb 03 2026 17:59:40 GMT-0600 (Central Standard Time),414345.8000000119,A,wi,I,i,88,,1532.9000000059605,412812.90000000596,8083,WL,B,9.0
3,26.925000190734863,learn,33074.99980926514,Tue Feb 03 2026 17:59:40 GMT-0600 (Central Standard Time),414529.0,A,win,I,n,172,,1716.0999999940395,412812.90000000596,8083,WL,B,9.0
3,27.125,learn,32875.0,Tue Feb 03 2026 17:59:40 GMT-0600 (Central Standard Time),414728.8000000119,A,wind,I,d,179,,1915.9000000059605,412812.90000000596,8083,WL,B,9.0
3,27.192000150680542,learn,32807.99984931946,Tue Feb 03 2026 17:59:40 GMT-0600 (Central Standard Time),414795.5,A,windo,I,o,53,,1982.5999999940395,412812.90000000596,8083,WL,B,9.0
3,27.35800004005432,learn,32641.99995994568,Tue Feb 03 2026 17:59:40 GMT-0600 (Central Standard Time),414962.10000002384,A,window,I,w,146,,2149.2000000178814,412812.90000000596,8083,WL,B,9.0
3,27.725000143051147,learn,32274.999856948853,Tue Feb 03 2026 17:59:40 GMT-0600 (Central Standard Time),415328.7000000179,A,windowenter,I,enter,348,,2515.800000011921,412812.90000000596,8083,WL,B,9.0
3,28.491000175476074,learn,31508.999824523926,Tue Feb 03 2026 17:59:40 GMT-0600 (Central Standard Time),416094.90000000596,A,c,I,c,757,,766.0,415328.90000000596,8083,WL,B,10.0
3,28.575999975204468,learn,31424.000024795532,Tue Feb 03 2026 17:59:40 GMT-0600 (Central Standard Time),416179.40000000596,A,ci,I,i,63,,850.5,415328.90000000596,8083,WL,B,10.0
3,28.741000175476074,learn,31258.999824523926,Tue Feb 03 2026 17:59:40 GMT-0600 (Central Standard Time),416345.0,A,cit,I,t,153,,1016.0999999940395,415328.90000000596,8083,WL,B,10.0
3,28.808000087738037,learn,31191.999912261963,Tue Feb 03 2026 17:59:40 GMT-0600 (Central Standard Time),416411.3000000119,A,city,I,y,60,,1082.4000000059605,415328.90000000596,8083,WL,B,10.0
3,30.10800004005432,learn,29891.99995994568,Tue Feb 03 2026 17:59:40 GMT-0600 (Central Standard Time),417711.40000000596,A,cityenter,I,enter,1290,,2382.5,415328.90000000596,8083,WL,B,10.0
3,31.407000064849854,learn,28592.999935150146,Tue Feb 03 2026 17:59:40 GMT-0600 (Central Standard Time),419010.60000002384,A,p,I,p,1294,,1298.9000000059605,417711.7000000179,8083,WL,B,11.0
3,31.623000144958496,learn,28376.999855041504,Tue Feb 03 2026 17:59:40 GMT-0600 (Central Standard Time),419227.0,A,pu,I,u,211,,1515.2999999821186,417711.7000000179,8083,WL,B,11.0
3,32.92300009727478,learn,27076.99990272522,Tue Feb 03 2026 17:59:40 GMT-0600 (Central Standard Time),420527.10000002384,A,pup,I,p,1289,,2815.4000000059605,417711.7000000179,8083,WL,B,11.0
3,33.42300009727478,learn,26576.99990272522,Tue Feb 03 2026 17:59:40 GMT-0600 (Central Standard Time),421026.7000000179,A,pupi,I,i,495,,3315.0,417711.7000000179,8083,WL,B,11.0
3,33.873000144958496,learn,26126.999855041504,Tue Feb 03 2026 17:59:40 GMT-0600 (Central Standard Time),421476.90000000596,A,pupil,I,l,443,,3765.199999988079,417711.7000000179,8083,WL,B,11.0
3,34.9060001373291,learn,25093.9998626709,Tue Feb 03 2026 17:59:40 GMT-0600 (Central Standard Time),422509.90000000596,A,pupilenter,I,enter,1025,,4798.199999988079,417711.7000000179,8083,WL,B,11.0
3,36.15499997138977,learn,23845.00002861023,Tue Feb 03 2026 17:59:40 GMT-0600 (Central Standard Time),423759.2000000179,A,c,I,c,1232,,1248.800000011921,422510.40000000596,8083,WL,B,12.0
3,36.48900008201599,learn,23510.99991798401,Tue Feb 03 2026 17:59:40 GMT-0600 (Central Standard Time),424092.7000000179,A,ca,I,a,326,,1582.300000011921,422510.40000000596,8083,WL,B,12.0
3,36.8050000667572,learn,23194.999933242798,Tue Feb 03 2026 17:59:40 GMT-0600 (Central Standard Time),424409.10000002384,A,cab,I,b,304,,1898.7000000178814,422510.40000000596,8083,WL,B,12.0
3,36.955000162124634,learn,23044.999837875366,Tue Feb 03 2026 17:59:40 GMT-0600 (Central Standard Time),424559.2000000179,A,cabi,I,i,132,,2048.800000011921,422510.40000000596,8083,WL,B,12.0
3,37.15499997138977,learn,22845.00002861023,Tue Feb 03 2026 17:59:40 GMT-0600 (Central Standard Time),424758.90000000596,A,cabin,I,n,181,,2248.5,422510.40000000596,8083,WL,B,12.0
3,37.48900008201599,learn,22510.99991798401,Tue Feb 03 2026 17:59:40 GMT-0600 (Central Standard Time),425092.40000000596,A,cabinenter,I,enter,327,,2582.0,422510.40000000596,8083,WL,B,12.0
3,38.105000019073486,learn,21894.999980926514,Tue Feb 03 2026 17:59:40 GMT-0600 (Central Standard Time),425708.90000000596,A,l,I,l,609,,616.1999999880791,425092.7000000179,8083,WL,B,13.0
3,38.32100009918213,learn,21678.99990081787,Tue Feb 03 2026 17:59:40 GMT-0600 (Central Standard Time),425925.10000002384,A,la,I,a,201,,832.4000000059605,425092.7000000179,8083,WL,B,13.0
3,38.48800015449524,learn,21511.99984550476,Tue Feb 03 2026 17:59:40 GMT-0600 (Central Standard Time),426092.10000002384,A,lak,I,k,161,,999.4000000059605,425092.7000000179,8083,WL,B,13.0
3,39.13800001144409,learn,20861.99998855591,Tue Feb 03 2026 17:59:40 GMT-0600 (Central Standard Time),426742.2000000179,A,lake,I,e,642,,1649.5,425092.7000000179,8083,WL,B,13.0
3,39.38800001144409,learn,20611.99998855591,Tue Feb 03 2026 17:59:40 GMT-0600 (Central Standard Time),426992.0,A,lakeenter,I,enter,232,,1899.2999999821186,425092.7000000179,8083,WL,B,13.0
3,39.88800001144409,learn,20111.99998855591,Tue Feb 03 2026 17:59:40 GMT-0600 (Central Standard Time),427491.5,A,p,I,p,485,,499.19999998807907,426992.3000000119,8083,WL,B,14.0
3,40.08800005912781,learn,19911.999940872192,Tue Feb 03 2026 17:59:40 GMT-0600 (Central Standard Time),427691.5,A,pi,I,i,194,,699.1999999880791,426992.3000000119,8083,WL,B,14.0
3,40.28800010681152,learn,19711.999893188477,Tue Feb 03 2026 17:59:40 GMT-0600 (Central Standard Time),427891.40000000596,A,pip,I,p,186,,899.0999999940395,426992.3000000119,8083,WL,B,14.0
3,40.88700008392334,learn,19112.99991607666,Tue Feb 03 2026 17:59:40 GMT-0600 (Central Standard Time),428491.0,A,pipe,I,e,594,,1498.699999988079,426992.3000000119,8083,WL,B,14.0
3,41.03700017929077,learn,18962.99982070923,Tue Feb 03 2026 17:59:40 GMT-0600 (Central Standard Time),428641.2000000179,A,pipeenter,I,enter,139,,1648.9000000059605,426992.3000000119,8083,WL,B,14.0
3,41.40400004386902,learn,18595.99995613098,Tue Feb 03 2026 17:59:40 GMT-0600 (Central Standard Time),429007.8000000119,A,f,I,f,357,,366.30000001192093,428641.5,8083,WL,B,15.0
3,41.47100019454956,learn,18528.99980545044,Tue Feb 03 2026 17:59:40 GMT-0600 (Central Standard Time),429074.5,A,fi,I,i,53,,433.0,428641.5,8083,WL,B,15.0
3,41.604000091552734,learn,18395.999908447266,Tue Feb 03 2026 17:59:40 GMT-0600 (Central Standard Time),429207.7000000179,A,fir,I,r,123,,566.2000000178814,428641.5,8083,WL,B,15.0
3,42.05400013923645,learn,17945.99986076355,Tue Feb 03 2026 17:59:40 GMT-0600 (Central Standard Time),429657.60000002384,A,fire,I,e,438,,1016.1000000238419,428641.5,8083,WL,B,15.0
3,42.187000036239624,learn,17812.999963760376,Tue Feb 03 2026 17:59:40 GMT-0600 (Central Standard Time),429790.8000000119,A,fireenter,I,enter,116,,1149.300000011921,428641.5,8083,WL,B,15.0
4,3.1660001277923584,learn,56833.99987220764,Tue Feb 03 2026 17:59:40 GMT-0600 (Central Standard Time),504734.2000000179,A,s,I,s,3157,,3165.5999999940395,501568.60000002384,8083,WL,B,1.0
4,3.315999984741211,learn,56684.00001525879,Tue Feb 03 2026 17:59:40 GMT-0600 (Central Standard Time),504884.10000002384,A,sk,I,k,135,,3315.5,501568.60000002384,8083,WL,B,1.0
4,3.4830000400543213,learn,56516.99995994568,Tue Feb 03 2026 17:59:40 GMT-0600 (Central Standard Time),505050.7000000179,A,ski,I,i,153,,3482.0999999940395,501568.60000002384,8083,WL,B,1.0
4,3.683000087738037,learn,56316.99991226196,Tue Feb 03 2026 17:59:40 GMT-0600 (Central Standard Time),505250.60000002384,A,skin,I,n,180,,3682.0,501568.60000002384,8083,WL,B,1.0
4,4.082000017166138,learn,55917.99998283386,Tue Feb 03 2026 17:59:40 GMT-0600 (Central Standard Time),505650.3000000119,A,skinenter,I,enter,379,,4081.699999988079,501568.60000002384,8083,WL,B,1.0
4,4.416000127792358,learn,55583.99987220764,Tue Feb 03 2026 17:59:40 GMT-0600 (Central Standard Time),505983.60000002384,A,c,I,c,315,,332.90000000596046,505650.7000000179,8083,WL,B,2.0
4,4.483000040054321,learn,55516.99995994568,Tue Feb 03 2026 17:59:40 GMT-0600 (Central Standard Time),506050.5,A,cl,I,l,54,,399.7999999821186,505650.7000000179,8083,WL,B,2.0
4,4.682000160217285,learn,55317.999839782715,Tue Feb 03 2026 17:59:40 GMT-0600 (Central Standard Time),506250.10000002384,A,clo,I,o,187,,599.4000000059605,505650.7000000179,8083,WL,B,2.0
4,4.932000160217285,learn,55067.999839782715,Tue Feb 03 2026 17:59:40 GMT-0600 (Central Standard Time),506499.7000000179,A,cloc,I,c,244,,849.0,505650.7000000179,8083,WL,B,2.0
4,5.050000190734863,learn,54949.99980926514,Tue Feb 03 2026 17:59:40 GMT-0600 (Central Standard Time),506618.0,A,clock,I,k,97,,967.2999999821186,505650.7000000179,8083,WL,B,2.0
4,5.565000057220459,learn,54434.99994277954,Tue Feb 03 2026 17:59:40 GMT-0600 (Central Standard Time),507133.3000000119,A,clockenter,I,enter,507,,1482.5999999940395,505650.7000000179,8083,WL,B,2.0
4,6.515000104904175,learn,53484.999895095825,Tue Feb 03 2026 17:59:40 GMT-0600 (Central Standard Time),508082.7000000179,A,s,I,s,936,,949.0999999940395,507133.60000002384,8083,WL,B,3.0
4,6.731000185012817,learn,53268.99981498718,Tue Feb 03 2026 17:59:40 GMT-0600 (Central Standard Time),508299.40000000596,A,st,I,t,211,,1165.7999999821186,507133.60000002384,8083,WL,B,3.0
4,7.065000057220459,learn,52934.99994277954,Tue Feb 03 2026 17:59:40 GMT-0600 (Central Standard Time),508632.7000000179,A,str,I,r,322,,1499.0999999940395,507133.60000002384,8083,WL,B,3.0
4,7.315000057220459,learn,52684.99994277954,Tue Feb 03 2026 17:59:40 GMT-0600 (Central Standard Time),508883.0,A,stre,I,e,237,,1749.3999999761581,507133.60000002384,8083,WL,B,3.0
4,7.430999994277954,learn,52569.000005722046,Tue Feb 03 2026 17:59:40 GMT-0600 (Central Standard Time),508999.40000000596,A,stree,I,e,107,,1865.7999999821186,507133.60000002384,8083,WL,B,3.0
4,7.71399998664856,learn,52286.00001335144,Tue Feb 03 2026 17:59:40 GMT-0600 (Central Standard Time),509282.3000000119,A,street,I,t,277,,2148.699999988079,507133.60000002384,8083,WL,B,3.0
4,8.96399998664856,learn,51036.00001335144,Tue Feb 03 2026 17:59:40 GMT-0600 (Central Standard Time),510532.10000002384,A,streetenter,I,enter,1243,,3398.5,507133.60000002384,8083,WL,B,3.0
4,11.297000169754028,learn,48702.99983024597,Tue Feb 03 2026 17:59:40 GMT-0600 (Central Standard Time),512865.2000000179,A,g,I,g,2314,,2332.800000011921,510532.40000000596,8083,WL,B,4.0
4,11.913000106811523,learn,48086.99989318848,Tue Feb 03 2026 17:59:40 GMT-0600 (Central Standard Time),513481.2000000179,A,gr,I,r,604,,2948.800000011921,510532.40000000596,8083,WL,B,4.0
4,11.997000217437744,learn,48002.999782562256,Tue Feb 03 2026 17:59:40 GMT-0600 (Central Standard Time),513564.7000000179,A,gra,I,a,76,,3032.300000011921,510532.40000000596,8083,WL,B,4.0
4,12.663000106811523,learn,47336.99989318848,Tue Feb 03 2026 17:59:40 GMT-0600 (Central Standard Time),514230.90000000596,A,gras,I,s,648,,3698.5,510532.40000000596,8083,WL,B,4.0
4,12.79800009727478,learn,47201.99990272522,Tue Feb 03 2026 17:59:40 GMT-0600 (Central Standard Time),514365.7000000179,A,grass,I,s,127,,3833.300000011921,510532.40000000596,8083,WL,B,4.0
4,14.279000043869019,learn,45720.99995613098,Tue Feb 03 2026 17:59:40 GMT-0600 (Central Standard Time),515847.40000000596,A,grassenter,I,enter,1472,,5315.0,510532.40000000596,8083,WL,B,4.0
4,14.713000059127808,learn,45286.99994087219,Tue Feb 03 2026 17:59:40 GMT-0600 (Central Standard Time),516280.7000000179,A,d,I,d,422,,432.90000000596046,515847.8000000119,8083,WL,B,5.0
4,14.897000074386597,learn,45102.9999256134,Tue Feb 03 2026 17:59:40 GMT-0600 (Central Standard Time),516464.8000000119,A,do,I,o,173,,617.0,515847.8000000119,8083,WL,B,5.0
4,15.062000036239624,learn,44937.999963760376,Tue Feb 03 2026 17:59:40 GMT-0600 (Central Standard Time),516630.10000002384,A,doo,I,o,149,,782.3000000119209,515847.8000000119,8083,WL,B,5.0
4,15.279000043869019,learn,44720.99995613098,Tue Feb 03 2026 17:59:40 GMT-0600 (Central Standard Time),516846.90000000596,A,door,I,r,208,,999.0999999940395,515847.8000000119,8083,WL,B,5.0
4,15.629000186920166,learn,44370.999813079834,Tue Feb 03 2026 17:59:40 GMT-0600 (Central Standard Time),517196.90000000596,A,doora,I,a,342,,1349.0999999940395,515847.8000000119,8083,WL,B,5.0
4,16.328999996185303,learn,43671.0000038147,Tue Feb 03 2026 17:59:40 GMT-0600 (Central Standard Time),517897.10000002384,A,door,I,backspace,681,,2049.300000011921,515847.8000000119,8083,WL,B,5.0
4,16.861999988555908,learn,43138.00001144409,Tue Feb 03 2026 17:59:40 GMT-0600 (Central Standard Time),518429.8000000119,A,doorenter,I,enter,524,,2582.0,515847.8000000119,8083,WL,B,5.0
4,17.195000171661377,learn,42804.99982833862,Tue Feb 03 2026 17:59:40 GMT-0600 (Central Standard Time),518763.10000002384,A,a,I,a,320,,333.0,518430.10000002384,8083,WL,B,6.0
4,17.312000036239624,learn,42687.999963760376,Tue Feb 03 2026 17:59:40 GMT-0600 (Central Standard Time),518879.5,A,ar,I,r,98,,449.39999997615814,518430.10000002384,8083,WL,B,6.0
4,17.395000219345093,learn,42604.99978065491,Tue Feb 03 2026 17:59:40 GMT-0600 (Central Standard Time),518962.7000000179,A,arm,I,m,78,,532.5999999940395,518430.10000002384,8083,WL,B,6.0
4,19.24500012397766,learn,40754.99987602234,Tue Feb 03 2026 17:59:40 GMT-0600 (Central Standard Time),520812.5,A,armenter,I,enter,1835,,2382.399999976158,518430.10000002384,8083,WL,B,6.0
4,19.861000061035156,learn,40138.999938964844,Tue Feb 03 2026 17:59:40 GMT-0600 (Central Standard Time),521428.8000000119,A,s,I,s,609,,616.0,520812.8000000119,8083,WL,B,7.0
4,20.044000148773193,learn,39955.99985122681,Tue Feb 03 2026 17:59:40 GMT-0600 (Central Standard Time),521612.0,A,st,I,t,176,,799.1999999880791,520812.8000000119,8083,WL,B,7.0
4,20.311000108718872,learn,39688.99989128113,Tue Feb 03 2026 17:59:40 GMT-0600 (Central Standard Time),521878.90000000596,A,sta,I,a,258,,1066.0999999940395,520812.8000000119,8083,WL,B,7.0
4,20.794000148773193,learn,39205.99985122681,Tue Feb 03 2026 17:59:40 GMT-0600 (Central Standard Time),522361.90000000596,A,star,I,r,479,,1549.0999999940395,520812.8000000119,8083,WL,B,7.0
4,22.14300012588501,learn,37856.99987411499,Tue Feb 03 2026 17:59:40 GMT-0600 (Central Standard Time),523711.10000002384,A,starenter,I,enter,1339,,2898.300000011921,520812.8000000119,8083,WL,B,7.0
4,22.54300022125244,learn,37456.99977874756,Tue Feb 03 2026 17:59:40 GMT-0600 (Central Standard Time),524111.2000000179,A,w,I,w,383,,399.80000001192093,523711.40000000596,8083,WL,B,8.0
4,22.627000093460083,learn,37372.99990653992,Tue Feb 03 2026 17:59:40 GMT-0600 (Central Standard Time),524194.90000000596,A,wi,I,i,63,,483.5,523711.40000000596,8083,WL,B,8.0
4,22.81000018119812,learn,37189.99981880188,Tue Feb 03 2026 17:59:40 GMT-0600 (Central Standard Time),524377.7000000179,A,wif,I,f,171,,666.3000000119209,523711.40000000596,8083,WL,B,8.0
4,22.926000118255615,learn,37073.999881744385,Tue Feb 03 2026 17:59:40 GMT-0600 (Central Standard Time),524494.400000006,A,wife,I,e,100,,783.0,523711.40000000596,8083,WL,B,8.0
4,25.009000062942505,learn,34990.999937057495,Tue Feb 03 2026 17:59:40 GMT-0600 (Central Standard Time),526577.2000000179,A,wifeenter,I,enter,2062,,2865.800000011921,523711.40000000596,8083,WL,B,8.0
4,27.192000150680542,learn,32807.99984931946,Tue Feb 03 2026 17:59:40 GMT-0600 (Central Standard Time),528759.900000006,A,w,I,w,2172,,2182.4000000059605,526577.5,8083,WL,B,9.0
4,27.30900001525879,learn,32690.99998474121,Tue Feb 03 2026 17:59:40 GMT-0600 (Central Standard Time),528876.7000000179,A,wi,I,i,102,,2299.2000000178814,526577.5,8083,WL,B,9.0
4,27.509000062942505,learn,32490.999937057495,Tue Feb 03 2026 17:59:40 GMT-0600 (Central Standard Time),529076.5,A,win,I,n,185,,2499.0,526577.5,8083,WL,B,9.0
4,27.70800018310547,learn,32291.99981689453,Tue Feb 03 2026 17:59:40 GMT-0600 (Central Standard Time),529276.2000000179,A,wind,I,d,185,,2698.7000000178814,526577.5,8083,WL,B,9.0
4,27.79200005531311,learn,32207.99994468689,Tue Feb 03 2026 17:59:40 GMT-0600 (Central Standard Time),529360.1000000238,A,windo,I,o,65,,2782.600000023842,526577.5,8083,WL,B,9.0
4,28.475000143051147,learn,31524.999856948853,Tue Feb 03 2026 17:59:40 GMT-0600 (Central Standard Time),530042.900000006,A,window,I,w,670,,3465.4000000059605,526577.5,8083,WL,B,9.0
4,30.008000135421753,learn,29991.999864578247,Tue Feb 03 2026 17:59:40 GMT-0600 (Central Standard Time),531575.900000006,A,windowenter,I,enter,1515,,4998.4000000059605,526577.5,8083,WL,B,9.0
4,31.508000135421753,learn,28491.999864578247,Tue Feb 03 2026 17:59:40 GMT-0600 (Central Standard Time),533076.2000000179,A,c,I,c,1493,,1499.9000000059605,531576.3000000119,8083,WL,B,10.0
4,31.557000160217285,learn,28442.999839782715,Tue Feb 03 2026 17:59:40 GMT-0600 (Central Standard Time),533125.1000000238,A,ci,I,i,33,,1548.800000011921,531576.3000000119,8083,WL,B,10.0
4,31.77400016784668,learn,28225.99983215332,Tue Feb 03 2026 17:59:40 GMT-0600 (Central Standard Time),533341.7000000179,A,cit,I,t,209,,1765.4000000059605,531576.3000000119,8083,WL,B,10.0
4,31.841000080108643,learn,28158.999919891357,Tue Feb 03 2026 17:59:40 GMT-0600 (Central Standard Time),533408.5,A,city,I,y,47,,1832.199999988079,531576.3000000119,8083,WL,B,10.0
4,32.42400002479553,learn,27575.999975204468,Tue Feb 03 2026 17:59:40 GMT-0600 (Central Standard Time),533991.8000000119,A,cityenter,I,enter,566,,2415.5,531576.3000000119,8083,WL,B,10.0
4,32.74000000953674,learn,27259.999990463257,Tue Feb 03 2026 17:59:40 GMT-0600 (Central Standard Time),534308.3000000119,A,p,I,p,303,,316.09999999403954,533992.2000000179,8083,WL,B,11.0
4,33.021000146865845,learn,26978.999853134155,Tue Feb 03 2026 17:59:40 GMT-0600 (Central Standard Time),534588.900000006,A,pu,I,u,276,,596.6999999880791,533992.2000000179,8083,WL,B,11.0
4,33.42300009727478,learn,26576.99990272522,Tue Feb 03 2026 17:59:40 GMT-0600 (Central Standard Time),534991.3000000119,A,pup,I,p,392,,999.0999999940395,533992.2000000179,8083,WL,B,11.0
4,33.74000000953674,learn,26259.999990463257,Tue Feb 03 2026 17:59:40 GMT-0600 (Central Standard Time),535307.8000000119,A,pupi,I,i,302,,1315.5999999940395,533992.2000000179,8083,WL,B,11.0
4,34.24000000953674,learn,25759.999990463257,Tue Feb 03 2026 17:59:40 GMT-0600 (Central Standard Time),535807.7000000179,A,pupil,I,l,481,,1815.5,533992.2000000179,8083,WL,B,11.0
4,35.040000200271606,learn,24959.999799728394,Tue Feb 03 2026 17:59:40 GMT-0600 (Central Standard Time),536607.7000000179,A,pupilenter,I,enter,790,,2615.5,533992.2000000179,8083,WL,B,11.0
4,36.67200016975403,learn,23327.99983024597,Tue Feb 03 2026 17:59:40 GMT-0600 (Central Standard Time),538240.400000006,A,c,I,c,1614,,1632.4000000059605,536608.0,8083,WL,B,12.0
4,36.88900017738342,learn,23110.999822616577,Tue Feb 03 2026 17:59:40 GMT-0600 (Central Standard Time),538456.8000000119,A,ca,I,a,205,,1848.800000011921,536608.0,8083,WL,B,12.0
4,37.13900017738342,learn,22860.999822616577,Tue Feb 03 2026 17:59:40 GMT-0600 (Central Standard Time),538706.6000000238,A,cab,I,b,238,,2098.600000023842,536608.0,8083,WL,B,12.0
4,37.3050000667572,learn,22694.999933242798,Tue Feb 03 2026 17:59:40 GMT-0600 (Central Standard Time),538873.400000006,A,cabi,I,i,155,,2265.4000000059605,536608.0,8083,WL,B,12.0
4,37.5220000743866,learn,22477.999925613403,Tue Feb 03 2026 17:59:40 GMT-0600 (Central Standard Time),539090.2000000179,A,cabin,I,n,204,,2482.2000000178814,536608.0,8083,WL,B,12.0
4,37.955000162124634,learn,22044.999837875366,Tue Feb 03 2026 17:59:40 GMT-0600 (Central Standard Time),539523.0,A,cabinenter,I,enter,419,,2915.0,536608.0,8083,WL,B,12.0
4,38.38800001144409,learn,21611.99998855591,Tue Feb 03 2026 17:59:40 GMT-0600 (Central Standard Time),539956.5,A,l,I,l,427,,433.19999998807907,539523.3000000119,8083,WL,B,13.0
4,38.50500011444092,learn,21494.999885559082,Tue Feb 03 2026 17:59:40 GMT-0600 (Central Standard Time),540073.0,A,la,I,a,105,,549.6999999880791,539523.3000000119,8083,WL,B,13.0
4,38.688000202178955,learn,21311.999797821045,Tue Feb 03 2026 17:59:40 GMT-0600 (Central Standard Time),540256.3000000119,A,lak,I,k,165,,733.0,539523.3000000119,8083,WL,B,13.0
4,39.33800005912781,learn,20661.999940872192,Tue Feb 03 2026 17:59:40 GMT-0600 (Central Standard Time),540906.2000000179,A,lake,I,e,636,,1382.9000000059605,539523.3000000119,8083,WL,B,13.0
4,39.88800001144409,learn,20111.99998855591,Tue Feb 03 2026 17:59:40 GMT-0600 (Central Standard Time),541455.7000000179,A,lakeenter,I,enter,539,,1932.4000000059605,539523.3000000119,8083,WL,B,13.0
4,40.33800005912781,learn,19661.999940872192,Tue Feb 03 2026 17:59:40 GMT-0600 (Central Standard Time),541905.8000000119,A,f,I,f,429,,449.80000001192093,541456.0,8083,WL,B,14.0
4,40.40500020980835,learn,19594.99979019165,Tue Feb 03 2026 17:59:40 GMT-0600 (Central Standard Time),541972.6000000238,A,fi,I,i,60,,516.6000000238419,541456.0,8083,WL,B,14.0
4,40.687000036239624,learn,19312.999963760376,Tue Feb 03 2026 17:59:40 GMT-0600 (Central Standard Time),542255.6000000238,A,fir,I,r,273,,799.6000000238419,541456.0,8083,WL,B,14.0
4,40.771000146865845,learn,19228.999853134155,Tue Feb 03 2026 17:59:40 GMT-0600 (Central Standard Time),542338.7000000179,A,fire,I,e,78,,882.7000000178814,541456.0,8083,WL,B,14.0
4,44.52000021934509,learn,15479.999780654907,Tue Feb 03 2026 17:59:40 GMT-0600 (Central Standard Time),546088.0,A,fireenter,I,enter,3739,,4632.0,541456.0,8083,WL,B,14.0
4,47.83500003814697,learn,12164.999961853027,Tue Feb 03 2026 17:59:40 GMT-0600 (Central Standard Time),549403.3000000119,A,p,I,p,3302,,3315.0999999940395,546088.2000000179,8083,WL,B,15.0
4,48.2020001411438,learn,11797.999858856201,Tue Feb 03 2026 17:59:40 GMT-0600 (Central Standard Time),549770.0,A,pi,I,i,354,,3681.7999999821186,546088.2000000179,8083,WL,B,15.0
4,48.35199999809265,learn,11648.000001907349,Tue Feb 03 2026 17:59:40 GMT-0600 (Central Standard Time),549920.1000000238,A,pip,I,p,139,,3831.9000000059605,546088.2000000179,8083,WL,B,15.0
4,49.16800022125244,learn,10831.999778747559,Tue Feb 03 2026 17:59:40 GMT-0600 (Central Standard Time),550736.5,A,pipe,I,e,806,,4648.299999982119,546088.2000000179,8083,WL,B,15.0
4,50.28500008583069,learn,9714.999914169312,Tue Feb 03 2026 17:59:40 GMT-0600 (Central Standard Time),551852.8000000119,A,pipeenter,I,enter,1101,,5764.5999999940395,546088.2000000179,8083,WL,B,15.0
5,1.4830000400543213,learn,60000.0,Tue Feb 03 2026 17:59:40 GMT-0600 (Central Standard Time),622130.900000006,A,s,I,s,1470,,1482.7999999821186,620648.1000000238,8083,WL,B,1.0
5,1.7319998741149902,learn,60000.0,Tue Feb 03 2026 17:59:40 GMT-0600 (Central Standard Time),622380.6000000238,A,st,I,t,234,,1732.5,620648.1000000238,8083,WL,B,1.0
5,2.0319998264312744,learn,60000.0,Tue Feb 03 2026 17:59:40 GMT-0600 (Central Standard Time),622680.5,A,str,I,r,280,,2032.3999999761581,620648.1000000238,8083,WL,B,1.0
5,2.2819998264312744,learn,60000.0,Tue Feb 03 2026 17:59:40 GMT-0600 (Central Standard Time),622930.3000000119,A,stre,I,e,229,,2282.199999988079,620648.1000000238,8083,WL,B,1.0
5,2.3989999294281006,learn,60000.0,Tue Feb 03 2026 17:59:40 GMT-0600 (Central Standard Time),623047.2000000179,A,stree,I,e,99,,2399.0999999940395,620648.1000000238,8083,WL,B,1.0
5,3.2649998664855957,learn,60000.0,Tue Feb 03 2026 17:59:40 GMT-0600 (Central Standard Time),623913.7000000179,A,street,I,t,846,,3265.5999999940395,620648.1000000238,8083,WL,B,1.0
5,4.381999969482422,learn,60000.0,Tue Feb 03 2026 17:59:40 GMT-0600 (Central Standard Time),625030.1000000238,A,streetenter,I,enter,1100,,4382.0,620648.1000000238,8083,WL,B,1.0
5,5.430999994277954,learn,60000.0,Tue Feb 03 2026 17:59:40 GMT-0600 (Central Standard Time),626079.5,A,g,I,g,1038,,1049.0999999940395,625030.400000006,8083,WL,B,2.0
5,5.747999906539917,learn,60000.0,Tue Feb 03 2026 17:59:40 GMT-0600 (Central Standard Time),626395.900000006,A,gr,I,r,310,,1365.5,625030.400000006,8083,WL,B,2.0
5,5.830999851226807,learn,60000.0,Tue Feb 03 2026 17:59:40 GMT-0600 (Central Standard Time),626479.7000000179,A,gra,I,a,65,,1449.300000011921,625030.400000006,8083,WL,B,2.0
5,6.113999843597412,learn,60000.0,Tue Feb 03 2026 17:59:40 GMT-0600 (Central Standard Time),626762.5,A,gras,I,s,270,,1732.0999999940395,625030.400000006,8083,WL,B,2.0
5,6.247999906539917,learn,60000.0,Tue Feb 03 2026 17:59:40 GMT-0600 (Central Standard Time),626895.900000006,A,grass,I,s,115,,1865.5,625030.400000006,8083,WL,B,2.0
5,6.680999994277954,learn,60000.0,Tue Feb 03 2026 17:59:40 GMT-0600 (Central Standard Time),627329.0,A,grassenter,I,enter,422,,2298.5999999940395,625030.400000006,8083,WL,B,2.0
5,7.596999883651733,learn,60000.0,Tue Feb 03 2026 17:59:40 GMT-0600 (Central Standard Time),628245.5,A,d,I,d,900,,916.0999999940395,627329.400000006,8083,WL,B,3.0
5,7.7809998989105225,learn,60000.0,Tue Feb 03 2026 17:59:40 GMT-0600 (Central Standard Time),628428.8000000119,A,do,I,o,176,,1099.4000000059605,627329.400000006,8083,WL,B,3.0
5,7.930999994277954,learn,60000.0,Tue Feb 03 2026 17:59:40 GMT-0600 (Central Standard Time),628578.8000000119,A,doo,I,o,130,,1249.4000000059605,627329.400000006,8083,WL,B,3.0
5,8.563999891281128,learn,60000.0,Tue Feb 03 2026 17:59:40 GMT-0600 (Central Standard Time),629211.8000000119,A,door,I,r,626,,1882.4000000059605,627329.400000006,8083,WL,B,3.0
5,9.013000011444092,learn,60000.0,Tue Feb 03 2026 17:59:40 GMT-0600 (Central Standard Time),629661.6000000238,A,doorenter,I,enter,442,,2332.2000000178814,627329.400000006,8083,WL,B,3.0
5,9.379999876022339,learn,60000.0,Tue Feb 03 2026 17:59:40 GMT-0600 (Central Standard Time),630028.3000000119,A,a,I,a,360,,366.19999998807907,629662.1000000238,8083,WL,B,4.0
5,9.463000059127808,learn,60000.0,Tue Feb 03 2026 17:59:40 GMT-0600 (Central Standard Time),630111.7000000179,A,ar,I,r,73,,449.59999999403954,629662.1000000238,8083,WL,B,4.0
5,9.963000059127808,learn,60000.0,Tue Feb 03 2026 17:59:40 GMT-0600 (Central Standard Time),630611.3000000119,A,arm,I,m,486,,949.1999999880791,629662.1000000238,8083,WL,B,4.0
5,10.662999868392944,learn,60000.0,Tue Feb 03 2026 17:59:40 GMT-0600 (Central Standard Time),631311.3000000119,A,armenter,I,enter,690,,1649.199999988079,629662.1000000238,8083,WL,B,4.0
5,11.062999963760376,learn,60000.0,Tue Feb 03 2026 17:59:40 GMT-0600 (Central Standard Time),631711.1000000238,A,s,I,s,381,,399.40000000596046,631311.7000000179,8083,WL,B,5.0
5,11.296000003814697,learn,60000.0,Tue Feb 03 2026 17:59:40 GMT-0600 (Central Standard Time),631944.5,A,st,I,t,214,,632.7999999821186,631311.7000000179,8083,WL,B,5.0
5,11.529000043869019,learn,60000.0,Tue Feb 03 2026 17:59:40 GMT-0600 (Central Standard Time),632177.5,A,sta,I,a,221,,865.7999999821186,631311.7000000179,8083,WL,B,5.0
5,11.61299991607666,learn,60000.0,Tue Feb 03 2026 17:59:40 GMT-0600 (Central Standard Time),632260.900000006,A,star,I,r,76,,949.1999999880791,631311.7000000179,8083,WL,B,5.0
5,12.11299991607666,learn,60000.0,Tue Feb 03 2026 17:59:40 GMT-0600 (Central Standard Time),632760.8000000119,A,starenter,I,enter,489,,1449.0999999940395,631311.7000000179,8083,WL,B,5.0
5,12.728999853134155,learn,60000.0,Tue Feb 03 2026 17:59:40 GMT-0600 (Central Standard Time),633377.5,A,w,I,w,605,,616.3999999761581,632761.1000000238,8083,WL,B,6.0
5,12.812000036239624,learn,60000.0,Tue Feb 03 2026 17:59:40 GMT-0600 (Central Standard Time),633460.5,A,wi,I,i,76,,699.3999999761581,632761.1000000238,8083,WL,B,6.0
5,13.128999948501587,learn,60000.0,Tue Feb 03 2026 17:59:40 GMT-0600 (Central Standard Time),633777.2000000179,A,wif,I,f,297,,1016.0999999940395,632761.1000000238,8083,WL,B,6.0
5,13.211999893188477,learn,60000.0,Tue Feb 03 2026 17:59:40 GMT-0600 (Central Standard Time),633860.3000000119,A,wife,I,e,76,,1099.199999988079,632761.1000000238,8083,WL,B,6.0
5,16.210999965667725,learn,60000.0,Tue Feb 03 2026 17:59:40 GMT-0600 (Central Standard Time),636859.2000000179,A,wifeenter,I,enter,2993,,4098.0999999940395,632761.1000000238,8083,WL,B,6.0
5,16.694000005722046,learn,60000.0,Tue Feb 03 2026 17:59:40 GMT-0600 (Central Standard Time),637342.3000000119,A,w,I,w,474,,482.80000001192093,636859.5,8083,WL,B,7.0
5,16.794999837875366,learn,60000.0,Tue Feb 03 2026 17:59:40 GMT-0600 (Central Standard Time),637442.8000000119,A,wi,I,i,87,,583.3000000119209,636859.5,8083,WL,B,7.0
5,16.99399995803833,learn,60000.0,Tue Feb 03 2026 17:59:40 GMT-0600 (Central Standard Time),637642.3000000119,A,win,I,n,187,,782.8000000119209,636859.5,8083,WL,B,7.0
5,17.17799997329712,learn,60000.0,Tue Feb 03 2026 17:59:40 GMT-0600 (Central Standard Time),637825.900000006,A,wind,I,d,163,,966.4000000059605,636859.5,8083,WL,B,7.0
5,17.277999877929688,learn,60000.0,Tue Feb 03 2026 17:59:40 GMT-0600 (Central Standard Time),637925.8000000119,A,windo,I,o,84,,1066.300000011921,636859.5,8083,WL,B,7.0
5,18.026999950408936,learn,60000.0,Tue Feb 03 2026 17:59:40 GMT-0600 (Central Standard Time),638675.400000006,A,window,I,w,743,,1815.9000000059605,636859.5,8083,WL,B,7.0
5,19.5939998626709,learn,60000.0,Tue Feb 03 2026 17:59:40 GMT-0600 (Central Standard Time),640241.7000000179,A,windowenter,I,enter,1545,,3382.2000000178814,636859.5,8083,WL,B,7.0
5,20.026999950408936,learn,60000.0,Tue Feb 03 2026 17:59:40 GMT-0600 (Central Standard Time),640675.0,A,c,I,c,420,,432.89999997615814,640242.1000000238,8083,WL,B,8.0
5,20.109999895095825,learn,60000.0,Tue Feb 03 2026 17:59:40 GMT-0600 (Central Standard Time),640758.2000000179,A,ci,I,i,75,,516.0999999940395,640242.1000000238,8083,WL,B,8.0
5,20.82699990272522,learn,60000.0,Tue Feb 03 2026 17:59:40 GMT-0600 (Central Standard Time),641474.8000000119,A,cit,I,t,696,,1232.699999988079,640242.1000000238,8083,WL,B,8.0
5,20.97699999809265,learn,60000.0,Tue Feb 03 2026 17:59:40 GMT-0600 (Central Standard Time),641624.7000000179,A,city,I,y,139,,1382.5999999940395,640242.1000000238,8083,WL,B,8.0
5,21.425999879837036,learn,60000.0,Tue Feb 03 2026 17:59:40 GMT-0600 (Central Standard Time),642074.5,A,cityenter,I,enter,429,,1832.3999999761581,640242.1000000238,8083,WL,B,8.0
5,21.825999975204468,learn,60000.0,Tue Feb 03 2026 17:59:40 GMT-0600 (Central Standard Time),642474.400000006,A,p,I,p,379,,399.5,642074.900000006,8083,WL,B,9.0
5,22.04200005531311,learn,60000.0,Tue Feb 03 2026 17:59:40 GMT-0600 (Central Standard Time),642690.7000000179,A,pu,I,u,211,,615.8000000119209,642074.900000006,8083,WL,B,9.0
5,22.258999824523926,learn,60000.0,Tue Feb 03 2026 17:59:40 GMT-0600 (Central Standard Time),642907.6000000238,A,pup,I,p,211,,832.7000000178814,642074.900000006,8083,WL,B,9.0
5,22.80900001525879,learn,60000.0,Tue Feb 03 2026 17:59:40 GMT-0600 (Central Standard Time),643457.400000006,A,pupi,I,i,530,,1382.5,642074.900000006,8083,WL,B,9.0
5,23.14299988746643,learn,60000.0,Tue Feb 03 2026 17:59:40 GMT-0600 (Central Standard Time),643790.8000000119,A,pupil,I,l,324,,1715.9000000059605,642074.900000006,8083,WL,B,9.0
5,23.72499990463257,learn,60000.0,Tue Feb 03 2026 17:59:40 GMT-0600 (Central Standard Time),644373.6000000238,A,pupilenter,I,enter,566,,2298.7000000178814,642074.900000006,8083,WL,B,9.0
5,24.241999864578247,learn,60000.0,Tue Feb 03 2026 17:59:40 GMT-0600 (Central Standard Time),644890.5,A,c,I,c,496,,516.5999999940395,644373.900000006,8083,WL,B,10.0
5,24.342000007629395,learn,60000.0,Tue Feb 03 2026 17:59:40 GMT-0600 (Central Standard Time),644990.3000000119,A,ca,I,a,91,,616.4000000059605,644373.900000006,8083,WL,B,10.0
5,24.64199995994568,learn,60000.0,Tue Feb 03 2026 17:59:40 GMT-0600 (Central Standard Time),645290.2000000179,A,cab,I,b,287,,916.3000000119209,644373.900000006,8083,WL,B,10.0
5,24.79200005531311,learn,60000.0,Tue Feb 03 2026 17:59:40 GMT-0600 (Central Standard Time),645440.1000000238,A,cabi,I,i,131,,1066.2000000178814,644373.900000006,8083,WL,B,10.0
5,25.007999897003174,learn,60000.0,Tue Feb 03 2026 17:59:40 GMT-0600 (Central Standard Time),645656.6000000238,A,cabin,I,n,197,,1282.7000000178814,644373.900000006,8083,WL,B,10.0
5,26.641000032424927,learn,60000.0,Tue Feb 03 2026 17:59:40 GMT-0600 (Central Standard Time),647289.6000000238,A,cabinenter,I,enter,1613,,2915.7000000178814,644373.900000006,8083,WL,B,10.0
5,27.2739999294281,learn,60000.0,Tue Feb 03 2026 17:59:40 GMT-0600 (Central Standard Time),647922.400000006,A,l,I,l,628,,632.2999999821186,647290.1000000238,8083,WL,B,11.0
5,27.70799994468689,learn,60000.0,Tue Feb 03 2026 17:59:40 GMT-0600 (Central Standard Time),648355.900000006,A,la,I,a,419,,1065.7999999821186,647290.1000000238,8083,WL,B,11.0
5,27.973999977111816,learn,60000.0,Tue Feb 03 2026 17:59:40 GMT-0600 (Central Standard Time),648622.5,A,lak,I,k,250,,1332.3999999761581,647290.1000000238,8083,WL,B,11.0
5,28.58999991416931,learn,60000.0,Tue Feb 03 2026 17:59:40 GMT-0600 (Central Standard Time),649238.6000000238,A,lake,I,e,607,,1948.5,647290.1000000238,8083,WL,B,11.0
5,29.056999921798706,learn,60000.0,Tue Feb 03 2026 17:59:40 GMT-0600 (Central Standard Time),649705.400000006,A,lakeenter,I,enter,446,,2415.2999999821186,647290.1000000238,8083,WL,B,11.0
5,29.539999961853027,learn,60000.0,Tue Feb 03 2026 17:59:40 GMT-0600 (Central Standard Time),650188.7000000179,A,s,I,s,476,,482.90000000596046,649705.8000000119,8083,WL,B,12.0
5,29.639999866485596,learn,60000.0,Tue Feb 03 2026 17:59:40 GMT-0600 (Central Standard Time),650288.5,A,sk,I,k,88,,582.6999999880791,649705.8000000119,8083,WL,B,12.0
5,29.806999921798706,learn,60000.0,Tue Feb 03 2026 17:59:40 GMT-0600 (Central Standard Time),650455.6000000238,A,ski,I,i,149,,749.8000000119209,649705.8000000119,8083,WL,B,12.0
5,30.37399983406067,learn,60000.0,Tue Feb 03 2026 17:59:40 GMT-0600 (Central Standard Time),651021.7000000179,A,skin,I,n,557,,1315.9000000059605,649705.8000000119,8083,WL,B,12.0
5,31.139999866485596,learn,60000.0,Tue Feb 03 2026 17:59:40 GMT-0600 (Central Standard Time),651788.0,A,skinenter,I,enter,752,,2082.199999988079,649705.8000000119,8083,WL,B,12.0
5,31.95199990272522,learn,60000.0,Tue Feb 03 2026 17:59:40 GMT-0600 (Central Standard Time),652599.8000000119,A,f,I,f,808,,811.4000000059605,651788.400000006,8083,WL,B,13.0
5,32.073999881744385,learn,60000.0,Tue Feb 03 2026 17:59:40 GMT-0600 (Central Standard Time),652722.6000000238,A,fi,I,i,100,,934.2000000178814,651788.400000006,8083,WL,B,13.0
5,32.37299990653992,learn,60000.0,Tue Feb 03 2026 17:59:40 GMT-0600 (Central Standard Time),653021.0,A,fir,I,r,283,,1232.5999999940395,651788.400000006,8083,WL,B,13.0
5,32.44000005722046,learn,60000.0,Tue Feb 03 2026 17:59:40 GMT-0600 (Central Standard Time),653087.7000000179,A,fire,I,e,57,,1299.300000011921,651788.400000006,8083,WL,B,13.0
5,33.539000034332275,learn,60000.0,Tue Feb 03 2026 17:59:40 GMT-0600 (Central Standard Time),654187.400000006,A,fireenter,I,enter,1086,,2399.0,651788.400000006,8083,WL,B,13.0
5,34.55499982833862,learn,60000.0,Tue Feb 03 2026 17:59:40 GMT-0600 (Central Standard Time),655203.400000006,A,p,I,p,1010,,1015.7999999821186,654187.6000000238,8083,WL,B,14.0
5,34.82200002670288,learn,60000.0,Tue Feb 03 2026 17:59:40 GMT-0600 (Central Standard Time),655470.1000000238,A,pi,I,i,258,,1282.5,654187.6000000238,8083,WL,B,14.0
5,35.037999868392944,learn,60000.0,Tue Feb 03 2026 17:59:40 GMT-0600 (Central Standard Time),655686.7000000179,A,pip,I,p,209,,1499.0999999940395,654187.6000000238,8083,WL,B,14.0
5,35.38800001144409,learn,60000.0,Tue Feb 03 2026 17:59:40 GMT-0600 (Central Standard Time),656036.5,A,pipe,I,e,343,,1848.8999999761581,654187.6000000238,8083,WL,B,14.0
5,35.72199988365173,learn,60000.0,Tue Feb 03 2026 17:59:40 GMT-0600 (Central Standard Time),656369.900000006,A,pipeenter,I,enter,321,,2182.2999999821186,654187.6000000238,8083,WL,B,14.0
5,36.287999868392944,learn,60000.0,Tue Feb 03 2026 17:59:40 GMT-0600 (Central Standard Time),656936.5,A,c,I,c,556,,566.2999999821186,656370.2000000179,8083,WL,B,15.0
5,36.40499997138977,learn,60000.0,Tue Feb 03 2026 17:59:40 GMT-0600 (Central Standard Time),657053.0,A,cl,I,l,101,,682.7999999821186,656370.2000000179,8083,WL,B,15.0
5,36.58800005912781,learn,60000.0,Tue Feb 03 2026 17:59:40 GMT-0600 (Central Standard Time),657236.2000000179,A,clo,I,o,168,,866.0,656370.2000000179,8083,WL,B,15.0
5,36.82099986076355,learn,60000.0,Tue Feb 03 2026 17:59:40 GMT-0600 (Central Standard Time),657469.6000000238,A,cloc,I,c,225,,1099.4000000059605,656370.2000000179,8083,WL,B,15.0
5,36.90499997138977,learn,60000.0,Tue Feb 03 2026 17:59:40 GMT-0600 (Central Standard Time),657552.8000000119,A,clock,I,k,64,,1182.5999999940395,656370.2000000179,8083,WL,B,15.0
5,37.62100005149841,learn,60000.0,Tue Feb 03 2026 17:59:40 GMT-0600 (Central Standard Time),658269.5,A,clockenter,I,enter,709,,1899.2999999821186,656370.2000000179,8083,WL,B,15.0
6,1.5,distr,58500.0,Tue Feb 03 2026 17:59:40 GMT-0600 (Central Standard Time),734779.1000000238,B,b,I,b,1496,,1499.6000000238419,733279.5,8083,WL,B,1.0
6,1.7159998416900635,distr,58284.00015830994,Tue Feb 03 2026 17:59:40 GMT-0600 (Central Standard Time),734995.400000006,B,ba,I,a,210,,1715.9000000059605,733279.5,8083,WL,B,1.0
6,1.932999849319458,distr,58067.00015068054,Tue Feb 03 2026 17:59:40 GMT-0600 (Central Standard Time),735212.0,B,bab,I,b,202,,1932.5,733279.5,8083,WL,B,1.0
6,2.2319998741149902,distr,57768.00012588501,Tue Feb 03 2026 17:59:40 GMT-0600 (Central Standard Time),735511.8000000119,B,baby,I,y,289,,2232.300000011921,733279.5,8083,WL,B,1.0
6,3.2819998264312744,distr,56718.000173568726,Tue Feb 03 2026 17:59:40 GMT-0600 (Central Standard Time),736561.7000000179,B,babyenter,I,enter,1038,,3282.2000000178814,733279.5,8083,WL,B,1.0
6,3.7149999141693115,distr,56285.00008583069,Tue Feb 03 2026 17:59:40 GMT-0600 (Central Standard Time),736994.6000000238,B,o,I,o,427,,432.60000002384186,736562.0,8083,WL,B,2.0
6,3.9149999618530273,distr,56085.00003814697,Tue Feb 03 2026 17:59:40 GMT-0600 (Central Standard Time),737194.8000000119,B,oc,I,c,180,,632.8000000119209,736562.0,8083,WL,B,2.0
6,4.131999969482422,distr,55868.00003051758,Tue Feb 03 2026 17:59:40 GMT-0600 (Central Standard Time),737411.0,B,oce,I,e,211,,849.0,736562.0,8083,WL,B,2.0
6,4.2149999141693115,distr,55785.00008583069,Tue Feb 03 2026 17:59:40 GMT-0600 (Central Standard Time),737494.8000000119,B,ocea,I,a,75,,932.8000000119209,736562.0,8083,WL,B,2.0
6,4.797999858856201,distr,55202.0001411438,Tue Feb 03 2026 17:59:40 GMT-0600 (Central Standard Time),738077.8000000119,B,ocean,I,n,575,,1515.800000011921,736562.0,8083,WL,B,2.0
6,6.247999906539917,distr,53752.00009346008,Tue Feb 03 2026 17:59:40 GMT-0600 (Central Standard Time),739527.400000006,B,oceanenter,I,enter,1432,,2965.4000000059605,736562.0,8083,WL,B,2.0
6,9.163999795913696,distr,50836.000204086304,Tue Feb 03 2026 17:59:40 GMT-0600 (Central Standard Time),742443.5,B,b,I,b,2902,,2915.7999999821186,739527.7000000179,8083,WL,B,3.0
6,9.46399998664856,distr,50536.00001335144,Tue Feb 03 2026 17:59:40 GMT-0600 (Central Standard Time),742743.0,B,bu,I,u,281,,3215.2999999821186,739527.7000000179,8083,WL,B,3.0
6,9.52999997138977,distr,50470.00002861023,Tue Feb 03 2026 17:59:40 GMT-0600 (Central Standard Time),742809.8000000119,B,bui,I,i,47,,3282.0999999940395,739527.7000000179,8083,WL,B,3.0
6,9.746999979019165,distr,50253.000020980835,Tue Feb 03 2026 17:59:40 GMT-0600 (Central Standard Time),743026.2000000179,B,buil,I,l,204,,3498.5,739527.7000000179,8083,WL,B,3.0
6,9.996999979019165,distr,50003.000020980835,Tue Feb 03 2026 17:59:40 GMT-0600 (Central Standard Time),743276.2000000179,B,build,I,d,243,,3748.5,739527.7000000179,8083,WL,B,3.0
6,10.11299991607666,distr,49887.00008392334,Tue Feb 03 2026 17:59:40 GMT-0600 (Central Standard Time),743392.900000006,B,buildo,I,o,98,,3865.199999988079,739527.7000000179,8083,WL,B,3.0
6,10.52999997138977,distr,49470.00002861023,Tue Feb 03 2026 17:59:40 GMT-0600 (Central Standard Time),743809.400000006,B,build,I,backspace,405,,4281.699999988079,739527.7000000179,8083,WL,B,3.0
6,10.796000003814697,distr,49203.9999961853,Tue Feb 03 2026 17:59:40 GMT-0600 (Central Standard Time),744075.900000006,B,buildi,I,i,252,,4548.199999988079,739527.7000000179,8083,WL,B,3.0
6,10.996999979019165,distr,49003.000020980835,Tue Feb 03 2026 17:59:40 GMT-0600 (Central Standard Time),744276.900000006,B,buildin,I,n,195,,4749.199999988079,739527.7000000179,8083,WL,B,3.0
6,11.52999997138977,distr,48470.00002861023,Tue Feb 03 2026 17:59:40 GMT-0600 (Central Standard Time),744809.2000000179,B,building,I,g,512,,5281.5,739527.7000000179,8083,WL,B,3.0
6,11.679999828338623,distr,48320.00017166138,Tue Feb 03 2026 17:59:40 GMT-0600 (Central Standard Time),744959.0,B,buildingenter,I,enter,140,,5431.299999982119,739527.7000000179,8083,WL,B,3.0
6,12.44599986076355,distr,47554.00013923645,Tue Feb 03 2026 17:59:40 GMT-0600 (Central Standard Time),745725.3000000119,B,a,I,a,759,,765.9000000059605,744959.400000006,8083,WL,B,4.0
6,12.579999923706055,distr,47420.000076293945,Tue Feb 03 2026 17:59:40 GMT-0600 (Central Standard Time),745859.0,B,am,I,m,113,,899.5999999940395,744959.400000006,8083,WL,B,4.0
6,13.345999956130981,distr,46654.00004386902,Tue Feb 03 2026 17:59:40 GMT-0600 (Central Standard Time),746625.1000000238,B,a,I,backspace,745,,1665.7000000178814,744959.400000006,8083,WL,B,4.0
6,13.67199993133545,distr,46328.00006866455,Tue Feb 03 2026 17:59:40 GMT-0600 (Central Standard Time),746951.7000000179,B,ar,I,r,322,,1992.300000011921,744959.400000006,8083,WL,B,4.0
6,13.811999797821045,distr,46188.000202178955,Tue Feb 03 2026 17:59:40 GMT-0600 (Central Standard Time),747091.3000000119,B,arm,I,m,132,,2131.9000000059605,744959.400000006,8083,WL,B,4.0
6,14.013000011444092,distr,45986.99998855591,Tue Feb 03 2026 17:59:40 GMT-0600 (Central Standard Time),747292.6000000238,B,army,I,y,194,,2333.2000000178814,744959.400000006,8083,WL,B,4.0
6,14.26199984550476,distr,45738.00015449524,Tue Feb 03 2026 17:59:40 GMT-0600 (Central Standard Time),747541.6000000238,B,armyenter,I,enter,233,,2582.2000000178814,744959.400000006,8083,WL,B,4.0
6,14.744999885559082,distr,45255.00011444092,Tue Feb 03 2026 17:59:40 GMT-0600 (Central Standard Time),748024.7000000179,B,c,I,c,464,,482.90000000596046,747541.8000000119,8083,WL,B,5.0
6,14.977999925613403,distr,45022.0000743866,Tue Feb 03 2026 17:59:40 GMT-0600 (Central Standard Time),748257.8000000119,B,ce,I,e,213,,716.0,747541.8000000119,8083,WL,B,5.0
6,15.178999900817871,distr,44821.00009918213,Tue Feb 03 2026 17:59:40 GMT-0600 (Central Standard Time),748458.0,B,cel,I,l,187,,916.1999999880791,747541.8000000119,8083,WL,B,5.0
6,15.361999988555908,distr,44638.00001144409,Tue Feb 03 2026 17:59:40 GMT-0600 (Central Standard Time),748641.2000000179,B,cell,I,l,163,,1099.4000000059605,747541.8000000119,8083,WL,B,5.0
6,18.277999877929688,distr,41722.00012207031,Tue Feb 03 2026 17:59:40 GMT-0600 (Central Standard Time),751557.2000000179,B,cellenter,I,enter,2901,,4015.4000000059605,747541.8000000119,8083,WL,B,5.0
6,18.959999799728394,distr,41040.00020027161,Tue Feb 03 2026 17:59:40 GMT-0600 (Central Standard Time),752239.900000006,B,s,I,s,673,,682.4000000059605,751557.5,8083,WL,B,6.0
6,19.143999814987183,distr,40856.00018501282,Tue Feb 03 2026 17:59:40 GMT-0600 (Central Standard Time),752423.2000000179,B,st,I,t,165,,865.7000000178814,751557.5,8083,WL,B,6.0
6,19.293999910354614,distr,40706.000089645386,Tue Feb 03 2026 17:59:40 GMT-0600 (Central Standard Time),752573.3000000119,B,sto,I,o,142,,1015.8000000119209,751557.5,8083,WL,B,6.0
6,19.376999855041504,distr,40623.000144958496,Tue Feb 03 2026 17:59:40 GMT-0600 (Central Standard Time),752656.5,B,stor,I,r,64,,1099.0,751557.5,8083,WL,B,6.0
6,19.49399995803833,distr,40506.00004196167,Tue Feb 03 2026 17:59:40 GMT-0600 (Central Standard Time),752773.0,B,storm,I,m,101,,1215.5,751557.5,8083,WL,B,6.0
6,19.959999799728394,distr,40040.00020027161,Tue Feb 03 2026 17:59:40 GMT-0600 (Central Standard Time),753239.5,B,stormenter,I,enter,457,,1682.0,751557.5,8083,WL,B,6.0
6,23.926999807357788,distr,36073.00019264221,Tue Feb 03 2026 17:59:40 GMT-0600 (Central Standard Time),757206.2000000179,B,v,I,v,3959,,3966.300000011921,753239.900000006,8083,WL,B,7.0
6,24.04199981689453,distr,35958.00018310547,Tue Feb 03 2026 17:59:40 GMT-0600 (Central Standard Time),757321.7000000179,B,vi,I,i,103,,4081.800000011921,753239.900000006,8083,WL,B,7.0
6,24.241999864578247,distr,35758.00013542175,Tue Feb 03 2026 17:59:40 GMT-0600 (Central Standard Time),757521.6000000238,B,vil,I,l,180,,4281.700000017881,753239.900000006,8083,WL,B,7.0
6,24.358999967575073,distr,35641.00003242493,Tue Feb 03 2026 17:59:40 GMT-0600 (Central Standard Time),757638.2000000179,B,vill,I,l,108,,4398.300000011921,753239.900000006,8083,WL,B,7.0
6,24.47499990463257,distr,35525.00009536743,Tue Feb 03 2026 17:59:40 GMT-0600 (Central Standard Time),757754.7000000179,B,villa,I,a,111,,4514.800000011921,753239.900000006,8083,WL,B,7.0
6,24.64199995994568,distr,35358.00004005432,Tue Feb 03 2026 17:59:40 GMT-0600 (Central Standard Time),757921.5,B,villag,I,g,155,,4681.5999999940395,753239.900000006,8083,WL,B,7.0
6,24.792999982833862,distr,35207.00001716614,Tue Feb 03 2026 17:59:40 GMT-0600 (Central Standard Time),758072.7000000179,B,village,I,e,132,,4832.800000011921,753239.900000006,8083,WL,B,7.0
6,24.925999879837036,distr,35074.000120162964,Tue Feb 03 2026 17:59:40 GMT-0600 (Central Standard Time),758205.0,B,villageenter,I,enter,125,,4965.0999999940395,753239.900000006,8083,WL,B,7.0
6,28.54099988937378,distr,31459.00011062622,Tue Feb 03 2026 17:59:40 GMT-0600 (Central Standard Time),761820.3000000119,B,r,I,r,3600,,3615.0,758205.3000000119,8083,WL,B,8.0
6,28.640999794006348,distr,31359.000205993652,Tue Feb 03 2026 17:59:40 GMT-0600 (Central Standard Time),761920.3000000119,B,ro,I,o,89,,3715.0,758205.3000000119,8083,WL,B,8.0
6,28.87399983406067,distr,31126.00016593933,Tue Feb 03 2026 17:59:40 GMT-0600 (Central Standard Time),762153.7000000179,B,roc,I,c,221,,3948.4000000059605,758205.3000000119,8083,WL,B,8.0
6,28.94099998474121,distr,31059.00001525879,Tue Feb 03 2026 17:59:40 GMT-0600 (Central Standard Time),762220.400000006,B,rock,I,k,52,,4015.0999999940395,758205.3000000119,8083,WL,B,8.0
6,29.789999961853027,distr,30210.000038146973,Tue Feb 03 2026 17:59:40 GMT-0600 (Central Standard Time),763069.900000006,B,rockenter,I,enter,841,,4864.5999999940395,758205.3000000119,8083,WL,B,8.0
6,42.002999782562256,distr,17997.000217437744,Tue Feb 03 2026 17:59:40 GMT-0600 (Central Standard Time),775282.5,B,enter,I,enter,12208,,12212.299999982119,763070.2000000179,8083,WL,B,9.0
6,43.169999837875366,distr,16830.000162124634,Tue Feb 03 2026 17:59:40 GMT-0600 (Central Standard Time),776449.5,B,enter,I,enter,1147,,1166.7999999821186,775282.7000000179,8083,WL,B,10.0
6,43.668999910354614,distr,16331.000089645386,Tue Feb 03 2026 17:59:40 GMT-0600 (Central Standard Time),776949.0,B,enter,I,enter,492,,499.19999998807907,776449.8000000119,8083,WL,B,11.0
6,43.93599987030029,distr,16064.000129699707,Tue Feb 03 2026 17:59:40 GMT-0600 (Central Standard Time),777215.400000006,B,enter,I,enter,257,,266.09999999403954,776949.3000000119,8083,WL,B,12.0
6,44.26899981498718,distr,15731.000185012817,Tue Feb 03 2026 17:59:40 GMT-0600 (Central Standard Time),777549.0,B,enter,I,enter,318,,333.19999998807907,777215.8000000119,8083,WL,B,13.0
6,44.68599987030029,distr,15314.000129699707,Tue Feb 03 2026 17:59:40 GMT-0600 (Central Standard Time),777965.400000006,B,enter,I,enter,400,,415.90000000596046,777549.5,8083,WL,B,14.0
6,45.501999855041504,distr,14498.000144958496,Tue Feb 03 2026 17:59:40 GMT-0600 (Central Standard Time),778781.5,B,enter,I,enter,800,,815.6999999880791,777965.8000000119,8083,WL,B,15.0
7,9.013999938964844,immed,50986.000061035156,Tue Feb 03 2026 17:59:40 GMT-0600 (Central Standard Time),789795.0,A,s,I,s,9001,,9013.799999982119,780781.2000000179,8083,WL,B,1.0
7,9.247999906539917,immed,50752.00009346008,Tue Feb 03 2026 17:59:40 GMT-0600 (Central Standard Time),790028.0,A,st,I,t,226,,9246.799999982119,780781.2000000179,8083,WL,B,1.0
7,9.530999898910522,immed,50469.00010108948,Tue Feb 03 2026 17:59:40 GMT-0600 (Central Standard Time),790311.2000000179,A,str,I,r,274,,9530.0,780781.2000000179,8083,WL,B,1.0
7,10.114000082015991,immed,49885.99991798401,Tue Feb 03 2026 17:59:40 GMT-0600 (Central Standard Time),790894.7000000179,A,stre,I,e,575,,10113.5,780781.2000000179,8083,WL,B,1.0
7,10.246999979019165,immed,49753.000020980835,Tue Feb 03 2026 17:59:40 GMT-0600 (Central Standard Time),791027.900000006,A,stree,I,e,119,,10246.699999988079,780781.2000000179,8083,WL,B,1.0
7,10.94700002670288,immed,49052.99997329712,Tue Feb 03 2026 17:59:40 GMT-0600 (Central Standard Time),791727.6000000238,A,street,I,t,690,,10946.40000000596,780781.2000000179,8083,WL,B,1.0
7,12.629999876022339,immed,47370.00012397766,Tue Feb 03 2026 17:59:40 GMT-0600 (Central Standard Time),793410.7000000179,A,streetenter,I,enter,1670,,12629.5,780781.2000000179,8083,WL,B,1.0
7,15.128999948501587,immed,44871.00005149841,Tue Feb 03 2026 17:59:40 GMT-0600 (Central Standard Time),795909.7000000179,A,g,I,g,2490,,2498.7000000178814,793411.0,8083,WL,B,2.0
7,15.878999948501587,immed,44121.00005149841,Tue Feb 03 2026 17:59:40 GMT-0600 (Central Standard Time),796659.1000000238,A,gr,I,r,744,,3248.100000023842,793411.0,8083,WL,B,2.0
7,15.961999893188477,immed,44038.00010681152,Tue Feb 03 2026 17:59:40 GMT-0600 (Central Standard Time),796742.900000006,A,gra,I,a,67,,3331.9000000059605,793411.0,8083,WL,B,2.0
7,16.312999963760376,immed,43687.000036239624,Tue Feb 03 2026 17:59:40 GMT-0600 (Central Standard Time),797093.1000000238,A,gras,I,s,342,,3682.100000023842,793411.0,8083,WL,B,2.0
7,16.444999933242798,immed,43555.0000667572,Tue Feb 03 2026 17:59:40 GMT-0600 (Central Standard Time),797225.8000000119,A,grass,I,s,121,,3814.800000011921,793411.0,8083,WL,B,2.0
7,17.42899990081787,immed,42571.00009918213,Tue Feb 03 2026 17:59:40 GMT-0600 (Central Standard Time),798209.1000000238,A,grassenter,I,enter,973,,4798.100000023842,793411.0,8083,WL,B,2.0
7,23.80999994277954,immed,36190.00005722046,Tue Feb 03 2026 17:59:40 GMT-0600 (Central Standard Time),804590.400000006,A,d,I,d,6372,,6381.0,798209.400000006,8083,WL,B,3.0
7,24.026000022888184,immed,35973.99997711182,Tue Feb 03 2026 17:59:40 GMT-0600 (Central Standard Time),804806.8000000119,A,do,I,o,207,,6597.4000000059605,798209.400000006,8083,WL,B,3.0
7,24.193000078201294,immed,35806.999921798706,Tue Feb 03 2026 17:59:40 GMT-0600 (Central Standard Time),804973.900000006,A,doo,I,o,158,,6764.5,798209.400000006,8083,WL,B,3.0
7,24.609999895095825,immed,35390.000104904175,Tue Feb 03 2026 17:59:40 GMT-0600 (Central Standard Time),805390.0,A,door,I,r,400,,7180.5999999940395,798209.400000006,8083,WL,B,3.0
7,25.4760000705719,immed,34523.9999294281,Tue Feb 03 2026 17:59:40 GMT-0600 (Central Standard Time),806256.3000000119,A,doorenter,I,enter,848,,8046.9000000059605,798209.400000006,8083,WL,B,3.0
7,25.858999967575073,immed,34141.00003242493,Tue Feb 03 2026 17:59:40 GMT-0600 (Central Standard Time),806639.8000000119,A,a,I,a,365,,383.19999998807907,806256.6000000238,8083,WL,B,4.0
7,25.95899987220764,immed,34041.00012779236,Tue Feb 03 2026 17:59:40 GMT-0600 (Central Standard Time),806739.3000000119,A,ar,I,r,93,,482.69999998807907,806256.6000000238,8083,WL,B,4.0
7,25.991999864578247,immed,34008.00013542175,Tue Feb 03 2026 17:59:40 GMT-0600 (Central Standard Time),806773.1000000238,A,arm,I,m,27,,516.5,806256.6000000238,8083,WL,B,4.0
7,28.907999992370605,immed,31092.000007629395,Tue Feb 03 2026 17:59:40 GMT-0600 (Central Standard Time),809688.6000000238,A,armenter,I,enter,2897,,3432.0,806256.6000000238,8083,WL,B,4.0
7,29.191999912261963,immed,30808.000087738037,Tue Feb 03 2026 17:59:40 GMT-0600 (Central Standard Time),809972.3000000119,A,s,I,s,270,,283.5,809688.8000000119,8083,WL,B,5.0
7,29.424999952316284,immed,30575.000047683716,Tue Feb 03 2026 17:59:40 GMT-0600 (Central Standard Time),810205.400000006,A,st,I,t,225,,516.5999999940395,809688.8000000119,8083,WL,B,5.0
7,29.674000024795532,immed,30325.999975204468,Tue Feb 03 2026 17:59:40 GMT-0600 (Central Standard Time),810455.1000000238,A,sta,I,a,240,,766.3000000119209,809688.8000000119,8083,WL,B,5.0
7,29.740999937057495,immed,30259.000062942505,Tue Feb 03 2026 17:59:40 GMT-0600 (Central Standard Time),810521.7000000179,A,star,I,r,55,,832.9000000059605,809688.8000000119,8083,WL,B,5.0
7,30.723999977111816,immed,29276.000022888184,Tue Feb 03 2026 17:59:40 GMT-0600 (Central Standard Time),811504.8000000119,A,starenter,I,enter,964,,1816.0,809688.8000000119,8083,WL,B,5.0
7,31.157999992370605,immed,28842.000007629395,Tue Feb 03 2026 17:59:40 GMT-0600 (Central Standard Time),811938.3000000119,A,w,I,w,413,,433.19999998807907,811505.1000000238,8083,WL,B,6.0
7,31.223999977111816,immed,28776.000022888184,Tue Feb 03 2026 17:59:40 GMT-0600 (Central Standard Time),812004.8000000119,A,wi,I,i,51,,499.69999998807907,811505.1000000238,8083,WL,B,6.0
7,31.5239999294281,immed,28476.0000705719,Tue Feb 03 2026 17:59:40 GMT-0600 (Central Standard Time),812304.8000000119,A,wif,I,f,289,,799.6999999880791,811505.1000000238,8083,WL,B,6.0
7,32.056999921798706,immed,27943.000078201294,Tue Feb 03 2026 17:59:40 GMT-0600 (Central Standard Time),812837.7000000179,A,wife,I,e,525,,1332.5999999940395,811505.1000000238,8083,WL,B,6.0
7,36.35599994659424,immed,23644.00005340576,Tue Feb 03 2026 17:59:40 GMT-0600 (Central Standard Time),817136.5,A,wifeenter,I,enter,4288,,5631.399999976158,811505.1000000238,8083,WL,B,6.0
7,36.93300008773804,immed,23066.999912261963,Tue Feb 03 2026 17:59:40 GMT-0600 (Central Standard Time),817713.2000000179,A,w,I,w,572,,576.4000000059605,817136.8000000119,8083,WL,B,7.0
7,36.954999923706055,immed,23045.000076293945,Tue Feb 03 2026 17:59:40 GMT-0600 (Central Standard Time),817735.900000006,A,wi,I,i,12,,599.0999999940395,817136.8000000119,8083,WL,B,7.0
7,37.105000019073486,immed,22894.999980926514,Tue Feb 03 2026 17:59:40 GMT-0600 (Central Standard Time),817885.900000006,A,win,I,n,139,,749.0999999940395,817136.8000000119,8083,WL,B,7.0
7,37.25600004196167,immed,22743.99995803833,Tue Feb 03 2026 17:59:40 GMT-0600 (Central Standard Time),818036.0,A,wind,I,d,136,,899.1999999880791,817136.8000000119,8083,WL,B,7.0
7,37.33899998664856,immed,22661.00001335144,Tue Feb 03 2026 17:59:40 GMT-0600 (Central Standard Time),818119.400000006,A,windo,I,o,65,,982.5999999940395,817136.8000000119,8083,WL,B,7.0
7,37.47199988365173,immed,22528.000116348267,Tue Feb 03 2026 17:59:40 GMT-0600 (Central Standard Time),818252.8000000119,A,window,I,w,126,,1116.0,817136.8000000119,8083,WL,B,7.0
7,38.138999938964844,immed,21861.000061035156,Tue Feb 03 2026 17:59:40 GMT-0600 (Central Standard Time),818919.3000000119,A,windowenter,I,enter,657,,1782.5,817136.8000000119,8083,WL,B,7.0
7,39.9210000038147,immed,20078.999996185303,Tue Feb 03 2026 17:59:40 GMT-0600 (Central Standard Time),820701.8000000119,A,c,I,c,1766,,1782.199999988079,818919.6000000238,8083,WL,B,8.0
7,40.00499987602234,immed,19995.00012397766,Tue Feb 03 2026 17:59:40 GMT-0600 (Central Standard Time),820785.7000000179,A,ci,I,i,72,,1866.0999999940395,818919.6000000238,8083,WL,B,8.0
7,40.23799991607666,immed,19762.00008392334,Tue Feb 03 2026 17:59:40 GMT-0600 (Central Standard Time),821018.6000000238,A,cit,I,t,220,,2099.0,818919.6000000238,8083,WL,B,8.0
7,40.30399990081787,immed,19696.00009918213,Tue Feb 03 2026 17:59:40 GMT-0600 (Central Standard Time),821085.0,A,city,I,y,59,,2165.399999976158,818919.6000000238,8083,WL,B,8.0
7,42.80399990081787,immed,17196.00009918213,Tue Feb 03 2026 17:59:40 GMT-0600 (Central Standard Time),823584.3000000119,A,cityenter,I,enter,2488,,4664.699999988079,818919.6000000238,8083,WL,B,8.0
7,43.269999980926514,immed,16730.000019073486,Tue Feb 03 2026 17:59:40 GMT-0600 (Central Standard Time),824050.6000000238,A,p,I,p,461,,465.90000000596046,823584.7000000179,8083,WL,B,9.0
7,43.48699998855591,immed,16513.00001144409,Tue Feb 03 2026 17:59:40 GMT-0600 (Central Standard Time),824267.3000000119,A,pu,I,u,211,,682.5999999940395,823584.7000000179,8083,WL,B,9.0
7,43.7039999961853,immed,16296.000003814697,Tue Feb 03 2026 17:59:40 GMT-0600 (Central Standard Time),824484.1000000238,A,pup,I,p,202,,899.4000000059605,823584.7000000179,8083,WL,B,9.0
7,44.15400004386902,immed,15845.999956130981,Tue Feb 03 2026 17:59:40 GMT-0600 (Central Standard Time),824934.1000000238,A,pupi,I,i,443,,1349.4000000059605,823584.7000000179,8083,WL,B,9.0
7,44.47000002861023,immed,15529.99997138977,Tue Feb 03 2026 17:59:40 GMT-0600 (Central Standard Time),825250.3000000119,A,pupil,I,l,312,,1665.5999999940395,823584.7000000179,8083,WL,B,9.0
7,46.335999965667725,immed,13664.000034332275,Tue Feb 03 2026 17:59:40 GMT-0600 (Central Standard Time),827116.6000000238,A,pupilenter,I,enter,1852,,3531.9000000059605,823584.7000000179,8083,WL,B,9.0
7,46.835999965667725,immed,13164.000034332275,Tue Feb 03 2026 17:59:40 GMT-0600 (Central Standard Time),827616.8000000119,A,b,I,b,481,,499.90000000596046,827116.900000006,8083,WL,B,10.0
7,46.93599987030029,immed,13064.000129699707,Tue Feb 03 2026 17:59:40 GMT-0600 (Central Standard Time),827716.6000000238,A,ba,I,a,93,,599.7000000178814,827116.900000006,8083,WL,B,10.0
7,47.7189998626709,immed,12281.000137329102,Tue Feb 03 2026 17:59:40 GMT-0600 (Central Standard Time),828499.7000000179,A,b,I,backspace,769,,1382.800000011921,827116.900000006,8083,WL,B,10.0
7,47.901999950408936,immed,12098.000049591064,Tue Feb 03 2026 17:59:40 GMT-0600 (Central Standard Time),828683.0,A,,I,backspace,170,,1566.0999999940395,827116.900000006,8083,WL,B,10.0
7,48.418999910354614,immed,11581.000089645386,Tue Feb 03 2026 17:59:40 GMT-0600 (Central Standard Time),829199.5,A,c,I,c,507,,2082.5999999940395,827116.900000006,8083,WL,B,10.0
7,48.58500003814697,immed,11414.999961853027,Tue Feb 03 2026 17:59:40 GMT-0600 (Central Standard Time),829365.7000000179,A,ca,I,a,150,,2248.800000011921,827116.900000006,8083,WL,B,10.0
7,48.83500003814697,immed,11164.999961853027,Tue Feb 03 2026 17:59:40 GMT-0600 (Central Standard Time),829616.0,A,cab,I,b,240,,2499.0999999940395,827116.900000006,8083,WL,B,10.0
7,48.9689998626709,immed,11031.000137329102,Tue Feb 03 2026 17:59:40 GMT-0600 (Central Standard Time),829749.1000000238,A,cabi,I,i,126,,2632.2000000178814,827116.900000006,8083,WL,B,10.0
7,49.18499994277954,immed,10815.000057220459,Tue Feb 03 2026 17:59:40 GMT-0600 (Central Standard Time),829965.5,A,cabin,I,n,201,,2848.5999999940395,827116.900000006,8083,WL,B,10.0
7,49.43499994277954,immed,10565.000057220459,Tue Feb 03 2026 17:59:40 GMT-0600 (Central Standard Time),830215.5,A,cabinenter,I,enter,231,,3098.5999999940395,827116.900000006,8083,WL,B,10.0
7,50.10199999809265,immed,9898.000001907349,Tue Feb 03 2026 17:59:40 GMT-0600 (Central Standard Time),830882.2000000179,A,l,I,l,646,,666.4000000059605,830215.8000000119,8083,WL,B,11.0
7,50.484999895095825,immed,9515.000104904175,Tue Feb 03 2026 17:59:40 GMT-0600 (Central Standard Time),831265.6000000238,A,la,I,a,371,,1049.800000011921,830215.8000000119,8083,WL,B,11.0
7,50.76799988746643,immed,9232.00011253357,Tue Feb 03 2026 17:59:40 GMT-0600 (Central Standard Time),831548.7000000179,A,lak,I,k,277,,1332.9000000059605,830215.8000000119,8083,WL,B,11.0
7,51.300999879837036,immed,8699.000120162964,Tue Feb 03 2026 17:59:40 GMT-0600 (Central Standard Time),832081.7000000179,A,lake,I,e,513,,1865.9000000059605,830215.8000000119,8083,WL,B,11.0
7,52.00099992752075,immed,7999.000072479248,Tue Feb 03 2026 17:59:40 GMT-0600 (Central Standard Time),832781.7000000179,A,lakeenter,I,enter,684,,2565.9000000059605,830215.8000000119,8083,WL,B,11.0
7,52.45099997520447,immed,7549.000024795532,Tue Feb 03 2026 17:59:40 GMT-0600 (Central Standard Time),833231.400000006,A,s,I,s,440,,449.40000000596046,832782.0,8083,WL,B,12.0
7,52.550999879837036,immed,7449.000120162964,Tue Feb 03 2026 17:59:40 GMT-0600 (Central Standard Time),833331.400000006,A,sk,I,k,79,,549.4000000059605,832782.0,8083,WL,B,12.0
7,52.71799993515015,immed,7282.0000648498535,Tue Feb 03 2026 17:59:40 GMT-0600 (Central Standard Time),833498.400000006,A,ski,I,i,146,,716.4000000059605,832782.0,8083,WL,B,12.0
7,52.86699986457825,immed,7133.000135421753,Tue Feb 03 2026 17:59:40 GMT-0600 (Central Standard Time),833647.8000000119,A,skin,I,n,131,,865.8000000119209,832782.0,8083,WL,B,12.0
7,53.467000007629395,immed,6532.9999923706055,Tue Feb 03 2026 17:59:40 GMT-0600 (Central Standard Time),834247.8000000119,A,skinenter,I,enter,591,,1465.800000011921,832782.0,8083,WL,B,12.0
7,54.36699986457825,immed,5633.000135421753,Tue Feb 03 2026 17:59:40 GMT-0600 (Central Standard Time),835147.400000006,A,f,I,f,879,,899.2999999821186,834248.1000000238,8083,WL,B,13.0
7,54.5,immed,5500.0,Tue Feb 03 2026 17:59:40 GMT-0600 (Central Standard Time),835280.900000006,A,fi,I,i,114,,1032.7999999821186,834248.1000000238,8083,WL,B,13.0
7,55.41700005531311,immed,4582.99994468689,Tue Feb 03 2026 17:59:40 GMT-0600 (Central Standard Time),836197.2000000179,A,fir,I,r,900,,1949.0999999940395,834248.1000000238,8083,WL,B,13.0
7,55.43300008773804,immed,4566.999912261963,Tue Feb 03 2026 17:59:40 GMT-0600 (Central Standard Time),836213.900000006,A,fire,I,e,8,,1965.7999999821186,834248.1000000238,8083,WL,B,13.0
7,56.382999897003174,immed,3617.000102996826,Tue Feb 03 2026 17:59:40 GMT-0600 (Central Standard Time),837164.2000000179,A,fireenter,I,enter,943,,2916.0999999940395,834248.1000000238,8083,WL,B,13.0
7,56.89999985694885,immed,3100.0001430511475,Tue Feb 03 2026 17:59:40 GMT-0600 (Central Standard Time),837680.5,A,p,I,p,498,,516.0999999940395,837164.400000006,8083,WL,B,14.0
7,57.115999937057495,immed,2884.000062942505,Tue Feb 03 2026 17:59:40 GMT-0600 (Central Standard Time),837896.7000000179,A,pi,I,i,197,,732.3000000119209,837164.400000006,8083,WL,B,14.0
7,57.299999952316284,immed,2700.000047683716,Tue Feb 03 2026 17:59:40 GMT-0600 (Central Standard Time),838080.2000000179,A,pip,I,p,166,,915.8000000119209,837164.400000006,8083,WL,B,14.0
7,57.54900002479553,immed,2450.999975204468,Tue Feb 03 2026 17:59:40 GMT-0600 (Central Standard Time),838330.0,A,pipe,I,e,237,,1165.5999999940395,837164.400000006,8083,WL,B,14.0
7,58.56500005722046,immed,1434.999942779541,Tue Feb 03 2026 17:59:40 GMT-0600 (Central Standard Time),839345.8000000119,A,pipeenter,I,enter,1011,,2181.4000000059605,837164.400000006,8083,WL,B,14.0
7,60.014999866485596,immed,-14.999866485595703,Tue Feb 03 2026 17:59:40 GMT-0600 (Central Standard Time),840795.900000006,A,None,I,None,1446,,1449.9000000059605,839346.0,8083,WL,B,15.0
