acc_sum,block,block_c,condition,correct,correct_response,datetime,endtime,flanker,jitter,project,response,response_test_buffer_response,response_test_target_response,response_time,response_time_test_buffer_response,response_time_test_target_response,row_sel,session_number,start_end,starttime,subject_id,target,task,task_vers,time_test_buffer,time_test_buffer_response,time_test_constants,time_test_flanker,time_test_jitter,time_test_logger,time_test_target,time_test_target_response,time_test_variables,trial
1,prac,1,con,1,m,Thu Mar 12 2026 09:31:00 GMT-0500 (Central Daylight Time),205183.59999999404,zinc,1000,I,m,,,1307,,,15,1,3611.800000011921,201571.79999998212,7769,zinc,NF,C,,,,,,,,,,1
2,prac,1,inc,1,z,Thu Mar 12 2026 09:31:00 GMT-0500 (Central Daylight Time),208449.40000000596,lead,1100,I,z,,,854,,,8,1,3261.9000000059605,205187.5,7769,plum,NF,C,,,,,,,,,,2
2,prac,1,inc,0,m,Thu Mar 12 2026 09:31:00 GMT-0500 (Central Daylight Time),212099.90000000596,raisin,1100,I,z,,,1246,,,12,1,3646.800000011921,208453.09999999404,7769,cobalt,NF,C,,,,,,,,,,3
3,prac,1,con,1,z,Thu Mar 12 2026 09:31:00 GMT-0500 (Central Daylight Time),215081.59999999404,orange,1000,I,z,,,681,,,3,1,2974.300000011921,212107.29999998212,7769,orange,NF,C,,,,,,,,,,4
3,prac,1,con,0,z,Thu Mar 12 2026 09:31:00 GMT-0500 (Central Daylight Time),217831.29999998212,banana,800,I,m,,,635,,,1,1,2745.2999999821186,215086.0,7769,banana,NF,C,,,,,,,,,,5
4,prac,1,con,1,m,Thu Mar 12 2026 09:31:00 GMT-0500 (Central Daylight Time),221730.40000000596,silver,1000,I,m,,,1614,,,11,1,3892.600000023842,217837.79999998212,7769,silver,NF,C,,,,,,,,,,6
5,prac,1,inc,1,m,Thu Mar 12 2026 09:31:00 GMT-0500 (Central Daylight Time),224846.09999999404,pear,900,I,m,,,926,,,14,1,3108.199999988079,221737.90000000596,7769,iron,NF,C,,,,,,,,,,7
6,prac,1,inc,1,m,Thu Mar 12 2026 09:31:00 GMT-0500 (Central Daylight Time),228011.09999999404,cherry,900,I,m,,,963,,,10,1,3160.300000011921,224850.79999998212,7769,copper,NF,C,,,,,,,,,,8
7,prac,1,con,1,m,Thu Mar 12 2026 09:31:00 GMT-0500 (Central Daylight Time),230927.19999998808,gold,800,I,m,,,821,,,13,1,2912.7999999821186,228014.40000000596,7769,gold,NF,C,,,,,,,,,,9
8,prac,1,con,1,z,Thu Mar 12 2026 09:31:00 GMT-0500 (Central Daylight Time),233693.40000000596,lime,800,I,z,,,654,,,5,1,2761.100000023842,230932.29999998212,7769,lime,NF,C,,,,,,,,,,10
9,prac,1,inc,1,z,Thu Mar 12 2026 09:31:00 GMT-0500 (Central Daylight Time),236624.59999999404,copper,900,I,z,,,733,,,2,1,2924.199999988079,233700.40000000596,7769,cherry,NF,C,,,,,,,,,,11
10,prac,1,inc,1,z,Thu Mar 12 2026 09:31:00 GMT-0500 (Central Daylight Time),240142.79999998212,cobalt,1100,I,z,,,1112,,,4,1,3512.0,236630.79999998212,7769,raisin,NF,C,,,,,,,,,,12
11,prac,1,con,1,z,Thu Mar 12 2026 09:31:00 GMT-0500 (Central Daylight Time),243139.79999998212,kiwi,1000,I,z,,,692,,,7,1,2990.7999999821186,240149.0,7769,kiwi,NF,C,,,,,,,,,,13
12,prac,1,inc,1,z,Thu Mar 12 2026 09:31:00 GMT-0500 (Central Daylight Time),246137.29999998212,iron,900,I,z,,,797,,,6,1,2989.7999999821186,243147.5,7769,pear,NF,C,,,,,,,,,,14
13,prac,1,inc,1,m,Thu Mar 12 2026 09:31:00 GMT-0500 (Central Daylight Time),249137.40000000596,plum,1100,I,m,,,591,,,16,1,2996.9000000059605,246140.5,7769,lead,NF,C,,,,,,,,,,15
14,prac,1,con,1,m,Thu Mar 12 2026 09:31:00 GMT-0500 (Central Daylight Time),252016.69999998808,bronze,800,I,m,,,778,,,9,1,2872.0999999940395,249144.59999999404,7769,bronze,NF,C,,,,,,,,,,16
1,test,1,con,1,m,Thu Mar 12 2026 09:31:00 GMT-0500 (Central Daylight Time),276061.6999999881,bronze,1100,I,m,m,None,545,345.0,200.0,68,1,2159.5,273902.1999999881,7769,bronze,NF,C,274134,274134,272323,273433,272324,274483,273934,273934,274483,1
2,test,1,con,1,m,Thu Mar 12 2026 09:31:00 GMT-0500 (Central Daylight Time),277944.90000000596,lead,800,I,m,m,None,561,350.0,211.0,121,1,1879.300000011921,276065.59999999404,7769,lead,NF,C,276016,276016,274487,275301,274487,276366,275805,275805,276366,2
3,test,1,con,1,m,Thu Mar 12 2026 09:31:00 GMT-0500 (Central Daylight Time),280060.2999999821,cobalt,1000,I,m,m,None,572,371.0,201.0,91,1,2112.0999999940395,277948.1999999881,7769,cobalt,NF,C,278100,278100,276369,277382,276370,278481,277899,277899,278481,3
4,test,1,con,1,m,Thu Mar 12 2026 09:31:00 GMT-0500 (Central Daylight Time),282110.09999999404,zinc,900,I,m,m,None,605,404.0,201.0,114,1,2046.0999999940395,280064.0,7769,zinc,NF,C,280115,280115,278485,279399,278485,280531,279914,279914,280531,4
5,test,1,con,1,z,Thu Mar 12 2026 09:31:00 GMT-0500 (Central Daylight Time),284342.40000000596,raisin,1100,I,z,z,None,593,393.0,200.0,28,1,2227.4000000059605,282115.0,7769,raisin,NF,C,282365,282366,280536,281648,280536,282764,282165,282165,282763,5
6,test,1,inc,1,z,Thu Mar 12 2026 09:31:00 GMT-0500 (Central Daylight Time),286425.6999999881,copper,900,I,z,z,None,657,458.0,199.0,14,1,2079.4000000059605,284346.2999999821,7769,cherry,NF,C,284381,284381,282767,283680,282767,284847,284181,284181,284847,6
7,test,1,inc,1,m,Thu Mar 12 2026 09:31:00 GMT-0500 (Central Daylight Time),288641.7999999821,cherry,900,I,m,m,None,773,574.0,199.0,78,1,2211.699999988079,286430.09999999404,7769,copper,NF,C,286481,286481,284851,285763,284851,287063,286281,286281,287063,7
8,test,1,con,1,m,Thu Mar 12 2026 09:31:00 GMT-0500 (Central Daylight Time),291024.6999999881,zinc,1100,I,m,m,None,736,534.0,202.0,116,1,2377.0999999940395,288647.59999999404,7769,zinc,NF,C,288897,288897,287069,288179,287069,289446,288695,288695,289446,8
9,test,1,inc,1,z,Thu Mar 12 2026 09:31:00 GMT-0500 (Central Daylight Time),293190.59999999404,iron,900,I,z,z,None,720,521.0,199.0,46,1,2161.300000011921,291029.2999999821,7769,pear,NF,C,291077,291077,289450,290362,289451,291612,290878,290878,291612,9
10,test,1,con,1,m,Thu Mar 12 2026 09:31:00 GMT-0500 (Central Daylight Time),295471.7999999821,cobalt,1100,I,m,m,None,641,441.0,200.0,92,1,2277.5999999940395,293194.1999999881,7769,cobalt,NF,C,293445,293445,291615,292730,291615,293893,293244,293244,293893,10
11,test,1,inc,1,z,Thu Mar 12 2026 09:31:00 GMT-0500 (Central Daylight Time),297523.5,bronze,800,I,z,z,None,707,506.0,201.0,29,1,2047.9000000059605,295475.59999999404,7769,raisin,NF,C,295428,295428,293897,294709,293897,295945,295226,295226,295945,11
12,test,1,inc,1,z,Thu Mar 12 2026 09:31:00 GMT-0500 (Central Daylight Time),299973.1999999881,cobalt,1100,I,z,z,None,815,616.0,199.0,32,1,2445.0999999940395,297528.09999999404,7769,raisin,NF,C,297776,297776,295949,297060,295949,298394,297576,297576,298394,12
13,test,1,inc,1,z,Thu Mar 12 2026 09:31:00 GMT-0500 (Central Daylight Time),302170.09999999404,iron,900,I,z,z,None,756,557.0,199.0,38,1,2192.5,299977.59999999404,7769,lime,NF,C,300025,300025,298399,299312,298399,300591,299826,299826,300591,13
14,test,1,con,1,m,Thu Mar 12 2026 09:31:00 GMT-0500 (Central Daylight Time),304168.7999999821,bronze,800,I,m,m,None,647,446.0,201.0,65,1,1994.0999999940395,302174.6999999881,7769,bronze,NF,C,302127,302127,300596,301409,300596,302590,301925,301925,302590,14
15,test,1,con,1,z,Thu Mar 12 2026 09:31:00 GMT-0500 (Central Daylight Time),306186.5,cherry,800,I,z,z,None,675,476.0,199.0,9,1,2015.0,304171.5,7769,cherry,NF,C,304124,304124,302593,303408,302593,304608,303925,303925,304608,15
16,test,1,con,1,m,Thu Mar 12 2026 09:31:00 GMT-0500 (Central Daylight Time),308250.09999999404,copper,800,I,m,m,None,722,520.0,202.0,73,1,2059.300000011921,306190.7999999821,7769,copper,NF,C,306142,306142,304612,305424,304612,306671,305940,305940,306671,16
17,test,1,inc,1,m,Thu Mar 12 2026 09:31:00 GMT-0500 (Central Daylight Time),310383.40000000596,orange,1000,I,m,m,None,583,382.0,201.0,79,1,2130.2000000178814,308253.1999999881,7769,copper,NF,C,308408,308408,306674,307690,306675,308804,308206,308206,308804,17
18,test,1,con,1,z,Thu Mar 12 2026 09:31:00 GMT-0500 (Central Daylight Time),312517.7999999821,banana,1000,I,z,z,None,583,383.0,200.0,3,1,2130.5999999940395,310387.1999999881,7769,banana,NF,C,310539,310539,308808,309823,308808,310939,310339,310339,310939,18
19,test,1,con,1,z,Thu Mar 12 2026 09:31:00 GMT-0500 (Central Daylight Time),314832.6999999881,plum,1100,I,z,z,None,677,476.0,201.0,60,1,2311.699999988079,312521.0,7769,plum,NF,C,312771,312771,310942,312056,310942,313254,312570,312570,313254,19
20,test,1,inc,1,z,Thu Mar 12 2026 09:31:00 GMT-0500 (Central Daylight Time),316965.7999999821,silver,1000,I,z,z,None,595,395.0,200.0,7,1,2128.699999988079,314837.09999999404,7769,banana,NF,C,314987,314987,313258,314271,313258,315387,314787,314787,315387,20
21,test,1,con,1,m,Thu Mar 12 2026 09:31:00 GMT-0500 (Central Daylight Time),319298.90000000596,copper,1100,I,m,m,None,683,483.0,200.0,76,1,2329.9000000059605,316969.0,7769,copper,NF,C,317221,317221,315390,316503,315390,317720,317020,317020,317720,21
22,test,1,inc,1,z,Thu Mar 12 2026 09:31:00 GMT-0500 (Central Daylight Time),321615.1999999881,lead,1100,I,z,z,None,685,486.0,199.0,64,1,2310.9000000059605,319304.2999999821,7769,plum,NF,C,319537,319537,317725,318836,317726,320036,319337,319337,320036,22
23,test,1,con,1,z,Thu Mar 12 2026 09:31:00 GMT-0500 (Central Daylight Time),323796.1999999881,lime,1000,I,z,z,None,638,438.0,200.0,35,1,2176.5999999940395,321619.59999999404,7769,lime,NF,C,321769,321769,320041,321056,320041,322217,321569,321569,322217,23
24,test,1,con,1,m,Thu Mar 12 2026 09:31:00 GMT-0500 (Central Daylight Time),325846.59999999404,iron,800,I,m,m,None,720,519.0,201.0,105,1,2046.4000000059605,323800.1999999881,7769,iron,NF,C,323736,323736,322221,323025,322222,324268,323535,323535,324268,24
25,test,1,inc,1,m,Thu Mar 12 2026 09:31:00 GMT-0500 (Central Daylight Time),327861.59999999404,banana,800,I,m,m,None,698,498.0,200.0,93,1,2011.0999999940395,325850.5,7769,cobalt,NF,C,325784,325784,324272,325083,324272,326283,325584,325584,326283,25
26,test,1,inc,1,z,Thu Mar 12 2026 09:31:00 GMT-0500 (Central Daylight Time),330094.40000000596,cobalt,1100,I,z,z,None,583,384.0,199.0,24,1,2227.2000000178814,327867.1999999881,7769,orange,NF,C,328118,328118,326288,327401,326288,328516,327918,327918,328515,26
27,test,1,inc,1,m,Thu Mar 12 2026 09:31:00 GMT-0500 (Central Daylight Time),332127.2999999821,lime,800,I,m,m,None,700,485.0,215.0,109,1,2027.7999999821186,330099.5,7769,iron,NF,C,330049,330049,328521,329333,328521,330548,329834,329834,330548,27
28,test,1,con,1,m,Thu Mar 12 2026 09:31:00 GMT-0500 (Central Daylight Time),334277.6999999881,iron,1000,I,m,m,None,598,399.0,199.0,107,1,2144.2999999821186,332133.40000000596,7769,iron,NF,C,332282,332282,330554,331566,330555,332699,332082,332082,332699,28
29,test,1,inc,1,m,Thu Mar 12 2026 09:31:00 GMT-0500 (Central Daylight Time),336360.2999999821,pear,900,I,m,m,None,643,443.0,200.0,102,1,2077.2999999821186,334283.0,7769,gold,NF,C,334331,334331,332704,333616,332704,334781,334131,334131,334781,29
30,test,1,inc,1,z,Thu Mar 12 2026 09:31:00 GMT-0500 (Central Daylight Time),338509.09999999404,silver,1000,I,z,z,None,600,400.0,200.0,31,1,2145.300000011921,336363.7999999821,7769,raisin,NF,C,336514,336514,334785,335798,334785,336930,336314,336314,336930,30
31,test,1,inc,1,z,Thu Mar 12 2026 09:31:00 GMT-0500 (Central Daylight Time),340858.7999999821,lead,1100,I,z,z,None,702,502.0,200.0,48,1,2344.2999999821186,338514.5,7769,pear,NF,C,338762,338762,336936,338047,336936,339280,338562,338562,339280,31
32,test,1,inc,1,z,Thu Mar 12 2026 09:31:00 GMT-0500 (Central Daylight Time),343258.0,lead,1100,I,z,z,None,753,552.0,201.0,56,1,2394.5999999940395,340863.40000000596,7769,kiwi,NF,C,341112,341112,339284,340397,339285,341679,340911,340911,341679,32
33,test,1,con,1,z,Thu Mar 12 2026 09:31:00 GMT-0500 (Central Daylight Time),345405.6999999881,plum,800,I,z,z,None,809,595.0,214.0,57,1,2142.199999988079,343263.5,7769,plum,NF,C,343228,343228,341685,342496,341685,343827,343013,343013,343827,33
34,test,1,inc,1,m,Thu Mar 12 2026 09:31:00 GMT-0500 (Central Daylight Time),347474.1999999881,cherry,900,I,m,m,None,649,449.0,200.0,70,1,2064.5999999940395,345409.59999999404,7769,bronze,NF,C,345446,345446,343831,344743,343831,345895,345245,345245,345895,34
35,test,1,inc,1,z,Thu Mar 12 2026 09:31:00 GMT-0500 (Central Daylight Time),349539.5,gold,800,I,z,z,None,748,549.0,199.0,53,1,2060.5,347479.0,7769,kiwi,NF,C,347410,347410,345900,346709,345900,347961,347211,347211,347960,35
36,test,1,con,1,z,Thu Mar 12 2026 09:31:00 GMT-0500 (Central Daylight Time),351805.2999999821,kiwi,1100,I,z,z,None,629,430.0,199.0,52,1,2261.5,349543.7999999821,7769,kiwi,NF,C,349793,349793,347965,349077,347965,350226,349593,349593,350226,36
37,test,1,inc,1,m,Thu Mar 12 2026 09:31:00 GMT-0500 (Central Daylight Time),354154.09999999404,plum,1100,I,m,m,None,698,483.0,215.0,104,1,2344.0,351810.09999999404,7769,gold,NF,C,352076,352076,350231,351343,350231,352575,351860,351860,352575,37
38,test,1,con,1,m,Thu Mar 12 2026 09:31:00 GMT-0500 (Central Daylight Time),356286.40000000596,gold,900,I,m,m,None,685,485.0,200.0,98,1,2127.5,354158.90000000596,7769,gold,NF,C,354209,354209,352580,353492,352580,354707,354009,354009,354707,38
39,test,1,inc,1,m,Thu Mar 12 2026 09:31:00 GMT-0500 (Central Daylight Time),358585.59999999404,raisin,1100,I,m,m,None,647,448.0,199.0,80,1,2293.0,356292.59999999404,7769,copper,NF,C,356542,356542,354714,355824,354714,357007,356342,356342,357007,39
40,test,1,con,1,z,Thu Mar 12 2026 09:31:00 GMT-0500 (Central Daylight Time),360535.7999999821,lime,800,I,z,z,None,626,425.0,201.0,33,1,1944.8999999761581,358590.90000000596,7769,lime,NF,C,358525,358525,357012,357823,357012,358957,358324,358324,358957,40
41,test,1,inc,1,m,Thu Mar 12 2026 09:31:00 GMT-0500 (Central Daylight Time),362533.90000000596,lime,800,I,m,m,None,660,461.0,199.0,117,1,1994.300000011921,360539.59999999404,7769,zinc,NF,C,360490,360490,358961,359774,358961,360955,360291,360291,360955,41
42,test,1,inc,1,m,Thu Mar 12 2026 09:31:00 GMT-0500 (Central Daylight Time),364667.6999999881,lime,800,I,m,m,None,803,592.0,211.0,125,1,2127.7999999821186,362539.90000000596,7769,lead,NF,C,362487,362487,360961,361774,360961,363089,362276,362276,363089,42
43,test,1,con,1,m,Thu Mar 12 2026 09:31:00 GMT-0500 (Central Daylight Time),366933.09999999404,lead,1100,I,m,m,None,630,429.0,201.0,124,1,2258.4000000059605,364674.6999999881,7769,lead,NF,C,364922,364922,363096,364208,363096,365354,364721,364721,365354,43
44,test,1,con,1,z,Thu Mar 12 2026 09:31:00 GMT-0500 (Central Daylight Time),369199.09999999404,raisin,1000,I,z,z,None,719,520.0,199.0,27,1,2260.300000011921,366938.7999999821,7769,raisin,NF,C,367086,367086,365360,366371,365360,367620,366887,366887,367620,44
45,test,1,inc,1,m,Thu Mar 12 2026 09:31:00 GMT-0500 (Central Daylight Time),371514.2999999821,raisin,1100,I,m,m,None,674,474.0,200.0,88,1,2310.7999999821186,369203.5,7769,silver,NF,C,369453,369453,367625,368737,367625,369935,369253,369253,369935,45
46,test,1,inc,1,m,Thu Mar 12 2026 09:31:00 GMT-0500 (Central Daylight Time),373797.40000000596,plum,1100,I,m,m,None,633,434.0,199.0,120,1,2280.4000000059605,371517.0,7769,zinc,NF,C,371769,371769,369938,371055,369938,372219,371569,371569,372218,46
47,test,1,con,1,m,Thu Mar 12 2026 09:31:00 GMT-0500 (Central Daylight Time),375880.40000000596,cobalt,800,I,m,m,None,734,534.0,200.0,89,1,2076.5,373803.90000000596,7769,cobalt,NF,C,373752,373752,372225,373036,372225,374301,373552,373552,374301,47
48,test,1,con,1,z,Thu Mar 12 2026 09:31:00 GMT-0500 (Central Daylight Time),378412.2999999821,lime,1100,I,z,z,None,894,679.0,215.0,36,1,2526.699999988079,375885.59999999404,7769,lime,NF,C,376151,376151,374307,375419,374307,376833,375936,375936,376833,48
49,test,1,inc,1,z,Thu Mar 12 2026 09:31:00 GMT-0500 (Central Daylight Time),380729.40000000596,zinc,1000,I,z,z,None,772,559.0,213.0,39,1,2313.600000023842,378415.7999999821,7769,lime,NF,C,378583,378584,376837,377851,376837,379150,378370,378370,379150,49
50,test,1,con,1,m,Thu Mar 12 2026 09:31:00 GMT-0500 (Central Daylight Time),382911.5,gold,1000,I,m,m,None,649,435.0,214.0,99,1,2175.5,380736.0,7769,gold,NF,C,380883,380883,379157,380168,379157,381333,380669,380669,381333,50
51,test,1,con,1,m,Thu Mar 12 2026 09:31:00 GMT-0500 (Central Daylight Time),385261.5,silver,1100,I,m,m,None,713,499.0,214.0,84,1,2347.2000000178814,382914.2999999821,7769,silver,NF,C,383182,383182,381335,382450,381336,383683,382967,382967,383683,51
52,test,1,inc,1,z,Thu Mar 12 2026 09:31:00 GMT-0500 (Central Daylight Time),387543.2999999821,zinc,1000,I,z,z,None,734,534.0,200.0,55,1,2277.2999999821186,385266.0,7769,kiwi,NF,C,385416,385416,383687,384699,383687,385964,385215,385215,385964,52
53,test,1,inc,1,z,Thu Mar 12 2026 09:31:00 GMT-0500 (Central Daylight Time),389725.6999999881,silver,1000,I,z,z,None,646,446.0,200.0,23,1,2177.0,387548.6999999881,7769,orange,NF,C,387697,387697,385970,386982,385970,388147,387497,387497,388147,53
54,test,1,inc,1,z,Thu Mar 12 2026 09:31:00 GMT-0500 (Central Daylight Time),391876.59999999404,zinc,1000,I,z,z,None,631,418.0,213.0,47,1,2146.699999988079,389729.90000000596,7769,pear,NF,C,389879,389879,388151,389165,388151,390298,389666,389666,390298,54
55,test,1,inc,1,m,Thu Mar 12 2026 09:31:00 GMT-0500 (Central Daylight Time),394207.59999999404,plum,1100,I,m,m,None,684,485.0,199.0,128,1,2324.800000011921,391882.7999999821,7769,lead,NF,C,392129,392129,390304,391413,390304,392629,391929,391929,392629,55
56,test,1,inc,1,z,Thu Mar 12 2026 09:31:00 GMT-0500 (Central Daylight Time),396190.6999999881,bronze,800,I,z,z,None,645,446.0,199.0,5,1,1977.4000000059605,394213.2999999821,7769,banana,NF,C,394162,394162,392634,393452,392635,394612,393963,393963,394612,56
57,test,1,con,1,m,Thu Mar 12 2026 09:31:00 GMT-0500 (Central Daylight Time),398273.2999999821,zinc,800,I,m,m,None,740,525.0,215.0,113,1,2079.0999999940395,396194.1999999881,7769,zinc,NF,C,396162,396162,394615,395430,394615,396694,395946,395946,396694,57
58,test,1,con,1,m,Thu Mar 12 2026 09:31:00 GMT-0500 (Central Daylight Time),400404.2999999821,zinc,1000,I,m,m,None,585,370.0,215.0,115,1,2126.5,398277.7999999821,7769,zinc,NF,C,398444,398444,396699,397712,396699,398825,398229,398229,398825,58
59,test,1,inc,1,m,Thu Mar 12 2026 09:31:00 GMT-0500 (Central Daylight Time),402471.6999999881,cherry,900,I,m,m,None,626,426.0,200.0,94,1,2063.199999988079,400408.5,7769,cobalt,NF,C,400460,400460,398830,399745,398830,400893,400260,400260,400893,59
60,test,1,inc,1,m,Thu Mar 12 2026 09:31:00 GMT-0500 (Central Daylight Time),404556.09999999404,orange,1000,I,m,m,None,557,357.0,200.0,71,1,2081.800000011921,402474.2999999821,7769,bronze,NF,C,402609,402609,400895,401908,400896,402977,402409,402409,402977,60
61,test,1,con,1,z,Thu Mar 12 2026 09:31:00 GMT-0500 (Central Daylight Time),406587.09999999404,orange,900,I,z,z,None,598,398.0,200.0,18,1,2026.0,404561.09999999404,7769,orange,NF,C,404609,404609,402982,403892,402982,405008,404409,404409,405008,61
62,test,1,inc,1,m,Thu Mar 12 2026 09:31:00 GMT-0500 (Central Daylight Time),408819.2999999821,raisin,1100,I,m,m,None,590,390.0,200.0,96,1,2226.2999999821186,406593.0,7769,cobalt,NF,C,406841,406841,405014,406126,405014,407240,406641,406641,407240,62
63,test,1,con,1,m,Thu Mar 12 2026 09:31:00 GMT-0500 (Central Daylight Time),411086.5,iron,1100,I,m,m,None,629,428.0,201.0,108,1,2262.9000000059605,408823.59999999404,7769,iron,NF,C,409075,409075,407245,408358,407245,409508,408874,408874,409508,63
64,test,1,con,1,m,Thu Mar 12 2026 09:31:00 GMT-0500 (Central Daylight Time),413084.5,copper,900,I,m,m,None,563,362.0,201.0,74,1,1993.5999999940395,411090.90000000596,7769,copper,NF,C,411141,411141,409512,410424,409512,411506,410940,410940,411506,64
65,test,1,con,1,z,Thu Mar 12 2026 09:31:00 GMT-0500 (Central Daylight Time),415268.0,raisin,800,I,z,z,None,839,639.0,200.0,25,1,2178.2000000178814,413089.7999999821,7769,raisin,NF,C,413040,413040,411511,412323,411511,413689,412840,412840,413689,65
66,test,1,con,1,z,Thu Mar 12 2026 09:31:00 GMT-0500 (Central Daylight Time),417450.5,pear,800,I,z,z,None,833,632.0,201.0,41,1,2177.7000000178814,415272.7999999821,7769,pear,NF,C,415223,415223,413694,414506,413694,415872,415022,415022,415872,66
67,test,1,con,1,m,Thu Mar 12 2026 09:31:00 GMT-0500 (Central Daylight Time),419467.90000000596,bronze,900,I,m,m,None,597,384.0,213.0,66,1,2013.1000000238419,417454.7999999821,7769,bronze,NF,C,417505,417505,415876,416788,415876,417889,417292,417292,417889,67
68,test,1,inc,1,z,Thu Mar 12 2026 09:31:00 GMT-0500 (Central Daylight Time),421651.40000000596,zinc,1000,I,z,z,None,641,426.0,215.0,63,1,2179.5,419471.90000000596,7769,plum,NF,C,419637,419637,417893,418905,417893,420072,419422,419422,420072,68
69,test,1,inc,1,z,Thu Mar 12 2026 09:31:00 GMT-0500 (Central Daylight Time),423532.6999999881,gold,800,I,z,z,None,548,348.0,200.0,61,1,1877.199999988079,421655.5,7769,plum,NF,C,421604,421604,420077,420888,420077,421954,421404,421404,421954,69
70,test,1,con,1,m,Thu Mar 12 2026 09:31:00 GMT-0500 (Central Daylight Time),425748.40000000596,gold,1100,I,m,m,None,571,372.0,199.0,100,1,2209.600000023842,423538.7999999821,7769,gold,NF,C,423786,423786,421960,423070,421960,424170,423586,423586,424169,70
71,test,1,inc,1,z,Thu Mar 12 2026 09:31:00 GMT-0500 (Central Daylight Time),427829.40000000596,copper,900,I,z,z,None,636,435.0,201.0,22,1,2077.9000000059605,425751.5,7769,orange,NF,C,425803,425803,424173,425086,424173,426250,425602,425602,426250,71
72,test,1,con,1,m,Thu Mar 12 2026 09:31:00 GMT-0500 (Central Daylight Time),429964.2999999821,cobalt,900,I,m,m,None,701,499.0,202.0,90,1,2131.399999976158,427832.90000000596,7769,cobalt,NF,C,427886,427886,426254,427168,426254,428385,427684,427684,428385,72
73,test,1,inc,1,m,Thu Mar 12 2026 09:31:00 GMT-0500 (Central Daylight Time),432029.0,lime,800,I,m,m,None,737,537.0,200.0,101,1,2061.0,429968.0,7769,gold,NF,C,429902,429902,428389,429201,428389,430450,429702,429702,430450,73
74,test,1,con,1,z,Thu Mar 12 2026 09:31:00 GMT-0500 (Central Daylight Time),434261.40000000596,cherry,1100,I,z,z,None,594,395.0,199.0,12,1,2227.5,432033.90000000596,7769,cherry,NF,C,432284,432284,430455,431567,430455,432682,432084,432084,432682,74
75,test,1,inc,1,z,Thu Mar 12 2026 09:31:00 GMT-0500 (Central Daylight Time),436494.90000000596,silver,1000,I,z,z,None,687,488.0,199.0,15,1,2228.2000000178814,434266.6999999881,7769,cherry,NF,C,434414,434414,432688,433699,432688,434916,434215,434215,434916,75
76,test,1,con,1,m,Thu Mar 12 2026 09:31:00 GMT-0500 (Central Daylight Time),438558.90000000596,silver,1000,I,m,m,None,525,326.0,199.0,83,1,2059.4000000059605,436499.5,7769,silver,NF,C,436649,436649,434921,435931,434921,436980,436450,436450,436980,76
77,test,1,inc,1,m,Thu Mar 12 2026 09:31:00 GMT-0500 (Central Daylight Time),440959.2999999821,raisin,1100,I,m,m,None,767,568.0,199.0,72,1,2397.0999999940395,438562.1999999881,7769,bronze,NF,C,438798,438798,436983,438098,436983,439380,438599,438599,439380,77
78,test,1,con,1,m,Thu Mar 12 2026 09:31:00 GMT-0500 (Central Daylight Time),443124.2999999821,silver,900,I,m,m,None,738,530.0,208.0,82,1,2160.699999988079,440963.59999999404,7769,silver,NF,C,441012,441012,439385,440298,439385,441545,440804,440804,441545,78
79,test,1,inc,1,m,Thu Mar 12 2026 09:31:00 GMT-0500 (Central Daylight Time),445207.6999999881,pear,900,I,m,m,None,642,425.0,217.0,126,1,2080.2999999821186,443127.40000000596,7769,lead,NF,C,443197,443197,441548,442464,441549,443629,442980,442980,443629,79
80,test,1,inc,1,m,Thu Mar 12 2026 09:31:00 GMT-0500 (Central Daylight Time),447309.6999999881,orange,1000,I,m,m,None,564,349.0,215.0,95,1,2098.9000000059605,445210.7999999821,7769,cobalt,NF,C,445380,445380,443632,444647,443632,445731,445164,445164,445731,80
81,test,1,con,1,z,Thu Mar 12 2026 09:31:00 GMT-0500 (Central Daylight Time),449407.5,plum,900,I,z,z,None,652,453.0,199.0,58,1,2093.800000011921,447313.6999999881,7769,plum,NF,C,447362,447362,445735,446645,445735,447829,447162,447162,447829,81
82,test,1,inc,1,z,Thu Mar 12 2026 09:31:00 GMT-0500 (Central Daylight Time),451439.7999999821,copper,900,I,z,z,None,583,383.0,200.0,6,1,2027.7999999821186,449412.0,7769,banana,NF,C,449463,449463,447833,448745,447833,449861,449262,449262,449861,82
83,test,1,inc,1,m,Thu Mar 12 2026 09:31:00 GMT-0500 (Central Daylight Time),453388.90000000596,banana,800,I,m,m,None,604,405.0,199.0,85,1,1944.300000011921,451444.59999999404,7769,silver,NF,C,451394,451394,449866,450677,449866,451810,451193,451194,451810,83
84,test,1,inc,1,m,Thu Mar 12 2026 09:31:00 GMT-0500 (Central Daylight Time),455522.5,banana,800,I,m,m,None,790,590.0,200.0,69,1,2127.5999999940395,453394.90000000596,7769,bronze,NF,C,453344,453344,451816,452627,451816,453944,453144,453144,453943,84
85,test,1,con,1,z,Thu Mar 12 2026 09:31:00 GMT-0500 (Central Daylight Time),457557.0,banana,800,I,z,z,None,691,492.0,199.0,1,1,2030.800000011921,455526.1999999881,7769,banana,NF,C,455475,455475,453947,454760,453947,455978,455276,455276,455978,85
86,test,1,inc,1,m,Thu Mar 12 2026 09:31:00 GMT-0500 (Central Daylight Time),459619.6999999881,pear,900,I,m,m,None,630,429.0,201.0,110,1,2058.5,457561.1999999881,7769,iron,NF,C,457610,457610,455982,456894,455982,458041,457409,457409,458041,86
87,test,1,inc,1,m,Thu Mar 12 2026 09:31:00 GMT-0500 (Central Daylight Time),461786.0,kiwi,1000,I,m,m,None,622,408.0,214.0,127,1,2162.5,459623.5,7769,lead,NF,C,459791,459791,458045,459057,458045,460207,459576,459576,460207,87
88,test,1,con,1,z,Thu Mar 12 2026 09:31:00 GMT-0500 (Central Daylight Time),464002.6999999881,raisin,900,I,z,z,None,774,558.0,216.0,26,1,2212.199999988079,461790.5,7769,raisin,NF,C,461857,461857,460212,461124,460212,462424,461641,461641,462424,88
89,test,1,inc,1,z,Thu Mar 12 2026 09:31:00 GMT-0500 (Central Daylight Time),466302.2999999821,cobalt,1100,I,z,z,None,650,449.0,201.0,16,1,2295.5,464006.7999999821,7769,cherry,NF,C,464257,464257,462428,463540,462428,464723,464056,464056,464723,89
90,test,1,con,1,z,Thu Mar 12 2026 09:31:00 GMT-0500 (Central Daylight Time),468368.2999999821,pear,900,I,z,z,None,626,427.0,199.0,42,1,2061.7999999821186,466306.5,7769,pear,NF,C,466356,466357,464728,465640,464728,466789,466157,466157,466789,90
91,test,1,con,1,z,Thu Mar 12 2026 09:31:00 GMT-0500 (Central Daylight Time),470565.7999999821,pear,1100,I,z,z,None,560,361.0,199.0,44,1,2193.0999999940395,468372.6999999881,7769,pear,NF,C,468622,468622,466794,467905,466794,468987,468423,468423,468987,91
92,test,1,con,1,z,Thu Mar 12 2026 09:31:00 GMT-0500 (Central Daylight Time),472732.59999999404,orange,1100,I,z,z,None,521,321.0,200.0,20,1,2163.699999988079,470568.90000000596,7769,orange,NF,C,470822,470822,468990,470105,468990,471154,470622,470622,471154,92
93,test,1,inc,1,z,Thu Mar 12 2026 09:31:00 GMT-0500 (Central Daylight Time),475049.6999999881,lead,1100,I,z,z,None,667,466.0,201.0,40,1,2312.199999988079,472737.5,7769,lime,NF,C,472988,472988,471159,472272,471159,473471,472787,472787,473471,93
94,test,1,con,1,z,Thu Mar 12 2026 09:31:00 GMT-0500 (Central Daylight Time),477097.90000000596,banana,900,I,z,z,None,606,391.0,215.0,2,1,2043.4000000059605,475054.5,7769,banana,NF,C,475120,475120,473476,474387,473476,475519,474904,474904,475519,94
95,test,1,con,1,z,Thu Mar 12 2026 09:31:00 GMT-0500 (Central Daylight Time),479063.59999999404,lime,900,I,z,z,None,526,326.0,200.0,34,1,1959.699999988079,477103.90000000596,7769,lime,NF,C,477152,477152,475525,476435,475525,477485,476952,476952,477485,95
95,test,1,con,0,m,Thu Mar 12 2026 09:31:00 GMT-0500 (Central Daylight Time),480913.1999999881,silver,800,I,z,z,None,500,301.0,199.0,81,1,1841.5,479071.6999999881,7769,silver,NF,C,479018,479018,477493,478302,477493,479334,478818,478818,479334,96
96,test,1,inc,1,z,Thu Mar 12 2026 09:31:00 GMT-0500 (Central Daylight Time),483079.0,cobalt,1100,I,z,z,None,517,302.0,215.0,8,1,2160.0,480919.0,7769,banana,NF,C,481185,481185,479340,480452,479340,481500,480969,480969,481500,97
97,test,1,inc,1,m,Thu Mar 12 2026 09:31:00 GMT-0500 (Central Daylight Time),485328.2999999821,plum,1100,I,m,m,None,600,400.0,200.0,112,1,2239.5999999940395,483088.6999999881,7769,iron,NF,C,483334,483334,481510,482616,481510,483749,483133,483133,483749,98
98,test,1,con,1,m,Thu Mar 12 2026 09:31:00 GMT-0500 (Central Daylight Time),487544.0,bronze,1000,I,m,m,None,667,468.0,199.0,67,1,2210.0,485334.0,7769,bronze,NF,C,485483,485483,483755,484766,483755,485965,485283,485283,485965,99
99,test,1,con,1,z,Thu Mar 12 2026 09:31:00 GMT-0500 (Central Daylight Time),489727.40000000596,pear,1000,I,z,z,None,636,436.0,200.0,43,1,2175.300000011921,487552.09999999404,7769,pear,NF,C,487698,487698,485973,486982,485973,488148,487498,487498,488148,100
100,test,1,inc,1,z,Thu Mar 12 2026 09:31:00 GMT-0500 (Central Daylight Time),492293.0,iron,900,I,z,z,None,1129,929.0,200.0,62,1,2558.4000000059605,489734.59999999404,7769,plum,NF,C,489782,489782,488156,489065,488156,490714,489581,489581,490714,101
101,test,1,inc,1,z,Thu Mar 12 2026 09:31:00 GMT-0500 (Central Daylight Time),494526.7999999821,copper,900,I,z,z,None,811,612.0,199.0,30,1,2228.199999988079,492298.59999999404,7769,raisin,NF,C,492331,492331,490720,491630,490720,492948,492131,492131,492948,102
102,test,1,inc,1,m,Thu Mar 12 2026 09:31:00 GMT-0500 (Central Daylight Time),496724.40000000596,kiwi,1000,I,m,m,None,662,462.0,200.0,111,1,2191.5,494532.90000000596,7769,iron,NF,C,494681,494681,492954,493964,492954,495146,494480,494480,495145,103
103,test,1,inc,1,z,Thu Mar 12 2026 09:31:00 GMT-0500 (Central Daylight Time),498690.59999999404,gold,800,I,z,z,None,631,432.0,199.0,45,1,1958.0,496732.59999999404,7769,pear,NF,C,496679,496679,495154,495962,495154,497112,496479,496479,497112,104
104,test,1,con,1,m,Thu Mar 12 2026 09:31:00 GMT-0500 (Central Daylight Time),500806.2999999821,lead,1000,I,m,m,None,578,378.0,200.0,123,1,2110.5,498695.7999999821,7769,lead,NF,C,498845,498845,497117,498130,497117,499227,498645,498645,499227,105
105,test,1,con,1,m,Thu Mar 12 2026 09:31:00 GMT-0500 (Central Daylight Time),502839.5,iron,900,I,m,m,None,591,376.0,215.0,106,1,2027.5,500812.0,7769,iron,NF,C,500878,500879,499233,500144,499233,501261,500663,500663,501260,106
106,test,1,con,1,z,Thu Mar 12 2026 09:31:00 GMT-0500 (Central Daylight Time),504889.6999999881,cherry,900,I,z,z,None,600,401.0,199.0,10,1,2043.199999988079,502846.5,7769,cherry,NF,C,502894,502894,501268,502177,501268,503311,502694,502694,503311,107
107,test,1,con,1,z,Thu Mar 12 2026 09:31:00 GMT-0500 (Central Daylight Time),507221.7999999821,plum,1000,I,z,z,None,793,578.0,215.0,59,1,2326.5999999940395,504895.1999999881,7769,plum,NF,C,505060,505060,503316,504327,503316,505643,504843,504844,505643,108
108,test,1,con,1,m,Thu Mar 12 2026 09:31:00 GMT-0500 (Central Daylight Time),509287.09999999404,lead,900,I,m,m,None,616,400.0,216.0,122,1,2061.699999988079,507225.40000000596,7769,lead,NF,C,507294,507294,505646,506559,505647,507708,507077,507077,507708,109
109,test,1,con,1,z,Thu Mar 12 2026 09:31:00 GMT-0500 (Central Daylight Time),511453.09999999404,cherry,1000,I,z,z,None,620,420.0,200.0,11,1,2163.0,509290.09999999404,7769,cherry,NF,C,509443,509443,507711,508725,507712,509874,509242,509242,509874,110
110,test,1,inc,1,m,Thu Mar 12 2026 09:31:00 GMT-0500 (Central Daylight Time),513652.90000000596,kiwi,1000,I,m,m,None,662,450.0,212.0,103,1,2195.5,511457.40000000596,7769,gold,NF,C,511608,511608,509878,510892,509879,512074,511396,511396,512074,111
111,test,1,inc,1,z,Thu Mar 12 2026 09:31:00 GMT-0500 (Central Daylight Time),515502.0,gold,800,I,z,z,None,510,311.0,199.0,37,1,1844.0,513658.0,7769,lime,NF,C,513608,513608,512079,512891,512079,513923,513407,513408,513923,112
112,test,1,inc,1,z,Thu Mar 12 2026 09:31:00 GMT-0500 (Central Daylight Time),517652.40000000596,iron,900,I,z,z,None,713,514.0,199.0,54,1,2142.9000000059605,515509.5,7769,kiwi,NF,C,515557,515557,513931,514841,513931,516073,515358,515358,516073,113
113,test,1,con,1,z,Thu Mar 12 2026 09:31:00 GMT-0500 (Central Daylight Time),519800.40000000596,banana,1100,I,z,z,None,508,309.0,199.0,4,1,2143.4000000059605,517657.0,7769,banana,NF,C,517906,517906,516078,517189,516078,518221,517706,517706,518221,114
114,test,1,con,1,z,Thu Mar 12 2026 09:31:00 GMT-0500 (Central Daylight Time),522150.7999999821,orange,1000,I,z,z,None,826,612.0,214.0,19,1,2344.699999988079,519806.09999999404,7769,orange,NF,C,519955,519955,518227,519239,518227,520572,519741,519741,520572,115
115,test,1,con,1,m,Thu Mar 12 2026 09:31:00 GMT-0500 (Central Daylight Time),524250.5,copper,1000,I,m,m,None,559,360.0,199.0,75,1,2093.0,522157.5,7769,copper,NF,C,522304,522304,520579,521587,520579,522672,522105,522105,522672,116
116,test,1,con,1,z,Thu Mar 12 2026 09:31:00 GMT-0500 (Central Daylight Time),526381.6999999881,kiwi,1000,I,z,z,None,585,386.0,199.0,51,1,2127.699999988079,524254.0,7769,kiwi,NF,C,524404,524404,522675,523687,522675,524803,524204,524204,524803,117
117,test,1,inc,1,m,Thu Mar 12 2026 09:31:00 GMT-0500 (Central Daylight Time),528567.1999999881,kiwi,1000,I,m,m,None,662,462.0,200.0,119,1,2182.5,526384.6999999881,7769,zinc,NF,C,526521,526521,524806,525819,524806,526988,526320,526320,526988,118
117,test,1,inc,0,m,Thu Mar 12 2026 09:31:00 GMT-0500 (Central Daylight Time),530532.099999994,cherry,900,I,z,z,None,531,315.0,216.0,86,1,1961.300000011921,528570.7999999821,7769,silver,NF,C,528636,528636,526992,527902,526992,528953,528420,528420,528953,119
118,test,1,con,1,z,Thu Mar 12 2026 09:31:00 GMT-0500 (Central Daylight Time),532547.400000006,kiwi,800,I,z,z,None,696,497.0,199.0,49,1,2009.1000000238419,530538.2999999821,7769,kiwi,NF,C,530469,530469,528959,529768,528960,530968,530270,530270,530968,120
119,test,1,con,1,m,Thu Mar 12 2026 09:31:00 GMT-0500 (Central Daylight Time),534479.1999999881,gold,800,I,m,m,None,592,393.0,199.0,97,1,1928.699999988079,532550.5,7769,gold,NF,C,532502,532502,530972,531785,530972,532900,532302,532302,532900,121
120,test,1,inc,1,z,Thu Mar 12 2026 09:31:00 GMT-0500 (Central Daylight Time),536461.2999999821,bronze,800,I,z,z,None,644,444.0,200.0,21,1,1974.2999999821186,534487.0,7769,orange,NF,C,534434,534434,532908,533718,532908,534882,534234,534234,534882,122
121,test,1,con,1,z,Thu Mar 12 2026 09:31:00 GMT-0500 (Central Daylight Time),538677.6999999881,kiwi,900,I,z,z,None,775,560.0,215.0,50,1,2213.9000000059605,536463.7999999821,7769,kiwi,NF,C,536533,536534,534885,535800,534885,537099,536318,536318,537099,123
122,test,1,inc,1,z,Thu Mar 12 2026 09:31:00 GMT-0500 (Central Daylight Time),540661.599999994,bronze,800,I,z,z,None,633,432.0,201.0,13,1,1979.800000011921,538681.7999999821,7769,cherry,NF,C,538634,538634,537103,537918,537103,539083,538432,538432,539083,124
123,test,1,con,1,z,Thu Mar 12 2026 09:31:00 GMT-0500 (Central Daylight Time),542577.900000006,orange,800,I,z,z,None,566,351.0,215.0,17,1,1913.6000000238419,540664.2999999821,7769,orange,NF,C,540632,540632,539085,539899,539086,540999,540417,540417,540999,125
124,test,1,inc,1,m,Thu Mar 12 2026 09:31:00 GMT-0500 (Central Daylight Time),544793.5,orange,1000,I,m,m,None,683,484.0,199.0,87,1,2210.7000000178814,542582.7999999821,7769,silver,NF,C,542730,542730,541004,542014,541004,543215,542531,542531,543215,126
125,test,1,inc,1,m,Thu Mar 12 2026 09:31:00 GMT-0500 (Central Daylight Time),546875.5,banana,800,I,m,m,None,737,538.0,199.0,77,1,2078.2000000178814,544797.2999999821,7769,copper,NF,C,544747,544748,543218,544032,543219,545297,544548,544548,545297,127
126,test,1,inc,1,m,Thu Mar 12 2026 09:31:00 GMT-0500 (Central Daylight Time),549075.0,pear,900,I,m,m,None,754,538.0,216.0,118,1,2194.5,546880.5,7769,zinc,NF,C,546948,546948,545302,546213,545302,547496,546731,546731,547496,128
