Number,acc_sum,block,block_c,block_cond,con_img,correct,correct_response,datetime,endtime,jitter,project,response,response_time,row_sel,session_number,start_end,starttime,subject_id,task,task_vers,trial
4,1,prac,1,A,circle.png,1,z,Wed Mar 25 2026 09:12:49 GMT-0500 (Central Daylight Time),81401.60000014305,1400,O,z,1203,4,1,3379.7000000476837,78021.90000009537,7786,NTS,C,1
8,2,prac,1,A,circle.png,1,m,Wed Mar 25 2026 09:12:49 GMT-0500 (Central Daylight Time),85114.10000014305,1600,O,m,1318,7,1,3702.600000143051,81411.5,7786,NTS,C,2
8,3,prac,1,A,circle.png,1,m,Wed Mar 25 2026 09:12:49 GMT-0500 (Central Daylight Time),88114.40000009537,1600,O,m,621,7,1,2996.2999999523163,85118.10000014305,7786,NTS,C,3
3,4,prac,1,A,circle.png,1,z,Wed Mar 25 2026 09:12:49 GMT-0500 (Central Daylight Time),90781.10000014305,1200,O,z,685,3,1,2661.2000000476837,88119.90000009537,7786,NTS,C,4
4,4,prac,1,A,circle.png,0,z,Wed Mar 25 2026 09:12:49 GMT-0500 (Central Daylight Time),93628.80000019073,1400,O,m,652,4,1,2841.5,90787.30000019073,7786,NTS,C,5
9,5,prac,1,A,circle.png,1,m,Wed Mar 25 2026 09:12:49 GMT-0500 (Central Daylight Time),96545.90000009537,1500,O,m,622,8,1,2909.7000000476837,93636.20000004768,7786,NTS,C,6
9,6,prac,1,A,circle.png,1,m,Wed Mar 25 2026 09:12:49 GMT-0500 (Central Daylight Time),99411.30000019073,1500,O,m,571,8,1,2857.800000190735,96553.5,7786,NTS,C,7
3,7,prac,1,A,circle.png,1,z,Wed Mar 25 2026 09:12:49 GMT-0500 (Central Daylight Time),102059.30000019073,1200,O,z,653,3,1,2641.2000000476837,99418.10000014305,7786,NTS,C,8
2,8,prac,1,A,circle.png,1,z,Wed Mar 25 2026 09:12:49 GMT-0500 (Central Daylight Time),105542.60000014305,2000,O,z,700,2,1,3475.4000000953674,102067.20000004768,7786,NTS,C,9
1,9,prac,1,A,circle.png,1,z,Wed Mar 25 2026 09:12:49 GMT-0500 (Central Daylight Time),108059.10000014305,1000,O,z,729,1,1,2510.4000000953674,105548.70000004768,7786,NTS,C,10
7,10,prac,1,A,circle.png,1,m,Wed Mar 25 2026 09:12:49 GMT-0500 (Central Daylight Time),111439.90000009537,1700,O,m,900,6,1,3372.0,108067.90000009537,7786,NTS,C,11
6,11,prac,1,A,circle.png,1,m,Wed Mar 25 2026 09:12:49 GMT-0500 (Central Daylight Time),114956.90000009537,1900,O,m,836,5,1,3510.0,111446.90000009537,7786,NTS,C,12
9,1,prac,1,B,triangle.png,1,z,Wed Mar 25 2026 09:12:49 GMT-0500 (Central Daylight Time),156692.30000019073,1400,O,z,1169,8,1,3358.2000000476837,153334.10000014305,7786,NTS,C,1
1,2,prac,1,B,triangle.png,1,z,Wed Mar 25 2026 09:12:49 GMT-0500 (Central Daylight Time),160025.10000014305,1900,O,z,640,1,1,3325.100000143051,156700.0,7786,NTS,C,2
8,3,prac,1,B,triangle.png,1,m,Wed Mar 25 2026 09:12:49 GMT-0500 (Central Daylight Time),162740.90000009537,1200,O,m,720,7,1,2709.2000000476837,160031.70000004768,7786,NTS,C,3
4,4,prac,1,B,triangle.png,1,m,Wed Mar 25 2026 09:12:49 GMT-0500 (Central Daylight Time),165690.70000004768,1500,O,m,668,4,1,2943.5999999046326,162747.10000014305,7786,NTS,C,4
7,5,prac,1,B,triangle.png,1,z,Wed Mar 25 2026 09:12:49 GMT-0500 (Central Daylight Time),169572.70000004768,2000,O,z,1102,6,1,3875.2000000476837,165697.5,7786,NTS,C,5
8,6,prac,1,B,triangle.png,1,m,Wed Mar 25 2026 09:12:49 GMT-0500 (Central Daylight Time),172276.60000014305,1200,O,m,724,7,1,2697.0,169579.60000014305,7786,NTS,C,6
3,7,prac,1,B,triangle.png,1,z,Wed Mar 25 2026 09:12:49 GMT-0500 (Central Daylight Time),175271.0,1600,O,z,611,3,1,2989.899999856949,172281.10000014305,7786,NTS,C,7
2,8,prac,1,B,triangle.png,1,m,Wed Mar 25 2026 09:12:49 GMT-0500 (Central Daylight Time),178552.70000004768,1700,O,m,790,2,1,3274.0999999046326,175278.60000014305,7786,NTS,C,8
4,9,prac,1,B,triangle.png,1,m,Wed Mar 25 2026 09:12:49 GMT-0500 (Central Daylight Time),181433.90000009537,1500,O,m,598,4,1,2874.7999999523163,178559.10000014305,7786,NTS,C,9
2,10,prac,1,B,triangle.png,1,m,Wed Mar 25 2026 09:12:49 GMT-0500 (Central Daylight Time),184767.40000009537,1700,O,m,858,2,1,3329.7000000476837,181437.70000004768,7786,NTS,C,10
6,11,prac,1,B,triangle.png,1,m,Wed Mar 25 2026 09:12:49 GMT-0500 (Central Daylight Time),187199.20000004768,1000,O,m,658,5,1,2425.399999856949,184773.80000019073,7786,NTS,C,11
7,12,prac,1,B,triangle.png,1,z,Wed Mar 25 2026 09:12:49 GMT-0500 (Central Daylight Time),190732.10000014305,2000,O,z,745,6,1,3526.100000143051,187206.0,7786,NTS,C,12
8,0,test,1,A,circle.png,0,m,Wed Mar 25 2026 09:12:49 GMT-0500 (Central Daylight Time),220607.20000004768,1600,O,None,1501,7,1,3112.2000000476837,217495.0,7786,NTS,C,1
4,1,test,1,A,circle.png,1,z,Wed Mar 25 2026 09:12:49 GMT-0500 (Central Daylight Time),223305.40000009537,1400,O,z,1265,4,1,2692.4000000953674,220613.0,7786,NTS,C,2
3,2,test,1,A,circle.png,1,z,Wed Mar 25 2026 09:12:49 GMT-0500 (Central Daylight Time),225303.30000019073,1200,O,z,765,3,1,1992.6000001430511,223310.70000004768,7786,NTS,C,3
2,3,test,1,A,circle.png,1,z,Wed Mar 25 2026 09:12:49 GMT-0500 (Central Daylight Time),228003.60000014305,2000,O,z,681,2,1,2695.9000000953674,225307.70000004768,7786,NTS,C,4
7,4,test,1,A,circle.png,1,m,Wed Mar 25 2026 09:12:49 GMT-0500 (Central Daylight Time),230453.5,1700,O,m,733,6,1,2444.2999999523163,228009.20000004768,7786,NTS,C,5
8,5,test,1,A,circle.png,1,m,Wed Mar 25 2026 09:12:49 GMT-0500 (Central Daylight Time),232868.80000019073,1600,O,m,800,7,1,2409.9000000953674,230458.90000009537,7786,NTS,C,6
7,6,test,1,A,circle.png,1,m,Wed Mar 25 2026 09:12:49 GMT-0500 (Central Daylight Time),235248.80000019073,1700,O,m,655,6,1,2375.100000143051,232873.70000004768,7786,NTS,C,7
6,7,test,1,A,circle.png,1,m,Wed Mar 25 2026 09:12:49 GMT-0500 (Central Daylight Time),237884.10000014305,1900,O,m,713,5,1,2631.7000000476837,235252.40000009537,7786,NTS,C,8
2,8,test,1,A,circle.png,1,z,Wed Mar 25 2026 09:12:49 GMT-0500 (Central Daylight Time),240781.40000009537,2000,O,z,876,2,1,2893.5999999046326,237887.80000019073,7786,NTS,C,9
4,9,test,1,A,circle.png,1,z,Wed Mar 25 2026 09:12:49 GMT-0500 (Central Daylight Time),242896.30000019073,1400,O,z,696,4,1,2111.9000000953674,240784.40000009537,7786,NTS,C,10
6,10,test,1,A,circle.png,1,m,Wed Mar 25 2026 09:12:49 GMT-0500 (Central Daylight Time),245597.90000009537,1900,O,m,778,5,1,2698.7999999523163,242899.10000014305,7786,NTS,C,11
9,11,test,1,A,circle.png,1,m,Wed Mar 25 2026 09:12:49 GMT-0500 (Central Daylight Time),247913.10000014305,1500,O,m,790,8,1,2309.5,245603.60000014305,7786,NTS,C,12
4,12,test,1,A,circle.png,1,z,Wed Mar 25 2026 09:12:49 GMT-0500 (Central Daylight Time),250180.90000009537,1400,O,z,844,4,1,2261.9000000953674,247919.0,7786,NTS,C,13
8,13,test,1,A,circle.png,1,m,Wed Mar 25 2026 09:12:49 GMT-0500 (Central Daylight Time),252728.10000014305,1600,O,m,915,7,1,2541.9000000953674,250186.20000004768,7786,NTS,C,14
1,14,test,1,A,circle.png,1,z,Wed Mar 25 2026 09:12:49 GMT-0500 (Central Daylight Time),254477.40000009537,1000,O,z,727,1,1,1742.7000000476837,252734.70000004768,7786,NTS,C,15
7,15,test,1,A,circle.png,1,m,Wed Mar 25 2026 09:12:49 GMT-0500 (Central Daylight Time),257111.40000009537,1700,O,m,910,6,1,2629.0,254482.40000009537,7786,NTS,C,16
2,16,test,1,A,circle.png,1,z,Wed Mar 25 2026 09:12:49 GMT-0500 (Central Daylight Time),259976.20000004768,2000,O,z,839,2,1,2857.5,257118.70000004768,7786,NTS,C,17
9,17,test,1,A,circle.png,1,m,Wed Mar 25 2026 09:12:49 GMT-0500 (Central Daylight Time),262575.10000014305,1500,O,m,1075,8,1,2595.100000143051,259980.0,7786,NTS,C,18
6,18,test,1,A,circle.png,1,m,Wed Mar 25 2026 09:12:49 GMT-0500 (Central Daylight Time),265191.2000000477,1900,O,m,684,5,1,2610.7000000476837,262580.5,7786,NTS,C,19
3,19,test,1,A,circle.png,1,z,Wed Mar 25 2026 09:12:49 GMT-0500 (Central Daylight Time),267156.7000000477,1200,O,z,737,3,1,1959.5999999046326,265197.10000014305,7786,NTS,C,20
3,20,test,1,A,circle.png,1,z,Wed Mar 25 2026 09:12:49 GMT-0500 (Central Daylight Time),269222.40000009537,1200,O,z,843,3,1,2056.5999999046326,267165.80000019073,7786,NTS,C,21
9,21,test,1,A,circle.png,1,m,Wed Mar 25 2026 09:12:49 GMT-0500 (Central Daylight Time),271473.5,1500,O,m,725,8,1,2244.0,269229.5,7786,NTS,C,22
8,22,test,1,A,circle.png,1,m,Wed Mar 25 2026 09:12:49 GMT-0500 (Central Daylight Time),273821.7000000477,1600,O,m,728,7,1,2344.7999999523163,271476.90000009537,7786,NTS,C,23
1,23,test,1,A,circle.png,1,z,Wed Mar 25 2026 09:12:49 GMT-0500 (Central Daylight Time),275504.90000009537,1000,O,z,649,1,1,1678.9000000953674,273826.0,7786,NTS,C,24
8,0,test,1,B,triangle.png,0,m,Wed Mar 25 2026 09:12:49 GMT-0500 (Central Daylight Time),305078.90000009537,1200,O,None,1516,7,1,2727.9000000953674,302351.0,7786,NTS,C,1
9,1,test,1,B,triangle.png,1,z,Wed Mar 25 2026 09:12:49 GMT-0500 (Central Daylight Time),308162.0,1900,O,z,1168,16,1,3078.899999856949,305083.10000014305,7786,NTS,C,2
2,2,test,1,B,triangle.png,1,m,Wed Mar 25 2026 09:12:49 GMT-0500 (Central Daylight Time),310509.60000014305,1200,O,m,1127,10,1,2342.4000000953674,308167.2000000477,7786,NTS,C,3
4,3,test,1,B,triangle.png,1,m,Wed Mar 25 2026 09:12:49 GMT-0500 (Central Daylight Time),312775.90000009537,1500,O,m,732,4,1,2261.4000000953674,310514.5,7786,NTS,C,4
1,4,test,1,B,triangle.png,1,z,Wed Mar 25 2026 09:12:49 GMT-0500 (Central Daylight Time),314875.10000014305,1400,O,z,670,9,1,2094.2000000476837,312780.90000009537,7786,NTS,C,5
6,5,test,1,B,triangle.png,1,m,Wed Mar 25 2026 09:12:49 GMT-0500 (Central Daylight Time),317107.60000014305,1500,O,m,705,13,1,2228.5,314879.10000014305,7786,NTS,C,6
8,6,test,1,B,triangle.png,1,m,Wed Mar 25 2026 09:12:49 GMT-0500 (Central Daylight Time),319523.40000009537,1700,O,m,688,15,1,2410.5,317112.90000009537,7786,NTS,C,7
3,7,test,1,B,triangle.png,1,z,Wed Mar 25 2026 09:12:49 GMT-0500 (Central Daylight Time),322291.40000009537,2000,O,z,748,11,1,2763.7999999523163,319527.60000014305,7786,NTS,C,8
7,7,test,1,B,triangle.png,0,z,Wed Mar 25 2026 09:12:49 GMT-0500 (Central Daylight Time),325821.40000009537,2000,O,None,1515,6,1,3525.9000000953674,322295.5,7786,NTS,C,9
2,8,test,1,B,triangle.png,1,m,Wed Mar 25 2026 09:12:49 GMT-0500 (Central Daylight Time),328371.80000019073,1700,O,m,833,2,1,2547.7000000476837,325824.10000014305,7786,NTS,C,10
6,9,test,1,B,triangle.png,1,m,Wed Mar 25 2026 09:12:49 GMT-0500 (Central Daylight Time),330453.40000009537,1000,O,m,1052,5,1,2077.4000000953674,328376.0,7786,NTS,C,11
3,10,test,1,B,triangle.png,1,z,Wed Mar 25 2026 09:12:49 GMT-0500 (Central Daylight Time),332935.7000000477,1600,O,z,858,3,1,2477.0,330458.7000000477,7786,NTS,C,12
6,11,test,1,B,triangle.png,1,m,Wed Mar 25 2026 09:12:49 GMT-0500 (Central Daylight Time),334770.40000009537,1000,O,m,806,5,1,1831.7999999523163,332938.60000014305,7786,NTS,C,13
4,12,test,1,B,triangle.png,1,m,Wed Mar 25 2026 09:12:49 GMT-0500 (Central Daylight Time),336451.60000014305,1000,O,m,655,12,1,1677.4000000953674,334774.2000000477,7786,NTS,C,14
3,13,test,1,B,triangle.png,1,z,Wed Mar 25 2026 09:12:49 GMT-0500 (Central Daylight Time),338883.80000019073,1600,O,z,804,3,1,2427.600000143051,336456.2000000477,7786,NTS,C,15
4,13,test,1,B,triangle.png,0,m,Wed Mar 25 2026 09:12:49 GMT-0500 (Central Daylight Time),341916.0,1500,O,None,1515,4,1,3027.699999809265,338888.30000019073,7786,NTS,C,16
7,14,test,1,B,triangle.png,1,z,Wed Mar 25 2026 09:12:49 GMT-0500 (Central Daylight Time),344465.90000009537,1600,O,z,932,14,1,2543.9000000953674,341922.0,7786,NTS,C,17
8,15,test,1,B,triangle.png,1,m,Wed Mar 25 2026 09:12:49 GMT-0500 (Central Daylight Time),347066.0,1700,O,m,883,15,1,2595.2999999523163,344470.7000000477,7786,NTS,C,18
2,16,test,1,B,triangle.png,1,m,Wed Mar 25 2026 09:12:49 GMT-0500 (Central Daylight Time),348864.60000014305,1200,O,m,566,10,1,1791.6000001430511,347073.0,7786,NTS,C,19
4,17,test,1,B,triangle.png,1,m,Wed Mar 25 2026 09:12:49 GMT-0500 (Central Daylight Time),350430.0,1000,O,m,543,12,1,1560.3999998569489,348869.60000014305,7786,NTS,C,20
1,18,test,1,B,triangle.png,1,z,Wed Mar 25 2026 09:12:49 GMT-0500 (Central Daylight Time),352514.10000014305,1400,O,z,649,9,1,2081.100000143051,350433.0,7786,NTS,C,21
7,19,test,1,B,triangle.png,1,z,Wed Mar 25 2026 09:12:49 GMT-0500 (Central Daylight Time),355095.5,1600,O,z,958,14,1,2576.399999856949,352519.10000014305,7786,NTS,C,22
9,20,test,1,B,triangle.png,1,z,Wed Mar 25 2026 09:12:49 GMT-0500 (Central Daylight Time),357260.7000000477,1400,O,z,743,8,1,2159.7999999523163,355100.90000009537,7786,NTS,C,23
1,21,test,1,B,triangle.png,1,z,Wed Mar 25 2026 09:12:49 GMT-0500 (Central Daylight Time),359794.10000014305,1900,O,z,609,1,1,2530.5,357263.60000014305,7786,NTS,C,24
1,0,prac,1,C,circle.png,0,z,Wed Mar 25 2026 09:12:49 GMT-0500 (Central Daylight Time),415493.90000009537,1700,O,None,1516,1,1,3995.5,411498.40000009537,7786,NTS,C,1
7,0,prac,1,C,triangle.png,0,z,Wed Mar 25 2026 09:12:49 GMT-0500 (Central Daylight Time),418993.30000019073,1200,O,None,1516,6,1,3489.800000190735,415503.5,7786,NTS,C,2
6,1,prac,1,C,circle.png,1,m,Wed Mar 25 2026 09:12:49 GMT-0500 (Central Daylight Time),422642.10000014305,2000,O,m,851,5,1,3642.9000000953674,418999.2000000477,7786,NTS,C,3
3,1,prac,1,C,triangle.png,0,z,Wed Mar 25 2026 09:12:49 GMT-0500 (Central Daylight Time),426438.60000014305,1500,O,None,1518,3,1,3790.0,422648.60000014305,7786,NTS,C,4
1,2,prac,1,C,circle.png,1,z,Wed Mar 25 2026 09:12:49 GMT-0500 (Central Daylight Time),429690.10000014305,1700,O,z,785,1,1,3246.4000000953674,426443.7000000477,7786,NTS,C,5
8,3,prac,1,C,triangle.png,1,m,Wed Mar 25 2026 09:12:49 GMT-0500 (Central Daylight Time),432803.10000014305,1400,O,m,920,7,1,3106.2999999523163,429696.80000019073,7786,NTS,C,6
4,4,prac,1,C,circle.png,1,z,Wed Mar 25 2026 09:12:49 GMT-0500 (Central Daylight Time),435705.5,1000,O,z,1109,4,1,2898.899999856949,432806.60000014305,7786,NTS,C,7
3,5,prac,1,C,triangle.png,1,z,Wed Mar 25 2026 09:12:49 GMT-0500 (Central Daylight Time),438769.0,1500,O,z,783,3,1,3058.0,435711.0,7786,NTS,C,8
9,5,prac,1,C,circle.png,0,m,Wed Mar 25 2026 09:12:49 GMT-0500 (Central Daylight Time),442952.7000000477,1900,O,None,1501,8,1,4176.399999856949,438776.30000019073,7786,NTS,C,9
2,5,prac,1,C,triangle.png,0,m,Wed Mar 25 2026 09:12:49 GMT-0500 (Central Daylight Time),446069.0,1600,O,z,744,2,1,3109.699999809265,442959.30000019073,7786,NTS,C,10
8,6,prac,1,C,triangle.png,1,m,Wed Mar 25 2026 09:12:49 GMT-0500 (Central Daylight Time),449582.40000009537,1400,O,m,1324,7,1,3506.5999999046326,446075.80000019073,7786,NTS,C,11
7,6,prac,1,C,triangle.png,0,z,Wed Mar 25 2026 09:12:49 GMT-0500 (Central Daylight Time),453081.5,1200,O,None,1516,6,1,3492.2999999523163,449589.2000000477,7786,NTS,C,12
2,0,prac,2,C,triangle.png,0,m,Wed Mar 25 2026 09:12:49 GMT-0500 (Central Daylight Time),463811.0,1600,O,None,1515,2,1,3892.899999856949,459918.10000014305,7786,NTS,C,1
4,0,prac,2,C,circle.png,0,z,Wed Mar 25 2026 09:12:49 GMT-0500 (Central Daylight Time),467111.60000014305,1000,O,None,1517,4,1,3294.0,463817.60000014305,7786,NTS,C,2
8,1,prac,2,C,triangle.png,1,m,Wed Mar 25 2026 09:12:49 GMT-0500 (Central Daylight Time),470475.60000014305,1400,O,m,1178,7,1,3357.2999999523163,467118.30000019073,7786,NTS,C,3
2,1,prac,2,C,triangle.png,0,m,Wed Mar 25 2026 09:12:49 GMT-0500 (Central Daylight Time),474373.90000009537,1600,O,None,1515,2,1,3890.2000000476837,470483.7000000477,7786,NTS,C,4
3,2,prac,2,C,triangle.png,1,z,Wed Mar 25 2026 09:12:49 GMT-0500 (Central Daylight Time),477407.2000000477,1500,O,z,742,3,1,3027.2999999523163,474379.90000009537,7786,NTS,C,5
4,2,prac,2,C,circle.png,0,z,Wed Mar 25 2026 09:12:49 GMT-0500 (Central Daylight Time),479989.40000009537,1000,O,m,794,4,1,2574.5999999046326,477414.80000019073,7786,NTS,C,6
6,3,prac,2,C,circle.png,1,m,Wed Mar 25 2026 09:12:49 GMT-0500 (Central Daylight Time),483871.5,2000,O,m,1100,5,1,3876.899999856949,479994.60000014305,7786,NTS,C,7
8,3,prac,2,C,triangle.png,0,m,Wed Mar 25 2026 09:12:49 GMT-0500 (Central Daylight Time),487554.90000009537,1400,O,None,1517,7,1,3676.2999999523163,483878.60000014305,7786,NTS,C,8
3,4,prac,2,C,triangle.png,1,z,Wed Mar 25 2026 09:12:49 GMT-0500 (Central Daylight Time),490718.80000019073,1500,O,z,867,3,1,3157.800000190735,487561.0,7786,NTS,C,9
1,5,prac,2,C,circle.png,1,z,Wed Mar 25 2026 09:12:49 GMT-0500 (Central Daylight Time),494101.80000019073,1700,O,z,885,1,1,3369.7000000476837,490732.10000014305,7786,NTS,C,10
7,5,prac,2,C,triangle.png,0,z,Wed Mar 25 2026 09:12:49 GMT-0500 (Central Daylight Time),497250.10000014305,1200,O,m,1163,6,1,3140.100000143051,494110.0,7786,NTS,C,11
9,6,prac,2,C,circle.png,1,m,Wed Mar 25 2026 09:12:49 GMT-0500 (Central Daylight Time),501316.90000009537,1900,O,m,1378,8,1,4059.0,497257.90000009537,7786,NTS,C,12
4,0,prac,3,C,circle.png,0,z,Wed Mar 25 2026 09:12:49 GMT-0500 (Central Daylight Time),515327.80000019073,1000,O,None,1516,4,1,3290.800000190735,512037.0,7786,NTS,C,1
7,0,prac,3,C,triangle.png,0,z,Wed Mar 25 2026 09:12:49 GMT-0500 (Central Daylight Time),518243.10000014305,1200,O,m,927,6,1,2909.7000000476837,515333.40000009537,7786,NTS,C,2
8,1,prac,3,C,triangle.png,1,m,Wed Mar 25 2026 09:12:49 GMT-0500 (Central Daylight Time),521258.90000009537,1400,O,m,829,7,1,3009.4000000953674,518249.5,7786,NTS,C,3
3,2,prac,3,C,triangle.png,1,z,Wed Mar 25 2026 09:12:49 GMT-0500 (Central Daylight Time),524408.2000000477,1500,O,z,858,3,1,3142.0,521266.2000000477,7786,NTS,C,4
1,3,prac,3,C,circle.png,1,z,Wed Mar 25 2026 09:12:49 GMT-0500 (Central Daylight Time),527524.7000000477,1700,O,z,630,1,1,3110.0,524414.7000000477,7786,NTS,C,5
2,3,prac,3,C,triangle.png,0,m,Wed Mar 25 2026 09:12:49 GMT-0500 (Central Daylight Time),530640.9000000954,1600,O,z,747,2,1,3108.7000000476837,527532.2000000477,7786,NTS,C,6
6,4,prac,3,C,circle.png,1,m,Wed Mar 25 2026 09:12:49 GMT-0500 (Central Daylight Time),534555.2000000477,2000,O,m,1130,5,1,3908.5999999046326,530646.600000143,7786,NTS,C,7
9,4,prac,3,C,circle.png,0,m,Wed Mar 25 2026 09:12:49 GMT-0500 (Central Daylight Time),538238.2000000477,1900,O,z,985,8,1,3676.2999999523163,534561.9000000954,7786,NTS,C,8
9,4,prac,3,C,circle.png,0,m,Wed Mar 25 2026 09:12:49 GMT-0500 (Central Daylight Time),542434.2000000477,1900,O,None,1516,8,1,4188.5,538245.7000000477,7786,NTS,C,9
1,5,prac,3,C,circle.png,1,z,Wed Mar 25 2026 09:12:49 GMT-0500 (Central Daylight Time),545787.0,1700,O,z,856,1,1,3349.5,542437.5,7786,NTS,C,10
4,5,prac,3,C,circle.png,0,z,Wed Mar 25 2026 09:12:49 GMT-0500 (Central Daylight Time),548185.5,1000,O,m,621,4,1,2392.5,545793.0,7786,NTS,C,11
7,5,prac,3,C,triangle.png,0,z,Wed Mar 25 2026 09:12:49 GMT-0500 (Central Daylight Time),551150.100000143,1200,O,m,969,6,1,2959.4000000953674,548190.7000000477,7786,NTS,C,12
7,0,prac,4,C,triangle.png,0,z,Wed Mar 25 2026 09:12:49 GMT-0500 (Central Daylight Time),596202.2000000477,1200,O,None,1515,6,1,3489.7000000476837,592712.5,7786,NTS,C,1
4,0,prac,4,C,circle.png,0,z,Wed Mar 25 2026 09:12:49 GMT-0500 (Central Daylight Time),599501.4000000954,1000,O,None,1516,4,1,3292.2000000476837,596209.2000000477,7786,NTS,C,2
9,0,prac,4,C,circle.png,0,m,Wed Mar 25 2026 09:12:49 GMT-0500 (Central Daylight Time),603634.2000000477,1900,O,z,1439,8,1,4125.899999856949,599508.3000001907,7786,NTS,C,3
4,0,prac,4,C,circle.png,0,z,Wed Mar 25 2026 09:12:49 GMT-0500 (Central Daylight Time),606932.3000001907,1000,O,None,1516,4,1,3293.9000000953674,603638.4000000954,7786,NTS,C,4
3,1,prac,4,C,triangle.png,1,z,Wed Mar 25 2026 09:12:49 GMT-0500 (Central Daylight Time),610014.3000001907,1500,O,z,790,3,1,3075.100000143051,606939.2000000477,7786,NTS,C,5
6,2,prac,4,C,circle.png,1,m,Wed Mar 25 2026 09:12:49 GMT-0500 (Central Daylight Time),613446.7000000477,2000,O,m,641,5,1,3423.7999999523163,610022.9000000954,7786,NTS,C,6
2,2,prac,4,C,triangle.png,0,m,Wed Mar 25 2026 09:12:49 GMT-0500 (Central Daylight Time),616778.5,1600,O,z,937,2,1,3326.0,613452.5,7786,NTS,C,7
8,3,prac,4,C,triangle.png,1,m,Wed Mar 25 2026 09:12:49 GMT-0500 (Central Daylight Time),620060.3000001907,1400,O,m,1084,7,1,3274.100000143051,616786.2000000477,7786,NTS,C,8
1,4,prac,4,C,circle.png,1,z,Wed Mar 25 2026 09:12:49 GMT-0500 (Central Daylight Time),623260.3000001907,1700,O,z,711,1,1,3194.2000000476837,620066.100000143,7786,NTS,C,9
2,5,prac,4,C,triangle.png,1,m,Wed Mar 25 2026 09:12:49 GMT-0500 (Central Daylight Time),626992.100000143,1600,O,m,1334,2,1,3725.0,623267.100000143,7786,NTS,C,10
6,6,prac,4,C,circle.png,1,m,Wed Mar 25 2026 09:12:49 GMT-0500 (Central Daylight Time),630357.5,2000,O,m,577,5,1,3358.7999999523163,626998.7000000477,7786,NTS,C,11
7,7,prac,4,C,triangle.png,1,z,Wed Mar 25 2026 09:12:49 GMT-0500 (Central Daylight Time),633640.0,1200,O,z,1290,6,1,3272.0999999046326,630367.9000000954,7786,NTS,C,12
6,1,prac,5,C,circle.png,1,m,Wed Mar 25 2026 09:12:49 GMT-0500 (Central Daylight Time),641389.4000000954,2000,O,m,1046,5,1,3827.0999999046326,637562.3000001907,7786,NTS,C,1
1,2,prac,5,C,circle.png,1,z,Wed Mar 25 2026 09:12:49 GMT-0500 (Central Daylight Time),644818.5,1700,O,z,943,1,1,3422.0999999046326,641396.4000000954,7786,NTS,C,2
1,3,prac,5,C,circle.png,1,z,Wed Mar 25 2026 09:12:49 GMT-0500 (Central Daylight Time),648070.100000143,1700,O,z,751,1,1,3248.100000143051,644822.0,7786,NTS,C,3
7,4,prac,5,C,triangle.png,1,z,Wed Mar 25 2026 09:12:49 GMT-0500 (Central Daylight Time),650836.2000000477,1200,O,z,789,6,1,2760.2999999523163,648075.9000000954,7786,NTS,C,4
9,4,prac,5,C,circle.png,0,m,Wed Mar 25 2026 09:12:49 GMT-0500 (Central Daylight Time),654233.3000001907,1900,O,z,717,8,1,3390.300000190735,650843.0,7786,NTS,C,5
2,4,prac,5,C,triangle.png,0,m,Wed Mar 25 2026 09:12:49 GMT-0500 (Central Daylight Time),657349.3000001907,1600,O,z,719,2,1,3108.600000143051,654240.7000000477,7786,NTS,C,6
8,5,prac,5,C,triangle.png,1,m,Wed Mar 25 2026 09:12:49 GMT-0500 (Central Daylight Time),660614.9000000954,1400,O,m,1073,7,1,3259.0,657355.9000000954,7786,NTS,C,7
9,6,prac,5,C,circle.png,1,m,Wed Mar 25 2026 09:12:49 GMT-0500 (Central Daylight Time),664048.4000000954,1900,O,m,743,8,1,3428.0,660620.4000000954,7786,NTS,C,8
3,7,prac,5,C,triangle.png,1,z,Wed Mar 25 2026 09:12:49 GMT-0500 (Central Daylight Time),667063.8000001907,1500,O,z,718,3,1,3008.600000143051,664055.2000000477,7786,NTS,C,9
4,7,prac,5,C,circle.png,0,z,Wed Mar 25 2026 09:12:49 GMT-0500 (Central Daylight Time),669695.0,1000,O,m,844,4,1,2624.699999809265,667070.3000001907,7786,NTS,C,10
3,8,prac,5,C,triangle.png,1,z,Wed Mar 25 2026 09:12:49 GMT-0500 (Central Daylight Time),672861.100000143,1500,O,z,876,3,1,3162.7000000476837,669698.4000000954,7786,NTS,C,11
6,9,prac,5,C,circle.png,1,m,Wed Mar 25 2026 09:12:49 GMT-0500 (Central Daylight Time),676326.7000000477,2000,O,m,666,5,1,3458.7999999523163,672867.9000000954,7786,NTS,C,12
4,1,test,1,C,triangle.png,1,m,Wed Mar 25 2026 09:12:49 GMT-0500 (Central Daylight Time),693204.100000143,1500,O,m,832,12,1,2361.2000000476837,690842.9000000954,7786,NTS,C,1
8,2,test,1,C,triangle.png,1,m,Wed Mar 25 2026 09:12:49 GMT-0500 (Central Daylight Time),695836.8000001907,1600,O,m,1012,23,1,2628.300000190735,693208.5,7786,NTS,C,2
4,3,test,1,C,triangle.png,1,m,Wed Mar 25 2026 09:12:49 GMT-0500 (Central Daylight Time),698337.0,1500,O,m,974,20,1,2496.5,695840.5,7786,NTS,C,3
9,4,test,1,C,circle.png,1,m,Wed Mar 25 2026 09:12:49 GMT-0500 (Central Daylight Time),701135.7000000477,1500,O,m,1269,24,1,2794.399999856949,698341.3000001907,7786,NTS,C,4
3,5,test,1,C,triangle.png,1,z,Wed Mar 25 2026 09:12:49 GMT-0500 (Central Daylight Time),703650.7000000477,1200,O,z,1297,3,1,2510.2000000476837,701140.5,7786,NTS,C,5
6,6,test,1,C,circle.png,1,m,Wed Mar 25 2026 09:12:49 GMT-0500 (Central Daylight Time),706749.2000000477,1900,O,m,1167,5,1,3092.7000000476837,703656.5,7786,NTS,C,6
8,7,test,1,C,triangle.png,1,m,Wed Mar 25 2026 09:12:49 GMT-0500 (Central Daylight Time),709615.7000000477,1600,O,m,1244,7,1,2860.2000000476837,706755.5,7786,NTS,C,7
7,7,test,1,C,triangle.png,0,z,Wed Mar 25 2026 09:12:49 GMT-0500 (Central Daylight Time),712849.0,1700,O,None,1515,22,1,3228.699999809265,709620.3000001907,7786,NTS,C,8
9,8,test,1,C,triangle.png,1,z,Wed Mar 25 2026 09:12:49 GMT-0500 (Central Daylight Time),715019.600000143,1400,O,z,753,16,1,2167.5,712852.100000143,7786,NTS,C,9
6,9,test,1,C,circle.png,1,m,Wed Mar 25 2026 09:12:49 GMT-0500 (Central Daylight Time),718113.9000000954,1900,O,m,1165,21,1,3091.2000000476837,715022.7000000477,7786,NTS,C,10
2,9,test,1,C,triangle.png,0,m,Wed Mar 25 2026 09:12:49 GMT-0500 (Central Daylight Time),720795.600000143,2000,O,z,650,2,1,2675.9000000953674,718119.7000000477,7786,NTS,C,11
7,9,test,1,C,circle.png,0,m,Wed Mar 25 2026 09:12:49 GMT-0500 (Central Daylight Time),724080.600000143,2000,O,z,1263,14,1,3278.7000000476837,720801.9000000954,7786,NTS,C,12
6,10,test,1,C,triangle.png,1,m,Wed Mar 25 2026 09:12:49 GMT-0500 (Central Daylight Time),726344.600000143,1000,O,m,1248,13,1,2257.7999999523163,724086.8000001907,7786,NTS,C,13
3,11,test,1,C,circle.png,1,z,Wed Mar 25 2026 09:12:49 GMT-0500 (Central Daylight Time),729095.8000001907,1600,O,z,1128,19,1,2745.300000190735,726350.5,7786,NTS,C,14
7,11,test,1,C,triangle.png,0,z,Wed Mar 25 2026 09:12:49 GMT-0500 (Central Daylight Time),732008.600000143,1700,O,m,1192,6,1,2908.100000143051,729100.5,7786,NTS,C,15
2,11,test,1,C,circle.png,0,z,Wed Mar 25 2026 09:12:49 GMT-0500 (Central Daylight Time),735243.100000143,1700,O,None,1517,10,1,3229.7999999523163,732013.3000001907,7786,NTS,C,16
3,11,test,1,C,circle.png,0,z,Wed Mar 25 2026 09:12:49 GMT-0500 (Central Daylight Time),738374.2000000477,1600,O,None,1513,11,1,3124.5,735249.7000000477,7786,NTS,C,17
4,11,test,1,C,circle.png,0,z,Wed Mar 25 2026 09:12:49 GMT-0500 (Central Daylight Time),740473.2000000477,1400,O,m,675,4,1,2090.899999856949,738382.3000001907,7786,NTS,C,18
8,12,test,1,C,circle.png,1,m,Wed Mar 25 2026 09:12:49 GMT-0500 (Central Daylight Time),742988.2000000477,1200,O,m,1287,15,1,2511.0999999046326,740477.100000143,7786,NTS,C,19
2,12,test,1,C,circle.png,0,z,Wed Mar 25 2026 09:12:49 GMT-0500 (Central Daylight Time),745521.100000143,1700,O,m,809,18,1,2529.600000143051,742991.5,7786,NTS,C,20
1,13,test,1,C,circle.png,1,z,Wed Mar 25 2026 09:12:49 GMT-0500 (Central Daylight Time),747787.4000000954,1000,O,z,1249,1,1,2262.7999999523163,745524.600000143,7786,NTS,C,21
1,14,test,1,C,triangle.png,1,z,Wed Mar 25 2026 09:12:49 GMT-0500 (Central Daylight Time),750437.0,1900,O,z,729,9,1,2643.5,747793.5,7786,NTS,C,22
1,15,test,1,C,triangle.png,1,z,Wed Mar 25 2026 09:12:49 GMT-0500 (Central Daylight Time),753718.9000000954,1900,O,z,1350,17,1,3278.7000000476837,750440.2000000477,7786,NTS,C,23
9,15,test,1,C,circle.png,0,m,Wed Mar 25 2026 09:12:49 GMT-0500 (Central Daylight Time),756751.9000000954,1500,O,None,1516,8,1,3026.9000000953674,753725.0,7786,NTS,C,24
1,1,test,2,C,circle.png,1,z,Wed Mar 25 2026 09:12:49 GMT-0500 (Central Daylight Time),770697.8000001907,1000,O,z,817,1,1,1845.8000001907349,768852.0,7786,NTS,C,1
8,2,test,2,C,triangle.png,1,m,Wed Mar 25 2026 09:12:49 GMT-0500 (Central Daylight Time),773546.8000001907,1600,O,m,1233,7,1,2844.2000000476837,770702.600000143,7786,NTS,C,2
2,3,test,2,C,circle.png,1,z,Wed Mar 25 2026 09:12:49 GMT-0500 (Central Daylight Time),776062.8000001907,1700,O,z,781,10,1,2510.300000190735,773552.5,7786,NTS,C,3
2,3,test,2,C,triangle.png,0,m,Wed Mar 25 2026 09:12:49 GMT-0500 (Central Daylight Time),779594.600000143,2000,O,None,1516,2,1,3527.100000143051,776067.5,7786,NTS,C,4
6,4,test,2,C,circle.png,1,m,Wed Mar 25 2026 09:12:49 GMT-0500 (Central Daylight Time),782175.8000001907,1900,O,m,652,5,1,2576.100000143051,779599.7000000477,7786,NTS,C,5
9,5,test,2,C,triangle.png,1,z,Wed Mar 25 2026 09:12:49 GMT-0500 (Central Daylight Time),784342.9000000954,1400,O,z,742,24,1,2162.9000000953674,782180.0,7786,NTS,C,6
6,6,test,2,C,triangle.png,1,m,Wed Mar 25 2026 09:12:49 GMT-0500 (Central Daylight Time),786410.4000000954,1000,O,m,1035,21,1,2062.5999999046326,784347.8000001907,7786,NTS,C,7
3,7,test,2,C,circle.png,1,z,Wed Mar 25 2026 09:12:49 GMT-0500 (Central Daylight Time),789040.9000000954,1600,O,z,1008,11,1,2626.2000000476837,786414.7000000477,7786,NTS,C,8
1,8,test,2,C,triangle.png,1,z,Wed Mar 25 2026 09:12:49 GMT-0500 (Central Daylight Time),791790.2000000477,1900,O,z,828,17,1,2746.0,789044.2000000477,7786,NTS,C,9
8,9,test,2,C,circle.png,1,m,Wed Mar 25 2026 09:12:49 GMT-0500 (Central Daylight Time),793956.8000001907,1200,O,m,938,23,1,2161.4000000953674,791795.4000000954,7786,NTS,C,10
9,9,test,2,C,circle.png,0,m,Wed Mar 25 2026 09:12:49 GMT-0500 (Central Daylight Time),796771.3000001907,1500,O,z,1286,8,1,2809.9000000953674,793961.4000000954,7786,NTS,C,11
9,9,test,2,C,triangle.png,0,z,Wed Mar 25 2026 09:12:49 GMT-0500 (Central Daylight Time),799705.8000001907,1400,O,None,1516,16,1,2929.300000190735,796776.5,7786,NTS,C,12
7,9,test,2,C,circle.png,0,m,Wed Mar 25 2026 09:12:49 GMT-0500 (Central Daylight Time),802969.5,2000,O,z,1240,14,1,3258.199999809265,799711.3000001907,7786,NTS,C,13
6,9,test,2,C,triangle.png,0,m,Wed Mar 25 2026 09:12:49 GMT-0500 (Central Daylight Time),805503.0,1000,O,None,1517,13,1,2529.5,802973.5,7786,NTS,C,14
7,10,test,2,C,circle.png,1,m,Wed Mar 25 2026 09:12:49 GMT-0500 (Central Daylight Time),808267.4000000954,2000,O,m,737,22,1,2758.5,805508.9000000954,7786,NTS,C,15
2,11,test,2,C,circle.png,1,z,Wed Mar 25 2026 09:12:49 GMT-0500 (Central Daylight Time),810784.7000000477,1700,O,z,782,18,1,2513.0,808271.7000000477,7786,NTS,C,16
3,12,test,2,C,circle.png,1,z,Wed Mar 25 2026 09:12:49 GMT-0500 (Central Daylight Time),813235.100000143,1600,O,z,833,19,1,2446.2999999523163,810788.8000001907,7786,NTS,C,17
4,13,test,2,C,triangle.png,1,m,Wed Mar 25 2026 09:12:49 GMT-0500 (Central Daylight Time),815466.0,1500,O,m,716,20,1,2225.7999999523163,813240.2000000477,7786,NTS,C,18
8,13,test,2,C,circle.png,0,m,Wed Mar 25 2026 09:12:49 GMT-0500 (Central Daylight Time),818197.8000001907,1200,O,None,1515,15,1,2726.300000190735,815471.5,7786,NTS,C,19
3,14,test,2,C,triangle.png,1,z,Wed Mar 25 2026 09:12:49 GMT-0500 (Central Daylight Time),820229.9000000954,1200,O,z,810,3,1,2026.5,818203.4000000954,7786,NTS,C,20
7,15,test,2,C,triangle.png,1,z,Wed Mar 25 2026 09:12:49 GMT-0500 (Central Daylight Time),822897.3000001907,1700,O,z,947,6,1,2663.0,820234.3000001907,7786,NTS,C,21
4,16,test,2,C,triangle.png,1,m,Wed Mar 25 2026 09:12:49 GMT-0500 (Central Daylight Time),825446.0,1500,O,m,1019,12,1,2546.199999809265,822899.8000001907,7786,NTS,C,22
1,17,test,2,C,triangle.png,1,z,Wed Mar 25 2026 09:12:49 GMT-0500 (Central Daylight Time),828277.600000143,1900,O,z,907,9,1,2827.600000143051,825450.0,7786,NTS,C,23
4,18,test,2,C,circle.png,1,z,Wed Mar 25 2026 09:12:49 GMT-0500 (Central Daylight Time),830911.600000143,1400,O,z,1211,4,1,2630.5,828281.100000143,7786,NTS,C,24
9,0,test,3,C,triangle.png,0,z,Wed Mar 25 2026 09:12:49 GMT-0500 (Central Daylight Time),841607.600000143,1400,O,m,1060,16,1,2477.9000000953674,839129.7000000477,7786,NTS,C,1
1,0,test,3,C,circle.png,0,z,Wed Mar 25 2026 09:12:49 GMT-0500 (Central Daylight Time),844139.9000000954,1000,O,None,1515,1,1,2527.5999999046326,841612.3000001907,7786,NTS,C,2
1,0,test,3,C,triangle.png,0,z,Wed Mar 25 2026 09:12:49 GMT-0500 (Central Daylight Time),847572.100000143,1900,O,None,1516,9,1,3424.600000143051,844147.5,7786,NTS,C,3
9,1,test,3,C,circle.png,1,m,Wed Mar 25 2026 09:12:49 GMT-0500 (Central Daylight Time),850220.8000001907,1500,O,m,1121,24,1,2640.7000000476837,847580.100000143,7786,NTS,C,4
8,2,test,3,C,triangle.png,1,m,Wed Mar 25 2026 09:12:49 GMT-0500 (Central Daylight Time),853137.8000001907,1600,O,m,1291,7,1,2907.2000000476837,850230.600000143,7786,NTS,C,5
2,2,test,3,C,triangle.png,0,m,Wed Mar 25 2026 09:12:49 GMT-0500 (Central Daylight Time),855969.8000001907,2000,O,z,800,2,1,2826.600000143051,853143.2000000477,7786,NTS,C,6
2,3,test,3,C,triangle.png,1,m,Wed Mar 25 2026 09:12:49 GMT-0500 (Central Daylight Time),859434.7000000477,2000,O,m,1439,18,1,3458.2000000476837,855976.5,7786,NTS,C,7
6,4,test,3,C,triangle.png,1,m,Wed Mar 25 2026 09:12:49 GMT-0500 (Central Daylight Time),861451.4000000954,1000,O,m,990,13,1,2010.9000000953674,859440.5,7786,NTS,C,8
4,5,test,3,C,circle.png,1,z,Wed Mar 25 2026 09:12:49 GMT-0500 (Central Daylight Time),864000.7000000477,1400,O,z,1126,4,1,2541.899999856949,861458.8000001907,7786,NTS,C,9
1,6,test,3,C,circle.png,1,z,Wed Mar 25 2026 09:12:49 GMT-0500 (Central Daylight Time),865600.4000000954,1000,O,z,576,17,1,1594.2999999523163,864006.100000143,7786,NTS,C,10
6,7,test,3,C,circle.png,1,m,Wed Mar 25 2026 09:12:49 GMT-0500 (Central Daylight Time),868748.3000001907,1900,O,m,1228,21,1,3140.300000190735,865608.0,7786,NTS,C,11
8,8,test,3,C,circle.png,1,m,Wed Mar 25 2026 09:12:49 GMT-0500 (Central Daylight Time),870581.0,1200,O,m,603,15,1,1828.8999998569489,868752.100000143,7786,NTS,C,12
3,9,test,3,C,circle.png,1,z,Wed Mar 25 2026 09:12:49 GMT-0500 (Central Daylight Time),873031.7000000477,1600,O,z,827,11,1,2445.899999856949,870585.8000001907,7786,NTS,C,13
4,9,test,3,C,circle.png,0,z,Wed Mar 25 2026 09:12:49 GMT-0500 (Central Daylight Time),875314.2000000477,1400,O,m,849,20,1,2277.5,873036.7000000477,7786,NTS,C,14
7,10,test,3,C,circle.png,1,m,Wed Mar 25 2026 09:12:49 GMT-0500 (Central Daylight Time),877995.5,2000,O,m,655,14,1,2676.899999856949,875318.600000143,7786,NTS,C,15
4,10,test,3,C,triangle.png,0,m,Wed Mar 25 2026 09:12:49 GMT-0500 (Central Daylight Time),880248.5,1500,O,z,721,12,1,2250.199999809265,877998.3000001907,7786,NTS,C,16
7,11,test,3,C,triangle.png,1,z,Wed Mar 25 2026 09:12:49 GMT-0500 (Central Daylight Time),883027.5,1700,O,z,1063,22,1,2776.0,880251.5,7786,NTS,C,17
8,12,test,3,C,triangle.png,1,m,Wed Mar 25 2026 09:12:49 GMT-0500 (Central Daylight Time),885826.2000000477,1600,O,m,1182,23,1,2795.399999856949,883030.8000001907,7786,NTS,C,18
6,13,test,3,C,circle.png,1,m,Wed Mar 25 2026 09:12:49 GMT-0500 (Central Daylight Time),888859.4000000954,1900,O,m,1106,5,1,3027.5999999046326,885831.8000001907,7786,NTS,C,19
9,14,test,3,C,circle.png,1,m,Wed Mar 25 2026 09:12:49 GMT-0500 (Central Daylight Time),891839.3000001907,1500,O,m,1455,8,1,2974.2000000476837,888865.100000143,7786,NTS,C,20
2,15,test,3,C,circle.png,1,z,Wed Mar 25 2026 09:12:49 GMT-0500 (Central Daylight Time),894258.100000143,1700,O,z,699,10,1,2416.2000000476837,891841.9000000954,7786,NTS,C,21
3,16,test,3,C,triangle.png,1,z,Wed Mar 25 2026 09:12:49 GMT-0500 (Central Daylight Time),896623.600000143,1200,O,z,1145,3,1,2361.2000000476837,894262.4000000954,7786,NTS,C,22
3,17,test,3,C,triangle.png,1,z,Wed Mar 25 2026 09:12:49 GMT-0500 (Central Daylight Time),898540.600000143,1200,O,z,698,19,1,1913.0,896627.600000143,7786,NTS,C,23
7,18,test,3,C,triangle.png,1,z,Wed Mar 25 2026 09:12:49 GMT-0500 (Central Daylight Time),901089.2000000477,1700,O,z,825,6,1,2543.0,898546.2000000477,7786,NTS,C,24
9,0,test,4,C,triangle.png,0,z,Wed Mar 25 2026 09:12:49 GMT-0500 (Central Daylight Time),912019.2000000477,1400,O,m,1073,16,1,2498.2000000476837,909521.0,7786,NTS,C,1
3,1,test,4,C,triangle.png,1,z,Wed Mar 25 2026 09:12:49 GMT-0500 (Central Daylight Time),914685.100000143,1200,O,z,1450,19,1,2660.7000000476837,912024.4000000954,7786,NTS,C,2
9,2,test,4,C,circle.png,1,m,Wed Mar 25 2026 09:12:49 GMT-0500 (Central Daylight Time),917268.7000000477,1500,O,m,1066,8,1,2578.7000000476837,914690.0,7786,NTS,C,3
8,3,test,4,C,circle.png,1,m,Wed Mar 25 2026 09:12:49 GMT-0500 (Central Daylight Time),919216.100000143,1200,O,m,726,15,1,1943.2999999523163,917272.8000001907,7786,NTS,C,4
8,4,test,4,C,triangle.png,1,m,Wed Mar 25 2026 09:12:49 GMT-0500 (Central Daylight Time),922199.600000143,1600,O,m,1352,7,1,2979.4000000953674,919220.2000000477,7786,NTS,C,5
6,5,test,4,C,triangle.png,1,m,Wed Mar 25 2026 09:12:49 GMT-0500 (Central Daylight Time),923997.7000000477,1000,O,m,768,13,1,1794.3999998569489,922203.3000001907,7786,NTS,C,6
2,5,test,4,C,triangle.png,0,m,Wed Mar 25 2026 09:12:49 GMT-0500 (Central Daylight Time),926912.9000000954,2000,O,z,898,18,1,2910.5,924002.4000000954,7786,NTS,C,7
7,6,test,4,C,triangle.png,1,z,Wed Mar 25 2026 09:12:49 GMT-0500 (Central Daylight Time),929380.7000000477,1700,O,z,751,6,1,2464.0,926916.7000000477,7786,NTS,C,8
1,6,test,4,C,circle.png,0,z,Wed Mar 25 2026 09:12:49 GMT-0500 (Central Daylight Time),931346.600000143,1000,O,m,949,17,1,1961.4000000953674,929385.2000000477,7786,NTS,C,9
7,7,test,4,C,circle.png,1,m,Wed Mar 25 2026 09:12:49 GMT-0500 (Central Daylight Time),934412.8000001907,2000,O,m,1033,14,1,3060.300000190735,931352.5,7786,NTS,C,10
4,8,test,4,C,circle.png,1,z,Wed Mar 25 2026 09:12:49 GMT-0500 (Central Daylight Time),936777.4000000954,1400,O,z,933,4,1,2359.7999999523163,934417.600000143,7786,NTS,C,11
2,9,test,4,C,triangle.png,1,m,Wed Mar 25 2026 09:12:49 GMT-0500 (Central Daylight Time),940109.5,2000,O,m,1302,2,1,3327.2999999523163,936782.2000000477,7786,NTS,C,12
9,10,test,4,C,circle.png,1,m,Wed Mar 25 2026 09:12:49 GMT-0500 (Central Daylight Time),942558.2000000477,1500,O,m,916,24,1,2443.7000000476837,940114.5,7786,NTS,C,13
1,11,test,4,C,circle.png,1,z,Wed Mar 25 2026 09:12:49 GMT-0500 (Central Daylight Time),944374.5,1000,O,z,785,1,1,1812.7999999523163,942561.7000000477,7786,NTS,C,14
7,11,test,4,C,triangle.png,0,z,Wed Mar 25 2026 09:12:49 GMT-0500 (Central Daylight Time),947607.2000000477,1700,O,None,1516,22,1,3227.7000000476837,944379.5,7786,NTS,C,15
6,11,test,4,C,circle.png,0,m,Wed Mar 25 2026 09:12:49 GMT-0500 (Central Daylight Time),951027.100000143,1900,O,None,1504,5,1,3417.0,947610.100000143,7786,NTS,C,16
4,11,test,4,C,circle.png,0,z,Wed Mar 25 2026 09:12:49 GMT-0500 (Central Daylight Time),953954.2000000477,1400,O,None,1513,20,1,2924.399999856949,951029.8000001907,7786,NTS,C,17
6,12,test,4,C,circle.png,1,m,Wed Mar 25 2026 09:12:49 GMT-0500 (Central Daylight Time),956503.7000000477,1900,O,m,625,21,1,2544.5,953959.2000000477,7786,NTS,C,18
3,13,test,4,C,circle.png,1,z,Wed Mar 25 2026 09:12:49 GMT-0500 (Central Daylight Time),958836.2000000477,1600,O,z,699,11,1,2329.2999999523163,956506.9000000954,7786,NTS,C,19
4,14,test,4,C,triangle.png,1,m,Wed Mar 25 2026 09:12:49 GMT-0500 (Central Daylight Time),961469.600000143,1500,O,m,1103,12,1,2627.7000000476837,958841.9000000954,7786,NTS,C,20
1,15,test,4,C,triangle.png,1,z,Wed Mar 25 2026 09:12:49 GMT-0500 (Central Daylight Time),964335.4000000954,1900,O,z,935,9,1,2858.4000000953674,961477.0,7786,NTS,C,21
8,16,test,4,C,triangle.png,1,m,Wed Mar 25 2026 09:12:49 GMT-0500 (Central Daylight Time),967350.8000001907,1600,O,m,1392,23,1,3010.7000000476837,964340.100000143,7786,NTS,C,22
3,17,test,4,C,triangle.png,1,z,Wed Mar 25 2026 09:12:49 GMT-0500 (Central Daylight Time),969283.600000143,1200,O,z,706,3,1,1926.4000000953674,967357.2000000477,7786,NTS,C,23
2,18,test,4,C,circle.png,1,z,Wed Mar 25 2026 09:12:49 GMT-0500 (Central Daylight Time),972349.4000000954,1700,O,z,1337,10,1,3059.4000000953674,969290.0,7786,NTS,C,24
