acc_sum,block,block_c,block_cond,con_img,correct,correct_response,datetime,endtime,face,jitter,line,project,response,response_time,row_sel,session_number,start_end,starttime,subject_id,task,task_vers,trial
1,prac,1,A,haborder.png,1,z,Wed Mar 18 2026 15:42:41 GMT-0400 (Eastern Daylight Time),59149.40000000596,CFD-BM-037-041-A.jpg,1600,solid,I,z,1266,2,1,3666.9000000059605,55482.5,9074,ATS,B,1
2,prac,1,A,haborder.png,1,m,Wed Mar 18 2026 15:42:41 GMT-0400 (Eastern Daylight Time),62565.79999999702,CFD-WM-012-007-HC.jpg,1700,solid,I,m,923,9,1,7083.29999999702,55482.5,9074,ATS,B,2
3,prac,1,A,haborder.png,1,z,Wed Mar 18 2026 15:42:41 GMT-0400 (Eastern Daylight Time),65132.59999999404,CFD-BF-051-043-A.jpg,1000,solid,I,z,767,4,1,9650.09999999404,55482.5,9074,ATS,B,3
4,prac,1,A,haborder.png,1,m,Wed Mar 18 2026 15:42:41 GMT-0400 (Eastern Daylight Time),68082.59999999404,CFD-WM-011-006-HC.jpg,1400,solid,I,m,760,7,1,12600.09999999404,55482.5,9074,ATS,B,4
5,prac,1,A,haborder.png,1,m,Wed Mar 18 2026 15:42:41 GMT-0400 (Eastern Daylight Time),71199.20000000298,CFD-WF-011-006-HC.jpg,1500,solid,I,m,830,11,1,15716.70000000298,55482.5,9074,ATS,B,5
6,prac,1,A,haborder.png,1,z,Wed Mar 18 2026 15:42:41 GMT-0400 (Eastern Daylight Time),74365.90000000596,CFD-WF-026-008-A.jpg,1600,solid,I,z,781,10,1,18883.40000000596,55482.5,9074,ATS,B,6
7,prac,1,A,haborder.png,1,m,Wed Mar 18 2026 15:42:41 GMT-0400 (Eastern Daylight Time),77665.79999999702,CFD-BM-015-017-HC.jpg,1700,solid,I,m,811,1,1,22183.29999999702,55482.5,9074,ATS,B,7
8,prac,1,A,haborder.png,1,m,Wed Mar 18 2026 15:42:41 GMT-0400 (Eastern Daylight Time),80682.5,CFD-BM-020-024-HC.jpg,1500,solid,I,m,719,3,1,25200.0,55482.5,9074,ATS,B,8
9,prac,1,A,haborder.png,1,z,Wed Mar 18 2026 15:42:41 GMT-0400 (Eastern Daylight Time),83382.5,CFD-BF-050-012-A.jpg,1200,solid,I,z,706,6,1,27900.0,55482.5,9074,ATS,B,9
10,prac,1,A,haborder.png,1,z,Wed Mar 18 2026 15:42:41 GMT-0400 (Eastern Daylight Time),87015.90000000596,CFD-WM-009-009-A.jpg,1900,solid,I,z,938,8,1,31533.40000000596,55482.5,9074,ATS,B,10
11,prac,1,A,haborder.png,1,m,Wed Mar 18 2026 15:42:41 GMT-0400 (Eastern Daylight Time),90916.0,CFD-BF-035-007-HC.jpg,2000,solid,I,m,1109,5,1,35433.5,55482.5,9074,ATS,B,11
12,prac,1,A,haborder.png,1,z,Wed Mar 18 2026 15:42:41 GMT-0400 (Eastern Daylight Time),93915.79999999702,CFD-WF-013-015-A.jpg,1000,solid,I,z,1200,12,1,38433.29999999702,55482.5,9074,ATS,B,12
1,prac,1,B,mfborder.png,1,z,Wed Mar 18 2026 15:42:41 GMT-0400 (Eastern Daylight Time),156282.59999999404,CFD-WF-026-008-A.jpg,1500,dash,I,z,1201,11,1,3500.199999988079,152782.40000000596,9074,ATS,B,1
2,prac,1,B,mfborder.png,1,z,Wed Mar 18 2026 15:42:41 GMT-0400 (Eastern Daylight Time),159332.5,CFD-BF-027-013-HC.jpg,1500,dash,I,z,758,3,1,6550.0999999940395,152782.40000000596,9074,ATS,B,2
3,prac,1,B,mfborder.png,1,z,Wed Mar 18 2026 15:42:41 GMT-0400 (Eastern Daylight Time),162165.90000000596,CFD-BF-035-007-HC.jpg,1400,dash,I,z,640,7,1,9383.5,152782.40000000596,9074,ATS,B,3
4,prac,1,B,mfborder.png,1,z,Wed Mar 18 2026 15:42:41 GMT-0400 (Eastern Daylight Time),165532.5,CFD-WF-027-007-HC.jpg,1900,dash,I,z,666,8,1,12750.09999999404,152782.40000000596,9074,ATS,B,4
5,prac,1,B,mfborder.png,1,m,Wed Mar 18 2026 15:42:41 GMT-0400 (Eastern Daylight Time),168899.20000000298,CFD-BM-020-024-HC.jpg,1700,dash,I,m,876,1,1,16116.79999999702,152782.40000000596,9074,ATS,B,5
6,prac,1,B,mfborder.png,1,m,Wed Mar 18 2026 15:42:41 GMT-0400 (Eastern Daylight Time),172449.20000000298,CFD-BM-041-048-A.jpg,1600,dash,I,m,1161,2,1,19666.79999999702,152782.40000000596,9074,ATS,B,6
7,prac,1,B,mfborder.png,1,m,Wed Mar 18 2026 15:42:41 GMT-0400 (Eastern Daylight Time),175732.5,CFD-WM-012-007-HC.jpg,1600,dash,I,m,891,10,1,22950.09999999404,152782.40000000596,9074,ATS,B,7
8,prac,1,B,mfborder.png,1,z,Wed Mar 18 2026 15:42:41 GMT-0400 (Eastern Daylight Time),178549.20000000298,CFD-BF-051-043-A.jpg,1000,dash,I,z,1023,4,1,25766.79999999702,152782.40000000596,9074,ATS,B,8
9,prac,1,B,mfborder.png,1,m,Wed Mar 18 2026 15:42:41 GMT-0400 (Eastern Daylight Time),181682.70000000298,CFD-WM-037-060-A.jpg,1200,dash,I,m,1143,6,1,28900.29999999702,152782.40000000596,9074,ATS,B,9
10,prac,1,B,mfborder.png,1,m,Wed Mar 18 2026 15:42:41 GMT-0400 (Eastern Daylight Time),184965.70000000298,CFD-WM-009-009-A.jpg,1700,dash,I,m,790,9,1,32183.29999999702,152782.40000000596,9074,ATS,B,10
11,prac,1,B,mfborder.png,1,z,Wed Mar 18 2026 15:42:41 GMT-0400 (Eastern Daylight Time),187815.90000000596,CFD-WF-011-006-HC.jpg,1000,dash,I,z,1054,12,1,35033.5,152782.40000000596,9074,ATS,B,11
12,prac,1,B,mfborder.png,1,m,Wed Mar 18 2026 15:42:41 GMT-0400 (Eastern Daylight Time),191532.5,CFD-BM-037-041-A.jpg,2000,dash,I,m,932,5,1,38750.09999999404,152782.40000000596,9074,ATS,B,12
1,test,1,A,haborder.png,1,m,Wed Mar 18 2026 15:42:41 GMT-0400 (Eastern Daylight Time),208798.90000000596,CFD-BM-015-017-HC.jpg,1700,solid,I,m,931,1,1,2649.7000000029802,206149.20000000298,9074,ATS,B,1
2,test,1,A,haborder.png,1,z,Wed Mar 18 2026 15:42:41 GMT-0400 (Eastern Daylight Time),211399.0,CFD-WF-026-008-A.jpg,1600,solid,I,z,973,10,1,5249.79999999702,206149.20000000298,9074,ATS,B,2
3,test,1,A,haborder.png,1,m,Wed Mar 18 2026 15:42:41 GMT-0400 (Eastern Daylight Time),214382.29999999702,CFD-BF-035-007-HC.jpg,2000,solid,I,m,966,5,1,8233.09999999404,206149.20000000298,9074,ATS,B,3
4,test,1,A,haborder.png,1,z,Wed Mar 18 2026 15:42:41 GMT-0400 (Eastern Daylight Time),217182.5,CFD-WM-009-009-A.jpg,1900,solid,I,z,866,8,1,11033.29999999702,206149.20000000298,9074,ATS,B,4
5,test,1,A,haborder.png,1,z,Wed Mar 18 2026 15:42:41 GMT-0400 (Eastern Daylight Time),219315.79999999702,CFD-BF-051-043-A.jpg,1000,solid,I,z,1109,4,1,13166.59999999404,206149.20000000298,9074,ATS,B,5
6,test,1,A,haborder.png,1,m,Wed Mar 18 2026 15:42:41 GMT-0400 (Eastern Daylight Time),221565.59999999404,CFD-BM-020-024-HC.jpg,1500,solid,I,m,717,3,1,15416.39999999106,206149.20000000298,9074,ATS,B,6
7,test,1,A,haborder.png,1,m,Wed Mar 18 2026 15:42:41 GMT-0400 (Eastern Daylight Time),223882.40000000596,CFD-WF-011-006-HC.jpg,1500,solid,I,m,787,11,1,17733.20000000298,206149.20000000298,9074,ATS,B,7
8,test,1,A,haborder.png,1,m,Wed Mar 18 2026 15:42:41 GMT-0400 (Eastern Daylight Time),226299.09999999404,CFD-WM-011-006-HC.jpg,1400,solid,I,m,986,7,1,20149.89999999106,206149.20000000298,9074,ATS,B,8
9,test,1,A,haborder.png,1,z,Wed Mar 18 2026 15:42:41 GMT-0400 (Eastern Daylight Time),228749.09999999404,CFD-WF-026-008-A.jpg,1600,solid,I,z,818,10,1,22599.89999999106,206149.20000000298,9074,ATS,B,9
10,test,1,A,haborder.png,1,m,Wed Mar 18 2026 15:42:41 GMT-0400 (Eastern Daylight Time),231282.40000000596,CFD-BM-015-017-HC.jpg,1700,solid,I,m,811,1,1,25133.20000000298,206149.20000000298,9074,ATS,B,10
11,test,1,A,haborder.png,1,m,Wed Mar 18 2026 15:42:41 GMT-0400 (Eastern Daylight Time),233849.09999999404,CFD-WF-011-006-HC.jpg,1500,solid,I,m,1038,11,1,27699.89999999106,206149.20000000298,9074,ATS,B,11
12,test,1,A,haborder.png,1,z,Wed Mar 18 2026 15:42:41 GMT-0400 (Eastern Daylight Time),235749.09999999404,CFD-BF-051-043-A.jpg,1000,solid,I,z,875,4,1,29599.89999999106,206149.20000000298,9074,ATS,B,12
13,test,1,A,haborder.png,1,m,Wed Mar 18 2026 15:42:41 GMT-0400 (Eastern Daylight Time),238149.0,CFD-BM-020-024-HC.jpg,1500,solid,I,m,875,3,1,31999.79999999702,206149.20000000298,9074,ATS,B,13
14,test,1,A,haborder.png,1,m,Wed Mar 18 2026 15:42:41 GMT-0400 (Eastern Daylight Time),241049.0,CFD-BF-035-007-HC.jpg,2000,solid,I,m,871,5,1,34899.79999999702,206149.20000000298,9074,ATS,B,14
15,test,1,A,haborder.png,1,z,Wed Mar 18 2026 15:42:41 GMT-0400 (Eastern Daylight Time),242948.40000000596,CFD-WF-013-015-A.jpg,1000,solid,I,z,875,12,1,36799.20000000298,206149.20000000298,9074,ATS,B,15
16,test,1,A,haborder.png,1,m,Wed Mar 18 2026 15:42:41 GMT-0400 (Eastern Daylight Time),245532.29999999702,CFD-WM-012-007-HC.jpg,1700,solid,I,m,850,9,1,39383.09999999404,206149.20000000298,9074,ATS,B,16
17,test,1,A,haborder.png,1,z,Wed Mar 18 2026 15:42:41 GMT-0400 (Eastern Daylight Time),248299.0,CFD-WM-009-009-A.jpg,1900,solid,I,z,836,8,1,42149.79999999702,206149.20000000298,9074,ATS,B,17
18,test,1,A,haborder.png,1,m,Wed Mar 18 2026 15:42:41 GMT-0400 (Eastern Daylight Time),250531.79999999702,CFD-WM-011-006-HC.jpg,1400,solid,I,m,808,7,1,44382.59999999404,206149.20000000298,9074,ATS,B,18
19,test,1,A,haborder.png,1,z,Wed Mar 18 2026 15:42:41 GMT-0400 (Eastern Daylight Time),252398.90000000596,CFD-WF-013-015-A.jpg,1000,solid,I,z,848,12,1,46249.70000000298,206149.20000000298,9074,ATS,B,19
20,test,1,A,haborder.png,1,m,Wed Mar 18 2026 15:42:41 GMT-0400 (Eastern Daylight Time),254915.79999999702,CFD-WM-012-007-HC.jpg,1700,solid,I,m,793,9,1,48766.59999999404,206149.20000000298,9074,ATS,B,20
21,test,1,A,haborder.png,1,z,Wed Mar 18 2026 15:42:41 GMT-0400 (Eastern Daylight Time),257665.70000000298,CFD-BM-037-041-A.jpg,1600,solid,I,z,1129,2,1,51516.5,206149.20000000298,9074,ATS,B,21
22,test,1,A,haborder.png,1,z,Wed Mar 18 2026 15:42:41 GMT-0400 (Eastern Daylight Time),259998.79999999702,CFD-BM-037-041-A.jpg,1600,solid,I,z,715,2,1,53849.59999999404,206149.20000000298,9074,ATS,B,22
23,test,1,A,haborder.png,1,z,Wed Mar 18 2026 15:42:41 GMT-0400 (Eastern Daylight Time),262182.299999997,CFD-BF-050-012-A.jpg,1200,solid,I,z,958,6,1,56033.09999999404,206149.20000000298,9074,ATS,B,23
24,test,1,A,haborder.png,1,z,Wed Mar 18 2026 15:42:41 GMT-0400 (Eastern Daylight Time),264232.299999997,CFD-BF-050-012-A.jpg,1200,solid,I,z,822,6,1,58083.09999999404,206149.20000000298,9074,ATS,B,24
1,test,1,B,mfborder.png,1,m,Wed Mar 18 2026 15:42:41 GMT-0400 (Eastern Daylight Time),276415.5,CFD-WM-009-009-A.jpg,1700,dash,I,m,731,9,1,2449.5999999940395,273965.90000000596,9074,ATS,B,1
2,test,1,B,mfborder.png,1,m,Wed Mar 18 2026 15:42:41 GMT-0400 (Eastern Daylight Time),278749.0,CFD-WM-009-009-A.jpg,1700,dash,I,m,600,9,1,4783.0999999940395,273965.90000000596,9074,ATS,B,2
3,test,1,B,mfborder.png,1,m,Wed Mar 18 2026 15:42:41 GMT-0400 (Eastern Daylight Time),281215.40000000596,CFD-BM-020-024-HC.jpg,1700,dash,I,m,747,1,1,7249.5,273965.90000000596,9074,ATS,B,3
4,test,1,B,mfborder.png,1,m,Wed Mar 18 2026 15:42:41 GMT-0400 (Eastern Daylight Time),283882.40000000596,CFD-BM-037-041-A.jpg,2000,dash,I,m,636,5,1,9916.5,273965.90000000596,9074,ATS,B,4
5,test,1,B,mfborder.png,1,z,Wed Mar 18 2026 15:42:41 GMT-0400 (Eastern Daylight Time),286132.40000000596,CFD-BF-027-013-HC.jpg,1500,dash,I,z,726,3,1,12166.5,273965.90000000596,9074,ATS,B,5
5,test,1,B,mfborder.png,0,m,Wed Mar 18 2026 15:42:41 GMT-0400 (Eastern Daylight Time),289265.90000000596,CFD-WM-012-007-HC.jpg,1600,dash,I,None,1516,10,1,15300.0,273965.90000000596,9074,ATS,B,6
6,test,1,B,mfborder.png,1,z,Wed Mar 18 2026 15:42:41 GMT-0400 (Eastern Daylight Time),291998.799999997,CFD-WF-027-007-HC.jpg,1900,dash,I,z,814,8,1,18032.89999999106,273965.90000000596,9074,ATS,B,7
7,test,1,B,mfborder.png,1,m,Wed Mar 18 2026 15:42:41 GMT-0400 (Eastern Daylight Time),294382.40000000596,CFD-BM-041-048-A.jpg,1600,dash,I,m,749,2,1,20416.5,273965.90000000596,9074,ATS,B,8
8,test,1,B,mfborder.png,1,z,Wed Mar 18 2026 15:42:41 GMT-0400 (Eastern Daylight Time),296015.40000000596,CFD-WF-011-006-HC.jpg,1000,dash,I,z,614,12,1,22049.5,273965.90000000596,9074,ATS,B,9
9,test,1,B,mfborder.png,1,z,Wed Mar 18 2026 15:42:41 GMT-0400 (Eastern Daylight Time),297615.40000000596,CFD-WF-011-006-HC.jpg,1000,dash,I,z,580,12,1,23649.5,273965.90000000596,9074,ATS,B,10
10,test,1,B,mfborder.png,1,m,Wed Mar 18 2026 15:42:41 GMT-0400 (Eastern Daylight Time),299899.09999999404,CFD-BM-020-024-HC.jpg,1700,dash,I,m,554,1,1,25933.19999998808,273965.90000000596,9074,ATS,B,11
11,test,1,B,mfborder.png,1,z,Wed Mar 18 2026 15:42:41 GMT-0400 (Eastern Daylight Time),302082.299999997,CFD-BF-027-013-HC.jpg,1500,dash,I,z,661,3,1,28116.39999999106,273965.90000000596,9074,ATS,B,12
11,test,1,B,mfborder.png,0,z,Wed Mar 18 2026 15:42:41 GMT-0400 (Eastern Daylight Time),304682.5,CFD-BF-035-007-HC.jpg,1400,dash,I,m,1170,7,1,30716.59999999404,273965.90000000596,9074,ATS,B,13
12,test,1,B,mfborder.png,1,z,Wed Mar 18 2026 15:42:41 GMT-0400 (Eastern Daylight Time),307182.5,CFD-WF-027-007-HC.jpg,1900,dash,I,z,582,8,1,33216.59999999404,273965.90000000596,9074,ATS,B,14
13,test,1,B,mfborder.png,1,m,Wed Mar 18 2026 15:42:41 GMT-0400 (Eastern Daylight Time),309166.0,CFD-WM-037-060-A.jpg,1200,dash,I,m,766,6,1,35200.09999999404,273965.90000000596,9074,ATS,B,15
14,test,1,B,mfborder.png,1,z,Wed Mar 18 2026 15:42:41 GMT-0400 (Eastern Daylight Time),311465.700000003,CFD-WF-026-008-A.jpg,1500,dash,I,z,771,11,1,37499.79999999702,273965.90000000596,9074,ATS,B,16
14,test,1,B,mfborder.png,0,z,Wed Mar 18 2026 15:42:41 GMT-0400 (Eastern Daylight Time),313582.299999997,CFD-BF-035-007-HC.jpg,1400,dash,I,m,682,7,1,39616.39999999106,273965.90000000596,9074,ATS,B,17
15,test,1,B,mfborder.png,1,z,Wed Mar 18 2026 15:42:41 GMT-0400 (Eastern Daylight Time),315166.59999999404,CFD-BF-051-043-A.jpg,1000,dash,I,z,567,4,1,41200.69999998808,273965.90000000596,9074,ATS,B,18
16,test,1,B,mfborder.png,1,m,Wed Mar 18 2026 15:42:41 GMT-0400 (Eastern Daylight Time),317399.09999999404,CFD-BM-041-048-A.jpg,1600,dash,I,m,606,2,1,43433.19999998808,273965.90000000596,9074,ATS,B,19
17,test,1,B,mfborder.png,1,m,Wed Mar 18 2026 15:42:41 GMT-0400 (Eastern Daylight Time),319699.0,CFD-WM-012-007-HC.jpg,1600,dash,I,m,677,10,1,45733.09999999404,273965.90000000596,9074,ATS,B,20
18,test,1,B,mfborder.png,1,m,Wed Mar 18 2026 15:42:41 GMT-0400 (Eastern Daylight Time),322315.90000000596,CFD-BM-037-041-A.jpg,2000,dash,I,m,585,5,1,48350.0,273965.90000000596,9074,ATS,B,21
19,test,1,B,mfborder.png,1,z,Wed Mar 18 2026 15:42:41 GMT-0400 (Eastern Daylight Time),324565.700000003,CFD-WF-026-008-A.jpg,1500,dash,I,z,725,11,1,50599.79999999702,273965.90000000596,9074,ATS,B,22
20,test,1,B,mfborder.png,1,m,Wed Mar 18 2026 15:42:41 GMT-0400 (Eastern Daylight Time),326315.700000003,CFD-WM-037-060-A.jpg,1200,dash,I,m,519,6,1,52349.79999999702,273965.90000000596,9074,ATS,B,23
21,test,1,B,mfborder.png,1,z,Wed Mar 18 2026 15:42:41 GMT-0400 (Eastern Daylight Time),327949.0,CFD-BF-051-043-A.jpg,1000,dash,I,z,601,4,1,53983.09999999404,273965.90000000596,9074,ATS,B,24
0,7,1,C,haborder.png,0,z,Wed Mar 18 2026 15:42:41 GMT-0400 (Eastern Daylight Time),363449.299999997,CFD-BF-051-043-A.jpg,1900,dash,I,None,1515,prac,1,4200.0,359249.299999997,9074,ATS,B,1
1,6,1,C,mfborder.png,1,m,Wed Mar 18 2026 15:42:41 GMT-0400 (Eastern Daylight Time),366982.59999999404,CFD-WM-009-009-A.jpg,1700,solid,I,m,1039,prac,1,7733.29999999702,359249.299999997,9074,ATS,B,2
1,8,1,C,haborder.png,0,z,Wed Mar 18 2026 15:42:41 GMT-0400 (Eastern Daylight Time),370415.90000000596,CFD-BF-050-012-A.jpg,1700,solid,I,m,946,prac,1,11166.60000000894,359249.299999997,9074,ATS,B,3
2,5,1,C,mfborder.png,1,m,Wed Mar 18 2026 15:42:41 GMT-0400 (Eastern Daylight Time),373348.799999997,CFD-BM-037-041-A.jpg,1200,dash,I,m,941,prac,1,14099.5,359249.299999997,9074,ATS,B,4
3,10,1,C,haborder.png,1,m,Wed Mar 18 2026 15:42:41 GMT-0400 (Eastern Daylight Time),376699.40000000596,CFD-BM-020-024-HC.jpg,1500,solid,I,m,1051,prac,1,17450.10000000894,359249.299999997,9074,ATS,B,5
3,9,1,C,haborder.png,0,z,Wed Mar 18 2026 15:42:41 GMT-0400 (Eastern Daylight Time),380599.09999999404,CFD-WF-026-008-A.jpg,1600,dash,I,None,1515,prac,1,21349.79999999702,359249.299999997,9074,ATS,B,6
3,3,1,C,mfborder.png,0,z,Wed Mar 18 2026 15:42:41 GMT-0400 (Eastern Daylight Time),383749.09999999404,CFD-BF-035-007-HC.jpg,1000,dash,I,m,1357,prac,1,24499.79999999702,359249.299999997,9074,ATS,B,7
3,11,1,C,haborder.png,0,m,Wed Mar 18 2026 15:42:41 GMT-0400 (Eastern Daylight Time),386715.90000000596,CFD-WM-011-006-HC.jpg,1000,dash,I,z,1168,prac,1,27466.60000000894,359249.299999997,9074,ATS,B,8
3,2,1,C,mfborder.png,0,z,Wed Mar 18 2026 15:42:41 GMT-0400 (Eastern Daylight Time),390515.700000003,CFD-WF-013-015-A.jpg,1500,solid,I,None,1516,prac,1,31266.40000000596,359249.299999997,9074,ATS,B,9
3,4,1,C,mfborder.png,0,m,Wed Mar 18 2026 15:42:41 GMT-0400 (Eastern Daylight Time),394815.59999999404,CFD-BM-015-017-HC.jpg,2000,solid,I,None,1516,prac,1,35566.29999999702,359249.299999997,9074,ATS,B,10
4,12,1,C,haborder.png,1,m,Wed Mar 18 2026 15:42:41 GMT-0400 (Eastern Daylight Time),397782.59999999404,CFD-WM-011-006-HC.jpg,1400,solid,I,m,773,prac,1,38533.29999999702,359249.299999997,9074,ATS,B,11
4,1,1,C,mfborder.png,0,z,Wed Mar 18 2026 15:42:41 GMT-0400 (Eastern Daylight Time),401682.5,CFD-WF-011-006-HC.jpg,1600,dash,I,None,1516,prac,1,42433.20000000298,359249.299999997,9074,ATS,B,12
1,7,2,C,haborder.png,1,z,Wed Mar 18 2026 15:42:41 GMT-0400 (Eastern Daylight Time),424532.59999999404,CFD-BF-051-043-A.jpg,1900,dash,I,z,1458,prac,1,65283.29999999702,359249.299999997,9074,ATS,B,1
2,10,2,C,haborder.png,1,m,Wed Mar 18 2026 15:42:41 GMT-0400 (Eastern Daylight Time),428282.59999999404,CFD-BM-020-024-HC.jpg,1500,solid,I,m,1452,prac,1,69033.29999999702,359249.299999997,9074,ATS,B,2
3,1,2,C,mfborder.png,1,z,Wed Mar 18 2026 15:42:41 GMT-0400 (Eastern Daylight Time),431899.200000003,CFD-WF-011-006-HC.jpg,1600,dash,I,z,1218,prac,1,72649.90000000596,359249.299999997,9074,ATS,B,3
4,11,2,C,haborder.png,1,m,Wed Mar 18 2026 15:42:41 GMT-0400 (Eastern Daylight Time),434482.59999999404,CFD-WM-011-006-HC.jpg,1000,dash,I,m,794,prac,1,75233.29999999702,359249.299999997,9074,ATS,B,4
5,12,2,C,haborder.png,1,m,Wed Mar 18 2026 15:42:41 GMT-0400 (Eastern Daylight Time),437549.299999997,CFD-WM-011-006-HC.jpg,1400,solid,I,m,866,prac,1,78300.0,359249.299999997,9074,ATS,B,5
6,2,2,C,mfborder.png,1,z,Wed Mar 18 2026 15:42:41 GMT-0400 (Eastern Daylight Time),440615.90000000596,CFD-WF-013-015-A.jpg,1500,solid,I,z,772,prac,1,81366.60000000894,359249.299999997,9074,ATS,B,6
6,4,2,C,mfborder.png,0,m,Wed Mar 18 2026 15:42:41 GMT-0400 (Eastern Daylight Time),444249.200000003,CFD-BM-015-017-HC.jpg,2000,solid,I,z,837,prac,1,84999.90000000596,359249.299999997,9074,ATS,B,7
7,6,2,C,mfborder.png,1,m,Wed Mar 18 2026 15:42:41 GMT-0400 (Eastern Daylight Time),447699.299999997,CFD-WM-009-009-A.jpg,1700,solid,I,m,960,prac,1,88450.0,359249.299999997,9074,ATS,B,8
7,3,2,C,mfborder.png,0,z,Wed Mar 18 2026 15:42:41 GMT-0400 (Eastern Daylight Time),450549.200000003,CFD-BF-035-007-HC.jpg,1000,dash,I,m,1058,prac,1,91299.90000000596,359249.299999997,9074,ATS,B,9
8,5,2,C,mfborder.png,1,m,Wed Mar 18 2026 15:42:41 GMT-0400 (Eastern Daylight Time),453616.0,CFD-BM-037-041-A.jpg,1200,dash,I,m,1080,prac,1,94366.70000000298,359249.299999997,9074,ATS,B,10
9,9,2,C,haborder.png,1,z,Wed Mar 18 2026 15:42:41 GMT-0400 (Eastern Daylight Time),457115.90000000596,CFD-WF-026-008-A.jpg,1600,dash,I,z,1101,prac,1,97866.60000000894,359249.299999997,9074,ATS,B,11
10,8,2,C,haborder.png,1,z,Wed Mar 18 2026 15:42:41 GMT-0400 (Eastern Daylight Time),460465.799999997,CFD-BF-050-012-A.jpg,1700,solid,I,z,861,prac,1,101216.5,359249.299999997,9074,ATS,B,12
1,test,1,C,mfborder.png,1,m,Wed Mar 18 2026 15:42:41 GMT-0400 (Eastern Daylight Time),476800.299999997,CFD-BM-020-024-HC.jpg,1200,dash,I,m,1348,6,1,2567.7000000029802,474232.59999999404,9074,ATS,B,1
1,test,1,C,haborder.png,0,z,Wed Mar 18 2026 15:42:41 GMT-0400 (Eastern Daylight Time),479482.5,CFD-WM-009-009-A.jpg,1400,solid,I,m,1254,7,1,5249.9000000059605,474232.59999999404,9074,ATS,B,2
1,test,1,C,mfborder.png,0,m,Wed Mar 18 2026 15:42:41 GMT-0400 (Eastern Daylight Time),482016.90000000596,CFD-WM-012-007-HC.jpg,1000,dash,I,None,1516,4,1,7784.300000011921,474232.59999999404,9074,ATS,B,3
2,test,1,C,mfborder.png,1,m,Wed Mar 18 2026 15:42:41 GMT-0400 (Eastern Daylight Time),485482.5,CFD-WM-037-060-A.jpg,2000,dash,I,m,1437,5,1,11249.90000000596,474232.59999999404,9074,ATS,B,4
2,test,1,C,haborder.png,0,z,Wed Mar 18 2026 15:42:41 GMT-0400 (Eastern Daylight Time),488415.799999997,CFD-WM-009-009-A.jpg,1400,solid,I,None,1516,7,1,14183.20000000298,474232.59999999404,9074,ATS,B,5
2,test,1,C,haborder.png,0,m,Wed Mar 18 2026 15:42:41 GMT-0400 (Eastern Daylight Time),491315.799999997,CFD-BF-035-007-HC.jpg,1600,solid,I,z,1277,10,1,17083.20000000298,474232.59999999404,9074,ATS,B,6
3,test,1,C,mfborder.png,1,z,Wed Mar 18 2026 15:42:41 GMT-0400 (Eastern Daylight Time),494165.90000000596,CFD-BF-027-013-HC.jpg,1700,dash,I,z,1125,1,1,19933.30000001192,474232.59999999404,9074,ATS,B,7
4,test,1,C,haborder.png,1,m,Wed Mar 18 2026 15:42:41 GMT-0400 (Eastern Daylight Time),496882.40000000596,CFD-BF-035-007-HC.jpg,1600,solid,I,m,1095,10,1,22649.80000001192,474232.59999999404,9074,ATS,B,8
4,test,1,C,mfborder.png,0,m,Wed Mar 18 2026 15:42:41 GMT-0400 (Eastern Daylight Time),499615.59999999404,CFD-BM-020-024-HC.jpg,1200,dash,I,None,1516,6,1,25383.0,474232.59999999404,9074,ATS,B,9
4,test,1,C,haborder.png,0,m,Wed Mar 18 2026 15:42:41 GMT-0400 (Eastern Daylight Time),501949.09999999404,CFD-WF-011-006-HC.jpg,1000,solid,I,z,1301,12,1,27716.5,474232.59999999404,9074,ATS,B,10
5,test,1,C,haborder.png,1,z,Wed Mar 18 2026 15:42:41 GMT-0400 (Eastern Daylight Time),504532.40000000596,CFD-BM-041-048-A.jpg,1700,solid,I,z,860,9,1,30299.80000001192,474232.59999999404,9074,ATS,B,11
6,test,1,C,haborder.png,1,z,Wed Mar 18 2026 15:42:41 GMT-0400 (Eastern Daylight Time),507132.5,CFD-BM-041-048-A.jpg,1700,solid,I,z,868,9,1,32899.90000000596,474232.59999999404,9074,ATS,B,12
6,test,1,C,haborder.png,0,m,Wed Mar 18 2026 15:42:41 GMT-0400 (Eastern Daylight Time),509665.90000000596,CFD-WF-011-006-HC.jpg,1000,solid,I,None,1516,12,1,35433.30000001192,474232.59999999404,9074,ATS,B,13
7,test,1,C,haborder.png,1,m,Wed Mar 18 2026 15:42:41 GMT-0400 (Eastern Daylight Time),512401.09999999404,CFD-WF-027-007-HC.jpg,1500,solid,I,m,1215,11,1,38168.5,474232.59999999404,9074,ATS,B,14
8,test,1,C,haborder.png,1,z,Wed Mar 18 2026 15:42:41 GMT-0400 (Eastern Daylight Time),515349.0,CFD-BM-037-041-A.jpg,1900,solid,I,z,1025,8,1,41116.40000000596,474232.59999999404,9074,ATS,B,15
9,test,1,C,mfborder.png,1,z,Wed Mar 18 2026 15:42:41 GMT-0400 (Eastern Daylight Time),518049.09999999404,CFD-WF-026-008-A.jpg,1500,dash,I,z,1180,3,1,43816.5,474232.59999999404,9074,ATS,B,16
10,test,1,C,mfborder.png,1,z,Wed Mar 18 2026 15:42:41 GMT-0400 (Eastern Daylight Time),520499.09999999404,CFD-BF-051-043-A.jpg,1600,dash,I,z,828,2,1,46266.5,474232.59999999404,9074,ATS,B,17
11,test,1,C,mfborder.png,1,m,Wed Mar 18 2026 15:42:41 GMT-0400 (Eastern Daylight Time),523332.40000000596,CFD-WM-037-060-A.jpg,2000,dash,I,m,809,5,1,49099.80000001192,474232.59999999404,9074,ATS,B,18
12,test,1,C,mfborder.png,1,m,Wed Mar 18 2026 15:42:41 GMT-0400 (Eastern Daylight Time),525349.099999994,CFD-WM-012-007-HC.jpg,1000,dash,I,m,992,4,1,51116.5,474232.59999999404,9074,ATS,B,19
12,test,1,C,mfborder.png,0,z,Wed Mar 18 2026 15:42:41 GMT-0400 (Eastern Daylight Time),528482.099999994,CFD-BF-051-043-A.jpg,1600,dash,I,None,1516,2,1,54249.5,474232.59999999404,9074,ATS,B,20
13,test,1,C,mfborder.png,1,z,Wed Mar 18 2026 15:42:41 GMT-0400 (Eastern Daylight Time),531015.900000006,CFD-WF-026-008-A.jpg,1500,dash,I,z,1006,3,1,56783.30000001192,474232.59999999404,9074,ATS,B,21
14,test,1,C,haborder.png,1,z,Wed Mar 18 2026 15:42:41 GMT-0400 (Eastern Daylight Time),533982.599999994,CFD-BM-037-041-A.jpg,1900,solid,I,z,1049,8,1,59750.0,474232.59999999404,9074,ATS,B,22
15,test,1,C,haborder.png,1,m,Wed Mar 18 2026 15:42:41 GMT-0400 (Eastern Daylight Time),536465.700000003,CFD-WF-027-007-HC.jpg,1500,solid,I,m,962,11,1,62233.10000000894,474232.59999999404,9074,ATS,B,23
16,test,1,C,mfborder.png,1,z,Wed Mar 18 2026 15:42:41 GMT-0400 (Eastern Daylight Time),539248.599999994,CFD-BF-027-013-HC.jpg,1700,dash,I,z,1062,1,1,65016.0,474232.59999999404,9074,ATS,B,24
1,test,2,C,haborder.png,1,m,Wed Mar 18 2026 15:42:41 GMT-0400 (Eastern Daylight Time),548001.299999997,CFD-WM-011-006-HC.jpg,1500,solid,I,m,1198,11,1,2719.0999999940395,545282.200000003,9074,ATS,B,1
2,test,2,C,haborder.png,1,m,Wed Mar 18 2026 15:42:41 GMT-0400 (Eastern Daylight Time),550365.799999997,CFD-BM-020-024-HC.jpg,1600,solid,I,m,734,10,1,5083.5999999940395,545282.200000003,9074,ATS,B,2
2,test,2,C,mfborder.png,0,z,Wed Mar 18 2026 15:42:41 GMT-0400 (Eastern Daylight Time),552832.200000003,CFD-BF-035-007-HC.jpg,1500,dash,I,m,947,3,1,7550.0,545282.200000003,9074,ATS,B,3
3,test,2,C,haborder.png,1,m,Wed Mar 18 2026 15:42:41 GMT-0400 (Eastern Daylight Time),555482.5,CFD-BM-020-024-HC.jpg,1600,solid,I,m,1020,10,1,10200.29999999702,545282.200000003,9074,ATS,B,4
3,test,2,C,mfborder.png,0,z,Wed Mar 18 2026 15:42:41 GMT-0400 (Eastern Daylight Time),558365.799999997,CFD-BF-035-007-HC.jpg,1500,dash,I,m,1350,3,1,13083.59999999404,545282.200000003,9074,ATS,B,5
4,test,2,C,haborder.png,1,m,Wed Mar 18 2026 15:42:41 GMT-0400 (Eastern Daylight Time),560349.099999994,CFD-WM-011-006-HC.jpg,1000,solid,I,m,951,12,1,15066.89999999106,545282.200000003,9074,ATS,B,6
5,test,2,C,haborder.png,1,z,Wed Mar 18 2026 15:42:41 GMT-0400 (Eastern Daylight Time),562865.599999994,CFD-WF-026-008-A.jpg,1700,solid,I,z,795,9,1,17583.39999999106,545282.200000003,9074,ATS,B,7
6,test,2,C,haborder.png,1,z,Wed Mar 18 2026 15:42:41 GMT-0400 (Eastern Daylight Time),566015.599999994,CFD-BF-050-012-A.jpg,1900,solid,I,z,1231,8,1,20733.39999999106,545282.200000003,9074,ATS,B,8
7,test,2,C,mfborder.png,1,z,Wed Mar 18 2026 15:42:41 GMT-0400 (Eastern Daylight Time),568782.5,CFD-WF-011-006-HC.jpg,1700,dash,I,z,1049,1,1,23500.29999999702,545282.200000003,9074,ATS,B,9
8,test,2,C,mfborder.png,1,z,Wed Mar 18 2026 15:42:41 GMT-0400 (Eastern Daylight Time),571832.599999994,CFD-WF-013-015-A.jpg,1600,dash,I,z,1422,2,1,26550.39999999106,545282.200000003,9074,ATS,B,10
9,test,2,C,haborder.png,1,z,Wed Mar 18 2026 15:42:41 GMT-0400 (Eastern Daylight Time),574732.599999994,CFD-BF-050-012-A.jpg,1900,solid,I,z,968,8,1,29450.39999999106,545282.200000003,9074,ATS,B,11
10,test,2,C,haborder.png,1,m,Wed Mar 18 2026 15:42:41 GMT-0400 (Eastern Daylight Time),576782.0,CFD-WM-011-006-HC.jpg,1000,solid,I,m,1031,12,1,31499.79999999702,545282.200000003,9074,ATS,B,12
10,test,2,C,mfborder.png,0,m,Wed Mar 18 2026 15:42:41 GMT-0400 (Eastern Daylight Time),579516.099999994,CFD-WM-009-009-A.jpg,1200,dash,I,None,1516,6,1,34233.89999999106,545282.200000003,9074,ATS,B,13
11,test,2,C,haborder.png,1,m,Wed Mar 18 2026 15:42:41 GMT-0400 (Eastern Daylight Time),581932.599999994,CFD-WM-011-006-HC.jpg,1500,solid,I,m,885,11,1,36650.39999999106,545282.200000003,9074,ATS,B,14
12,test,2,C,mfborder.png,1,z,Wed Mar 18 2026 15:42:41 GMT-0400 (Eastern Daylight Time),584765.900000006,CFD-WF-013-015-A.jpg,1600,dash,I,z,1200,2,1,39483.70000000298,545282.200000003,9074,ATS,B,15
13,test,2,C,mfborder.png,1,m,Wed Mar 18 2026 15:42:41 GMT-0400 (Eastern Daylight Time),586832.299999997,CFD-WM-009-009-A.jpg,1200,dash,I,m,847,6,1,41550.09999999404,545282.200000003,9074,ATS,B,16
14,test,2,C,mfborder.png,1,m,Wed Mar 18 2026 15:42:41 GMT-0400 (Eastern Daylight Time),588849.099999994,CFD-BM-015-017-HC.jpg,1000,dash,I,m,997,4,1,43566.89999999106,545282.200000003,9074,ATS,B,17
15,test,2,C,haborder.png,1,z,Wed Mar 18 2026 15:42:41 GMT-0400 (Eastern Daylight Time),591782.599999994,CFD-WF-026-008-A.jpg,1700,solid,I,z,1208,9,1,46500.39999999106,545282.200000003,9074,ATS,B,18
16,test,2,C,haborder.png,1,z,Wed Mar 18 2026 15:42:41 GMT-0400 (Eastern Daylight Time),594067.299999997,CFD-BF-051-043-A.jpg,1400,solid,I,z,863,7,1,48785.09999999404,545282.200000003,9074,ATS,B,19
17,test,2,C,mfborder.png,1,m,Wed Mar 18 2026 15:42:41 GMT-0400 (Eastern Daylight Time),597165.799999997,CFD-BM-037-041-A.jpg,2000,dash,I,m,1067,5,1,51883.59999999404,545282.200000003,9074,ATS,B,20
18,test,2,C,mfborder.png,1,m,Wed Mar 18 2026 15:42:41 GMT-0400 (Eastern Daylight Time),599032.5,CFD-BM-015-017-HC.jpg,1000,dash,I,m,839,4,1,53750.29999999702,545282.200000003,9074,ATS,B,21
19,test,2,C,mfborder.png,1,m,Wed Mar 18 2026 15:42:41 GMT-0400 (Eastern Daylight Time),602382.799999997,CFD-BM-037-041-A.jpg,2000,dash,I,m,1333,5,1,57100.59999999404,545282.200000003,9074,ATS,B,22
20,test,2,C,mfborder.png,1,z,Wed Mar 18 2026 15:42:41 GMT-0400 (Eastern Daylight Time),605216.799999997,CFD-WF-011-006-HC.jpg,1700,dash,I,z,1114,1,1,59934.59999999404,545282.200000003,9074,ATS,B,23
21,test,2,C,haborder.png,1,z,Wed Mar 18 2026 15:42:41 GMT-0400 (Eastern Daylight Time),608049.0,CFD-BF-051-043-A.jpg,1400,solid,I,z,1413,7,1,62766.79999999702,545282.200000003,9074,ATS,B,24
1,test,3,C,haborder.png,1,m,Wed Mar 18 2026 15:42:41 GMT-0400 (Eastern Daylight Time),612916.0,CFD-BF-035-007-HC.jpg,1600,solid,I,m,1427,10,1,3050.0,609866.0,9074,ATS,B,1
1,test,3,C,haborder.png,0,z,Wed Mar 18 2026 15:42:41 GMT-0400 (Eastern Daylight Time),615849.5,CFD-WM-009-009-A.jpg,1400,solid,I,None,1516,7,1,5983.5,609866.0,9074,ATS,B,2
1,test,3,C,mfborder.png,0,z,Wed Mar 18 2026 15:42:41 GMT-0400 (Eastern Daylight Time),618982.700000003,CFD-BF-051-043-A.jpg,1600,dash,I,None,1516,2,1,9116.70000000298,609866.0,9074,ATS,B,3
2,test,3,C,mfborder.png,1,m,Wed Mar 18 2026 15:42:41 GMT-0400 (Eastern Daylight Time),622232.400000006,CFD-WM-037-060-A.jpg,2000,dash,I,m,1222,5,1,12366.40000000596,609866.0,9074,ATS,B,4
3,test,3,C,mfborder.png,1,m,Wed Mar 18 2026 15:42:41 GMT-0400 (Eastern Daylight Time),625015.900000006,CFD-WM-037-060-A.jpg,2000,dash,I,m,756,5,1,15149.90000000596,609866.0,9074,ATS,B,5
3,test,3,C,haborder.png,0,z,Wed Mar 18 2026 15:42:41 GMT-0400 (Eastern Daylight Time),627949.200000003,CFD-WM-009-009-A.jpg,1400,solid,I,None,1516,7,1,18083.20000000298,609866.0,9074,ATS,B,6
3,test,3,C,mfborder.png,0,m,Wed Mar 18 2026 15:42:41 GMT-0400 (Eastern Daylight Time),630482.599999994,CFD-WM-012-007-HC.jpg,1000,dash,I,None,1516,4,1,20616.59999999404,609866.0,9074,ATS,B,7
3,test,3,C,haborder.png,0,m,Wed Mar 18 2026 15:42:41 GMT-0400 (Eastern Daylight Time),632132.5,CFD-WF-011-006-HC.jpg,1000,solid,I,z,626,12,1,22266.5,609866.0,9074,ATS,B,8
3,test,3,C,haborder.png,0,m,Wed Mar 18 2026 15:42:41 GMT-0400 (Eastern Daylight Time),634382.5,CFD-WF-027-007-HC.jpg,1500,solid,I,z,732,11,1,24516.5,609866.0,9074,ATS,B,9
4,test,3,C,haborder.png,1,z,Wed Mar 18 2026 15:42:41 GMT-0400 (Eastern Daylight Time),637382.400000006,CFD-BM-037-041-A.jpg,1900,solid,I,z,1074,8,1,27516.40000000596,609866.0,9074,ATS,B,10
4,test,3,C,haborder.png,0,m,Wed Mar 18 2026 15:42:41 GMT-0400 (Eastern Daylight Time),639382.099999994,CFD-WF-011-006-HC.jpg,1000,solid,I,z,973,12,1,29516.09999999404,609866.0,9074,ATS,B,11
5,test,3,C,mfborder.png,1,z,Wed Mar 18 2026 15:42:41 GMT-0400 (Eastern Daylight Time),641815.900000006,CFD-BF-051-043-A.jpg,1600,dash,I,z,807,2,1,31949.90000000596,609866.0,9074,ATS,B,12
6,test,3,C,mfborder.png,1,m,Wed Mar 18 2026 15:42:41 GMT-0400 (Eastern Daylight Time),644049.099999994,CFD-BM-020-024-HC.jpg,1200,dash,I,m,1013,6,1,34183.09999999404,609866.0,9074,ATS,B,13
7,test,3,C,mfborder.png,1,z,Wed Mar 18 2026 15:42:41 GMT-0400 (Eastern Daylight Time),646449.200000003,CFD-WF-026-008-A.jpg,1500,dash,I,z,880,3,1,36583.20000000298,609866.0,9074,ATS,B,14
8,test,3,C,mfborder.png,1,m,Wed Mar 18 2026 15:42:41 GMT-0400 (Eastern Daylight Time),648400.0,CFD-BM-020-024-HC.jpg,1200,dash,I,m,731,6,1,38534.0,609866.0,9074,ATS,B,15
9,test,3,C,mfborder.png,1,z,Wed Mar 18 2026 15:42:41 GMT-0400 (Eastern Daylight Time),650932.5,CFD-BF-027-013-HC.jpg,1700,dash,I,z,810,1,1,41066.5,609866.0,9074,ATS,B,16
9,test,3,C,haborder.png,0,z,Wed Mar 18 2026 15:42:41 GMT-0400 (Eastern Daylight Time),653415.700000003,CFD-BM-041-048-A.jpg,1700,solid,I,m,756,9,1,43549.70000000298,609866.0,9074,ATS,B,17
9,test,3,C,haborder.png,0,m,Wed Mar 18 2026 15:42:41 GMT-0400 (Eastern Daylight Time),656549.400000006,CFD-BF-035-007-HC.jpg,1600,solid,I,None,1516,10,1,46683.40000000596,609866.0,9074,ATS,B,18
10,test,3,C,haborder.png,1,z,Wed Mar 18 2026 15:42:41 GMT-0400 (Eastern Daylight Time),659265.700000003,CFD-BM-041-048-A.jpg,1700,solid,I,z,996,9,1,49399.70000000298,609866.0,9074,ATS,B,19
11,test,3,C,mfborder.png,1,m,Wed Mar 18 2026 15:42:41 GMT-0400 (Eastern Daylight Time),661248.799999997,CFD-WM-012-007-HC.jpg,1000,dash,I,m,962,4,1,51382.79999999702,609866.0,9074,ATS,B,20
12,test,3,C,haborder.png,1,z,Wed Mar 18 2026 15:42:41 GMT-0400 (Eastern Daylight Time),664065.799999997,CFD-BM-037-041-A.jpg,1900,solid,I,z,895,8,1,54199.79999999702,609866.0,9074,ATS,B,21
12,test,3,C,mfborder.png,0,z,Wed Mar 18 2026 15:42:41 GMT-0400 (Eastern Daylight Time),666949.200000003,CFD-BF-027-013-HC.jpg,1700,dash,I,m,1159,1,1,57083.20000000298,609866.0,9074,ATS,B,22
12,test,3,C,haborder.png,0,m,Wed Mar 18 2026 15:42:41 GMT-0400 (Eastern Daylight Time),669582.599999994,CFD-WF-027-007-HC.jpg,1500,solid,I,z,1115,11,1,59716.59999999404,609866.0,9074,ATS,B,23
13,test,3,C,mfborder.png,1,z,Wed Mar 18 2026 15:42:41 GMT-0400 (Eastern Daylight Time),672382.599999994,CFD-WF-026-008-A.jpg,1500,dash,I,z,1282,3,1,62516.59999999404,609866.0,9074,ATS,B,24
0,test,4,C,haborder.png,0,m,Wed Mar 18 2026 15:42:41 GMT-0400 (Eastern Daylight Time),680815.700000003,CFD-BM-020-024-HC.jpg,1600,solid,I,z,1148,10,1,2766.5,678049.200000003,9074,ATS,B,1
0,test,4,C,haborder.png,0,m,Wed Mar 18 2026 15:42:41 GMT-0400 (Eastern Daylight Time),682632.599999994,CFD-WM-011-006-HC.jpg,1000,solid,I,z,789,12,1,4583.399999991059,678049.200000003,9074,ATS,B,2
1,test,4,C,mfborder.png,1,m,Wed Mar 18 2026 15:42:41 GMT-0400 (Eastern Daylight Time),685200.099999994,CFD-WM-009-009-A.jpg,1200,dash,I,m,1348,6,1,7150.899999991059,678049.200000003,9074,ATS,B,3
2,test,4,C,haborder.png,1,z,Wed Mar 18 2026 15:42:41 GMT-0400 (Eastern Daylight Time),687715.599999994,CFD-BF-051-043-A.jpg,1400,solid,I,z,1094,7,1,9666.39999999106,678049.200000003,9074,ATS,B,4
2,test,4,C,mfborder.png,0,m,Wed Mar 18 2026 15:42:41 GMT-0400 (Eastern Daylight Time),691249.400000006,CFD-BM-037-041-A.jpg,2000,dash,I,None,1516,5,1,13200.20000000298,678049.200000003,9074,ATS,B,5
2,test,4,C,haborder.png,0,m,Wed Mar 18 2026 15:42:41 GMT-0400 (Eastern Daylight Time),694099.299999997,CFD-WM-011-006-HC.jpg,1500,solid,I,z,1328,11,1,16050.09999999404,678049.200000003,9074,ATS,B,6
3,test,4,C,mfborder.png,1,m,Wed Mar 18 2026 15:42:41 GMT-0400 (Eastern Daylight Time),697232.299999997,CFD-BM-037-041-A.jpg,2000,dash,I,m,1116,5,1,19183.09999999404,678049.200000003,9074,ATS,B,7
4,test,4,C,haborder.png,1,z,Wed Mar 18 2026 15:42:41 GMT-0400 (Eastern Daylight Time),699882.599999994,CFD-WF-026-008-A.jpg,1700,solid,I,z,920,9,1,21833.39999999106,678049.200000003,9074,ATS,B,8
5,test,4,C,mfborder.png,1,m,Wed Mar 18 2026 15:42:41 GMT-0400 (Eastern Daylight Time),702115.799999997,CFD-BM-015-017-HC.jpg,1000,dash,I,m,1210,4,1,24066.59999999404,678049.200000003,9074,ATS,B,9
6,test,4,C,haborder.png,1,z,Wed Mar 18 2026 15:42:41 GMT-0400 (Eastern Daylight Time),704932.599999994,CFD-BF-050-012-A.jpg,1900,solid,I,z,893,8,1,26883.39999999106,678049.200000003,9074,ATS,B,10
7,test,4,C,haborder.png,1,z,Wed Mar 18 2026 15:42:41 GMT-0400 (Eastern Daylight Time),707765.900000006,CFD-BF-050-012-A.jpg,1900,solid,I,z,908,8,1,29716.70000000298,678049.200000003,9074,ATS,B,11
7,test,4,C,mfborder.png,0,z,Wed Mar 18 2026 15:42:41 GMT-0400 (Eastern Daylight Time),710532.599999994,CFD-BF-035-007-HC.jpg,1500,dash,I,m,1243,3,1,32483.39999999106,678049.200000003,9074,ATS,B,12
8,test,4,C,mfborder.png,1,z,Wed Mar 18 2026 15:42:41 GMT-0400 (Eastern Daylight Time),712849.099999994,CFD-WF-013-015-A.jpg,1600,dash,I,z,696,2,1,34799.89999999106,678049.200000003,9074,ATS,B,13
9,test,4,C,haborder.png,1,m,Wed Mar 18 2026 15:42:41 GMT-0400 (Eastern Daylight Time),715582.599999994,CFD-BM-020-024-HC.jpg,1600,solid,I,m,1116,10,1,37533.39999999106,678049.200000003,9074,ATS,B,14
10,test,4,C,mfborder.png,1,z,Wed Mar 18 2026 15:42:41 GMT-0400 (Eastern Daylight Time),718565.900000006,CFD-WF-011-006-HC.jpg,1700,dash,I,z,1258,1,1,40516.70000000298,678049.200000003,9074,ATS,B,15
11,test,4,C,mfborder.png,1,z,Wed Mar 18 2026 15:42:41 GMT-0400 (Eastern Daylight Time),721200.0,CFD-WF-013-015-A.jpg,1600,dash,I,z,1015,2,1,43150.79999999702,678049.200000003,9074,ATS,B,16
12,test,4,C,haborder.png,1,m,Wed Mar 18 2026 15:42:41 GMT-0400 (Eastern Daylight Time),723965.900000006,CFD-WM-011-006-HC.jpg,1500,solid,I,m,1233,11,1,45916.70000000298,678049.200000003,9074,ATS,B,17
13,test,4,C,haborder.png,1,m,Wed Mar 18 2026 15:42:41 GMT-0400 (Eastern Daylight Time),725915.900000006,CFD-WM-011-006-HC.jpg,1000,solid,I,m,919,12,1,47866.70000000298,678049.200000003,9074,ATS,B,18
14,test,4,C,mfborder.png,1,m,Wed Mar 18 2026 15:42:41 GMT-0400 (Eastern Daylight Time),728015.599999994,CFD-BM-015-017-HC.jpg,1000,dash,I,m,1081,4,1,49966.39999999106,678049.200000003,9074,ATS,B,19
15,test,4,C,mfborder.png,1,m,Wed Mar 18 2026 15:42:41 GMT-0400 (Eastern Daylight Time),730182.599999994,CFD-WM-009-009-A.jpg,1200,dash,I,m,941,6,1,52133.39999999106,678049.200000003,9074,ATS,B,20
16,test,4,C,mfborder.png,1,z,Wed Mar 18 2026 15:42:41 GMT-0400 (Eastern Daylight Time),732899.299999997,CFD-WF-011-006-HC.jpg,1700,dash,I,z,994,1,1,54850.09999999404,678049.200000003,9074,ATS,B,21
17,test,4,C,haborder.png,1,z,Wed Mar 18 2026 15:42:41 GMT-0400 (Eastern Daylight Time),735432.5,CFD-BF-051-043-A.jpg,1400,solid,I,z,1106,7,1,57383.29999999702,678049.200000003,9074,ATS,B,22
18,test,4,C,haborder.png,1,z,Wed Mar 18 2026 15:42:41 GMT-0400 (Eastern Daylight Time),737982.599999994,CFD-WF-026-008-A.jpg,1700,solid,I,z,816,9,1,59933.39999999106,678049.200000003,9074,ATS,B,23
18,test,4,C,mfborder.png,0,z,Wed Mar 18 2026 15:42:41 GMT-0400 (Eastern Daylight Time),740432.299999997,CFD-BF-035-007-HC.jpg,1500,dash,I,m,930,3,1,62383.09999999404,678049.200000003,9074,ATS,B,24
