block_c,block_dur,condition,countdown,datetime,endtime,list,multichar_response,project,response,response_time,session_number,start_end,starttime,subject_id,task,task_vers,trial
,,,,Wed Nov 05 2025 16:06:21 GMT-0600 (Central Standard Time),,,,I,space,527,2,,,8063,WL,C,
prac,,0,,Wed Nov 05 2025 16:06:21 GMT-0600 (Central Standard Time),,NA,b,I,b,1703,2,,,8063,WL,C,1.0
prac,,0,,Wed Nov 05 2025 16:06:21 GMT-0600 (Central Standard Time),,NA,bo,I,o,224,2,,,8063,WL,C,1.0
prac,,0,,Wed Nov 05 2025 16:06:21 GMT-0600 (Central Standard Time),,NA,boo,I,o,135,2,,,8063,WL,C,1.0
prac,,0,,Wed Nov 05 2025 16:06:21 GMT-0600 (Central Standard Time),,NA,boos,I,s,386,2,,,8063,WL,C,1.0
prac,,0,,Wed Nov 05 2025 16:06:21 GMT-0600 (Central Standard Time),,NA,boost,I,t,168,2,,,8063,WL,C,1.0
prac,,0,,Wed Nov 05 2025 16:06:21 GMT-0600 (Central Standard Time),,NA,boostenter,I,enter,283,2,,,8063,WL,C,1.0
1,1.3430001735687256,learn,58656.999826431274,Wed Nov 05 2025 16:06:21 GMT-0600 (Central Standard Time),104322.60000000056,A,t,I,t,1324,2,1342.9000000003725,102979.70000000019,8063,WL,C,1.0
1,1.4940001964569092,learn,58505.99980354309,Wed Nov 05 2025 16:06:21 GMT-0600 (Central Standard Time),104473.20000000019,A,to,I,o,141,2,1493.5,102979.70000000019,8063,WL,C,1.0
1,1.7590000629425049,learn,58240.999937057495,Wed Nov 05 2025 16:06:21 GMT-0600 (Central Standard Time),104738.60000000056,A,tow,I,w,252,2,1758.9000000003725,102979.70000000019,8063,WL,C,1.0
1,1.9260001182556152,learn,58073.999881744385,Wed Nov 05 2025 16:06:21 GMT-0600 (Central Standard Time),104905.70000000019,A,towe,I,e,148,2,1926.0,102979.70000000019,8063,WL,C,1.0
1,2.06000018119812,learn,57939.99981880188,Wed Nov 05 2025 16:06:21 GMT-0600 (Central Standard Time),105039.10000000056,A,tower,I,r,118,2,2059.4000000003725,102979.70000000019,8063,WL,C,1.0
1,2.326000213623047,learn,57673.99978637695,Wed Nov 05 2025 16:06:21 GMT-0600 (Central Standard Time),105305.70000000019,A,towerenter,I,enter,249,2,2326.0,102979.70000000019,8063,WL,C,1.0
1,2.9090001583099365,learn,57090.99984169006,Wed Nov 05 2025 16:06:21 GMT-0600 (Central Standard Time),105888.70000000019,A,w,I,w,572,2,582.5999999996275,105306.10000000056,8063,WL,C,2.0
1,3.1430001258850098,learn,56856.99987411499,Wed Nov 05 2025 16:06:21 GMT-0600 (Central Standard Time),106122.29999999981,A,wh,I,h,223,2,816.1999999992549,105306.10000000056,8063,WL,C,2.0
1,3.242000102996826,learn,56757.999897003174,Wed Nov 05 2025 16:06:21 GMT-0600 (Central Standard Time),106221.40000000037,A,whe,I,e,94,2,915.2999999998137,105306.10000000056,8063,WL,C,2.0
1,3.377000093460083,learn,56622.99990653992,Wed Nov 05 2025 16:06:21 GMT-0600 (Central Standard Time),106356.79999999981,A,whee,I,e,130,2,1050.699999999255,105306.10000000056,8063,WL,C,2.0
1,3.5430002212524414,learn,56456.99977874756,Wed Nov 05 2025 16:06:21 GMT-0600 (Central Standard Time),106522.60000000056,A,wheet,I,t,146,2,1216.5,105306.10000000056,8063,WL,C,2.0
1,3.9610002040863037,learn,56038.999795913696,Wed Nov 05 2025 16:06:21 GMT-0600 (Central Standard Time),106940.40000000037,A,wheetenter,I,enter,406,2,1634.2999999998137,105306.10000000056,8063,WL,C,2.0
1,4.29200005531311,learn,55707.99994468689,Wed Nov 05 2025 16:06:21 GMT-0600 (Central Standard Time),107271.40000000037,A,q,I,q,313,2,330.70000000018626,106940.70000000019,8063,WL,C,3.0
1,4.459000110626221,learn,55540.99988937378,Wed Nov 05 2025 16:06:21 GMT-0600 (Central Standard Time),107438.60000000056,A,qu,I,u,161,2,497.90000000037253,106940.70000000019,8063,WL,C,3.0
1,4.625,learn,55375.0,Wed Nov 05 2025 16:06:21 GMT-0600 (Central Standard Time),107604.70000000019,A,que,I,e,163,2,664.0,106940.70000000019,8063,WL,C,3.0
1,4.776000022888184,learn,55223.99997711182,Wed Nov 05 2025 16:06:21 GMT-0600 (Central Standard Time),107755.5,A,quee,I,e,139,2,814.7999999998137,106940.70000000019,8063,WL,C,3.0
1,4.859000205993652,learn,55140.99979400635,Wed Nov 05 2025 16:06:21 GMT-0600 (Central Standard Time),107838.40000000037,A,queen,I,n,76,2,897.7000000001863,106940.70000000019,8063,WL,C,3.0
1,5.194000005722046,learn,54805.999994277954,Wed Nov 05 2025 16:06:21 GMT-0600 (Central Standard Time),108173.10000000056,A,queenenter,I,enter,331,2,1232.4000000003725,106940.70000000019,8063,WL,C,3.0
1,5.492000102996826,learn,54507.999897003174,Wed Nov 05 2025 16:06:21 GMT-0600 (Central Standard Time),108471.40000000037,A,b,I,b,283,2,298.1000000005588,108173.29999999981,8063,WL,C,4.0
1,5.625,learn,54375.0,Wed Nov 05 2025 16:06:21 GMT-0600 (Central Standard Time),108604.79999999981,A,bo,I,o,120,2,431.5,108173.29999999981,8063,WL,C,4.0
1,5.891000032424927,learn,54108.99996757507,Wed Nov 05 2025 16:06:21 GMT-0600 (Central Standard Time),108870.70000000019,A,boy,I,y,259,2,697.4000000003725,108173.29999999981,8063,WL,C,4.0
1,6.258000135421753,learn,53741.99986457825,Wed Nov 05 2025 16:06:21 GMT-0600 (Central Standard Time),109237.40000000037,A,boyenter,I,enter,362,2,1064.1000000005588,108173.29999999981,8063,WL,C,4.0
1,6.575000047683716,learn,53424.999952316284,Wed Nov 05 2025 16:06:21 GMT-0600 (Central Standard Time),109554.70000000019,A,d,I,d,306,2,317.0,109237.70000000019,8063,WL,C,5.0
1,6.709000110626221,learn,53290.99988937378,Wed Nov 05 2025 16:06:21 GMT-0600 (Central Standard Time),109688.70000000019,A,do,I,o,118,2,451.0,109237.70000000019,8063,WL,C,5.0
1,6.825000047683716,learn,53174.999952316284,Wed Nov 05 2025 16:06:21 GMT-0600 (Central Standard Time),109804.5,A,doc,I,c,112,2,566.7999999998137,109237.70000000019,8063,WL,C,5.0
1,7.1590001583099365,learn,52840.99984169006,Wed Nov 05 2025 16:06:21 GMT-0600 (Central Standard Time),110138.70000000019,A,doct,I,t,324,2,901.0,109237.70000000019,8063,WL,C,5.0
1,7.291000127792358,learn,52708.99987220764,Wed Nov 05 2025 16:06:21 GMT-0600 (Central Standard Time),110270.20000000019,A,docto,I,o,117,2,1032.5,109237.70000000019,8063,WL,C,5.0
1,7.425000190734863,learn,52574.99980926514,Wed Nov 05 2025 16:06:21 GMT-0600 (Central Standard Time),110404.90000000037,A,doctor,I,r,121,2,1167.2000000001863,109237.70000000019,8063,WL,C,5.0
1,7.674000024795532,learn,52325.99997520447,Wed Nov 05 2025 16:06:21 GMT-0600 (Central Standard Time),110653.5,A,doctorenter,I,enter,243,2,1415.7999999998137,109237.70000000019,8063,WL,C,5.0
1,7.924000024795532,learn,52075.99997520447,Wed Nov 05 2025 16:06:21 GMT-0600 (Central Standard Time),110903.79999999981,A,c,I,c,240,2,249.8999999994412,110653.90000000037,8063,WL,C,6.0
1,8.026000022888184,learn,51973.99997711182,Wed Nov 05 2025 16:06:21 GMT-0600 (Central Standard Time),111005.29999999981,A,co,I,o,88,2,351.3999999994412,110653.90000000037,8063,WL,C,6.0
1,8.175000190734863,learn,51824.99980926514,Wed Nov 05 2025 16:06:21 GMT-0600 (Central Standard Time),111154.90000000037,A,cor,I,r,130,2,501.0,110653.90000000037,8063,WL,C,6.0
1,8.307000160217285,learn,51692.999839782715,Wed Nov 05 2025 16:06:21 GMT-0600 (Central Standard Time),111286.60000000056,A,corn,I,n,125,2,632.7000000001863,110653.90000000037,8063,WL,C,6.0
1,8.657000064849854,learn,51342.99993515015,Wed Nov 05 2025 16:06:21 GMT-0600 (Central Standard Time),111636.5,A,cornenter,I,enter,338,2,982.5999999996275,110653.90000000037,8063,WL,C,6.0
1,12.004000186920166,learn,47995.999813079834,Wed Nov 05 2025 16:06:21 GMT-0600 (Central Standard Time),114984.29999999981,A,n,I,n,3337,2,3347.5,111636.79999999981,8063,WL,C,7.0
1,12.120000123977661,learn,47879.99987602234,Wed Nov 05 2025 16:06:21 GMT-0600 (Central Standard Time),115100.70000000019,A,na,I,a,111,2,3463.9000000003725,111636.79999999981,8063,WL,C,7.0
1,12.254000186920166,learn,47745.999813079834,Wed Nov 05 2025 16:06:21 GMT-0600 (Central Standard Time),115234.0,A,nai,I,i,115,2,3597.2000000001863,111636.79999999981,8063,WL,C,7.0
1,12.421000003814697,learn,47578.9999961853,Wed Nov 05 2025 16:06:21 GMT-0600 (Central Standard Time),115400.90000000037,A,nail,I,l,149,2,3764.100000000559,111636.79999999981,8063,WL,C,7.0
1,12.654000043869019,learn,47345.99995613098,Wed Nov 05 2025 16:06:21 GMT-0600 (Central Standard Time),115634.0,A,nailenter,I,enter,224,2,3997.2000000001863,111636.79999999981,8063,WL,C,7.0
1,19.336000204086304,learn,40663.999795913696,Wed Nov 05 2025 16:06:21 GMT-0600 (Central Standard Time),122316.90000000037,A,g,I,g,6679,2,6682.700000000186,115634.20000000019,8063,WL,C,8.0
1,19.521000146865845,learn,40478.999853134155,Wed Nov 05 2025 16:06:21 GMT-0600 (Central Standard Time),122501.10000000056,A,gr,I,r,172,2,6866.9000000003725,115634.20000000019,8063,WL,C,8.0
1,19.670000076293945,learn,40329.999923706055,Wed Nov 05 2025 16:06:21 GMT-0600 (Central Standard Time),122650.29999999981,A,gra,I,a,131,2,7016.0999999996275,115634.20000000019,8063,WL,C,8.0
1,20.01900005340576,learn,39980.99994659424,Wed Nov 05 2025 16:06:21 GMT-0600 (Central Standard Time),122999.70000000019,A,gras,I,s,335,2,7365.5,115634.20000000019,8063,WL,C,8.0
1,20.136000156402588,learn,39863.99984359741,Wed Nov 05 2025 16:06:21 GMT-0600 (Central Standard Time),123116.29999999981,A,grass,I,s,113,2,7482.0999999996275,115634.20000000019,8063,WL,C,8.0
1,20.570000171661377,learn,39429.99982833862,Wed Nov 05 2025 16:06:21 GMT-0600 (Central Standard Time),123550.0,A,grassenter,I,enter,420,2,7915.799999999814,115634.20000000019,8063,WL,C,8.0
1,27.18400001525879,learn,32815.99998474121,Wed Nov 05 2025 16:06:21 GMT-0600 (Central Standard Time),130164.29999999981,A,s,I,s,6595,2,6614.199999999255,123550.10000000056,8063,WL,C,9.0
1,27.3510000705719,learn,32648.9999294281,Wed Nov 05 2025 16:06:21 GMT-0600 (Central Standard Time),130331.40000000037,A,su,I,u,147,2,6781.299999999814,123550.10000000056,8063,WL,C,9.0
1,27.617000102996826,learn,32382.999897003174,Wed Nov 05 2025 16:06:21 GMT-0600 (Central Standard Time),130597.40000000037,A,sug,I,g,253,2,7047.299999999814,123550.10000000056,8063,WL,C,9.0
1,27.818000078201294,learn,32181.999921798706,Wed Nov 05 2025 16:06:21 GMT-0600 (Central Standard Time),130798.79999999981,A,suga,I,a,188,2,7248.699999999255,123550.10000000056,8063,WL,C,9.0
1,27.91700005531311,learn,32082.99994468689,Wed Nov 05 2025 16:06:21 GMT-0600 (Central Standard Time),130897.20000000019,A,sugar,I,r,90,2,7347.0999999996275,123550.10000000056,8063,WL,C,9.0
1,28.633000135421753,learn,31366.999864578247,Wed Nov 05 2025 16:06:21 GMT-0600 (Central Standard Time),131613.7000000002,A,sugarenter,I,enter,712,2,8063.5999999996275,123550.10000000056,8063,WL,C,9.0
1,36.132000207901,learn,23867.999792099,Wed Nov 05 2025 16:06:21 GMT-0600 (Central Standard Time),139112.60000000056,A,w,I,w,7482,2,7498.700000000186,131613.90000000037,8063,WL,C,10.0
1,36.33200001716614,learn,23667.999982833862,Wed Nov 05 2025 16:06:21 GMT-0600 (Central Standard Time),139312.10000000056,A,wh,I,h,192,2,7698.200000000186,131613.90000000037,8063,WL,C,10.0
1,36.430999994277954,learn,23569.000005722046,Wed Nov 05 2025 16:06:21 GMT-0600 (Central Standard Time),139411.5,A,whe,I,e,89,2,7797.5999999996275,131613.90000000037,8063,WL,C,10.0
1,36.581000089645386,learn,23418.999910354614,Wed Nov 05 2025 16:06:21 GMT-0600 (Central Standard Time),139561.2000000002,A,whea,I,a,142,2,7947.299999999814,131613.90000000037,8063,WL,C,10.0
1,36.680999994277954,learn,23319.000005722046,Wed Nov 05 2025 16:06:21 GMT-0600 (Central Standard Time),139661.90000000037,A,wheat,I,t,96,2,8048.0,131613.90000000037,8063,WL,C,10.0
1,37.247000217437744,learn,22752.999782562256,Wed Nov 05 2025 16:06:21 GMT-0600 (Central Standard Time),140227.7999999998,A,wheatenter,I,enter,555,2,8613.899999999441,131613.90000000037,8063,WL,C,10.0
1,48.09400010108948,learn,11905.999898910522,Wed Nov 05 2025 16:06:21 GMT-0600 (Central Standard Time),151074.2000000002,A,s,I,s,10828,2,10846.200000000186,140228.0,8063,WL,C,11.0
1,48.24400019645691,learn,11755.99980354309,Wed Nov 05 2025 16:06:21 GMT-0600 (Central Standard Time),151224.10000000056,A,sh,I,h,135,2,10996.100000000559,140228.0,8063,WL,C,11.0
1,48.31000018119812,learn,11689.99981880188,Wed Nov 05 2025 16:06:21 GMT-0600 (Central Standard Time),151290.7999999998,A,sho,I,o,48,2,11062.799999999814,140228.0,8063,WL,C,11.0
1,48.47699999809265,learn,11523.000001907349,Wed Nov 05 2025 16:06:21 GMT-0600 (Central Standard Time),151457.90000000037,A,shor,I,r,149,2,11229.900000000373,140228.0,8063,WL,C,11.0
1,48.54400014877319,learn,11455.999851226807,Wed Nov 05 2025 16:06:21 GMT-0600 (Central Standard Time),151524.40000000037,A,shore,I,e,45,2,11296.400000000373,140228.0,8063,WL,C,11.0
1,48.96000003814697,learn,11039.999961853027,Wed Nov 05 2025 16:06:21 GMT-0600 (Central Standard Time),151940.5,A,shoreenter,I,enter,406,2,11712.5,140228.0,8063,WL,C,11.0
1,54.19200015068054,learn,5807.999849319458,Wed Nov 05 2025 16:06:21 GMT-0600 (Central Standard Time),157172.2999999998,A,d,I,d,5229,2,5231.699999999255,151940.60000000056,8063,WL,C,12.0
1,54.40900015830994,learn,5590.9998416900635,Wed Nov 05 2025 16:06:21 GMT-0600 (Central Standard Time),157389.10000000056,A,do,I,o,203,2,5448.5,151940.60000000056,8063,WL,C,12.0
1,54.492000102996826,learn,5507.999897003174,Wed Nov 05 2025 16:06:21 GMT-0600 (Central Standard Time),157472.60000000056,A,doc,I,c,76,2,5532.0,151940.60000000056,8063,WL,C,12.0
1,54.70800018310547,learn,5291.999816894531,Wed Nov 05 2025 16:06:21 GMT-0600 (Central Standard Time),157688.7999999998,A,doct,I,t,207,2,5748.199999999255,151940.60000000056,8063,WL,C,12.0
1,54.77500009536743,learn,5224.999904632568,Wed Nov 05 2025 16:06:21 GMT-0600 (Central Standard Time),157755.2999999998,A,docto,I,o,55,2,5814.699999999255,151940.60000000056,8063,WL,C,12.0
1,55.57600021362305,learn,4423.999786376953,Wed Nov 05 2025 16:06:21 GMT-0600 (Central Standard Time),158556.2000000002,A,doctor,I,r,787,2,6615.5999999996275,151940.60000000056,8063,WL,C,12.0
1,56.02500009536743,learn,3974.9999046325684,Wed Nov 05 2025 16:06:21 GMT-0600 (Central Standard Time),159004.90000000037,A,doctorenter,I,enter,444,2,7064.299999999814,151940.60000000056,8063,WL,C,12.0
1,59.09000015258789,learn,909.9998474121094,Wed Nov 05 2025 16:06:21 GMT-0600 (Central Standard Time),162070.2999999998,A,b,I,b,3060,2,3065.0999999996275,159005.2000000002,8063,WL,C,13.0
1,59.20700001716614,learn,792.9999828338623,Wed Nov 05 2025 16:06:21 GMT-0600 (Central Standard Time),162187.60000000056,A,bo,I,o,105,2,3182.4000000003725,159005.2000000002,8063,WL,C,13.0
1,59.40700006484985,learn,592.9999351501465,Wed Nov 05 2025 16:06:21 GMT-0600 (Central Standard Time),162387.60000000056,A,boy,I,y,189,2,3382.4000000003725,159005.2000000002,8063,WL,C,13.0
1,59.757000207901,learn,242.99979209899902,Wed Nov 05 2025 16:06:21 GMT-0600 (Central Standard Time),162737.7000000002,A,boyenter,I,enter,332,2,3732.5,159005.2000000002,8063,WL,C,13.0
1,60.007000207901,learn,-7.000207901000977,Wed Nov 05 2025 16:06:21 GMT-0600 (Central Standard Time),162987.2000000002,A,None,I,None,246,2,249.29999999981374,162737.90000000037,8063,WL,C,14.0
2,1.4489998817443848,learn,58551.000118255615,Wed Nov 05 2025 16:06:21 GMT-0600 (Central Standard Time),233764.7000000002,A,b,I,b,1438,2,1449.4000000003725,232315.2999999998,8063,WL,C,1.0
2,1.6989998817443848,learn,58301.000118255615,Wed Nov 05 2025 16:06:21 GMT-0600 (Central Standard Time),234015.10000000056,A,bo,I,o,244,2,1699.800000000745,232315.2999999998,8063,WL,C,1.0
2,2.0,learn,58000.0,Wed Nov 05 2025 16:06:21 GMT-0600 (Central Standard Time),234315.7000000002,A,bod,I,d,290,2,2000.4000000003725,232315.2999999998,8063,WL,C,1.0
2,2.2149999141693115,learn,57785.00008583069,Wed Nov 05 2025 16:06:21 GMT-0600 (Central Standard Time),234531.2999999998,A,body,I,y,196,2,2216.0,232315.2999999998,8063,WL,C,1.0
2,2.5980000495910645,learn,57401.999950408936,Wed Nov 05 2025 16:06:21 GMT-0600 (Central Standard Time),234913.7999999998,A,bodyenter,I,enter,365,2,2598.5,232315.2999999998,8063,WL,C,1.0
2,3.3480000495910645,learn,56651.999950408936,Wed Nov 05 2025 16:06:21 GMT-0600 (Central Standard Time),235664.2000000002,A,c,I,c,734,2,750.2000000001863,234914.0,8063,WL,C,2.0
2,3.499000072479248,learn,56500.99992752075,Wed Nov 05 2025 16:06:21 GMT-0600 (Central Standard Time),235814.7999999998,A,ca,I,a,136,2,900.7999999998137,234914.0,8063,WL,C,2.0
2,3.615000009536743,learn,56384.99999046326,Wed Nov 05 2025 16:06:21 GMT-0600 (Central Standard Time),235930.7000000002,A,cam,I,m,97,2,1016.7000000001863,234914.0,8063,WL,C,2.0
2,3.7330000400543213,learn,56266.99995994568,Wed Nov 05 2025 16:06:21 GMT-0600 (Central Standard Time),236048.40000000037,A,camp,I,p,110,2,1134.4000000003725,234914.0,8063,WL,C,2.0
2,4.414999961853027,learn,55585.00003814697,Wed Nov 05 2025 16:06:21 GMT-0600 (Central Standard Time),236730.5,A,campenter,I,enter,672,2,1816.5,234914.0,8063,WL,C,2.0
2,4.7149999141693115,learn,55285.00008583069,Wed Nov 05 2025 16:06:21 GMT-0600 (Central Standard Time),237030.7000000002,A,t,I,t,292,2,300.0,236730.7000000002,8063,WL,C,3.0
2,4.864000082015991,learn,55135.99991798401,Wed Nov 05 2025 16:06:21 GMT-0600 (Central Standard Time),237180.10000000056,A,to,I,o,146,2,449.40000000037253,236730.7000000002,8063,WL,C,3.0
2,5.0980000495910645,learn,54901.999950408936,Wed Nov 05 2025 16:06:21 GMT-0600 (Central Standard Time),237413.40000000037,A,tow,I,w,220,2,682.7000000001863,236730.7000000002,8063,WL,C,3.0
2,5.197999954223633,learn,54802.00004577637,Wed Nov 05 2025 16:06:21 GMT-0600 (Central Standard Time),237513.7999999998,A,towe,I,e,83,2,783.0999999996275,236730.7000000002,8063,WL,C,3.0
2,5.346999883651733,learn,54653.00011634827,Wed Nov 05 2025 16:06:21 GMT-0600 (Central Standard Time),237663.2000000002,A,tower,I,r,134,2,932.5,236730.7000000002,8063,WL,C,3.0
2,5.746999979019165,learn,54253.000020980835,Wed Nov 05 2025 16:06:21 GMT-0600 (Central Standard Time),238062.7000000002,A,towerenter,I,enter,386,2,1332.0,236730.7000000002,8063,WL,C,3.0
2,6.497999906539917,learn,53502.00009346008,Wed Nov 05 2025 16:06:21 GMT-0600 (Central Standard Time),238814.0,A,s,I,s,738,2,751.2000000001863,238062.7999999998,8063,WL,C,4.0
2,6.614000082015991,learn,53385.99991798401,Wed Nov 05 2025 16:06:21 GMT-0600 (Central Standard Time),238930.2999999998,A,su,I,u,99,2,867.5,238062.7999999998,8063,WL,C,4.0
2,6.7799999713897705,learn,53220.00002861023,Wed Nov 05 2025 16:06:21 GMT-0600 (Central Standard Time),239096.10000000056,A,sug,I,g,160,2,1033.300000000745,238062.7999999998,8063,WL,C,4.0
2,6.914000034332275,learn,53085.999965667725,Wed Nov 05 2025 16:06:21 GMT-0600 (Central Standard Time),239229.5,A,suga,I,a,128,2,1166.7000000001863,238062.7999999998,8063,WL,C,4.0
2,7.04800009727478,learn,52951.99990272522,Wed Nov 05 2025 16:06:21 GMT-0600 (Central Standard Time),239363.5,A,sugar,I,r,124,2,1300.7000000001863,238062.7999999998,8063,WL,C,4.0
2,7.29800009727478,learn,52701.99990272522,Wed Nov 05 2025 16:06:21 GMT-0600 (Central Standard Time),239613.5,A,sugarenter,I,enter,245,2,1550.7000000001863,238062.7999999998,8063,WL,C,4.0
2,7.497999906539917,learn,52502.00009346008,Wed Nov 05 2025 16:06:21 GMT-0600 (Central Standard Time),239813.5,A,b,I,b,196,2,199.79999999981374,239613.7000000002,8063,WL,C,5.0
2,7.596999883651733,learn,52403.00011634827,Wed Nov 05 2025 16:06:21 GMT-0600 (Central Standard Time),239913.0,A,bo,I,o,92,2,299.29999999981374,239613.7000000002,8063,WL,C,5.0
2,7.829999923706055,learn,52170.000076293945,Wed Nov 05 2025 16:06:21 GMT-0600 (Central Standard Time),240146.40000000037,A,boy,I,y,215,2,532.7000000001863,239613.7000000002,8063,WL,C,5.0
2,8.096999883651733,learn,51903.00011634827,Wed Nov 05 2025 16:06:21 GMT-0600 (Central Standard Time),240413.0,A,boyenter,I,enter,255,2,799.2999999998137,239613.7000000002,8063,WL,C,5.0
2,8.29699993133545,learn,51703.00006866455,Wed Nov 05 2025 16:06:21 GMT-0600 (Central Standard Time),240612.90000000037,A,d,I,d,197,2,199.70000000018626,240413.2000000002,8063,WL,C,6.0
2,8.38100004196167,learn,51618.99995803833,Wed Nov 05 2025 16:06:21 GMT-0600 (Central Standard Time),240696.5,A,do,I,o,76,2,283.29999999981374,240413.2000000002,8063,WL,C,6.0
2,8.513000011444092,learn,51486.99998855591,Wed Nov 05 2025 16:06:21 GMT-0600 (Central Standard Time),240828.7000000002,A,doc,I,c,129,2,415.5,240413.2000000002,8063,WL,C,6.0
2,8.680000066757202,learn,51319.9999332428,Wed Nov 05 2025 16:06:21 GMT-0600 (Central Standard Time),240995.60000000056,A,doct,I,t,163,2,582.4000000003725,240413.2000000002,8063,WL,C,6.0
2,8.812999963760376,learn,51187.000036239624,Wed Nov 05 2025 16:06:21 GMT-0600 (Central Standard Time),241129.2000000002,A,docto,I,o,116,2,716.0,240413.2000000002,8063,WL,C,6.0
2,8.928999900817871,learn,51071.00009918213,Wed Nov 05 2025 16:06:21 GMT-0600 (Central Standard Time),241244.90000000037,A,doctor,I,r,104,2,831.7000000001863,240413.2000000002,8063,WL,C,6.0
2,9.19700002670288,learn,50802.99997329712,Wed Nov 05 2025 16:06:21 GMT-0600 (Central Standard Time),241512.90000000037,A,doctorenter,I,enter,252,2,1099.7000000001863,240413.2000000002,8063,WL,C,6.0
2,9.413000106811523,learn,50586.99989318848,Wed Nov 05 2025 16:06:21 GMT-0600 (Central Standard Time),241728.7999999998,A,f,I,f,206,2,215.79999999981374,241513.0,8063,WL,C,7.0
2,9.529000043869019,learn,50470.99995613098,Wed Nov 05 2025 16:06:21 GMT-0600 (Central Standard Time),241845.10000000056,A,fl,I,l,103,2,332.1000000005588,241513.0,8063,WL,C,7.0
2,9.63100004196167,learn,50368.99995803833,Wed Nov 05 2025 16:06:21 GMT-0600 (Central Standard Time),241947.10000000056,A,fla,I,a,90,2,434.1000000005588,241513.0,8063,WL,C,7.0
2,9.913000106811523,learn,50086.99989318848,Wed Nov 05 2025 16:06:21 GMT-0600 (Central Standard Time),242229.2000000002,A,flag,I,g,269,2,716.2000000001863,241513.0,8063,WL,C,7.0
2,10.246000051498413,learn,49753.99994850159,Wed Nov 05 2025 16:06:21 GMT-0600 (Central Standard Time),242562.10000000056,A,flagenter,I,enter,324,2,1049.1000000005588,241513.0,8063,WL,C,7.0
2,11.378999948501587,learn,48621.00005149841,Wed Nov 05 2025 16:06:21 GMT-0600 (Central Standard Time),243695.2000000002,A,q,I,q,1124,2,1132.9000000003725,242562.2999999998,8063,WL,C,8.0
2,11.562999963760376,learn,48437.000036239624,Wed Nov 05 2025 16:06:21 GMT-0600 (Central Standard Time),243878.5,A,qu,I,u,178,2,1316.2000000001863,242562.2999999998,8063,WL,C,8.0
2,11.696000099182129,learn,48303.99990081787,Wed Nov 05 2025 16:06:21 GMT-0600 (Central Standard Time),244012.10000000056,A,que,I,e,115,2,1449.800000000745,242562.2999999998,8063,WL,C,8.0
2,11.829999923706055,learn,48170.000076293945,Wed Nov 05 2025 16:06:21 GMT-0600 (Central Standard Time),244145.5,A,quee,I,e,117,2,1583.2000000001863,242562.2999999998,8063,WL,C,8.0
2,11.948999881744385,learn,48051.000118255615,Wed Nov 05 2025 16:06:21 GMT-0600 (Central Standard Time),244264.90000000037,A,queen,I,n,107,2,1702.6000000005588,242562.2999999998,8063,WL,C,8.0
2,12.295000076293945,learn,47704.999923706055,Wed Nov 05 2025 16:06:21 GMT-0600 (Central Standard Time),244611.2999999998,A,queenenter,I,enter,328,2,2049.0,242562.2999999998,8063,WL,C,8.0
2,13.878999948501587,learn,46121.00005149841,Wed Nov 05 2025 16:06:21 GMT-0600 (Central Standard Time),246195.2000000002,A,w,I,w,1572,2,1583.7000000001863,244611.5,8063,WL,C,9.0
2,14.095999956130981,learn,45904.00004386902,Wed Nov 05 2025 16:06:21 GMT-0600 (Central Standard Time),246411.60000000056,A,wh,I,h,214,2,1800.1000000005588,244611.5,8063,WL,C,9.0
2,14.194999933242798,learn,45805.0000667572,Wed Nov 05 2025 16:06:21 GMT-0600 (Central Standard Time),246510.7000000002,A,whe,I,e,85,2,1899.2000000001863,244611.5,8063,WL,C,9.0
2,14.34500002861023,learn,45654.99997138977,Wed Nov 05 2025 16:06:21 GMT-0600 (Central Standard Time),246660.7999999998,A,whea,I,a,137,2,2049.2999999998137,244611.5,8063,WL,C,9.0
2,14.479000091552734,learn,45520.999908447266,Wed Nov 05 2025 16:06:21 GMT-0600 (Central Standard Time),246794.7999999998,A,wheat,I,t,114,2,2183.2999999998137,244611.5,8063,WL,C,9.0
2,14.861000061035156,learn,45138.999938964844,Wed Nov 05 2025 16:06:21 GMT-0600 (Central Standard Time),247177.2999999998,A,wheatenter,I,enter,366,2,2565.7999999998137,244611.5,8063,WL,C,9.0
2,15.227999925613403,learn,44772.0000743866,Wed Nov 05 2025 16:06:21 GMT-0600 (Central Standard Time),247543.90000000037,A,c,I,c,350,2,366.40000000037253,247177.5,8063,WL,C,10.0
2,15.296000003814697,learn,44703.9999961853,Wed Nov 05 2025 16:06:21 GMT-0600 (Central Standard Time),247611.60000000056,A,co,I,o,57,2,434.1000000005588,247177.5,8063,WL,C,10.0
2,15.42799997329712,learn,44572.00002670288,Wed Nov 05 2025 16:06:21 GMT-0600 (Central Standard Time),247743.7000000002,A,cor,I,r,116,2,566.2000000001863,247177.5,8063,WL,C,10.0
2,15.546000003814697,learn,44453.9999961853,Wed Nov 05 2025 16:06:21 GMT-0600 (Central Standard Time),247861.5,A,corn,I,n,105,2,684.0,247177.5,8063,WL,C,10.0
2,15.894000053405762,learn,44105.99994659424,Wed Nov 05 2025 16:06:21 GMT-0600 (Central Standard Time),248210.2999999998,A,cornenter,I,enter,339,2,1032.7999999998137,247177.5,8063,WL,C,10.0
2,19.24399995803833,learn,40756.00004196167,Wed Nov 05 2025 16:06:21 GMT-0600 (Central Standard Time),251559.5,A,n,I,n,3334,2,3349.0,248210.5,8063,WL,C,11.0
2,19.344000101089478,learn,40655.99989891052,Wed Nov 05 2025 16:06:21 GMT-0600 (Central Standard Time),251659.7000000002,A,na,I,a,89,2,3449.2000000001863,248210.5,8063,WL,C,11.0
2,19.47699999809265,learn,40523.00000190735,Wed Nov 05 2025 16:06:21 GMT-0600 (Central Standard Time),251792.7999999998,A,nai,I,i,125,2,3582.2999999998137,248210.5,8063,WL,C,11.0
2,19.64299988746643,learn,40357.00011253357,Wed Nov 05 2025 16:06:21 GMT-0600 (Central Standard Time),251959.2000000002,A,nail,I,l,160,2,3748.7000000001863,248210.5,8063,WL,C,11.0
2,19.908999919891357,learn,40091.00008010864,Wed Nov 05 2025 16:06:21 GMT-0600 (Central Standard Time),252224.7999999998,A,nailenter,I,enter,257,2,4014.2999999998137,248210.5,8063,WL,C,11.0
2,29.907000064849854,learn,30092.999935150146,Wed Nov 05 2025 16:06:21 GMT-0600 (Central Standard Time),262222.60000000056,A,d,I,d,9991,2,9997.600000000559,252225.0,8063,WL,C,12.0
2,29.973999977111816,learn,30026.000022888184,Wed Nov 05 2025 16:06:21 GMT-0600 (Central Standard Time),262290.4000000004,A,do,I,o,58,2,10065.400000000373,252225.0,8063,WL,C,12.0
2,30.10700011253357,learn,29892.99988746643,Wed Nov 05 2025 16:06:21 GMT-0600 (Central Standard Time),262422.7999999998,A,doc,I,c,119,2,10197.799999999814,252225.0,8063,WL,C,12.0
2,30.27300000190735,learn,29726.99999809265,Wed Nov 05 2025 16:06:21 GMT-0600 (Central Standard Time),262589.2000000002,A,doct,I,t,154,2,10364.200000000186,252225.0,8063,WL,C,12.0
2,30.372999906539917,learn,29627.000093460083,Wed Nov 05 2025 16:06:21 GMT-0600 (Central Standard Time),262689.2000000002,A,docto,I,o,83,2,10464.200000000186,252225.0,8063,WL,C,12.0
2,30.471999883651733,learn,29528.000116348267,Wed Nov 05 2025 16:06:21 GMT-0600 (Central Standard Time),262788.4000000004,A,doctor,I,r,93,2,10563.400000000373,252225.0,8063,WL,C,12.0
2,30.706000089645386,learn,29293.999910354614,Wed Nov 05 2025 16:06:21 GMT-0600 (Central Standard Time),263022.2999999998,A,doctorenter,I,enter,221,2,10797.299999999814,252225.0,8063,WL,C,12.0
2,32.65599989891052,learn,27344.000101089478,Wed Nov 05 2025 16:06:21 GMT-0600 (Central Standard Time),264971.60000000056,A,b,I,b,1939,2,1949.2000000001863,263022.4000000004,8063,WL,C,13.0
2,32.73900008201599,learn,27260.99991798401,Wed Nov 05 2025 16:06:21 GMT-0600 (Central Standard Time),265055.2000000002,A,bo,I,o,77,2,2032.7999999998137,263022.4000000004,8063,WL,C,13.0
2,32.90599989891052,learn,27094.000101089478,Wed Nov 05 2025 16:06:21 GMT-0600 (Central Standard Time),265222.0,A,boy,I,y,158,2,2199.5999999996275,263022.4000000004,8063,WL,C,13.0
2,33.17199993133545,learn,26828.00006866455,Wed Nov 05 2025 16:06:21 GMT-0600 (Central Standard Time),265487.7999999998,A,boyenter,I,enter,259,2,2465.399999999441,263022.4000000004,8063,WL,C,13.0
2,41.70300006866455,learn,18296.99993133545,Wed Nov 05 2025 16:06:21 GMT-0600 (Central Standard Time),274018.9000000004,A,c,I,c,8510,2,8530.900000000373,265488.0,8063,WL,C,14.0
2,41.8529999256134,learn,18147.000074386597,Wed Nov 05 2025 16:06:21 GMT-0600 (Central Standard Time),274168.5,A,ca,I,a,134,2,8680.5,265488.0,8063,WL,C,14.0
2,41.93600010871887,learn,18063.999891281128,Wed Nov 05 2025 16:06:21 GMT-0600 (Central Standard Time),274252.4000000004,A,cam,I,m,72,2,8764.400000000373,265488.0,8063,WL,C,14.0
2,42.13700008392334,learn,17862.99991607666,Wed Nov 05 2025 16:06:21 GMT-0600 (Central Standard Time),274452.5,A,camp,I,p,197,2,8964.5,265488.0,8063,WL,C,14.0
2,42.50200009346008,learn,17497.999906539917,Wed Nov 05 2025 16:06:21 GMT-0600 (Central Standard Time),274818.4000000004,A,campenter,I,enter,357,2,9330.400000000373,265488.0,8063,WL,C,14.0
2,42.986000061035156,learn,17013.999938964844,Wed Nov 05 2025 16:06:21 GMT-0600 (Central Standard Time),275302.2000000002,A,f,I,f,476,2,483.70000000018626,274818.5,8063,WL,C,15.0
2,43.069000005722046,learn,16930.999994277954,Wed Nov 05 2025 16:06:21 GMT-0600 (Central Standard Time),275384.5,A,fl,I,l,74,2,566.0,274818.5,8063,WL,C,15.0
2,43.25200009346008,learn,16747.999906539917,Wed Nov 05 2025 16:06:21 GMT-0600 (Central Standard Time),275568.5,A,flo,I,o,168,2,750.0,274818.5,8063,WL,C,15.0
2,43.3529999256134,learn,16647.000074386597,Wed Nov 05 2025 16:06:21 GMT-0600 (Central Standard Time),275668.5,A,flow,I,w,88,2,850.0,274818.5,8063,WL,C,15.0
2,43.45199990272522,learn,16548.00009727478,Wed Nov 05 2025 16:06:21 GMT-0600 (Central Standard Time),275768.2000000002,A,flowe,I,e,80,2,949.7000000001863,274818.5,8063,WL,C,15.0
2,43.95199990272522,learn,16048.00009727478,Wed Nov 05 2025 16:06:21 GMT-0600 (Central Standard Time),276268.10000000056,A,flow,I,backspace,488,2,1449.6000000005588,274818.5,8063,WL,C,15.0
2,44.33500003814697,learn,15664.999961853027,Wed Nov 05 2025 16:06:21 GMT-0600 (Central Standard Time),276651.2000000002,A,flo,I,backspace,373,2,1832.7000000001863,274818.5,8063,WL,C,15.0
2,44.670000076293945,learn,15329.999923706055,Wed Nov 05 2025 16:06:21 GMT-0600 (Central Standard Time),276985.5,A,fl,I,backspace,326,2,2167.0,274818.5,8063,WL,C,15.0
2,44.901999950408936,learn,15098.000049591064,Wed Nov 05 2025 16:06:21 GMT-0600 (Central Standard Time),277217.7000000002,A,f,I,backspace,223,2,2399.2000000001863,274818.5,8063,WL,C,15.0
2,45.13599991798401,learn,14864.000082015991,Wed Nov 05 2025 16:06:21 GMT-0600 (Central Standard Time),277451.5,A,,I,backspace,214,2,2633.0,274818.5,8063,WL,C,15.0
2,45.318000078201294,learn,14681.999921798706,Wed Nov 05 2025 16:06:21 GMT-0600 (Central Standard Time),277634.4000000004,A,,I,backspace,164,2,2815.9000000003725,274818.5,8063,WL,C,15.0
2,45.51799988746643,learn,14482.00011253357,Wed Nov 05 2025 16:06:21 GMT-0600 (Central Standard Time),277834.4000000004,A,f,I,f,182,2,3015.9000000003725,274818.5,8063,WL,C,15.0
2,45.63499999046326,learn,14365.000009536743,Wed Nov 05 2025 16:06:21 GMT-0600 (Central Standard Time),277950.60000000056,A,fl,I,l,101,2,3132.100000000559,274818.5,8063,WL,C,15.0
2,45.78500008583069,learn,14214.999914169312,Wed Nov 05 2025 16:06:21 GMT-0600 (Central Standard Time),278100.60000000056,A,fla,I,a,138,2,3282.100000000559,274818.5,8063,WL,C,15.0
2,46.28500008583069,learn,13714.999914169312,Wed Nov 05 2025 16:06:21 GMT-0600 (Central Standard Time),278601.10000000056,A,flag,I,g,484,2,3782.600000000559,274818.5,8063,WL,C,15.0
2,46.61899995803833,learn,13381.00004196167,Wed Nov 05 2025 16:06:21 GMT-0600 (Central Standard Time),278934.7000000002,A,flagenter,I,enter,327,2,4116.200000000186,274818.5,8063,WL,C,15.0
3,1.1510000228881836,learn,58848.99997711182,Wed Nov 05 2025 16:06:21 GMT-0600 (Central Standard Time),345396.2000000002,A,c,I,c,1130,2,1150.4000000003725,344245.7999999998,8063,WL,C,1.0
3,1.3500001430511475,learn,58649.99985694885,Wed Nov 05 2025 16:06:21 GMT-0600 (Central Standard Time),345595.7999999998,A,ca,I,a,179,2,1350.0,344245.7999999998,8063,WL,C,1.0
3,1.567000150680542,learn,58432.99984931946,Wed Nov 05 2025 16:06:21 GMT-0600 (Central Standard Time),345812.60000000056,A,cat,I,t,205,2,1566.800000000745,344245.7999999998,8063,WL,C,1.0
3,1.7180001735687256,learn,58281.999826431274,Wed Nov 05 2025 16:06:21 GMT-0600 (Central Standard Time),345963.2000000002,A,catt,I,t,131,2,1717.4000000003725,344245.7999999998,8063,WL,C,1.0
3,1.8510000705718994,learn,58148.9999294281,Wed Nov 05 2025 16:06:21 GMT-0600 (Central Standard Time),346096.5,A,cattl,I,l,116,2,1850.7000000001863,344245.7999999998,8063,WL,C,1.0
3,1.9830000400543213,learn,58016.99995994568,Wed Nov 05 2025 16:06:21 GMT-0600 (Central Standard Time),346228.10000000056,A,cattle,I,e,128,2,1982.300000000745,344245.7999999998,8063,WL,C,1.0
3,2.617000102996826,learn,57382.999897003174,Wed Nov 05 2025 16:06:21 GMT-0600 (Central Standard Time),346862.0,A,cattleenter,I,enter,620,2,2616.2000000001863,344245.7999999998,8063,WL,C,1.0
3,2.950000047683716,learn,57049.999952316284,Wed Nov 05 2025 16:06:21 GMT-0600 (Central Standard Time),347195.2999999998,A,s,I,s,321,2,333.0,346862.2999999998,8063,WL,C,2.0
3,3.0830001831054688,learn,56916.99981689453,Wed Nov 05 2025 16:06:21 GMT-0600 (Central Standard Time),347328.7000000002,A,sh,I,h,125,2,466.40000000037253,346862.2999999998,8063,WL,C,2.0
3,3.183000087738037,learn,56816.99991226196,Wed Nov 05 2025 16:06:21 GMT-0600 (Central Standard Time),347428.5,A,sho,I,o,88,2,566.2000000001863,346862.2999999998,8063,WL,C,2.0
3,3.25,learn,56750.0,Wed Nov 05 2025 16:06:21 GMT-0600 (Central Standard Time),347494.9000000004,A,shor,I,r,60,2,632.6000000005588,346862.2999999998,8063,WL,C,2.0
3,3.433000087738037,learn,56566.99991226196,Wed Nov 05 2025 16:06:21 GMT-0600 (Central Standard Time),347678.7000000002,A,shore,I,e,178,2,816.4000000003725,346862.2999999998,8063,WL,C,2.0
3,3.767000198364258,learn,56232.99980163574,Wed Nov 05 2025 16:06:21 GMT-0600 (Central Standard Time),348011.9000000004,A,shoreenter,I,enter,330,2,1149.6000000005588,346862.2999999998,8063,WL,C,2.0
3,4.050000190734863,learn,55949.99980926514,Wed Nov 05 2025 16:06:21 GMT-0600 (Central Standard Time),348295.10000000056,A,b,I,b,268,2,283.0,348012.10000000056,8063,WL,C,3.0
3,4.116000175476074,learn,55883.999824523926,Wed Nov 05 2025 16:06:21 GMT-0600 (Central Standard Time),348361.5,A,bo,I,o,49,2,349.3999999994412,348012.10000000056,8063,WL,C,3.0
3,4.499000072479248,learn,55500.99992752075,Wed Nov 05 2025 16:06:21 GMT-0600 (Central Standard Time),348744.0,A,bod,I,d,366,2,731.8999999994412,348012.10000000056,8063,WL,C,3.0
3,4.598999977111816,learn,55401.00002288818,Wed Nov 05 2025 16:06:21 GMT-0600 (Central Standard Time),348844.4000000004,A,body,I,y,88,2,832.2999999998137,348012.10000000056,8063,WL,C,3.0
3,5.050000190734863,learn,54949.99980926514,Wed Nov 05 2025 16:06:21 GMT-0600 (Central Standard Time),349295.2000000002,A,bodyenter,I,enter,444,2,1283.0999999996275,348012.10000000056,8063,WL,C,3.0
3,5.633000135421753,learn,54366.99986457825,Wed Nov 05 2025 16:06:21 GMT-0600 (Central Standard Time),349878.10000000056,A,c,I,c,578,2,582.7000000001863,349295.4000000004,8063,WL,C,4.0
3,6.0329999923706055,learn,53967.000007629395,Wed Nov 05 2025 16:06:21 GMT-0600 (Central Standard Time),350278.0,A,,I,backspace,395,2,982.5999999996275,349295.4000000004,8063,WL,C,4.0
3,6.200000047683716,learn,53799.999952316284,Wed Nov 05 2025 16:06:21 GMT-0600 (Central Standard Time),350445.0,A,b,I,b,163,2,1149.5999999996275,349295.4000000004,8063,WL,C,4.0
3,6.333000183105469,learn,53666.99981689453,Wed Nov 05 2025 16:06:21 GMT-0600 (Central Standard Time),350577.9000000004,A,bo,I,o,115,2,1282.5,349295.4000000004,8063,WL,C,4.0
3,6.733000040054321,learn,53266.99995994568,Wed Nov 05 2025 16:06:21 GMT-0600 (Central Standard Time),350978.2000000002,A,boy,I,y,391,2,1682.7999999998137,349295.4000000004,8063,WL,C,4.0
3,7.016000032424927,learn,52983.99996757507,Wed Nov 05 2025 16:06:21 GMT-0600 (Central Standard Time),351260.9000000004,A,boyenter,I,enter,279,2,1965.5,349295.4000000004,8063,WL,C,4.0
3,7.216000080108643,learn,52783.99991989136,Wed Nov 05 2025 16:06:21 GMT-0600 (Central Standard Time),351461.4000000004,A,c,I,c,195,2,200.29999999981374,351261.10000000056,8063,WL,C,5.0
3,7.348999977111816,learn,52651.00002288818,Wed Nov 05 2025 16:06:21 GMT-0600 (Central Standard Time),351594.0,A,ca,I,a,115,2,332.8999999994412,351261.10000000056,8063,WL,C,5.0
3,7.449000120162964,learn,52550.999879837036,Wed Nov 05 2025 16:06:21 GMT-0600 (Central Standard Time),351694.60000000056,A,cam,I,m,94,2,433.5,351261.10000000056,8063,WL,C,5.0
3,7.865000009536743,learn,52134.99999046326,Wed Nov 05 2025 16:06:21 GMT-0600 (Central Standard Time),352110.7999999998,A,camp,I,p,402,2,849.6999999992549,351261.10000000056,8063,WL,C,5.0
3,8.248000144958496,learn,51751.999855041504,Wed Nov 05 2025 16:06:21 GMT-0600 (Central Standard Time),352493.2000000002,A,campenter,I,enter,379,2,1232.0999999996275,351261.10000000056,8063,WL,C,5.0
3,8.448000192642212,learn,51551.99980735779,Wed Nov 05 2025 16:06:21 GMT-0600 (Central Standard Time),352693.2999999998,A,d,I,d,195,2,199.8999999994412,352493.4000000004,8063,WL,C,6.0
3,8.532000064849854,learn,51467.99993515015,Wed Nov 05 2025 16:06:21 GMT-0600 (Central Standard Time),352777.10000000056,A,do,I,o,76,2,283.70000000018626,352493.4000000004,8063,WL,C,6.0
3,8.648000001907349,learn,51351.99999809265,Wed Nov 05 2025 16:06:21 GMT-0600 (Central Standard Time),352893.2000000002,A,doc,I,c,110,2,399.79999999981374,352493.4000000004,8063,WL,C,6.0
3,8.832000017166138,learn,51167.99998283386,Wed Nov 05 2025 16:06:21 GMT-0600 (Central Standard Time),353077.7000000002,A,doct,I,t,171,2,584.2999999998137,352493.4000000004,8063,WL,C,6.0
3,8.88100004196167,learn,51118.99995803833,Wed Nov 05 2025 16:06:21 GMT-0600 (Central Standard Time),353126.4000000004,A,docto,I,o,35,2,633.0,352493.4000000004,8063,WL,C,6.0
3,9.065000057220459,learn,50934.99994277954,Wed Nov 05 2025 16:06:21 GMT-0600 (Central Standard Time),353310.2000000002,A,doctor,I,r,171,2,816.7999999998137,352493.4000000004,8063,WL,C,6.0
3,9.514000177383423,learn,50485.99982261658,Wed Nov 05 2025 16:06:21 GMT-0600 (Central Standard Time),353759.9000000004,A,doctorenter,I,enter,443,2,1266.5,352493.4000000004,8063,WL,C,6.0
3,11.430000066757202,learn,48569.9999332428,Wed Nov 05 2025 16:06:21 GMT-0600 (Central Standard Time),355675.60000000056,A,t,I,t,1896,2,1915.5,353760.10000000056,8063,WL,C,7.0
3,11.53000020980835,learn,48469.99979019165,Wed Nov 05 2025 16:06:21 GMT-0600 (Central Standard Time),355775.7000000002,A,to,I,o,84,2,2015.5999999996275,353760.10000000056,8063,WL,C,7.0
3,11.680999994277954,learn,48319.000005722046,Wed Nov 05 2025 16:06:21 GMT-0600 (Central Standard Time),355926.7999999998,A,tow,I,w,135,2,2166.699999999255,353760.10000000056,8063,WL,C,7.0
3,11.797000169754028,learn,48202.99983024597,Wed Nov 05 2025 16:06:21 GMT-0600 (Central Standard Time),356042.7000000002,A,towe,I,e,106,2,2282.5999999996275,353760.10000000056,8063,WL,C,7.0
3,11.913000106811523,learn,48086.99989318848,Wed Nov 05 2025 16:06:21 GMT-0600 (Central Standard Time),356158.7999999998,A,tower,I,r,110,2,2398.699999999255,353760.10000000056,8063,WL,C,7.0
3,12.231000185012817,learn,47768.99981498718,Wed Nov 05 2025 16:06:21 GMT-0600 (Central Standard Time),356476.5,A,towerenter,I,enter,298,2,2716.399999999441,353760.10000000056,8063,WL,C,7.0
3,12.88100004196167,learn,47118.99995803833,Wed Nov 05 2025 16:06:21 GMT-0600 (Central Standard Time),357126.4000000004,A,c,I,c,643,2,649.6000000005588,356476.7999999998,8063,WL,C,8.0
3,12.96399998664856,learn,47036.00001335144,Wed Nov 05 2025 16:06:21 GMT-0600 (Central Standard Time),357209.7000000002,A,co,I,o,66,2,732.9000000003725,356476.7999999998,8063,WL,C,8.0
3,13.064000129699707,learn,46935.99987030029,Wed Nov 05 2025 16:06:21 GMT-0600 (Central Standard Time),357310.0,A,cor,I,r,86,2,833.2000000001863,356476.7999999998,8063,WL,C,8.0
3,13.19700002670288,learn,46802.99997329712,Wed Nov 05 2025 16:06:21 GMT-0600 (Central Standard Time),357442.5,A,corn,I,n,123,2,965.7000000001863,356476.7999999998,8063,WL,C,8.0
3,13.531000137329102,learn,46468.9998626709,Wed Nov 05 2025 16:06:21 GMT-0600 (Central Standard Time),357776.2999999998,A,cornenter,I,enter,325,2,1299.5,356476.7999999998,8063,WL,C,8.0
3,13.914000034332275,learn,46085.999965667725,Wed Nov 05 2025 16:06:21 GMT-0600 (Central Standard Time),358159.5,A,w,I,w,376,2,383.0,357776.5,8063,WL,C,9.0
3,14.046000003814697,learn,45953.9999961853,Wed Nov 05 2025 16:06:21 GMT-0600 (Central Standard Time),358291.7000000002,A,wh,I,h,129,2,515.2000000001863,357776.5,8063,WL,C,9.0
3,14.114000082015991,learn,45885.99991798401,Wed Nov 05 2025 16:06:21 GMT-0600 (Central Standard Time),358359.4000000004,A,whe,I,e,52,2,582.9000000003725,357776.5,8063,WL,C,9.0
3,14.28000020980835,learn,45719.99979019165,Wed Nov 05 2025 16:06:21 GMT-0600 (Central Standard Time),358526.10000000056,A,whea,I,a,153,2,749.6000000005588,357776.5,8063,WL,C,9.0
3,14.446000099182129,learn,45553.99990081787,Wed Nov 05 2025 16:06:21 GMT-0600 (Central Standard Time),358692.0,A,wheat,I,t,152,2,915.5,357776.5,8063,WL,C,9.0
3,14.696000099182129,learn,45303.99990081787,Wed Nov 05 2025 16:06:21 GMT-0600 (Central Standard Time),358941.7999999998,A,wheatenter,I,enter,244,2,1165.2999999998137,357776.5,8063,WL,C,9.0
3,14.979000091552734,learn,45020.999908447266,Wed Nov 05 2025 16:06:21 GMT-0600 (Central Standard Time),359225.2000000002,A,q,I,q,265,2,283.20000000018626,358942.0,8063,WL,C,10.0
3,15.078999996185303,learn,44921.0000038147,Wed Nov 05 2025 16:06:21 GMT-0600 (Central Standard Time),359324.7000000002,A,qu,I,u,96,2,382.70000000018626,358942.0,8063,WL,C,10.0
3,15.245000123977661,learn,44754.99987602234,Wed Nov 05 2025 16:06:21 GMT-0600 (Central Standard Time),359491.2999999998,A,que,I,e,155,2,549.2999999998137,358942.0,8063,WL,C,10.0
3,15.413000106811523,learn,44586.99989318848,Wed Nov 05 2025 16:06:21 GMT-0600 (Central Standard Time),359658.2999999998,A,quee,I,e,158,2,716.2999999998137,358942.0,8063,WL,C,10.0
3,15.51200008392334,learn,44487.99991607666,Wed Nov 05 2025 16:06:21 GMT-0600 (Central Standard Time),359758.10000000056,A,queen,I,n,86,2,816.1000000005588,358942.0,8063,WL,C,10.0
3,15.945000171661377,learn,44054.99982833862,Wed Nov 05 2025 16:06:21 GMT-0600 (Central Standard Time),360191.10000000056,A,queenenter,I,enter,427,2,1249.1000000005588,358942.0,8063,WL,C,10.0
3,17.66200017929077,learn,42337.99982070923,Wed Nov 05 2025 16:06:21 GMT-0600 (Central Standard Time),361908.2000000002,A,h,I,h,1705,2,1716.7999999998137,360191.4000000004,8063,WL,C,11.0
3,17.75100016593933,learn,42248.99983406067,Wed Nov 05 2025 16:06:21 GMT-0600 (Central Standard Time),361997.2999999998,A,ho,I,o,86,2,1805.8999999994412,360191.4000000004,8063,WL,C,11.0
3,17.878000020980835,learn,42121.999979019165,Wed Nov 05 2025 16:06:21 GMT-0600 (Central Standard Time),362124.10000000056,A,hom,I,m,106,2,1932.7000000001863,360191.4000000004,8063,WL,C,11.0
3,18.011000156402588,learn,41988.99984359741,Wed Nov 05 2025 16:06:21 GMT-0600 (Central Standard Time),362257.2000000002,A,home,I,e,116,2,2065.7999999998137,360191.4000000004,8063,WL,C,11.0
3,18.27900004386902,learn,41720.99995613098,Wed Nov 05 2025 16:06:21 GMT-0600 (Central Standard Time),362524.9000000004,A,homeenter,I,enter,264,2,2333.5,360191.4000000004,8063,WL,C,11.0
3,19.278000116348267,learn,40721.99988365173,Wed Nov 05 2025 16:06:21 GMT-0600 (Central Standard Time),363523.4000000004,A,b,I,b,977,2,998.2999999998137,362525.10000000056,8063,WL,C,12.0
3,19.427000045776367,learn,40572.99995422363,Wed Nov 05 2025 16:06:21 GMT-0600 (Central Standard Time),363673.2999999998,A,bo,I,o,132,2,1148.199999999255,362525.10000000056,8063,WL,C,12.0
3,19.777000188827515,learn,40222.999811172485,Wed Nov 05 2025 16:06:21 GMT-0600 (Central Standard Time),364023.2999999998,A,bod,I,d,336,2,1498.199999999255,362525.10000000056,8063,WL,C,12.0
3,19.878000020980835,learn,40121.999979019165,Wed Nov 05 2025 16:06:21 GMT-0600 (Central Standard Time),364123.9000000004,A,body,I,y,98,2,1598.7999999998137,362525.10000000056,8063,WL,C,12.0
3,20.22699999809265,learn,39773.00000190735,Wed Nov 05 2025 16:06:21 GMT-0600 (Central Standard Time),364473.10000000056,A,bodyenter,I,enter,341,2,1948.0,362525.10000000056,8063,WL,C,12.0
3,20.478000164031982,learn,39521.99983596802,Wed Nov 05 2025 16:06:21 GMT-0600 (Central Standard Time),364723.4000000004,A,l,I,l,230,2,250.1000000005588,364473.2999999998,8063,WL,C,13.0
3,20.544000148773193,learn,39455.99985122681,Wed Nov 05 2025 16:06:21 GMT-0600 (Central Standard Time),364789.7999999998,A,le,I,e,54,2,316.5,364473.2999999998,8063,WL,C,13.0
3,20.728000164031982,learn,39271.99983596802,Wed Nov 05 2025 16:06:21 GMT-0600 (Central Standard Time),364974.0,A,let,I,t,171,2,500.70000000018626,364473.2999999998,8063,WL,C,13.0
3,20.844000101089478,learn,39155.99989891052,Wed Nov 05 2025 16:06:21 GMT-0600 (Central Standard Time),365089.9000000004,A,lett,I,t,98,2,616.6000000005588,364473.2999999998,8063,WL,C,13.0
3,21.06000018119812,learn,38939.99981880188,Wed Nov 05 2025 16:06:21 GMT-0600 (Central Standard Time),365306.2999999998,A,lette,I,e,198,2,833.0,364473.2999999998,8063,WL,C,13.0
3,21.12600016593933,learn,38873.99983406067,Wed Nov 05 2025 16:06:21 GMT-0600 (Central Standard Time),365372.2000000002,A,letter,I,r,63,2,898.9000000003725,364473.2999999998,8063,WL,C,13.0
3,21.3270001411438,learn,38672.9998588562,Wed Nov 05 2025 16:06:21 GMT-0600 (Central Standard Time),365572.60000000056,A,letterenter,I,enter,188,2,1099.300000000745,364473.2999999998,8063,WL,C,13.0
3,23.094000101089478,learn,36905.99989891052,Wed Nov 05 2025 16:06:21 GMT-0600 (Central Standard Time),367339.4000000004,A,c,I,c,1762,2,1766.7000000001863,365572.7000000002,8063,WL,C,14.0
3,23.211000204086304,learn,36788.999795913696,Wed Nov 05 2025 16:06:21 GMT-0600 (Central Standard Time),367456.2999999998,A,co,I,o,109,2,1883.5999999996275,365572.7000000002,8063,WL,C,14.0
3,23.343000173568726,learn,36656.999826431274,Wed Nov 05 2025 16:06:21 GMT-0600 (Central Standard Time),367588.7000000002,A,cor,I,r,120,2,2016.0,365572.7000000002,8063,WL,C,14.0
3,23.47699999809265,learn,36523.00000190735,Wed Nov 05 2025 16:06:21 GMT-0600 (Central Standard Time),367722.60000000056,A,corn,I,n,115,2,2149.9000000003725,365572.7000000002,8063,WL,C,14.0
3,23.72699999809265,learn,36273.00000190735,Wed Nov 05 2025 16:06:21 GMT-0600 (Central Standard Time),367972.60000000056,A,cornenter,I,enter,229,2,2399.9000000003725,365572.7000000002,8063,WL,C,14.0
3,24.026000022888184,learn,35973.99997711182,Wed Nov 05 2025 16:06:21 GMT-0600 (Central Standard Time),368271.9000000004,A,w,I,w,291,2,299.1000000005588,367972.7999999998,8063,WL,C,15.0
3,24.22699999809265,learn,35773.00000190735,Wed Nov 05 2025 16:06:21 GMT-0600 (Central Standard Time),368472.7999999998,A,wh,I,h,191,2,500.0,367972.7999999998,8063,WL,C,15.0
3,24.259000062942505,learn,35740.999937057495,Wed Nov 05 2025 16:06:21 GMT-0600 (Central Standard Time),368504.5,A,whe,I,e,15,2,531.7000000001863,367972.7999999998,8063,WL,C,15.0
3,24.70900011062622,learn,35290.99988937378,Wed Nov 05 2025 16:06:21 GMT-0600 (Central Standard Time),368955.0,A,whea,I,a,431,2,982.2000000001863,367972.7999999998,8063,WL,C,15.0
3,24.89300012588501,learn,35106.99987411499,Wed Nov 05 2025 16:06:21 GMT-0600 (Central Standard Time),369138.4000000004,A,wheat,I,t,165,2,1165.6000000005588,367972.7999999998,8063,WL,C,15.0
3,25.694000005722046,learn,34305.999994277954,Wed Nov 05 2025 16:06:21 GMT-0600 (Central Standard Time),369939.7000000002,A,wheatenter,I,enter,798,2,1966.9000000003725,367972.7999999998,8063,WL,C,15.0
4,0.7319998741149902,learn,59268.00012588501,Wed Nov 05 2025 16:06:21 GMT-0600 (Central Standard Time),437450.2999999998,A,n,I,n,712,2,732.0999999996275,436718.2000000002,8063,WL,C,1.0
4,0.8320000171661377,learn,59167.99998283386,Wed Nov 05 2025 16:06:21 GMT-0600 (Central Standard Time),437549.7999999998,A,na,I,a,86,2,831.5999999996275,436718.2000000002,8063,WL,C,1.0
4,0.9649999141693115,learn,59035.00008583069,Wed Nov 05 2025 16:06:21 GMT-0600 (Central Standard Time),437683.10000000056,A,nai,I,i,120,2,964.9000000003725,436718.2000000002,8063,WL,C,1.0
4,1.1319999694824219,learn,58868.00003051758,Wed Nov 05 2025 16:06:21 GMT-0600 (Central Standard Time),437850.0,A,nail,I,l,157,2,1131.7999999998137,436718.2000000002,8063,WL,C,1.0
4,1.5309998989105225,learn,58469.00010108948,Wed Nov 05 2025 16:06:21 GMT-0600 (Central Standard Time),438249.7000000002,A,nailenter,I,enter,391,2,1531.5,436718.2000000002,8063,WL,C,1.0
4,1.8320000171661377,learn,58167.99998283386,Wed Nov 05 2025 16:06:21 GMT-0600 (Central Standard Time),438550.0,A,c,I,c,286,2,300.09999999962747,438249.9000000004,8063,WL,C,2.0
4,1.9809999465942383,learn,58019.00005340576,Wed Nov 05 2025 16:06:21 GMT-0600 (Central Standard Time),438699.7999999998,A,ca,I,a,138,2,449.8999999994412,438249.9000000004,8063,WL,C,2.0
4,2.115000009536743,learn,57884.99999046326,Wed Nov 05 2025 16:06:21 GMT-0600 (Central Standard Time),438833.2000000002,A,cat,I,t,125,2,583.2999999998137,438249.9000000004,8063,WL,C,2.0
4,2.2649998664855957,learn,57735.000133514404,Wed Nov 05 2025 16:06:21 GMT-0600 (Central Standard Time),438982.9000000004,A,catt,I,t,135,2,733.0,438249.9000000004,8063,WL,C,2.0
4,2.3980000019073486,learn,57601.99999809265,Wed Nov 05 2025 16:06:21 GMT-0600 (Central Standard Time),439116.2000000002,A,cattl,I,l,121,2,866.2999999998137,438249.9000000004,8063,WL,C,2.0
4,2.4819998741149902,learn,57518.00012588501,Wed Nov 05 2025 16:06:21 GMT-0600 (Central Standard Time),439199.7999999998,A,cattle,I,e,76,2,949.8999999994412,438249.9000000004,8063,WL,C,2.0
4,2.697999954223633,learn,57302.00004577637,Wed Nov 05 2025 16:06:21 GMT-0600 (Central Standard Time),439415.9000000004,A,cattleenter,I,enter,209,2,1166.0,438249.9000000004,8063,WL,C,2.0
4,2.947999954223633,learn,57052.00004577637,Wed Nov 05 2025 16:06:21 GMT-0600 (Central Standard Time),439666.0,A,s,I,s,232,2,249.70000000018626,439416.2999999998,8063,WL,C,3.0
4,3.0490000247955322,learn,56950.99997520447,Wed Nov 05 2025 16:06:21 GMT-0600 (Central Standard Time),439767.10000000056,A,sh,I,h,95,2,350.80000000074506,439416.2999999998,8063,WL,C,3.0
4,3.13100004196167,learn,56868.99995803833,Wed Nov 05 2025 16:06:21 GMT-0600 (Central Standard Time),439849.4000000004,A,sho,I,o,65,2,433.1000000005588,439416.2999999998,8063,WL,C,3.0
4,3.2139999866485596,learn,56786.00001335144,Wed Nov 05 2025 16:06:21 GMT-0600 (Central Standard Time),439932.4000000004,A,shor,I,r,79,2,516.1000000005588,439416.2999999998,8063,WL,C,3.0
4,3.297999858856201,learn,56702.0001411438,Wed Nov 05 2025 16:06:21 GMT-0600 (Central Standard Time),440016.60000000056,A,shore,I,e,77,2,600.3000000007451,439416.2999999998,8063,WL,C,3.0
4,3.6480000019073486,learn,56351.99999809265,Wed Nov 05 2025 16:06:21 GMT-0600 (Central Standard Time),440366.2000000002,A,shoreenter,I,enter,344,2,949.9000000003725,439416.2999999998,8063,WL,C,3.0
4,3.9149999618530273,learn,56085.00003814697,Wed Nov 05 2025 16:06:21 GMT-0600 (Central Standard Time),440632.7999999998,A,b,I,b,259,2,266.29999999981374,440366.5,8063,WL,C,4.0
4,4.0320000648498535,learn,55967.99993515015,Wed Nov 05 2025 16:06:21 GMT-0600 (Central Standard Time),440750.0,A,bo,I,o,104,2,383.5,440366.5,8063,WL,C,4.0
4,4.313999891281128,learn,55686.00010871887,Wed Nov 05 2025 16:06:21 GMT-0600 (Central Standard Time),441032.60000000056,A,bod,I,d,274,2,666.1000000005588,440366.5,8063,WL,C,4.0
4,4.414000034332275,learn,55585.999965667725,Wed Nov 05 2025 16:06:21 GMT-0600 (Central Standard Time),441131.7999999998,A,body,I,y,88,2,765.2999999998137,440366.5,8063,WL,C,4.0
4,4.730999946594238,learn,55269.00005340576,Wed Nov 05 2025 16:06:21 GMT-0600 (Central Standard Time),441449.4000000004,A,bodyenter,I,enter,301,2,1082.9000000003725,440366.5,8063,WL,C,4.0
4,6.947000026702881,learn,53052.99997329712,Wed Nov 05 2025 16:06:21 GMT-0600 (Central Standard Time),443665.0,A,c,I,c,2207,2,2215.399999999441,441449.60000000056,8063,WL,C,5.0
4,7.079999923706055,learn,52920.000076293945,Wed Nov 05 2025 16:06:21 GMT-0600 (Central Standard Time),443797.9000000004,A,ca,I,a,119,2,2348.2999999998137,441449.60000000056,8063,WL,C,5.0
4,7.19599986076355,learn,52804.00013923645,Wed Nov 05 2025 16:06:21 GMT-0600 (Central Standard Time),443914.60000000056,A,cam,I,m,98,2,2465.0,441449.60000000056,8063,WL,C,5.0
4,7.329999923706055,learn,52670.000076293945,Wed Nov 05 2025 16:06:21 GMT-0600 (Central Standard Time),444048.5,A,camp,I,p,118,2,2598.899999999441,441449.60000000056,8063,WL,C,5.0
4,7.628999948501587,learn,52371.00005149841,Wed Nov 05 2025 16:06:21 GMT-0600 (Central Standard Time),444347.60000000056,A,campenter,I,enter,288,2,2898.0,441449.60000000056,8063,WL,C,5.0
4,7.912999868392944,learn,52087.000131607056,Wed Nov 05 2025 16:06:21 GMT-0600 (Central Standard Time),444631.0,A,d,I,d,269,2,283.20000000018626,444347.7999999998,8063,WL,C,6.0
4,7.978999853134155,learn,52021.000146865845,Wed Nov 05 2025 16:06:21 GMT-0600 (Central Standard Time),444697.7000000002,A,do,I,o,58,2,349.90000000037253,444347.7999999998,8063,WL,C,6.0
4,8.662999868392944,learn,51337.000131607056,Wed Nov 05 2025 16:06:21 GMT-0600 (Central Standard Time),445381.0,A,doc,I,c,669,2,1033.2000000001863,444347.7999999998,8063,WL,C,6.0
4,8.914000034332275,learn,51085.999965667725,Wed Nov 05 2025 16:06:21 GMT-0600 (Central Standard Time),445632.0,A,doct,I,t,235,2,1284.2000000001863,444347.7999999998,8063,WL,C,6.0
4,9.129999876022339,learn,50870.00012397766,Wed Nov 05 2025 16:06:21 GMT-0600 (Central Standard Time),445847.7999999998,A,docto,I,o,208,2,1500.0,444347.7999999998,8063,WL,C,6.0
4,9.312999963760376,learn,50687.000036239624,Wed Nov 05 2025 16:06:21 GMT-0600 (Central Standard Time),446031.10000000056,A,doctor,I,r,176,2,1683.300000000745,444347.7999999998,8063,WL,C,6.0
4,9.546000003814697,learn,50453.9999961853,Wed Nov 05 2025 16:06:21 GMT-0600 (Central Standard Time),446264.2999999998,A,doctorenter,I,enter,218,2,1916.5,444347.7999999998,8063,WL,C,6.0
4,9.76200008392334,learn,50237.99991607666,Wed Nov 05 2025 16:06:21 GMT-0600 (Central Standard Time),446480.2000000002,A,b,I,b,199,2,215.70000000018626,446264.5,8063,WL,C,7.0
4,9.82800006866455,learn,50171.99993133545,Wed Nov 05 2025 16:06:21 GMT-0600 (Central Standard Time),446546.60000000056,A,bo,I,o,48,2,282.1000000005588,446264.5,8063,WL,C,7.0
4,10.062999963760376,learn,49937.000036239624,Wed Nov 05 2025 16:06:21 GMT-0600 (Central Standard Time),446781.0,A,boy,I,y,222,2,516.5,446264.5,8063,WL,C,7.0
4,10.84500002861023,learn,49154.99997138977,Wed Nov 05 2025 16:06:21 GMT-0600 (Central Standard Time),447563.2999999998,A,boyenter,I,enter,763,2,1298.7999999998137,446264.5,8063,WL,C,7.0
4,11.095999956130981,learn,48904.00004386902,Wed Nov 05 2025 16:06:21 GMT-0600 (Central Standard Time),447814.2000000002,A,f,I,f,237,2,250.70000000018626,447563.5,8063,WL,C,8.0
4,11.17799997329712,learn,48822.00002670288,Wed Nov 05 2025 16:06:21 GMT-0600 (Central Standard Time),447896.7000000002,A,fl,I,l,68,2,333.20000000018626,447563.5,8063,WL,C,8.0
4,11.279000043869019,learn,48720.99995613098,Wed Nov 05 2025 16:06:21 GMT-0600 (Central Standard Time),447997.4000000004,A,fla,I,a,96,2,433.90000000037253,447563.5,8063,WL,C,8.0
4,11.562000036239624,learn,48437.999963760376,Wed Nov 05 2025 16:06:21 GMT-0600 (Central Standard Time),448280.7000000002,A,flag,I,g,266,2,717.2000000001863,447563.5,8063,WL,C,8.0
4,11.91100001335144,learn,48088.99998664856,Wed Nov 05 2025 16:06:21 GMT-0600 (Central Standard Time),448629.7000000002,A,flagenter,I,enter,336,2,1066.2000000001863,447563.5,8063,WL,C,8.0
4,12.361000061035156,learn,47638.999938964844,Wed Nov 05 2025 16:06:21 GMT-0600 (Central Standard Time),449079.5,A,q,I,q,434,2,449.59999999962747,448629.9000000004,8063,WL,C,9.0
4,12.509999990463257,learn,47490.00000953674,Wed Nov 05 2025 16:06:21 GMT-0600 (Central Standard Time),449228.5,A,qu,I,u,136,2,598.5999999996275,448629.9000000004,8063,WL,C,9.0
4,12.628999948501587,learn,47371.00005149841,Wed Nov 05 2025 16:06:21 GMT-0600 (Central Standard Time),449347.0,A,que,I,e,108,2,717.0999999996275,448629.9000000004,8063,WL,C,9.0
4,12.76200008392334,learn,47237.99991607666,Wed Nov 05 2025 16:06:21 GMT-0600 (Central Standard Time),449479.7999999998,A,quee,I,e,126,2,849.8999999994412,448629.9000000004,8063,WL,C,9.0
4,12.91100001335144,learn,47088.99998664856,Wed Nov 05 2025 16:06:21 GMT-0600 (Central Standard Time),449629.5,A,queen,I,n,137,2,999.5999999996275,448629.9000000004,8063,WL,C,9.0
4,13.194000005722046,learn,46805.999994277954,Wed Nov 05 2025 16:06:21 GMT-0600 (Central Standard Time),449912.7000000002,A,queenenter,I,enter,267,2,1282.7999999998137,448629.9000000004,8063,WL,C,9.0
4,13.67799997329712,learn,46322.00002670288,Wed Nov 05 2025 16:06:21 GMT-0600 (Central Standard Time),450396.10000000056,A,c,I,c,463,2,483.20000000018626,449912.9000000004,8063,WL,C,10.0
4,13.777999877929688,learn,46222.00012207031,Wed Nov 05 2025 16:06:21 GMT-0600 (Central Standard Time),450496.10000000056,A,co,I,o,84,2,583.2000000001863,449912.9000000004,8063,WL,C,10.0
4,13.861000061035156,learn,46138.999938964844,Wed Nov 05 2025 16:06:21 GMT-0600 (Central Standard Time),450579.4000000004,A,cor,I,r,80,2,666.5,449912.9000000004,8063,WL,C,10.0
4,14.01200008392334,learn,45987.99991607666,Wed Nov 05 2025 16:06:21 GMT-0600 (Central Standard Time),450729.9000000004,A,corn,I,n,133,2,817.0,449912.9000000004,8063,WL,C,10.0
4,14.277999877929688,learn,45722.00012207031,Wed Nov 05 2025 16:06:21 GMT-0600 (Central Standard Time),450995.7999999998,A,cornenter,I,enter,255,2,1082.8999999994412,449912.9000000004,8063,WL,C,10.0
4,14.560999870300293,learn,45439.00012969971,Wed Nov 05 2025 16:06:21 GMT-0600 (Central Standard Time),451279.4000000004,A,w,I,w,269,2,283.40000000037253,450996.0,8063,WL,C,11.0
4,14.677000045776367,learn,45322.99995422363,Wed Nov 05 2025 16:06:21 GMT-0600 (Central Standard Time),451395.4000000004,A,wh,I,h,105,2,399.40000000037253,450996.0,8063,WL,C,11.0
4,14.74399995803833,learn,45256.00004196167,Wed Nov 05 2025 16:06:21 GMT-0600 (Central Standard Time),451462.4000000004,A,whe,I,e,60,2,466.40000000037253,450996.0,8063,WL,C,11.0
4,14.879999876022339,learn,45120.00012397766,Wed Nov 05 2025 16:06:21 GMT-0600 (Central Standard Time),451598.0,A,whea,I,a,131,2,602.0,450996.0,8063,WL,C,11.0
4,15.060999870300293,learn,44939.00012969971,Wed Nov 05 2025 16:06:21 GMT-0600 (Central Standard Time),451778.9000000004,A,wheat,I,t,160,2,782.9000000003725,450996.0,8063,WL,C,11.0
4,15.477999925613403,learn,44522.0000743866,Wed Nov 05 2025 16:06:21 GMT-0600 (Central Standard Time),452195.7999999998,A,wheatenter,I,enter,406,2,1199.7999999998137,450996.0,8063,WL,C,11.0
4,15.993000030517578,learn,44006.99996948242,Wed Nov 05 2025 16:06:21 GMT-0600 (Central Standard Time),452711.60000000056,A,t,I,t,500,2,515.6000000005588,452196.0,8063,WL,C,12.0
4,16.126999855041504,learn,43873.000144958496,Wed Nov 05 2025 16:06:21 GMT-0600 (Central Standard Time),452845.2000000002,A,to,I,o,120,2,649.2000000001863,452196.0,8063,WL,C,12.0
4,16.32699990272522,learn,43673.00009727478,Wed Nov 05 2025 16:06:21 GMT-0600 (Central Standard Time),453045.4000000004,A,tow,I,w,187,2,849.4000000003725,452196.0,8063,WL,C,12.0
4,16.444000005722046,learn,43555.999994277954,Wed Nov 05 2025 16:06:21 GMT-0600 (Central Standard Time),453161.7999999998,A,towe,I,e,99,2,965.7999999998137,452196.0,8063,WL,C,12.0
4,16.560999870300293,learn,43439.00012969971,Wed Nov 05 2025 16:06:21 GMT-0600 (Central Standard Time),453279.60000000056,A,tower,I,r,103,2,1083.6000000005588,452196.0,8063,WL,C,12.0
4,16.943000078201294,learn,43056.999921798706,Wed Nov 05 2025 16:06:21 GMT-0600 (Central Standard Time),453661.7000000002,A,towerenter,I,enter,377,2,1465.7000000001863,452196.0,8063,WL,C,12.0
4,17.243000030517578,learn,42756.99996948242,Wed Nov 05 2025 16:06:21 GMT-0600 (Central Standard Time),453961.2999999998,A,c,I,c,282,2,299.3999999994412,453661.9000000004,8063,WL,C,13.0
4,17.359999895095825,learn,42640.000104904175,Wed Nov 05 2025 16:06:21 GMT-0600 (Central Standard Time),454078.2000000002,A,ca,I,a,103,2,416.29999999981374,453661.9000000004,8063,WL,C,13.0
4,17.460999965667725,learn,42539.000034332275,Wed Nov 05 2025 16:06:21 GMT-0600 (Central Standard Time),454178.9000000004,A,cam,I,m,93,2,517.0,453661.9000000004,8063,WL,C,13.0
4,17.592999935150146,learn,42407.00006484985,Wed Nov 05 2025 16:06:21 GMT-0600 (Central Standard Time),454311.4000000004,A,camp,I,p,126,2,649.5,453661.9000000004,8063,WL,C,13.0
4,18.009999990463257,learn,41990.00000953674,Wed Nov 05 2025 16:06:21 GMT-0600 (Central Standard Time),454727.7999999998,A,campenter,I,enter,409,2,1065.8999999994412,453661.9000000004,8063,WL,C,13.0
4,19.875999927520752,learn,40124.00007247925,Wed Nov 05 2025 16:06:21 GMT-0600 (Central Standard Time),456594.2999999998,A,n,I,n,1856,2,1866.199999999255,454728.10000000056,8063,WL,C,14.0
4,19.97499990463257,learn,40025.00009536743,Wed Nov 05 2025 16:06:21 GMT-0600 (Central Standard Time),456693.5,A,na,I,a,93,2,1965.3999999994412,454728.10000000056,8063,WL,C,14.0
4,20.125999927520752,learn,39874.00007247925,Wed Nov 05 2025 16:06:21 GMT-0600 (Central Standard Time),456844.2999999998,A,nai,I,i,131,2,2116.199999999255,454728.10000000056,8063,WL,C,14.0
4,20.292999982833862,learn,39707.00001716614,Wed Nov 05 2025 16:06:21 GMT-0600 (Central Standard Time),457010.7000000002,A,nail,I,l,157,2,2282.5999999996275,454728.10000000056,8063,WL,C,14.0
4,20.526000022888184,learn,39473.99997711182,Wed Nov 05 2025 16:06:21 GMT-0600 (Central Standard Time),457243.9000000004,A,nailenter,I,enter,222,2,2515.7999999998137,454728.10000000056,8063,WL,C,14.0
4,23.95799994468689,learn,36042.00005531311,Wed Nov 05 2025 16:06:21 GMT-0600 (Central Standard Time),460676.4000000004,A,g,I,g,3429,2,3432.2999999998137,457244.10000000056,8063,WL,C,15.0
4,24.091000080108643,learn,35908.99991989136,Wed Nov 05 2025 16:06:21 GMT-0600 (Central Standard Time),460809.60000000056,A,gl,I,l,123,2,3565.5,457244.10000000056,8063,WL,C,15.0
4,24.19099998474121,learn,35809.00001525879,Wed Nov 05 2025 16:06:21 GMT-0600 (Central Standard Time),460909.60000000056,A,gla,I,a,97,2,3665.5,457244.10000000056,8063,WL,C,15.0
4,24.740000009536743,learn,35259.99999046326,Wed Nov 05 2025 16:06:21 GMT-0600 (Central Standard Time),461458.2999999998,A,gl,I,backspace,530,2,4214.199999999255,457244.10000000056,8063,WL,C,15.0
4,24.891000032424927,learn,35108.99996757507,Wed Nov 05 2025 16:06:21 GMT-0600 (Central Standard Time),461609.2999999998,A,g,I,backspace,135,2,4365.199999999255,457244.10000000056,8063,WL,C,15.0
4,25.075000047683716,learn,34924.999952316284,Wed Nov 05 2025 16:06:21 GMT-0600 (Central Standard Time),461792.7999999998,A,,I,backspace,167,2,4548.699999999255,457244.10000000056,8063,WL,C,15.0
4,25.29099988937378,learn,34709.00011062622,Wed Nov 05 2025 16:06:21 GMT-0600 (Central Standard Time),462008.9000000004,A,g,I,g,199,2,4764.799999999814,457244.10000000056,8063,WL,C,15.0
4,25.740999937057495,learn,34259.000062942505,Wed Nov 05 2025 16:06:21 GMT-0600 (Central Standard Time),462459.10000000056,A,,I,backspace,431,2,5215.0,457244.10000000056,8063,WL,C,15.0
4,25.874000072479248,learn,34125.99992752075,Wed Nov 05 2025 16:06:21 GMT-0600 (Central Standard Time),462592.0,A,f,I,f,118,2,5347.899999999441,457244.10000000056,8063,WL,C,15.0
4,25.990000009536743,learn,34009.99999046326,Wed Nov 05 2025 16:06:21 GMT-0600 (Central Standard Time),462708.10000000056,A,fl,I,l,113,2,5464.0,457244.10000000056,8063,WL,C,15.0
4,26.157000064849854,learn,33842.99993515015,Wed Nov 05 2025 16:06:21 GMT-0600 (Central Standard Time),462875.2999999998,A,fla,I,a,148,2,5631.199999999255,457244.10000000056,8063,WL,C,15.0
4,26.374000072479248,learn,33625.99992752075,Wed Nov 05 2025 16:06:21 GMT-0600 (Central Standard Time),463092.60000000056,A,flag,I,g,197,2,5848.5,457244.10000000056,8063,WL,C,15.0
4,26.808000087738037,learn,33191.99991226196,Wed Nov 05 2025 16:06:21 GMT-0600 (Central Standard Time),463526.10000000056,A,flagenter,I,enter,430,2,6282.0,457244.10000000056,8063,WL,C,15.0
5,0.3840000629425049,learn,60000.0,Wed Nov 05 2025 16:06:21 GMT-0600 (Central Standard Time),527971.4000000004,A,c,I,c,364,2,383.29999999981374,527588.1000000006,8063,WL,C,1.0
5,0.5339999198913574,learn,60000.0,Wed Nov 05 2025 16:06:21 GMT-0600 (Central Standard Time),528121.7999999998,A,ca,I,a,133,2,533.6999999992549,527588.1000000006,8063,WL,C,1.0
5,0.7339999675750732,learn,60000.0,Wed Nov 05 2025 16:06:21 GMT-0600 (Central Standard Time),528322.2000000002,A,cat,I,t,191,2,734.0999999996275,527588.1000000006,8063,WL,C,1.0
5,0.8829998970031738,learn,60000.0,Wed Nov 05 2025 16:06:21 GMT-0600 (Central Standard Time),528471.1000000006,A,catt,I,t,134,2,883.0,527588.1000000006,8063,WL,C,1.0
5,1.000999927520752,learn,60000.0,Wed Nov 05 2025 16:06:21 GMT-0600 (Central Standard Time),528588.2999999998,A,cattl,I,l,114,2,1000.1999999992549,527588.1000000006,8063,WL,C,1.0
5,1.0999999046325684,learn,60000.0,Wed Nov 05 2025 16:06:21 GMT-0600 (Central Standard Time),528687.6000000006,A,cattle,I,e,85,2,1099.5,527588.1000000006,8063,WL,C,1.0
5,1.4179999828338623,learn,60000.0,Wed Nov 05 2025 16:06:21 GMT-0600 (Central Standard Time),529005.2000000002,A,cattleenter,I,enter,313,2,1417.0999999996275,527588.1000000006,8063,WL,C,1.0
5,1.7330000400543213,learn,60000.0,Wed Nov 05 2025 16:06:21 GMT-0600 (Central Standard Time),529320.9000000004,A,n,I,n,306,2,315.5,529005.4000000004,8063,WL,C,2.0
5,1.8329999446868896,learn,60000.0,Wed Nov 05 2025 16:06:21 GMT-0600 (Central Standard Time),529420.6000000006,A,na,I,a,87,2,415.20000000018626,529005.4000000004,8063,WL,C,2.0
5,2.0,learn,60000.0,Wed Nov 05 2025 16:06:21 GMT-0600 (Central Standard Time),529587.6000000006,A,nai,I,i,148,2,582.2000000001863,529005.4000000004,8063,WL,C,2.0
5,2.1660001277923584,learn,60000.0,Wed Nov 05 2025 16:06:21 GMT-0600 (Central Standard Time),529753.9000000004,A,nail,I,l,157,2,748.5,529005.4000000004,8063,WL,C,2.0
5,2.4660000801086426,learn,60000.0,Wed Nov 05 2025 16:06:21 GMT-0600 (Central Standard Time),530053.7999999998,A,nailenter,I,enter,286,2,1048.3999999994412,529005.4000000004,8063,WL,C,2.0
5,2.799999952316284,learn,60000.0,Wed Nov 05 2025 16:06:21 GMT-0600 (Central Standard Time),530387.2999999998,A,s,I,s,323,2,333.3999999994412,530053.9000000004,8063,WL,C,3.0
5,2.9170000553131104,learn,60000.0,Wed Nov 05 2025 16:06:21 GMT-0600 (Central Standard Time),530504.4000000004,A,sh,I,h,110,2,450.5,530053.9000000004,8063,WL,C,3.0
5,2.999000072479248,learn,60000.0,Wed Nov 05 2025 16:06:21 GMT-0600 (Central Standard Time),530587.0,A,sho,I,o,73,2,533.0999999996275,530053.9000000004,8063,WL,C,3.0
5,3.131999969482422,learn,60000.0,Wed Nov 05 2025 16:06:21 GMT-0600 (Central Standard Time),530719.9000000004,A,shor,I,r,117,2,666.0,530053.9000000004,8063,WL,C,3.0
5,3.199000120162964,learn,60000.0,Wed Nov 05 2025 16:06:21 GMT-0600 (Central Standard Time),530786.7999999998,A,shore,I,e,48,2,732.8999999994412,530053.9000000004,8063,WL,C,3.0
5,3.433000087738037,learn,60000.0,Wed Nov 05 2025 16:06:21 GMT-0600 (Central Standard Time),531020.4000000004,A,shoreenter,I,enter,230,2,966.5,530053.9000000004,8063,WL,C,3.0
5,3.752000093460083,learn,60000.0,Wed Nov 05 2025 16:06:21 GMT-0600 (Central Standard Time),531339.2999999998,A,b,I,b,299,2,318.59999999962747,531020.7000000002,8063,WL,C,4.0
5,3.815999984741211,learn,60000.0,Wed Nov 05 2025 16:06:21 GMT-0600 (Central Standard Time),531403.7999999998,A,bo,I,o,61,2,383.09999999962747,531020.7000000002,8063,WL,C,4.0
5,4.166000127792358,learn,60000.0,Wed Nov 05 2025 16:06:21 GMT-0600 (Central Standard Time),531753.5,A,bod,I,d,341,2,732.7999999998137,531020.7000000002,8063,WL,C,4.0
5,4.232000112533569,learn,60000.0,Wed Nov 05 2025 16:06:21 GMT-0600 (Central Standard Time),531819.9000000004,A,body,I,y,55,2,799.2000000001863,531020.7000000002,8063,WL,C,4.0
5,4.599999904632568,learn,60000.0,Wed Nov 05 2025 16:06:21 GMT-0600 (Central Standard Time),532187.5,A,bodyenter,I,enter,364,2,1166.7999999998137,531020.7000000002,8063,WL,C,4.0
5,5.316999912261963,learn,60000.0,Wed Nov 05 2025 16:06:21 GMT-0600 (Central Standard Time),532904.5,A,b,I,b,708,2,716.7999999998137,532187.7000000002,8063,WL,C,5.0
5,5.431999921798706,learn,60000.0,Wed Nov 05 2025 16:06:21 GMT-0600 (Central Standard Time),533019.7000000002,A,bo,I,o,104,2,832.0,532187.7000000002,8063,WL,C,5.0
5,5.648999929428101,learn,60000.0,Wed Nov 05 2025 16:06:21 GMT-0600 (Central Standard Time),533236.4000000004,A,boy,I,y,213,2,1048.7000000001863,532187.7000000002,8063,WL,C,5.0
5,5.914999961853027,learn,60000.0,Wed Nov 05 2025 16:06:21 GMT-0600 (Central Standard Time),533502.7000000002,A,boyenter,I,enter,261,2,1315.0,532187.7000000002,8063,WL,C,5.0
5,6.148000001907349,learn,60000.0,Wed Nov 05 2025 16:06:21 GMT-0600 (Central Standard Time),533735.7999999998,A,d,I,d,225,2,232.8999999994412,533502.9000000004,8063,WL,C,6.0
5,6.2149999141693115,learn,60000.0,Wed Nov 05 2025 16:06:21 GMT-0600 (Central Standard Time),533802.5,A,do,I,o,57,2,299.59999999962747,533502.9000000004,8063,WL,C,6.0
5,6.331000089645386,learn,60000.0,Wed Nov 05 2025 16:06:21 GMT-0600 (Central Standard Time),533919.0,A,doc,I,c,110,2,416.09999999962747,533502.9000000004,8063,WL,C,6.0
5,6.499000072479248,learn,60000.0,Wed Nov 05 2025 16:06:21 GMT-0600 (Central Standard Time),534087.0,A,doct,I,t,153,2,584.0999999996275,533502.9000000004,8063,WL,C,6.0
5,6.581000089645386,learn,60000.0,Wed Nov 05 2025 16:06:21 GMT-0600 (Central Standard Time),534168.7000000002,A,docto,I,o,74,2,665.7999999998137,533502.9000000004,8063,WL,C,6.0
5,6.716000080108643,learn,60000.0,Wed Nov 05 2025 16:06:21 GMT-0600 (Central Standard Time),534303.6000000006,A,doctor,I,r,119,2,800.7000000001863,533502.9000000004,8063,WL,C,6.0
5,7.447999954223633,learn,60000.0,Wed Nov 05 2025 16:06:21 GMT-0600 (Central Standard Time),535035.6000000006,A,doctorenter,I,enter,721,2,1532.7000000001863,533502.9000000004,8063,WL,C,6.0
5,7.749000072479248,learn,60000.0,Wed Nov 05 2025 16:06:21 GMT-0600 (Central Standard Time),535337.0,A,s,I,s,294,2,301.20000000018626,535035.7999999998,8063,WL,C,7.0
5,7.865000009536743,learn,60000.0,Wed Nov 05 2025 16:06:21 GMT-0600 (Central Standard Time),535453.2000000002,A,su,I,u,111,2,417.40000000037253,535035.7999999998,8063,WL,C,7.0
5,8.04800009727478,learn,60000.0,Wed Nov 05 2025 16:06:21 GMT-0600 (Central Standard Time),535635.6000000006,A,sug,I,g,179,2,599.8000000007451,535035.7999999998,8063,WL,C,7.0
5,8.180999994277954,learn,60000.0,Wed Nov 05 2025 16:06:21 GMT-0600 (Central Standard Time),535768.6000000006,A,suga,I,a,124,2,732.8000000007451,535035.7999999998,8063,WL,C,7.0
5,8.397000074386597,learn,60000.0,Wed Nov 05 2025 16:06:21 GMT-0600 (Central Standard Time),535984.9000000004,A,sugar,I,r,200,2,949.1000000005588,535035.7999999998,8063,WL,C,7.0
5,8.730999946594238,learn,60000.0,Wed Nov 05 2025 16:06:21 GMT-0600 (Central Standard Time),536319.4000000004,A,sugarenter,I,enter,320,2,1283.6000000005588,535035.7999999998,8063,WL,C,7.0
5,10.464999914169312,learn,60000.0,Wed Nov 05 2025 16:06:21 GMT-0600 (Central Standard Time),538052.5,A,t,I,t,1720,2,1733.0,536319.5,8063,WL,C,8.0
5,10.52999997138977,learn,60000.0,Wed Nov 05 2025 16:06:21 GMT-0600 (Central Standard Time),538118.0,A,to,I,o,60,2,1798.5,536319.5,8063,WL,C,8.0
5,10.713000059127808,learn,60000.0,Wed Nov 05 2025 16:06:21 GMT-0600 (Central Standard Time),538301.4000000004,A,tow,I,w,169,2,1981.9000000003725,536319.5,8063,WL,C,8.0
5,10.831000089645386,learn,60000.0,Wed Nov 05 2025 16:06:21 GMT-0600 (Central Standard Time),538418.5,A,towe,I,e,108,2,2099.0,536319.5,8063,WL,C,8.0
5,10.930000066757202,learn,60000.0,Wed Nov 05 2025 16:06:21 GMT-0600 (Central Standard Time),538517.5,A,tower,I,r,95,2,2198.0,536319.5,8063,WL,C,8.0
5,11.079999923706055,learn,60000.0,Wed Nov 05 2025 16:06:21 GMT-0600 (Central Standard Time),538667.6000000006,A,towerenter,I,enter,146,2,2348.100000000559,536319.5,8063,WL,C,8.0
5,11.796000003814697,learn,60000.0,Wed Nov 05 2025 16:06:21 GMT-0600 (Central Standard Time),539384.5,A,w,I,w,700,2,716.7000000001863,538667.7999999998,8063,WL,C,9.0
5,11.880000114440918,learn,60000.0,Wed Nov 05 2025 16:06:21 GMT-0600 (Central Standard Time),539468.1000000006,A,wh,I,h,80,2,800.3000000007451,538667.7999999998,8063,WL,C,9.0
5,11.980000019073486,learn,60000.0,Wed Nov 05 2025 16:06:21 GMT-0600 (Central Standard Time),539567.7000000002,A,whe,I,e,85,2,899.9000000003725,538667.7999999998,8063,WL,C,9.0
5,12.263000011444092,learn,60000.0,Wed Nov 05 2025 16:06:21 GMT-0600 (Central Standard Time),539850.7000000002,A,whea,I,a,273,2,1182.9000000003725,538667.7999999998,8063,WL,C,9.0
5,12.480000019073486,learn,60000.0,Wed Nov 05 2025 16:06:21 GMT-0600 (Central Standard Time),540067.5,A,wheat,I,t,213,2,1399.7000000001863,538667.7999999998,8063,WL,C,9.0
5,12.663000106811523,learn,60000.0,Wed Nov 05 2025 16:06:21 GMT-0600 (Central Standard Time),540250.4000000004,A,wheatenter,I,enter,164,2,1582.6000000005588,538667.7999999998,8063,WL,C,9.0
5,12.913000106811523,learn,60000.0,Wed Nov 05 2025 16:06:21 GMT-0600 (Central Standard Time),540500.9000000004,A,c,I,c,238,2,250.29999999981374,540250.6000000006,8063,WL,C,10.0
5,12.980000019073486,learn,60000.0,Wed Nov 05 2025 16:06:21 GMT-0600 (Central Standard Time),540567.6000000006,A,co,I,o,59,2,317.0,540250.6000000006,8063,WL,C,10.0
5,13.111999988555908,learn,60000.0,Wed Nov 05 2025 16:06:21 GMT-0600 (Central Standard Time),540700.4000000004,A,cor,I,r,129,2,449.79999999981374,540250.6000000006,8063,WL,C,10.0
5,13.246000051498413,learn,60000.0,Wed Nov 05 2025 16:06:21 GMT-0600 (Central Standard Time),540833.7000000002,A,corn,I,n,125,2,583.0999999996275,540250.6000000006,8063,WL,C,10.0
5,13.779000043869019,learn,60000.0,Wed Nov 05 2025 16:06:21 GMT-0600 (Central Standard Time),541366.7000000002,A,cornenter,I,enter,527,2,1116.0999999996275,540250.6000000006,8063,WL,C,10.0
5,14.178999900817871,learn,60000.0,Wed Nov 05 2025 16:06:21 GMT-0600 (Central Standard Time),541766.6000000006,A,q,I,q,393,2,399.6000000005588,541367.0,8063,WL,C,11.0
5,14.328999996185303,learn,60000.0,Wed Nov 05 2025 16:06:21 GMT-0600 (Central Standard Time),541916.7000000002,A,qu,I,u,146,2,549.7000000001863,541367.0,8063,WL,C,11.0
5,14.480000019073486,learn,60000.0,Wed Nov 05 2025 16:06:21 GMT-0600 (Central Standard Time),542068.0,A,que,I,e,148,2,701.0,541367.0,8063,WL,C,11.0
5,14.644999980926514,learn,60000.0,Wed Nov 05 2025 16:06:21 GMT-0600 (Central Standard Time),542233.2000000002,A,quee,I,e,148,2,866.2000000001863,541367.0,8063,WL,C,11.0
5,14.746000051498413,learn,60000.0,Wed Nov 05 2025 16:06:21 GMT-0600 (Central Standard Time),542333.7999999998,A,queen,I,n,88,2,966.7999999998137,541367.0,8063,WL,C,11.0
5,15.02999997138977,learn,60000.0,Wed Nov 05 2025 16:06:21 GMT-0600 (Central Standard Time),542617.5,A,queenenter,I,enter,275,2,1250.5,541367.0,8063,WL,C,11.0
5,17.76099991798401,learn,60000.0,Wed Nov 05 2025 16:06:21 GMT-0600 (Central Standard Time),545349.2000000002,A,f,I,f,2728,2,2731.5999999996275,542617.6000000006,8063,WL,C,12.0
5,17.894999980926514,learn,60000.0,Wed Nov 05 2025 16:06:21 GMT-0600 (Central Standard Time),545482.9000000004,A,fl,I,l,124,2,2865.2999999998137,542617.6000000006,8063,WL,C,12.0
5,18.028000116348267,learn,60000.0,Wed Nov 05 2025 16:06:21 GMT-0600 (Central Standard Time),545616.2000000002,A,fla,I,a,117,2,2998.5999999996275,542617.6000000006,8063,WL,C,12.0
5,18.278000116348267,learn,60000.0,Wed Nov 05 2025 16:06:21 GMT-0600 (Central Standard Time),545865.6000000006,A,flag,I,g,233,2,3248.0,542617.6000000006,8063,WL,C,12.0
5,18.444999933242798,learn,60000.0,Wed Nov 05 2025 16:06:21 GMT-0600 (Central Standard Time),546033.1000000006,A,flagenter,I,enter,151,2,3415.5,542617.6000000006,8063,WL,C,12.0
5,22.9760000705719,learn,60000.0,Wed Nov 05 2025 16:06:21 GMT-0600 (Central Standard Time),550564.2000000002,A,c,I,c,4520,2,4530.799999999814,546033.4000000004,8063,WL,C,13.0
5,23.125999927520752,learn,60000.0,Wed Nov 05 2025 16:06:21 GMT-0600 (Central Standard Time),550714.1000000006,A,ca,I,a,141,2,4680.700000000186,546033.4000000004,8063,WL,C,13.0
5,23.80999994277954,learn,60000.0,Wed Nov 05 2025 16:06:21 GMT-0600 (Central Standard Time),551397.6000000006,A,cam,I,m,671,2,5364.200000000186,546033.4000000004,8063,WL,C,13.0
5,24.075999975204468,learn,60000.0,Wed Nov 05 2025 16:06:21 GMT-0600 (Central Standard Time),551664.2999999998,A,ca,I,backspace,259,2,5630.899999999441,546033.4000000004,8063,WL,C,13.0
5,24.259999990463257,learn,60000.0,Wed Nov 05 2025 16:06:21 GMT-0600 (Central Standard Time),551847.7999999998,A,c,I,backspace,167,2,5814.399999999441,546033.4000000004,8063,WL,C,13.0
5,24.41000008583069,learn,60000.0,Wed Nov 05 2025 16:06:21 GMT-0600 (Central Standard Time),551997.9000000004,A,,I,backspace,145,2,5964.5,546033.4000000004,8063,WL,C,13.0
5,24.609999895095825,learn,60000.0,Wed Nov 05 2025 16:06:21 GMT-0600 (Central Standard Time),552197.7000000002,A,h,I,h,195,2,6164.299999999814,546033.4000000004,8063,WL,C,13.0
5,24.759000062942505,learn,60000.0,Wed Nov 05 2025 16:06:21 GMT-0600 (Central Standard Time),552347.0,A,ho,I,o,130,2,6313.5999999996275,546033.4000000004,8063,WL,C,13.0
5,24.842000007629395,learn,60000.0,Wed Nov 05 2025 16:06:21 GMT-0600 (Central Standard Time),552430.2000000002,A,hom,I,m,70,2,6396.799999999814,546033.4000000004,8063,WL,C,13.0
5,25.009999990463257,learn,60000.0,Wed Nov 05 2025 16:06:21 GMT-0600 (Central Standard Time),552597.4000000004,A,home,I,e,162,2,6564.0,546033.4000000004,8063,WL,C,13.0
5,25.39300012588501,learn,60000.0,Wed Nov 05 2025 16:06:21 GMT-0600 (Central Standard Time),552980.4000000004,A,homeenter,I,enter,380,2,6947.0,546033.4000000004,8063,WL,C,13.0
5,25.97499990463257,learn,60000.0,Wed Nov 05 2025 16:06:21 GMT-0600 (Central Standard Time),553563.2000000002,A,l,I,l,562,2,582.5,552980.7000000002,8063,WL,C,14.0
5,26.075000047683716,learn,60000.0,Wed Nov 05 2025 16:06:21 GMT-0600 (Central Standard Time),553663.2000000002,A,le,I,e,86,2,682.5,552980.7000000002,8063,WL,C,14.0
5,26.242000102996826,learn,60000.0,Wed Nov 05 2025 16:06:21 GMT-0600 (Central Standard Time),553830.2999999998,A,let,I,t,162,2,849.5999999996275,552980.7000000002,8063,WL,C,14.0
5,26.375,learn,60000.0,Wed Nov 05 2025 16:06:21 GMT-0600 (Central Standard Time),553962.7000000002,A,lett,I,t,122,2,982.0,552980.7000000002,8063,WL,C,14.0
5,26.52500009536743,learn,60000.0,Wed Nov 05 2025 16:06:21 GMT-0600 (Central Standard Time),554113.2999999998,A,lette,I,e,134,2,1132.5999999996275,552980.7000000002,8063,WL,C,14.0
5,26.591000080108643,learn,60000.0,Wed Nov 05 2025 16:06:21 GMT-0600 (Central Standard Time),554179.2999999998,A,letter,I,r,56,2,1198.5999999996275,552980.7000000002,8063,WL,C,14.0
5,26.757999897003174,learn,60000.0,Wed Nov 05 2025 16:06:21 GMT-0600 (Central Standard Time),554345.9000000004,A,letterenter,I,enter,149,2,1365.2000000001863,552980.7000000002,8063,WL,C,14.0
5,31.539999961853027,learn,60000.0,Wed Nov 05 2025 16:06:21 GMT-0600 (Central Standard Time),559128.2000000002,A,d,I,d,4767,2,4782.0,554346.2000000002,8063,WL,C,15.0
5,31.624000072479248,learn,60000.0,Wed Nov 05 2025 16:06:21 GMT-0600 (Central Standard Time),559211.4000000004,A,do,I,o,74,2,4865.200000000186,554346.2000000002,8063,WL,C,15.0
5,31.723999977111816,learn,60000.0,Wed Nov 05 2025 16:06:21 GMT-0600 (Central Standard Time),559311.7000000002,A,doc,I,c,90,2,4965.5,554346.2000000002,8063,WL,C,15.0
5,31.907000064849854,learn,60000.0,Wed Nov 05 2025 16:06:21 GMT-0600 (Central Standard Time),559495.2000000002,A,doct,I,t,177,2,5149.0,554346.2000000002,8063,WL,C,15.0
5,32.40700006484985,learn,60000.0,Wed Nov 05 2025 16:06:21 GMT-0600 (Central Standard Time),559994.7999999998,A,docto,I,o,490,2,5648.5999999996275,554346.2000000002,8063,WL,C,15.0
5,32.53999996185303,learn,60000.0,Wed Nov 05 2025 16:06:21 GMT-0600 (Central Standard Time),560127.5,A,doctor,I,r,118,2,5781.299999999814,554346.2000000002,8063,WL,C,15.0
5,32.75699996948242,learn,60000.0,Wed Nov 05 2025 16:06:21 GMT-0600 (Central Standard Time),560345.2999999998,A,doctorenter,I,enter,202,2,5999.0999999996275,554346.2000000002,8063,WL,C,15.0
6,1.2999999523162842,distr,58700.000047683716,Wed Nov 05 2025 16:06:21 GMT-0600 (Central Standard Time),646600.7000000002,B,d,I,d,1282,2,1299.7999999998137,645300.9000000004,8063,WL,C,1.0
6,1.3989999294281006,distr,58601.0000705719,Wed Nov 05 2025 16:06:21 GMT-0600 (Central Standard Time),646700.0,B,do,I,o,96,2,1399.0999999996275,645300.9000000004,8063,WL,C,1.0
6,1.6159999370574951,distr,58384.000062942505,Wed Nov 05 2025 16:06:21 GMT-0600 (Central Standard Time),646916.6000000006,B,dol,I,l,213,2,1615.7000000001863,645300.9000000004,8063,WL,C,1.0
6,1.7990000247955322,distr,58200.99997520447,Wed Nov 05 2025 16:06:21 GMT-0600 (Central Standard Time),647100.1000000006,B,doll,I,l,164,2,1799.2000000001863,645300.9000000004,8063,WL,C,1.0
6,1.8320000171661377,distr,58167.99998283386,Wed Nov 05 2025 16:06:21 GMT-0600 (Central Standard Time),647132.7999999998,B,dolla,I,a,20,2,1831.8999999994412,645300.9000000004,8063,WL,C,1.0
6,1.9489998817443848,distr,58051.000118255615,Wed Nov 05 2025 16:06:21 GMT-0600 (Central Standard Time),647249.9000000004,B,dollar,I,r,99,2,1949.0,645300.9000000004,8063,WL,C,1.0
6,2.131999969482422,distr,57868.00003051758,Wed Nov 05 2025 16:06:21 GMT-0600 (Central Standard Time),647433.1000000006,B,dollarenter,I,enter,174,2,2132.2000000001863,645300.9000000004,8063,WL,C,1.0
6,2.381999969482422,distr,57618.00003051758,Wed Nov 05 2025 16:06:21 GMT-0600 (Central Standard Time),647683.5,B,s,I,s,248,2,250.20000000018626,647433.2999999998,8063,WL,C,2.0
6,2.5149998664855957,distr,57485.000133514404,Wed Nov 05 2025 16:06:21 GMT-0600 (Central Standard Time),647816.2999999998,B,sk,I,k,125,2,383.0,647433.2999999998,8063,WL,C,2.0
6,2.75,distr,57250.0,Wed Nov 05 2025 16:06:21 GMT-0600 (Central Standard Time),648050.7000000002,B,sky,I,y,215,2,617.4000000003725,647433.2999999998,8063,WL,C,2.0
6,3.5820000171661377,distr,56417.99998283386,Wed Nov 05 2025 16:06:21 GMT-0600 (Central Standard Time),648882.7000000002,B,skyenter,I,enter,813,2,1449.4000000003725,647433.2999999998,8063,WL,C,2.0
6,4.914999961853027,distr,55085.00003814697,Wed Nov 05 2025 16:06:21 GMT-0600 (Central Standard Time),650216.1000000006,B,c,I,c,1318,2,1333.2000000001863,648882.9000000004,8063,WL,C,3.0
6,4.997999906539917,distr,55002.00009346008,Wed Nov 05 2025 16:06:21 GMT-0600 (Central Standard Time),650299.2000000002,B,ch,I,h,65,2,1416.2999999998137,648882.9000000004,8063,WL,C,3.0
6,5.115000009536743,distr,54884.99999046326,Wed Nov 05 2025 16:06:21 GMT-0600 (Central Standard Time),650416.2000000002,B,chr,I,r,110,2,1533.2999999998137,648882.9000000004,8063,WL,C,3.0
6,5.264999866485596,distr,54735.000133514404,Wed Nov 05 2025 16:06:21 GMT-0600 (Central Standard Time),650566.0,B,chri,I,i,130,2,1683.0999999996275,648882.9000000004,8063,WL,C,3.0
6,5.330999851226807,distr,54669.00014877319,Wed Nov 05 2025 16:06:21 GMT-0600 (Central Standard Time),650632.1000000006,B,chris,I,s,49,2,1749.2000000001863,648882.9000000004,8063,WL,C,3.0
6,5.447999954223633,distr,54552.00004577637,Wed Nov 05 2025 16:06:21 GMT-0600 (Central Standard Time),650749.1000000006,B,christ,I,t,104,2,1866.2000000001863,648882.9000000004,8063,WL,C,3.0
6,5.615000009536743,distr,54384.99999046326,Wed Nov 05 2025 16:06:21 GMT-0600 (Central Standard Time),650915.7000000002,B,christm,I,m,147,2,2032.7999999998137,648882.9000000004,8063,WL,C,3.0
6,5.730999946594238,distr,54269.00005340576,Wed Nov 05 2025 16:06:21 GMT-0600 (Central Standard Time),651032.2999999998,B,christma,I,a,101,2,2149.399999999441,648882.9000000004,8063,WL,C,3.0
6,6.0309998989105225,distr,53969.00010108948,Wed Nov 05 2025 16:06:21 GMT-0600 (Central Standard Time),651332.0,B,christmas,I,s,296,2,2449.0999999996275,648882.9000000004,8063,WL,C,3.0
6,6.697999954223633,distr,53302.00004577637,Wed Nov 05 2025 16:06:21 GMT-0600 (Central Standard Time),651999.0,B,christmasenter,I,enter,653,2,3116.0999999996275,648882.9000000004,8063,WL,C,3.0
6,6.96399998664856,distr,53036.00001335144,Wed Nov 05 2025 16:06:21 GMT-0600 (Central Standard Time),652265.2000000002,B,g,I,g,249,2,266.0,651999.2000000002,8063,WL,C,4.0
6,7.11299991607666,distr,52887.00008392334,Wed Nov 05 2025 16:06:21 GMT-0600 (Central Standard Time),652414.6000000006,B,gi,I,i,144,2,415.40000000037253,651999.2000000002,8063,WL,C,4.0
6,7.198999881744385,distr,52801.000118255615,Wed Nov 05 2025 16:06:21 GMT-0600 (Central Standard Time),652499.9000000004,B,gif,I,f,74,2,500.70000000018626,651999.2000000002,8063,WL,C,4.0
6,7.363999843597412,distr,52636.00015640259,Wed Nov 05 2025 16:06:21 GMT-0600 (Central Standard Time),652664.7999999998,B,gift,I,t,146,2,665.5999999996275,651999.2000000002,8063,WL,C,4.0
6,7.863999843597412,distr,52136.00015640259,Wed Nov 05 2025 16:06:21 GMT-0600 (Central Standard Time),653165.1000000006,B,gifts,I,s,487,2,1165.9000000003725,651999.2000000002,8063,WL,C,4.0
6,8.098000049591064,distr,51901.999950408936,Wed Nov 05 2025 16:06:21 GMT-0600 (Central Standard Time),653399.5,B,giftsenter,I,enter,219,2,1400.2999999998137,651999.2000000002,8063,WL,C,4.0
6,11.896999835968018,distr,48103.00016403198,Wed Nov 05 2025 16:06:21 GMT-0600 (Central Standard Time),657197.7999999998,B,s,I,s,3792,2,3798.0999999996275,653399.7000000002,8063,WL,C,5.0
6,12.111999988555908,distr,47888.00001144409,Wed Nov 05 2025 16:06:21 GMT-0600 (Central Standard Time),657413.5,B,sa,I,a,203,2,4013.7999999998137,653399.7000000002,8063,WL,C,5.0
6,12.263000011444092,distr,47736.99998855591,Wed Nov 05 2025 16:06:21 GMT-0600 (Central Standard Time),657564.0,B,san,I,n,140,2,4164.299999999814,653399.7000000002,8063,WL,C,5.0
6,12.411999940872192,distr,47588.00005912781,Wed Nov 05 2025 16:06:21 GMT-0600 (Central Standard Time),657713.6000000006,B,sand,I,d,141,2,4313.9000000003725,653399.7000000002,8063,WL,C,5.0
6,12.57800006866455,distr,47421.99993133545,Wed Nov 05 2025 16:06:21 GMT-0600 (Central Standard Time),657879.6000000006,B,sandenter,I,enter,158,2,4479.9000000003725,653399.7000000002,8063,WL,C,5.0
6,13.279000043869019,distr,46720.99995613098,Wed Nov 05 2025 16:06:21 GMT-0600 (Central Standard Time),658580.2999999998,B,d,I,d,696,2,700.5,657879.7999999998,8063,WL,C,6.0
6,13.378999948501587,distr,46621.00005149841,Wed Nov 05 2025 16:06:21 GMT-0600 (Central Standard Time),658679.7999999998,B,do,I,o,85,2,800.0,657879.7999999998,8063,WL,C,6.0
6,13.644999980926514,distr,46355.000019073486,Wed Nov 05 2025 16:06:21 GMT-0600 (Central Standard Time),658946.0,B,dol,I,l,248,2,1066.2000000001863,657879.7999999998,8063,WL,C,6.0
6,13.794999837875366,distr,46205.000162124634,Wed Nov 05 2025 16:06:21 GMT-0600 (Central Standard Time),659096.7999999998,B,doll,I,l,143,2,1217.0,657879.7999999998,8063,WL,C,6.0
6,13.894999980926514,distr,46105.000019073486,Wed Nov 05 2025 16:06:21 GMT-0600 (Central Standard Time),659196.2999999998,B,dolla,I,a,88,2,1316.5,657879.7999999998,8063,WL,C,6.0
6,13.977999925613403,distr,46022.0000743866,Wed Nov 05 2025 16:06:21 GMT-0600 (Central Standard Time),659279.5,B,dollar,I,r,69,2,1399.7000000001863,657879.7999999998,8063,WL,C,6.0
6,14.294999837875366,distr,45705.000162124634,Wed Nov 05 2025 16:06:21 GMT-0600 (Central Standard Time),659596.7000000002,B,dollarenter,I,enter,314,2,1716.9000000003725,657879.7999999998,8063,WL,C,6.0
6,19.24399995803833,distr,40756.00004196167,Wed Nov 05 2025 16:06:21 GMT-0600 (Central Standard Time),664545.4000000004,B,m,I,m,4932,2,4948.299999999814,659597.1000000006,8063,WL,C,7.0
6,19.493000030517578,distr,40506.99996948242,Wed Nov 05 2025 16:06:21 GMT-0600 (Central Standard Time),664794.7000000002,B,mo,I,o,231,2,5197.5999999996275,659597.1000000006,8063,WL,C,7.0
6,19.759999990463257,distr,40240.00000953674,Wed Nov 05 2025 16:06:21 GMT-0600 (Central Standard Time),665061.7000000002,B,mol,I,l,251,2,5464.5999999996275,659597.1000000006,8063,WL,C,7.0
6,19.9760000705719,distr,40023.9999294281,Wed Nov 05 2025 16:06:21 GMT-0600 (Central Standard Time),665277.5,B,molk,I,k,211,2,5680.399999999441,659597.1000000006,8063,WL,C,7.0
6,20.55999994277954,distr,39440.00005722046,Wed Nov 05 2025 16:06:21 GMT-0600 (Central Standard Time),665861.6000000006,B,mol,I,backspace,571,2,6264.5,659597.1000000006,8063,WL,C,7.0
6,20.743000030517578,distr,39256.99996948242,Wed Nov 05 2025 16:06:21 GMT-0600 (Central Standard Time),666044.7999999998,B,mo,I,backspace,163,2,6447.699999999255,659597.1000000006,8063,WL,C,7.0
6,20.90999984741211,distr,39090.00015258789,Wed Nov 05 2025 16:06:21 GMT-0600 (Central Standard Time),666211.2000000002,B,m,I,backspace,147,2,6614.0999999996275,659597.1000000006,8063,WL,C,7.0
6,21.54200005531311,distr,38457.99994468689,Wed Nov 05 2025 16:06:21 GMT-0600 (Central Standard Time),666843.7999999998,B,mi,I,i,622,2,7246.699999999255,659597.1000000006,8063,WL,C,7.0
6,21.743000030517578,distr,38256.99996948242,Wed Nov 05 2025 16:06:21 GMT-0600 (Central Standard Time),667044.6000000006,B,mil,I,l,180,2,7447.5,659597.1000000006,8063,WL,C,7.0
6,21.95899987220764,distr,38041.00012779236,Wed Nov 05 2025 16:06:21 GMT-0600 (Central Standard Time),667260.5,B,milk,I,k,205,2,7663.399999999441,659597.1000000006,8063,WL,C,7.0
6,22.30900001525879,distr,37690.99998474121,Wed Nov 05 2025 16:06:21 GMT-0600 (Central Standard Time),667610.2999999998,B,milkenter,I,enter,331,2,8013.199999999255,659597.1000000006,8063,WL,C,7.0
6,35.67199993133545,distr,24328.00006866455,Wed Nov 05 2025 16:06:21 GMT-0600 (Central Standard Time),680972.9000000004,B,g,I,g,13342,2,13362.299999999814,667610.6000000006,8063,WL,C,8.0
6,35.88800001144409,distr,24111.99998855591,Wed Nov 05 2025 16:06:21 GMT-0600 (Central Standard Time),681189.2000000002,B,gi,I,i,203,2,13578.599999999627,667610.6000000006,8063,WL,C,8.0
6,36.037999868392944,distr,23962.000131607056,Wed Nov 05 2025 16:06:21 GMT-0600 (Central Standard Time),681339.2000000002,B,gir,I,r,139,2,13728.599999999627,667610.6000000006,8063,WL,C,8.0
6,36.1710000038147,distr,23828.999996185303,Wed Nov 05 2025 16:06:21 GMT-0600 (Central Standard Time),681472.2999999998,B,girl,I,l,117,2,13861.699999999255,667610.6000000006,8063,WL,C,8.0
6,36.57099986076355,distr,23429.00013923645,Wed Nov 05 2025 16:06:21 GMT-0600 (Central Standard Time),681872.1000000006,B,girlenter,I,enter,384,2,14261.5,667610.6000000006,8063,WL,C,8.0
6,57.13199996948242,distr,2868.000030517578,Wed Nov 05 2025 16:06:21 GMT-0600 (Central Standard Time),702433.6000000006,B,s,I,s,20552,2,20561.300000000745,681872.2999999998,8063,WL,C,9.0
6,57.31500005722046,distr,2684.999942779541,Wed Nov 05 2025 16:06:21 GMT-0600 (Central Standard Time),702615.9000000004,B,sa,I,a,175,2,20743.60000000056,681872.2999999998,8063,WL,C,9.0
6,57.44799995422363,distr,2552.000045776367,Wed Nov 05 2025 16:06:21 GMT-0600 (Central Standard Time),702749.2000000002,B,san,I,n,121,2,20876.900000000373,681872.2999999998,8063,WL,C,9.0
6,57.58099985122681,distr,2419.0001487731934,Wed Nov 05 2025 16:06:21 GMT-0600 (Central Standard Time),702882.5,B,sand,I,d,113,2,21010.200000000186,681872.2999999998,8063,WL,C,9.0
6,57.73099994659424,distr,2269.0000534057617,Wed Nov 05 2025 16:06:21 GMT-0600 (Central Standard Time),703032.2999999998,B,sandenter,I,enter,133,2,21160.0,681872.2999999998,8063,WL,C,9.0
6,60.013999938964844,distr,-13.99993896484375,Wed Nov 05 2025 16:06:21 GMT-0600 (Central Standard Time),705315.1000000006,B,None,I,None,2280,2,2282.600000000559,703032.5,8063,WL,C,10.0
7,0.5999999046325684,immed,59400.00009536743,Wed Nov 05 2025 16:06:21 GMT-0600 (Central Standard Time),709197.6000000006,A,c,I,c,596,2,599.9000000003725,708597.7000000002,8063,WL,C,1.0
7,0.75,immed,59250.0,Wed Nov 05 2025 16:06:21 GMT-0600 (Central Standard Time),709347.0,A,ca,I,a,130,2,749.2999999998137,708597.7000000002,8063,WL,C,1.0
7,0.9010000228881836,immed,59098.99997711182,Wed Nov 05 2025 16:06:21 GMT-0600 (Central Standard Time),709497.7999999998,A,cam,I,m,142,2,900.0999999996275,708597.7000000002,8063,WL,C,1.0
7,1.065000057220459,immed,58934.99994277954,Wed Nov 05 2025 16:06:21 GMT-0600 (Central Standard Time),709662.7000000002,A,camp,I,p,159,2,1065.0,708597.7000000002,8063,WL,C,1.0
7,1.5169999599456787,immed,58483.00004005432,Wed Nov 05 2025 16:06:21 GMT-0600 (Central Standard Time),710114.1000000006,A,campenter,I,enter,442,2,1516.4000000003725,708597.7000000002,8063,WL,C,1.0
7,2.3489999771118164,immed,57651.00002288818,Wed Nov 05 2025 16:06:21 GMT-0600 (Central Standard Time),710946.2999999998,A,b,I,b,821,2,831.8999999994412,710114.4000000004,8063,WL,C,2.0
7,2.432999849319458,immed,57567.00015068054,Wed Nov 05 2025 16:06:21 GMT-0600 (Central Standard Time),711030.2999999998,A,bo,I,o,70,2,915.8999999994412,710114.4000000004,8063,WL,C,2.0
7,2.615000009536743,immed,57384.99999046326,Wed Nov 05 2025 16:06:21 GMT-0600 (Central Standard Time),711212.7999999998,A,boy,I,y,179,2,1098.3999999994412,710114.4000000004,8063,WL,C,2.0
7,2.8989999294281006,immed,57101.0000705719,Wed Nov 05 2025 16:06:21 GMT-0600 (Central Standard Time),711496.0,A,boyenter,I,enter,268,2,1381.5999999996275,710114.4000000004,8063,WL,C,2.0
7,3.1489999294281006,immed,56851.0000705719,Wed Nov 05 2025 16:06:21 GMT-0600 (Central Standard Time),711746.5,A,d,I,d,230,2,250.20000000018626,711496.2999999998,8063,WL,C,3.0
7,3.2149999141693115,immed,56785.00008583069,Wed Nov 05 2025 16:06:21 GMT-0600 (Central Standard Time),711812.4000000004,A,do,I,o,62,2,316.1000000005588,711496.2999999998,8063,WL,C,3.0
7,3.3489999771118164,immed,56651.00002288818,Wed Nov 05 2025 16:06:21 GMT-0600 (Central Standard Time),711946.5,A,doc,I,c,116,2,450.20000000018626,711496.2999999998,8063,WL,C,3.0
7,3.5329999923706055,immed,56467.000007629395,Wed Nov 05 2025 16:06:21 GMT-0600 (Central Standard Time),712130.4000000004,A,doct,I,t,174,2,634.1000000005588,711496.2999999998,8063,WL,C,3.0
7,3.631999969482422,immed,56368.00003051758,Wed Nov 05 2025 16:06:21 GMT-0600 (Central Standard Time),712229.1000000006,A,docto,I,o,86,2,732.8000000007451,711496.2999999998,8063,WL,C,3.0
7,4.198999881744385,immed,55801.000118255615,Wed Nov 05 2025 16:06:21 GMT-0600 (Central Standard Time),712795.9000000004,A,doctor,I,r,548,2,1299.6000000005588,711496.2999999998,8063,WL,C,3.0
7,4.5320000648498535,immed,55467.99993515015,Wed Nov 05 2025 16:06:21 GMT-0600 (Central Standard Time),713129.0,A,doctorenter,I,enter,316,2,1632.7000000001863,711496.2999999998,8063,WL,C,3.0
7,4.764999866485596,immed,55235.000133514404,Wed Nov 05 2025 16:06:21 GMT-0600 (Central Standard Time),713362.6000000006,A,s,I,s,215,2,233.6000000005588,713129.0,8063,WL,C,4.0
7,4.848999977111816,immed,55151.00002288818,Wed Nov 05 2025 16:06:21 GMT-0600 (Central Standard Time),713446.0,A,su,I,u,80,2,317.0,713129.0,8063,WL,C,4.0
7,4.998999834060669,immed,55001.00016593933,Wed Nov 05 2025 16:06:21 GMT-0600 (Central Standard Time),713596.1000000006,A,sug,I,g,139,2,467.1000000005588,713129.0,8063,WL,C,4.0
7,5.165999889373779,immed,54834.00011062622,Wed Nov 05 2025 16:06:21 GMT-0600 (Central Standard Time),713763.2000000002,A,suga,I,a,156,2,634.2000000001863,713129.0,8063,WL,C,4.0
7,5.4649999141693115,immed,54535.00008583069,Wed Nov 05 2025 16:06:21 GMT-0600 (Central Standard Time),714062.1000000006,A,sugar,I,r,286,2,933.1000000005588,713129.0,8063,WL,C,4.0
7,5.698999881744385,immed,54301.000118255615,Wed Nov 05 2025 16:06:21 GMT-0600 (Central Standard Time),714296.1000000006,A,sugarenter,I,enter,227,2,1167.1000000005588,713129.0,8063,WL,C,4.0
7,5.980999946594238,immed,54019.00005340576,Wed Nov 05 2025 16:06:21 GMT-0600 (Central Standard Time),714578.7999999998,A,t,I,t,263,2,282.5,714296.2999999998,8063,WL,C,5.0
7,6.080999851226807,immed,53919.00014877319,Wed Nov 05 2025 16:06:21 GMT-0600 (Central Standard Time),714678.5,A,to,I,o,86,2,382.20000000018626,714296.2999999998,8063,WL,C,5.0
7,6.230999946594238,immed,53769.00005340576,Wed Nov 05 2025 16:06:21 GMT-0600 (Central Standard Time),714828.9000000004,A,tow,I,w,139,2,532.6000000005588,714296.2999999998,8063,WL,C,5.0
7,6.352999925613403,immed,53647.0000743866,Wed Nov 05 2025 16:06:21 GMT-0600 (Central Standard Time),714950.1000000006,A,towe,I,e,101,2,653.8000000007451,714296.2999999998,8063,WL,C,5.0
7,6.4670000076293945,immed,53532.999992370605,Wed Nov 05 2025 16:06:21 GMT-0600 (Central Standard Time),715064.0,A,tower,I,r,106,2,767.7000000001863,714296.2999999998,8063,WL,C,5.0
7,6.71399998664856,immed,53286.00001335144,Wed Nov 05 2025 16:06:21 GMT-0600 (Central Standard Time),715311.6000000006,A,towerenter,I,enter,241,2,1015.3000000007451,714296.2999999998,8063,WL,C,5.0
7,6.947999954223633,immed,53052.00004577637,Wed Nov 05 2025 16:06:21 GMT-0600 (Central Standard Time),715545.2000000002,A,w,I,w,224,2,233.29999999981374,715311.9000000004,8063,WL,C,6.0
7,7.0980000495910645,immed,52901.999950408936,Wed Nov 05 2025 16:06:21 GMT-0600 (Central Standard Time),715695.1000000006,A,wh,I,h,144,2,383.20000000018626,715311.9000000004,8063,WL,C,6.0
7,7.21399998664856,immed,52786.00001335144,Wed Nov 05 2025 16:06:21 GMT-0600 (Central Standard Time),715811.9000000004,A,whe,I,e,97,2,500.0,715311.9000000004,8063,WL,C,6.0
7,7.4649999141693115,immed,52535.00008583069,Wed Nov 05 2025 16:06:21 GMT-0600 (Central Standard Time),716062.4000000004,A,whea,I,a,241,2,750.5,715311.9000000004,8063,WL,C,6.0
7,7.71399998664856,immed,52286.00001335144,Wed Nov 05 2025 16:06:21 GMT-0600 (Central Standard Time),716311.4000000004,A,wheat,I,t,235,2,999.5,715311.9000000004,8063,WL,C,6.0
7,7.930000066757202,immed,52069.9999332428,Wed Nov 05 2025 16:06:21 GMT-0600 (Central Standard Time),716527.9000000004,A,wheatenter,I,enter,209,2,1216.0,715311.9000000004,8063,WL,C,6.0
7,8.148000001907349,immed,51851.99999809265,Wed Nov 05 2025 16:06:21 GMT-0600 (Central Standard Time),716745.7000000002,A,q,I,q,200,2,217.59999999962747,716528.1000000006,8063,WL,C,7.0
7,8.27999997138977,immed,51720.00002861023,Wed Nov 05 2025 16:06:21 GMT-0600 (Central Standard Time),716877.7000000002,A,qu,I,u,129,2,349.59999999962747,716528.1000000006,8063,WL,C,7.0
7,8.414999961853027,immed,51585.00003814697,Wed Nov 05 2025 16:06:21 GMT-0600 (Central Standard Time),717012.0,A,que,I,e,123,2,483.8999999994412,716528.1000000006,8063,WL,C,7.0
7,8.579999923706055,immed,51420.000076293945,Wed Nov 05 2025 16:06:21 GMT-0600 (Central Standard Time),717177.6000000006,A,quee,I,e,148,2,649.5,716528.1000000006,8063,WL,C,7.0
7,8.680000066757202,immed,51319.9999332428,Wed Nov 05 2025 16:06:21 GMT-0600 (Central Standard Time),717278.1000000006,A,queen,I,n,88,2,750.0,716528.1000000006,8063,WL,C,7.0
7,8.947999954223633,immed,51052.00004577637,Wed Nov 05 2025 16:06:21 GMT-0600 (Central Standard Time),717545.2999999998,A,queenenter,I,enter,258,2,1017.1999999992549,716528.1000000006,8063,WL,C,7.0
7,9.379999876022339,immed,50620.00012397766,Wed Nov 05 2025 16:06:21 GMT-0600 (Central Standard Time),717977.7999999998,A,c,I,c,424,2,432.3999999994412,717545.4000000004,8063,WL,C,8.0
7,9.496999979019165,immed,50503.000020980835,Wed Nov 05 2025 16:06:21 GMT-0600 (Central Standard Time),718094.9000000004,A,ca,I,a,111,2,549.5,717545.4000000004,8063,WL,C,8.0
7,9.562999963760376,immed,50437.000036239624,Wed Nov 05 2025 16:06:21 GMT-0600 (Central Standard Time),718160.7000000002,A,cam,I,m,50,2,615.2999999998137,717545.4000000004,8063,WL,C,8.0
7,9.713000059127808,immed,50286.99994087219,Wed Nov 05 2025 16:06:21 GMT-0600 (Central Standard Time),718310.2000000002,A,camp,I,p,133,2,764.7999999998137,717545.4000000004,8063,WL,C,8.0
7,10.164000034332275,immed,49835.999965667725,Wed Nov 05 2025 16:06:21 GMT-0600 (Central Standard Time),718761.7000000002,A,campenter,I,enter,434,2,1216.2999999998137,717545.4000000004,8063,WL,C,8.0
7,10.579999923706055,immed,49420.000076293945,Wed Nov 05 2025 16:06:21 GMT-0600 (Central Standard Time),719177.2999999998,A,f,I,f,399,2,415.3999999994412,718761.9000000004,8063,WL,C,9.0
7,10.662999868392944,immed,49337.000131607056,Wed Nov 05 2025 16:06:21 GMT-0600 (Central Standard Time),719260.6000000006,A,fl,I,l,64,2,498.70000000018626,718761.9000000004,8063,WL,C,9.0
7,10.763000011444092,immed,49236.99998855591,Wed Nov 05 2025 16:06:21 GMT-0600 (Central Standard Time),719360.2999999998,A,fla,I,a,91,2,598.3999999994412,718761.9000000004,8063,WL,C,9.0
