block_c,block_dur,condition,countdown,datetime,endtime,list,multichar_response,project,response,response_time,session_number,start_end,starttime,subject_id,task,task_vers,trial
,,,,Mon Aug 25 2025 16:58:34 GMT-0500 (Central Daylight Time),,,,I,space,1869,1,,,8063,WL,B,
prac,,0,,Mon Aug 25 2025 16:58:34 GMT-0500 (Central Daylight Time),,NA,b,I,b,5599,1,,,8063,WL,B,1.0
prac,,0,,Mon Aug 25 2025 16:58:34 GMT-0500 (Central Daylight Time),,NA,bo,I,o,316,1,,,8063,WL,B,1.0
prac,,0,,Mon Aug 25 2025 16:58:34 GMT-0500 (Central Daylight Time),,NA,boo,I,o,116,1,,,8063,WL,B,1.0
prac,,0,,Mon Aug 25 2025 16:58:34 GMT-0500 (Central Daylight Time),,NA,boos,I,s,171,1,,,8063,WL,B,1.0
prac,,0,,Mon Aug 25 2025 16:58:34 GMT-0500 (Central Daylight Time),,NA,boost,I,t,205,1,,,8063,WL,B,1.0
prac,,0,,Mon Aug 25 2025 16:58:34 GMT-0500 (Central Daylight Time),,NA,boostenter,I,enter,1229,1,,,8063,WL,B,1.0
1,1.1180000305175781,learn,58881.99996948242,Mon Aug 25 2025 16:58:34 GMT-0500 (Central Daylight Time),121322.5,A,s,I,s,1106,1,1117.8999998569489,120204.60000014305,8063,WL,B,1.0
1,1.3849999904632568,learn,58615.00000953674,Mon Aug 25 2025 16:58:34 GMT-0500 (Central Daylight Time),121589.20000004768,A,st,I,t,249,1,1384.5999999046326,120204.60000014305,8063,WL,B,1.0
1,1.5840001106262207,learn,58415.99988937378,Mon Aug 25 2025 16:58:34 GMT-0500 (Central Daylight Time),121788.5,A,str,I,r,181,1,1583.8999998569489,120204.60000014305,8063,WL,B,1.0
1,1.750999927520752,learn,58249.00007247925,Mon Aug 25 2025 16:58:34 GMT-0500 (Central Daylight Time),121956.0,A,stre,I,e,152,1,1751.3999998569489,120204.60000014305,8063,WL,B,1.0
1,1.934000015258789,learn,58065.99998474121,Mon Aug 25 2025 16:58:34 GMT-0500 (Central Daylight Time),122138.5,A,stree,I,e,159,1,1933.8999998569489,120204.60000014305,8063,WL,B,1.0
1,2.184000015258789,learn,57815.99998474121,Mon Aug 25 2025 16:58:34 GMT-0500 (Central Daylight Time),122388.5,A,street,I,t,230,1,2183.899999856949,120204.60000014305,8063,WL,B,1.0
1,2.750999927520752,learn,57249.00007247925,Mon Aug 25 2025 16:58:34 GMT-0500 (Central Daylight Time),122955.29999995232,A,streetenter,I,enter,541,1,2750.699999809265,120204.60000014305,8063,WL,B,1.0
1,3.384999990463257,learn,56615.00000953674,Mon Aug 25 2025 16:58:34 GMT-0500 (Central Daylight Time),123589.60000014305,A,g,I,g,618,1,633.9000000953674,122955.70000004768,8063,WL,B,2.0
1,3.5850000381469727,learn,56414.99996185303,Mon Aug 25 2025 16:58:34 GMT-0500 (Central Daylight Time),123789.40000009537,A,gr,I,r,174,1,833.7000000476837,122955.70000004768,8063,WL,B,2.0
1,3.816999912261963,learn,56183.00008773804,Mon Aug 25 2025 16:58:34 GMT-0500 (Central Daylight Time),124021.60000014305,A,gra,I,a,207,1,1065.9000000953674,122955.70000004768,8063,WL,B,2.0
1,4.117000102996826,learn,55882.999897003174,Mon Aug 25 2025 16:58:34 GMT-0500 (Central Daylight Time),124321.60000014305,A,gras,I,s,279,1,1365.9000000953674,122955.70000004768,8063,WL,B,2.0
1,4.250999927520752,learn,55749.00007247925,Mon Aug 25 2025 16:58:34 GMT-0500 (Central Daylight Time),124455.70000004768,A,grass,I,s,123,1,1500.0,122955.70000004768,8063,WL,B,2.0
1,4.516999959945679,learn,55483.00004005432,Mon Aug 25 2025 16:58:34 GMT-0500 (Central Daylight Time),124721.29999995232,A,grassenter,I,enter,244,1,1765.5999999046326,122955.70000004768,8063,WL,B,2.0
1,4.865999937057495,learn,55134.000062942505,Mon Aug 25 2025 16:58:34 GMT-0500 (Central Daylight Time),125070.90000009537,A,p,I,p,333,1,349.40000009536743,124721.5,8063,WL,B,3.0
1,5.16700005531311,learn,54832.99994468689,Mon Aug 25 2025 16:58:34 GMT-0500 (Central Daylight Time),125371.0,A,pi,I,i,278,1,649.5,124721.5,8063,WL,B,3.0
1,5.434000015258789,learn,54565.99998474121,Mon Aug 25 2025 16:58:34 GMT-0500 (Central Daylight Time),125638.70000004768,A,pip,I,p,249,1,917.2000000476837,124721.5,8063,WL,B,3.0
1,5.618000030517578,learn,54381.99996948242,Mon Aug 25 2025 16:58:34 GMT-0500 (Central Daylight Time),125822.0,A,pipe,I,e,158,1,1100.5,124721.5,8063,WL,B,3.0
1,5.816999912261963,learn,54183.00008773804,Mon Aug 25 2025 16:58:34 GMT-0500 (Central Daylight Time),126021.10000014305,A,pipeenter,I,enter,183,1,1299.6000001430511,124721.5,8063,WL,B,3.0
1,6.049999952316284,learn,53950.000047683716,Mon Aug 25 2025 16:58:34 GMT-0500 (Central Daylight Time),126254.29999995232,A,w,I,w,226,1,232.89999985694885,126021.40000009537,8063,WL,B,4.0
1,6.183000087738037,learn,53816.99991226196,Mon Aug 25 2025 16:58:34 GMT-0500 (Central Daylight Time),126387.70000004768,A,wi,I,i,119,1,366.2999999523163,126021.40000009537,8063,WL,B,4.0
1,6.400000095367432,learn,53599.99990463257,Mon Aug 25 2025 16:58:34 GMT-0500 (Central Daylight Time),126604.20000004768,A,wif,I,f,201,1,582.7999999523163,126021.40000009537,8063,WL,B,4.0
1,6.632999897003174,learn,53367.000102996826,Mon Aug 25 2025 16:58:34 GMT-0500 (Central Daylight Time),126837.40000009537,A,wife,I,e,213,1,816.0,126021.40000009537,8063,WL,B,4.0
1,6.867000102996826,learn,53132.999897003174,Mon Aug 25 2025 16:58:34 GMT-0500 (Central Daylight Time),127071.79999995232,A,wifeenter,I,enter,214,1,1050.3999998569489,126021.40000009537,8063,WL,B,4.0
1,7.038000106811523,learn,52961.99989318848,Mon Aug 25 2025 16:58:34 GMT-0500 (Central Daylight Time),127242.0,A,f,I,f,150,1,169.79999995231628,127072.20000004768,8063,WL,B,5.0
1,7.183000087738037,learn,52816.99991226196,Mon Aug 25 2025 16:58:34 GMT-0500 (Central Daylight Time),127387.5,A,fi,I,i,126,1,315.2999999523163,127072.20000004768,8063,WL,B,5.0
1,7.315999984741211,learn,52684.00001525879,Mon Aug 25 2025 16:58:34 GMT-0500 (Central Daylight Time),127520.29999995232,A,fir,I,r,113,1,448.09999990463257,127072.20000004768,8063,WL,B,5.0
1,7.382999897003174,learn,52617.000102996826,Mon Aug 25 2025 16:58:34 GMT-0500 (Central Daylight Time),127587.79999995232,A,fire,I,e,50,1,515.5999999046326,127072.20000004768,8063,WL,B,5.0
1,7.700999975204468,learn,52299.00002479553,Mon Aug 25 2025 16:58:34 GMT-0500 (Central Daylight Time),127905.5,A,fireenter,I,enter,306,1,833.2999999523163,127072.20000004768,8063,WL,B,5.0
1,7.983000040054321,learn,52016.99995994568,Mon Aug 25 2025 16:58:34 GMT-0500 (Central Daylight Time),128187.10000014305,A,c,I,c,261,1,281.30000019073486,127905.79999995232,8063,WL,B,6.0
1,8.150000095367432,learn,51849.99990463257,Mon Aug 25 2025 16:58:34 GMT-0500 (Central Daylight Time),128354.60000014305,A,ca,I,a,153,1,448.80000019073486,127905.79999995232,8063,WL,B,6.0
1,8.332000017166138,learn,51667.99998283386,Mon Aug 25 2025 16:58:34 GMT-0500 (Central Daylight Time),128536.70000004768,A,cab,I,b,168,1,630.9000000953674,127905.79999995232,8063,WL,B,6.0
1,8.48200011253357,learn,51517.99988746643,Mon Aug 25 2025 16:58:34 GMT-0500 (Central Daylight Time),128686.60000014305,A,cabi,I,i,134,1,780.8000001907349,127905.79999995232,8063,WL,B,6.0
1,8.714999914169312,learn,51285.00008583069,Mon Aug 25 2025 16:58:34 GMT-0500 (Central Daylight Time),128919.90000009537,A,cabin,I,n,221,1,1014.1000001430511,127905.79999995232,8063,WL,B,6.0
1,8.999000072479248,learn,51000.99992752075,Mon Aug 25 2025 16:58:34 GMT-0500 (Central Daylight Time),129203.60000014305,A,cabinenter,I,enter,271,1,1297.8000001907349,127905.79999995232,8063,WL,B,6.0
1,10.315000057220459,learn,49684.99994277954,Mon Aug 25 2025 16:58:34 GMT-0500 (Central Daylight Time),130519.70000004768,A,w,I,w,1298,1,1315.7999999523163,129203.90000009537,8063,WL,B,7.0
1,10.480999946594238,learn,49519.00005340576,Mon Aug 25 2025 16:58:34 GMT-0500 (Central Daylight Time),130685.5,A,wa,I,a,154,1,1481.5999999046326,129203.90000009537,8063,WL,B,7.0
1,10.6489999294281,learn,49351.0000705719,Mon Aug 25 2025 16:58:34 GMT-0500 (Central Daylight Time),130853.70000004768,A,wat,I,t,161,1,1649.7999999523163,129203.90000009537,8063,WL,B,7.0
1,10.848000049591064,learn,49151.999950408936,Mon Aug 25 2025 16:58:34 GMT-0500 (Central Daylight Time),131052.79999995232,A,wate,I,e,189,1,1848.8999998569489,129203.90000009537,8063,WL,B,7.0
1,10.914000034332275,learn,49085.999965667725,Mon Aug 25 2025 16:58:34 GMT-0500 (Central Daylight Time),131118.90000009537,A,water,I,r,58,1,1915.0,129203.90000009537,8063,WL,B,7.0
1,11.680000066757202,learn,48319.9999332428,Mon Aug 25 2025 16:58:34 GMT-0500 (Central Daylight Time),131884.70000004768,A,waterenter,I,enter,757,1,2680.7999999523163,129203.90000009537,8063,WL,B,7.0
1,13.513999938964844,learn,46486.000061035156,Mon Aug 25 2025 16:58:34 GMT-0500 (Central Daylight Time),133718.90000009537,A,d,I,d,1827,1,1834.0,131884.90000009537,8063,WL,B,8.0
1,13.680999994277954,learn,46319.000005722046,Mon Aug 25 2025 16:58:34 GMT-0500 (Central Daylight Time),133885.60000014305,A,do,I,o,156,1,2000.7000000476837,131884.90000009537,8063,WL,B,8.0
1,13.829999923706055,learn,46170.000076293945,Mon Aug 25 2025 16:58:34 GMT-0500 (Central Daylight Time),134035.0,A,doo,I,o,133,1,2150.0999999046326,131884.90000009537,8063,WL,B,8.0
1,13.930999994277954,learn,46069.000005722046,Mon Aug 25 2025 16:58:34 GMT-0500 (Central Daylight Time),134135.20000004768,A,door,I,r,79,1,2250.2999999523163,131884.90000009537,8063,WL,B,8.0
1,14.21399998664856,learn,45786.00001335144,Mon Aug 25 2025 16:58:34 GMT-0500 (Central Daylight Time),134418.5,A,doorenter,I,enter,268,1,2533.5999999046326,131884.90000009537,8063,WL,B,8.0
1,14.680999994277954,learn,45319.000005722046,Mon Aug 25 2025 16:58:34 GMT-0500 (Central Daylight Time),134885.5,A,a,I,a,453,1,466.7000000476837,134418.79999995232,8063,WL,B,9.0
1,14.848000049591064,learn,45151.999950408936,Mon Aug 25 2025 16:58:34 GMT-0500 (Central Daylight Time),135052.0,A,ar,I,r,144,1,633.2000000476837,134418.79999995232,8063,WL,B,9.0
1,15.097000122070312,learn,44902.99987792969,Mon Aug 25 2025 16:58:34 GMT-0500 (Central Daylight Time),135301.10000014305,A,arm,I,m,235,1,882.3000001907349,134418.79999995232,8063,WL,B,9.0
1,15.44700002670288,learn,44552.99997329712,Mon Aug 25 2025 16:58:34 GMT-0500 (Central Daylight Time),135651.5,A,armenter,I,enter,332,1,1232.7000000476837,134418.79999995232,8063,WL,B,9.0
1,21.877000093460083,learn,38122.99990653992,Mon Aug 25 2025 16:58:34 GMT-0500 (Central Daylight Time),142081.79999995232,A,c,I,c,6410,1,6430.0,135651.79999995232,8063,WL,B,10.0
1,22.028000116348267,learn,37971.99988365173,Mon Aug 25 2025 16:58:34 GMT-0500 (Central Daylight Time),142232.70000004768,A,ca,I,a,142,1,6580.900000095367,135651.79999995232,8063,WL,B,10.0
1,22.24500012397766,learn,37754.99987602234,Mon Aug 25 2025 16:58:34 GMT-0500 (Central Daylight Time),142450.0,A,cab,I,b,203,1,6798.200000047684,135651.79999995232,8063,WL,B,10.0
1,22.49500012397766,learn,37504.99987602234,Mon Aug 25 2025 16:58:34 GMT-0500 (Central Daylight Time),142699.29999995232,A,cabi,I,i,225,1,7047.5,135651.79999995232,8063,WL,B,10.0
1,22.543999910354614,learn,37456.000089645386,Mon Aug 25 2025 16:58:34 GMT-0500 (Central Daylight Time),142748.90000009537,A,cabin,I,n,32,1,7097.100000143051,135651.79999995232,8063,WL,B,10.0
1,22.962000131607056,learn,37037.999868392944,Mon Aug 25 2025 16:58:34 GMT-0500 (Central Daylight Time),143166.60000014305,A,cabinenter,I,enter,404,1,7514.800000190735,135651.79999995232,8063,WL,B,10.0
1,27.844000101089478,learn,32155.999898910522,Mon Aug 25 2025 16:58:34 GMT-0500 (Central Daylight Time),148048.40000009537,A,a,I,a,4861,1,4881.5,143166.90000009537,8063,WL,B,11.0
1,28.026999950408936,learn,31973.000049591064,Mon Aug 25 2025 16:58:34 GMT-0500 (Central Daylight Time),148231.60000014305,A,ar,I,r,164,1,5064.700000047684,143166.90000009537,8063,WL,B,11.0
1,28.22699999809265,learn,31773.00000190735,Mon Aug 25 2025 16:58:34 GMT-0500 (Central Daylight Time),148431.60000014305,A,arm,I,m,183,1,5264.700000047684,143166.90000009537,8063,WL,B,11.0
1,28.575999975204468,learn,31424.000024795532,Mon Aug 25 2025 16:58:34 GMT-0500 (Central Daylight Time),148780.79999995232,A,armenter,I,enter,334,1,5613.899999856949,143166.90000009537,8063,WL,B,11.0
1,36.24300003051758,learn,23756.999969482422,Mon Aug 25 2025 16:58:34 GMT-0500 (Central Daylight Time),156447.5,A,d,I,d,7645,1,7666.399999856949,148781.10000014305,8063,WL,B,12.0
1,36.44099998474121,learn,23559.00001525879,Mon Aug 25 2025 16:58:34 GMT-0500 (Central Daylight Time),156645.40000009537,A,do,I,o,183,1,7864.299999952316,148781.10000014305,8063,WL,B,12.0
1,36.60899996757507,learn,23391.000032424927,Mon Aug 25 2025 16:58:34 GMT-0500 (Central Daylight Time),156813.0,A,doo,I,o,154,1,8031.899999856949,148781.10000014305,8063,WL,B,12.0
1,36.65700006484985,learn,23342.999935150146,Mon Aug 25 2025 16:58:34 GMT-0500 (Central Daylight Time),156861.10000014305,A,door,I,r,42,1,8080.0,148781.10000014305,8063,WL,B,12.0
1,37.08899998664856,learn,22911.00001335144,Mon Aug 25 2025 16:58:34 GMT-0500 (Central Daylight Time),157293.70000004768,A,doorenter,I,enter,426,1,8512.599999904633,148781.10000014305,8063,WL,B,12.0
1,46.13700008392334,learn,13862.99991607666,Mon Aug 25 2025 16:58:34 GMT-0500 (Central Daylight Time),166341.40000009537,A,f,I,f,9033,1,9047.400000095367,157294.0,8063,WL,B,13.0
1,46.28699994087219,learn,13713.000059127808,Mon Aug 25 2025 16:58:34 GMT-0500 (Central Daylight Time),166491.79999995232,A,fi,I,i,133,1,9197.799999952316,157294.0,8063,WL,B,13.0
1,46.37100005149841,learn,13628.999948501587,Mon Aug 25 2025 16:58:34 GMT-0500 (Central Daylight Time),166575.10000014305,A,fir,I,r,73,1,9281.100000143051,157294.0,8063,WL,B,13.0
1,46.47099995613098,learn,13529.000043869019,Mon Aug 25 2025 16:58:34 GMT-0500 (Central Daylight Time),166675.40000009537,A,fire,I,e,78,1,9381.400000095367,157294.0,8063,WL,B,13.0
1,46.687999963760376,learn,13312.000036239624,Mon Aug 25 2025 16:58:34 GMT-0500 (Central Daylight Time),166892.10000014305,A,fireenter,I,enter,194,1,9598.100000143051,157294.0,8063,WL,B,13.0
1,48.437000036239624,learn,11562.999963760376,Mon Aug 25 2025 16:58:34 GMT-0500 (Central Daylight Time),168641.60000014305,A,w,I,w,1732,1,1749.4000000953674,166892.20000004768,8063,WL,B,14.0
1,49.020999908447266,learn,10979.000091552734,Mon Aug 25 2025 16:58:34 GMT-0500 (Central Daylight Time),169225.20000004768,A,,I,backspace,572,1,2333.0,166892.20000004768,8063,WL,B,14.0
1,49.401999950408936,learn,10598.000049591064,Mon Aug 25 2025 16:58:34 GMT-0500 (Central Daylight Time),169606.70000004768,A,d,I,d,364,1,2714.5,166892.20000004768,8063,WL,B,14.0
1,49.78800010681152,learn,10211.999893188477,Mon Aug 25 2025 16:58:34 GMT-0500 (Central Daylight Time),169992.29999995232,A,,I,backspace,370,1,3100.0999999046326,166892.20000004768,8063,WL,B,14.0
1,50.670000076293945,learn,9329.999923706055,Mon Aug 25 2025 16:58:34 GMT-0500 (Central Daylight Time),170874.0,A,p,I,p,870,1,3981.7999999523163,166892.20000004768,8063,WL,B,14.0
1,50.854000091552734,learn,9145.999908447266,Mon Aug 25 2025 16:58:34 GMT-0500 (Central Daylight Time),171058.79999995232,A,po,I,o,163,1,4166.599999904633,166892.20000004768,8063,WL,B,14.0
1,51.03800010681152,learn,8961.999893188477,Mon Aug 25 2025 16:58:34 GMT-0500 (Central Daylight Time),171242.90000009537,A,pop,I,p,164,1,4350.700000047684,166892.20000004768,8063,WL,B,14.0
1,51.61899995803833,learn,8381.00004196167,Mon Aug 25 2025 16:58:34 GMT-0500 (Central Daylight Time),171823.70000004768,A,po,I,backspace,575,1,4931.5,166892.20000004768,8063,WL,B,14.0
1,51.80299997329712,learn,8197.00002670288,Mon Aug 25 2025 16:58:34 GMT-0500 (Central Daylight Time),172007.40000009537,A,p,I,backspace,161,1,5115.200000047684,166892.20000004768,8063,WL,B,14.0
1,52.40300011634827,learn,7596.999883651733,Mon Aug 25 2025 16:58:34 GMT-0500 (Central Daylight Time),172607.10000014305,A,pi,I,i,578,1,5714.900000095367,166892.20000004768,8063,WL,B,14.0
1,52.61899995803833,learn,7381.00004196167,Mon Aug 25 2025 16:58:34 GMT-0500 (Central Daylight Time),172823.60000014305,A,pip,I,p,199,1,5931.400000095367,166892.20000004768,8063,WL,B,14.0
1,52.736000061035156,learn,7263.999938964844,Mon Aug 25 2025 16:58:34 GMT-0500 (Central Daylight Time),172940.90000009537,A,pipe,I,e,107,1,6048.700000047684,166892.20000004768,8063,WL,B,14.0
1,53.40300011634827,learn,6596.999883651733,Mon Aug 25 2025 16:58:34 GMT-0500 (Central Daylight Time),173607.40000009537,A,pipeenter,I,enter,658,1,6715.200000047684,166892.20000004768,8063,WL,B,14.0
1,56.76800012588501,learn,3231.9998741149902,Mon Aug 25 2025 16:58:34 GMT-0500 (Central Daylight Time),176972.5,A,enter,I,enter,3352,1,3364.899999856949,173607.60000014305,8063,WL,B,15.0
2,1.2149999141693115,learn,58785.00008583069,Mon Aug 25 2025 16:58:34 GMT-0500 (Central Daylight Time),244850.0,A,s,I,s,1204,1,1215.0,243635.0,8063,WL,B,1.0
2,1.3989999294281006,learn,58601.0000705719,Mon Aug 25 2025 16:58:34 GMT-0500 (Central Daylight Time),245033.70000004768,A,st,I,t,172,1,1398.7000000476837,243635.0,8063,WL,B,1.0
2,1.9489998817443848,learn,58051.000118255615,Mon Aug 25 2025 16:58:34 GMT-0500 (Central Daylight Time),245583.79999995232,A,str,I,r,541,1,1948.7999999523163,243635.0,8063,WL,B,1.0
2,2.2149999141693115,learn,57785.00008583069,Mon Aug 25 2025 16:58:34 GMT-0500 (Central Daylight Time),245849.5,A,stre,I,e,246,1,2214.5,243635.0,8063,WL,B,1.0
2,2.363999843597412,learn,57636.00015640259,Mon Aug 25 2025 16:58:34 GMT-0500 (Central Daylight Time),245999.20000004768,A,stree,I,e,139,1,2364.2000000476837,243635.0,8063,WL,B,1.0
2,2.5309998989105225,learn,57469.00010108948,Mon Aug 25 2025 16:58:34 GMT-0500 (Central Daylight Time),246166.40000009537,A,street,I,t,150,1,2531.4000000953674,243635.0,8063,WL,B,1.0
2,2.8309998512268066,learn,57169.00014877319,Mon Aug 25 2025 16:58:34 GMT-0500 (Central Daylight Time),246466.20000004768,A,streetenter,I,enter,278,1,2831.2000000476837,243635.0,8063,WL,B,1.0
2,3.134000062942505,learn,56865.999937057495,Mon Aug 25 2025 16:58:34 GMT-0500 (Central Daylight Time),246769.20000004768,A,g,I,g,297,1,302.7000000476837,246466.5,8063,WL,B,2.0
2,3.299999952316284,learn,56700.000047683716,Mon Aug 25 2025 16:58:34 GMT-0500 (Central Daylight Time),246934.70000004768,A,gr,I,r,145,1,468.2000000476837,246466.5,8063,WL,B,2.0
2,3.5139999389648438,learn,56486.000061035156,Mon Aug 25 2025 16:58:34 GMT-0500 (Central Daylight Time),247149.0,A,gra,I,a,196,1,682.5,246466.5,8063,WL,B,2.0
2,3.8299999237060547,learn,56170.000076293945,Mon Aug 25 2025 16:58:34 GMT-0500 (Central Daylight Time),247465.29999995232,A,gras,I,s,307,1,998.7999999523163,246466.5,8063,WL,B,2.0
2,3.9809999465942383,learn,56019.00005340576,Mon Aug 25 2025 16:58:34 GMT-0500 (Central Daylight Time),247616.10000014305,A,grass,I,s,138,1,1149.6000001430511,246466.5,8063,WL,B,2.0
2,4.330999851226807,learn,55669.00014877319,Mon Aug 25 2025 16:58:34 GMT-0500 (Central Daylight Time),247965.79999995232,A,grassenter,I,enter,343,1,1499.2999999523163,246466.5,8063,WL,B,2.0
2,4.5299999713897705,learn,55470.00002861023,Mon Aug 25 2025 16:58:34 GMT-0500 (Central Daylight Time),248165.40000009537,A,c,I,c,185,1,199.29999995231628,247966.10000014305,8063,WL,B,3.0
2,4.680999994277954,learn,55319.000005722046,Mon Aug 25 2025 16:58:34 GMT-0500 (Central Daylight Time),248316.10000014305,A,ca,I,a,137,1,350.0,247966.10000014305,8063,WL,B,3.0
2,4.901000022888184,learn,55098.99997711182,Mon Aug 25 2025 16:58:34 GMT-0500 (Central Daylight Time),248536.10000014305,A,cab,I,b,201,1,570.0,247966.10000014305,8063,WL,B,3.0
2,5.079999923706055,learn,54920.000076293945,Mon Aug 25 2025 16:58:34 GMT-0500 (Central Daylight Time),248714.79999995232,A,cabi,I,i,157,1,748.6999998092651,247966.10000014305,8063,WL,B,3.0
2,5.145999908447266,learn,54854.000091552734,Mon Aug 25 2025 16:58:34 GMT-0500 (Central Daylight Time),248780.90000009537,A,cabin,I,n,53,1,814.7999999523163,247966.10000014305,8063,WL,B,3.0
2,5.414000034332275,learn,54585.999965667725,Mon Aug 25 2025 16:58:34 GMT-0500 (Central Daylight Time),249048.70000004768,A,cabinenter,I,enter,259,1,1082.5999999046326,247966.10000014305,8063,WL,B,3.0
2,5.629999876022339,learn,54370.00012397766,Mon Aug 25 2025 16:58:34 GMT-0500 (Central Daylight Time),249265.0,A,a,I,a,205,1,216.09999990463257,249048.90000009537,8063,WL,B,4.0
2,5.797999858856201,learn,54202.0001411438,Mon Aug 25 2025 16:58:34 GMT-0500 (Central Daylight Time),249432.60000014305,A,ar,I,r,151,1,383.7000000476837,249048.90000009537,8063,WL,B,4.0
2,5.96399998664856,learn,54036.00001335144,Mon Aug 25 2025 16:58:34 GMT-0500 (Central Daylight Time),249599.0,A,arm,I,m,146,1,550.0999999046326,249048.90000009537,8063,WL,B,4.0
2,6.2799999713897705,learn,53720.00002861023,Mon Aug 25 2025 16:58:34 GMT-0500 (Central Daylight Time),249915.20000004768,A,armenter,I,enter,296,1,866.2999999523163,249048.90000009537,8063,WL,B,4.0
2,6.516000032424927,learn,53483.99996757507,Mon Aug 25 2025 16:58:34 GMT-0500 (Central Daylight Time),250150.70000004768,A,d,I,d,215,1,235.29999995231628,249915.40000009537,8063,WL,B,5.0
2,6.664000034332275,learn,53335.999965667725,Mon Aug 25 2025 16:58:34 GMT-0500 (Central Daylight Time),250298.70000004768,A,do,I,o,126,1,383.2999999523163,249915.40000009537,8063,WL,B,5.0
2,6.815999984741211,learn,53184.00001525879,Mon Aug 25 2025 16:58:34 GMT-0500 (Central Daylight Time),250450.90000009537,A,doo,I,o,127,1,535.5,249915.40000009537,8063,WL,B,5.0
2,6.912999868392944,learn,53087.000131607056,Mon Aug 25 2025 16:58:34 GMT-0500 (Central Daylight Time),250548.0,A,door,I,r,75,1,632.5999999046326,249915.40000009537,8063,WL,B,5.0
2,7.3459999561309814,learn,52654.00004386902,Mon Aug 25 2025 16:58:34 GMT-0500 (Central Daylight Time),250981.29999995232,A,doorenter,I,enter,410,1,1065.8999998569489,249915.40000009537,8063,WL,B,5.0
2,7.648000001907349,learn,52351.99999809265,Mon Aug 25 2025 16:58:34 GMT-0500 (Central Daylight Time),251282.90000009537,A,w,I,w,291,1,301.2999999523163,250981.60000014305,8063,WL,B,6.0
2,7.7820000648498535,learn,52217.99993515015,Mon Aug 25 2025 16:58:34 GMT-0500 (Central Daylight Time),251416.79999995232,A,wi,I,i,113,1,435.19999980926514,250981.60000014305,8063,WL,B,6.0
2,7.947999954223633,learn,52052.00004577637,Mon Aug 25 2025 16:58:34 GMT-0500 (Central Daylight Time),251582.5,A,wif,I,f,142,1,600.8999998569489,250981.60000014305,8063,WL,B,6.0
2,8.13100004196167,learn,51868.99995803833,Mon Aug 25 2025 16:58:34 GMT-0500 (Central Daylight Time),251765.40000009537,A,wife,I,e,163,1,783.7999999523163,250981.60000014305,8063,WL,B,6.0
2,8.294999837875366,learn,51705.000162124634,Mon Aug 25 2025 16:58:34 GMT-0500 (Central Daylight Time),251930.10000014305,A,wifeenter,I,enter,143,1,948.5,250981.60000014305,8063,WL,B,6.0
2,8.629999876022339,learn,51370.00012397766,Mon Aug 25 2025 16:58:34 GMT-0500 (Central Daylight Time),252265.10000014305,A,w,I,w,317,1,334.7000000476837,251930.40000009537,8063,WL,B,7.0
2,8.728999853134155,learn,51271.000146865845,Mon Aug 25 2025 16:58:34 GMT-0500 (Central Daylight Time),252363.90000009537,A,wi,I,i,83,1,433.5,251930.40000009537,8063,WL,B,7.0
2,8.865000009536743,learn,51134.99999046326,Mon Aug 25 2025 16:58:34 GMT-0500 (Central Daylight Time),252499.79999995232,A,win,I,n,112,1,569.3999998569489,251930.40000009537,8063,WL,B,7.0
2,8.963000059127808,learn,51036.99994087219,Mon Aug 25 2025 16:58:34 GMT-0500 (Central Daylight Time),252597.40000009537,A,wind,I,d,75,1,667.0,251930.40000009537,8063,WL,B,7.0
2,9.11299991607666,learn,50887.00008392334,Mon Aug 25 2025 16:58:34 GMT-0500 (Central Daylight Time),252747.60000014305,A,windo,I,o,136,1,817.2000000476837,251930.40000009537,8063,WL,B,7.0
2,9.29699993133545,learn,50703.00006866455,Mon Aug 25 2025 16:58:34 GMT-0500 (Central Daylight Time),252931.70000004768,A,window,I,w,158,1,1001.2999999523163,251930.40000009537,8063,WL,B,7.0
2,9.595999956130981,learn,50404.00004386902,Mon Aug 25 2025 16:58:34 GMT-0500 (Central Daylight Time),253231.10000014305,A,windowenter,I,enter,281,1,1300.7000000476837,251930.40000009537,8063,WL,B,7.0
2,9.94599986076355,learn,50054.00013923645,Mon Aug 25 2025 16:58:34 GMT-0500 (Central Daylight Time),253581.20000004768,A,c,I,c,336,1,349.90000009536743,253231.29999995232,8063,WL,B,8.0
2,10.013000011444092,learn,49986.99998855591,Mon Aug 25 2025 16:58:34 GMT-0500 (Central Daylight Time),253647.60000014305,A,cl,I,l,55,1,416.30000019073486,253231.29999995232,8063,WL,B,8.0
2,10.211999893188477,learn,49788.00010681152,Mon Aug 25 2025 16:58:34 GMT-0500 (Central Daylight Time),253846.70000004768,A,clo,I,o,191,1,615.4000000953674,253231.29999995232,8063,WL,B,8.0
2,10.477999925613403,learn,49522.0000743866,Mon Aug 25 2025 16:58:34 GMT-0500 (Central Daylight Time),254113.20000004768,A,cloc,I,c,246,1,881.9000000953674,253231.29999995232,8063,WL,B,8.0
2,10.596999883651733,learn,49403.00011634827,Mon Aug 25 2025 16:58:34 GMT-0500 (Central Daylight Time),254232.20000004768,A,clock,I,k,98,1,1000.9000000953674,253231.29999995232,8063,WL,B,8.0
2,10.963000059127808,learn,49036.99994087219,Mon Aug 25 2025 16:58:34 GMT-0500 (Central Daylight Time),254597.5,A,clockenter,I,enter,351,1,1366.2000000476837,253231.29999995232,8063,WL,B,8.0
2,11.394999980926514,learn,48605.000019073486,Mon Aug 25 2025 16:58:34 GMT-0500 (Central Daylight Time),255030.20000004768,A,c,I,c,412,1,432.40000009536743,254597.79999995232,8063,WL,B,9.0
2,12.046000003814697,learn,47953.9999961853,Mon Aug 25 2025 16:58:34 GMT-0500 (Central Daylight Time),255681.10000014305,A,,I,backspace,635,1,1083.3000001907349,254597.79999995232,8063,WL,B,9.0
2,12.346999883651733,learn,47653.00011634827,Mon Aug 25 2025 16:58:34 GMT-0500 (Central Daylight Time),255981.90000009537,A,s,I,s,285,1,1384.1000001430511,254597.79999995232,8063,WL,B,9.0
2,12.494999885559082,learn,47505.00011444092,Mon Aug 25 2025 16:58:34 GMT-0500 (Central Daylight Time),256129.90000009537,A,st,I,t,128,1,1532.1000001430511,254597.79999995232,8063,WL,B,9.0
2,12.613999843597412,learn,47386.00015640259,Mon Aug 25 2025 16:58:34 GMT-0500 (Central Daylight Time),256248.5,A,sta,I,a,102,1,1650.7000000476837,254597.79999995232,8063,WL,B,9.0
2,12.812000036239624,learn,47187.999963760376,Mon Aug 25 2025 16:58:34 GMT-0500 (Central Daylight Time),256447.0,A,star,I,r,182,1,1849.2000000476837,254597.79999995232,8063,WL,B,9.0
2,13.044999837875366,learn,46955.000162124634,Mon Aug 25 2025 16:58:34 GMT-0500 (Central Daylight Time),256679.60000014305,A,starenter,I,enter,221,1,2081.800000190735,254597.79999995232,8063,WL,B,9.0
2,14.013999938964844,learn,45986.000061035156,Mon Aug 25 2025 16:58:34 GMT-0500 (Central Daylight Time),257648.60000014305,A,p,I,p,951,1,968.8000001907349,256679.79999995232,8063,WL,B,10.0
2,14.161999940872192,learn,45838.00005912781,Mon Aug 25 2025 16:58:34 GMT-0500 (Central Daylight Time),257796.60000014305,A,pu,I,u,133,1,1116.8000001907349,256679.79999995232,8063,WL,B,10.0
2,14.644999980926514,learn,45355.000019073486,Mon Aug 25 2025 16:58:34 GMT-0500 (Central Daylight Time),258279.5,A,pup,I,p,472,1,1599.7000000476837,256679.79999995232,8063,WL,B,10.0
2,14.859999895095825,learn,45140.000104904175,Mon Aug 25 2025 16:58:34 GMT-0500 (Central Daylight Time),258495.10000014305,A,pupi,I,i,206,1,1815.3000001907349,256679.79999995232,8063,WL,B,10.0
2,15.062000036239624,learn,44937.999963760376,Mon Aug 25 2025 16:58:34 GMT-0500 (Central Daylight Time),258696.60000014305,A,pupil,I,l,190,1,2016.8000001907349,256679.79999995232,8063,WL,B,10.0
2,15.310999870300293,learn,44689.00012969971,Mon Aug 25 2025 16:58:34 GMT-0500 (Central Daylight Time),258945.90000009537,A,pupilenter,I,enter,228,1,2266.100000143051,256679.79999995232,8063,WL,B,10.0
2,15.544999837875366,learn,44455.000162124634,Mon Aug 25 2025 16:58:34 GMT-0500 (Central Daylight Time),259180.20000004768,A,f,I,f,215,1,234.0,258946.20000004768,8063,WL,B,11.0
2,15.64299988746643,learn,44357.00011253357,Mon Aug 25 2025 16:58:34 GMT-0500 (Central Daylight Time),259278.20000004768,A,fi,I,i,92,1,332.0,258946.20000004768,8063,WL,B,11.0
2,15.777999877929688,learn,44222.00012207031,Mon Aug 25 2025 16:58:34 GMT-0500 (Central Daylight Time),259412.60000014305,A,fir,I,r,112,1,466.40000009536743,258946.20000004768,8063,WL,B,11.0
2,15.84500002861023,learn,44154.99997138977,Mon Aug 25 2025 16:58:34 GMT-0500 (Central Daylight Time),259479.70000004768,A,fire,I,e,47,1,533.5,258946.20000004768,8063,WL,B,11.0
2,16.060999870300293,learn,43939.00012969971,Mon Aug 25 2025 16:58:34 GMT-0500 (Central Daylight Time),259695.90000009537,A,fireenter,I,enter,200,1,749.7000000476837,258946.20000004768,8063,WL,B,11.0
2,16.47699999809265,learn,43523.00000190735,Mon Aug 25 2025 16:58:34 GMT-0500 (Central Daylight Time),260112.20000004768,A,p,I,p,407,1,416.0,259696.20000004768,8063,WL,B,12.0
2,16.694000005722046,learn,43305.999994277954,Mon Aug 25 2025 16:58:34 GMT-0500 (Central Daylight Time),260328.79999995232,A,po,I,o,198,1,632.5999999046326,259696.20000004768,8063,WL,B,12.0
2,16.89400005340576,learn,43105.99994659424,Mon Aug 25 2025 16:58:34 GMT-0500 (Central Daylight Time),260528.90000009537,A,pop,I,p,181,1,832.7000000476837,259696.20000004768,8063,WL,B,12.0
2,17.05900001525879,learn,42940.99998474121,Mon Aug 25 2025 16:58:34 GMT-0500 (Central Daylight Time),260694.29999995232,A,pope,I,e,154,1,998.0999999046326,259696.20000004768,8063,WL,B,12.0
2,17.460999965667725,learn,42539.000034332275,Mon Aug 25 2025 16:58:34 GMT-0500 (Central Daylight Time),261095.29999995232,A,pop,I,backspace,383,1,1399.0999999046326,259696.20000004768,8063,WL,B,12.0
2,17.625999927520752,learn,42374.00007247925,Mon Aug 25 2025 16:58:34 GMT-0500 (Central Daylight Time),261261.0,A,po,I,backspace,150,1,1564.7999999523163,259696.20000004768,8063,WL,B,12.0
2,17.810999870300293,learn,42189.00012969971,Mon Aug 25 2025 16:58:34 GMT-0500 (Central Daylight Time),261445.60000014305,A,p,I,backspace,162,1,1749.4000000953674,259696.20000004768,8063,WL,B,12.0
2,18.47499990463257,learn,41525.00009536743,Mon Aug 25 2025 16:58:34 GMT-0500 (Central Daylight Time),262110.29999995232,A,pi,I,i,653,1,2414.0999999046326,259696.20000004768,8063,WL,B,12.0
2,18.64199995994568,learn,41358.00004005432,Mon Aug 25 2025 16:58:34 GMT-0500 (Central Daylight Time),262277.2999999523,A,pip,I,p,153,1,2581.0999999046326,259696.20000004768,8063,WL,B,12.0
2,18.80999994277954,learn,41190.00005722046,Mon Aug 25 2025 16:58:34 GMT-0500 (Central Daylight Time),262445.2000000477,A,pipe,I,e,145,1,2749.0,259696.20000004768,8063,WL,B,12.0
2,19.57699990272522,learn,40423.00009727478,Mon Aug 25 2025 16:58:34 GMT-0500 (Central Daylight Time),263211.90000009537,A,pipeenter,I,enter,742,1,3515.7000000476837,259696.20000004768,8063,WL,B,12.0
2,22.009000062942505,learn,37990.999937057495,Mon Aug 25 2025 16:58:34 GMT-0500 (Central Daylight Time),265643.7999999523,A,c,I,c,2420,1,2431.699999809265,263212.10000014305,8063,WL,B,13.0
2,22.073999881744385,learn,37926.000118255615,Mon Aug 25 2025 16:58:34 GMT-0500 (Central Daylight Time),265709.2000000477,A,cl,I,l,58,1,2497.0999999046326,263212.10000014305,8063,WL,B,13.0
2,22.259000062942505,learn,37740.999937057495,Mon Aug 25 2025 16:58:34 GMT-0500 (Central Daylight Time),265893.7999999523,A,clo,I,o,164,1,2681.699999809265,263212.10000014305,8063,WL,B,13.0
2,22.375999927520752,learn,37624.00007247925,Mon Aug 25 2025 16:58:34 GMT-0500 (Central Daylight Time),266011.10000014305,A,cloc,I,c,95,1,2799.0,263212.10000014305,8063,WL,B,13.0
2,22.47499990463257,learn,37525.00009536743,Mon Aug 25 2025 16:58:34 GMT-0500 (Central Daylight Time),266109.90000009537,A,clock,I,k,88,1,2897.7999999523163,263212.10000014305,8063,WL,B,13.0
2,22.741999864578247,learn,37258.00013542175,Mon Aug 25 2025 16:58:34 GMT-0500 (Central Daylight Time),266376.7000000477,A,clockenter,I,enter,248,1,3164.5999999046326,263212.10000014305,8063,WL,B,13.0
2,28.372999906539917,learn,31627.000093460083,Mon Aug 25 2025 16:58:34 GMT-0500 (Central Daylight Time),272008.2000000477,A,c,I,c,5613,1,5631.099999904633,266377.10000014305,8063,WL,B,14.0
2,28.539999961853027,learn,31460.000038146973,Mon Aug 25 2025 16:58:34 GMT-0500 (Central Daylight Time),272175.10000014305,A,ca,I,a,157,1,5798.0,266377.10000014305,8063,WL,B,14.0
2,28.707000017166138,learn,31292.999982833862,Mon Aug 25 2025 16:58:34 GMT-0500 (Central Daylight Time),272341.2999999523,A,cab,I,b,159,1,5964.199999809265,266377.10000014305,8063,WL,B,14.0
2,28.822999954223633,learn,31177.000045776367,Mon Aug 25 2025 16:58:34 GMT-0500 (Central Daylight Time),272458.2000000477,A,cabi,I,i,104,1,6081.099999904633,266377.10000014305,8063,WL,B,14.0
2,29.055999994277954,learn,30944.000005722046,Mon Aug 25 2025 16:58:34 GMT-0500 (Central Daylight Time),272690.5,A,cabin,I,n,218,1,6313.399999856949,266377.10000014305,8063,WL,B,14.0
2,29.32200002670288,learn,30677.99997329712,Mon Aug 25 2025 16:58:34 GMT-0500 (Central Daylight Time),272957.2000000477,A,cabinenter,I,enter,249,1,6580.099999904633,266377.10000014305,8063,WL,B,14.0
2,33.18899989128113,learn,26811.000108718872,Mon Aug 25 2025 16:58:34 GMT-0500 (Central Daylight Time),276823.5,A,s,I,s,3850,1,3866.0,272957.5,8063,WL,B,15.0
2,33.32200002670288,learn,26677.99997329712,Mon Aug 25 2025 16:58:34 GMT-0500 (Central Daylight Time),276957.2999999523,A,sk,I,k,121,1,3999.7999999523163,272957.5,8063,WL,B,15.0
2,33.539000034332275,learn,26460.999965667725,Mon Aug 25 2025 16:58:34 GMT-0500 (Central Daylight Time),277173.7999999523,A,ski,I,i,201,1,4216.299999952316,272957.5,8063,WL,B,15.0
2,33.63800001144409,learn,26361.99998855591,Mon Aug 25 2025 16:58:34 GMT-0500 (Central Daylight Time),277273.2000000477,A,skin,I,n,78,1,4315.700000047684,272957.5,8063,WL,B,15.0
2,33.90400004386902,learn,26095.99995613098,Mon Aug 25 2025 16:58:34 GMT-0500 (Central Daylight Time),277538.5,A,skinenter,I,enter,250,1,4581.0,272957.5,8063,WL,B,15.0
3,0.7179999351501465,learn,59282.00006484985,Mon Aug 25 2025 16:58:34 GMT-0500 (Central Daylight Time),343903.0,A,s,I,s,694,1,717.5999999046326,343185.40000009537,8063,WL,B,1.0
3,0.9159998893737793,learn,59084.00011062622,Mon Aug 25 2025 16:58:34 GMT-0500 (Central Daylight Time),344100.60000014305,A,st,I,t,180,1,915.2000000476837,343185.40000009537,8063,WL,B,1.0
3,1.1670000553131104,learn,58832.99994468689,Mon Aug 25 2025 16:58:34 GMT-0500 (Central Daylight Time),344352.2000000477,A,str,I,r,231,1,1166.7999999523163,343185.40000009537,8063,WL,B,1.0
3,1.3670001029968262,learn,58632.999897003174,Mon Aug 25 2025 16:58:34 GMT-0500 (Central Daylight Time),344552.0,A,stre,I,e,184,1,1366.5999999046326,343185.40000009537,8063,WL,B,1.0
3,1.500999927520752,learn,58499.00007247925,Mon Aug 25 2025 16:58:34 GMT-0500 (Central Daylight Time),344686.2999999523,A,stree,I,e,128,1,1500.8999998569489,343185.40000009537,8063,WL,B,1.0
3,1.684999942779541,learn,58315.00005722046,Mon Aug 25 2025 16:58:34 GMT-0500 (Central Daylight Time),344869.7999999523,A,street,I,t,175,1,1684.3999998569489,343185.40000009537,8063,WL,B,1.0
3,1.9170000553131104,learn,58082.99994468689,Mon Aug 25 2025 16:58:34 GMT-0500 (Central Daylight Time),345102.0,A,streetenter,I,enter,217,1,1916.5999999046326,343185.40000009537,8063,WL,B,1.0
3,2.1670000553131104,learn,57832.99994468689,Mon Aug 25 2025 16:58:34 GMT-0500 (Central Daylight Time),345352.10000014305,A,g,I,g,241,1,249.80000019073486,345102.2999999523,8063,WL,B,2.0
3,2.3489999771118164,learn,57651.00002288818,Mon Aug 25 2025 16:58:34 GMT-0500 (Central Daylight Time),345534.2000000477,A,gr,I,r,167,1,431.90000009536743,345102.2999999523,8063,WL,B,2.0
3,2.5,learn,57500.0,Mon Aug 25 2025 16:58:34 GMT-0500 (Central Daylight Time),345685.2000000477,A,gra,I,a,138,1,582.9000000953674,345102.2999999523,8063,WL,B,2.0
3,2.799999952316284,learn,57200.000047683716,Mon Aug 25 2025 16:58:34 GMT-0500 (Central Daylight Time),345984.90000009537,A,gras,I,s,290,1,882.6000001430511,345102.2999999523,8063,WL,B,2.0
3,2.9670000076293945,learn,57032.999992370605,Mon Aug 25 2025 16:58:34 GMT-0500 (Central Daylight Time),346152.2000000477,A,grass,I,s,148,1,1049.9000000953674,345102.2999999523,8063,WL,B,2.0
3,3.365999937057495,learn,56634.000062942505,Mon Aug 25 2025 16:58:34 GMT-0500 (Central Daylight Time),346551.0,A,grassenter,I,enter,392,1,1448.7000000476837,345102.2999999523,8063,WL,B,2.0
3,3.615999937057495,learn,56384.000062942505,Mon Aug 25 2025 16:58:34 GMT-0500 (Central Daylight Time),346800.7999999523,A,d,I,d,240,1,249.5,346551.2999999523,8063,WL,B,3.0
3,3.7660000324249268,learn,56233.99996757507,Mon Aug 25 2025 16:58:34 GMT-0500 (Central Daylight Time),346951.40000009537,A,do,I,o,142,1,400.10000014305115,346551.2999999523,8063,WL,B,3.0
3,3.933000087738037,learn,56066.99991226196,Mon Aug 25 2025 16:58:34 GMT-0500 (Central Daylight Time),347118.40000009537,A,doo,I,o,160,1,567.1000001430511,346551.2999999523,8063,WL,B,3.0
3,4.0329999923706055,learn,55967.000007629395,Mon Aug 25 2025 16:58:34 GMT-0500 (Central Daylight Time),347217.90000009537,A,door,I,r,89,1,666.6000001430511,346551.2999999523,8063,WL,B,3.0
3,4.483000040054321,learn,55516.99995994568,Mon Aug 25 2025 16:58:34 GMT-0500 (Central Daylight Time),347668.40000009537,A,doorenter,I,enter,438,1,1117.1000001430511,346551.2999999523,8063,WL,B,3.0
3,4.733000040054321,learn,55266.99995994568,Mon Aug 25 2025 16:58:34 GMT-0500 (Central Daylight Time),347917.5,A,a,I,a,235,1,248.79999995231628,347668.7000000477,8063,WL,B,4.0
3,4.931999921798706,learn,55068.000078201294,Mon Aug 25 2025 16:58:34 GMT-0500 (Central Daylight Time),348116.7999999523,A,ar,I,r,191,1,448.09999990463257,347668.7000000477,8063,WL,B,4.0
3,5.132999897003174,learn,54867.000102996826,Mon Aug 25 2025 16:58:34 GMT-0500 (Central Daylight Time),348317.7000000477,A,arm,I,m,180,1,649.0,347668.7000000477,8063,WL,B,4.0
3,5.433000087738037,learn,54566.99991226196,Mon Aug 25 2025 16:58:34 GMT-0500 (Central Daylight Time),348618.10000014305,A,armenter,I,enter,287,1,949.4000000953674,347668.7000000477,8063,WL,B,4.0
3,5.697999954223633,learn,54302.00004577637,Mon Aug 25 2025 16:58:34 GMT-0500 (Central Daylight Time),348882.7000000477,A,s,I,s,244,1,264.2999999523163,348618.40000009537,8063,WL,B,5.0
3,6.165999889373779,learn,53834.00011062622,Mon Aug 25 2025 16:58:34 GMT-0500 (Central Daylight Time),349350.7999999523,A,st,I,t,454,1,732.3999998569489,348618.40000009537,8063,WL,B,5.0
3,6.381999969482422,learn,53618.00003051758,Mon Aug 25 2025 16:58:34 GMT-0500 (Central Daylight Time),349567.5,A,sta,I,a,200,1,949.0999999046326,348618.40000009537,8063,WL,B,5.0
3,6.58299994468689,learn,53417.00005531311,Mon Aug 25 2025 16:58:34 GMT-0500 (Central Daylight Time),349767.60000014305,A,star,I,r,193,1,1149.2000000476837,348618.40000009537,8063,WL,B,5.0
3,6.982000112533569,learn,53017.99988746643,Mon Aug 25 2025 16:58:34 GMT-0500 (Central Daylight Time),350166.7999999523,A,starenter,I,enter,394,1,1548.3999998569489,348618.40000009537,8063,WL,B,5.0
3,7.2149999141693115,learn,52785.00008583069,Mon Aug 25 2025 16:58:34 GMT-0500 (Central Daylight Time),350400.40000009537,A,s,I,s,224,1,233.29999995231628,350167.10000014305,8063,WL,B,6.0
3,7.348999977111816,learn,52651.00002288818,Mon Aug 25 2025 16:58:34 GMT-0500 (Central Daylight Time),350533.7999999523,A,sk,I,k,119,1,366.69999980926514,350167.10000014305,8063,WL,B,6.0
3,7.54800009727478,learn,52451.99990272522,Mon Aug 25 2025 16:58:34 GMT-0500 (Central Daylight Time),350733.40000009537,A,ski,I,i,186,1,566.2999999523163,350167.10000014305,8063,WL,B,6.0
3,7.730999946594238,learn,52269.00005340576,Mon Aug 25 2025 16:58:34 GMT-0500 (Central Daylight Time),350916.0,A,skin,I,n,167,1,748.8999998569489,350167.10000014305,8063,WL,B,6.0
3,7.9670000076293945,learn,52032.999992370605,Mon Aug 25 2025 16:58:34 GMT-0500 (Central Daylight Time),351151.60000014305,A,skinenter,I,enter,219,1,984.5,350167.10000014305,8063,WL,B,6.0
3,8.414999961853027,learn,51585.00003814697,Mon Aug 25 2025 16:58:34 GMT-0500 (Central Daylight Time),351599.7999999523,A,w,I,w,432,1,447.89999985694885,351151.90000009537,8063,WL,B,7.0
3,8.581000089645386,learn,51418.999910354614,Mon Aug 25 2025 16:58:34 GMT-0500 (Central Daylight Time),351766.2999999523,A,wi,I,i,152,1,614.3999998569489,351151.90000009537,8063,WL,B,7.0
3,8.763999938964844,learn,51236.000061035156,Mon Aug 25 2025 16:58:34 GMT-0500 (Central Daylight Time),351949.40000009537,A,wif,I,f,177,1,797.5,351151.90000009537,8063,WL,B,7.0
3,9.030999898910522,learn,50969.00010108948,Mon Aug 25 2025 16:58:34 GMT-0500 (Central Daylight Time),352215.90000009537,A,wife,I,e,247,1,1064.0,351151.90000009537,8063,WL,B,7.0
3,9.364000082015991,learn,50635.99991798401,Mon Aug 25 2025 16:58:34 GMT-0500 (Central Daylight Time),352548.7999999523,A,wifeenter,I,enter,312,1,1396.8999998569489,351151.90000009537,8063,WL,B,7.0
3,9.663000106811523,learn,50336.99989318848,Mon Aug 25 2025 16:58:34 GMT-0500 (Central Daylight Time),352848.5,A,c,I,c,282,1,299.39999985694885,352549.10000014305,8063,WL,B,8.0
3,9.746999979019165,learn,50253.000020980835,Mon Aug 25 2025 16:58:34 GMT-0500 (Central Daylight Time),352932.2000000477,A,cl,I,l,66,1,383.09999990463257,352549.10000014305,8063,WL,B,8.0
3,9.963000059127808,learn,50036.99994087219,Mon Aug 25 2025 16:58:34 GMT-0500 (Central Daylight Time),353148.5,A,clo,I,o,204,1,599.3999998569489,352549.10000014305,8063,WL,B,8.0
3,10.096999883651733,learn,49903.00011634827,Mon Aug 25 2025 16:58:34 GMT-0500 (Central Daylight Time),353281.7000000477,A,cloc,I,c,119,1,732.5999999046326,352549.10000014305,8063,WL,B,8.0
3,10.19700002670288,learn,49802.99997329712,Mon Aug 25 2025 16:58:34 GMT-0500 (Central Daylight Time),353381.90000009537,A,clock,I,k,92,1,832.7999999523163,352549.10000014305,8063,WL,B,8.0
3,10.480000019073486,learn,49519.999980926514,Mon Aug 25 2025 16:58:34 GMT-0500 (Central Daylight Time),353665.2999999523,A,clockenter,I,enter,270,1,1116.1999998092651,352549.10000014305,8063,WL,B,8.0
3,10.696000099182129,learn,49303.99990081787,Mon Aug 25 2025 16:58:34 GMT-0500 (Central Daylight Time),353881.2999999523,A,c,I,c,206,1,215.79999995231628,353665.5,8063,WL,B,9.0
3,10.812999963760376,learn,49187.000036239624,Mon Aug 25 2025 16:58:34 GMT-0500 (Central Daylight Time),353998.2000000477,A,ci,I,i,99,1,332.7000000476837,353665.5,8063,WL,B,9.0
3,10.946000099182129,learn,49053.99990081787,Mon Aug 25 2025 16:58:34 GMT-0500 (Central Daylight Time),354131.60000014305,A,cit,I,t,116,1,466.10000014305115,353665.5,8063,WL,B,9.0
3,11.081000089645386,learn,48918.999910354614,Mon Aug 25 2025 16:58:34 GMT-0500 (Central Daylight Time),354265.5,A,city,I,y,113,1,600.0,353665.5,8063,WL,B,9.0
3,11.430000066757202,learn,48569.9999332428,Mon Aug 25 2025 16:58:34 GMT-0500 (Central Daylight Time),354615.10000014305,A,cityenter,I,enter,339,1,949.6000001430511,353665.5,8063,WL,B,9.0
3,11.946000099182129,learn,48053.99990081787,Mon Aug 25 2025 16:58:34 GMT-0500 (Central Daylight Time),355131.2999999523,A,l,I,l,496,1,515.8999998569489,354615.40000009537,8063,WL,B,10.0
3,12.046000003814697,learn,47953.9999961853,Mon Aug 25 2025 16:58:34 GMT-0500 (Central Daylight Time),355230.5,A,la,I,a,82,1,615.0999999046326,354615.40000009537,8063,WL,B,10.0
3,12.19700002670288,learn,47802.99997329712,Mon Aug 25 2025 16:58:34 GMT-0500 (Central Daylight Time),355382.2999999523,A,lak,I,k,135,1,766.8999998569489,354615.40000009537,8063,WL,B,10.0
3,12.296000003814697,learn,47703.9999961853,Mon Aug 25 2025 16:58:34 GMT-0500 (Central Daylight Time),355481.2000000477,A,lake,I,e,86,1,865.7999999523163,354615.40000009537,8063,WL,B,10.0
3,12.546000003814697,learn,47453.9999961853,Mon Aug 25 2025 16:58:34 GMT-0500 (Central Daylight Time),355731.2999999523,A,lakeenter,I,enter,227,1,1115.8999998569489,354615.40000009537,8063,WL,B,10.0
3,13.145999908447266,learn,46854.000091552734,Mon Aug 25 2025 16:58:34 GMT-0500 (Central Daylight Time),356330.7000000477,A,o,I,o,579,1,599.0999999046326,355731.60000014305,8063,WL,B,11.0
3,13.595999956130981,learn,46404.00004386902,Mon Aug 25 2025 16:58:34 GMT-0500 (Central Daylight Time),356780.7000000477,A,,I,backspace,429,1,1049.0999999046326,355731.60000014305,8063,WL,B,11.0
3,14.029000043869019,learn,45970.99995613098,Mon Aug 25 2025 16:58:34 GMT-0500 (Central Daylight Time),357214.5,A,p,I,p,423,1,1482.8999998569489,355731.60000014305,8063,WL,B,11.0
3,14.244999885559082,learn,45755.00011444092,Mon Aug 25 2025 16:58:34 GMT-0500 (Central Daylight Time),357430.40000009537,A,pi,I,i,207,1,1698.7999999523163,355731.60000014305,8063,WL,B,11.0
3,14.461999893188477,learn,45538.00010681152,Mon Aug 25 2025 16:58:34 GMT-0500 (Central Daylight Time),357647.2999999523,A,pip,I,p,205,1,1915.6999998092651,355731.60000014305,8063,WL,B,11.0
3,14.696000099182129,learn,45303.99990081787,Mon Aug 25 2025 16:58:34 GMT-0500 (Central Daylight Time),357881.10000014305,A,pipe,I,e,211,1,2149.5,355731.60000014305,8063,WL,B,11.0
3,14.961999893188477,learn,45038.00010681152,Mon Aug 25 2025 16:58:34 GMT-0500 (Central Daylight Time),358147.2000000477,A,pipeenter,I,enter,242,1,2415.5999999046326,355731.60000014305,8063,WL,B,11.0
3,15.230000019073486,learn,44769.999980926514,Mon Aug 25 2025 16:58:34 GMT-0500 (Central Daylight Time),358414.7000000477,A,f,I,f,262,1,267.2000000476837,358147.5,8063,WL,B,12.0
3,15.42799997329712,learn,44572.00002670288,Mon Aug 25 2025 16:58:34 GMT-0500 (Central Daylight Time),358613.7000000477,A,fi,I,i,191,1,466.2000000476837,358147.5,8063,WL,B,12.0
3,15.59500002861023,learn,44404.99997138977,Mon Aug 25 2025 16:58:34 GMT-0500 (Central Daylight Time),358780.0,A,fir,I,r,151,1,632.5,358147.5,8063,WL,B,12.0
3,15.66100001335144,learn,44338.99998664856,Mon Aug 25 2025 16:58:34 GMT-0500 (Central Daylight Time),358846.40000009537,A,fire,I,e,48,1,698.9000000953674,358147.5,8063,WL,B,12.0
3,16.26200008392334,learn,43737.99991607666,Mon Aug 25 2025 16:58:34 GMT-0500 (Central Daylight Time),359447.2000000477,A,fireenter,I,enter,592,1,1299.7000000476837,358147.5,8063,WL,B,12.0
3,18.49399995803833,learn,41506.00004196167,Mon Aug 25 2025 16:58:34 GMT-0500 (Central Daylight Time),361679.2000000477,A,l,I,l,2216,1,2231.7000000476837,359447.5,8063,WL,B,13.0
3,18.57699990272522,learn,41423.00009727478,Mon Aug 25 2025 16:58:34 GMT-0500 (Central Daylight Time),361762.2000000477,A,la,I,a,69,1,2314.7000000476837,359447.5,8063,WL,B,13.0
3,18.727999925613403,learn,41272.0000743866,Mon Aug 25 2025 16:58:34 GMT-0500 (Central Daylight Time),361913.0,A,lak,I,k,138,1,2465.5,359447.5,8063,WL,B,13.0
3,18.82800006866455,learn,41171.99993133545,Mon Aug 25 2025 16:58:34 GMT-0500 (Central Daylight Time),362013.5,A,lake,I,e,80,1,2566.0,359447.5,8063,WL,B,13.0
3,19.72699999809265,learn,40273.00000190735,Mon Aug 25 2025 16:58:34 GMT-0500 (Central Daylight Time),362912.5,A,lakeenter,I,enter,878,1,3465.0,359447.5,8063,WL,B,13.0
3,22.4760000705719,learn,37523.9999294281,Mon Aug 25 2025 16:58:34 GMT-0500 (Central Daylight Time),365661.5,A,c,I,c,2744,1,2748.7999999523163,362912.7000000477,8063,WL,B,14.0
3,22.592000007629395,learn,37407.999992370605,Mon Aug 25 2025 16:58:34 GMT-0500 (Central Daylight Time),365777.5,A,cl,I,l,95,1,2864.7999999523163,362912.7000000477,8063,WL,B,14.0
3,23.292999982833862,learn,36707.00001716614,Mon Aug 25 2025 16:58:34 GMT-0500 (Central Daylight Time),366478.0,A,c,I,backspace,691,1,3565.2999999523163,362912.7000000477,8063,WL,B,14.0
3,23.880000114440918,learn,36119.99988555908,Mon Aug 25 2025 16:58:34 GMT-0500 (Central Daylight Time),367065.7000000477,A,ci,I,i,565,1,4153.0,362912.7000000477,8063,WL,B,14.0
3,24.075999975204468,learn,35924.00002479553,Mon Aug 25 2025 16:58:34 GMT-0500 (Central Daylight Time),367261.60000014305,A,cit,I,t,177,1,4348.900000095367,362912.7000000477,8063,WL,B,14.0
3,24.193000078201294,learn,35806.999921798706,Mon Aug 25 2025 16:58:34 GMT-0500 (Central Daylight Time),367378.5,A,city,I,y,105,1,4465.799999952316,362912.7000000477,8063,WL,B,14.0
3,24.45900011062622,learn,35540.99988937378,Mon Aug 25 2025 16:58:34 GMT-0500 (Central Daylight Time),367644.10000014305,A,cityenter,I,enter,244,1,4731.400000095367,362912.7000000477,8063,WL,B,14.0
3,24.743000030517578,learn,35256.99996948242,Mon Aug 25 2025 16:58:34 GMT-0500 (Central Daylight Time),367928.60000014305,A,c,I,c,275,1,284.30000019073486,367644.2999999523,8063,WL,B,15.0
3,24.825000047683716,learn,35174.999952316284,Mon Aug 25 2025 16:58:34 GMT-0500 (Central Daylight Time),368010.7000000477,A,cl,I,l,68,1,366.40000009536743,367644.2999999523,8063,WL,B,15.0
3,25.02500009536743,learn,34974.99990463257,Mon Aug 25 2025 16:58:34 GMT-0500 (Central Daylight Time),368209.7000000477,A,clo,I,o,189,1,565.4000000953674,367644.2999999523,8063,WL,B,15.0
3,25.191999912261963,learn,34808.00008773804,Mon Aug 25 2025 16:58:34 GMT-0500 (Central Daylight Time),368376.90000009537,A,cloc,I,c,150,1,732.6000001430511,367644.2999999523,8063,WL,B,15.0
3,25.276000022888184,learn,34723.99997711182,Mon Aug 25 2025 16:58:34 GMT-0500 (Central Daylight Time),368460.7999999523,A,clock,I,k,61,1,816.5,367644.2999999523,8063,WL,B,15.0
3,25.52500009536743,learn,34474.99990463257,Mon Aug 25 2025 16:58:34 GMT-0500 (Central Daylight Time),368710.40000009537,A,clockenter,I,enter,233,1,1066.1000001430511,367644.2999999523,8063,WL,B,15.0
4,0.8190000057220459,learn,59180.999994277954,Mon Aug 25 2025 16:58:34 GMT-0500 (Central Daylight Time),433958.5,A,p,I,p,814,1,818.3999998569489,433140.10000014305,8063,WL,B,1.0
4,1.2030000686645508,learn,58796.99993133545,Mon Aug 25 2025 16:58:34 GMT-0500 (Central Daylight Time),434342.10000014305,A,po,I,o,376,1,1202.0,433140.10000014305,8063,WL,B,1.0
4,1.5339999198913574,learn,58466.00008010864,Mon Aug 25 2025 16:58:34 GMT-0500 (Central Daylight Time),434673.60000014305,A,pop,I,p,307,1,1533.5,433140.10000014305,8063,WL,B,1.0
4,1.8670001029968262,learn,58132.999897003174,Mon Aug 25 2025 16:58:34 GMT-0500 (Central Daylight Time),435006.5,A,po,I,backspace,326,1,1866.3999998569489,433140.10000014305,8063,WL,B,1.0
4,2.0169999599456787,learn,57983.00004005432,Mon Aug 25 2025 16:58:34 GMT-0500 (Central Daylight Time),435156.2000000477,A,p,I,backspace,134,1,2016.0999999046326,433140.10000014305,8063,WL,B,1.0
4,2.5850000381469727,learn,57414.99996185303,Mon Aug 25 2025 16:58:34 GMT-0500 (Central Daylight Time),435724.2000000477,A,pi,I,i,553,1,2584.0999999046326,433140.10000014305,8063,WL,B,1.0
4,2.750999927520752,learn,57249.00007247925,Mon Aug 25 2025 16:58:34 GMT-0500 (Central Daylight Time),435890.7000000477,A,pip,I,p,156,1,2750.5999999046326,433140.10000014305,8063,WL,B,1.0
4,2.934000015258789,learn,57065.99998474121,Mon Aug 25 2025 16:58:34 GMT-0500 (Central Daylight Time),436073.60000014305,A,pipe,I,e,171,1,2933.5,433140.10000014305,8063,WL,B,1.0
4,3.4839999675750732,learn,56516.00003242493,Mon Aug 25 2025 16:58:34 GMT-0500 (Central Daylight Time),436623.5,A,pipeenter,I,enter,536,1,3483.399999856949,433140.10000014305,8063,WL,B,1.0
4,3.75,learn,56250.0,Mon Aug 25 2025 16:58:34 GMT-0500 (Central Daylight Time),436889.10000014305,A,c,I,c,247,1,265.40000009536743,436623.7000000477,8063,WL,B,2.0
4,3.9000000953674316,learn,56099.99990463257,Mon Aug 25 2025 16:58:34 GMT-0500 (Central Daylight Time),437039.10000014305,A,ca,I,a,144,1,415.40000009536743,436623.7000000477,8063,WL,B,2.0
4,4.134000062942505,learn,55865.999937057495,Mon Aug 25 2025 16:58:34 GMT-0500 (Central Daylight Time),437273.0,A,cab,I,b,214,1,649.2999999523163,436623.7000000477,8063,WL,B,2.0
4,4.266999959945679,learn,55733.00004005432,Mon Aug 25 2025 16:58:34 GMT-0500 (Central Daylight Time),437406.5,A,cabi,I,i,126,1,782.7999999523163,436623.7000000477,8063,WL,B,2.0
4,4.365999937057495,learn,55634.000062942505,Mon Aug 25 2025 16:58:34 GMT-0500 (Central Daylight Time),437505.5,A,cabin,I,n,90,1,881.7999999523163,436623.7000000477,8063,WL,B,2.0
4,4.599999904632568,learn,55400.00009536743,Mon Aug 25 2025 16:58:34 GMT-0500 (Central Daylight Time),437739.40000009537,A,cabinenter,I,enter,209,1,1115.7000000476837,436623.7000000477,8063,WL,B,2.0
4,4.900000095367432,learn,55099.99990463257,Mon Aug 25 2025 16:58:34 GMT-0500 (Central Daylight Time),438039.7000000477,A,l,I,l,294,1,300.09999990463257,437739.60000014305,8063,WL,B,3.0
4,5.0329999923706055,learn,54967.000007629395,Mon Aug 25 2025 16:58:34 GMT-0500 (Central Daylight Time),438172.90000009537,A,la,I,a,112,1,433.2999999523163,437739.60000014305,8063,WL,B,3.0
4,5.681999921798706,learn,54318.000078201294,Mon Aug 25 2025 16:58:34 GMT-0500 (Central Daylight Time),438821.7999999523,A,lak,I,k,631,1,1082.1999998092651,437739.60000014305,8063,WL,B,3.0
4,5.834000110626221,learn,54165.99988937378,Mon Aug 25 2025 16:58:34 GMT-0500 (Central Daylight Time),438973.10000014305,A,lake,I,e,143,1,1233.5,437739.60000014305,8063,WL,B,3.0
4,6.233999967575073,learn,53766.00003242493,Mon Aug 25 2025 16:58:34 GMT-0500 (Central Daylight Time),439373.10000014305,A,lakeenter,I,enter,395,1,1633.5,437739.60000014305,8063,WL,B,3.0
4,6.565999984741211,learn,53434.00001525879,Mon Aug 25 2025 16:58:34 GMT-0500 (Central Daylight Time),439705.2000000477,A,f,I,f,321,1,331.90000009536743,439373.2999999523,8063,WL,B,4.0
4,6.683000087738037,learn,53316.99991226196,Mon Aug 25 2025 16:58:34 GMT-0500 (Central Daylight Time),439822.90000009537,A,fi,I,i,103,1,449.60000014305115,439373.2999999523,8063,WL,B,4.0
4,6.7820000648498535,learn,53217.99993515015,Mon Aug 25 2025 16:58:34 GMT-0500 (Central Daylight Time),439920.90000009537,A,fir,I,r,86,1,547.6000001430511,439373.2999999523,8063,WL,B,4.0
4,6.867000102996826,learn,53132.999897003174,Mon Aug 25 2025 16:58:34 GMT-0500 (Central Daylight Time),440006.0,A,fire,I,e,80,1,632.7000000476837,439373.2999999523,8063,WL,B,4.0
4,7.516999959945679,learn,52483.00004005432,Mon Aug 25 2025 16:58:34 GMT-0500 (Central Daylight Time),440656.5,A,fireenter,I,enter,631,1,1283.2000000476837,439373.2999999523,8063,WL,B,4.0
4,7.7149999141693115,learn,52285.00008583069,Mon Aug 25 2025 16:58:34 GMT-0500 (Central Daylight Time),440854.2999999523,A,c,I,c,182,1,197.5,440656.7999999523,8063,WL,B,5.0
4,7.7820000648498535,learn,52217.99993515015,Mon Aug 25 2025 16:58:34 GMT-0500 (Central Daylight Time),440921.2999999523,A,cl,I,l,49,1,264.5,440656.7999999523,8063,WL,B,5.0
4,7.983000040054321,learn,52016.99995994568,Mon Aug 25 2025 16:58:34 GMT-0500 (Central Daylight Time),441122.5,A,clo,I,o,180,1,465.7000000476837,440656.7999999523,8063,WL,B,5.0
4,8.065999984741211,learn,51934.00001525879,Mon Aug 25 2025 16:58:34 GMT-0500 (Central Daylight Time),441205.5,A,cloc,I,c,60,1,548.7000000476837,440656.7999999523,8063,WL,B,5.0
4,8.181999921798706,learn,51818.000078201294,Mon Aug 25 2025 16:58:34 GMT-0500 (Central Daylight Time),441321.10000014305,A,clock,I,k,104,1,664.3000001907349,440656.7999999523,8063,WL,B,5.0
4,8.448999881744385,learn,51551.000118255615,Mon Aug 25 2025 16:58:34 GMT-0500 (Central Daylight Time),441588.10000014305,A,clockenter,I,enter,242,1,931.3000001907349,440656.7999999523,8063,WL,B,5.0
4,8.683000087738037,learn,51316.99991226196,Mon Aug 25 2025 16:58:34 GMT-0500 (Central Daylight Time),441822.0,A,s,I,s,229,1,233.70000004768372,441588.2999999523,8063,WL,B,6.0
4,8.83299994468689,learn,51167.00005531311,Mon Aug 25 2025 16:58:34 GMT-0500 (Central Daylight Time),441972.7999999523,A,st,I,t,128,1,384.5,441588.2999999523,8063,WL,B,6.0
4,9.032999992370605,learn,50967.000007629395,Mon Aug 25 2025 16:58:34 GMT-0500 (Central Daylight Time),442172.90000009537,A,str,I,r,177,1,584.6000001430511,441588.2999999523,8063,WL,B,6.0
4,9.25,learn,50750.0,Mon Aug 25 2025 16:58:34 GMT-0500 (Central Daylight Time),442389.2000000477,A,stre,I,e,210,1,800.9000000953674,441588.2999999523,8063,WL,B,6.0
4,9.431999921798706,learn,50568.000078201294,Mon Aug 25 2025 16:58:34 GMT-0500 (Central Daylight Time),442571.60000014305,A,stree,I,e,166,1,983.3000001907349,441588.2999999523,8063,WL,B,6.0
4,9.615000009536743,learn,50384.99999046326,Mon Aug 25 2025 16:58:34 GMT-0500 (Central Daylight Time),442754.5,A,street,I,t,171,1,1166.2000000476837,441588.2999999523,8063,WL,B,6.0
4,9.848999977111816,learn,50151.00002288818,Mon Aug 25 2025 16:58:34 GMT-0500 (Central Daylight Time),442988.90000009537,A,streetenter,I,enter,230,1,1400.6000001430511,441588.2999999523,8063,WL,B,6.0
4,10.098000049591064,learn,49901.999950408936,Mon Aug 25 2025 16:58:34 GMT-0500 (Central Daylight Time),443237.40000009537,A,g,I,g,243,1,248.29999995231628,442989.10000014305,8063,WL,B,7.0
4,10.265000104904175,learn,49734.999895095825,Mon Aug 25 2025 16:58:34 GMT-0500 (Central Daylight Time),443404.2999999523,A,gr,I,r,154,1,415.19999980926514,442989.10000014305,8063,WL,B,7.0
4,10.414999961853027,learn,49585.00003814697,Mon Aug 25 2025 16:58:34 GMT-0500 (Central Daylight Time),443554.5,A,gra,I,a,130,1,565.3999998569489,442989.10000014305,8063,WL,B,7.0
4,10.697999954223633,learn,49302.00004577637,Mon Aug 25 2025 16:58:34 GMT-0500 (Central Daylight Time),443837.2999999523,A,gras,I,s,261,1,848.1999998092651,442989.10000014305,8063,WL,B,7.0
4,10.832000017166138,learn,49167.99998283386,Mon Aug 25 2025 16:58:34 GMT-0500 (Central Daylight Time),443971.10000014305,A,grass,I,s,121,1,982.0,442989.10000014305,8063,WL,B,7.0
4,11.032000064849854,learn,48967.99993515015,Mon Aug 25 2025 16:58:34 GMT-0500 (Central Daylight Time),444171.2999999523,A,grassenter,I,enter,188,1,1182.1999998092651,442989.10000014305,8063,WL,B,7.0
4,11.380000114440918,learn,48619.99988555908,Mon Aug 25 2025 16:58:34 GMT-0500 (Central Daylight Time),444519.40000009537,A,d,I,d,340,1,347.7999999523163,444171.60000014305,8063,WL,B,8.0
4,11.59500002861023,learn,48404.99997138977,Mon Aug 25 2025 16:58:34 GMT-0500 (Central Daylight Time),444734.90000009537,A,do,I,o,200,1,563.2999999523163,444171.60000014305,8063,WL,B,8.0
4,11.744999885559082,learn,48255.00011444092,Mon Aug 25 2025 16:58:34 GMT-0500 (Central Daylight Time),444884.7000000477,A,doo,I,o,137,1,713.0999999046326,444171.60000014305,8063,WL,B,8.0
4,11.84500002861023,learn,48154.99997138977,Mon Aug 25 2025 16:58:34 GMT-0500 (Central Daylight Time),444984.7999999523,A,door,I,r,83,1,813.1999998092651,444171.60000014305,8063,WL,B,8.0
4,12.246000051498413,learn,47753.99994850159,Mon Aug 25 2025 16:58:34 GMT-0500 (Central Daylight Time),445385.2000000477,A,doorenter,I,enter,383,1,1213.5999999046326,444171.60000014305,8063,WL,B,8.0
4,12.513000011444092,learn,47486.99998855591,Mon Aug 25 2025 16:58:34 GMT-0500 (Central Daylight Time),445652.0,A,a,I,a,262,1,266.59999990463257,445385.40000009537,8063,WL,B,9.0
4,12.730999946594238,learn,47269.00005340576,Mon Aug 25 2025 16:58:34 GMT-0500 (Central Daylight Time),445870.40000009537,A,ar,I,r,215,1,485.0,445385.40000009537,8063,WL,B,9.0
4,12.864000082015991,learn,47135.99991798401,Mon Aug 25 2025 16:58:34 GMT-0500 (Central Daylight Time),446003.10000014305,A,arm,I,m,120,1,617.7000000476837,445385.40000009537,8063,WL,B,9.0
4,13.346999883651733,learn,46653.00011634827,Mon Aug 25 2025 16:58:34 GMT-0500 (Central Daylight Time),446486.7000000477,A,armenter,I,enter,463,1,1101.2999999523163,445385.40000009537,8063,WL,B,9.0
4,13.930999994277954,learn,46069.000005722046,Mon Aug 25 2025 16:58:34 GMT-0500 (Central Daylight Time),447070.60000014305,A,w,I,w,561,1,583.6000001430511,446487.0,8063,WL,B,10.0
4,14.02999997138977,learn,45970.00002861023,Mon Aug 25 2025 16:58:34 GMT-0500 (Central Daylight Time),447169.40000009537,A,wi,I,i,90,1,682.4000000953674,446487.0,8063,WL,B,10.0
4,14.180999994277954,learn,45819.000005722046,Mon Aug 25 2025 16:58:34 GMT-0500 (Central Daylight Time),447320.0,A,wif,I,f,132,1,833.0,446487.0,8063,WL,B,10.0
4,14.348999977111816,learn,45651.00002288818,Mon Aug 25 2025 16:58:34 GMT-0500 (Central Daylight Time),447488.2999999523,A,wife,I,e,161,1,1001.2999999523163,446487.0,8063,WL,B,10.0
4,14.52999997138977,learn,45470.00002861023,Mon Aug 25 2025 16:58:34 GMT-0500 (Central Daylight Time),447669.40000009537,A,wifeenter,I,enter,167,1,1182.4000000953674,446487.0,8063,WL,B,10.0
4,14.696000099182129,learn,45303.99990081787,Mon Aug 25 2025 16:58:34 GMT-0500 (Central Daylight Time),447835.40000009537,A,s,I,s,145,1,165.70000004768372,447669.7000000477,8063,WL,B,11.0
4,14.828999996185303,learn,45171.0000038147,Mon Aug 25 2025 16:58:34 GMT-0500 (Central Daylight Time),447968.40000009537,A,st,I,t,125,1,298.7000000476837,447669.7000000477,8063,WL,B,11.0
4,14.947999954223633,learn,45052.00004577637,Mon Aug 25 2025 16:58:34 GMT-0500 (Central Daylight Time),448086.90000009537,A,sta,I,a,114,1,417.2000000476837,447669.7000000477,8063,WL,B,11.0
4,15.164000034332275,learn,44835.999965667725,Mon Aug 25 2025 16:58:34 GMT-0500 (Central Daylight Time),448303.2000000477,A,star,I,r,199,1,633.5,447669.7000000477,8063,WL,B,11.0
4,15.680999994277954,learn,44319.000005722046,Mon Aug 25 2025 16:58:34 GMT-0500 (Central Daylight Time),448820.2999999523,A,starenter,I,enter,511,1,1150.5999999046326,447669.7000000477,8063,WL,B,11.0
4,16.628999948501587,learn,43371.00005149841,Mon Aug 25 2025 16:58:34 GMT-0500 (Central Daylight Time),449768.5,A,c,I,c,931,1,948.0,448820.5,8063,WL,B,12.0
4,16.730000019073486,learn,43269.999980926514,Mon Aug 25 2025 16:58:34 GMT-0500 (Central Daylight Time),449869.2000000477,A,ci,I,i,95,1,1048.7000000476837,448820.5,8063,WL,B,12.0
4,16.861999988555908,learn,43138.00001144409,Mon Aug 25 2025 16:58:34 GMT-0500 (Central Daylight Time),450001.5,A,cit,I,t,111,1,1181.0,448820.5,8063,WL,B,12.0
4,16.944999933242798,learn,43055.0000667572,Mon Aug 25 2025 16:58:34 GMT-0500 (Central Daylight Time),450084.10000014305,A,city,I,y,79,1,1263.6000001430511,448820.5,8063,WL,B,12.0
4,18.292999982833862,learn,41707.00001716614,Mon Aug 25 2025 16:58:34 GMT-0500 (Central Daylight Time),451432.7999999523,A,cityenter,I,enter,1332,1,2612.2999999523163,448820.5,8063,WL,B,12.0
4,18.509999990463257,learn,41490.00000953674,Mon Aug 25 2025 16:58:34 GMT-0500 (Central Daylight Time),451649.10000014305,A,c,I,c,205,1,216.10000014305115,451433.0,8063,WL,B,13.0
4,18.66100001335144,learn,41338.99998664856,Mon Aug 25 2025 16:58:34 GMT-0500 (Central Daylight Time),451800.2999999523,A,ca,I,a,136,1,367.2999999523163,451433.0,8063,WL,B,13.0
4,18.927000045776367,learn,41072.99995422363,Mon Aug 25 2025 16:58:34 GMT-0500 (Central Daylight Time),452066.0,A,cab,I,b,247,1,633.0,451433.0,8063,WL,B,13.0
4,19.128999948501587,learn,40871.00005149841,Mon Aug 25 2025 16:58:34 GMT-0500 (Central Daylight Time),452268.7000000477,A,cabi,I,i,181,1,835.7000000476837,451433.0,8063,WL,B,13.0
4,19.328999996185303,learn,40671.0000038147,Mon Aug 25 2025 16:58:34 GMT-0500 (Central Daylight Time),452468.2000000477,A,cabin,I,n,179,1,1035.2000000476837,451433.0,8063,WL,B,13.0
4,19.543999910354614,learn,40456.000089645386,Mon Aug 25 2025 16:58:34 GMT-0500 (Central Daylight Time),452683.0,A,cabinenter,I,enter,201,1,1250.0,451433.0,8063,WL,B,13.0
4,19.812000036239624,learn,40187.999963760376,Mon Aug 25 2025 16:58:34 GMT-0500 (Central Daylight Time),452951.10000014305,A,l,I,l,259,1,267.80000019073486,452683.2999999523,8063,WL,B,14.0
4,19.911999940872192,learn,40088.00005912781,Mon Aug 25 2025 16:58:34 GMT-0500 (Central Daylight Time),453051.5,A,la,I,a,87,1,368.2000000476837,452683.2999999523,8063,WL,B,14.0
4,20.295000076293945,learn,39704.999923706055,Mon Aug 25 2025 16:58:34 GMT-0500 (Central Daylight Time),453434.2000000477,A,lak,I,k,372,1,750.9000000953674,452683.2999999523,8063,WL,B,14.0
4,20.443000078201294,learn,39556.999921798706,Mon Aug 25 2025 16:58:34 GMT-0500 (Central Daylight Time),453582.0,A,lake,I,e,140,1,898.7000000476837,452683.2999999523,8063,WL,B,14.0
4,20.944999933242798,learn,39055.0000667572,Mon Aug 25 2025 16:58:34 GMT-0500 (Central Daylight Time),454084.7999999523,A,lakeenter,I,enter,499,1,1401.5,452683.2999999523,8063,WL,B,14.0
4,25.07699990272522,learn,34923.00009727478,Mon Aug 25 2025 16:58:34 GMT-0500 (Central Daylight Time),458216.40000009537,A,w,I,w,4127,1,4131.400000095367,454085.0,8063,WL,B,15.0
4,25.14299988746643,learn,34857.00011253357,Mon Aug 25 2025 16:58:34 GMT-0500 (Central Daylight Time),458282.40000009537,A,wi,I,i,53,1,4197.400000095367,454085.0,8063,WL,B,15.0
4,25.210000038146973,learn,34789.99996185303,Mon Aug 25 2025 16:58:34 GMT-0500 (Central Daylight Time),458349.2999999523,A,win,I,n,43,1,4264.299999952316,454085.0,8063,WL,B,15.0
4,25.359999895095825,learn,34640.000104904175,Mon Aug 25 2025 16:58:34 GMT-0500 (Central Daylight Time),458499.7999999523,A,wind,I,d,128,1,4414.799999952316,454085.0,8063,WL,B,15.0
4,25.443000078201294,learn,34556.999921798706,Mon Aug 25 2025 16:58:34 GMT-0500 (Central Daylight Time),458582.90000009537,A,windo,I,o,77,1,4497.900000095367,454085.0,8063,WL,B,15.0
4,25.55900001525879,learn,34440.99998474121,Mon Aug 25 2025 16:58:34 GMT-0500 (Central Daylight Time),458698.7999999523,A,window,I,w,101,1,4613.799999952316,454085.0,8063,WL,B,15.0
4,25.842999935150146,learn,34157.00006484985,Mon Aug 25 2025 16:58:34 GMT-0500 (Central Daylight Time),458982.7999999523,A,windowenter,I,enter,263,1,4897.799999952316,454085.0,8063,WL,B,15.0
5,1.065999984741211,learn,60000.0,Mon Aug 25 2025 16:58:34 GMT-0500 (Central Daylight Time),525944.100000143,A,p,I,p,1057,1,1066.1000001430511,524878.0,8063,WL,B,1.0
5,1.4160001277923584,learn,60000.0,Mon Aug 25 2025 16:58:34 GMT-0500 (Central Daylight Time),526293.2999999523,A,pi,I,i,332,1,1415.2999999523163,524878.0,8063,WL,B,1.0
5,1.6490001678466797,learn,60000.0,Mon Aug 25 2025 16:58:34 GMT-0500 (Central Daylight Time),526527.100000143,A,pip,I,p,227,1,1649.1000001430511,524878.0,8063,WL,B,1.0
5,1.934000015258789,learn,60000.0,Mon Aug 25 2025 16:58:34 GMT-0500 (Central Daylight Time),526812.0,A,pipe,I,e,273,1,1934.0,524878.0,8063,WL,B,1.0
5,2.450000047683716,learn,60000.0,Mon Aug 25 2025 16:58:34 GMT-0500 (Central Daylight Time),527327.2000000477,A,pipeenter,I,enter,498,1,2449.2000000476837,524878.0,8063,WL,B,1.0
5,3.1660001277923584,learn,60000.0,Mon Aug 25 2025 16:58:34 GMT-0500 (Central Daylight Time),528044.100000143,A,s,I,s,704,1,716.7000000476837,527327.4000000954,8063,WL,B,2.0
5,3.449000120162964,learn,60000.0,Mon Aug 25 2025 16:58:34 GMT-0500 (Central Daylight Time),528326.5,A,sk,I,k,262,1,999.0999999046326,527327.4000000954,8063,WL,B,2.0
5,3.6660001277923584,learn,60000.0,Mon Aug 25 2025 16:58:34 GMT-0500 (Central Daylight Time),528544.0,A,ski,I,i,207,1,1216.5999999046326,527327.4000000954,8063,WL,B,2.0
5,3.8000001907348633,learn,60000.0,Mon Aug 25 2025 16:58:34 GMT-0500 (Central Daylight Time),528677.2999999523,A,skin,I,n,111,1,1349.8999998569489,527327.4000000954,8063,WL,B,2.0
5,4.246999979019165,learn,60000.0,Mon Aug 25 2025 16:58:34 GMT-0500 (Central Daylight Time),529124.7999999523,A,skinenter,I,enter,440,1,1797.3999998569489,527327.4000000954,8063,WL,B,2.0
5,4.549000024795532,learn,60000.0,Mon Aug 25 2025 16:58:34 GMT-0500 (Central Daylight Time),529426.7999999523,A,f,I,f,282,1,301.69999980926514,529125.100000143,8063,WL,B,3.0
5,4.9150002002716064,learn,60000.0,Mon Aug 25 2025 16:58:34 GMT-0500 (Central Daylight Time),529792.600000143,A,fi,I,i,347,1,667.5,529125.100000143,8063,WL,B,3.0
5,5.16700005531311,learn,60000.0,Mon Aug 25 2025 16:58:34 GMT-0500 (Central Daylight Time),530044.5,A,fir,I,r,230,1,919.3999998569489,529125.100000143,8063,WL,B,3.0
5,5.2820000648498535,learn,60000.0,Mon Aug 25 2025 16:58:34 GMT-0500 (Central Daylight Time),530159.4000000954,A,fire,I,e,90,1,1034.2999999523163,529125.100000143,8063,WL,B,3.0
5,5.815000057220459,learn,60000.0,Mon Aug 25 2025 16:58:34 GMT-0500 (Central Daylight Time),530692.600000143,A,fireenter,I,enter,512,1,1567.5,529125.100000143,8063,WL,B,3.0
5,6.065999984741211,learn,60000.0,Mon Aug 25 2025 16:58:34 GMT-0500 (Central Daylight Time),530943.2000000477,A,c,I,c,230,1,250.29999995231628,530692.9000000954,8063,WL,B,4.0
5,6.113000154495239,learn,60000.0,Mon Aug 25 2025 16:58:34 GMT-0500 (Central Daylight Time),530990.9000000954,A,cl,I,l,38,1,298.0,530692.9000000954,8063,WL,B,4.0
5,6.331000089645386,learn,60000.0,Mon Aug 25 2025 16:58:34 GMT-0500 (Central Daylight Time),531208.9000000954,A,clo,I,o,199,1,516.0,530692.9000000954,8063,WL,B,4.0
5,6.450000047683716,learn,60000.0,Mon Aug 25 2025 16:58:34 GMT-0500 (Central Daylight Time),531327.4000000954,A,cloc,I,c,110,1,634.5,530692.9000000954,8063,WL,B,4.0
5,6.565000057220459,learn,60000.0,Mon Aug 25 2025 16:58:34 GMT-0500 (Central Daylight Time),531442.4000000954,A,clock,I,k,101,1,749.5,530692.9000000954,8063,WL,B,4.0
5,6.865000009536743,learn,60000.0,Mon Aug 25 2025 16:58:34 GMT-0500 (Central Daylight Time),531742.100000143,A,clockenter,I,enter,277,1,1049.2000000476837,530692.9000000954,8063,WL,B,4.0
5,7.115000009536743,learn,60000.0,Mon Aug 25 2025 16:58:34 GMT-0500 (Central Daylight Time),531992.2999999523,A,c,I,c,234,1,249.89999985694885,531742.4000000954,8063,WL,B,5.0
5,7.215000152587891,learn,60000.0,Mon Aug 25 2025 16:58:34 GMT-0500 (Central Daylight Time),532092.2000000477,A,ci,I,i,85,1,349.7999999523163,531742.4000000954,8063,WL,B,5.0
5,7.3480000495910645,learn,60000.0,Mon Aug 25 2025 16:58:34 GMT-0500 (Central Daylight Time),532226.0,A,cit,I,t,113,1,483.59999990463257,531742.4000000954,8063,WL,B,5.0
5,7.465000152587891,learn,60000.0,Mon Aug 25 2025 16:58:34 GMT-0500 (Central Daylight Time),532342.7000000477,A,city,I,y,95,1,600.2999999523163,531742.4000000954,8063,WL,B,5.0
5,7.7829999923706055,learn,60000.0,Mon Aug 25 2025 16:58:34 GMT-0500 (Central Daylight Time),532660.7000000477,A,cityenter,I,enter,313,1,918.2999999523163,531742.4000000954,8063,WL,B,5.0
5,8.015000104904175,learn,60000.0,Mon Aug 25 2025 16:58:34 GMT-0500 (Central Daylight Time),532892.2000000477,A,c,I,c,219,1,231.20000004768372,532661.0,8063,WL,B,6.0
5,8.148000001907349,learn,60000.0,Mon Aug 25 2025 16:58:34 GMT-0500 (Central Daylight Time),533025.2999999523,A,ca,I,a,113,1,364.2999999523163,532661.0,8063,WL,B,6.0
5,8.332000017166138,learn,60000.0,Mon Aug 25 2025 16:58:34 GMT-0500 (Central Daylight Time),533209.7000000477,A,cab,I,b,165,1,548.7000000476837,532661.0,8063,WL,B,6.0
5,8.448000192642212,learn,60000.0,Mon Aug 25 2025 16:58:34 GMT-0500 (Central Daylight Time),533326.0,A,cabi,I,i,109,1,665.0,532661.0,8063,WL,B,6.0
5,8.514000177383423,learn,60000.0,Mon Aug 25 2025 16:58:34 GMT-0500 (Central Daylight Time),533391.2000000477,A,cabin,I,n,55,1,730.2000000476837,532661.0,8063,WL,B,6.0
5,8.781000137329102,learn,60000.0,Mon Aug 25 2025 16:58:34 GMT-0500 (Central Daylight Time),533658.5,A,cabinenter,I,enter,255,1,997.5,532661.0,8063,WL,B,6.0
5,9.049000024795532,learn,60000.0,Mon Aug 25 2025 16:58:34 GMT-0500 (Central Daylight Time),533926.7999999523,A,l,I,l,263,1,268.09999990463257,533658.7000000477,8063,WL,B,7.0
5,9.164000034332275,learn,60000.0,Mon Aug 25 2025 16:58:34 GMT-0500 (Central Daylight Time),534041.5,A,la,I,a,103,1,382.7999999523163,533658.7000000477,8063,WL,B,7.0
5,9.496999979019165,learn,60000.0,Mon Aug 25 2025 16:58:34 GMT-0500 (Central Daylight Time),534374.9000000954,A,lak,I,k,315,1,716.2000000476837,533658.7000000477,8063,WL,B,7.0
5,9.648000001907349,learn,60000.0,Mon Aug 25 2025 16:58:34 GMT-0500 (Central Daylight Time),534526.0,A,lake,I,e,135,1,867.2999999523163,533658.7000000477,8063,WL,B,7.0
5,10.19700002670288,learn,60000.0,Mon Aug 25 2025 16:58:34 GMT-0500 (Central Daylight Time),535075.0,A,lakeenter,I,enter,536,1,1416.2999999523163,533658.7000000477,8063,WL,B,7.0
5,10.597000122070312,learn,60000.0,Mon Aug 25 2025 16:58:34 GMT-0500 (Central Daylight Time),535474.7000000477,A,s,I,s,381,1,399.59999990463257,535075.100000143,8063,WL,B,8.0
5,10.731000185012817,learn,60000.0,Mon Aug 25 2025 16:58:34 GMT-0500 (Central Daylight Time),535608.2999999523,A,st,I,t,116,1,533.1999998092651,535075.100000143,8063,WL,B,8.0
5,10.930999994277954,learn,60000.0,Mon Aug 25 2025 16:58:34 GMT-0500 (Central Daylight Time),535808.100000143,A,str,I,r,180,1,733.0,535075.100000143,8063,WL,B,8.0
5,11.11300015449524,learn,60000.0,Mon Aug 25 2025 16:58:34 GMT-0500 (Central Daylight Time),535990.9000000954,A,stre,I,e,173,1,915.7999999523163,535075.100000143,8063,WL,B,8.0
5,11.263000011444092,learn,60000.0,Mon Aug 25 2025 16:58:34 GMT-0500 (Central Daylight Time),536141.100000143,A,stree,I,e,133,1,1066.0,535075.100000143,8063,WL,B,8.0
5,11.397000074386597,learn,60000.0,Mon Aug 25 2025 16:58:34 GMT-0500 (Central Daylight Time),536274.4000000954,A,street,I,t,121,1,1199.2999999523163,535075.100000143,8063,WL,B,8.0
5,11.647000074386597,learn,60000.0,Mon Aug 25 2025 16:58:34 GMT-0500 (Central Daylight Time),536524.2999999523,A,streetenter,I,enter,244,1,1449.1999998092651,535075.100000143,8063,WL,B,8.0
5,11.828999996185303,learn,60000.0,Mon Aug 25 2025 16:58:34 GMT-0500 (Central Daylight Time),536707.0,A,g,I,g,162,1,182.39999985694885,536524.600000143,8063,WL,B,9.0
5,11.996999979019165,learn,60000.0,Mon Aug 25 2025 16:58:34 GMT-0500 (Central Daylight Time),536875.0,A,gr,I,r,156,1,350.39999985694885,536524.600000143,8063,WL,B,9.0
5,12.165000200271606,learn,60000.0,Mon Aug 25 2025 16:58:34 GMT-0500 (Central Daylight Time),537042.4000000954,A,gra,I,a,156,1,517.7999999523163,536524.600000143,8063,WL,B,9.0
5,12.430000066757202,learn,60000.0,Mon Aug 25 2025 16:58:34 GMT-0500 (Central Daylight Time),537308.0,A,gras,I,s,244,1,783.3999998569489,536524.600000143,8063,WL,B,9.0
5,12.563000202178955,learn,60000.0,Mon Aug 25 2025 16:58:34 GMT-0500 (Central Daylight Time),537441.0,A,grass,I,s,121,1,916.3999998569489,536524.600000143,8063,WL,B,9.0
5,12.96399998664856,learn,60000.0,Mon Aug 25 2025 16:58:34 GMT-0500 (Central Daylight Time),537841.100000143,A,grassenter,I,enter,389,1,1316.5,536524.600000143,8063,WL,B,9.0
5,13.246999979019165,learn,60000.0,Mon Aug 25 2025 16:58:34 GMT-0500 (Central Daylight Time),538124.7000000477,A,d,I,d,278,1,283.2999999523163,537841.4000000954,8063,WL,B,10.0
5,13.378000020980835,learn,60000.0,Mon Aug 25 2025 16:58:34 GMT-0500 (Central Daylight Time),538256.0,A,do,I,o,117,1,414.59999990463257,537841.4000000954,8063,WL,B,10.0
5,13.545000076293945,learn,60000.0,Mon Aug 25 2025 16:58:34 GMT-0500 (Central Daylight Time),538423.0,A,doo,I,o,147,1,581.5999999046326,537841.4000000954,8063,WL,B,10.0
5,13.663000106811523,learn,60000.0,Mon Aug 25 2025 16:58:34 GMT-0500 (Central Daylight Time),538540.4000000954,A,door,I,r,94,1,699.0,537841.4000000954,8063,WL,B,10.0
5,13.912000179290771,learn,60000.0,Mon Aug 25 2025 16:58:34 GMT-0500 (Central Daylight Time),538789.7999999523,A,doorenter,I,enter,231,1,948.3999998569489,537841.4000000954,8063,WL,B,10.0
5,14.17900013923645,learn,60000.0,Mon Aug 25 2025 16:58:34 GMT-0500 (Central Daylight Time),539056.4000000954,A,a,I,a,249,1,266.40000009536743,538790.0,8063,WL,B,11.0
5,14.32800006866455,learn,60000.0,Mon Aug 25 2025 16:58:34 GMT-0500 (Central Daylight Time),539205.5,A,ar,I,r,132,1,415.5,538790.0,8063,WL,B,11.0
5,14.479000091552734,learn,60000.0,Mon Aug 25 2025 16:58:34 GMT-0500 (Central Daylight Time),539357.100000143,A,arm,I,m,138,1,567.1000001430511,538790.0,8063,WL,B,11.0
5,14.761000156402588,learn,60000.0,Mon Aug 25 2025 16:58:34 GMT-0500 (Central Daylight Time),539639.0,A,armenter,I,enter,267,1,849.0,538790.0,8063,WL,B,11.0
5,15.078999996185303,learn,60000.0,Mon Aug 25 2025 16:58:34 GMT-0500 (Central Daylight Time),539957.2000000477,A,w,I,w,313,1,318.0,539639.2000000477,8063,WL,B,12.0
5,15.195000171661377,learn,60000.0,Mon Aug 25 2025 16:58:34 GMT-0500 (Central Daylight Time),540072.7000000477,A,wi,I,i,103,1,433.5,539639.2000000477,8063,WL,B,12.0
5,15.34500002861023,learn,60000.0,Mon Aug 25 2025 16:58:34 GMT-0500 (Central Daylight Time),540223.0,A,wif,I,f,144,1,583.7999999523163,539639.2000000477,8063,WL,B,12.0
5,15.545000076293945,learn,60000.0,Mon Aug 25 2025 16:58:34 GMT-0500 (Central Daylight Time),540423.2000000477,A,wife,I,e,178,1,784.0,539639.2000000477,8063,WL,B,12.0
5,15.879000186920166,learn,60000.0,Mon Aug 25 2025 16:58:34 GMT-0500 (Central Daylight Time),540757.2000000477,A,wifeenter,I,enter,327,1,1118.0,539639.2000000477,8063,WL,B,12.0
5,16.26200008392334,learn,60000.0,Mon Aug 25 2025 16:58:34 GMT-0500 (Central Daylight Time),541140.0,A,w,I,w,371,1,382.5,540757.5,8063,WL,B,13.0
5,16.41000008583069,learn,60000.0,Mon Aug 25 2025 16:58:34 GMT-0500 (Central Daylight Time),541287.7999999523,A,wi,I,i,129,1,530.2999999523163,540757.5,8063,WL,B,13.0
5,16.761000156402588,learn,60000.0,Mon Aug 25 2025 16:58:34 GMT-0500 (Central Daylight Time),541639.0,A,win,I,n,337,1,881.5,540757.5,8063,WL,B,13.0
5,16.979000091552734,learn,60000.0,Mon Aug 25 2025 16:58:34 GMT-0500 (Central Daylight Time),541856.5,A,wind,I,d,199,1,1099.0,540757.5,8063,WL,B,13.0
5,17.09500002861023,learn,60000.0,Mon Aug 25 2025 16:58:34 GMT-0500 (Central Daylight Time),541972.9000000954,A,windo,I,o,100,1,1215.4000000953674,540757.5,8063,WL,B,13.0
5,17.22699999809265,learn,60000.0,Mon Aug 25 2025 16:58:34 GMT-0500 (Central Daylight Time),542105.100000143,A,window,I,w,111,1,1347.6000001430511,540757.5,8063,WL,B,13.0
5,17.4760000705719,learn,60000.0,Mon Aug 25 2025 16:58:34 GMT-0500 (Central Daylight Time),542354.2999999523,A,windowenter,I,enter,237,1,1596.7999999523163,540757.5,8063,WL,B,13.0
5,17.710999965667725,learn,60000.0,Mon Aug 25 2025 16:58:34 GMT-0500 (Central Daylight Time),542589.0,A,c,I,c,230,1,234.59999990463257,542354.4000000954,8063,WL,B,14.0
5,17.79700016975403,learn,60000.0,Mon Aug 25 2025 16:58:34 GMT-0500 (Central Daylight Time),542674.5,A,cl,I,l,74,1,320.09999990463257,542354.4000000954,8063,WL,B,14.0
5,17.99400019645691,learn,60000.0,Mon Aug 25 2025 16:58:34 GMT-0500 (Central Daylight Time),542872.2999999523,A,clo,I,o,188,1,517.8999998569489,542354.4000000954,8063,WL,B,14.0
5,18.11300015449524,learn,60000.0,Mon Aug 25 2025 16:58:34 GMT-0500 (Central Daylight Time),542990.4000000954,A,cloc,I,c,112,1,636.0,542354.4000000954,8063,WL,B,14.0
5,18.2260000705719,learn,60000.0,Mon Aug 25 2025 16:58:34 GMT-0500 (Central Daylight Time),543104.2000000477,A,clock,I,k,103,1,749.7999999523163,542354.4000000954,8063,WL,B,14.0
5,19.0770001411438,learn,60000.0,Mon Aug 25 2025 16:58:34 GMT-0500 (Central Daylight Time),543954.7000000477,A,clockenter,I,enter,830,1,1600.2999999523163,542354.4000000954,8063,WL,B,14.0
5,19.627000093460083,learn,60000.0,Mon Aug 25 2025 16:58:34 GMT-0500 (Central Daylight Time),544505.2999999523,A,s,I,s,542,1,550.2999999523163,543955.0,8063,WL,B,15.0
5,19.777000188827515,learn,60000.0,Mon Aug 25 2025 16:58:34 GMT-0500 (Central Daylight Time),544655.2000000477,A,sk,I,k,133,1,700.2000000476837,543955.0,8063,WL,B,15.0
5,20.009999990463257,learn,60000.0,Mon Aug 25 2025 16:58:34 GMT-0500 (Central Daylight Time),544887.4000000954,A,ski,I,i,213,1,932.4000000953674,543955.0,8063,WL,B,15.0
5,20.075999975204468,learn,60000.0,Mon Aug 25 2025 16:58:34 GMT-0500 (Central Daylight Time),544954.100000143,A,skin,I,n,46,1,999.1000001430511,543955.0,8063,WL,B,15.0
5,20.927000045776367,learn,60000.0,Mon Aug 25 2025 16:58:34 GMT-0500 (Central Daylight Time),545804.7000000477,A,skinenter,I,enter,845,1,1849.7000000476837,543955.0,8063,WL,B,15.0
6,0.8020000457763672,distr,59197.99995422363,Mon Aug 25 2025 16:58:34 GMT-0500 (Central Daylight Time),613834.600000143,B,b,I,b,782,1,801.5,613033.100000143,8063,WL,B,1.0
6,0.9660000801086426,distr,59033.99991989136,Mon Aug 25 2025 16:58:34 GMT-0500 (Central Daylight Time),613999.4000000954,B,ba,I,a,147,1,966.2999999523163,613033.100000143,8063,WL,B,1.0
6,1.1520001888275146,distr,58847.999811172485,Mon Aug 25 2025 16:58:34 GMT-0500 (Central Daylight Time),614185.0,B,bab,I,b,167,1,1151.8999998569489,613033.100000143,8063,WL,B,1.0
6,1.8480000495910645,distr,58151.999950408936,Mon Aug 25 2025 16:58:34 GMT-0500 (Central Daylight Time),614881.2000000477,B,baby,I,y,683,1,1848.0999999046326,613033.100000143,8063,WL,B,1.0
6,2.200000047683716,distr,57799.999952316284,Mon Aug 25 2025 16:58:34 GMT-0500 (Central Daylight Time),615233.0,B,babyenter,I,enter,340,1,2199.899999856949,613033.100000143,8063,WL,B,1.0
6,2.7980000972747803,distr,57201.99990272522,Mon Aug 25 2025 16:58:34 GMT-0500 (Central Daylight Time),615831.4000000954,B,o,I,o,582,1,598.2000000476837,615233.2000000477,8063,WL,B,2.0
6,2.93500018119812,distr,57064.99981880188,Mon Aug 25 2025 16:58:34 GMT-0500 (Central Daylight Time),615967.7999999523,B,oc,I,c,126,1,734.5999999046326,615233.2000000477,8063,WL,B,2.0
6,3.1490001678466797,distr,56850.99983215332,Mon Aug 25 2025 16:58:34 GMT-0500 (Central Daylight Time),616181.7999999523,B,oce,I,e,199,1,948.5999999046326,615233.2000000477,8063,WL,B,2.0
6,3.564000129699707,distr,56435.99987030029,Mon Aug 25 2025 16:58:34 GMT-0500 (Central Daylight Time),616597.2999999523,B,ocea,I,a,407,1,1364.0999999046326,615233.2000000477,8063,WL,B,2.0
6,3.7330000400543213,distr,56266.99995994568,Mon Aug 25 2025 16:58:34 GMT-0500 (Central Daylight Time),616765.7000000477,B,ocean,I,n,150,1,1532.5,615233.2000000477,8063,WL,B,2.0
6,4.0980000495910645,distr,55901.999950408936,Mon Aug 25 2025 16:58:34 GMT-0500 (Central Daylight Time),617131.4000000954,B,oceanenter,I,enter,351,1,1898.2000000476837,615233.2000000477,8063,WL,B,2.0
6,5.365000009536743,distr,54634.99999046326,Mon Aug 25 2025 16:58:34 GMT-0500 (Central Daylight Time),618397.7999999523,B,v,I,v,1246,1,1266.1999998092651,617131.600000143,8063,WL,B,3.0
6,5.5980000495910645,distr,54401.999950408936,Mon Aug 25 2025 16:58:34 GMT-0500 (Central Daylight Time),618631.100000143,B,vi,I,i,223,1,1499.5,617131.600000143,8063,WL,B,3.0
6,5.8470001220703125,distr,54152.99987792969,Mon Aug 25 2025 16:58:34 GMT-0500 (Central Daylight Time),618880.2000000477,B,vil,I,l,239,1,1748.5999999046326,617131.600000143,8063,WL,B,3.0
6,6.014000177383423,distr,53985.99982261658,Mon Aug 25 2025 16:58:34 GMT-0500 (Central Daylight Time),619047.0,B,vill,I,l,147,1,1915.3999998569489,617131.600000143,8063,WL,B,3.0
6,6.0990002155303955,distr,53900.999784469604,Mon Aug 25 2025 16:58:34 GMT-0500 (Central Daylight Time),619132.4000000954,B,villa,I,a,61,1,2000.7999999523163,617131.600000143,8063,WL,B,3.0
6,6.247000217437744,distr,53752.999782562256,Mon Aug 25 2025 16:58:34 GMT-0500 (Central Daylight Time),619280.4000000954,B,villag,I,g,127,1,2148.7999999523163,617131.600000143,8063,WL,B,3.0
6,6.432000160217285,distr,53567.999839782715,Mon Aug 25 2025 16:58:34 GMT-0500 (Central Daylight Time),619464.5,B,village,I,e,170,1,2332.899999856949,617131.600000143,8063,WL,B,3.0
6,6.864000082015991,distr,53135.99991798401,Mon Aug 25 2025 16:58:34 GMT-0500 (Central Daylight Time),619897.2999999523,B,villageenter,I,enter,420,1,2765.699999809265,617131.600000143,8063,WL,B,3.0
6,7.366000175476074,distr,52633.999824523926,Mon Aug 25 2025 16:58:34 GMT-0500 (Central Daylight Time),620398.9000000954,B,a,I,a,487,1,501.40000009536743,619897.5,8063,WL,B,4.0
6,7.483000040054321,distr,52516.99995994568,Mon Aug 25 2025 16:58:34 GMT-0500 (Central Daylight Time),620515.9000000954,B,ar,I,r,101,1,618.4000000953674,619897.5,8063,WL,B,4.0
6,7.680000066757202,distr,52319.9999332428,Mon Aug 25 2025 16:58:34 GMT-0500 (Central Daylight Time),620713.2999999523,B,arm,I,m,178,1,815.7999999523163,619897.5,8063,WL,B,4.0
6,8.013000011444092,distr,51986.99998855591,Mon Aug 25 2025 16:58:34 GMT-0500 (Central Daylight Time),621046.2999999523,B,army,I,y,323,1,1148.7999999523163,619897.5,8063,WL,B,4.0
6,9.164000034332275,distr,50835.999965667725,Mon Aug 25 2025 16:58:34 GMT-0500 (Central Daylight Time),622196.9000000954,B,armyenter,I,enter,1141,1,2299.4000000953674,619897.5,8063,WL,B,4.0
6,10.78000020980835,distr,49219.99979019165,Mon Aug 25 2025 16:58:34 GMT-0500 (Central Daylight Time),623813.100000143,B,l,I,l,1602,1,1615.9000000953674,622197.2000000477,8063,WL,B,5.0
6,10.963000059127808,distr,49036.99994087219,Mon Aug 25 2025 16:58:34 GMT-0500 (Central Daylight Time),623995.7999999523,B,li,I,i,169,1,1798.5999999046326,622197.2000000477,8063,WL,B,5.0
6,11.130000114440918,distr,48869.99988555908,Mon Aug 25 2025 16:58:34 GMT-0500 (Central Daylight Time),624163.4000000954,B,lip,I,p,156,1,1966.2000000476837,622197.2000000477,8063,WL,B,5.0
6,11.779000043869019,distr,48220.99995613098,Mon Aug 25 2025 16:58:34 GMT-0500 (Central Daylight Time),624812.2000000477,B,lipenter,I,enter,634,1,2615.0,622197.2000000477,8063,WL,B,5.0
6,18.627000093460083,distr,41372.99990653992,Mon Aug 25 2025 16:58:34 GMT-0500 (Central Daylight Time),631659.9000000954,B,v,I,v,6836,1,6847.5,624812.4000000954,8063,WL,B,6.0
6,18.728000164031982,distr,41271.99983596802,Mon Aug 25 2025 16:58:34 GMT-0500 (Central Daylight Time),631760.600000143,B,vi,I,i,82,1,6948.200000047684,624812.4000000954,8063,WL,B,6.0
6,18.927000045776367,distr,41072.99995422363,Mon Aug 25 2025 16:58:34 GMT-0500 (Central Daylight Time),631960.0,B,vil,I,l,187,1,7147.599999904633,624812.4000000954,8063,WL,B,6.0
6,19.094000101089478,distr,40905.99989891052,Mon Aug 25 2025 16:58:34 GMT-0500 (Central Daylight Time),632127.2000000477,B,vill,I,l,152,1,7314.799999952316,624812.4000000954,8063,WL,B,6.0
6,19.10800004005432,distr,40891.99995994568,Mon Aug 25 2025 16:58:34 GMT-0500 (Central Daylight Time),632141.4000000954,B,villa,I,a,1,1,7329.0,624812.4000000954,8063,WL,B,6.0
6,19.277000188827515,distr,40722.999811172485,Mon Aug 25 2025 16:58:34 GMT-0500 (Central Daylight Time),632310.100000143,B,villag,I,g,155,1,7497.700000047684,624812.4000000954,8063,WL,B,6.0
6,19.460000038146973,distr,40539.99996185303,Mon Aug 25 2025 16:58:34 GMT-0500 (Central Daylight Time),632493.2999999523,B,village,I,e,161,1,7680.899999856949,624812.4000000954,8063,WL,B,6.0
6,19.927000045776367,distr,40072.99995422363,Mon Aug 25 2025 16:58:34 GMT-0500 (Central Daylight Time),632959.5,B,villageenter,I,enter,449,1,8147.099999904633,624812.4000000954,8063,WL,B,6.0
6,24.776000022888184,distr,35223.99997711182,Mon Aug 25 2025 16:58:34 GMT-0500 (Central Daylight Time),637809.2999999523,B,enter,I,enter,4832,1,4849.5,632959.7999999523,8063,WL,B,7.0
6,25.093000173568726,distr,34906.999826431274,Mon Aug 25 2025 16:58:34 GMT-0500 (Central Daylight Time),638125.7000000477,B,enter,I,enter,303,1,316.2000000476837,637809.5,8063,WL,B,8.0
6,25.4760000705719,distr,34523.9999294281,Mon Aug 25 2025 16:58:34 GMT-0500 (Central Daylight Time),638508.9000000954,B,enter,I,enter,371,1,382.90000009536743,638126.0,8063,WL,B,9.0
6,25.659000158309937,distr,34340.99984169006,Mon Aug 25 2025 16:58:34 GMT-0500 (Central Daylight Time),638691.9000000954,B,enter,I,enter,162,1,182.70000004768372,638509.2000000477,8063,WL,B,10.0
6,25.841000080108643,distr,34158.99991989136,Mon Aug 25 2025 16:58:34 GMT-0500 (Central Daylight Time),638874.2000000477,B,enter,I,enter,162,1,182.0,638692.2000000477,8063,WL,B,11.0
6,26.175000190734863,distr,33824.99980926514,Mon Aug 25 2025 16:58:34 GMT-0500 (Central Daylight Time),639208.4000000954,B,enter,I,enter,316,1,333.90000009536743,638874.5,8063,WL,B,12.0
6,26.493000030517578,distr,33506.99996948242,Mon Aug 25 2025 16:58:34 GMT-0500 (Central Daylight Time),639525.5,B,enter,I,enter,297,1,316.7999999523163,639208.7000000477,8063,WL,B,13.0
6,26.77500009536743,distr,33224.99990463257,Mon Aug 25 2025 16:58:34 GMT-0500 (Central Daylight Time),639807.9000000954,B,enter,I,enter,266,1,282.10000014305115,639525.7999999523,8063,WL,B,14.0
6,27.125,distr,32875.0,Mon Aug 25 2025 16:58:34 GMT-0500 (Central Daylight Time),640157.7000000477,B,enter,I,enter,345,1,349.5,639808.2000000477,8063,WL,B,15.0
7,1.4680001735687256,immed,58531.999826431274,Mon Aug 25 2025 16:58:34 GMT-0500 (Central Daylight Time),649205.2999999523,A,c,I,c,1450,1,1467.5999999046326,647737.7000000477,8063,WL,B,1.0
7,1.567000150680542,immed,58432.99984931946,Mon Aug 25 2025 16:58:34 GMT-0500 (Central Daylight Time),649303.7999999523,A,cl,I,l,91,1,1566.0999999046326,647737.7000000477,8063,WL,B,1.0
7,1.7680001258850098,immed,58231.99987411499,Mon Aug 25 2025 16:58:34 GMT-0500 (Central Daylight Time),649504.9000000954,A,clo,I,o,183,1,1767.2000000476837,647737.7000000477,8063,WL,B,1.0
7,1.9180002212524414,immed,58081.99977874756,Mon Aug 25 2025 16:58:34 GMT-0500 (Central Daylight Time),649654.600000143,A,cloc,I,c,125,1,1916.9000000953674,647737.7000000477,8063,WL,B,1.0
7,2.0180001258850098,immed,57981.99987411499,Mon Aug 25 2025 16:58:34 GMT-0500 (Central Daylight Time),649754.600000143,A,clock,I,k,79,1,2016.9000000953674,647737.7000000477,8063,WL,B,1.0
7,2.5500001907348633,immed,57449.99980926514,Mon Aug 25 2025 16:58:34 GMT-0500 (Central Daylight Time),650287.2999999523,A,clockenter,I,enter,512,1,2549.5999999046326,647737.7000000477,8063,WL,B,1.0
7,2.9680001735687256,immed,57031.999826431274,Mon Aug 25 2025 16:58:34 GMT-0500 (Central Daylight Time),650704.600000143,A,a,I,a,408,1,417.0,650287.600000143,8063,WL,B,2.0
7,3.0840001106262207,immed,56915.99988937378,Mon Aug 25 2025 16:58:34 GMT-0500 (Central Daylight Time),650821.100000143,A,ar,I,r,110,1,533.5,650287.600000143,8063,WL,B,2.0
7,3.2840001583099365,immed,56715.99984169006,Mon Aug 25 2025 16:58:34 GMT-0500 (Central Daylight Time),651021.2999999523,A,arm,I,m,178,1,733.6999998092651,650287.600000143,8063,WL,B,2.0
7,3.684000015258789,immed,56315.99998474121,Mon Aug 25 2025 16:58:34 GMT-0500 (Central Daylight Time),651420.7000000477,A,armenter,I,enter,378,1,1133.0999999046326,650287.600000143,8063,WL,B,2.0
7,4.0,immed,56000.0,Mon Aug 25 2025 16:58:34 GMT-0500 (Central Daylight Time),651737.4000000954,A,w,I,w,307,1,316.5,651420.9000000954,8063,WL,B,3.0
7,4.1000001430511475,immed,55899.99985694885,Mon Aug 25 2025 16:58:34 GMT-0500 (Central Daylight Time),651837.0,A,wi,I,i,85,1,416.09999990463257,651420.9000000954,8063,WL,B,3.0
7,4.267000198364258,immed,55732.99980163574,Mon Aug 25 2025 16:58:34 GMT-0500 (Central Daylight Time),652004.2999999523,A,wif,I,f,153,1,583.3999998569489,651420.9000000954,8063,WL,B,3.0
7,4.450000047683716,immed,55549.999952316284,Mon Aug 25 2025 16:58:34 GMT-0500 (Central Daylight Time),652186.9000000954,A,wife,I,e,171,1,766.0,651420.9000000954,8063,WL,B,3.0
7,4.616000175476074,immed,55383.999824523926,Mon Aug 25 2025 16:58:34 GMT-0500 (Central Daylight Time),652353.2999999523,A,wifeenter,I,enter,154,1,932.3999998569489,651420.9000000954,8063,WL,B,3.0
7,5.001000165939331,immed,54998.99983406067,Mon Aug 25 2025 16:58:34 GMT-0500 (Central Daylight Time),652738.600000143,A,w,I,w,367,1,385.10000014305115,652353.5,8063,WL,B,4.0
7,5.083000183105469,immed,54916.99981689453,Mon Aug 25 2025 16:58:34 GMT-0500 (Central Daylight Time),652820.2999999523,A,wi,I,i,67,1,466.7999999523163,652353.5,8063,WL,B,4.0
7,5.26800012588501,immed,54731.99987411499,Mon Aug 25 2025 16:58:34 GMT-0500 (Central Daylight Time),653005.4000000954,A,win,I,n,178,1,651.9000000953674,652353.5,8063,WL,B,4.0
7,5.41700005531311,immed,54582.99994468689,Mon Aug 25 2025 16:58:34 GMT-0500 (Central Daylight Time),653153.7999999523,A,wind,I,d,138,1,800.2999999523163,652353.5,8063,WL,B,4.0
7,5.549000024795532,immed,54450.99997520447,Mon Aug 25 2025 16:58:34 GMT-0500 (Central Daylight Time),653285.9000000954,A,windo,I,o,115,1,932.4000000953674,652353.5,8063,WL,B,4.0
7,5.651000022888184,immed,54348.99997711182,Mon Aug 25 2025 16:58:34 GMT-0500 (Central Daylight Time),653387.7999999523,A,window,I,w,89,1,1034.2999999523163,652353.5,8063,WL,B,4.0
7,5.9150002002716064,immed,54084.99979972839,Mon Aug 25 2025 16:58:34 GMT-0500 (Central Daylight Time),653651.7999999523,A,windowenter,I,enter,250,1,1298.2999999523163,652353.5,8063,WL,B,4.0
7,6.1650002002716064,immed,53834.99979972839,Mon Aug 25 2025 16:58:34 GMT-0500 (Central Daylight Time),653902.2999999523,A,c,I,c,236,1,250.39999985694885,653651.9000000954,8063,WL,B,5.0
7,6.465000152587891,immed,53534.99984741211,Mon Aug 25 2025 16:58:34 GMT-0500 (Central Daylight Time),654201.9000000954,A,ci,I,i,282,1,550.0,653651.9000000954,8063,WL,B,5.0
7,6.614000082015991,immed,53385.99991798401,Mon Aug 25 2025 16:58:34 GMT-0500 (Central Daylight Time),654351.2000000477,A,cit,I,t,141,1,699.2999999523163,653651.9000000954,8063,WL,B,5.0
7,6.749000072479248,immed,53250.99992752075,Mon Aug 25 2025 16:58:34 GMT-0500 (Central Daylight Time),654485.7000000477,A,city,I,y,121,1,833.7999999523163,653651.9000000954,8063,WL,B,5.0
7,6.999000072479248,immed,53000.99992752075,Mon Aug 25 2025 16:58:34 GMT-0500 (Central Daylight Time),654736.2000000477,A,cityenter,I,enter,243,1,1084.2999999523163,653651.9000000954,8063,WL,B,5.0
7,7.25,immed,52750.0,Mon Aug 25 2025 16:58:34 GMT-0500 (Central Daylight Time),654986.600000143,A,c,I,c,239,1,250.20000004768372,654736.4000000954,8063,WL,B,6.0
7,7.432000160217285,immed,52567.999839782715,Mon Aug 25 2025 16:58:34 GMT-0500 (Central Daylight Time),655168.7999999523,A,ca,I,a,162,1,432.39999985694885,654736.4000000954,8063,WL,B,6.0
7,7.636000156402588,immed,52363.99984359741,Mon Aug 25 2025 16:58:34 GMT-0500 (Central Daylight Time),655373.0,A,cab,I,b,199,1,636.5999999046326,654736.4000000954,8063,WL,B,6.0
7,7.885000228881836,immed,52114.999771118164,Mon Aug 25 2025 16:58:34 GMT-0500 (Central Daylight Time),655622.5,A,cabi,I,i,226,1,886.0999999046326,654736.4000000954,8063,WL,B,6.0
7,7.965000152587891,immed,52034.99984741211,Mon Aug 25 2025 16:58:34 GMT-0500 (Central Daylight Time),655702.2000000477,A,cabin,I,n,74,1,965.7999999523163,654736.4000000954,8063,WL,B,6.0
7,8.25,immed,51750.0,Mon Aug 25 2025 16:58:34 GMT-0500 (Central Daylight Time),655986.7999999523,A,cabinenter,I,enter,273,1,1250.3999998569489,654736.4000000954,8063,WL,B,6.0
7,8.484000205993652,immed,51515.99979400635,Mon Aug 25 2025 16:58:34 GMT-0500 (Central Daylight Time),656220.7999999523,A,f,I,f,213,1,233.69999980926514,655987.100000143,8063,WL,B,7.0
7,8.766000032424927,immed,51233.99996757507,Mon Aug 25 2025 16:58:34 GMT-0500 (Central Daylight Time),656502.7000000477,A,fi,I,i,267,1,515.5999999046326,655987.100000143,8063,WL,B,7.0
7,8.951000213623047,immed,51048.99978637695,Mon Aug 25 2025 16:58:34 GMT-0500 (Central Daylight Time),656687.7999999523,A,fir,I,r,168,1,700.6999998092651,655987.100000143,8063,WL,B,7.0
7,9.032000064849854,immed,50967.99993515015,Mon Aug 25 2025 16:58:34 GMT-0500 (Central Daylight Time),656768.7000000477,A,fire,I,e,71,1,781.5999999046326,655987.100000143,8063,WL,B,7.0
7,9.249000072479248,immed,50750.99992752075,Mon Aug 25 2025 16:58:34 GMT-0500 (Central Daylight Time),656986.0,A,fireenter,I,enter,204,1,998.8999998569489,655987.100000143,8063,WL,B,7.0
7,9.582000017166138,immed,50417.99998283386,Mon Aug 25 2025 16:58:34 GMT-0500 (Central Daylight Time),657318.7999999523,A,p,I,p,318,1,332.59999990463257,656986.2000000477,8063,WL,B,8.0
7,9.867000102996826,immed,50132.999897003174,Mon Aug 25 2025 16:58:34 GMT-0500 (Central Daylight Time),657604.4000000954,A,po,I,o,264,1,618.2000000476837,656986.2000000477,8063,WL,B,8.0
7,10.46500015258789,immed,49534.99984741211,Mon Aug 25 2025 16:58:34 GMT-0500 (Central Daylight Time),658202.4000000954,A,p,I,backspace,576,1,1216.2000000476837,656986.2000000477,8063,WL,B,8.0
7,10.88100004196167,immed,49118.99995803833,Mon Aug 25 2025 16:58:34 GMT-0500 (Central Daylight Time),658618.4000000954,A,pi,I,i,394,1,1632.2000000476837,656986.2000000477,8063,WL,B,8.0
7,11.049000024795532,immed,48950.99997520447,Mon Aug 25 2025 16:58:34 GMT-0500 (Central Daylight Time),658785.7000000477,A,pip,I,p,156,1,1799.5,656986.2000000477,8063,WL,B,8.0
7,11.21500015258789,immed,48784.99984741211,Mon Aug 25 2025 16:58:34 GMT-0500 (Central Daylight Time),658952.5,A,pipe,I,e,158,1,1966.2999999523163,656986.2000000477,8063,WL,B,8.0
7,12.097000122070312,immed,47902.99987792969,Mon Aug 25 2025 16:58:34 GMT-0500 (Central Daylight Time),659834.0,A,pipeenter,I,enter,861,1,2847.7999999523163,656986.2000000477,8063,WL,B,8.0
7,12.332000017166138,immed,47667.99998283386,Mon Aug 25 2025 16:58:34 GMT-0500 (Central Daylight Time),660068.7999999523,A,c,I,c,226,1,234.5,659834.2999999523,8063,WL,B,9.0
7,12.431000232696533,immed,47568.99976730347,Mon Aug 25 2025 16:58:34 GMT-0500 (Central Daylight Time),660168.2000000477,A,cl,I,l,80,1,333.90000009536743,659834.2999999523,8063,WL,B,9.0
7,12.614000082015991,immed,47385.99991798401,Mon Aug 25 2025 16:58:34 GMT-0500 (Central Daylight Time),660351.2999999523,A,clo,I,o,175,1,517.0,659834.2999999523,8063,WL,B,9.0
7,12.713000059127808,immed,47286.99994087219,Mon Aug 25 2025 16:58:34 GMT-0500 (Central Daylight Time),660450.2999999523,A,cloc,I,c,87,1,616.0,659834.2999999523,8063,WL,B,9.0
7,12.831000089645386,immed,47168.999910354614,Mon Aug 25 2025 16:58:34 GMT-0500 (Central Daylight Time),660567.7999999523,A,clock,I,k,107,1,733.5,659834.2999999523,8063,WL,B,9.0
7,13.04800009727478,immed,46951.99990272522,Mon Aug 25 2025 16:58:34 GMT-0500 (Central Daylight Time),660785.0,A,clockenter,I,enter,206,1,950.7000000476837,659834.2999999523,8063,WL,B,9.0
7,14.664000034332275,immed,45335.999965667725,Mon Aug 25 2025 16:58:34 GMT-0500 (Central Daylight Time),662401.0,A,g,I,g,1598,1,1615.5999999046326,660785.4000000954,8063,WL,B,10.0
7,14.847000122070312,immed,45152.99987792969,Mon Aug 25 2025 16:58:34 GMT-0500 (Central Daylight Time),662584.0,A,gr,I,r,162,1,1798.5999999046326,660785.4000000954,8063,WL,B,10.0
7,14.999000072479248,immed,45000.99992752075,Mon Aug 25 2025 16:58:34 GMT-0500 (Central Daylight Time),662735.7000000477,A,gra,I,a,135,1,1950.2999999523163,660785.4000000954,8063,WL,B,10.0
7,15.247000217437744,immed,44752.999782562256,Mon Aug 25 2025 16:58:34 GMT-0500 (Central Daylight Time),662984.100000143,A,gras,I,s,231,1,2198.7000000476837,660785.4000000954,8063,WL,B,10.0
7,15.380000114440918,immed,44619.99988555908,Mon Aug 25 2025 16:58:34 GMT-0500 (Central Daylight Time),663117.2999999523,A,grass,I,s,119,1,2331.899999856949,660785.4000000954,8063,WL,B,10.0
7,15.529000043869019,immed,44470.99995613098,Mon Aug 25 2025 16:58:34 GMT-0500 (Central Daylight Time),663266.7000000477,A,grassenter,I,enter,136,1,2481.2999999523163,660785.4000000954,8063,WL,B,10.0
7,15.680000066757202,immed,44319.9999332428,Mon Aug 25 2025 16:58:34 GMT-0500 (Central Daylight Time),663417.100000143,A,s,I,s,142,1,150.20000004768372,663266.9000000954,8063,WL,B,11.0
7,15.830000162124634,immed,44169.999837875366,Mon Aug 25 2025 16:58:34 GMT-0500 (Central Daylight Time),663567.100000143,A,st,I,t,145,1,300.2000000476837,663266.9000000954,8063,WL,B,11.0
7,15.981000185012817,immed,44018.99981498718,Mon Aug 25 2025 16:58:34 GMT-0500 (Central Daylight Time),663717.7999999523,A,str,I,r,144,1,450.89999985694885,663266.9000000954,8063,WL,B,11.0
7,16.198000192642212,immed,43801.99980735779,Mon Aug 25 2025 16:58:34 GMT-0500 (Central Daylight Time),663934.7000000477,A,stre,I,e,199,1,667.7999999523163,663266.9000000954,8063,WL,B,11.0
7,16.330000162124634,immed,43669.999837875366,Mon Aug 25 2025 16:58:34 GMT-0500 (Central Daylight Time),664067.2999999523,A,stree,I,e,126,1,800.3999998569489,663266.9000000954,8063,WL,B,11.0
7,16.480000019073486,immed,43519.999980926514,Mon Aug 25 2025 16:58:34 GMT-0500 (Central Daylight Time),664216.7999999523,A,street,I,t,139,1,949.8999998569489,663266.9000000954,8063,WL,B,11.0
7,16.630000114440918,immed,43369.99988555908,Mon Aug 25 2025 16:58:34 GMT-0500 (Central Daylight Time),664367.0,A,streetenter,I,enter,135,1,1100.0999999046326,663266.9000000954,8063,WL,B,11.0
7,16.913000106811523,immed,43086.99989318848,Mon Aug 25 2025 16:58:34 GMT-0500 (Central Daylight Time),664649.9000000954,A,a,I,a,264,1,282.7000000476837,664367.2000000477,8063,WL,B,12.0
7,17.079000234603882,immed,42920.99976539612,Mon Aug 25 2025 16:58:34 GMT-0500 (Central Daylight Time),664816.2999999523,A,ar,I,r,148,1,449.09999990463257,664367.2000000477,8063,WL,B,12.0
7,17.213000059127808,immed,42786.99994087219,Mon Aug 25 2025 16:58:34 GMT-0500 (Central Daylight Time),664949.7000000477,A,arm,I,m,117,1,582.5,664367.2000000477,8063,WL,B,12.0
7,18.079000234603882,immed,41920.99976539612,Mon Aug 25 2025 16:58:34 GMT-0500 (Central Daylight Time),665816.0,A,armenter,I,enter,856,1,1448.7999999523163,664367.2000000477,8063,WL,B,12.0
7,18.396000146865845,immed,41603.999853134155,Mon Aug 25 2025 16:58:34 GMT-0500 (Central Daylight Time),666133.7000000477,A,d,I,d,304,1,317.5,665816.2000000477,8063,WL,B,13.0
7,18.53000020980835,immed,41469.99979019165,Mon Aug 25 2025 16:58:34 GMT-0500 (Central Daylight Time),666266.9000000954,A,do,I,o,119,1,450.7000000476837,665816.2000000477,8063,WL,B,13.0
7,18.67900013923645,immed,41320.99986076355,Mon Aug 25 2025 16:58:34 GMT-0500 (Central Daylight Time),666416.0,A,doo,I,o,139,1,599.7999999523163,665816.2000000477,8063,WL,B,13.0
7,18.77900004386902,immed,41220.99995613098,Mon Aug 25 2025 16:58:34 GMT-0500 (Central Daylight Time),666516.2999999523,A,door,I,r,85,1,700.0999999046326,665816.2000000477,8063,WL,B,13.0
7,19.41200017929077,immed,40587.99982070923,Mon Aug 25 2025 16:58:34 GMT-0500 (Central Daylight Time),667149.4000000954,A,doorenter,I,enter,627,1,1333.2000000476837,665816.2000000477,8063,WL,B,13.0
