acc_sum,block,block_c,change,condition,correct,correct_response,datetime,endtime,face,project,response,response_time,row_sel,session_number,start_end,starttime,subject_id,task,task_vers,trial
0,prac,1,,1-Back,,,Fri Jan 16 2026 09:56:11 GMT-0600 (Central Standard Time),,124_o_f_d_a.png,O,space,9175,1,1,,,7745,VNB,A,0
1,prac,1,0.0,1-Back,1.0,m,Fri Jan 16 2026 09:56:11 GMT-0600 (Central Standard Time),160674.0,071_y_f_n_a.png,O,m,817,2,1,1605.5,159068.5,7745,VNB,A,1
2,prac,1,0.0,1-Back,1.0,m,Fri Jan 16 2026 09:56:11 GMT-0600 (Central Standard Time),163139.69999980927,165_m_m_h_a.png,O,m,1666,3,1,2455.0,160684.69999980927,7745,VNB,A,2
2,prac,1,0.0,1-Back,0.0,m,Fri Jan 16 2026 09:56:11 GMT-0600 (Central Standard Time),165957.29999995232,109_y_m_d_a.png,O,None,2015,4,1,2808.4000000953674,163148.89999985695,7745,VNB,A,3
2,prac,1,0.0,1-Back,0.0,m,Fri Jan 16 2026 09:56:11 GMT-0600 (Central Standard Time),168038.79999995232,124_o_f_n_a.png,O,z,1251,5,1,2073.0,165965.79999995232,7745,VNB,A,4
3,prac,1,1.0,1-Back,1.0,z,Fri Jan 16 2026 09:56:11 GMT-0600 (Central Standard Time),169987.29999995232,109_y_m_n_a.png,O,z,1144,6,1,1937.1000001430511,168050.19999980927,7745,VNB,A,5
4,prac,1,0.0,1-Back,1.0,m,Fri Jan 16 2026 09:56:11 GMT-0600 (Central Standard Time),172337.59999990463,039_o_m_h_a.png,O,m,1538,7,1,2338.2000000476837,169999.39999985695,7745,VNB,A,6
4,prac,1,0.0,1-Back,0.0,m,Fri Jan 16 2026 09:56:11 GMT-0600 (Central Standard Time),173886.0,139_m_f_d_a.png,O,z,761,8,1,1538.5,172347.5,7745,VNB,A,7
4,prac,1,1.0,1-Back,0.0,z,Fri Jan 16 2026 09:56:11 GMT-0600 (Central Standard Time),176619.29999995232,071_y_f_d_a.png,O,m,1928,9,1,2722.4000000953674,173896.89999985695,7745,VNB,A,8
4,prac,1,0.0,1-Back,0.0,m,Fri Jan 16 2026 09:56:11 GMT-0600 (Central Standard Time),179434.79999995232,165_m_m_n_a.png,O,None,2011,10,1,2804.2000000476837,176630.59999990463,7745,VNB,A,9
5,prac,1,0.0,1-Back,1.0,m,Fri Jan 16 2026 09:56:11 GMT-0600 (Central Standard Time),181983.19999980927,124_o_f_h_a.png,O,m,1728,11,1,2536.5999999046326,179446.59999990463,7745,VNB,A,10
5,prac,1,0.0,1-Back,0.0,m,Fri Jan 16 2026 09:56:11 GMT-0600 (Central Standard Time),183483.59999990463,109_y_m_d_a.png,O,z,722,12,1,1489.7000000476837,181993.89999985695,7745,VNB,A,11
0,prac,2,0.0,1-Back,,,Fri Jan 16 2026 09:56:11 GMT-0600 (Central Standard Time),183483.59999990463,124_o_f_d_a.png,O,a,9729,1,1,1489.7000000476837,181993.89999985695,7745,VNB,A,0
1,prac,2,0.0,1-Back,1.0,m,Fri Jan 16 2026 09:56:11 GMT-0600 (Central Standard Time),197711.39999985695,071_y_f_n_a.png,O,m,636,2,1,1438.0999999046326,196273.29999995232,7745,VNB,A,1
2,prac,2,0.0,1-Back,1.0,m,Fri Jan 16 2026 09:56:11 GMT-0600 (Central Standard Time),199978.5,165_m_m_h_a.png,O,m,1450,3,1,2257.100000143051,197721.39999985695,7745,VNB,A,2
3,prac,2,0.0,1-Back,1.0,m,Fri Jan 16 2026 09:56:11 GMT-0600 (Central Standard Time),201926.89999985695,109_y_m_d_a.png,O,m,1158,4,1,1937.0999999046326,199989.79999995232,7745,VNB,A,3
4,prac,2,0.0,1-Back,1.0,m,Fri Jan 16 2026 09:56:11 GMT-0600 (Central Standard Time),203944.0,124_o_f_n_a.png,O,m,1194,5,1,2006.2000000476837,201937.79999995232,7745,VNB,A,4
5,prac,2,1.0,1-Back,1.0,z,Fri Jan 16 2026 09:56:11 GMT-0600 (Central Standard Time),205741.79999995232,109_y_m_n_a.png,O,z,979,6,1,1787.7000000476837,203954.09999990463,7745,VNB,A,5
6,prac,2,0.0,1-Back,1.0,m,Fri Jan 16 2026 09:56:11 GMT-0600 (Central Standard Time),207641.5,039_o_m_h_a.png,O,m,1090,7,1,1890.0,205751.5,7745,VNB,A,6
6,prac,2,0.0,1-Back,0.0,m,Fri Jan 16 2026 09:56:11 GMT-0600 (Central Standard Time),209174.09999990463,139_m_f_d_a.png,O,z,726,8,1,1523.0,207651.09999990463,7745,VNB,A,7
7,prac,2,1.0,1-Back,1.0,z,Fri Jan 16 2026 09:56:11 GMT-0600 (Central Standard Time),211175.39999985695,071_y_f_d_a.png,O,z,1196,9,1,1987.8999998569489,209187.5,7745,VNB,A,8
8,prac,2,0.0,1-Back,1.0,m,Fri Jan 16 2026 09:56:11 GMT-0600 (Central Standard Time),212940.19999980927,165_m_m_n_a.png,O,m,966,10,1,1754.0999999046326,211186.09999990463,7745,VNB,A,9
8,prac,2,0.0,1-Back,0.0,m,Fri Jan 16 2026 09:56:11 GMT-0600 (Central Standard Time),214706.39999985695,124_o_f_h_a.png,O,z,955,11,1,1757.2999999523163,212949.09999990463,7745,VNB,A,10
8,prac,2,0.0,1-Back,0.0,m,Fri Jan 16 2026 09:56:11 GMT-0600 (Central Standard Time),216575.39999985695,109_y_m_d_a.png,O,z,1088,12,1,1857.5999999046326,214717.79999995232,7745,VNB,A,11
0,test,1,0.0,1-Back,,,Fri Jan 16 2026 09:56:11 GMT-0600 (Central Standard Time),216575.39999985695,071_y_f_d_a.png,O,space,10162,1,1,1857.5999999046326,214717.79999995232,7745,VNB,A,0
1,test,1,0.0,1-Back,1.0,m,Fri Jan 16 2026 09:56:11 GMT-0600 (Central Standard Time),241630.69999980927,139_m_f_n_a.png,O,m,1429,2,1,2437.0999999046326,239193.59999990463,7745,VNB,A,1
2,test,1,0.0,1-Back,1.0,m,Fri Jan 16 2026 09:56:11 GMT-0600 (Central Standard Time),243878.79999995232,039_o_m_h_a.png,O,m,1229,3,1,2235.100000143051,241643.69999980927,7745,VNB,A,2
3,test,1,1.0,1-Back,1.0,z,Fri Jan 16 2026 09:56:11 GMT-0600 (Central Standard Time),245912.29999995232,165_m_m_h_a.png,O,z,1004,4,1,2022.1000001430511,243890.19999980927,7745,VNB,A,3
4,test,1,0.0,1-Back,1.0,m,Fri Jan 16 2026 09:56:11 GMT-0600 (Central Standard Time),247727.69999980927,124_o_f_n_a.png,O,m,795,5,1,1803.8999998569489,245923.79999995232,7745,VNB,A,4
5,test,1,0.0,1-Back,1.0,m,Fri Jan 16 2026 09:56:11 GMT-0600 (Central Standard Time),249695.69999980927,109_y_m_d_a.png,O,m,950,6,1,1958.0,247737.69999980927,7745,VNB,A,5
6,test,1,1.0,1-Back,1.0,z,Fri Jan 16 2026 09:56:11 GMT-0600 (Central Standard Time),251560.59999990463,139_m_f_d_a.png,O,z,838,7,1,1853.7000000476837,249706.89999985695,7745,VNB,A,6
7,test,1,0.0,1-Back,1.0,m,Fri Jan 16 2026 09:56:11 GMT-0600 (Central Standard Time),253477.29999995232,071_y_f_h_a.png,O,m,882,8,1,1904.9000000953674,251572.39999985695,7745,VNB,A,7
7,test,1,0.0,1-Back,0.0,m,Fri Jan 16 2026 09:56:11 GMT-0600 (Central Standard Time),255375.39999985695,039_o_m_n_a.png,O,z,869,9,1,1885.5999999046326,253489.79999995232,7745,VNB,A,8
8,test,1,0.0,1-Back,1.0,m,Fri Jan 16 2026 09:56:11 GMT-0600 (Central Standard Time),258275.5,109_y_m_h_a.png,O,m,1867,10,1,2891.300000190735,255384.19999980927,7745,VNB,A,9
8,test,1,0.0,1-Back,0.0,m,Fri Jan 16 2026 09:56:11 GMT-0600 (Central Standard Time),260458.29999995232,039_o_m_d_a.png,O,z,1153,11,1,2170.100000143051,258288.19999980927,7745,VNB,A,10
9,test,1,1.0,1-Back,1.0,z,Fri Jan 16 2026 09:56:11 GMT-0600 (Central Standard Time),262325.7999999523,124_o_f_d_a.png,O,z,851,12,1,1855.9000000953674,260469.89999985695,7745,VNB,A,11
10,test,1,0.0,1-Back,1.0,m,Fri Jan 16 2026 09:56:11 GMT-0600 (Central Standard Time),264289.7999999523,165_m_m_n_a.png,O,m,935,13,1,1956.6000001430511,262333.19999980927,7745,VNB,A,12
11,test,1,1.0,1-Back,1.0,z,Fri Jan 16 2026 09:56:11 GMT-0600 (Central Standard Time),266305.59999990463,071_y_f_n_a.png,O,z,996,14,1,2004.4000000953674,264301.19999980927,7745,VNB,A,13
12,test,1,0.0,1-Back,1.0,m,Fri Jan 16 2026 09:56:11 GMT-0600 (Central Standard Time),268221.7999999523,139_m_f_h_a.png,O,m,897,15,1,1905.1000001430511,266316.69999980927,7745,VNB,A,14
13,test,1,0.0,1-Back,1.0,m,Fri Jan 16 2026 09:56:11 GMT-0600 (Central Standard Time),270255.09999990463,165_m_m_d_a.png,O,m,1004,16,1,2023.0999999046326,268232.0,7745,VNB,A,15
14,test,1,0.0,1-Back,1.0,m,Fri Jan 16 2026 09:56:11 GMT-0600 (Central Standard Time),272405.09999990463,109_y_m_n_a.png,O,m,1116,17,1,2140.0,270265.09999990463,7745,VNB,A,16
15,test,1,0.0,1-Back,1.0,m,Fri Jan 16 2026 09:56:11 GMT-0600 (Central Standard Time),274221.5,124_o_f_h_a.png,O,m,799,18,1,1804.7000000476837,272416.7999999523,7745,VNB,A,17
0,test,2,0.0,1-Back,,,Fri Jan 16 2026 09:56:11 GMT-0600 (Central Standard Time),274221.5,109_y_m_n_a.png,O,space,1718,1,1,1804.7000000476837,272416.7999999523,7745,VNB,A,0
1,test,2,0.0,1-Back,1.0,m,Fri Jan 16 2026 09:56:11 GMT-0600 (Central Standard Time),279651.09999990463,071_y_f_h_a.png,O,m,649,2,1,1670.7999999523163,277980.2999999523,7745,VNB,A,1
1,test,2,1.0,1-Back,0.0,m,Fri Jan 16 2026 09:56:11 GMT-0600 (Central Standard Time),281285.69999980927,039_o_m_n_a.png,O,z,607,3,1,1626.0999999046326,279659.59999990463,7745,VNB,A,2
2,test,2,0.0,1-Back,1.0,m,Fri Jan 16 2026 09:56:11 GMT-0600 (Central Standard Time),283618.39999985695,139_m_f_d_a.png,O,m,1301,4,1,2322.7999999523163,281295.59999990463,7745,VNB,A,3
3,test,2,0.0,1-Back,1.0,z,Fri Jan 16 2026 09:56:11 GMT-0600 (Central Standard Time),285100.5,165_m_m_d_a.png,O,z,459,5,1,1475.4000000953674,283625.09999990463,7745,VNB,A,4
4,test,2,0.0,1-Back,1.0,m,Fri Jan 16 2026 09:56:11 GMT-0600 (Central Standard Time),286933.0,109_y_m_h_a.png,O,m,801,6,1,1821.8000001907349,285111.19999980927,7745,VNB,A,5
5,test,2,1.0,1-Back,1.0,z,Fri Jan 16 2026 09:56:11 GMT-0600 (Central Standard Time),288466.5,124_o_f_h_a.png,O,z,511,7,1,1524.2000000476837,286942.2999999523,7745,VNB,A,6
6,test,2,0.0,1-Back,1.0,m,Fri Jan 16 2026 09:56:11 GMT-0600 (Central Standard Time),290332.39999985695,139_m_f_n_a.png,O,m,833,8,1,1856.5,288475.89999985695,7745,VNB,A,7
6,test,2,0.0,1-Back,0.0,m,Fri Jan 16 2026 09:56:11 GMT-0600 (Central Standard Time),292182.69999980927,071_y_f_d_a.png,O,z,831,9,1,1840.3999998569489,290342.2999999523,7745,VNB,A,8
7,test,2,0.0,1-Back,1.0,m,Fri Jan 16 2026 09:56:11 GMT-0600 (Central Standard Time),294365.39999985695,165_m_m_n_a.png,O,m,1159,10,1,2173.0999999046326,292192.2999999523,7745,VNB,A,9
8,test,2,1.0,1-Back,1.0,m,Fri Jan 16 2026 09:56:11 GMT-0600 (Central Standard Time),296696.69999980927,139_m_f_h_a.png,O,m,1298,11,1,2319.699999809265,294377.0,7745,VNB,A,10
8,test,2,0.0,1-Back,0.0,z,Fri Jan 16 2026 09:56:11 GMT-0600 (Central Standard Time),298629.19999980927,039_o_m_h_a.png,O,m,905,12,1,1921.8999998569489,296707.2999999523,7745,VNB,A,11
9,test,2,0.0,1-Back,1.0,m,Fri Jan 16 2026 09:56:11 GMT-0600 (Central Standard Time),300911.5,109_y_m_d_a.png,O,m,1253,13,1,2271.9000000953674,298639.59999990463,7745,VNB,A,12
10,test,2,0.0,1-Back,1.0,m,Fri Jan 16 2026 09:56:11 GMT-0600 (Central Standard Time),302944.39999985695,124_o_f_n_a.png,O,m,1003,14,1,2022.5999999046326,300921.7999999523,7745,VNB,A,13
11,test,2,0.0,1-Back,1.0,z,Fri Jan 16 2026 09:56:11 GMT-0600 (Central Standard Time),304629.2999999523,071_y_f_n_a.png,O,z,661,15,1,1673.9000000953674,302955.39999985695,7745,VNB,A,14
12,test,2,1.0,1-Back,1.0,m,Fri Jan 16 2026 09:56:11 GMT-0600 (Central Standard Time),306493.19999980927,165_m_m_h_a.png,O,m,848,16,1,1852.3999998569489,304640.7999999523,7745,VNB,A,15
12,test,2,0.0,1-Back,0.0,m,Fri Jan 16 2026 09:56:11 GMT-0600 (Central Standard Time),308492.2999999523,124_o_f_d_a.png,O,z,981,17,1,1989.9000000953674,306502.39999985695,7745,VNB,A,16
13,test,2,1.0,1-Back,1.0,z,Fri Jan 16 2026 09:56:11 GMT-0600 (Central Standard Time),310625.7999999523,039_o_m_d_a.png,O,z,1111,18,1,2125.2999999523163,308500.5,7745,VNB,A,17
0,test,3,1.0,1-Back,,,Fri Jan 16 2026 09:56:11 GMT-0600 (Central Standard Time),310625.7999999523,124_o_f_h_a.png,O,space,1945,1,1,2125.2999999523163,308500.5,7745,VNB,A,0
1,test,3,0.0,1-Back,1.0,m,Fri Jan 16 2026 09:56:11 GMT-0600 (Central Standard Time),316673.7999999523,139_m_f_d_a.png,O,m,1002,2,1,2022.9000000953674,314650.89999985695,7745,VNB,A,1
2,test,3,1.0,1-Back,1.0,m,Fri Jan 16 2026 09:56:11 GMT-0600 (Central Standard Time),318639.09999990463,165_m_m_n_a.png,O,m,938,3,1,1953.5,316685.59999990463,7745,VNB,A,2
3,test,3,0.0,1-Back,1.0,z,Fri Jan 16 2026 09:56:11 GMT-0600 (Central Standard Time),320122.0,124_o_f_n_a.png,O,z,461,4,1,1473.1000001430511,318648.89999985695,7745,VNB,A,3
4,test,3,1.0,1-Back,1.0,m,Fri Jan 16 2026 09:56:11 GMT-0600 (Central Standard Time),321874.2999999523,039_o_m_d_a.png,O,m,728,5,1,1740.5,320133.7999999523,7745,VNB,A,4
5,test,3,0.0,1-Back,1.0,m,Fri Jan 16 2026 09:56:11 GMT-0600 (Central Standard Time),323754.5,071_y_f_h_a.png,O,m,852,6,1,1870.0,321884.5,7745,VNB,A,5
6,test,3,0.0,1-Back,1.0,z,Fri Jan 16 2026 09:56:11 GMT-0600 (Central Standard Time),325587.09999990463,109_y_m_h_a.png,O,z,810,7,1,1822.5999999046326,323764.5,7745,VNB,A,6
7,test,3,0.0,1-Back,1.0,m,Fri Jan 16 2026 09:56:11 GMT-0600 (Central Standard Time),327520.19999980927,139_m_f_n_a.png,O,m,899,8,1,1925.0999999046326,325595.09999990463,7745,VNB,A,7
8,test,3,0.0,1-Back,1.0,m,Fri Jan 16 2026 09:56:11 GMT-0600 (Central Standard Time),329352.89999985695,071_y_f_d_a.png,O,m,802,9,1,1821.0999999046326,327531.7999999523,7745,VNB,A,8
9,test,3,1.0,1-Back,1.0,m,Fri Jan 16 2026 09:56:11 GMT-0600 (Central Standard Time),331502.7999999523,039_o_m_n_a.png,O,m,1127,10,1,2138.4000000953674,329364.39999985695,7745,VNB,A,9
10,test,3,0.0,1-Back,1.0,m,Fri Jan 16 2026 09:56:11 GMT-0600 (Central Standard Time),333485.39999985695,165_m_m_h_a.png,O,m,957,11,1,1973.5,331511.89999985695,7745,VNB,A,10
11,test,3,0.0,1-Back,1.0,z,Fri Jan 16 2026 09:56:11 GMT-0600 (Central Standard Time),335317.89999985695,139_m_f_h_a.png,O,z,806,12,1,1822.0,333495.89999985695,7745,VNB,A,11
12,test,3,1.0,1-Back,1.0,m,Fri Jan 16 2026 09:56:11 GMT-0600 (Central Standard Time),337267.19999980927,124_o_f_d_a.png,O,m,918,13,1,1940.5999999046326,335326.59999990463,7745,VNB,A,12
13,test,3,0.0,1-Back,1.0,z,Fri Jan 16 2026 09:56:11 GMT-0600 (Central Standard Time),339215.39999985695,165_m_m_d_a.png,O,z,919,14,1,1937.7999999523163,337277.59999990463,7745,VNB,A,13
14,test,3,0.0,1-Back,1.0,m,Fri Jan 16 2026 09:56:11 GMT-0600 (Central Standard Time),341135.39999985695,109_y_m_n_a.png,O,m,902,15,1,1911.5999999046326,339223.7999999523,7745,VNB,A,14
15,test,3,1.0,1-Back,1.0,m,Fri Jan 16 2026 09:56:11 GMT-0600 (Central Standard Time),342965.0,039_o_m_h_a.png,O,m,806,16,1,1819.6000001430511,341145.39999985695,7745,VNB,A,15
16,test,3,0.0,1-Back,1.0,m,Fri Jan 16 2026 09:56:11 GMT-0600 (Central Standard Time),344917.19999980927,109_y_m_d_a.png,O,m,926,17,1,1942.3999998569489,342974.7999999523,7745,VNB,A,16
17,test,3,1.0,1-Back,1.0,m,Fri Jan 16 2026 09:56:11 GMT-0600 (Central Standard Time),346948.0,071_y_f_n_a.png,O,m,1008,18,1,2021.0,344927.0,7745,VNB,A,17
0,test,4,1.0,1-Back,,,Fri Jan 16 2026 09:56:11 GMT-0600 (Central Standard Time),346948.0,165_m_m_d_a.png,O,space,1519,1,1,2021.0,344927.0,7745,VNB,A,0
1,test,4,0.0,1-Back,1.0,z,Fri Jan 16 2026 09:56:11 GMT-0600 (Central Standard Time),352211.69999980927,039_o_m_d_a.png,O,z,690,2,1,1704.3999998569489,350507.2999999523,7745,VNB,A,1
2,test,4,0.0,1-Back,1.0,m,Fri Jan 16 2026 09:56:11 GMT-0600 (Central Standard Time),354045.59999990463,109_y_m_h_a.png,O,m,805,3,1,1823.7000000476837,352221.89999985695,7745,VNB,A,2
3,test,4,0.0,1-Back,1.0,m,Fri Jan 16 2026 09:56:11 GMT-0600 (Central Standard Time),355895.7999999523,139_m_f_n_a.png,O,m,822,4,1,1840.0,354055.7999999523,7745,VNB,A,3
4,test,4,1.0,1-Back,1.0,m,Fri Jan 16 2026 09:56:11 GMT-0600 (Central Standard Time),357761.19999980927,124_o_f_h_a.png,O,m,834,5,1,1854.7999999523163,355906.39999985695,7745,VNB,A,4
5,test,4,0.0,1-Back,1.0,m,Fri Jan 16 2026 09:56:11 GMT-0600 (Central Standard Time),359616.09999990463,165_m_m_n_a.png,O,m,821,6,1,1846.0,357770.09999990463,7745,VNB,A,5
6,test,4,0.0,1-Back,1.0,m,Fri Jan 16 2026 09:56:11 GMT-0600 (Central Standard Time),361575.39999985695,109_y_m_d_a.png,O,m,945,7,1,1949.7000000476837,359625.69999980927,7745,VNB,A,6
7,test,4,1.0,1-Back,1.0,z,Fri Jan 16 2026 09:56:11 GMT-0600 (Central Standard Time),363241.69999980927,071_y_f_d_a.png,O,z,639,8,1,1655.0,361586.69999980927,7745,VNB,A,7
8,test,4,0.0,1-Back,1.0,m,Fri Jan 16 2026 09:56:11 GMT-0600 (Central Standard Time),365141.59999990463,139_m_f_h_a.png,O,m,871,9,1,1889.2000000476837,363252.39999985695,7745,VNB,A,8
9,test,4,0.0,1-Back,1.0,z,Fri Jan 16 2026 09:56:11 GMT-0600 (Central Standard Time),366974.0,039_o_m_h_a.png,O,z,803,10,1,1822.2000000476837,365151.7999999523,7745,VNB,A,9
10,test,4,1.0,1-Back,1.0,m,Fri Jan 16 2026 09:56:11 GMT-0600 (Central Standard Time),368839.7999999523,124_o_f_n_a.png,O,m,846,11,1,1855.6000001430511,366984.19999980927,7745,VNB,A,10
11,test,4,0.0,1-Back,1.0,m,Fri Jan 16 2026 09:56:11 GMT-0600 (Central Standard Time),370739.2999999523,139_m_f_d_a.png,O,m,868,12,1,1889.0,368850.2999999523,7745,VNB,A,11
12,test,4,0.0,1-Back,1.0,m,Fri Jan 16 2026 09:56:11 GMT-0600 (Central Standard Time),372572.89999985695,071_y_f_n_a.png,O,m,806,13,1,1823.8999998569489,370749.0,7745,VNB,A,12
13,test,4,0.0,1-Back,1.0,m,Fri Jan 16 2026 09:56:11 GMT-0600 (Central Standard Time),374537.69999980927,124_o_f_d_a.png,O,m,944,14,1,1953.7999999523163,372583.89999985695,7745,VNB,A,13
14,test,4,0.0,1-Back,1.0,m,Fri Jan 16 2026 09:56:11 GMT-0600 (Central Standard Time),376471.5,071_y_f_h_a.png,O,m,914,15,1,1926.8000001907349,374544.69999980927,7745,VNB,A,14
15,test,4,1.0,1-Back,1.0,z,Fri Jan 16 2026 09:56:11 GMT-0600 (Central Standard Time),378270.2999999523,165_m_m_h_a.png,O,z,780,16,1,1787.6000001430511,376482.69999980927,7745,VNB,A,15
16,test,4,0.0,1-Back,1.0,m,Fri Jan 16 2026 09:56:11 GMT-0600 (Central Standard Time),380137.7999999523,039_o_m_n_a.png,O,m,836,17,1,1855.7999999523163,378282.0,7745,VNB,A,16
17,test,4,1.0,1-Back,1.0,z,Fri Jan 16 2026 09:56:11 GMT-0600 (Central Standard Time),382003.09999990463,109_y_m_n_a.png,O,z,835,18,1,1859.0999999046326,380144.0,7745,VNB,A,17
0,test,5,1.0,1-Back,,,Fri Jan 16 2026 09:56:11 GMT-0600 (Central Standard Time),382003.09999990463,039_o_m_n_a.png,O,space,1345,1,1,1859.0999999046326,380144.0,7745,VNB,A,0
1,test,5,1.0,1-Back,1.0,m,Fri Jan 16 2026 09:56:11 GMT-0600 (Central Standard Time),386950.5,124_o_f_h_a.png,O,m,564,2,1,1570.6000001430511,385379.89999985695,7745,VNB,A,1
2,test,5,0.0,1-Back,1.0,m,Fri Jan 16 2026 09:56:11 GMT-0600 (Central Standard Time),388667.0,109_y_m_d_a.png,O,m,684,3,1,1705.6000001430511,386961.39999985695,7745,VNB,A,2
2,test,5,0.0,1-Back,0.0,z,Fri Jan 16 2026 09:56:11 GMT-0600 (Central Standard Time),390718.5,039_o_m_d_a.png,O,m,1035,4,1,2042.6000001430511,388675.89999985695,7745,VNB,A,3
3,test,5,0.0,1-Back,1.0,m,Fri Jan 16 2026 09:56:11 GMT-0600 (Central Standard Time),392585.7999999523,139_m_f_h_a.png,O,m,847,5,1,1857.1000001430511,390728.69999980927,7745,VNB,A,4
4,test,5,0.0,1-Back,1.0,m,Fri Jan 16 2026 09:56:11 GMT-0600 (Central Standard Time),394432.09999990463,071_y_f_n_a.png,O,m,829,6,1,1837.0999999046326,392595.0,7745,VNB,A,5
5,test,5,1.0,1-Back,1.0,z,Fri Jan 16 2026 09:56:11 GMT-0600 (Central Standard Time),396314.7999999523,124_o_f_n_a.png,O,z,851,7,1,1871.6000001430511,394443.19999980927,7745,VNB,A,6
6,test,5,0.0,1-Back,1.0,m,Fri Jan 16 2026 09:56:11 GMT-0600 (Central Standard Time),398131.19999980927,139_m_f_d_a.png,O,m,785,8,1,1806.8999998569489,396324.2999999523,7745,VNB,A,7
7,test,5,0.0,1-Back,1.0,m,Fri Jan 16 2026 09:56:11 GMT-0600 (Central Standard Time),400164.2999999523,109_y_m_h_a.png,O,m,999,9,1,2022.0,398142.2999999523,7745,VNB,A,8
8,test,5,0.0,1-Back,1.0,m,Fri Jan 16 2026 09:56:11 GMT-0600 (Central Standard Time),402181.2999999523,071_y_f_d_a.png,O,m,989,10,1,2008.1000001430511,400173.19999980927,7745,VNB,A,9
9,test,5,0.0,1-Back,1.0,m,Fri Jan 16 2026 09:56:11 GMT-0600 (Central Standard Time),404295.2999999523,165_m_m_n_a.png,O,m,1096,11,1,2103.100000143051,402192.19999980927,7745,VNB,A,10
10,test,5,1.0,1-Back,1.0,z,Fri Jan 16 2026 09:56:11 GMT-0600 (Central Standard Time),406179.09999990463,139_m_f_n_a.png,O,z,859,12,1,1874.0999999046326,404305.0,7745,VNB,A,11
11,test,5,0.0,1-Back,1.0,m,Fri Jan 16 2026 09:56:11 GMT-0600 (Central Standard Time),408011.0,039_o_m_h_a.png,O,m,799,13,1,1820.9000000953674,406190.09999990463,7745,VNB,A,12
12,test,5,0.0,1-Back,1.0,z,Fri Jan 16 2026 09:56:11 GMT-0600 (Central Standard Time),409944.0,165_m_m_h_a.png,O,z,904,14,1,1925.0,408019.0,7745,VNB,A,13
13,test,5,1.0,1-Back,1.0,m,Fri Jan 16 2026 09:56:11 GMT-0600 (Central Standard Time),411793.09999990463,124_o_f_d_a.png,O,m,819,15,1,1841.2999999523163,409951.7999999523,7745,VNB,A,14
13,test,5,0.0,1-Back,0.0,m,Fri Jan 16 2026 09:56:11 GMT-0600 (Central Standard Time),413644.69999980927,109_y_m_n_a.png,O,z,827,16,1,1841.1999998092651,411803.5,7745,VNB,A,15
14,test,5,0.0,1-Back,1.0,m,Fri Jan 16 2026 09:56:11 GMT-0600 (Central Standard Time),415808.39999985695,071_y_f_h_a.png,O,m,1145,17,1,2152.5,413655.89999985695,7745,VNB,A,16
15,test,5,0.0,1-Back,1.0,m,Fri Jan 16 2026 09:56:11 GMT-0600 (Central Standard Time),417791.69999980927,165_m_m_d_a.png,O,m,954,18,1,1973.5,415818.19999980927,7745,VNB,A,17
0,prac,1,0.0,2-Back,,,Fri Jan 16 2026 09:56:11 GMT-0600 (Central Standard Time),417791.69999980927,139_m_f_n_a.png,O,space,10582,1,1,1973.5,415818.19999980927,7745,VNB,A,0
0,prac,1,0.0,2-Back,,,Fri Jan 16 2026 09:56:11 GMT-0600 (Central Standard Time),417791.69999980927,124_o_f_h_a.png,O,space,10582,2,1,1973.5,415818.19999980927,7745,VNB,A,0
1,prac,1,0.0,2-Back,1.0,m,Fri Jan 16 2026 09:56:11 GMT-0600 (Central Standard Time),576392.399999857,039_o_m_d_a.png,O,m,589,3,1,1389.0,575003.399999857,7745,VNB,A,1
1,prac,1,1.0,2-Back,0.0,z,Fri Jan 16 2026 09:56:11 GMT-0600 (Central Standard Time),579211.2999999523,165_m_m_h_a.png,O,None,2013,4,1,2805.600000143051,576405.6999998093,7745,VNB,A,2
1,prac,1,0.0,2-Back,0.0,m,Fri Jan 16 2026 09:56:11 GMT-0600 (Central Standard Time),582023.2999999523,071_y_f_n_a.png,O,None,2011,5,1,2799.7999999523163,579223.5,7745,VNB,A,3
1,prac,1,1.0,2-Back,0.0,z,Fri Jan 16 2026 09:56:11 GMT-0600 (Central Standard Time),584006.0,039_o_m_h_a.png,O,m,1194,6,1,1972.7000000476837,582033.2999999523,7745,VNB,A,4
1,prac,1,1.0,2-Back,0.0,z,Fri Jan 16 2026 09:56:11 GMT-0600 (Central Standard Time),586238.2999999523,109_y_m_n_a.png,O,m,1416,7,1,2221.0,584017.2999999523,7745,VNB,A,5
1,prac,1,0.0,2-Back,0.0,m,Fri Jan 16 2026 09:56:11 GMT-0600 (Central Standard Time),588370.399999857,139_m_f_d_a.png,O,z,1312,8,1,2119.0,586251.399999857,7745,VNB,A,6
2,prac,1,0.0,2-Back,1.0,m,Fri Jan 16 2026 09:56:11 GMT-0600 (Central Standard Time),590686.5999999046,124_o_f_d_a.png,O,m,1502,9,1,2304.4000000953674,588382.1999998093,7745,VNB,A,7
2,prac,1,0.0,2-Back,0.0,m,Fri Jan 16 2026 09:56:11 GMT-0600 (Central Standard Time),593469.399999857,165_m_m_h_a.png,O,None,2008,10,1,2772.2999999523163,590697.0999999046,7745,VNB,A,8
2,prac,1,1.0,2-Back,0.0,z,Fri Jan 16 2026 09:56:11 GMT-0600 (Central Standard Time),596267.899999857,071_y_f_d_a.png,O,None,2004,11,1,2788.5999999046326,593479.2999999523,7745,VNB,A,9
2,prac,1,0.0,2-Back,0.0,m,Fri Jan 16 2026 09:56:11 GMT-0600 (Central Standard Time),599067.5999999046,039_o_m_n_a.png,O,None,2011,12,1,2788.7999999523163,596278.7999999523,7745,VNB,A,10
0,prac,2,0.0,2-Back,,,Fri Jan 16 2026 09:56:11 GMT-0600 (Central Standard Time),599067.5999999046,139_m_f_n_a.png,O,a,7556,1,1,2788.7999999523163,596278.7999999523,7745,VNB,A,0
0,prac,2,0.0,2-Back,,,Fri Jan 16 2026 09:56:11 GMT-0600 (Central Standard Time),599067.5999999046,124_o_f_h_a.png,O,a,7556,2,1,2788.7999999523163,596278.7999999523,7745,VNB,A,0
1,prac,2,0.0,2-Back,1.0,m,Fri Jan 16 2026 09:56:11 GMT-0600 (Central Standard Time),613811.7999999523,039_o_m_d_a.png,O,m,1261,3,1,2053.7000000476837,611758.0999999046,7745,VNB,A,1
2,prac,2,1.0,2-Back,1.0,z,Fri Jan 16 2026 09:56:11 GMT-0600 (Central Standard Time),615630.2999999523,165_m_m_h_a.png,O,z,1044,4,1,1806.4000000953674,613823.899999857,7745,VNB,A,2
3,prac,2,0.0,2-Back,1.0,m,Fri Jan 16 2026 09:56:11 GMT-0600 (Central Standard Time),617477.1999998093,071_y_f_n_a.png,O,m,1043,5,1,1833.6999998092651,615643.5,7745,VNB,A,3
4,prac,2,1.0,2-Back,1.0,z,Fri Jan 16 2026 09:56:11 GMT-0600 (Central Standard Time),619147.0999999046,039_o_m_h_a.png,O,z,860,6,1,1657.4000000953674,617489.6999998093,7745,VNB,A,4
4,prac,2,1.0,2-Back,0.0,z,Fri Jan 16 2026 09:56:11 GMT-0600 (Central Standard Time),621477.0999999046,109_y_m_n_a.png,O,m,1523,7,1,2321.7000000476837,619155.399999857,7745,VNB,A,5
5,prac,2,0.0,2-Back,1.0,m,Fri Jan 16 2026 09:56:11 GMT-0600 (Central Standard Time),623493.899999857,139_m_f_d_a.png,O,m,1222,8,1,2004.3999998569489,621489.5,7745,VNB,A,6
5,prac,2,0.0,2-Back,0.0,m,Fri Jan 16 2026 09:56:11 GMT-0600 (Central Standard Time),626324.899999857,124_o_f_d_a.png,O,None,2003,9,1,2816.2999999523163,623508.5999999046,7745,VNB,A,7
6,prac,2,0.0,2-Back,1.0,m,Fri Jan 16 2026 09:56:11 GMT-0600 (Central Standard Time),628308.399999857,165_m_m_h_a.png,O,m,1197,10,1,1972.2000000476837,626336.1999998093,7745,VNB,A,8
7,prac,2,1.0,2-Back,1.0,z,Fri Jan 16 2026 09:56:11 GMT-0600 (Central Standard Time),630158.7999999523,071_y_f_d_a.png,O,z,1047,11,1,1840.2000000476837,628318.5999999046,7745,VNB,A,9
8,prac,2,0.0,2-Back,1.0,m,Fri Jan 16 2026 09:56:11 GMT-0600 (Central Standard Time),632322.899999857,039_o_m_n_a.png,O,m,1353,12,1,2155.899999856949,630167.0,7745,VNB,A,10
0,test,1,0.0,2-Back,,,Fri Jan 16 2026 09:56:11 GMT-0600 (Central Standard Time),632322.899999857,109_y_m_h_a.png,O,space,7598,1,1,2155.899999856949,630167.0,7745,VNB,A,0
0,test,1,0.0,2-Back,,,Fri Jan 16 2026 09:56:11 GMT-0600 (Central Standard Time),632322.899999857,124_o_f_n_a.png,O,space,7598,2,1,2155.899999856949,630167.0,7745,VNB,A,0
1,test,1,0.0,2-Back,1.0,z,Fri Jan 16 2026 09:56:11 GMT-0600 (Central Standard Time),656448.6999998093,039_o_m_h_a.png,O,z,628,3,1,1639.5999999046326,654809.0999999046,7745,VNB,A,1
2,test,1,0.0,2-Back,1.0,m,Fri Jan 16 2026 09:56:11 GMT-0600 (Central Standard Time),658714.399999857,139_m_f_d_a.png,O,m,1233,4,1,2253.5,656460.899999857,7745,VNB,A,2
2,test,1,1.0,2-Back,0.0,m,Fri Jan 16 2026 09:56:11 GMT-0600 (Central Standard Time),660780.899999857,109_y_m_n_a.png,O,z,1033,5,1,2060.2000000476837,658720.6999998093,7745,VNB,A,3
2,test,1,0.0,2-Back,0.0,z,Fri Jan 16 2026 09:56:11 GMT-0600 (Central Standard Time),662979.2999999523,071_y_f_d_a.png,O,m,1174,6,1,2188.5,660790.7999999523,7745,VNB,A,4
2,test,1,0.0,2-Back,0.0,m,Fri Jan 16 2026 09:56:11 GMT-0600 (Central Standard Time),665062.0999999046,165_m_m_h_a.png,O,z,1053,7,1,2072.5999999046326,662989.5,7745,VNB,A,5
3,test,1,1.0,2-Back,1.0,m,Fri Jan 16 2026 09:56:11 GMT-0600 (Central Standard Time),667396.5999999046,071_y_f_n_a.png,O,m,1310,8,1,2324.4000000953674,665072.1999998093,7745,VNB,A,6
4,test,1,0.0,2-Back,1.0,z,Fri Jan 16 2026 09:56:11 GMT-0600 (Central Standard Time),670044.0,124_o_f_h_a.png,O,z,1632,9,1,2637.800000190735,667406.1999998093,7745,VNB,A,7
5,test,1,0.0,2-Back,1.0,m,Fri Jan 16 2026 09:56:11 GMT-0600 (Central Standard Time),672628.0999999046,039_o_m_d_a.png,O,m,1567,10,1,2574.5,670053.5999999046,7745,VNB,A,8
6,test,1,1.0,2-Back,1.0,m,Fri Jan 16 2026 09:56:11 GMT-0600 (Central Standard Time),675027.0999999046,165_m_m_d_a.png,O,m,1370,11,1,2390.0,672637.0999999046,7745,VNB,A,9
6,test,1,0.0,2-Back,0.0,m,Fri Jan 16 2026 09:56:11 GMT-0600 (Central Standard Time),677209.0,139_m_f_n_a.png,O,z,1154,12,1,2169.9000000953674,675039.0999999046,7745,VNB,A,10
7,test,1,0.0,2-Back,1.0,m,Fri Jan 16 2026 09:56:11 GMT-0600 (Central Standard Time),679524.5,071_y_f_h_a.png,O,m,1290,13,1,2305.0,677219.5,7745,VNB,A,11
7,test,1,0.0,2-Back,0.0,z,Fri Jan 16 2026 09:56:11 GMT-0600 (Central Standard Time),682190.2999999523,165_m_m_n_a.png,O,m,1638,14,1,2655.7000000476837,679534.5999999046,7745,VNB,A,12
8,test,1,0.0,2-Back,1.0,m,Fri Jan 16 2026 09:56:11 GMT-0600 (Central Standard Time),684989.5999999046,109_y_m_d_a.png,O,m,1764,15,1,2788.5,682201.0999999046,7745,VNB,A,13
8,test,1,1.0,2-Back,0.0,m,Fri Jan 16 2026 09:56:11 GMT-0600 (Central Standard Time),686889.1999998093,139_m_f_h_a.png,O,z,877,16,1,1888.8999998569489,685000.2999999523,7745,VNB,A,14
8,test,1,0.0,2-Back,0.0,z,Fri Jan 16 2026 09:56:11 GMT-0600 (Central Standard Time),689890.1999998093,124_o_f_d_a.png,O,m,1977,17,1,2990.5,686899.6999998093,7745,VNB,A,15
8,test,1,0.0,2-Back,0.0,m,Fri Jan 16 2026 09:56:11 GMT-0600 (Central Standard Time),691937.399999857,039_o_m_n_a.png,O,z,1019,18,1,2035.5,689901.899999857,7745,VNB,A,16
0,test,2,0.0,2-Back,,,Fri Jan 16 2026 09:56:11 GMT-0600 (Central Standard Time),691937.399999857,165_m_m_h_a.png,O,space,2634,1,1,2035.5,689901.899999857,7745,VNB,A,0
0,test,2,0.0,2-Back,,,Fri Jan 16 2026 09:56:11 GMT-0600 (Central Standard Time),691937.399999857,071_y_f_n_a.png,O,space,2634,2,1,2035.5,689901.899999857,7745,VNB,A,0
1,test,2,1.0,2-Back,1.0,z,Fri Jan 16 2026 09:56:11 GMT-0600 (Central Standard Time),701135.899999857,124_o_f_h_a.png,O,z,439,3,1,1455.0999999046326,699680.7999999523,7745,VNB,A,1
2,test,2,0.0,2-Back,1.0,m,Fri Jan 16 2026 09:56:11 GMT-0600 (Central Standard Time),703303.1999998093,039_o_m_d_a.png,O,m,1141,4,1,2156.2999999523163,701146.899999857,7745,VNB,A,2
3,test,2,0.0,2-Back,1.0,m,Fri Jan 16 2026 09:56:11 GMT-0600 (Central Standard Time),705749.1999998093,139_m_f_d_a.png,O,m,1429,5,1,2434.5,703314.6999998093,7745,VNB,A,3
3,test,2,0.0,2-Back,0.0,m,Fri Jan 16 2026 09:56:11 GMT-0600 (Central Standard Time),707899.5999999046,109_y_m_h_a.png,O,z,1116,6,1,2140.4000000953674,705759.1999998093,7745,VNB,A,4
4,test,2,0.0,2-Back,1.0,m,Fri Jan 16 2026 09:56:11 GMT-0600 (Central Standard Time),710248.6999998093,124_o_f_n_a.png,O,m,1320,7,1,2337.199999809265,707911.5,7745,VNB,A,5
5,test,2,1.0,2-Back,1.0,z,Fri Jan 16 2026 09:56:11 GMT-0600 (Central Standard Time),712247.899999857,039_o_m_h_a.png,O,z,980,8,1,1988.7000000476837,710259.1999998093,7745,VNB,A,6
5,test,2,0.0,2-Back,0.0,m,Fri Jan 16 2026 09:56:11 GMT-0600 (Central Standard Time),714580.0999999046,071_y_f_d_a.png,O,z,1315,9,1,2321.9000000953674,712258.1999998093,7745,VNB,A,7
6,test,2,0.0,2-Back,1.0,m,Fri Jan 16 2026 09:56:11 GMT-0600 (Central Standard Time),716912.5,109_y_m_d_a.png,O,m,1311,10,1,2324.800000190735,714587.6999998093,7745,VNB,A,8
6,test,2,0.0,2-Back,0.0,m,Fri Jan 16 2026 09:56:11 GMT-0600 (Central Standard Time),719047.6999998093,165_m_m_n_a.png,O,z,1104,11,1,2123.699999809265,716924.0,7745,VNB,A,9
6,test,2,0.0,2-Back,0.0,m,Fri Jan 16 2026 09:56:11 GMT-0600 (Central Standard Time),721244.0,139_m_f_h_a.png,O,z,1173,12,1,2186.2000000476837,719057.7999999523,7745,VNB,A,10
6,test,2,1.0,2-Back,0.0,z,Fri Jan 16 2026 09:56:11 GMT-0600 (Central Standard Time),723592.7999999523,039_o_m_n_a.png,O,m,1325,13,1,2337.7999999523163,721255.0,7745,VNB,A,11
7,test,2,0.0,2-Back,1.0,m,Fri Jan 16 2026 09:56:11 GMT-0600 (Central Standard Time),726009.0,124_o_f_d_a.png,O,m,1394,14,1,2404.4000000953674,723604.5999999046,7745,VNB,A,12
7,test,2,0.0,2-Back,0.0,m,Fri Jan 16 2026 09:56:11 GMT-0600 (Central Standard Time),728093.6999998093,071_y_f_h_a.png,O,z,1058,15,1,2075.699999809265,726018.0,7745,VNB,A,13
7,test,2,0.0,2-Back,0.0,z,Fri Jan 16 2026 09:56:11 GMT-0600 (Central Standard Time),730474.5999999046,165_m_m_d_a.png,O,m,1352,16,1,2370.2999999523163,728104.2999999523,7745,VNB,A,14
8,test,2,0.0,2-Back,1.0,m,Fri Jan 16 2026 09:56:11 GMT-0600 (Central Standard Time),732391.399999857,109_y_m_n_a.png,O,m,888,17,1,1906.0999999046326,730485.2999999523,7745,VNB,A,15
9,test,2,1.0,2-Back,1.0,m,Fri Jan 16 2026 09:56:11 GMT-0600 (Central Standard Time),734657.399999857,139_m_f_n_a.png,O,m,1237,18,1,2255.5,732401.899999857,7745,VNB,A,16
0,test,3,1.0,2-Back,,,Fri Jan 16 2026 09:56:11 GMT-0600 (Central Standard Time),734657.399999857,039_o_m_n_a.png,O,space,1450,1,1,2255.5,732401.899999857,7745,VNB,A,0
0,test,3,1.0,2-Back,,,Fri Jan 16 2026 09:56:11 GMT-0600 (Central Standard Time),734657.399999857,124_o_f_d_a.png,O,space,1450,2,1,2255.5,732401.899999857,7745,VNB,A,0
1,test,3,0.0,2-Back,1.0,m,Fri Jan 16 2026 09:56:11 GMT-0600 (Central Standard Time),742871.5,071_y_f_h_a.png,O,m,687,3,1,1704.5,741167.0,7745,VNB,A,1
1,test,3,0.0,2-Back,0.0,z,Fri Jan 16 2026 09:56:11 GMT-0600 (Central Standard Time),744921.2999999523,139_m_f_d_a.png,O,m,1030,4,1,2039.0,742882.2999999523,7745,VNB,A,2
1,test,3,1.0,2-Back,0.0,m,Fri Jan 16 2026 09:56:11 GMT-0600 (Central Standard Time),746920.5999999046,109_y_m_n_a.png,O,z,979,5,1,1989.7000000476837,744930.899999857,7745,VNB,A,3
2,test,3,0.0,2-Back,1.0,m,Fri Jan 16 2026 09:56:11 GMT-0600 (Central Standard Time),749218.7999999523,039_o_m_h_a.png,O,m,1275,6,1,2288.2000000476837,746930.5999999046,7745,VNB,A,4
3,test,3,0.0,2-Back,1.0,z,Fri Jan 16 2026 09:56:11 GMT-0600 (Central Standard Time),751468.7999999523,071_y_f_n_a.png,O,z,1232,7,1,2238.7999999523163,749230.0,7745,VNB,A,5
4,test,3,1.0,2-Back,1.0,m,Fri Jan 16 2026 09:56:11 GMT-0600 (Central Standard Time),753567.6999998093,165_m_m_d_a.png,O,m,1073,8,1,2087.5999999046326,751480.0999999046,7745,VNB,A,6
4,test,3,0.0,2-Back,0.0,m,Fri Jan 16 2026 09:56:11 GMT-0600 (Central Standard Time),755833.0999999046,109_y_m_d_a.png,O,z,1236,9,1,2254.5999999046326,753578.5,7745,VNB,A,7
5,test,3,0.0,2-Back,1.0,m,Fri Jan 16 2026 09:56:11 GMT-0600 (Central Standard Time),758534.399999857,124_o_f_h_a.png,O,m,1663,10,1,2690.5999999046326,755843.7999999523,7745,VNB,A,8
6,test,3,1.0,2-Back,1.0,m,Fri Jan 16 2026 09:56:11 GMT-0600 (Central Standard Time),760899.2999999523,139_m_f_n_a.png,O,m,1334,11,1,2355.600000143051,758543.6999998093,7745,VNB,A,9
6,test,3,1.0,2-Back,0.0,z,Fri Jan 16 2026 09:56:11 GMT-0600 (Central Standard Time),763498.0999999046,165_m_m_h_a.png,O,m,1578,12,1,2589.9000000953674,760908.1999998093,7745,VNB,A,10
7,test,3,0.0,2-Back,1.0,m,Fri Jan 16 2026 09:56:11 GMT-0600 (Central Standard Time),765462.6999998093,071_y_f_d_a.png,O,m,945,13,1,1955.2999999523163,763507.399999857,7745,VNB,A,11
7,test,3,0.0,2-Back,0.0,m,Fri Jan 16 2026 09:56:11 GMT-0600 (Central Standard Time),767296.0999999046,124_o_f_n_a.png,O,z,812,14,1,1825.7999999523163,765470.2999999523,7745,VNB,A,12
7,test,3,0.0,2-Back,0.0,z,Fri Jan 16 2026 09:56:11 GMT-0600 (Central Standard Time),769378.399999857,039_o_m_d_a.png,O,m,1050,15,1,2071.0,767307.399999857,7745,VNB,A,13
7,test,3,1.0,2-Back,0.0,m,Fri Jan 16 2026 09:56:11 GMT-0600 (Central Standard Time),771310.899999857,139_m_f_h_a.png,O,z,913,16,1,1924.5,769386.399999857,7745,VNB,A,14
7,test,3,0.0,2-Back,0.0,m,Fri Jan 16 2026 09:56:11 GMT-0600 (Central Standard Time),773811.0999999046,165_m_m_n_a.png,O,z,1477,17,1,2489.7999999523163,771321.2999999523,7745,VNB,A,15
7,test,3,0.0,2-Back,0.0,z,Fri Jan 16 2026 09:56:11 GMT-0600 (Central Standard Time),775911.0,109_y_m_h_a.png,O,m,1081,18,1,2091.100000143051,773819.899999857,7745,VNB,A,16
0,test,4,0.0,2-Back,,,Fri Jan 16 2026 09:56:11 GMT-0600 (Central Standard Time),775911.0,139_m_f_n_a.png,O,space,1253,1,1,2091.100000143051,773819.899999857,7745,VNB,A,0
0,test,4,0.0,2-Back,,,Fri Jan 16 2026 09:56:11 GMT-0600 (Central Standard Time),775911.0,039_o_m_n_a.png,O,space,1253,2,1,2091.100000143051,773819.899999857,7745,VNB,A,0
1,test,4,1.0,2-Back,1.0,m,Fri Jan 16 2026 09:56:11 GMT-0600 (Central Standard Time),784190.0,109_y_m_h_a.png,O,m,906,3,1,1917.7000000476837,782272.2999999523,7745,VNB,A,1
2,test,4,1.0,2-Back,1.0,m,Fri Jan 16 2026 09:56:11 GMT-0600 (Central Standard Time),786073.7999999523,124_o_f_d_a.png,O,m,860,4,1,1876.5,784197.2999999523,7745,VNB,A,2
2,test,4,0.0,2-Back,0.0,z,Fri Jan 16 2026 09:56:11 GMT-0600 (Central Standard Time),788290.0,039_o_m_h_a.png,O,m,1193,5,1,2205.600000143051,786084.399999857,7745,VNB,A,3
2,test,4,0.0,2-Back,0.0,m,Fri Jan 16 2026 09:56:11 GMT-0600 (Central Standard Time),790089.5999999046,165_m_m_n_a.png,O,z,779,6,1,1789.5999999046326,788300.0,7745,VNB,A,4
3,test,4,0.0,2-Back,1.0,m,Fri Jan 16 2026 09:56:11 GMT-0600 (Central Standard Time),792292.0,139_m_f_d_a.png,O,m,1170,7,1,2192.800000190735,790099.1999998093,7745,VNB,A,5
4,test,4,0.0,2-Back,1.0,z,Fri Jan 16 2026 09:56:11 GMT-0600 (Central Standard Time),794554.7999999523,071_y_f_n_a.png,O,z,1242,8,1,2252.9000000953674,792301.899999857,7745,VNB,A,6
5,test,4,1.0,2-Back,1.0,m,Fri Jan 16 2026 09:56:11 GMT-0600 (Central Standard Time),796670.899999857,124_o_f_h_a.png,O,m,1096,9,1,2106.5,794564.399999857,7745,VNB,A,7
5,test,4,0.0,2-Back,0.0,m,Fri Jan 16 2026 09:56:11 GMT-0600 (Central Standard Time),798885.7999999523,165_m_m_h_a.png,O,z,1189,10,1,2204.100000143051,796681.6999998093,7745,VNB,A,8
6,test,4,0.0,2-Back,1.0,m,Fri Jan 16 2026 09:56:11 GMT-0600 (Central Standard Time),800970.2999999523,071_y_f_d_a.png,O,m,1052,11,1,2075.2000000476837,798895.0999999046,7745,VNB,A,9
6,test,4,0.0,2-Back,0.0,m,Fri Jan 16 2026 09:56:11 GMT-0600 (Central Standard Time),803184.899999857,109_y_m_n_a.png,O,z,1195,12,1,2204.399999856949,800980.5,7745,VNB,A,10
6,test,4,0.0,2-Back,0.0,z,Fri Jan 16 2026 09:56:11 GMT-0600 (Central Standard Time),805384.5,039_o_m_d_a.png,O,m,1179,13,1,2187.800000190735,803196.6999998093,7745,VNB,A,11
6,test,4,1.0,2-Back,0.0,m,Fri Jan 16 2026 09:56:11 GMT-0600 (Central Standard Time),807383.7999999523,139_m_f_h_a.png,O,z,979,14,1,1990.1000001430511,805393.6999998093,7745,VNB,A,12
7,test,4,1.0,2-Back,1.0,m,Fri Jan 16 2026 09:56:11 GMT-0600 (Central Standard Time),809832.7999999523,071_y_f_h_a.png,O,m,1419,15,1,2438.7000000476837,807394.0999999046,7745,VNB,A,13
7,test,4,0.0,2-Back,0.0,m,Fri Jan 16 2026 09:56:11 GMT-0600 (Central Standard Time),811849.5,124_o_f_n_a.png,O,z,987,16,1,2006.5,809843.0,7745,VNB,A,14
8,test,4,0.0,2-Back,1.0,m,Fri Jan 16 2026 09:56:11 GMT-0600 (Central Standard Time),814131.5,109_y_m_d_a.png,O,m,1250,17,1,2272.4000000953674,811859.0999999046,7745,VNB,A,15
8,test,4,1.0,2-Back,0.0,m,Fri Jan 16 2026 09:56:11 GMT-0600 (Central Standard Time),816680.5,165_m_m_d_a.png,O,z,1520,18,1,2539.600000143051,814140.899999857,7745,VNB,A,16
0,test,5,1.0,2-Back,,,Fri Jan 16 2026 09:56:11 GMT-0600 (Central Standard Time),816680.5,071_y_f_d_a.png,O,space,1283,1,1,2539.600000143051,814140.899999857,7745,VNB,A,0
0,test,5,1.0,2-Back,,,Fri Jan 16 2026 09:56:11 GMT-0600 (Central Standard Time),816680.5,124_o_f_h_a.png,O,space,1283,2,1,2539.600000143051,814140.899999857,7745,VNB,A,0
1,test,5,1.0,2-Back,1.0,z,Fri Jan 16 2026 09:56:11 GMT-0600 (Central Standard Time),825194.5999999046,039_o_m_d_a.png,O,z,1108,3,1,2120.5,823074.0999999046,7745,VNB,A,1
1,test,5,1.0,2-Back,0.0,m,Fri Jan 16 2026 09:56:11 GMT-0600 (Central Standard Time),827445.5999999046,139_m_f_n_a.png,O,z,1225,4,1,2239.5999999046326,825206.0,7745,VNB,A,2
1,test,5,0.0,2-Back,0.0,m,Fri Jan 16 2026 09:56:11 GMT-0600 (Central Standard Time),830044.2999999523,165_m_m_h_a.png,O,z,1575,5,1,2587.100000143051,827457.1999998093,7745,VNB,A,3
1,test,5,0.0,2-Back,0.0,z,Fri Jan 16 2026 09:56:11 GMT-0600 (Central Standard Time),832359.0999999046,071_y_f_n_a.png,O,m,1289,6,1,2303.7000000476837,830055.399999857,7745,VNB,A,4
2,test,5,0.0,2-Back,1.0,m,Fri Jan 16 2026 09:56:11 GMT-0600 (Central Standard Time),834692.399999857,124_o_f_d_a.png,O,m,1309,7,1,2322.2000000476837,832370.1999998093,7745,VNB,A,5
2,test,5,0.0,2-Back,0.0,m,Fri Jan 16 2026 09:56:11 GMT-0600 (Central Standard Time),836908.7999999523,039_o_m_h_a.png,O,z,1191,8,1,2204.7000000476837,834704.0999999046,7745,VNB,A,6
2,test,5,1.0,2-Back,0.0,z,Fri Jan 16 2026 09:56:11 GMT-0600 (Central Standard Time),839108.2999999523,139_m_f_d_a.png,O,m,1175,9,1,2186.9000000953674,836921.399999857,7745,VNB,A,7
3,test,5,0.0,2-Back,1.0,m,Fri Jan 16 2026 09:56:11 GMT-0600 (Central Standard Time),841356.0,109_y_m_n_a.png,O,m,1212,10,1,2236.2000000476837,839119.7999999523,7745,VNB,A,8
3,test,5,0.0,2-Back,0.0,m,Fri Jan 16 2026 09:56:11 GMT-0600 (Central Standard Time),844071.0999999046,165_m_m_n_a.png,O,z,1695,11,1,2704.2000000476837,841366.899999857,7745,VNB,A,9
3,test,5,0.0,2-Back,0.0,m,Fri Jan 16 2026 09:56:11 GMT-0600 (Central Standard Time),846571.399999857,071_y_f_h_a.png,O,z,1475,12,1,2489.399999856949,844082.0,7745,VNB,A,10
4,test,5,0.0,2-Back,1.0,m,Fri Jan 16 2026 09:56:11 GMT-0600 (Central Standard Time),848822.0999999046,109_y_m_d_a.png,O,m,1216,13,1,2239.7999999523163,846582.2999999523,7745,VNB,A,11
5,test,5,1.0,2-Back,1.0,z,Fri Jan 16 2026 09:56:11 GMT-0600 (Central Standard Time),850885.899999857,139_m_f_h_a.png,O,z,1047,14,1,2052.5999999046326,848833.2999999523,7745,VNB,A,12
6,test,5,0.0,2-Back,1.0,m,Fri Jan 16 2026 09:56:11 GMT-0600 (Central Standard Time),853186.0999999046,039_o_m_n_a.png,O,m,1275,15,1,2289.2000000476837,850896.899999857,7745,VNB,A,13
6,test,5,0.0,2-Back,0.0,m,Fri Jan 16 2026 09:56:11 GMT-0600 (Central Standard Time),855418.5,165_m_m_d_a.png,O,z,1200,16,1,2223.100000143051,853195.399999857,7745,VNB,A,14
6,test,5,0.0,2-Back,0.0,z,Fri Jan 16 2026 09:56:11 GMT-0600 (Central Standard Time),857784.899999857,124_o_f_n_a.png,O,m,1336,17,1,2357.899999856949,855427.0,7745,VNB,A,15
6,test,5,1.0,2-Back,0.0,m,Fri Jan 16 2026 09:56:11 GMT-0600 (Central Standard Time),860101.5999999046,109_y_m_h_a.png,O,z,1300,18,1,2306.2999999523163,857795.2999999523,7745,VNB,A,16
