block_c,block_dur,condition,countdown,datetime,endtime,list,multichar_response,project,response,response_time,session_number,start_end,starttime,subject_id,task,task_vers,trial
,,,,Fri May 16 2025 15:33:10 GMT-0500 (Central Daylight Time),,,,O,space,206,1,,,7138,WL,A,
prac,,0,,Fri May 16 2025 15:33:10 GMT-0500 (Central Daylight Time),,NA,enter,O,enter,7575,1,,,7138,WL,A,1.0
1,4.773000001907349,learn,55226.99999809265,Fri May 16 2025 15:33:10 GMT-0500 (Central Daylight Time),165659.89999999944,A,b,O,b,4755,1,4772.5,160887.39999999944,7138,WL,A,1.0
1,4.998999834060669,learn,55001.00016593933,Fri May 16 2025 15:33:10 GMT-0500 (Central Daylight Time),165885.7999999998,A,bo,O,o,206,1,4998.4000000003725,160887.39999999944,7138,WL,A,1.0
1,5.115000009536743,learn,54884.99999046326,Fri May 16 2025 15:33:10 GMT-0500 (Central Daylight Time),166002.2999999998,A,boo,O,o,109,1,5114.9000000003725,160887.39999999944,7138,WL,A,1.0
1,5.382999897003174,learn,54617.000102996826,Fri May 16 2025 15:33:10 GMT-0500 (Central Daylight Time),166269.39999999944,A,book,O,k,256,1,5382.0,160887.39999999944,7138,WL,A,1.0
1,15.527999877929688,learn,44472.00012207031,Fri May 16 2025 15:33:10 GMT-0500 (Central Daylight Time),176415.2000000002,A,bookenter,O,enter,10125,1,15527.800000000745,160887.39999999944,7138,WL,A,1.0
1,17.061999797821045,learn,42938.000202178955,Fri May 16 2025 15:33:10 GMT-0500 (Central Daylight Time),177949.39999999944,A,f,O,f,1523,1,1533.8999999994412,176415.5,7138,WL,A,2.0
1,17.210999965667725,learn,42789.000034332275,Fri May 16 2025 15:33:10 GMT-0500 (Central Daylight Time),178098.2999999998,A,fl,O,l,141,1,1682.7999999998137,176415.5,7138,WL,A,2.0
1,17.444999933242798,learn,42555.0000667572,Fri May 16 2025 15:33:10 GMT-0500 (Central Daylight Time),178331.59999999963,A,flo,O,o,225,1,1916.0999999996275,176415.5,7138,WL,A,2.0
1,17.59500002861023,learn,42404.99997138977,Fri May 16 2025 15:33:10 GMT-0500 (Central Daylight Time),178481.5,A,flow,O,w,143,1,2066.0,176415.5,7138,WL,A,2.0
1,17.67899990081787,learn,42321.00009918213,Fri May 16 2025 15:33:10 GMT-0500 (Central Daylight Time),178565.5,A,flowe,O,e,73,1,2150.0,176415.5,7138,WL,A,2.0
1,17.777999877929688,learn,42222.00012207031,Fri May 16 2025 15:33:10 GMT-0500 (Central Daylight Time),178664.7000000002,A,flower,O,r,85,1,2249.2000000001863,176415.5,7138,WL,A,2.0
1,18.110999822616577,learn,41889.00017738342,Fri May 16 2025 15:33:10 GMT-0500 (Central Daylight Time),178998.0,A,flowerenter,O,enter,314,1,2582.5,176415.5,7138,WL,A,2.0
1,19.376999855041504,learn,40623.000144958496,Fri May 16 2025 15:33:10 GMT-0500 (Central Daylight Time),180264.2999999998,A,t,O,t,1253,1,1266.0999999996275,178998.2000000002,7138,WL,A,3.0
1,19.57699990272522,learn,40423.00009727478,Fri May 16 2025 15:33:10 GMT-0500 (Central Daylight Time),180464.09999999963,A,tr,O,r,178,1,1465.8999999994412,178998.2000000002,7138,WL,A,3.0
1,19.676999807357788,learn,40323.00019264221,Fri May 16 2025 15:33:10 GMT-0500 (Central Daylight Time),180564.2999999998,A,tra,O,a,82,1,1566.0999999996275,178998.2000000002,7138,WL,A,3.0
1,19.792999982833862,learn,40207.00001716614,Fri May 16 2025 15:33:10 GMT-0500 (Central Daylight Time),180680.5,A,trai,O,i,111,1,1682.2999999998137,178998.2000000002,7138,WL,A,3.0
1,19.959999799728394,learn,40040.00020027161,Fri May 16 2025 15:33:10 GMT-0500 (Central Daylight Time),180847.7000000002,A,train,O,n,162,1,1849.5,178998.2000000002,7138,WL,A,3.0
1,20.292999982833862,learn,39707.00001716614,Fri May 16 2025 15:33:10 GMT-0500 (Central Daylight Time),181180.7999999998,A,trainenter,O,enter,323,1,2182.5999999996275,178998.2000000002,7138,WL,A,3.0
1,21.993000030517578,learn,38006.99996948242,Fri May 16 2025 15:33:10 GMT-0500 (Central Daylight Time),182880.59999999963,A,r,O,r,1687,1,1699.5999999996275,181181.0,7138,WL,A,4.0
1,22.15999984741211,learn,37840.00015258789,Fri May 16 2025 15:33:10 GMT-0500 (Central Daylight Time),183047.09999999963,A,ra,O,a,154,1,1866.0999999996275,181181.0,7138,WL,A,4.0
1,22.325999975204468,learn,37674.00002479553,Fri May 16 2025 15:33:10 GMT-0500 (Central Daylight Time),183213.39999999944,A,rat,O,t,156,1,2032.3999999994412,181181.0,7138,WL,A,4.0
1,22.542999982833862,learn,37457.00001716614,Fri May 16 2025 15:33:10 GMT-0500 (Central Daylight Time),183430.09999999963,A,ratt,O,t,198,1,2249.0999999996275,181181.0,7138,WL,A,4.0
1,22.926999807357788,learn,37073.00019264221,Fri May 16 2025 15:33:10 GMT-0500 (Central Daylight Time),183814.0,A,rattl,O,l,373,1,2633.0,181181.0,7138,WL,A,4.0
1,23.042999982833862,learn,36957.00001716614,Fri May 16 2025 15:33:10 GMT-0500 (Central Daylight Time),183930.7999999998,A,rattle,O,e,109,1,2749.7999999998137,181181.0,7138,WL,A,4.0
1,23.358999967575073,learn,36641.00003242493,Fri May 16 2025 15:33:10 GMT-0500 (Central Daylight Time),184246.2999999998,A,rattleenter,O,enter,304,1,3065.2999999998137,181181.0,7138,WL,A,4.0
1,23.89299988746643,learn,36107.00011253357,Fri May 16 2025 15:33:10 GMT-0500 (Central Daylight Time),184780.39999999944,A,g,O,g,525,1,533.7999999998137,184246.59999999963,7138,WL,A,5.0
1,24.026000022888184,learn,35973.99997711182,Fri May 16 2025 15:33:10 GMT-0500 (Central Daylight Time),184913.2999999998,A,go,O,o,127,1,666.7000000001863,184246.59999999963,7138,WL,A,5.0
1,24.22499990463257,learn,35775.00009536743,Fri May 16 2025 15:33:10 GMT-0500 (Central Daylight Time),185112.5,A,gol,O,l,194,1,865.9000000003725,184246.59999999963,7138,WL,A,5.0
1,24.30999994277954,learn,35690.00005722046,Fri May 16 2025 15:33:10 GMT-0500 (Central Daylight Time),185196.89999999944,A,gold,O,d,66,1,950.2999999998137,184246.59999999963,7138,WL,A,5.0
1,24.557999849319458,learn,35442.00015068054,Fri May 16 2025 15:33:10 GMT-0500 (Central Daylight Time),185445.7999999998,A,goldenter,O,enter,238,1,1199.2000000001863,184246.59999999963,7138,WL,A,5.0
1,28.243000030517578,learn,31756.999969482422,Fri May 16 2025 15:33:10 GMT-0500 (Central Daylight Time),189130.0,A,m,O,m,3670,1,3684.0,185446.0,7138,WL,A,6.0
1,28.342999935150146,learn,31657.000064849854,Fri May 16 2025 15:33:10 GMT-0500 (Central Daylight Time),189230.39999999944,A,me,O,e,86,1,3784.399999999441,185446.0,7138,WL,A,6.0
1,28.526000022888184,learn,31473.999977111816,Fri May 16 2025 15:33:10 GMT-0500 (Central Daylight Time),189412.89999999944,A,mea,O,a,164,1,3966.899999999441,185446.0,7138,WL,A,6.0
1,28.723999977111816,learn,31276.000022888184,Fri May 16 2025 15:33:10 GMT-0500 (Central Daylight Time),189611.59999999963,A,mead,O,d,191,1,4165.5999999996275,185446.0,7138,WL,A,6.0
1,29.056999921798706,learn,30943.000078201294,Fri May 16 2025 15:33:10 GMT-0500 (Central Daylight Time),189944.39999999944,A,meado,O,o,328,1,4498.399999999441,185446.0,7138,WL,A,6.0
1,29.223999977111816,learn,30776.000022888184,Fri May 16 2025 15:33:10 GMT-0500 (Central Daylight Time),190111.0,A,meadow,O,w,154,1,4665.0,185446.0,7138,WL,A,6.0
1,29.5239999294281,learn,30476.0000705719,Fri May 16 2025 15:33:10 GMT-0500 (Central Daylight Time),190411.5,A,meadowenter,O,enter,284,1,4965.5,185446.0,7138,WL,A,6.0
1,39.82099986076355,learn,20179.00013923645,Fri May 16 2025 15:33:10 GMT-0500 (Central Daylight Time),200707.89999999944,A,f,O,f,10288,1,10296.199999999255,190411.7000000002,7138,WL,A,7.0
1,40.038999795913696,learn,19961.000204086304,Fri May 16 2025 15:33:10 GMT-0500 (Central Daylight Time),200926.09999999963,A,fi,O,i,198,1,10514.399999999441,190411.7000000002,7138,WL,A,7.0
1,40.103999853134155,learn,19896.000146865845,Fri May 16 2025 15:33:10 GMT-0500 (Central Daylight Time),200991.2000000002,A,fin,O,n,52,1,10579.5,190411.7000000002,7138,WL,A,7.0
1,40.22000002861023,learn,19779.99997138977,Fri May 16 2025 15:33:10 GMT-0500 (Central Daylight Time),201107.5,A,fing,O,g,100,1,10695.799999999814,190411.7000000002,7138,WL,A,7.0
1,40.3529999256134,learn,19647.000074386597,Fri May 16 2025 15:33:10 GMT-0500 (Central Daylight Time),201240.7999999998,A,finge,O,e,129,1,10829.099999999627,190411.7000000002,7138,WL,A,7.0
1,40.47099995613098,learn,19529.00004386902,Fri May 16 2025 15:33:10 GMT-0500 (Central Daylight Time),201358.09999999963,A,finger,O,r,107,1,10946.399999999441,190411.7000000002,7138,WL,A,7.0
1,40.75399994850159,learn,19246.000051498413,Fri May 16 2025 15:33:10 GMT-0500 (Central Daylight Time),201641.09999999963,A,fingerenter,O,enter,269,1,11229.399999999441,190411.7000000002,7138,WL,A,7.0
1,58.38199996948242,learn,1618.0000305175781,Fri May 16 2025 15:33:10 GMT-0500 (Central Daylight Time),219269.7000000002,A,b,O,b,17610,1,17628.300000000745,201641.39999999944,7138,WL,A,8.0
1,59.33099985122681,learn,669.0001487731934,Fri May 16 2025 15:33:10 GMT-0500 (Central Daylight Time),220218.0,A,bu,O,u,941,1,18576.60000000056,201641.39999999944,7138,WL,A,8.0
1,59.763999938964844,learn,236.00006103515625,Fri May 16 2025 15:33:10 GMT-0500 (Central Daylight Time),220651.59999999963,A,but,O,t,425,1,19010.200000000186,201641.39999999944,7138,WL,A,8.0
1,59.930999994277954,learn,69.0000057220459,Fri May 16 2025 15:33:10 GMT-0500 (Central Daylight Time),220818.2000000002,A,butt,O,t,151,1,19176.800000000745,201641.39999999944,7138,WL,A,8.0
1,60.013999938964844,learn,-13.99993896484375,Fri May 16 2025 15:33:10 GMT-0500 (Central Daylight Time),220901.7000000002,A,buttNone,O,None,80,1,19260.300000000745,201641.39999999944,7138,WL,A,8.0
2,1.1500000953674316,learn,58849.99990463257,Fri May 16 2025 15:33:10 GMT-0500 (Central Daylight Time),291079.89999999944,A,b,O,b,1130,1,1149.3999999994412,289930.5,7138,WL,A,1.0
2,1.3330001831054688,learn,58666.99981689453,Fri May 16 2025 15:33:10 GMT-0500 (Central Daylight Time),291263.0,A,bo,O,o,164,1,1332.5,289930.5,7138,WL,A,1.0
2,1.4820001125335693,learn,58517.99988746643,Fri May 16 2025 15:33:10 GMT-0500 (Central Daylight Time),291412.0999999996,A,boo,O,o,140,1,1481.5999999996275,289930.5,7138,WL,A,1.0
2,1.7160000801086426,learn,58283.99991989136,Fri May 16 2025 15:33:10 GMT-0500 (Central Daylight Time),291645.39999999944,A,book,O,k,215,1,1714.8999999994412,289930.5,7138,WL,A,1.0
2,2.616000175476074,learn,57383.999824523926,Fri May 16 2025 15:33:10 GMT-0500 (Central Daylight Time),292545.5999999996,A,bookenter,O,enter,887,1,2615.0999999996275,289930.5,7138,WL,A,1.0
2,4.9150002002716064,learn,55084.99979972839,Fri May 16 2025 15:33:10 GMT-0500 (Central Daylight Time),294844.7999999998,A,r,O,r,2282,1,2298.7999999998137,292546.0,7138,WL,A,2.0
2,5.115000009536743,learn,54884.99999046326,Fri May 16 2025 15:33:10 GMT-0500 (Central Daylight Time),295044.5,A,ru,O,u,183,1,2498.5,292546.0,7138,WL,A,2.0
2,5.2820000648498535,learn,54717.99993515015,Fri May 16 2025 15:33:10 GMT-0500 (Central Daylight Time),295211.5,A,rug,O,g,160,1,2665.5,292546.0,7138,WL,A,2.0
2,5.765000104904175,learn,54234.999895095825,Fri May 16 2025 15:33:10 GMT-0500 (Central Daylight Time),295694.7999999998,A,rugenter,O,enter,472,1,3148.7999999998137,292546.0,7138,WL,A,2.0
2,7.13100004196167,learn,52868.99995803833,Fri May 16 2025 15:33:10 GMT-0500 (Central Daylight Time),297060.5999999996,A,t,O,t,1358,1,1365.5,295695.0999999996,7138,WL,A,3.0
2,7.264000177383423,learn,52735.99982261658,Fri May 16 2025 15:33:10 GMT-0500 (Central Daylight Time),297193.5999999996,A,tr,O,r,127,1,1498.5,295695.0999999996,7138,WL,A,3.0
2,7.383000135421753,learn,52616.99986457825,Fri May 16 2025 15:33:10 GMT-0500 (Central Daylight Time),297312.7000000002,A,tra,O,a,115,1,1617.6000000005588,295695.0999999996,7138,WL,A,3.0
2,7.565000057220459,learn,52434.99994277954,Fri May 16 2025 15:33:10 GMT-0500 (Central Daylight Time),297494.7999999998,A,trai,O,i,163,1,1799.7000000001863,295695.0999999996,7138,WL,A,3.0
2,7.664000034332275,learn,52335.999965667725,Fri May 16 2025 15:33:10 GMT-0500 (Central Daylight Time),297593.7999999998,A,train,O,n,85,1,1898.7000000001863,295695.0999999996,7138,WL,A,3.0
2,8.11300015449524,learn,51886.99984550476,Fri May 16 2025 15:33:10 GMT-0500 (Central Daylight Time),298043.2999999998,A,trainenter,O,enter,434,1,2348.2000000001863,295695.0999999996,7138,WL,A,3.0
2,9.21399998664856,learn,50786.00001335144,Fri May 16 2025 15:33:10 GMT-0500 (Central Daylight Time),299143.5,A,g,O,g,1096,1,1099.9000000003725,298043.5999999996,7138,WL,A,4.0
2,9.36300015449524,learn,50636.99984550476,Fri May 16 2025 15:33:10 GMT-0500 (Central Daylight Time),299293.39999999944,A,go,O,o,132,1,1249.7999999998137,298043.5999999996,7138,WL,A,4.0
2,9.564000129699707,learn,50435.99987030029,Fri May 16 2025 15:33:10 GMT-0500 (Central Daylight Time),299494.2000000002,A,gol,O,l,182,1,1450.6000000005588,298043.5999999996,7138,WL,A,4.0
2,9.646000146865845,learn,50353.999853134155,Fri May 16 2025 15:33:10 GMT-0500 (Central Daylight Time),299576.2999999998,A,gold,O,d,70,1,1532.7000000001863,298043.5999999996,7138,WL,A,4.0
2,9.946000099182129,learn,50053.99990081787,Fri May 16 2025 15:33:10 GMT-0500 (Central Daylight Time),299876.39999999944,A,goldenter,O,enter,283,1,1832.7999999998137,298043.5999999996,7138,WL,A,4.0
2,10.463000059127808,learn,49536.99994087219,Fri May 16 2025 15:33:10 GMT-0500 (Central Daylight Time),300393.2000000002,A,r,O,r,510,1,516.5,299876.7000000002,7138,WL,A,5.0
2,10.629000186920166,learn,49370.999813079834,Fri May 16 2025 15:33:10 GMT-0500 (Central Daylight Time),300559.2999999998,A,ra,O,a,146,1,682.5999999996275,299876.7000000002,7138,WL,A,5.0
2,10.763000011444092,learn,49236.99998855591,Fri May 16 2025 15:33:10 GMT-0500 (Central Daylight Time),300693.5999999996,A,rat,O,t,116,1,816.8999999994412,299876.7000000002,7138,WL,A,5.0
2,11.229000091552734,learn,48770.999908447266,Fri May 16 2025 15:33:10 GMT-0500 (Central Daylight Time),301159.7000000002,A,ratt,O,t,455,1,1283.0,299876.7000000002,7138,WL,A,5.0
2,11.462000131607056,learn,48537.999868392944,Fri May 16 2025 15:33:10 GMT-0500 (Central Daylight Time),301392.5999999996,A,rattl,O,l,221,1,1515.8999999994412,299876.7000000002,7138,WL,A,5.0
2,11.59600019454956,learn,48403.99980545044,Fri May 16 2025 15:33:10 GMT-0500 (Central Daylight Time),301526.7999999998,A,rattle,O,e,115,1,1650.0999999996275,299876.7000000002,7138,WL,A,5.0
2,12.029000043869019,learn,47970.99995613098,Fri May 16 2025 15:33:10 GMT-0500 (Central Daylight Time),301959.0999999996,A,rattleenter,O,enter,421,1,2082.399999999441,299876.7000000002,7138,WL,A,5.0
2,12.545000076293945,learn,47454.999923706055,Fri May 16 2025 15:33:10 GMT-0500 (Central Daylight Time),302475.39999999944,A,m,O,m,509,1,516.0,301959.39999999944,7138,WL,A,6.0
2,12.729000091552734,learn,47270.999908447266,Fri May 16 2025 15:33:10 GMT-0500 (Central Daylight Time),302659.2000000002,A,me,O,e,176,1,699.8000000007451,301959.39999999944,7138,WL,A,6.0
2,12.879000186920166,learn,47120.999813079834,Fri May 16 2025 15:33:10 GMT-0500 (Central Daylight Time),302809.2000000002,A,mea,O,a,136,1,849.8000000007451,301959.39999999944,7138,WL,A,6.0
2,13.09500002861023,learn,46904.99997138977,Fri May 16 2025 15:33:10 GMT-0500 (Central Daylight Time),303025.39999999944,A,mead,O,d,203,1,1066.0,301959.39999999944,7138,WL,A,6.0
2,13.446000099182129,learn,46553.99990081787,Fri May 16 2025 15:33:10 GMT-0500 (Central Daylight Time),303376.0,A,meado,O,o,347,1,1416.6000000005588,301959.39999999944,7138,WL,A,6.0
2,13.57800006866455,learn,46421.99993133545,Fri May 16 2025 15:33:10 GMT-0500 (Central Daylight Time),303508.5,A,meadow,O,w,124,1,1549.1000000005588,301959.39999999944,7138,WL,A,6.0
2,13.91100001335144,learn,46088.99998664856,Fri May 16 2025 15:33:10 GMT-0500 (Central Daylight Time),303841.7999999998,A,meadowenter,O,enter,319,1,1882.4000000003725,301959.39999999944,7138,WL,A,6.0
2,14.229000091552734,learn,45770.999908447266,Fri May 16 2025 15:33:10 GMT-0500 (Central Daylight Time),304159.2999999998,A,c,O,c,306,1,317.29999999981374,303842.0,7138,WL,A,7.0
2,14.361999988555908,learn,45638.00001144409,Fri May 16 2025 15:33:10 GMT-0500 (Central Daylight Time),304292.2000000002,A,ch,O,h,125,1,450.20000000018626,303842.0,7138,WL,A,7.0
2,14.461000204086304,learn,45538.999795913696,Fri May 16 2025 15:33:10 GMT-0500 (Central Daylight Time),304391.7999999998,A,chi,O,i,87,1,549.7999999998137,303842.0,7138,WL,A,7.0
2,14.74400019645691,learn,45255.99980354309,Fri May 16 2025 15:33:10 GMT-0500 (Central Daylight Time),304674.5,A,chim,O,m,268,1,832.5,303842.0,7138,WL,A,7.0
2,14.894000053405762,learn,45105.99994659424,Fri May 16 2025 15:33:10 GMT-0500 (Central Daylight Time),304824.7999999998,A,chime,O,e,138,1,982.7999999998137,303842.0,7138,WL,A,7.0
2,15.045000076293945,learn,44954.999923706055,Fri May 16 2025 15:33:10 GMT-0500 (Central Daylight Time),304975.0999999996,A,chimen,O,n,131,1,1133.0999999996275,303842.0,7138,WL,A,7.0
2,15.961000204086304,learn,44038.999795913696,Fri May 16 2025 15:33:10 GMT-0500 (Central Daylight Time),305891.0,A,chime,O,backspace,900,1,2049.0,303842.0,7138,WL,A,7.0
2,16.111000061035156,learn,43888.999938964844,Fri May 16 2025 15:33:10 GMT-0500 (Central Daylight Time),306041.7000000002,A,chim,O,backspace,137,1,2199.7000000001863,303842.0,7138,WL,A,7.0
2,16.496000051498413,learn,43503.99994850159,Fri May 16 2025 15:33:10 GMT-0500 (Central Daylight Time),306426.5,A,chimn,O,n,370,1,2584.5,303842.0,7138,WL,A,7.0
2,17.044000148773193,learn,42955.99985122681,Fri May 16 2025 15:33:10 GMT-0500 (Central Daylight Time),306974.2000000002,A,chimne,O,e,537,1,3132.2000000001863,303842.0,7138,WL,A,7.0
2,17.228000164031982,learn,42771.99983596802,Fri May 16 2025 15:33:10 GMT-0500 (Central Daylight Time),307158.5999999996,A,chimney,O,y,173,1,3316.5999999996275,303842.0,7138,WL,A,7.0
2,18.16000008583069,learn,41839.99991416931,Fri May 16 2025 15:33:10 GMT-0500 (Central Daylight Time),308090.39999999944,A,chimneyenter,O,enter,925,1,4248.399999999441,303842.0,7138,WL,A,7.0
2,23.675000190734863,learn,36324.99980926514,Fri May 16 2025 15:33:10 GMT-0500 (Central Daylight Time),313605.0,A,g,O,g,5497,1,5514.4000000003725,308090.5999999996,7138,WL,A,8.0
2,23.808000087738037,learn,36191.99991226196,Fri May 16 2025 15:33:10 GMT-0500 (Central Daylight Time),313738.2999999998,A,go,O,o,118,1,5647.700000000186,308090.5999999996,7138,WL,A,8.0
2,24.008000135421753,learn,35991.99986457825,Fri May 16 2025 15:33:10 GMT-0500 (Central Daylight Time),313938.39999999944,A,gol,O,l,193,1,5847.799999999814,308090.5999999996,7138,WL,A,8.0
2,24.109000205993652,learn,35890.99979400635,Fri May 16 2025 15:33:10 GMT-0500 (Central Daylight Time),314039.2999999998,A,gold,O,d,97,1,5948.700000000186,308090.5999999996,7138,WL,A,8.0
2,24.45800018310547,learn,35541.99981689453,Fri May 16 2025 15:33:10 GMT-0500 (Central Daylight Time),314388.5,A,goldenter,O,enter,332,1,6297.9000000003725,308090.5999999996,7138,WL,A,8.0
2,31.189000129699707,learn,28810.999870300293,Fri May 16 2025 15:33:10 GMT-0500 (Central Daylight Time),321119.5,A,b,O,b,6719,1,6730.9000000003725,314388.5999999996,7138,WL,A,9.0
2,31.33899998664856,learn,28661.00001335144,Fri May 16 2025 15:33:10 GMT-0500 (Central Daylight Time),321269.7999999998,A,bu,O,u,140,1,6881.200000000186,314388.5999999996,7138,WL,A,9.0
2,31.48900008201599,learn,28510.99991798401,Fri May 16 2025 15:33:10 GMT-0500 (Central Daylight Time),321419.2999999998,A,but,O,t,142,1,7030.700000000186,314388.5999999996,7138,WL,A,9.0
2,31.67300009727478,learn,28326.99990272522,Fri May 16 2025 15:33:10 GMT-0500 (Central Daylight Time),321603.7000000002,A,butt,O,t,176,1,7215.100000000559,314388.5999999996,7138,WL,A,9.0
2,31.823000192642212,learn,28176.999807357788,Fri May 16 2025 15:33:10 GMT-0500 (Central Daylight Time),321753.0999999996,A,butto,O,o,146,1,7364.5,314388.5999999996,7138,WL,A,9.0
2,32.039000034332275,learn,27960.999965667725,Fri May 16 2025 15:33:10 GMT-0500 (Central Daylight Time),321969.0999999996,A,button,O,n,203,1,7580.5,314388.5999999996,7138,WL,A,9.0
2,32.371999979019165,learn,27628.000020980835,Fri May 16 2025 15:33:10 GMT-0500 (Central Daylight Time),322302.7000000002,A,buttonenter,O,enter,315,1,7914.100000000559,314388.5999999996,7138,WL,A,9.0
2,36.88800001144409,learn,23111.99998855591,Fri May 16 2025 15:33:10 GMT-0500 (Central Daylight Time),326817.89999999944,A,r,O,r,4502,1,4515.0,322302.89999999944,7138,WL,A,10.0
2,37.03700017929077,learn,22962.99982070923,Fri May 16 2025 15:33:10 GMT-0500 (Central Daylight Time),326967.5,A,ra,O,a,130,1,4664.600000000559,322302.89999999944,7138,WL,A,10.0
2,37.18900012969971,learn,22810.999870300293,Fri May 16 2025 15:33:10 GMT-0500 (Central Daylight Time),327119.2999999998,A,rat,O,t,132,1,4816.4000000003725,322302.89999999944,7138,WL,A,10.0
2,37.38700008392334,learn,22612.99991607666,Fri May 16 2025 15:33:10 GMT-0500 (Central Daylight Time),327317.5,A,ratt,O,t,180,1,5014.600000000559,322302.89999999944,7138,WL,A,10.0
2,37.62100005149841,learn,22378.999948501587,Fri May 16 2025 15:33:10 GMT-0500 (Central Daylight Time),327551.7000000002,A,rattl,O,l,230,1,5248.800000000745,322302.89999999944,7138,WL,A,10.0
2,37.754000186920166,learn,22245.999813079834,Fri May 16 2025 15:33:10 GMT-0500 (Central Daylight Time),327684.2999999998,A,rattle,O,e,116,1,5381.4000000003725,322302.89999999944,7138,WL,A,10.0
2,37.98699998855591,learn,22013.00001144409,Fri May 16 2025 15:33:10 GMT-0500 (Central Daylight Time),327917.5999999996,A,rattleenter,O,enter,223,1,5614.700000000186,322302.89999999944,7138,WL,A,10.0
2,45.26800012588501,learn,14731.99987411499,Fri May 16 2025 15:33:10 GMT-0500 (Central Daylight Time),335198.39999999944,A,b,O,b,7263,1,7280.699999999255,327917.7000000002,7138,WL,A,11.0
2,45.48400020599365,learn,14515.999794006348,Fri May 16 2025 15:33:10 GMT-0500 (Central Daylight Time),335414.89999999944,A,bu,O,u,205,1,7497.199999999255,327917.7000000002,7138,WL,A,11.0
2,45.7020001411438,learn,14297.999858856201,Fri May 16 2025 15:33:10 GMT-0500 (Central Daylight Time),335632.0,A,but,O,t,206,1,7714.299999999814,327917.7000000002,7138,WL,A,11.0
2,45.8030002117157,learn,14196.999788284302,Fri May 16 2025 15:33:10 GMT-0500 (Central Daylight Time),335733.2000000002,A,butt,O,t,93,1,7815.5,327917.7000000002,7138,WL,A,11.0
2,46.03400015830994,learn,13965.999841690063,Fri May 16 2025 15:33:10 GMT-0500 (Central Daylight Time),335964.89999999944,A,butto,O,o,222,1,8047.199999999255,327917.7000000002,7138,WL,A,11.0
2,46.23400020599365,learn,13765.999794006348,Fri May 16 2025 15:33:10 GMT-0500 (Central Daylight Time),336164.5999999996,A,button,O,n,192,1,8246.899999999441,327917.7000000002,7138,WL,A,11.0
2,46.68400001525879,learn,13315.999984741211,Fri May 16 2025 15:33:10 GMT-0500 (Central Daylight Time),336614.7000000002,A,buttonenter,O,enter,431,1,8697.0,327917.7000000002,7138,WL,A,11.0
2,51.83300018310547,learn,8166.999816894531,Fri May 16 2025 15:33:10 GMT-0500 (Central Daylight Time),341763.7000000002,A,r,O,r,5134,1,5148.800000000745,336614.89999999944,7138,WL,A,12.0
2,52.382000207901,learn,7617.999792098999,Fri May 16 2025 15:33:10 GMT-0500 (Central Daylight Time),342313.0,A,,O,backspace,544,1,5698.100000000559,336614.89999999944,7138,WL,A,12.0
2,52.51600003242493,learn,7483.999967575073,Fri May 16 2025 15:33:10 GMT-0500 (Central Daylight Time),342446.89999999944,A,f,O,f,116,1,5832.0,336614.89999999944,7138,WL,A,12.0
2,52.66600012779236,learn,7333.999872207642,Fri May 16 2025 15:33:10 GMT-0500 (Central Daylight Time),342596.39999999944,A,fi,O,i,133,1,5981.5,336614.89999999944,7138,WL,A,12.0
2,52.76600003242493,learn,7233.999967575073,Fri May 16 2025 15:33:10 GMT-0500 (Central Daylight Time),342696.7999999998,A,fin,O,n,87,1,6081.9000000003725,336614.89999999944,7138,WL,A,12.0
2,52.848999977111816,learn,7151.000022888184,Fri May 16 2025 15:33:10 GMT-0500 (Central Daylight Time),342779.5999999996,A,fing,O,g,67,1,6164.700000000186,336614.89999999944,7138,WL,A,12.0
2,52.98200011253357,learn,7017.999887466431,Fri May 16 2025 15:33:10 GMT-0500 (Central Daylight Time),342913.0,A,finge,O,e,119,1,6298.100000000559,336614.89999999944,7138,WL,A,12.0
2,53.132000207901,learn,6867.999792098999,Fri May 16 2025 15:33:10 GMT-0500 (Central Daylight Time),343062.89999999944,A,finger,O,r,132,1,6448.0,336614.89999999944,7138,WL,A,12.0
2,53.382000207901,learn,6617.999792098999,Fri May 16 2025 15:33:10 GMT-0500 (Central Daylight Time),343312.5,A,fingerenter,O,enter,245,1,6697.600000000559,336614.89999999944,7138,WL,A,12.0
2,56.38100004196167,learn,3618.99995803833,Fri May 16 2025 15:33:10 GMT-0500 (Central Daylight Time),346311.5,A,r,O,r,2995,1,2998.9000000003725,343312.5999999996,7138,WL,A,13.0
2,56.598000049591064,learn,3401.9999504089355,Fri May 16 2025 15:33:10 GMT-0500 (Central Daylight Time),346528.2999999998,A,ru,O,u,212,1,3215.7000000001863,343312.5999999996,7138,WL,A,13.0
2,56.79800009727478,learn,3201.9999027252197,Fri May 16 2025 15:33:10 GMT-0500 (Central Daylight Time),346728.5,A,rug,O,g,187,1,3415.9000000003725,343312.5999999996,7138,WL,A,13.0
2,57.31400012969971,learn,2685.999870300293,Fri May 16 2025 15:33:10 GMT-0500 (Central Daylight Time),347244.89999999944,A,rugenter,O,enter,507,1,3932.2999999998137,343312.5999999996,7138,WL,A,13.0
2,60.01400017738342,learn,-14.000177383422852,Fri May 16 2025 15:33:10 GMT-0500 (Central Daylight Time),349944.2000000002,A,None,O,None,2694,1,2699.0,347245.2000000002,7138,WL,A,14.0
3,1.3999998569488525,learn,58600.00014305115,Fri May 16 2025 15:33:10 GMT-0500 (Central Daylight Time),423437.5999999996,A,b,O,b,1391,1,1400.2999999998137,422037.2999999998,7138,WL,A,1.0
3,1.6989998817443848,learn,58301.000118255615,Fri May 16 2025 15:33:10 GMT-0500 (Central Daylight Time),423736.7000000002,A,bo,O,o,293,1,1699.4000000003725,422037.2999999998,7138,WL,A,1.0
3,1.86899995803833,learn,58131.00004196167,Fri May 16 2025 15:33:10 GMT-0500 (Central Daylight Time),423906.39999999944,A,boo,O,o,156,1,1869.0999999996275,422037.2999999998,7138,WL,A,1.0
3,2.232999801635742,learn,57767.00019836426,Fri May 16 2025 15:33:10 GMT-0500 (Central Daylight Time),424270.2999999998,A,book,O,k,350,1,2233.0,422037.2999999998,7138,WL,A,1.0
3,2.7159998416900635,learn,57284.00015830994,Fri May 16 2025 15:33:10 GMT-0500 (Central Daylight Time),424753.89999999944,A,bookenter,O,enter,477,1,2716.5999999996275,422037.2999999998,7138,WL,A,1.0
3,4.747999906539917,learn,55252.00009346008,Fri May 16 2025 15:33:10 GMT-0500 (Central Daylight Time),426785.5999999996,A,r,O,r,2025,1,2031.5,424754.0999999996,7138,WL,A,2.0
3,4.914999961853027,learn,55085.00003814697,Fri May 16 2025 15:33:10 GMT-0500 (Central Daylight Time),426952.5999999996,A,ru,O,u,154,1,2198.5,424754.0999999996,7138,WL,A,2.0
3,5.065999984741211,learn,54934.00001525879,Fri May 16 2025 15:33:10 GMT-0500 (Central Daylight Time),427103.2999999998,A,rug,O,g,139,1,2349.2000000001863,424754.0999999996,7138,WL,A,2.0
3,5.398999929428101,learn,54601.0000705719,Fri May 16 2025 15:33:10 GMT-0500 (Central Daylight Time),427436.89999999944,A,rugenter,O,enter,325,1,2682.7999999998137,424754.0999999996,7138,WL,A,2.0
3,5.7809998989105225,learn,54219.00010108948,Fri May 16 2025 15:33:10 GMT-0500 (Central Daylight Time),427818.7000000002,A,t,O,t,367,1,381.5,427437.2000000002,7138,WL,A,3.0
3,5.9649999141693115,learn,54035.00008583069,Fri May 16 2025 15:33:10 GMT-0500 (Central Daylight Time),428002.89999999944,A,tr,O,r,168,1,565.6999999992549,427437.2000000002,7138,WL,A,3.0
3,6.080999851226807,learn,53919.00014877319,Fri May 16 2025 15:33:10 GMT-0500 (Central Daylight Time),428118.5999999996,A,tra,O,a,96,1,681.3999999994412,427437.2000000002,7138,WL,A,3.0
3,6.197999954223633,learn,53802.00004577637,Fri May 16 2025 15:33:10 GMT-0500 (Central Daylight Time),428235.5999999996,A,trai,O,i,108,1,798.3999999994412,427437.2000000002,7138,WL,A,3.0
3,6.299000024795532,learn,53700.99997520447,Fri May 16 2025 15:33:10 GMT-0500 (Central Daylight Time),428336.5999999996,A,train,O,n,81,1,899.3999999994412,427437.2000000002,7138,WL,A,3.0
3,6.613999843597412,learn,53386.00015640259,Fri May 16 2025 15:33:10 GMT-0500 (Central Daylight Time),428651.89999999944,A,trainenter,O,enter,307,1,1214.699999999255,427437.2000000002,7138,WL,A,3.0
3,7.082000017166138,learn,52917.99998283386,Fri May 16 2025 15:33:10 GMT-0500 (Central Daylight Time),429119.5,A,r,O,r,456,1,467.40000000037253,428652.0999999996,7138,WL,A,4.0
3,7.264999866485596,learn,52735.000133514404,Fri May 16 2025 15:33:10 GMT-0500 (Central Daylight Time),429302.39999999944,A,ra,O,a,164,1,650.2999999998137,428652.0999999996,7138,WL,A,4.0
3,7.380999803543091,learn,52619.00019645691,Fri May 16 2025 15:33:10 GMT-0500 (Central Daylight Time),429418.5,A,rat,O,t,109,1,766.4000000003725,428652.0999999996,7138,WL,A,4.0
3,7.582000017166138,learn,52417.99998283386,Fri May 16 2025 15:33:10 GMT-0500 (Central Daylight Time),429619.5,A,ratt,O,t,193,1,967.4000000003725,428652.0999999996,7138,WL,A,4.0
3,7.763999938964844,learn,52236.000061035156,Fri May 16 2025 15:33:10 GMT-0500 (Central Daylight Time),429801.5,A,rattl,O,l,175,1,1149.4000000003725,428652.0999999996,7138,WL,A,4.0
3,7.898000001907349,learn,52101.99999809265,Fri May 16 2025 15:33:10 GMT-0500 (Central Daylight Time),429935.5,A,rattle,O,e,130,1,1283.4000000003725,428652.0999999996,7138,WL,A,4.0
3,8.31499981880188,learn,51685.00018119812,Fri May 16 2025 15:33:10 GMT-0500 (Central Daylight Time),430352.39999999944,A,rattleenter,O,enter,413,1,1700.2999999998137,428652.0999999996,7138,WL,A,4.0
3,9.712999820709229,learn,50287.00017929077,Fri May 16 2025 15:33:10 GMT-0500 (Central Daylight Time),431751.0,A,f,O,f,1379,1,1398.2999999998137,430352.7000000002,7138,WL,A,5.0
3,9.86299991607666,learn,50137.00008392334,Fri May 16 2025 15:33:10 GMT-0500 (Central Daylight Time),431900.7000000002,A,fi,O,i,132,1,1548.0,430352.7000000002,7138,WL,A,5.0
3,9.912999868392944,learn,50087.000131607056,Fri May 16 2025 15:33:10 GMT-0500 (Central Daylight Time),431950.89999999944,A,fin,O,n,38,1,1598.199999999255,430352.7000000002,7138,WL,A,5.0
3,10.013999938964844,learn,49986.000061035156,Fri May 16 2025 15:33:10 GMT-0500 (Central Daylight Time),432051.2000000002,A,fing,O,g,86,1,1698.5,430352.7000000002,7138,WL,A,5.0
3,10.145999908447266,learn,49854.000091552734,Fri May 16 2025 15:33:10 GMT-0500 (Central Daylight Time),432183.89999999944,A,finge,O,e,120,1,1831.199999999255,430352.7000000002,7138,WL,A,5.0
3,10.246999979019165,learn,49753.000020980835,Fri May 16 2025 15:33:10 GMT-0500 (Central Daylight Time),432284.2999999998,A,finger,O,r,91,1,1931.5999999996275,430352.7000000002,7138,WL,A,5.0
3,10.562999963760376,learn,49437.000036239624,Fri May 16 2025 15:33:10 GMT-0500 (Central Daylight Time),432601.0,A,fingerenter,O,enter,311,1,2248.2999999998137,430352.7000000002,7138,WL,A,5.0
3,10.96399998664856,learn,49036.00001335144,Fri May 16 2025 15:33:10 GMT-0500 (Central Daylight Time),433001.0999999996,A,c,O,c,397,1,400.0,432601.0999999996,7138,WL,A,6.0
3,11.129999876022339,learn,48870.00012397766,Fri May 16 2025 15:33:10 GMT-0500 (Central Daylight Time),433167.7999999998,A,ch,O,h,163,1,566.7000000001863,432601.0999999996,7138,WL,A,6.0
3,11.230000019073486,learn,48769.999980926514,Fri May 16 2025 15:33:10 GMT-0500 (Central Daylight Time),433267.89999999944,A,chi,O,i,83,1,666.7999999998137,432601.0999999996,7138,WL,A,6.0
3,11.462999820709229,learn,48537.00017929077,Fri May 16 2025 15:33:10 GMT-0500 (Central Daylight Time),433500.5999999996,A,chim,O,m,224,1,899.5,432601.0999999996,7138,WL,A,6.0
3,11.645999908447266,learn,48354.000091552734,Fri May 16 2025 15:33:10 GMT-0500 (Central Daylight Time),433684.0,A,chime,O,e,167,1,1082.9000000003725,432601.0999999996,7138,WL,A,6.0
3,11.828999996185303,learn,48171.0000038147,Fri May 16 2025 15:33:10 GMT-0500 (Central Daylight Time),433866.7999999998,A,chimen,O,n,175,1,1265.7000000001863,432601.0999999996,7138,WL,A,6.0
3,12.312999963760376,learn,47687.000036239624,Fri May 16 2025 15:33:10 GMT-0500 (Central Daylight Time),434350.0,A,chime,O,backspace,472,1,1748.9000000003725,432601.0999999996,7138,WL,A,6.0
3,12.462999820709229,learn,47537.00017929077,Fri May 16 2025 15:33:10 GMT-0500 (Central Daylight Time),434500.2999999998,A,chim,O,backspace,133,1,1899.2000000001863,432601.0999999996,7138,WL,A,6.0
3,12.86299991607666,learn,47137.00008392334,Fri May 16 2025 15:33:10 GMT-0500 (Central Daylight Time),434900.0999999996,A,chimn,O,n,391,1,2299.0,432601.0999999996,7138,WL,A,6.0
3,13.161999940872192,learn,46838.00005912781,Fri May 16 2025 15:33:10 GMT-0500 (Central Daylight Time),435199.89999999944,A,chimne,O,e,295,1,2598.7999999998137,432601.0999999996,7138,WL,A,6.0
3,13.346999883651733,learn,46653.00011634827,Fri May 16 2025 15:33:10 GMT-0500 (Central Daylight Time),435384.7000000002,A,chimney,O,y,173,1,2783.600000000559,432601.0999999996,7138,WL,A,6.0
3,13.812999963760376,learn,46187.000036239624,Fri May 16 2025 15:33:10 GMT-0500 (Central Daylight Time),435850.0,A,chimneyenter,O,enter,451,1,3248.9000000003725,432601.0999999996,7138,WL,A,6.0
3,16.32799983024597,learn,43672.00016975403,Fri May 16 2025 15:33:10 GMT-0500 (Central Daylight Time),438365.7000000002,A,l,O,l,2496,1,2515.5,435850.2000000002,7138,WL,A,7.0
3,16.51199984550476,learn,43488.00015449524,Fri May 16 2025 15:33:10 GMT-0500 (Central Daylight Time),438549.7999999998,A,lo,O,o,175,1,2699.5999999996275,435850.2000000002,7138,WL,A,7.0
3,16.628999948501587,learn,43371.00005149841,Fri May 16 2025 15:33:10 GMT-0500 (Central Daylight Time),438666.5999999996,A,log,O,g,112,1,2816.399999999441,435850.2000000002,7138,WL,A,7.0
3,16.978999853134155,learn,43021.000146865845,Fri May 16 2025 15:33:10 GMT-0500 (Central Daylight Time),439016.5,A,logenter,O,enter,330,1,3166.2999999998137,435850.2000000002,7138,WL,A,7.0
3,17.544999837875366,learn,42455.000162124634,Fri May 16 2025 15:33:10 GMT-0500 (Central Daylight Time),439582.5999999996,A,b,O,b,549,1,565.8999999994412,439016.7000000002,7138,WL,A,8.0
3,17.74399995803833,learn,42256.00004196167,Fri May 16 2025 15:33:10 GMT-0500 (Central Daylight Time),439781.89999999944,A,bu,O,u,190,1,765.1999999992549,439016.7000000002,7138,WL,A,8.0
3,17.944000005722046,learn,42055.999994277954,Fri May 16 2025 15:33:10 GMT-0500 (Central Daylight Time),439981.7999999998,A,but,O,t,191,1,965.0999999996275,439016.7000000002,7138,WL,A,8.0
3,18.026999950408936,learn,41973.000049591064,Fri May 16 2025 15:33:10 GMT-0500 (Central Daylight Time),440064.89999999944,A,butt,O,t,78,1,1048.199999999255,439016.7000000002,7138,WL,A,8.0
3,18.230000019073486,learn,41769.999980926514,Fri May 16 2025 15:33:10 GMT-0500 (Central Daylight Time),440267.2999999998,A,buttt,O,t,196,1,1250.5999999996275,439016.7000000002,7138,WL,A,8.0
3,18.346999883651733,learn,41653.00011634827,Fri May 16 2025 15:33:10 GMT-0500 (Central Daylight Time),440384.2000000002,A,buttto,O,o,101,1,1367.5,439016.7000000002,7138,WL,A,8.0
3,18.54699993133545,learn,41453.00006866455,Fri May 16 2025 15:33:10 GMT-0500 (Central Daylight Time),440585.0,A,buttton,O,n,179,1,1568.2999999998137,439016.7000000002,7138,WL,A,8.0
3,18.978999853134155,learn,41021.000146865845,Fri May 16 2025 15:33:10 GMT-0500 (Central Daylight Time),441016.39999999944,A,butttonenter,O,enter,418,1,1999.699999999255,439016.7000000002,7138,WL,A,8.0
3,19.978999853134155,learn,40021.000146865845,Fri May 16 2025 15:33:10 GMT-0500 (Central Daylight Time),442016.2000000002,A,r,O,r,979,1,999.6000000005588,441016.5999999996,7138,WL,A,9.0
3,20.126999855041504,learn,39873.000144958496,Fri May 16 2025 15:33:10 GMT-0500 (Central Daylight Time),442164.5,A,ra,O,a,139,1,1147.9000000003725,441016.5999999996,7138,WL,A,9.0
3,20.293999910354614,learn,39706.000089645386,Fri May 16 2025 15:33:10 GMT-0500 (Central Daylight Time),442331.2999999998,A,rat,O,t,159,1,1314.7000000001863,441016.5999999996,7138,WL,A,9.0
3,20.47699999809265,learn,39523.00000190735,Fri May 16 2025 15:33:10 GMT-0500 (Central Daylight Time),442514.7999999998,A,ratt,O,t,168,1,1498.2000000001863,441016.5999999996,7138,WL,A,9.0
3,20.676999807357788,learn,39323.00019264221,Fri May 16 2025 15:33:10 GMT-0500 (Central Daylight Time),442714.2000000002,A,rattl,O,l,184,1,1697.6000000005588,441016.5999999996,7138,WL,A,9.0
3,20.80999994277954,learn,39190.00005722046,Fri May 16 2025 15:33:10 GMT-0500 (Central Daylight Time),442847.5,A,rattle,O,e,114,1,1830.9000000003725,441016.5999999996,7138,WL,A,9.0
3,21.126999855041504,learn,38873.000144958496,Fri May 16 2025 15:33:10 GMT-0500 (Central Daylight Time),443164.0999999996,A,rattleenter,O,enter,301,1,2147.5,441016.5999999996,7138,WL,A,9.0
3,23.009999990463257,learn,36990.00000953674,Fri May 16 2025 15:33:10 GMT-0500 (Central Daylight Time),445047.0999999996,A,a,O,a,1864,1,1882.7000000001863,443164.39999999944,7138,WL,A,10.0
3,23.22599983215332,learn,36774.00016784668,Fri May 16 2025 15:33:10 GMT-0500 (Central Daylight Time),445263.2999999998,A,ap,O,p,205,1,2098.9000000003725,443164.39999999944,7138,WL,A,10.0
3,23.40999984741211,learn,36590.00015258789,Fri May 16 2025 15:33:10 GMT-0500 (Central Daylight Time),445447.5,A,app,O,p,173,1,2283.100000000559,443164.39999999944,7138,WL,A,10.0
3,23.626999855041504,learn,36373.000144958496,Fri May 16 2025 15:33:10 GMT-0500 (Central Daylight Time),445664.5,A,appl,O,l,196,1,2500.100000000559,443164.39999999944,7138,WL,A,10.0
3,23.741999864578247,learn,36258.00013542175,Fri May 16 2025 15:33:10 GMT-0500 (Central Daylight Time),445780.0,A,apple,O,e,99,1,2615.600000000559,443164.39999999944,7138,WL,A,10.0
3,24.29199981689453,learn,35708.00018310547,Fri May 16 2025 15:33:10 GMT-0500 (Central Daylight Time),446329.5,A,appleenter,O,enter,545,1,3165.100000000559,443164.39999999944,7138,WL,A,10.0
3,25.026999950408936,learn,34973.000049591064,Fri May 16 2025 15:33:10 GMT-0500 (Central Daylight Time),447064.0999999996,A,l,O,l,731,1,734.3999999994412,446329.7000000002,7138,WL,A,11.0
3,25.210999965667725,learn,34789.000034332275,Fri May 16 2025 15:33:10 GMT-0500 (Central Daylight Time),447248.2000000002,A,lo,O,o,180,1,918.5,446329.7000000002,7138,WL,A,11.0
3,25.34599995613098,learn,34654.00004386902,Fri May 16 2025 15:33:10 GMT-0500 (Central Daylight Time),447383.7999999998,A,log,O,g,124,1,1054.0999999996275,446329.7000000002,7138,WL,A,11.0
3,25.631999969482422,learn,34368.00003051758,Fri May 16 2025 15:33:10 GMT-0500 (Central Daylight Time),447669.0,A,logenter,O,enter,264,1,1339.2999999998137,446329.7000000002,7138,WL,A,11.0
3,27.95899987220764,learn,32041.00012779236,Fri May 16 2025 15:33:10 GMT-0500 (Central Daylight Time),449996.5999999996,A,g,O,g,2320,1,2327.399999999441,447669.2000000002,7138,WL,A,12.0
3,28.073999881744385,learn,31926.000118255615,Fri May 16 2025 15:33:10 GMT-0500 (Central Daylight Time),450111.7999999998,A,go,O,o,103,1,2442.5999999996275,447669.2000000002,7138,WL,A,12.0
3,28.2739999294281,learn,31726.0000705719,Fri May 16 2025 15:33:10 GMT-0500 (Central Daylight Time),450311.7000000002,A,gol,O,l,179,1,2642.5,447669.2000000002,7138,WL,A,12.0
3,28.37399983406067,learn,31626.00016593933,Fri May 16 2025 15:33:10 GMT-0500 (Central Daylight Time),450411.89999999944,A,gold,O,d,92,1,2742.699999999255,447669.2000000002,7138,WL,A,12.0
3,28.62399983406067,learn,31376.00016593933,Fri May 16 2025 15:33:10 GMT-0500 (Central Daylight Time),450661.7000000002,A,goldenter,O,enter,232,1,2992.5,447669.2000000002,7138,WL,A,12.0
3,33.08899998664856,learn,26911.00001335144,Fri May 16 2025 15:33:10 GMT-0500 (Central Daylight Time),455126.7999999998,A,f,O,f,4455,1,4464.700000000186,450662.0999999996,7138,WL,A,13.0
3,33.23899984359741,learn,26761.000156402588,Fri May 16 2025 15:33:10 GMT-0500 (Central Daylight Time),455276.5999999996,A,fi,O,i,132,1,4614.5,450662.0999999996,7138,WL,A,13.0
3,33.305999994277954,learn,26694.000005722046,Fri May 16 2025 15:33:10 GMT-0500 (Central Daylight Time),455343.7999999998,A,fin,O,n,64,1,4681.700000000186,450662.0999999996,7138,WL,A,13.0
3,33.37399983406067,learn,26626.00016593933,Fri May 16 2025 15:33:10 GMT-0500 (Central Daylight Time),455411.0999999996,A,fing,O,g,61,1,4749.0,450662.0999999996,7138,WL,A,13.0
3,33.52300000190735,learn,26476.99999809265,Fri May 16 2025 15:33:10 GMT-0500 (Central Daylight Time),455560.5999999996,A,finge,O,e,145,1,4898.5,450662.0999999996,7138,WL,A,13.0
3,33.639999866485596,learn,26360.000133514404,Fri May 16 2025 15:33:10 GMT-0500 (Central Daylight Time),455677.7000000002,A,finger,O,r,107,1,5015.600000000559,450662.0999999996,7138,WL,A,13.0
3,33.889999866485596,learn,26110.000133514404,Fri May 16 2025 15:33:10 GMT-0500 (Central Daylight Time),455927.5,A,fingerenter,O,enter,245,1,5265.4000000003725,450662.0999999996,7138,WL,A,13.0
3,34.35599994659424,learn,25644.00005340576,Fri May 16 2025 15:33:10 GMT-0500 (Central Daylight Time),456393.2000000002,A,b,O,b,452,1,465.5,455927.7000000002,7138,WL,A,14.0
3,34.52199983596802,learn,25478.000164031982,Fri May 16 2025 15:33:10 GMT-0500 (Central Daylight Time),456559.7999999998,A,bu,O,u,154,1,632.0999999996275,455927.7000000002,7138,WL,A,14.0
3,34.65599989891052,learn,25344.000101089478,Fri May 16 2025 15:33:10 GMT-0500 (Central Daylight Time),456693.0,A,but,O,t,115,1,765.2999999998137,455927.7000000002,7138,WL,A,14.0
3,34.80499982833862,learn,25195.000171661377,Fri May 16 2025 15:33:10 GMT-0500 (Central Daylight Time),456843.0,A,butt,O,t,142,1,915.2999999998137,455927.7000000002,7138,WL,A,14.0
3,35.33999991416931,learn,24660.00008583069,Fri May 16 2025 15:33:10 GMT-0500 (Central Daylight Time),457377.0999999996,A,butto,O,o,520,1,1449.3999999994412,455927.7000000002,7138,WL,A,14.0
3,35.472999811172485,learn,24527.000188827515,Fri May 16 2025 15:33:10 GMT-0500 (Central Daylight Time),457510.2000000002,A,button,O,n,114,1,1582.5,455927.7000000002,7138,WL,A,14.0
3,35.806999921798706,learn,24193.000078201294,Fri May 16 2025 15:33:10 GMT-0500 (Central Daylight Time),457844.39999999944,A,buttonenter,O,enter,318,1,1916.699999999255,455927.7000000002,7138,WL,A,14.0
3,40.186999797821045,learn,19813.000202178955,Fri May 16 2025 15:33:10 GMT-0500 (Central Daylight Time),462224.5999999996,A,r,O,r,4376,1,4379.899999999441,457844.7000000002,7138,WL,A,15.0
3,40.40399980545044,learn,19596.00019454956,Fri May 16 2025 15:33:10 GMT-0500 (Central Daylight Time),462441.7999999998,A,ru,O,u,204,1,4597.0999999996275,457844.7000000002,7138,WL,A,15.0
3,40.58699989318848,learn,19413.000106811523,Fri May 16 2025 15:33:10 GMT-0500 (Central Daylight Time),462624.7000000002,A,rug,O,g,169,1,4780.0,457844.7000000002,7138,WL,A,15.0
3,40.88699984550476,learn,19113.00015449524,Fri May 16 2025 15:33:10 GMT-0500 (Central Daylight Time),462924.39999999944,A,rugenter,O,enter,282,1,5079.699999999255,457844.7000000002,7138,WL,A,15.0
4,1.4170000553131104,learn,58582.99994468689,Fri May 16 2025 15:33:10 GMT-0500 (Central Daylight Time),529936.5,A,k,O,k,1404,1,1416.2999999998137,528520.2000000002,7138,WL,A,1.0
4,1.5510001182556152,learn,58448.999881744385,Fri May 16 2025 15:33:10 GMT-0500 (Central Daylight Time),530070.7000000002,A,ke,O,e,115,1,1550.5,528520.2000000002,7138,WL,A,1.0
4,1.7680001258850098,learn,58231.99987411499,Fri May 16 2025 15:33:10 GMT-0500 (Central Daylight Time),530287.5999999996,A,key,O,y,213,1,1767.3999999994412,528520.2000000002,7138,WL,A,1.0
4,2.683000087738037,learn,57316.99991226196,Fri May 16 2025 15:33:10 GMT-0500 (Central Daylight Time),531202.7000000002,A,keyenter,O,enter,899,1,2682.5,528520.2000000002,7138,WL,A,1.0
4,3.065999984741211,learn,56934.00001525879,Fri May 16 2025 15:33:10 GMT-0500 (Central Daylight Time),531586.0999999996,A,s,O,s,370,1,383.3999999994412,531202.7000000002,7138,WL,A,2.0
4,3.2660000324249268,learn,56733.99996757507,Fri May 16 2025 15:33:10 GMT-0500 (Central Daylight Time),531785.5999999996,A,sa,O,a,193,1,582.8999999994412,531202.7000000002,7138,WL,A,2.0
4,3.4170000553131104,learn,56582.99994468689,Fri May 16 2025 15:33:10 GMT-0500 (Central Daylight Time),531936.2999999998,A,sal,O,l,138,1,733.5999999996275,531202.7000000002,7138,WL,A,2.0
4,3.5989999771118164,learn,56401.00002288818,Fri May 16 2025 15:33:10 GMT-0500 (Central Daylight Time),532119.0999999996,A,salk,O,k,171,1,916.3999999994412,531202.7000000002,7138,WL,A,2.0
4,4.2170000076293945,learn,55782.999992370605,Fri May 16 2025 15:33:10 GMT-0500 (Central Daylight Time),532736.5,A,sal,O,backspace,613,1,1533.7999999998137,531202.7000000002,7138,WL,A,2.0
4,4.383000135421753,learn,55616.99986457825,Fri May 16 2025 15:33:10 GMT-0500 (Central Daylight Time),532902.5,A,salt,O,t,155,1,1699.7999999998137,531202.7000000002,7138,WL,A,2.0
4,4.900000095367432,learn,55099.99990463257,Fri May 16 2025 15:33:10 GMT-0500 (Central Daylight Time),533419.5,A,saltenter,O,enter,510,1,2216.7999999998137,531202.7000000002,7138,WL,A,2.0
4,5.299999952316284,learn,54700.000047683716,Fri May 16 2025 15:33:10 GMT-0500 (Central Daylight Time),533819.5,A,m,O,m,392,1,399.70000000018626,533419.7999999998,7138,WL,A,3.0
4,5.398999929428101,learn,54601.0000705719,Fri May 16 2025 15:33:10 GMT-0500 (Central Daylight Time),533918.8999999994,A,me,O,e,89,1,499.09999999962747,533419.7999999998,7138,WL,A,3.0
4,5.5320000648498535,learn,54467.99993515015,Fri May 16 2025 15:33:10 GMT-0500 (Central Daylight Time),534051.5999999996,A,mea,O,a,115,1,631.7999999998137,533419.7999999998,7138,WL,A,3.0
4,5.699000120162964,learn,54300.999879837036,Fri May 16 2025 15:33:10 GMT-0500 (Central Daylight Time),534218.3999999994,A,mead,O,d,153,1,798.5999999996275,533419.7999999998,7138,WL,A,3.0
4,6.08299994468689,learn,53917.00005531311,Fri May 16 2025 15:33:10 GMT-0500 (Central Daylight Time),534602.3999999994,A,meado,O,o,377,1,1182.5999999996275,533419.7999999998,7138,WL,A,3.0
4,6.299999952316284,learn,53700.000047683716,Fri May 16 2025 15:33:10 GMT-0500 (Central Daylight Time),534819.5999999996,A,meadow,O,w,210,1,1399.7999999998137,533419.7999999998,7138,WL,A,3.0
4,6.832000017166138,learn,53167.99998283386,Fri May 16 2025 15:33:10 GMT-0500 (Central Daylight Time),535351.5999999996,A,meadowenter,O,enter,512,1,1931.7999999998137,533419.7999999998,7138,WL,A,3.0
4,7.480999946594238,learn,52519.00005340576,Fri May 16 2025 15:33:10 GMT-0500 (Central Daylight Time),536001.0999999996,A,r,O,r,645,1,649.2999999998137,535351.7999999998,7138,WL,A,4.0
4,7.648999929428101,learn,52351.0000705719,Fri May 16 2025 15:33:10 GMT-0500 (Central Daylight Time),536168.8999999994,A,ra,O,a,156,1,817.0999999996275,535351.7999999998,7138,WL,A,4.0
4,7.7820000648498535,learn,52217.99993515015,Fri May 16 2025 15:33:10 GMT-0500 (Central Daylight Time),536302.2000000002,A,rat,O,t,115,1,950.4000000003725,535351.7999999998,7138,WL,A,4.0
4,7.9670000076293945,learn,52032.999992370605,Fri May 16 2025 15:33:10 GMT-0500 (Central Daylight Time),536486.3999999994,A,ratt,O,t,166,1,1134.5999999996275,535351.7999999998,7138,WL,A,4.0
4,8.134000062942505,learn,51865.999937057495,Fri May 16 2025 15:33:10 GMT-0500 (Central Daylight Time),536654.0999999996,A,rattl,O,l,156,1,1302.2999999998137,535351.7999999998,7138,WL,A,4.0
4,8.250999927520752,learn,51749.00007247925,Fri May 16 2025 15:33:10 GMT-0500 (Central Daylight Time),536770.3999999994,A,rattle,O,e,110,1,1418.5999999996275,535351.7999999998,7138,WL,A,4.0
4,8.749000072479248,learn,51250.99992752075,Fri May 16 2025 15:33:10 GMT-0500 (Central Daylight Time),537269.0999999996,A,rattleenter,O,enter,479,1,1917.2999999998137,535351.7999999998,7138,WL,A,4.0
4,9.98200011253357,learn,50017.99988746643,Fri May 16 2025 15:33:10 GMT-0500 (Central Daylight Time),538502.2000000002,A,b,O,b,1215,1,1232.800000000745,537269.3999999994,7138,WL,A,5.0
4,10.166000127792358,learn,49833.99987220764,Fri May 16 2025 15:33:10 GMT-0500 (Central Daylight Time),538686.2000000002,A,bo,O,o,165,1,1416.800000000745,537269.3999999994,7138,WL,A,5.0
4,10.282000064849854,learn,49717.99993515015,Fri May 16 2025 15:33:10 GMT-0500 (Central Daylight Time),538802.3999999994,A,boo,O,o,108,1,1533.0,537269.3999999994,7138,WL,A,5.0
4,10.483999967575073,learn,49516.00003242493,Fri May 16 2025 15:33:10 GMT-0500 (Central Daylight Time),539003.5999999996,A,book,O,k,182,1,1734.2000000001863,537269.3999999994,7138,WL,A,5.0
4,10.832000017166138,learn,49167.99998283386,Fri May 16 2025 15:33:10 GMT-0500 (Central Daylight Time),539351.7999999998,A,bookenter,O,enter,337,1,2082.4000000003725,537269.3999999994,7138,WL,A,5.0
4,11.433000087738037,learn,48566.99991226196,Fri May 16 2025 15:33:10 GMT-0500 (Central Daylight Time),539953.2999999998,A,t,O,t,581,1,601.2999999998137,539352.0,7138,WL,A,6.0
4,11.651000022888184,learn,48348.99997711182,Fri May 16 2025 15:33:10 GMT-0500 (Central Daylight Time),540170.5,A,tr,O,r,210,1,818.5,539352.0,7138,WL,A,6.0
4,11.782000064849854,learn,48217.99993515015,Fri May 16 2025 15:33:10 GMT-0500 (Central Daylight Time),540301.7999999998,A,tra,O,a,121,1,949.7999999998137,539352.0,7138,WL,A,6.0
4,11.883000135421753,learn,48116.99986457825,Fri May 16 2025 15:33:10 GMT-0500 (Central Daylight Time),540402.7000000002,A,trai,O,i,86,1,1050.7000000001863,539352.0,7138,WL,A,6.0
4,11.98200011253357,learn,48017.99988746643,Fri May 16 2025 15:33:10 GMT-0500 (Central Daylight Time),540502.2000000002,A,train,O,n,87,1,1150.2000000001863,539352.0,7138,WL,A,6.0
4,12.41700005531311,learn,47582.99994468689,Fri May 16 2025 15:33:10 GMT-0500 (Central Daylight Time),540936.8999999994,A,trainenter,O,enter,429,1,1584.8999999994412,539352.0,7138,WL,A,6.0
4,12.650000095367432,learn,47349.99990463257,Fri May 16 2025 15:33:10 GMT-0500 (Central Daylight Time),541169.5999999996,A,f,O,f,227,1,232.59999999962747,540937.0,7138,WL,A,7.0
4,12.83400011062622,learn,47165.99988937378,Fri May 16 2025 15:33:10 GMT-0500 (Central Daylight Time),541353.5999999996,A,fl,O,l,177,1,416.59999999962747,540937.0,7138,WL,A,7.0
4,13.000999927520752,learn,46999.00007247925,Fri May 16 2025 15:33:10 GMT-0500 (Central Daylight Time),541520.7000000002,A,flo,O,o,148,1,583.7000000001863,540937.0,7138,WL,A,7.0
4,13.097000122070312,learn,46902.99987792969,Fri May 16 2025 15:33:10 GMT-0500 (Central Daylight Time),541617.2000000002,A,flow,O,w,85,1,680.2000000001863,540937.0,7138,WL,A,7.0
4,13.197999954223633,learn,46802.00004577637,Fri May 16 2025 15:33:10 GMT-0500 (Central Daylight Time),541717.5999999996,A,flowe,O,e,89,1,780.5999999996275,540937.0,7138,WL,A,7.0
4,13.265000104904175,learn,46734.999895095825,Fri May 16 2025 15:33:10 GMT-0500 (Central Daylight Time),541784.7000000002,A,flower,O,r,52,1,847.7000000001863,540937.0,7138,WL,A,7.0
4,13.648000001907349,learn,46351.99999809265,Fri May 16 2025 15:33:10 GMT-0500 (Central Daylight Time),542167.5999999996,A,flowerenter,O,enter,370,1,1230.5999999996275,540937.0,7138,WL,A,7.0
4,14.049999952316284,learn,45950.000047683716,Fri May 16 2025 15:33:10 GMT-0500 (Central Daylight Time),542569.5,A,m,O,m,396,1,401.6000000005588,542167.8999999994,7138,WL,A,8.0
4,14.180999994277954,learn,45819.000005722046,Fri May 16 2025 15:33:10 GMT-0500 (Central Daylight Time),542701.0999999996,A,me,O,e,121,1,533.2000000001863,542167.8999999994,7138,WL,A,8.0
4,14.29699993133545,learn,45703.00006866455,Fri May 16 2025 15:33:10 GMT-0500 (Central Daylight Time),542817.5,A,mea,O,a,102,1,649.6000000005588,542167.8999999994,7138,WL,A,8.0
4,14.447999954223633,learn,45552.00004577637,Fri May 16 2025 15:33:10 GMT-0500 (Central Daylight Time),542967.8999999994,A,mead,O,d,137,1,800.0,542167.8999999994,7138,WL,A,8.0
4,14.79800009727478,learn,45201.99990272522,Fri May 16 2025 15:33:10 GMT-0500 (Central Daylight Time),543317.7999999998,A,meado,O,o,331,1,1149.9000000003725,542167.8999999994,7138,WL,A,8.0
4,14.947999954223633,learn,45052.00004577637,Fri May 16 2025 15:33:10 GMT-0500 (Central Daylight Time),543467.8999999994,A,meadow,O,w,127,1,1300.0,542167.8999999994,7138,WL,A,8.0
4,15.38100004196167,learn,44618.99995803833,Fri May 16 2025 15:33:10 GMT-0500 (Central Daylight Time),543900.8999999994,A,meadowenter,O,enter,423,1,1733.0,542167.8999999994,7138,WL,A,8.0
4,16.213000059127808,learn,43786.99994087219,Fri May 16 2025 15:33:10 GMT-0500 (Central Daylight Time),544732.8999999994,A,r,O,r,814,1,831.7999999998137,543901.0999999996,7138,WL,A,9.0
4,16.365000009536743,learn,43634.99999046326,Fri May 16 2025 15:33:10 GMT-0500 (Central Daylight Time),544884.5999999996,A,ru,O,u,145,1,983.5,543901.0999999996,7138,WL,A,9.0
4,16.496999979019165,learn,43503.000020980835,Fri May 16 2025 15:33:10 GMT-0500 (Central Daylight Time),545017.0,A,rug,O,g,120,1,1115.9000000003725,543901.0999999996,7138,WL,A,9.0
4,16.77999997138977,learn,43220.00002861023,Fri May 16 2025 15:33:10 GMT-0500 (Central Daylight Time),545300.3999999994,A,rugenter,O,enter,265,1,1399.2999999998137,543901.0999999996,7138,WL,A,9.0
4,23.878000020980835,learn,36121.999979019165,Fri May 16 2025 15:33:10 GMT-0500 (Central Daylight Time),552398.3999999994,A,h,O,h,7080,1,7097.699999999255,545300.7000000002,7138,WL,A,10.0
4,23.99399995803833,learn,36006.00004196167,Fri May 16 2025 15:33:10 GMT-0500 (Central Daylight Time),552514.3999999994,A,ha,O,a,100,1,7213.699999999255,545300.7000000002,7138,WL,A,10.0
4,24.09599995613098,learn,35904.00004386902,Fri May 16 2025 15:33:10 GMT-0500 (Central Daylight Time),552615.5,A,har,O,r,80,1,7314.799999999814,545300.7000000002,7138,WL,A,10.0
4,24.278000116348267,learn,35721.99988365173,Fri May 16 2025 15:33:10 GMT-0500 (Central Daylight Time),552797.7999999998,A,harp,O,p,171,1,7497.0999999996275,545300.7000000002,7138,WL,A,10.0
4,24.67900013923645,learn,35320.99986076355,Fri May 16 2025 15:33:10 GMT-0500 (Central Daylight Time),553198.5,A,harpenter,O,enter,380,1,7897.799999999814,545300.7000000002,7138,WL,A,10.0
4,25.02900004386902,learn,34970.99995613098,Fri May 16 2025 15:33:10 GMT-0500 (Central Daylight Time),553548.7000000002,A,f,O,f,342,1,349.90000000037253,553198.7999999998,7138,WL,A,11.0
4,25.144999980926514,learn,34855.000019073486,Fri May 16 2025 15:33:10 GMT-0500 (Central Daylight Time),553665.2999999998,A,fi,O,i,110,1,466.5,553198.7999999998,7138,WL,A,11.0
4,25.24399995803833,learn,34756.00004196167,Fri May 16 2025 15:33:10 GMT-0500 (Central Daylight Time),553763.5999999996,A,fin,O,n,87,1,564.7999999998137,553198.7999999998,7138,WL,A,11.0
4,25.29200005531311,learn,34707.99994468689,Fri May 16 2025 15:33:10 GMT-0500 (Central Daylight Time),553812.2999999998,A,fing,O,g,38,1,613.5,553198.7999999998,7138,WL,A,11.0
4,25.411999940872192,learn,34588.00005912781,Fri May 16 2025 15:33:10 GMT-0500 (Central Daylight Time),553932.0999999996,A,finge,O,e,114,1,733.2999999998137,553198.7999999998,7138,WL,A,11.0
4,25.52900004386902,learn,34470.99995613098,Fri May 16 2025 15:33:10 GMT-0500 (Central Daylight Time),554049.2000000002,A,finger,O,r,92,1,850.4000000003725,553198.7999999998,7138,WL,A,11.0
4,25.778000116348267,learn,34221.99988365173,Fri May 16 2025 15:33:10 GMT-0500 (Central Daylight Time),554297.7999999998,A,fingerenter,O,enter,243,1,1099.0,553198.7999999998,7138,WL,A,11.0
4,27.17799997329712,learn,32822.00002670288,Fri May 16 2025 15:33:10 GMT-0500 (Central Daylight Time),555698.2000000002,A,g,O,g,1395,1,1400.2000000001863,554298.0,7138,WL,A,12.0
4,27.30999994277954,learn,32690.00005722046,Fri May 16 2025 15:33:10 GMT-0500 (Central Daylight Time),555830.2999999998,A,go,O,o,112,1,1532.2999999998137,554298.0,7138,WL,A,12.0
4,27.49399995803833,learn,32506.00004196167,Fri May 16 2025 15:33:10 GMT-0500 (Central Daylight Time),556013.7000000002,A,gol,O,l,174,1,1715.7000000001863,554298.0,7138,WL,A,12.0
4,27.5770001411438,learn,32422.9998588562,Fri May 16 2025 15:33:10 GMT-0500 (Central Daylight Time),556096.7999999998,A,gold,O,d,70,1,1798.7999999998137,554298.0,7138,WL,A,12.0
4,27.85800004005432,learn,32141.99995994568,Fri May 16 2025 15:33:10 GMT-0500 (Central Daylight Time),556377.7999999998,A,goldenter,O,enter,265,1,2079.7999999998137,554298.0,7138,WL,A,12.0
4,30.02500009536743,learn,29974.99990463257,Fri May 16 2025 15:33:10 GMT-0500 (Central Daylight Time),558544.5999999996,A,l,O,l,2163,1,2166.5999999996275,556378.0,7138,WL,A,13.0
4,30.256999969482422,learn,29743.000030517578,Fri May 16 2025 15:33:10 GMT-0500 (Central Daylight Time),558777.0999999996,A,lo,O,o,220,1,2399.0999999996275,556378.0,7138,WL,A,13.0
4,30.85800004005432,learn,29141.99995994568,Fri May 16 2025 15:33:10 GMT-0500 (Central Daylight Time),559378.2999999998,A,l,O,backspace,595,1,3000.2999999998137,556378.0,7138,WL,A,13.0
4,31.342999935150146,learn,28657.000064849854,Fri May 16 2025 15:33:10 GMT-0500 (Central Daylight Time),559863.0,A,,O,backspace,467,1,3485.0,556378.0,7138,WL,A,13.0
4,42.33899998664856,learn,17661.00001335144,Fri May 16 2025 15:33:10 GMT-0500 (Central Daylight Time),570858.7000000002,A,h,O,h,10990,1,14480.700000000186,556378.0,7138,WL,A,13.0
4,42.490999937057495,learn,17509.000062942505,Fri May 16 2025 15:33:10 GMT-0500 (Central Daylight Time),571010.7999999998,A,ha,O,a,143,1,14632.799999999814,556378.0,7138,WL,A,13.0
4,42.62400007247925,learn,17375.999927520752,Fri May 16 2025 15:33:10 GMT-0500 (Central Daylight Time),571143.5999999996,A,har,O,r,115,1,14765.599999999627,556378.0,7138,WL,A,13.0
4,42.84100008010864,learn,17158.999919891357,Fri May 16 2025 15:33:10 GMT-0500 (Central Daylight Time),571360.5999999996,A,harp,O,p,193,1,14982.599999999627,556378.0,7138,WL,A,13.0
4,43.22500014305115,learn,16774.999856948853,Fri May 16 2025 15:33:10 GMT-0500 (Central Daylight Time),571744.8999999994,A,harpenter,O,enter,377,1,15366.899999999441,556378.0,7138,WL,A,13.0
4,45.105000019073486,learn,14894.999980926514,Fri May 16 2025 15:33:10 GMT-0500 (Central Daylight Time),573624.8999999994,A,f,O,f,1875,1,1879.7999999998137,571745.0999999996,7138,WL,A,14.0
4,45.204999923706055,learn,14795.000076293945,Fri May 16 2025 15:33:10 GMT-0500 (Central Daylight Time),573724.7999999998,A,fi,O,i,90,1,1979.7000000001863,571745.0999999996,7138,WL,A,14.0
4,45.32200002670288,learn,14677.99997329712,Fri May 16 2025 15:33:10 GMT-0500 (Central Daylight Time),573842.2999999998,A,fin,O,n,101,1,2097.2000000001863,571745.0999999996,7138,WL,A,14.0
4,45.35199999809265,learn,14648.000001907349,Fri May 16 2025 15:33:10 GMT-0500 (Central Daylight Time),573872.3999999994,A,fing,O,g,12,1,2127.2999999998137,571745.0999999996,7138,WL,A,14.0
4,45.50600004196167,learn,14493.99995803833,Fri May 16 2025 15:33:10 GMT-0500 (Central Daylight Time),574025.8999999994,A,finge,O,e,141,1,2280.7999999998137,571745.0999999996,7138,WL,A,14.0
4,45.638999938964844,learn,14361.000061035156,Fri May 16 2025 15:33:10 GMT-0500 (Central Daylight Time),574158.7999999998,A,finger,O,r,109,1,2413.7000000001863,571745.0999999996,7138,WL,A,14.0
4,45.87100005149841,learn,14128.999948501587,Fri May 16 2025 15:33:10 GMT-0500 (Central Daylight Time),574391.3999999994,A,fingerenter,O,enter,219,1,2646.2999999998137,571745.0999999996,7138,WL,A,14.0
4,56.46799993515015,learn,3532.0000648498535,Fri May 16 2025 15:33:10 GMT-0500 (Central Daylight Time),584988.2999999998,A,t,O,t,10582,1,10596.599999999627,574391.7000000002,7138,WL,A,15.0
4,56.61800003051758,learn,3381.999969482422,Fri May 16 2025 15:33:10 GMT-0500 (Central Daylight Time),585138.2999999998,A,tr,O,r,133,1,10746.599999999627,574391.7000000002,7138,WL,A,15.0
4,56.75200009346008,learn,3247.999906539917,Fri May 16 2025 15:33:10 GMT-0500 (Central Daylight Time),585271.7999999998,A,tra,O,a,111,1,10880.099999999627,574391.7000000002,7138,WL,A,15.0
4,56.8510000705719,learn,3148.9999294281006,Fri May 16 2025 15:33:10 GMT-0500 (Central Daylight Time),585371.0999999996,A,trai,O,i,90,1,10979.399999999441,574391.7000000002,7138,WL,A,15.0
4,56.985000133514404,learn,3014.9998664855957,Fri May 16 2025 15:33:10 GMT-0500 (Central Daylight Time),585505.2999999998,A,train,O,n,111,1,11113.599999999627,574391.7000000002,7138,WL,A,15.0
4,57.299999952316284,learn,2700.000047683716,Fri May 16 2025 15:33:10 GMT-0500 (Central Daylight Time),585820.5,A,trainenter,O,enter,292,1,11428.799999999814,574391.7000000002,7138,WL,A,15.0
5,1.566999912261963,learn,60000.0,Fri May 16 2025 15:33:10 GMT-0500 (Central Daylight Time),652450.0,A,g,O,g,1552,1,1566.6000000005588,650883.3999999994,7138,WL,A,1.0
5,1.6999998092651367,learn,60000.0,Fri May 16 2025 15:33:10 GMT-0500 (Central Daylight Time),652582.7999999998,A,go,O,o,121,1,1699.4000000003725,650883.3999999994,7138,WL,A,1.0
5,1.9009997844696045,learn,60000.0,Fri May 16 2025 15:33:10 GMT-0500 (Central Daylight Time),652784.2999999998,A,gol,O,l,179,1,1900.9000000003725,650883.3999999994,7138,WL,A,1.0
5,2.1659998893737793,learn,60000.0,Fri May 16 2025 15:33:10 GMT-0500 (Central Daylight Time),653049.7000000002,A,gold,O,d,259,1,2166.300000000745,650883.3999999994,7138,WL,A,1.0
5,2.8329999446868896,learn,60000.0,Fri May 16 2025 15:33:10 GMT-0500 (Central Daylight Time),653716.3999999994,A,goldenter,O,enter,649,1,2833.0,650883.3999999994,7138,WL,A,1.0
5,3.232999801635742,learn,60000.0,Fri May 16 2025 15:33:10 GMT-0500 (Central Daylight Time),654116.5999999996,A,b,O,b,379,1,400.0,653716.5999999996,7138,WL,A,2.0
5,3.3499999046325684,learn,60000.0,Fri May 16 2025 15:33:10 GMT-0500 (Central Daylight Time),654233.3999999994,A,bu,O,u,93,1,516.7999999998137,653716.5999999996,7138,WL,A,2.0
5,3.5169999599456787,learn,60000.0,Fri May 16 2025 15:33:10 GMT-0500 (Central Daylight Time),654399.8999999994,A,but,O,t,143,1,683.2999999998137,653716.5999999996,7138,WL,A,2.0
5,3.6649999618530273,learn,60000.0,Fri May 16 2025 15:33:10 GMT-0500 (Central Daylight Time),654548.2000000002,A,butt,O,t,140,1,831.6000000005588,653716.5999999996,7138,WL,A,2.0
5,3.81499981880188,learn,60000.0,Fri May 16 2025 15:33:10 GMT-0500 (Central Daylight Time),654698.2999999998,A,butto,O,o,134,1,981.7000000001863,653716.5999999996,7138,WL,A,2.0
5,3.998999834060669,learn,60000.0,Fri May 16 2025 15:33:10 GMT-0500 (Central Daylight Time),654882.5999999996,A,button,O,n,170,1,1166.0,653716.5999999996,7138,WL,A,2.0
5,4.565999984741211,learn,60000.0,Fri May 16 2025 15:33:10 GMT-0500 (Central Daylight Time),655448.7999999998,A,buttonenter,O,enter,552,1,1732.2000000001863,653716.5999999996,7138,WL,A,2.0
5,4.881999969482422,learn,60000.0,Fri May 16 2025 15:33:10 GMT-0500 (Central Daylight Time),655765.3999999994,A,c,O,c,298,1,316.3999999994412,655449.0,7138,WL,A,3.0
5,5.0,learn,60000.0,Fri May 16 2025 15:33:10 GMT-0500 (Central Daylight Time),655882.7999999998,A,ch,O,h,112,1,433.79999999981374,655449.0,7138,WL,A,3.0
5,5.098999977111816,learn,60000.0,Fri May 16 2025 15:33:10 GMT-0500 (Central Daylight Time),655982.2999999998,A,chi,O,i,79,1,533.2999999998137,655449.0,7138,WL,A,3.0
5,5.515999794006348,learn,60000.0,Fri May 16 2025 15:33:10 GMT-0500 (Central Daylight Time),656399.3999999994,A,chim,O,m,405,1,950.3999999994412,655449.0,7138,WL,A,3.0
5,5.83299994468689,learn,60000.0,Fri May 16 2025 15:33:10 GMT-0500 (Central Daylight Time),656716.5999999996,A,chimn,O,n,295,1,1267.5999999996275,655449.0,7138,WL,A,3.0
5,6.281999826431274,learn,60000.0,Fri May 16 2025 15:33:10 GMT-0500 (Central Daylight Time),657165.2999999998,A,chimne,O,e,438,1,1716.2999999998137,655449.0,7138,WL,A,3.0
5,6.546999931335449,learn,60000.0,Fri May 16 2025 15:33:10 GMT-0500 (Central Daylight Time),657430.5999999996,A,chimney,O,y,247,1,1981.5999999996275,655449.0,7138,WL,A,3.0
5,6.914999961853027,learn,60000.0,Fri May 16 2025 15:33:10 GMT-0500 (Central Daylight Time),657798.3999999994,A,chimneyenter,O,enter,356,1,2349.399999999441,655449.0,7138,WL,A,3.0
5,7.297999858856201,learn,60000.0,Fri May 16 2025 15:33:10 GMT-0500 (Central Daylight Time),658181.5,A,l,O,l,364,1,382.79999999981374,657798.7000000002,7138,WL,A,4.0
5,7.46399998664856,learn,60000.0,Fri May 16 2025 15:33:10 GMT-0500 (Central Daylight Time),658347.3999999994,A,lo,O,o,151,1,548.6999999992549,657798.7000000002,7138,WL,A,4.0
5,7.597999811172485,learn,60000.0,Fri May 16 2025 15:33:10 GMT-0500 (Central Daylight Time),658481.2999999998,A,log,O,g,110,1,682.5999999996275,657798.7000000002,7138,WL,A,4.0
5,8.080999851226807,learn,60000.0,Fri May 16 2025 15:33:10 GMT-0500 (Central Daylight Time),658963.7999999998,A,logenter,O,enter,473,1,1165.0999999996275,657798.7000000002,7138,WL,A,4.0
5,8.680999994277954,learn,60000.0,Fri May 16 2025 15:33:10 GMT-0500 (Central Daylight Time),659564.5,A,h,O,h,586,1,600.6000000005588,658963.8999999994,7138,WL,A,5.0
5,8.797999858856201,learn,60000.0,Fri May 16 2025 15:33:10 GMT-0500 (Central Daylight Time),659681.5999999996,A,ha,O,a,96,1,717.7000000001863,658963.8999999994,7138,WL,A,5.0
5,8.913999795913696,learn,60000.0,Fri May 16 2025 15:33:10 GMT-0500 (Central Daylight Time),659797.0,A,har,O,r,105,1,833.1000000005588,658963.8999999994,7138,WL,A,5.0
5,9.04699993133545,learn,60000.0,Fri May 16 2025 15:33:10 GMT-0500 (Central Daylight Time),659930.7000000002,A,harp,O,p,118,1,966.8000000007451,658963.8999999994,7138,WL,A,5.0
5,9.464999914169312,learn,60000.0,Fri May 16 2025 15:33:10 GMT-0500 (Central Daylight Time),660348.0999999996,A,harpenter,O,enter,409,1,1384.2000000001863,658963.8999999994,7138,WL,A,5.0
5,9.746999979019165,learn,60000.0,Fri May 16 2025 15:33:10 GMT-0500 (Central Daylight Time),660631.0999999996,A,f,O,f,262,1,282.79999999981374,660348.2999999998,7138,WL,A,6.0
5,9.846999883651733,learn,60000.0,Fri May 16 2025 15:33:10 GMT-0500 (Central Daylight Time),660730.5999999996,A,fi,O,i,93,1,382.29999999981374,660348.2999999998,7138,WL,A,6.0
5,9.96399998664856,learn,60000.0,Fri May 16 2025 15:33:10 GMT-0500 (Central Daylight Time),660847.7999999998,A,fin,O,n,105,1,499.5,660348.2999999998,7138,WL,A,6.0
5,10.11299991607666,learn,60000.0,Fri May 16 2025 15:33:10 GMT-0500 (Central Daylight Time),660996.8999999994,A,fing,O,g,140,1,648.5999999996275,660348.2999999998,7138,WL,A,6.0
5,10.212999820709229,learn,60000.0,Fri May 16 2025 15:33:10 GMT-0500 (Central Daylight Time),661096.7000000002,A,finge,O,e,93,1,748.4000000003725,660348.2999999998,7138,WL,A,6.0
5,10.38099980354309,learn,60000.0,Fri May 16 2025 15:33:10 GMT-0500 (Central Daylight Time),661264.2999999998,A,finger,O,r,145,1,916.0,660348.2999999998,7138,WL,A,6.0
5,10.746999979019165,learn,60000.0,Fri May 16 2025 15:33:10 GMT-0500 (Central Daylight Time),661630.2000000002,A,fingerenter,O,enter,347,1,1281.9000000003725,660348.2999999998,7138,WL,A,6.0
5,11.27999997138977,learn,60000.0,Fri May 16 2025 15:33:10 GMT-0500 (Central Daylight Time),662163.5999999996,A,b,O,b,517,1,533.2000000001863,661630.3999999994,7138,WL,A,7.0
5,11.430999994277954,learn,60000.0,Fri May 16 2025 15:33:10 GMT-0500 (Central Daylight Time),662314.0999999996,A,bo,O,o,137,1,683.7000000001863,661630.3999999994,7138,WL,A,7.0
5,11.579999923706055,learn,60000.0,Fri May 16 2025 15:33:10 GMT-0500 (Central Daylight Time),662463.5999999996,A,boo,O,o,138,1,833.2000000001863,661630.3999999994,7138,WL,A,7.0
5,11.76199984550476,learn,60000.0,Fri May 16 2025 15:33:10 GMT-0500 (Central Daylight Time),662645.7000000002,A,book,O,k,171,1,1015.3000000007451,661630.3999999994,7138,WL,A,7.0
5,12.27999997138977,learn,60000.0,Fri May 16 2025 15:33:10 GMT-0500 (Central Daylight Time),663163.8999999994,A,bookenter,O,enter,501,1,1533.5,661630.3999999994,7138,WL,A,7.0
5,13.295999765396118,learn,60000.0,Fri May 16 2025 15:33:10 GMT-0500 (Central Daylight Time),664179.3999999994,A,t,O,t,1008,1,1015.2999999998137,663164.0999999996,7138,WL,A,8.0
5,13.447999954223633,learn,60000.0,Fri May 16 2025 15:33:10 GMT-0500 (Central Daylight Time),664331.0,A,tr,O,r,145,1,1166.9000000003725,663164.0999999996,7138,WL,A,8.0
5,13.578999996185303,learn,60000.0,Fri May 16 2025 15:33:10 GMT-0500 (Central Daylight Time),664462.5999999996,A,tra,O,a,111,1,1298.5,663164.0999999996,7138,WL,A,8.0
5,13.678999900817871,learn,60000.0,Fri May 16 2025 15:33:10 GMT-0500 (Central Daylight Time),664562.5999999996,A,trai,O,i,84,1,1398.5,663164.0999999996,7138,WL,A,8.0
5,13.77999997138977,learn,60000.0,Fri May 16 2025 15:33:10 GMT-0500 (Central Daylight Time),664663.2999999998,A,train,O,n,80,1,1499.2000000001863,663164.0999999996,7138,WL,A,8.0
5,14.179999828338623,learn,60000.0,Fri May 16 2025 15:33:10 GMT-0500 (Central Daylight Time),665063.0999999996,A,trainenter,O,enter,387,1,1899.0,663164.0999999996,7138,WL,A,8.0
5,14.545999765396118,learn,60000.0,Fri May 16 2025 15:33:10 GMT-0500 (Central Daylight Time),665429.3999999994,A,m,O,m,349,1,366.0,665063.3999999994,7138,WL,A,9.0
5,14.592999935150146,learn,60000.0,Fri May 16 2025 15:33:10 GMT-0500 (Central Daylight Time),665476.5999999996,A,me,O,e,37,1,413.20000000018626,665063.3999999994,7138,WL,A,9.0
5,14.727999925613403,learn,60000.0,Fri May 16 2025 15:33:10 GMT-0500 (Central Daylight Time),665611.0,A,mea,O,a,128,1,547.6000000005588,665063.3999999994,7138,WL,A,9.0
5,14.878999948501587,learn,60000.0,Fri May 16 2025 15:33:10 GMT-0500 (Central Daylight Time),665762.5,A,mead,O,d,145,1,699.1000000005588,665063.3999999994,7138,WL,A,9.0
5,15.262999773025513,learn,60000.0,Fri May 16 2025 15:33:10 GMT-0500 (Central Daylight Time),666146.0999999996,A,meado,O,o,369,1,1082.7000000001863,665063.3999999994,7138,WL,A,9.0
5,15.410999774932861,learn,60000.0,Fri May 16 2025 15:33:10 GMT-0500 (Central Daylight Time),666294.5999999996,A,meadow,O,w,137,1,1231.2000000001863,665063.3999999994,7138,WL,A,9.0
5,15.878999948501587,learn,60000.0,Fri May 16 2025 15:33:10 GMT-0500 (Central Daylight Time),666762.5999999996,A,meadowenter,O,enter,462,1,1699.2000000001863,665063.3999999994,7138,WL,A,9.0
5,16.377999782562256,learn,60000.0,Fri May 16 2025 15:33:10 GMT-0500 (Central Daylight Time),667261.0,A,f,O,f,480,1,497.90000000037253,666763.0999999996,7138,WL,A,10.0
5,16.543999910354614,learn,60000.0,Fri May 16 2025 15:33:10 GMT-0500 (Central Daylight Time),667427.8999999994,A,fl,O,l,150,1,664.7999999998137,666763.0999999996,7138,WL,A,10.0
5,16.711999893188477,learn,60000.0,Fri May 16 2025 15:33:10 GMT-0500 (Central Daylight Time),667595.0999999996,A,flo,O,o,153,1,832.0,666763.0999999996,7138,WL,A,10.0
5,16.811999797821045,learn,60000.0,Fri May 16 2025 15:33:10 GMT-0500 (Central Daylight Time),667695.2999999998,A,flow,O,w,80,1,932.2000000001863,666763.0999999996,7138,WL,A,10.0
5,16.877999782562256,learn,60000.0,Fri May 16 2025 15:33:10 GMT-0500 (Central Daylight Time),667761.7000000002,A,flowe,O,e,43,1,998.6000000005588,666763.0999999996,7138,WL,A,10.0
5,17.01199984550476,learn,60000.0,Fri May 16 2025 15:33:10 GMT-0500 (Central Daylight Time),667895.2000000002,A,flower,O,r,111,1,1132.1000000005588,666763.0999999996,7138,WL,A,10.0
5,17.543999910354614,learn,60000.0,Fri May 16 2025 15:33:10 GMT-0500 (Central Daylight Time),668427.7999999998,A,flowerenter,O,enter,524,1,1664.7000000001863,666763.0999999996,7138,WL,A,10.0
5,18.26199984550476,learn,60000.0,Fri May 16 2025 15:33:10 GMT-0500 (Central Daylight Time),669145.3999999994,A,a,O,a,704,1,717.2999999998137,668428.0999999996,7138,WL,A,11.0
5,18.478999853134155,learn,60000.0,Fri May 16 2025 15:33:10 GMT-0500 (Central Daylight Time),669362.3999999994,A,ap,O,p,211,1,934.2999999998137,668428.0999999996,7138,WL,A,11.0
5,18.643999814987183,learn,60000.0,Fri May 16 2025 15:33:10 GMT-0500 (Central Daylight Time),669527.0,A,app,O,p,153,1,1098.9000000003725,668428.0999999996,7138,WL,A,11.0
5,18.878999948501587,learn,60000.0,Fri May 16 2025 15:33:10 GMT-0500 (Central Daylight Time),669762.3999999994,A,appl,O,l,229,1,1334.2999999998137,668428.0999999996,7138,WL,A,11.0
5,18.97699999809265,learn,60000.0,Fri May 16 2025 15:33:10 GMT-0500 (Central Daylight Time),669860.2999999998,A,apple,O,e,90,1,1432.2000000001863,668428.0999999996,7138,WL,A,11.0
5,19.676999807357788,learn,60000.0,Fri May 16 2025 15:33:10 GMT-0500 (Central Daylight Time),670560.3999999994,A,appleenter,O,enter,686,1,2132.2999999998137,668428.0999999996,7138,WL,A,11.0
5,20.143999814987183,learn,60000.0,Fri May 16 2025 15:33:10 GMT-0500 (Central Daylight Time),671027.2000000002,A,s,O,s,452,1,466.6000000005588,670560.5999999996,7138,WL,A,12.0
5,20.311999797821045,learn,60000.0,Fri May 16 2025 15:33:10 GMT-0500 (Central Daylight Time),671195.0999999996,A,sa,O,a,163,1,634.5,670560.5999999996,7138,WL,A,12.0
5,20.460999965667725,learn,60000.0,Fri May 16 2025 15:33:10 GMT-0500 (Central Daylight Time),671344.3999999994,A,sal,O,l,128,1,783.7999999998137,670560.5999999996,7138,WL,A,12.0
5,20.57699990272522,learn,60000.0,Fri May 16 2025 15:33:10 GMT-0500 (Central Daylight Time),671460.0,A,salk,O,k,109,1,899.4000000003725,670560.5999999996,7138,WL,A,12.0
5,21.0939998626709,learn,60000.0,Fri May 16 2025 15:33:10 GMT-0500 (Central Daylight Time),671977.7999999998,A,sal,O,backspace,511,1,1417.2000000001863,670560.5999999996,7138,WL,A,12.0
5,21.259999990463257,learn,60000.0,Fri May 16 2025 15:33:10 GMT-0500 (Central Daylight Time),672144.0,A,salt,O,t,154,1,1583.4000000003725,670560.5999999996,7138,WL,A,12.0
5,21.609999895095825,learn,60000.0,Fri May 16 2025 15:33:10 GMT-0500 (Central Daylight Time),672493.7000000002,A,saltenter,O,enter,332,1,1933.1000000005588,670560.5999999996,7138,WL,A,12.0
5,22.959999799728394,learn,60000.0,Fri May 16 2025 15:33:10 GMT-0500 (Central Daylight Time),673843.2999999998,A,l,O,l,1344,1,1349.2999999998137,672494.0,7138,WL,A,13.0
5,23.128999948501587,learn,60000.0,Fri May 16 2025 15:33:10 GMT-0500 (Central Daylight Time),674012.0999999996,A,lo,O,o,159,1,1518.0999999996275,672494.0,7138,WL,A,13.0
5,24.32699990272522,learn,60000.0,Fri May 16 2025 15:33:10 GMT-0500 (Central Daylight Time),675210.7999999998,A,log,O,g,1184,1,2716.7999999998137,672494.0,7138,WL,A,13.0
5,25.044999837875366,learn,60000.0,Fri May 16 2025 15:33:10 GMT-0500 (Central Daylight Time),675928.0,A,logenter,O,enter,705,1,3434.0,672494.0,7138,WL,A,13.0
5,28.289999961853027,learn,60000.0,Fri May 16 2025 15:33:10 GMT-0500 (Central Daylight Time),679173.5,A,h,O,h,3235,1,3245.2000000001863,675928.2999999998,7138,WL,A,14.0
5,28.6729998588562,learn,60000.0,Fri May 16 2025 15:33:10 GMT-0500 (Central Daylight Time),679556.3999999994,A,ha,O,a,367,1,3628.0999999996275,675928.2999999998,7138,WL,A,14.0
5,28.9229998588562,learn,60000.0,Fri May 16 2025 15:33:10 GMT-0500 (Central Daylight Time),679806.3999999994,A,hap,O,p,232,1,3878.0999999996275,675928.2999999998,7138,WL,A,14.0
5,29.122999906539917,learn,60000.0,Fri May 16 2025 15:33:10 GMT-0500 (Central Daylight Time),680006.0999999996,A,hapr,O,r,183,1,4077.7999999998137,675928.2999999998,7138,WL,A,14.0
5,29.578999996185303,learn,60000.0,Fri May 16 2025 15:33:10 GMT-0500 (Central Daylight Time),680462.5,A,hap,O,backspace,453,1,4534.200000000186,675928.2999999998,7138,WL,A,14.0
5,29.722999811172485,learn,60000.0,Fri May 16 2025 15:33:10 GMT-0500 (Central Daylight Time),680606.7000000002,A,ha,O,backspace,135,1,4678.4000000003725,675928.2999999998,7138,WL,A,14.0
5,29.85699987411499,learn,60000.0,Fri May 16 2025 15:33:10 GMT-0500 (Central Daylight Time),680740.8999999994,A,har,O,r,116,1,4812.5999999996275,675928.2999999998,7138,WL,A,14.0
5,30.056999921798706,learn,60000.0,Fri May 16 2025 15:33:10 GMT-0500 (Central Daylight Time),680940.5999999996,A,harp,O,p,189,1,5012.299999999814,675928.2999999998,7138,WL,A,14.0
5,31.425999879837036,learn,60000.0,Fri May 16 2025 15:33:10 GMT-0500 (Central Daylight Time),682309.7000000002,A,harpenter,O,enter,1350,1,6381.4000000003725,675928.2999999998,7138,WL,A,14.0
5,32.573999881744385,learn,60000.0,Fri May 16 2025 15:33:10 GMT-0500 (Central Daylight Time),683458.0,A,f,O,f,1143,1,1148.1000000005588,682309.8999999994,7138,WL,A,15.0
5,32.722999811172485,learn,60000.0,Fri May 16 2025 15:33:10 GMT-0500 (Central Daylight Time),683606.7999999998,A,fi,O,i,136,1,1296.9000000003725,682309.8999999994,7138,WL,A,15.0
5,32.806999921798706,learn,60000.0,Fri May 16 2025 15:33:10 GMT-0500 (Central Daylight Time),683690.5,A,fin,O,n,68,1,1380.6000000005588,682309.8999999994,7138,WL,A,15.0
5,32.990999937057495,learn,60000.0,Fri May 16 2025 15:33:10 GMT-0500 (Central Daylight Time),683874.0999999996,A,fing,O,g,162,1,1564.2000000001863,682309.8999999994,7138,WL,A,15.0
5,33.12399983406067,learn,60000.0,Fri May 16 2025 15:33:10 GMT-0500 (Central Daylight Time),684007.2000000002,A,finge,O,e,118,1,1697.300000000745,682309.8999999994,7138,WL,A,15.0
5,33.22499990463257,learn,60000.0,Fri May 16 2025 15:33:10 GMT-0500 (Central Daylight Time),684108.0999999996,A,finger,O,r,95,1,1798.2000000001863,682309.8999999994,7138,WL,A,15.0
5,33.60699987411499,learn,60000.0,Fri May 16 2025 15:33:10 GMT-0500 (Central Daylight Time),684490.0,A,fingerenter,O,enter,376,1,2180.100000000559,682309.8999999994,7138,WL,A,15.0
6,1.815999984741211,distr,58184.00001525879,Fri May 16 2025 15:33:10 GMT-0500 (Central Daylight Time),752169.2000000002,B,c,O,c,1812,1,1816.1000000005588,750353.0999999996,7138,WL,A,1.0
6,2.0329999923706055,distr,57967.000007629395,Fri May 16 2025 15:33:10 GMT-0500 (Central Daylight Time),752385.8999999994,B,ch,O,h,212,1,2032.7999999998137,750353.0999999996,7138,WL,A,1.0
6,2.1649999618530273,distr,57835.00003814697,Fri May 16 2025 15:33:10 GMT-0500 (Central Daylight Time),752517.8999999994,B,cha,O,a,123,1,2164.7999999998137,750353.0999999996,7138,WL,A,1.0
6,2.2660000324249268,distr,57733.99996757507,Fri May 16 2025 15:33:10 GMT-0500 (Central Daylight Time),752619.0,B,chai,O,i,96,1,2265.9000000003725,750353.0999999996,7138,WL,A,1.0
6,2.364000082015991,distr,57635.99991798401,Fri May 16 2025 15:33:10 GMT-0500 (Central Daylight Time),752716.3999999994,B,chair,O,r,88,1,2363.2999999998137,750353.0999999996,7138,WL,A,1.0
6,4.364000082015991,distr,55635.99991798401,Fri May 16 2025 15:33:10 GMT-0500 (Central Daylight Time),754716.7999999998,B,chairenter,O,enter,1992,1,4363.700000000186,750353.0999999996,7138,WL,A,1.0
6,5.447999954223633,distr,54552.00004577637,Fri May 16 2025 15:33:10 GMT-0500 (Central Daylight Time),755800.7999999998,B,d,O,d,1071,1,1083.7999999998137,754717.0,7138,WL,A,2.0
6,6.63100004196167,distr,53368.99995803833,Fri May 16 2025 15:33:10 GMT-0500 (Central Daylight Time),756983.5,B,da,O,a,1163,1,2266.5,754717.0,7138,WL,A,2.0
6,6.8480000495910645,distr,53151.999950408936,Fri May 16 2025 15:33:10 GMT-0500 (Central Daylight Time),757200.2999999998,B,daw,O,w,204,1,2483.2999999998137,754717.0,7138,WL,A,2.0
6,7.064000129699707,distr,52935.99987030029,Fri May 16 2025 15:33:10 GMT-0500 (Central Daylight Time),757416.2999999998,B,dawn,O,n,203,1,2699.2999999998137,754717.0,7138,WL,A,2.0
6,7.745000123977661,distr,52254.99987602234,Fri May 16 2025 15:33:10 GMT-0500 (Central Daylight Time),758097.7999999998,B,dawnenter,O,enter,668,1,3380.7999999998137,754717.0,7138,WL,A,2.0
6,8.230000019073486,distr,51769.999980926514,Fri May 16 2025 15:33:10 GMT-0500 (Central Daylight Time),758582.3999999994,B,j,O,j,474,1,484.29999999981374,758098.0999999996,7138,WL,A,3.0
6,8.46399998664856,distr,51536.00001335144,Fri May 16 2025 15:33:10 GMT-0500 (Central Daylight Time),758816.7000000002,B,ju,O,u,213,1,718.6000000005588,758098.0999999996,7138,WL,A,3.0
6,8.829999923706055,distr,51170.000076293945,Fri May 16 2025 15:33:10 GMT-0500 (Central Daylight Time),759182.7000000002,B,jud,O,d,355,1,1084.6000000005588,758098.0999999996,7138,WL,A,3.0
6,9.02999997138977,distr,50970.00002861023,Fri May 16 2025 15:33:10 GMT-0500 (Central Daylight Time),759382.5999999996,B,judg,O,g,180,1,1284.5,758098.0999999996,7138,WL,A,3.0
6,9.164000034332275,distr,50835.999965667725,Fri May 16 2025 15:33:10 GMT-0500 (Central Daylight Time),759516.5999999996,B,judge,O,e,111,1,1418.5,758098.0999999996,7138,WL,A,3.0
6,9.712000131607056,distr,50287.999868392944,Fri May 16 2025 15:33:10 GMT-0500 (Central Daylight Time),760064.7999999998,B,judgeenter,O,enter,534,1,1966.7000000001863,758098.0999999996,7138,WL,A,3.0
6,10.180000066757202,distr,49819.9999332428,Fri May 16 2025 15:33:10 GMT-0500 (Central Daylight Time),760532.8999999994,B,n,O,n,462,1,467.8999999994412,760065.0,7138,WL,A,4.0
6,10.314000129699707,distr,49685.99987030029,Fri May 16 2025 15:33:10 GMT-0500 (Central Daylight Time),760666.2999999998,B,ni,O,i,128,1,601.2999999998137,760065.0,7138,WL,A,4.0
6,10.763000011444092,distr,49236.99998855591,Fri May 16 2025 15:33:10 GMT-0500 (Central Daylight Time),761115.7999999998,B,n,O,backspace,433,1,1050.7999999998137,760065.0,7138,WL,A,4.0
6,10.897000074386597,distr,49102.9999256134,Fri May 16 2025 15:33:10 GMT-0500 (Central Daylight Time),761249.5,B,,O,backspace,128,1,1184.5,760065.0,7138,WL,A,4.0
6,11.196000099182129,distr,48803.99990081787,Fri May 16 2025 15:33:10 GMT-0500 (Central Daylight Time),761548.5,B,i,O,i,291,1,1483.5,760065.0,7138,WL,A,4.0
6,11.26200008392334,distr,48737.99991607666,Fri May 16 2025 15:33:10 GMT-0500 (Central Daylight Time),761614.5999999996,B,in,O,n,46,1,1549.5999999996275,760065.0,7138,WL,A,4.0
6,11.44700002670288,distr,48552.99997329712,Fri May 16 2025 15:33:10 GMT-0500 (Central Daylight Time),761799.7000000002,B,ins,O,s,163,1,1734.7000000001863,760065.0,7138,WL,A,4.0
6,11.595999956130981,distr,48404.00004386902,Fri May 16 2025 15:33:10 GMT-0500 (Central Daylight Time),761948.7000000002,B,inse,O,e,142,1,1883.7000000001863,760065.0,7138,WL,A,4.0
6,11.977999925613403,distr,48022.0000743866,Fri May 16 2025 15:33:10 GMT-0500 (Central Daylight Time),762331.0999999996,B,insec,O,c,366,1,2266.0999999996275,760065.0,7138,WL,A,4.0
6,12.178999900817871,distr,47821.00009918213,Fri May 16 2025 15:33:10 GMT-0500 (Central Daylight Time),762531.5,B,insect,O,t,185,1,2466.5,760065.0,7138,WL,A,4.0
6,12.611000061035156,distr,47388.999938964844,Fri May 16 2025 15:33:10 GMT-0500 (Central Daylight Time),762964.0999999996,B,insectenter,O,enter,424,1,2899.0999999996275,760065.0,7138,WL,A,4.0
6,14.444999933242798,distr,45555.0000667572,Fri May 16 2025 15:33:10 GMT-0500 (Central Daylight Time),764797.2999999998,B,b,O,b,1824,1,1833.0999999996275,762964.2000000002,7138,WL,A,5.0
6,14.594000101089478,distr,45405.99989891052,Fri May 16 2025 15:33:10 GMT-0500 (Central Daylight Time),764946.5999999996,B,bo,O,o,143,1,1982.3999999994412,762964.2000000002,7138,WL,A,5.0
6,14.745000123977661,distr,45254.99987602234,Fri May 16 2025 15:33:10 GMT-0500 (Central Daylight Time),765097.7000000002,B,bot,O,t,129,1,2133.5,762964.2000000002,7138,WL,A,5.0
6,14.894999980926514,distr,45105.000019073486,Fri May 16 2025 15:33:10 GMT-0500 (Central Daylight Time),765248.0999999996,B,bott,O,t,130,1,2283.899999999441,762964.2000000002,7138,WL,A,5.0
6,15.07800006866455,distr,44921.99993133545,Fri May 16 2025 15:33:10 GMT-0500 (Central Daylight Time),765431.0,B,bottl,O,l,163,1,2466.7999999998137,762964.2000000002,7138,WL,A,5.0
6,15.210999965667725,distr,44789.000034332275,Fri May 16 2025 15:33:10 GMT-0500 (Central Daylight Time),765563.7999999998,B,bottle,O,e,125,1,2599.5999999996275,762964.2000000002,7138,WL,A,5.0
6,15.727999925613403,distr,44272.0000743866,Fri May 16 2025 15:33:10 GMT-0500 (Central Daylight Time),766080.2999999998,B,bottleenter,O,enter,504,1,3116.0999999996275,762964.2000000002,7138,WL,A,5.0
6,17.627000093460083,distr,42372.99990653992,Fri May 16 2025 15:33:10 GMT-0500 (Central Daylight Time),767979.3999999994,B,p,O,p,1882,1,1898.8999999994412,766080.5,7138,WL,A,6.0
6,20.27500009536743,distr,39724.99990463257,Fri May 16 2025 15:33:10 GMT-0500 (Central Daylight Time),770628.0999999996,B,,O,backspace,2642,1,4547.5999999996275,766080.5,7138,WL,A,6.0
6,21.95900011062622,distr,38040.99988937378,Fri May 16 2025 15:33:10 GMT-0500 (Central Daylight Time),772311.5999999996,B,p,O,p,1672,1,6231.0999999996275,766080.5,7138,WL,A,6.0
6,22.242000102996826,distr,37757.999897003174,Fri May 16 2025 15:33:10 GMT-0500 (Central Daylight Time),772594.7000000002,B,po,O,o,278,1,6514.200000000186,766080.5,7138,WL,A,6.0
6,22.408999919891357,distr,37591.00008010864,Fri May 16 2025 15:33:10 GMT-0500 (Central Daylight Time),772761.7000000002,B,poo,O,o,162,1,6681.200000000186,766080.5,7138,WL,A,6.0
6,22.674999952316284,distr,37325.000047683716,Fri May 16 2025 15:33:10 GMT-0500 (Central Daylight Time),773027.8999999994,B,pool,O,l,257,1,6947.399999999441,766080.5,7138,WL,A,6.0
6,23.05900001525879,distr,36940.99998474121,Fri May 16 2025 15:33:10 GMT-0500 (Central Daylight Time),773411.2999999998,B,poolenter,O,enter,362,1,7330.799999999814,766080.5,7138,WL,A,6.0
6,31.740000009536743,distr,28259.999990463257,Fri May 16 2025 15:33:10 GMT-0500 (Central Daylight Time),782092.5999999996,B,c,O,c,8660,1,8681.099999999627,773411.5,7138,WL,A,7.0
6,31.872999906539917,distr,28127.000093460083,Fri May 16 2025 15:33:10 GMT-0500 (Central Daylight Time),782226.0999999996,B,co,O,o,127,1,8814.599999999627,773411.5,7138,WL,A,7.0
6,31.990000009536743,distr,28009.999990463257,Fri May 16 2025 15:33:10 GMT-0500 (Central Daylight Time),782342.5,B,cou,O,u,101,1,8931.0,773411.5,7138,WL,A,7.0
6,32.22200012207031,distr,27777.999877929688,Fri May 16 2025 15:33:10 GMT-0500 (Central Daylight Time),782575.3999999994,B,coun,O,n,213,1,9163.899999999441,773411.5,7138,WL,A,7.0
6,32.32299995422363,distr,27677.000045776367,Fri May 16 2025 15:33:10 GMT-0500 (Central Daylight Time),782675.5999999996,B,count,O,t,95,1,9264.099999999627,773411.5,7138,WL,A,7.0
6,32.72200012207031,distr,27277.999877929688,Fri May 16 2025 15:33:10 GMT-0500 (Central Daylight Time),783075.2999999998,B,countr,O,r,393,1,9663.799999999814,773411.5,7138,WL,A,7.0
6,33.27300000190735,distr,26726.99999809265,Fri May 16 2025 15:33:10 GMT-0500 (Central Daylight Time),783625.7000000002,B,country,O,y,535,1,10214.200000000186,773411.5,7138,WL,A,7.0
6,33.63800001144409,distr,26361.99998855591,Fri May 16 2025 15:33:10 GMT-0500 (Central Daylight Time),783990.7999999998,B,countryenter,O,enter,345,1,10579.299999999814,773411.5,7138,WL,A,7.0
6,43.63499999046326,distr,16365.000009536743,Fri May 16 2025 15:33:10 GMT-0500 (Central Daylight Time),793987.7000000002,B,s,O,s,9976,1,9996.600000000559,783991.0999999996,7138,WL,A,8.0
6,43.819000005722046,distr,16180.999994277954,Fri May 16 2025 15:33:10 GMT-0500 (Central Daylight Time),794171.3999999994,B,sh,O,h,166,1,10180.299999999814,783991.0999999996,7138,WL,A,8.0
6,43.95300006866455,distr,16046.99993133545,Fri May 16 2025 15:33:10 GMT-0500 (Central Daylight Time),794305.5999999996,B,she,O,e,127,1,10314.5,783991.0999999996,7138,WL,A,8.0
6,44.069000005722046,distr,15930.999994277954,Fri May 16 2025 15:33:10 GMT-0500 (Central Daylight Time),794421.5999999996,B,shee,O,e,104,1,10430.5,783991.0999999996,7138,WL,A,8.0
6,44.45199990272522,distr,15548.00009727478,Fri May 16 2025 15:33:10 GMT-0500 (Central Daylight Time),794805.2999999998,B,sheep,O,p,365,1,10814.200000000186,783991.0999999996,7138,WL,A,8.0
6,44.901999950408936,distr,15098.000049591064,Fri May 16 2025 15:33:10 GMT-0500 (Central Daylight Time),795254.8999999994,B,sheepenter,O,enter,434,1,11263.799999999814,783991.0999999996,7138,WL,A,8.0
6,60.013999938964844,distr,-13.99993896484375,Fri May 16 2025 15:33:10 GMT-0500 (Central Daylight Time),810367.0,B,None,O,None,15107,1,15111.900000000373,795255.0999999996,7138,WL,A,9.0
7,1.748000144958496,immed,58251.999855041504,Fri May 16 2025 15:33:10 GMT-0500 (Central Daylight Time),825894.0999999996,A,t,O,t,1737,1,1747.5,824146.5999999996,7138,WL,A,1.0
7,1.931999921798706,immed,58068.000078201294,Fri May 16 2025 15:33:10 GMT-0500 (Central Daylight Time),826078.0,A,tr,O,r,162,1,1931.4000000003725,824146.5999999996,7138,WL,A,1.0
7,2.0320000648498535,immed,57967.99993515015,Fri May 16 2025 15:33:10 GMT-0500 (Central Daylight Time),826177.5999999996,A,tra,O,a,85,1,2031.0,824146.5999999996,7138,WL,A,1.0
7,2.184000015258789,immed,57815.99998474121,Fri May 16 2025 15:33:10 GMT-0500 (Central Daylight Time),826329.7999999998,A,trai,O,i,145,1,2183.2000000001863,824146.5999999996,7138,WL,A,1.0
7,2.2990000247955322,immed,57700.99997520447,Fri May 16 2025 15:33:10 GMT-0500 (Central Daylight Time),826444.7000000002,A,train,O,n,105,1,2298.100000000559,824146.5999999996,7138,WL,A,1.0
7,3.2320001125335693,immed,56767.99988746643,Fri May 16 2025 15:33:10 GMT-0500 (Central Daylight Time),827378.0999999996,A,trainenter,O,enter,927,1,3231.5,824146.5999999996,7138,WL,A,1.0
7,5.996999979019165,immed,54003.000020980835,Fri May 16 2025 15:33:10 GMT-0500 (Central Daylight Time),830143.2999999998,A,b,O,b,2746,1,2764.9000000003725,827378.3999999994,7138,WL,A,2.0
7,6.13100004196167,immed,53868.99995803833,Fri May 16 2025 15:33:10 GMT-0500 (Central Daylight Time),830276.5,A,bu,O,u,125,1,2898.100000000559,827378.3999999994,7138,WL,A,2.0
7,6.248000144958496,immed,53751.999855041504,Fri May 16 2025 15:33:10 GMT-0500 (Central Daylight Time),830393.3999999994,A,but,O,t,104,1,3015.0,827378.3999999994,7138,WL,A,2.0
7,6.396000146865845,immed,53603.999853134155,Fri May 16 2025 15:33:10 GMT-0500 (Central Daylight Time),830541.8999999994,A,butt,O,t,129,1,3163.5,827378.3999999994,7138,WL,A,2.0
7,6.5959999561309814,immed,53404.00004386902,Fri May 16 2025 15:33:10 GMT-0500 (Central Daylight Time),830741.7999999998,A,butto,O,o,192,1,3363.4000000003725,827378.3999999994,7138,WL,A,2.0
7,6.730999946594238,immed,53269.00005340576,Fri May 16 2025 15:33:10 GMT-0500 (Central Daylight Time),830876.8999999994,A,button,O,n,126,1,3498.5,827378.3999999994,7138,WL,A,2.0
7,7.130000114440918,immed,52869.99988555908,Fri May 16 2025 15:33:10 GMT-0500 (Central Daylight Time),831275.7999999998,A,buttonenter,O,enter,383,1,3897.4000000003725,827378.3999999994,7138,WL,A,2.0
7,9.397000074386597,immed,50602.9999256134,Fri May 16 2025 15:33:10 GMT-0500 (Central Daylight Time),833543.0,A,h,O,h,2248,1,2266.9000000003725,831276.0999999996,7138,WL,A,3.0
7,9.513000011444092,immed,50486.99998855591,Fri May 16 2025 15:33:10 GMT-0500 (Central Daylight Time),833658.2999999998,A,ha,O,a,109,1,2382.2000000001863,831276.0999999996,7138,WL,A,3.0
7,9.61300015449524,immed,50386.99984550476,Fri May 16 2025 15:33:10 GMT-0500 (Central Daylight Time),833759.2000000002,A,har,O,r,88,1,2483.100000000559,831276.0999999996,7138,WL,A,3.0
7,9.779000043869019,immed,50220.99995613098,Fri May 16 2025 15:33:10 GMT-0500 (Central Daylight Time),833925.0999999996,A,harp,O,p,156,1,2649.0,831276.0999999996,7138,WL,A,3.0
7,10.161999940872192,immed,49838.00005912781,Fri May 16 2025 15:33:10 GMT-0500 (Central Daylight Time),834307.7000000002,A,harpenter,O,enter,365,1,3031.600000000559,831276.0999999996,7138,WL,A,3.0
7,10.480000019073486,immed,49519.999980926514,Fri May 16 2025 15:33:10 GMT-0500 (Central Daylight Time),834626.2000000002,A,f,O,f,313,1,318.30000000074506,834307.8999999994,7138,WL,A,4.0
7,10.595999956130981,immed,49404.00004386902,Fri May 16 2025 15:33:10 GMT-0500 (Central Daylight Time),834741.5999999996,A,fi,O,i,104,1,433.70000000018626,834307.8999999994,7138,WL,A,4.0
7,10.713000059127808,immed,49286.99994087219,Fri May 16 2025 15:33:10 GMT-0500 (Central Daylight Time),834858.7999999998,A,fin,O,n,101,1,550.9000000003725,834307.8999999994,7138,WL,A,4.0
7,10.795000076293945,immed,49204.999923706055,Fri May 16 2025 15:33:10 GMT-0500 (Central Daylight Time),834941.2999999998,A,fing,O,g,71,1,633.4000000003725,834307.8999999994,7138,WL,A,4.0
7,10.897000074386597,immed,49102.9999256134,Fri May 16 2025 15:33:10 GMT-0500 (Central Daylight Time),835042.7999999998,A,finge,O,e,95,1,734.9000000003725,834307.8999999994,7138,WL,A,4.0
7,11.01200008392334,immed,48987.99991607666,Fri May 16 2025 15:33:10 GMT-0500 (Central Daylight Time),835158.2000000002,A,finger,O,r,104,1,850.3000000007451,834307.8999999994,7138,WL,A,4.0
7,11.328999996185303,immed,48671.0000038147,Fri May 16 2025 15:33:10 GMT-0500 (Central Daylight Time),835474.5999999996,A,fingerenter,O,enter,308,1,1166.7000000001863,834307.8999999994,7138,WL,A,4.0
7,11.663000106811523,immed,48336.99989318848,Fri May 16 2025 15:33:10 GMT-0500 (Central Daylight Time),835809.2000000002,A,d,O,d,314,1,334.40000000037253,835474.7999999998,7138,WL,A,5.0
7,12.144999980926514,immed,47855.000019073486,Fri May 16 2025 15:33:10 GMT-0500 (Central Daylight Time),836290.7999999998,A,,O,backspace,467,1,816.0,835474.7999999998,7138,WL,A,5.0
7,12.296000003814697,immed,47703.9999961853,Fri May 16 2025 15:33:10 GMT-0500 (Central Daylight Time),836441.7000000002,A,f,O,f,136,1,966.9000000003725,835474.7999999998,7138,WL,A,5.0
7,12.529000043869019,immed,47470.99995613098,Fri May 16 2025 15:33:10 GMT-0500 (Central Daylight Time),836675.2999999998,A,fl,O,l,216,1,1200.5,835474.7999999998,7138,WL,A,5.0
7,12.696000099182129,immed,47303.99990081787,Fri May 16 2025 15:33:10 GMT-0500 (Central Daylight Time),836842.0999999996,A,flo,O,o,151,1,1367.2999999998137,835474.7999999998,7138,WL,A,5.0
7,12.794000148773193,immed,47205.99985122681,Fri May 16 2025 15:33:10 GMT-0500 (Central Daylight Time),836940.0,A,flor,O,r,79,1,1465.2000000001863,835474.7999999998,7138,WL,A,5.0
7,13.16100001335144,immed,46838.99998664856,Fri May 16 2025 15:33:10 GMT-0500 (Central Daylight Time),837307.2000000002,A,florw,O,w,348,1,1832.4000000003725,835474.7999999998,7138,WL,A,5.0
7,13.477999925613403,immed,46522.0000743866,Fri May 16 2025 15:33:10 GMT-0500 (Central Daylight Time),837624.2000000002,A,flor,O,backspace,296,1,2149.4000000003725,835474.7999999998,7138,WL,A,5.0
7,13.59500002861023,immed,46404.99997138977,Fri May 16 2025 15:33:10 GMT-0500 (Central Daylight Time),837741.0,A,flo,O,backspace,106,1,2266.2000000001863,835474.7999999998,7138,WL,A,5.0
7,13.66100001335144,immed,46338.99998664856,Fri May 16 2025 15:33:10 GMT-0500 (Central Daylight Time),837806.5,A,flow,O,w,53,1,2331.7000000001863,835474.7999999998,7138,WL,A,5.0
7,13.779000043869019,immed,46220.99995613098,Fri May 16 2025 15:33:10 GMT-0500 (Central Daylight Time),837925.0999999996,A,flowe,O,e,113,1,2450.2999999998137,835474.7999999998,7138,WL,A,5.0
7,13.894000053405762,immed,46105.99994659424,Fri May 16 2025 15:33:10 GMT-0500 (Central Daylight Time),838040.0999999996,A,flower,O,r,102,1,2565.2999999998137,835474.7999999998,7138,WL,A,5.0
7,14.210999965667725,immed,45789.000034332275,Fri May 16 2025 15:33:10 GMT-0500 (Central Daylight Time),838356.2999999998,A,flowerenter,O,enter,296,1,2881.5,835474.7999999998,7138,WL,A,5.0
7,14.628999948501587,immed,45371.00005149841,Fri May 16 2025 15:33:10 GMT-0500 (Central Daylight Time),838774.8999999994,A,c,O,c,400,1,418.3999999994412,838356.5,7138,WL,A,6.0
7,14.779000043869019,immed,45220.99995613098,Fri May 16 2025 15:33:10 GMT-0500 (Central Daylight Time),838924.8999999994,A,ch,O,h,133,1,568.3999999994412,838356.5,7138,WL,A,6.0
7,14.894000053405762,immed,45105.99994659424,Fri May 16 2025 15:33:10 GMT-0500 (Central Daylight Time),839039.7000000002,A,chi,O,i,102,1,683.2000000001863,838356.5,7138,WL,A,6.0
7,15.111999988555908,immed,44888.00001144409,Fri May 16 2025 15:33:10 GMT-0500 (Central Daylight Time),839258.2000000002,A,chim,O,m,213,1,901.7000000001863,838356.5,7138,WL,A,6.0
7,15.725000143051147,immed,44274.99985694885,Fri May 16 2025 15:33:10 GMT-0500 (Central Daylight Time),839871.2000000002,A,chimn,O,n,591,1,1514.7000000001863,838356.5,7138,WL,A,6.0
7,15.89300012588501,immed,44106.99987411499,Fri May 16 2025 15:33:10 GMT-0500 (Central Daylight Time),840038.8999999994,A,chimne,O,e,158,1,1682.3999999994412,838356.5,7138,WL,A,6.0
7,16.092000007629395,immed,43907.999992370605,Fri May 16 2025 15:33:10 GMT-0500 (Central Daylight Time),840237.7999999998,A,chimney,O,y,189,1,1881.2999999998137,838356.5,7138,WL,A,6.0
7,16.41000008583069,immed,43589.99991416931,Fri May 16 2025 15:33:10 GMT-0500 (Central Daylight Time),840555.8999999994,A,chimneyenter,O,enter,301,1,2199.399999999441,838356.5,7138,WL,A,6.0
7,18.427000045776367,immed,41572.99995422363,Fri May 16 2025 15:33:10 GMT-0500 (Central Daylight Time),842572.7000000002,A,l,O,l,2011,1,2016.4000000003725,840556.2999999998,7138,WL,A,7.0
7,18.625999927520752,immed,41374.00007247925,Fri May 16 2025 15:33:10 GMT-0500 (Central Daylight Time),842772.2999999998,A,lo,O,o,184,1,2216.0,840556.2999999998,7138,WL,A,7.0
7,18.72699999809265,immed,41273.00000190735,Fri May 16 2025 15:33:10 GMT-0500 (Central Daylight Time),842872.5999999996,A,log,O,g,84,1,2316.2999999998137,840556.2999999998,7138,WL,A,7.0
7,19.111000061035156,immed,40888.999938964844,Fri May 16 2025 15:33:10 GMT-0500 (Central Daylight Time),843257.3999999994,A,logenter,O,enter,378,1,2701.0999999996275,840556.2999999998,7138,WL,A,7.0
7,20.575999975204468,immed,39424.00002479553,Fri May 16 2025 15:33:10 GMT-0500 (Central Daylight Time),844721.7000000002,A,b,O,b,1451,1,1464.1000000005588,843257.5999999996,7138,WL,A,8.0
7,20.759000062942505,immed,39240.999937057495,Fri May 16 2025 15:33:10 GMT-0500 (Central Daylight Time),844905.5,A,bo,O,o,170,1,1647.9000000003725,843257.5999999996,7138,WL,A,8.0
7,20.91000008583069,immed,39089.99991416931,Fri May 16 2025 15:33:10 GMT-0500 (Central Daylight Time),845055.7000000002,A,boo,O,o,128,1,1798.1000000005588,843257.5999999996,7138,WL,A,8.0
7,21.075999975204468,immed,38924.00002479553,Fri May 16 2025 15:33:10 GMT-0500 (Central Daylight Time),845222.0,A,book,O,k,145,1,1964.4000000003725,843257.5999999996,7138,WL,A,8.0
7,21.390000104904175,immed,38609.999895095825,Fri May 16 2025 15:33:10 GMT-0500 (Central Daylight Time),845536.2999999998,A,bookenter,O,enter,308,1,2278.7000000001863,843257.5999999996,7138,WL,A,8.0
7,26.189000129699707,immed,33810.99987030029,Fri May 16 2025 15:33:10 GMT-0500 (Central Daylight Time),850334.7999999998,A,a,O,a,4781,1,4798.299999999814,845536.5,7138,WL,A,9.0
7,26.623000144958496,immed,33376.999855041504,Fri May 16 2025 15:33:10 GMT-0500 (Central Daylight Time),850768.7000000002,A,,O,backspace,430,1,5232.200000000186,845536.5,7138,WL,A,9.0
7,26.72099995613098,immed,33279.00004386902,Fri May 16 2025 15:33:10 GMT-0500 (Central Daylight Time),850867.3999999994,A,s,O,s,83,1,5330.899999999441,845536.5,7138,WL,A,9.0
7,26.855000019073486,immed,33144.999980926514,Fri May 16 2025 15:33:10 GMT-0500 (Central Daylight Time),851001.0,A,sa,O,a,129,1,5464.5,845536.5,7138,WL,A,9.0
7,27.022000074386597,immed,32977.9999256134,Fri May 16 2025 15:33:10 GMT-0500 (Central Daylight Time),851167.7000000002,A,sal,O,l,155,1,5631.200000000186,845536.5,7138,WL,A,9.0
7,27.288000106811523,immed,32711.999893188477,Fri May 16 2025 15:33:10 GMT-0500 (Central Daylight Time),851434.0999999996,A,salt,O,t,253,1,5897.5999999996275,845536.5,7138,WL,A,9.0
7,27.588000059127808,immed,32411.999940872192,Fri May 16 2025 15:33:10 GMT-0500 (Central Daylight Time),851734.2999999998,A,saltenter,O,enter,282,1,6197.799999999814,845536.5,7138,WL,A,9.0
7,28.206000089645386,immed,31793.999910354614,Fri May 16 2025 15:33:10 GMT-0500 (Central Daylight Time),852352.0999999996,A,a,O,a,599,1,617.7000000001863,851734.3999999994,7138,WL,A,10.0
7,28.42300009727478,immed,31576.99990272522,Fri May 16 2025 15:33:10 GMT-0500 (Central Daylight Time),852568.5999999996,A,ap,O,p,195,1,834.2000000001863,851734.3999999994,7138,WL,A,10.0
7,28.555999994277954,immed,31444.000005722046,Fri May 16 2025 15:33:10 GMT-0500 (Central Daylight Time),852701.8999999994,A,app,O,p,124,1,967.5,851734.3999999994,7138,WL,A,10.0
7,28.80400013923645,immed,31195.99986076355,Fri May 16 2025 15:33:10 GMT-0500 (Central Daylight Time),852950.3999999994,A,appl,O,l,230,1,1216.0,851734.3999999994,7138,WL,A,10.0
7,28.888000011444092,immed,31111.99998855591,Fri May 16 2025 15:33:10 GMT-0500 (Central Daylight Time),853033.7000000002,A,apple,O,e,77,1,1299.300000000745,851734.3999999994,7138,WL,A,10.0
7,29.222000122070312,immed,30777.999877929688,Fri May 16 2025 15:33:10 GMT-0500 (Central Daylight Time),853368.2000000002,A,appleenter,O,enter,321,1,1633.800000000745,851734.3999999994,7138,WL,A,10.0
7,37.769999980926514,immed,22230.000019073486,Fri May 16 2025 15:33:10 GMT-0500 (Central Daylight Time),861915.5,A,r,O,r,8539,1,8547.0,853368.5,7138,WL,A,11.0
7,37.93499994277954,immed,22065.00005722046,Fri May 16 2025 15:33:10 GMT-0500 (Central Daylight Time),862081.2999999998,A,ra,O,a,152,1,8712.799999999814,853368.5,7138,WL,A,11.0
7,38.16799998283386,immed,21832.000017166138,Fri May 16 2025 15:33:10 GMT-0500 (Central Daylight Time),862313.8999999994,A,rat,O,t,219,1,8945.399999999441,853368.5,7138,WL,A,11.0
7,38.43400001525879,immed,21565.99998474121,Fri May 16 2025 15:33:10 GMT-0500 (Central Daylight Time),862580.3999999994,A,ratl,O,l,250,1,9211.899999999441,853368.5,7138,WL,A,11.0
7,38.58500003814697,immed,21414.999961853027,Fri May 16 2025 15:33:10 GMT-0500 (Central Daylight Time),862730.5999999996,A,ratll,O,l,144,1,9362.099999999627,853368.5,7138,WL,A,11.0
7,38.7020001411438,immed,21297.9998588562,Fri May 16 2025 15:33:10 GMT-0500 (Central Daylight Time),862848.2000000002,A,ratlle,O,e,98,1,9479.700000000186,853368.5,7138,WL,A,11.0
7,39.16799998283386,immed,20832.000017166138,Fri May 16 2025 15:33:10 GMT-0500 (Central Daylight Time),863313.7999999998,A,ratll,O,backspace,452,1,9945.299999999814,853368.5,7138,WL,A,11.0
