acc_sum,block,block_c,change,condition,correct,correct_response,datetime,endtime,face,project,response,response_time,row_sel,session_number,start_end,starttime,subject_id,task,task_vers,trial
0,prac,1,,1-Back,,,Fri Mar 27 2026 13:57:36 GMT-0500 (Central Daylight Time),,012_o_f_d_a.png,O,space,21477,1,1,,,7784,VNB,C,0
1,prac,1,0.0,1-Back,1.0,m,Fri Mar 27 2026 13:57:36 GMT-0500 (Central Daylight Time),201555.79999995232,022_y_f_n_a.png,O,m,1662,2,1,2503.899999856949,199051.90000009537,7784,VNB,C,1
1,prac,1,0.0,1-Back,0.0,m,Fri Mar 27 2026 13:57:36 GMT-0500 (Central Daylight Time),204404.20000004768,014_m_m_h_a.png,O,None,2009,3,1,2844.5,201559.70000004768,7784,VNB,C,2
1,prac,1,0.0,1-Back,0.0,m,Fri Mar 27 2026 13:57:36 GMT-0500 (Central Daylight Time),207253.90000009537,025_y_m_d_a.png,O,None,2003,4,1,2838.800000190735,204415.09999990463,7784,VNB,C,3
2,prac,1,0.0,1-Back,1.0,m,Fri Mar 27 2026 13:57:36 GMT-0500 (Central Daylight Time),209369.90000009537,012_o_f_n_a.png,O,m,1262,5,1,2110.0,207259.90000009537,7784,VNB,C,4
2,prac,1,1.0,1-Back,0.0,z,Fri Mar 27 2026 13:57:36 GMT-0500 (Central Daylight Time),211618.59999990463,025_y_m_n_a.png,O,m,1388,6,1,2237.5999999046326,209381.0,7784,VNB,C,5
3,prac,1,0.0,1-Back,1.0,m,Fri Mar 27 2026 13:57:36 GMT-0500 (Central Daylight Time),214318.09999990463,015_o_m_h_a.png,O,m,1818,7,1,2693.0999999046326,211625.0,7784,VNB,C,6
3,prac,1,0.0,1-Back,0.0,m,Fri Mar 27 2026 13:57:36 GMT-0500 (Central Daylight Time),216649.59999990463,019_m_f_d_a.png,O,z,1447,8,1,2318.699999809265,214330.90000009537,7784,VNB,C,7
4,prac,1,1.0,1-Back,1.0,z,Fri Mar 27 2026 13:57:36 GMT-0500 (Central Daylight Time),218950.09999990463,022_y_f_d_a.png,O,z,1435,9,1,2293.399999856949,216656.70000004768,7784,VNB,C,8
5,prac,1,0.0,1-Back,1.0,m,Fri Mar 27 2026 13:57:36 GMT-0500 (Central Daylight Time),221082.5,014_m_m_n_a.png,O,m,1273,10,1,2121.2999999523163,218961.20000004768,7784,VNB,C,9
5,prac,1,0.0,1-Back,0.0,m,Fri Mar 27 2026 13:57:36 GMT-0500 (Central Daylight Time),223950.0,012_o_f_h_a.png,O,None,2012,11,1,2861.2999999523163,221088.70000004768,7784,VNB,C,10
6,prac,1,0.0,1-Back,1.0,m,Fri Mar 27 2026 13:57:36 GMT-0500 (Central Daylight Time),226613.40000009537,025_y_m_d_a.png,O,m,1801,12,1,2651.7000000476837,223961.70000004768,7784,VNB,C,11
0,prac,2,0.0,1-Back,,,Fri Mar 27 2026 13:57:36 GMT-0500 (Central Daylight Time),226613.40000009537,012_o_f_d_a.png,O,a,4105,1,1,2651.7000000476837,223961.70000004768,7784,VNB,C,0
1,prac,2,0.0,1-Back,1.0,m,Fri Mar 27 2026 13:57:36 GMT-0500 (Central Daylight Time),235943.70000004768,022_y_f_n_a.png,O,m,1322,2,1,2174.100000143051,233769.59999990463,7784,VNB,C,1
1,prac,2,0.0,1-Back,0.0,m,Fri Mar 27 2026 13:57:36 GMT-0500 (Central Daylight Time),238794.5,014_m_m_h_a.png,O,None,2005,3,1,2841.7000000476837,235952.79999995232,7784,VNB,C,2
2,prac,2,0.0,1-Back,1.0,m,Fri Mar 27 2026 13:57:36 GMT-0500 (Central Daylight Time),240911.09999990463,025_y_m_d_a.png,O,m,1337,4,1,2112.2999999523163,238798.79999995232,7784,VNB,C,3
2,prac,2,0.0,1-Back,0.0,m,Fri Mar 27 2026 13:57:36 GMT-0500 (Central Daylight Time),243142.59999990463,012_o_f_n_a.png,O,z,1356,5,1,2221.5999999046326,240921.0,7784,VNB,C,4
2,prac,2,1.0,1-Back,0.0,z,Fri Mar 27 2026 13:57:36 GMT-0500 (Central Daylight Time),245990.5,025_y_m_n_a.png,O,None,2009,6,1,2840.7999999523163,243149.70000004768,7784,VNB,C,5
3,prac,2,0.0,1-Back,1.0,m,Fri Mar 27 2026 13:57:36 GMT-0500 (Central Daylight Time),248026.70000004768,015_o_m_h_a.png,O,m,1184,7,1,2025.4000000953674,246001.29999995232,7784,VNB,C,6
4,prac,2,0.0,1-Back,1.0,m,Fri Mar 27 2026 13:57:36 GMT-0500 (Central Daylight Time),250158.5,019_m_f_d_a.png,O,m,1260,8,1,2128.0,248030.5,7784,VNB,C,7
5,prac,2,1.0,1-Back,1.0,z,Fri Mar 27 2026 13:57:36 GMT-0500 (Central Daylight Time),252203.5,022_y_f_d_a.png,O,z,1168,9,1,2035.2000000476837,250168.29999995232,7784,VNB,C,8
6,prac,2,0.0,1-Back,1.0,m,Fri Mar 27 2026 13:57:36 GMT-0500 (Central Daylight Time),254604.70000004768,014_m_m_n_a.png,O,m,1529,10,1,2398.600000143051,252206.09999990463,7784,VNB,C,9
7,prac,2,0.0,1-Back,1.0,m,Fri Mar 27 2026 13:57:36 GMT-0500 (Central Daylight Time),256820.20000004768,012_o_f_h_a.png,O,m,1358,11,1,2205.9000000953674,254614.29999995232,7784,VNB,C,10
8,prac,2,0.0,1-Back,1.0,m,Fri Mar 27 2026 13:57:36 GMT-0500 (Central Daylight Time),259088.0,025_y_m_d_a.png,O,m,1397,12,1,2261.0,256827.0,7784,VNB,C,11
0,test,1,0.0,1-Back,,,Fri Mar 27 2026 13:57:36 GMT-0500 (Central Daylight Time),259088.0,022_y_f_d_a.png,O,space,1910,1,1,2261.0,256827.0,7784,VNB,C,0
1,test,1,0.0,1-Back,1.0,m,Fri Mar 27 2026 13:57:36 GMT-0500 (Central Daylight Time),274831.90000009537,019_m_f_n_a.png,O,m,1400,2,1,2425.2000000476837,272406.7000000477,7784,VNB,C,1
2,test,1,0.0,1-Back,1.0,m,Fri Mar 27 2026 13:57:36 GMT-0500 (Central Daylight Time),277214.7999999523,015_o_m_h_a.png,O,m,1361,3,1,2373.2999999523163,274841.5,7784,VNB,C,2
3,test,1,1.0,1-Back,1.0,z,Fri Mar 27 2026 13:57:36 GMT-0500 (Central Daylight Time),279315.0,014_m_m_h_a.png,O,z,1082,4,1,2096.9000000953674,277218.09999990463,7784,VNB,C,3
4,test,1,0.0,1-Back,1.0,m,Fri Mar 27 2026 13:57:36 GMT-0500 (Central Daylight Time),281463.90000009537,012_o_f_n_a.png,O,m,1118,5,1,2137.300000190735,279326.59999990463,7784,VNB,C,4
5,test,1,0.0,1-Back,1.0,m,Fri Mar 27 2026 13:57:36 GMT-0500 (Central Daylight Time),284429.2999999523,025_y_m_d_a.png,O,m,1936,6,1,2961.399999856949,281467.90000009537,7784,VNB,C,5
6,test,1,1.0,1-Back,1.0,z,Fri Mar 27 2026 13:57:36 GMT-0500 (Central Daylight Time),286777.40000009537,019_m_f_d_a.png,O,z,1330,7,1,2338.800000190735,284438.59999990463,7784,VNB,C,6
7,test,1,0.0,1-Back,1.0,m,Fri Mar 27 2026 13:57:36 GMT-0500 (Central Daylight Time),289327.09999990463,022_y_f_h_a.png,O,m,1518,8,1,2547.5999999046326,286779.5,7784,VNB,C,7
8,test,1,0.0,1-Back,1.0,m,Fri Mar 27 2026 13:57:36 GMT-0500 (Central Daylight Time),291509.5,015_o_m_n_a.png,O,m,1160,9,1,2172.7000000476837,289336.7999999523,7784,VNB,C,8
9,test,1,0.0,1-Back,1.0,m,Fri Mar 27 2026 13:57:36 GMT-0500 (Central Daylight Time),293825.7000000477,025_y_m_h_a.png,O,m,1290,10,1,2313.2999999523163,291512.40000009537,7784,VNB,C,9
10,test,1,0.0,1-Back,1.0,m,Fri Mar 27 2026 13:57:36 GMT-0500 (Central Daylight Time),296109.0,015_o_m_d_a.png,O,m,1254,11,1,2277.2999999523163,293831.7000000477,7784,VNB,C,10
10,test,1,1.0,1-Back,0.0,z,Fri Mar 27 2026 13:57:36 GMT-0500 (Central Daylight Time),298241.5,012_o_f_d_a.png,O,m,1107,12,1,2130.4000000953674,296111.09999990463,7784,VNB,C,11
11,test,1,0.0,1-Back,1.0,m,Fri Mar 27 2026 13:57:36 GMT-0500 (Central Daylight Time),300890.59999990463,014_m_m_n_a.png,O,m,1618,13,1,2640.899999856949,298249.7000000477,7784,VNB,C,12
12,test,1,1.0,1-Back,1.0,z,Fri Mar 27 2026 13:57:36 GMT-0500 (Central Daylight Time),303289.0,022_y_f_n_a.png,O,z,1373,14,1,2395.5,300893.5,7784,VNB,C,13
13,test,1,0.0,1-Back,1.0,m,Fri Mar 27 2026 13:57:36 GMT-0500 (Central Daylight Time),305605.40000009537,019_m_f_h_a.png,O,m,1285,15,1,2309.600000143051,303295.7999999523,7784,VNB,C,14
14,test,1,0.0,1-Back,1.0,m,Fri Mar 27 2026 13:57:36 GMT-0500 (Central Daylight Time),307487.2000000477,014_m_m_d_a.png,O,m,859,16,1,1879.4000000953674,305607.7999999523,7784,VNB,C,15
15,test,1,0.0,1-Back,1.0,m,Fri Mar 27 2026 13:57:36 GMT-0500 (Central Daylight Time),309768.90000009537,025_y_m_n_a.png,O,m,1262,17,1,2273.4000000953674,307495.5,7784,VNB,C,16
16,test,1,0.0,1-Back,1.0,m,Fri Mar 27 2026 13:57:36 GMT-0500 (Central Daylight Time),311987.09999990463,012_o_f_h_a.png,O,m,1192,18,1,2216.5,309770.59999990463,7784,VNB,C,17
0,test,2,0.0,1-Back,,,Fri Mar 27 2026 13:57:36 GMT-0500 (Central Daylight Time),311987.09999990463,025_y_m_n_a.png,O,space,1636,1,1,2216.5,309770.59999990463,7784,VNB,C,0
1,test,2,0.0,1-Back,1.0,m,Fri Mar 27 2026 13:57:36 GMT-0500 (Central Daylight Time),317833.7999999523,022_y_f_h_a.png,O,m,1164,2,1,2180.899999856949,315652.90000009537,7784,VNB,C,1
2,test,2,1.0,1-Back,1.0,m,Fri Mar 27 2026 13:57:36 GMT-0500 (Central Daylight Time),319882.2999999523,015_o_m_n_a.png,O,m,1029,3,1,2040.5999999046326,317841.7000000477,7784,VNB,C,2
3,test,2,0.0,1-Back,1.0,m,Fri Mar 27 2026 13:57:36 GMT-0500 (Central Daylight Time),322165.90000009537,019_m_f_d_a.png,O,m,1259,4,1,2281.800000190735,319884.09999990463,7784,VNB,C,3
4,test,2,0.0,1-Back,1.0,z,Fri Mar 27 2026 13:57:36 GMT-0500 (Central Daylight Time),324516.7999999523,014_m_m_d_a.png,O,z,1331,5,1,2341.399999856949,322175.40000009537,7784,VNB,C,4
5,test,2,0.0,1-Back,1.0,m,Fri Mar 27 2026 13:57:36 GMT-0500 (Central Daylight Time),326681.59999990463,025_y_m_h_a.png,O,m,1140,6,1,2161.699999809265,324519.90000009537,7784,VNB,C,5
6,test,2,1.0,1-Back,1.0,z,Fri Mar 27 2026 13:57:36 GMT-0500 (Central Daylight Time),328849.2999999523,012_o_f_h_a.png,O,z,1134,7,1,2158.5,326690.7999999523,7784,VNB,C,6
6,test,2,0.0,1-Back,0.0,m,Fri Mar 27 2026 13:57:36 GMT-0500 (Central Daylight Time),331879.7000000477,019_m_f_n_a.png,O,None,2015,8,1,3027.2000000476837,328852.5,7784,VNB,C,7
7,test,2,0.0,1-Back,1.0,m,Fri Mar 27 2026 13:57:36 GMT-0500 (Central Daylight Time),333899.59999990463,022_y_f_d_a.png,O,m,991,9,1,2010.5,331889.09999990463,7784,VNB,C,8
8,test,2,0.0,1-Back,1.0,m,Fri Mar 27 2026 13:57:36 GMT-0500 (Central Daylight Time),336178.2000000477,014_m_m_n_a.png,O,m,1255,10,1,2276.7000000476837,333901.5,7784,VNB,C,9
9,test,2,1.0,1-Back,1.0,m,Fri Mar 27 2026 13:57:36 GMT-0500 (Central Daylight Time),338262.09999990463,019_m_f_h_a.png,O,m,1054,11,1,2075.199999809265,336186.90000009537,7784,VNB,C,10
9,test,2,0.0,1-Back,0.0,z,Fri Mar 27 2026 13:57:36 GMT-0500 (Central Daylight Time),341179.40000009537,015_o_m_h_a.png,O,m,1883,12,1,2914.5,338264.90000009537,7784,VNB,C,11
10,test,2,0.0,1-Back,1.0,m,Fri Mar 27 2026 13:57:36 GMT-0500 (Central Daylight Time),343276.7000000477,025_y_m_d_a.png,O,m,1070,13,1,2089.0,341187.7000000477,7784,VNB,C,12
11,test,2,0.0,1-Back,1.0,m,Fri Mar 27 2026 13:57:36 GMT-0500 (Central Daylight Time),345826.59999990463,012_o_f_n_a.png,O,m,1533,14,1,2546.0,343280.59999990463,7784,VNB,C,13
12,test,2,0.0,1-Back,1.0,z,Fri Mar 27 2026 13:57:36 GMT-0500 (Central Daylight Time),347993.2999999523,022_y_f_n_a.png,O,z,1134,15,1,2159.5999999046326,345833.7000000477,7784,VNB,C,14
13,test,2,1.0,1-Back,1.0,m,Fri Mar 27 2026 13:57:36 GMT-0500 (Central Daylight Time),350774.2999999523,014_m_m_h_a.png,O,m,1762,16,1,2778.2999999523163,347996.0,7784,VNB,C,15
14,test,2,0.0,1-Back,1.0,m,Fri Mar 27 2026 13:57:36 GMT-0500 (Central Daylight Time),352822.5,012_o_f_d_a.png,O,m,1024,17,1,2040.0,350782.5,7784,VNB,C,16
15,test,2,1.0,1-Back,1.0,z,Fri Mar 27 2026 13:57:36 GMT-0500 (Central Daylight Time),355122.09999990463,015_o_m_d_a.png,O,z,1282,18,1,2295.5,352826.59999990463,7784,VNB,C,17
0,test,3,1.0,1-Back,,,Fri Mar 27 2026 13:57:36 GMT-0500 (Central Daylight Time),355122.09999990463,012_o_f_h_a.png,O,space,1750,1,1,2295.5,352826.59999990463,7784,VNB,C,0
1,test,3,0.0,1-Back,1.0,m,Fri Mar 27 2026 13:57:36 GMT-0500 (Central Daylight Time),360936.90000009537,019_m_f_d_a.png,O,m,948,2,1,1962.8000001907349,358974.09999990463,7784,VNB,C,1
2,test,3,1.0,1-Back,1.0,m,Fri Mar 27 2026 13:57:36 GMT-0500 (Central Daylight Time),363104.2999999523,014_m_m_n_a.png,O,m,1143,3,1,2159.7999999523163,360944.5,7784,VNB,C,2
3,test,3,0.0,1-Back,1.0,z,Fri Mar 27 2026 13:57:36 GMT-0500 (Central Daylight Time),365235.7000000477,012_o_f_n_a.png,O,z,1112,4,1,2128.0,363107.7000000477,7784,VNB,C,3
4,test,3,1.0,1-Back,1.0,m,Fri Mar 27 2026 13:57:36 GMT-0500 (Central Daylight Time),367419.7000000477,015_o_m_d_a.png,O,m,1157,5,1,2173.4000000953674,365246.2999999523,7784,VNB,C,4
5,test,3,0.0,1-Back,1.0,m,Fri Mar 27 2026 13:57:36 GMT-0500 (Central Daylight Time),369535.2999999523,022_y_f_h_a.png,O,m,1084,6,1,2112.5,367422.7999999523,7784,VNB,C,5
6,test,3,0.0,1-Back,1.0,z,Fri Mar 27 2026 13:57:36 GMT-0500 (Central Daylight Time),371268.0,025_y_m_h_a.png,O,z,713,7,1,1719.5999999046326,369548.40000009537,7784,VNB,C,6
7,test,3,0.0,1-Back,1.0,m,Fri Mar 27 2026 13:57:36 GMT-0500 (Central Daylight Time),373433.2999999523,019_m_f_n_a.png,O,m,1140,8,1,2161.2999999523163,371272.0,7784,VNB,C,7
8,test,3,0.0,1-Back,1.0,m,Fri Mar 27 2026 13:57:36 GMT-0500 (Central Daylight Time),375300.0,022_y_f_d_a.png,O,m,838,9,1,1858.0,373442.0,7784,VNB,C,8
9,test,3,1.0,1-Back,1.0,m,Fri Mar 27 2026 13:57:36 GMT-0500 (Central Daylight Time),378181.7000000477,015_o_m_n_a.png,O,m,1861,10,1,2874.7000000476837,375307.0,7784,VNB,C,9
10,test,3,0.0,1-Back,1.0,m,Fri Mar 27 2026 13:57:36 GMT-0500 (Central Daylight Time),380647.59999990463,014_m_m_h_a.png,O,m,1441,11,1,2455.399999856949,378192.2000000477,7784,VNB,C,10
11,test,3,0.0,1-Back,1.0,z,Fri Mar 27 2026 13:57:36 GMT-0500 (Central Daylight Time),382695.90000009537,019_m_f_h_a.png,O,z,1032,12,1,2044.3000001907349,380651.59999990463,7784,VNB,C,11
12,test,3,1.0,1-Back,1.0,m,Fri Mar 27 2026 13:57:36 GMT-0500 (Central Daylight Time),385080.7000000477,012_o_f_d_a.png,O,m,1350,13,1,2379.0,382701.7000000477,7784,VNB,C,12
13,test,3,0.0,1-Back,1.0,z,Fri Mar 27 2026 13:57:36 GMT-0500 (Central Daylight Time),386896.40000009537,014_m_m_d_a.png,O,z,792,14,1,1812.7000000476837,385083.7000000477,7784,VNB,C,13
14,test,3,0.0,1-Back,1.0,m,Fri Mar 27 2026 13:57:36 GMT-0500 (Central Daylight Time),389262.09999990463,025_y_m_n_a.png,O,m,1338,15,1,2356.2999999523163,386905.7999999523,7784,VNB,C,14
15,test,3,1.0,1-Back,1.0,m,Fri Mar 27 2026 13:57:36 GMT-0500 (Central Daylight Time),391110.40000009537,015_o_m_h_a.png,O,m,823,16,1,1844.7000000476837,389265.7000000477,7784,VNB,C,15
16,test,3,0.0,1-Back,1.0,m,Fri Mar 27 2026 13:57:36 GMT-0500 (Central Daylight Time),393362.40000009537,025_y_m_d_a.png,O,m,1232,17,1,2249.100000143051,391113.2999999523,7784,VNB,C,16
17,test,3,1.0,1-Back,1.0,m,Fri Mar 27 2026 13:57:36 GMT-0500 (Central Daylight Time),395594.40000009537,022_y_f_n_a.png,O,m,1215,18,1,2230.100000143051,393364.2999999523,7784,VNB,C,17
0,test,4,1.0,1-Back,,,Fri Mar 27 2026 13:57:36 GMT-0500 (Central Daylight Time),395594.40000009537,014_m_m_d_a.png,O,space,1173,1,1,2230.100000143051,393364.2999999523,7784,VNB,C,0
1,test,4,0.0,1-Back,1.0,z,Fri Mar 27 2026 13:57:36 GMT-0500 (Central Daylight Time),400958.40000009537,015_o_m_d_a.png,O,z,1146,2,1,2160.9000000953674,398797.5,7784,VNB,C,1
2,test,4,0.0,1-Back,1.0,m,Fri Mar 27 2026 13:57:36 GMT-0500 (Central Daylight Time),403873.59999990463,025_y_m_h_a.png,O,m,1893,3,1,2907.399999856949,400966.2000000477,7784,VNB,C,2
3,test,4,0.0,1-Back,1.0,m,Fri Mar 27 2026 13:57:36 GMT-0500 (Central Daylight Time),405757.09999990463,019_m_f_n_a.png,O,m,854,4,1,1880.7999999523163,403876.2999999523,7784,VNB,C,3
4,test,4,1.0,1-Back,1.0,m,Fri Mar 27 2026 13:57:36 GMT-0500 (Central Daylight Time),408089.40000009537,012_o_f_h_a.png,O,m,1307,5,1,2324.2000000476837,405765.2000000477,7784,VNB,C,4
5,test,4,0.0,1-Back,1.0,m,Fri Mar 27 2026 13:57:36 GMT-0500 (Central Daylight Time),410687.40000009537,014_m_m_n_a.png,O,m,1573,6,1,2596.100000143051,408091.2999999523,7784,VNB,C,5
6,test,4,0.0,1-Back,1.0,m,Fri Mar 27 2026 13:57:36 GMT-0500 (Central Daylight Time),412739.5,025_y_m_d_a.png,O,m,1034,7,1,2045.5999999046326,410693.90000009537,7784,VNB,C,6
7,test,4,1.0,1-Back,1.0,z,Fri Mar 27 2026 13:57:36 GMT-0500 (Central Daylight Time),414770.5,022_y_f_d_a.png,O,z,1005,8,1,2027.7999999523163,412742.7000000477,7784,VNB,C,7
8,test,4,0.0,1-Back,1.0,m,Fri Mar 27 2026 13:57:36 GMT-0500 (Central Daylight Time),416953.2999999523,019_m_f_h_a.png,O,m,1160,9,1,2173.7999999523163,414779.5,7784,VNB,C,8
9,test,4,0.0,1-Back,1.0,z,Fri Mar 27 2026 13:57:36 GMT-0500 (Central Daylight Time),418686.0,015_o_m_h_a.png,O,z,713,10,1,1730.5999999046326,416955.40000009537,7784,VNB,C,9
10,test,4,1.0,1-Back,1.0,m,Fri Mar 27 2026 13:57:36 GMT-0500 (Central Daylight Time),420752.59999990463,012_o_f_n_a.png,O,m,1035,11,1,2058.7999999523163,418693.7999999523,7784,VNB,C,10
11,test,4,0.0,1-Back,1.0,m,Fri Mar 27 2026 13:57:36 GMT-0500 (Central Daylight Time),423018.2999999523,019_m_f_d_a.png,O,m,1232,12,1,2262.2000000476837,420756.09999990463,7784,VNB,C,11
12,test,4,0.0,1-Back,1.0,m,Fri Mar 27 2026 13:57:36 GMT-0500 (Central Daylight Time),425517.90000009537,022_y_f_n_a.png,O,m,1466,13,1,2493.300000190735,423024.59999990463,7784,VNB,C,12
13,test,4,0.0,1-Back,1.0,m,Fri Mar 27 2026 13:57:36 GMT-0500 (Central Daylight Time),427534.0,012_o_f_d_a.png,O,m,997,14,1,2012.7999999523163,425521.2000000477,7784,VNB,C,13
14,test,4,0.0,1-Back,1.0,m,Fri Mar 27 2026 13:57:36 GMT-0500 (Central Daylight Time),429749.7999999523,022_y_f_h_a.png,O,m,1195,15,1,2207.5,427542.2999999523,7784,VNB,C,14
15,test,4,1.0,1-Back,1.0,z,Fri Mar 27 2026 13:57:36 GMT-0500 (Central Daylight Time),431381.7000000477,014_m_m_h_a.png,O,z,610,16,1,1629.2999999523163,429752.40000009537,7784,VNB,C,15
16,test,4,0.0,1-Back,1.0,m,Fri Mar 27 2026 13:57:36 GMT-0500 (Central Daylight Time),433580.90000009537,015_o_m_n_a.png,O,m,1169,17,1,2189.800000190735,431391.09999990463,7784,VNB,C,16
17,test,4,1.0,1-Back,1.0,z,Fri Mar 27 2026 13:57:36 GMT-0500 (Central Daylight Time),435497.40000009537,025_y_m_n_a.png,O,z,890,18,1,1914.2000000476837,433583.2000000477,7784,VNB,C,17
0,test,5,1.0,1-Back,,,Fri Mar 27 2026 13:57:36 GMT-0500 (Central Daylight Time),435497.40000009537,015_o_m_n_a.png,O,space,2014,1,1,1914.2000000476837,433583.2000000477,7784,VNB,C,0
1,test,5,1.0,1-Back,1.0,m,Fri Mar 27 2026 13:57:36 GMT-0500 (Central Daylight Time),441262.7999999523,012_o_f_h_a.png,O,m,705,2,1,1713.7000000476837,439549.09999990463,7784,VNB,C,1
2,test,5,0.0,1-Back,1.0,m,Fri Mar 27 2026 13:57:36 GMT-0500 (Central Daylight Time),443428.0,025_y_m_d_a.png,O,m,1139,3,1,2157.0999999046326,441270.90000009537,7784,VNB,C,2
3,test,5,0.0,1-Back,1.0,z,Fri Mar 27 2026 13:57:36 GMT-0500 (Central Daylight Time),445227.2000000477,015_o_m_d_a.png,O,z,781,4,1,1796.2999999523163,443430.90000009537,7784,VNB,C,3
4,test,5,0.0,1-Back,1.0,m,Fri Mar 27 2026 13:57:36 GMT-0500 (Central Daylight Time),447196.5,019_m_f_h_a.png,O,m,950,5,1,1957.7999999523163,445238.7000000477,7784,VNB,C,4
5,test,5,0.0,1-Back,1.0,m,Fri Mar 27 2026 13:57:36 GMT-0500 (Central Daylight Time),449075.7999999523,022_y_f_n_a.png,O,m,854,6,1,1876.3999998569489,447199.40000009537,7784,VNB,C,5
6,test,5,1.0,1-Back,1.0,z,Fri Mar 27 2026 13:57:36 GMT-0500 (Central Daylight Time),451159.2000000477,012_o_f_n_a.png,O,z,1052,7,1,2076.2999999523163,449082.90000009537,7784,VNB,C,6
7,test,5,0.0,1-Back,1.0,m,Fri Mar 27 2026 13:57:36 GMT-0500 (Central Daylight Time),453108.09999990463,019_m_f_d_a.png,O,m,920,8,1,1945.5,451162.59999990463,7784,VNB,C,7
8,test,5,0.0,1-Back,1.0,m,Fri Mar 27 2026 13:57:36 GMT-0500 (Central Daylight Time),454859.59999990463,025_y_m_h_a.png,O,m,734,9,1,1739.8999998569489,453119.7000000477,7784,VNB,C,8
9,test,5,0.0,1-Back,1.0,m,Fri Mar 27 2026 13:57:36 GMT-0500 (Central Daylight Time),456756.59999990463,022_y_f_d_a.png,O,m,870,10,1,1894.3999998569489,454862.2000000477,7784,VNB,C,9
10,test,5,0.0,1-Back,1.0,m,Fri Mar 27 2026 13:57:36 GMT-0500 (Central Daylight Time),458772.2999999523,014_m_m_n_a.png,O,m,994,11,1,2009.7999999523163,456762.5,7784,VNB,C,10
11,test,5,1.0,1-Back,1.0,z,Fri Mar 27 2026 13:57:36 GMT-0500 (Central Daylight Time),460906.90000009537,019_m_f_n_a.png,O,z,1116,12,1,2132.5,458774.40000009537,7784,VNB,C,11
12,test,5,0.0,1-Back,1.0,m,Fri Mar 27 2026 13:57:36 GMT-0500 (Central Daylight Time),462939.09999990463,015_o_m_h_a.png,O,m,1004,13,1,2028.6999998092651,460910.40000009537,7784,VNB,C,12
13,test,5,0.0,1-Back,1.0,z,Fri Mar 27 2026 13:57:36 GMT-0500 (Central Daylight Time),464905.2999999523,014_m_m_h_a.png,O,z,935,14,1,1964.2999999523163,462941.0,7784,VNB,C,13
14,test,5,1.0,1-Back,1.0,m,Fri Mar 27 2026 13:57:36 GMT-0500 (Central Daylight Time),466620.2999999523,012_o_f_d_a.png,O,m,694,15,1,1707.0,464913.2999999523,7784,VNB,C,14
15,test,5,0.0,1-Back,1.0,m,Fri Mar 27 2026 13:57:36 GMT-0500 (Central Daylight Time),468669.2000000477,025_y_m_n_a.png,O,m,1016,16,1,2045.4000000953674,466623.7999999523,7784,VNB,C,15
16,test,5,0.0,1-Back,1.0,m,Fri Mar 27 2026 13:57:36 GMT-0500 (Central Daylight Time),470769.40000009537,022_y_f_h_a.png,O,m,1073,17,1,2090.800000190735,468678.59999990463,7784,VNB,C,16
17,test,5,0.0,1-Back,1.0,m,Fri Mar 27 2026 13:57:36 GMT-0500 (Central Daylight Time),472919.2000000477,014_m_m_d_a.png,O,m,1126,18,1,2147.600000143051,470771.59999990463,7784,VNB,C,17
0,prac,1,0.0,2-Back,,,Fri Mar 27 2026 13:57:36 GMT-0500 (Central Daylight Time),472919.2000000477,019_m_f_n_a.png,O,space,2246,1,1,2147.600000143051,470771.59999990463,7784,VNB,C,0
0,prac,1,0.0,2-Back,,,Fri Mar 27 2026 13:57:36 GMT-0500 (Central Daylight Time),472919.2000000477,012_o_f_h_a.png,O,space,2246,2,1,2147.600000143051,470771.59999990463,7784,VNB,C,0
1,prac,1,0.0,2-Back,1.0,m,Fri Mar 27 2026 13:57:36 GMT-0500 (Central Daylight Time),619572.4000000954,015_o_m_d_a.png,O,m,1599,3,1,2445.5,617126.9000000954,7784,VNB,C,1
1,prac,1,1.0,2-Back,0.0,z,Fri Mar 27 2026 13:57:36 GMT-0500 (Central Daylight Time),622421.7000000477,014_m_m_h_a.png,O,None,2002,4,1,2837.0,619584.7000000477,7784,VNB,C,2
2,prac,1,0.0,2-Back,1.0,m,Fri Mar 27 2026 13:57:36 GMT-0500 (Central Daylight Time),624387.4000000954,022_y_f_n_a.png,O,m,1094,5,1,1960.0,622427.4000000954,7784,VNB,C,3
2,prac,1,1.0,2-Back,0.0,z,Fri Mar 27 2026 13:57:36 GMT-0500 (Central Daylight Time),627253.2999999523,015_o_m_h_a.png,O,None,2002,6,1,2856.2000000476837,624397.0999999046,7784,VNB,C,4
2,prac,1,1.0,2-Back,0.0,z,Fri Mar 27 2026 13:57:36 GMT-0500 (Central Daylight Time),629035.5999999046,025_y_m_n_a.png,O,m,938,7,1,1778.0999999046326,627257.5,7784,VNB,C,5
2,prac,1,0.0,2-Back,0.0,m,Fri Mar 27 2026 13:57:36 GMT-0500 (Central Daylight Time),631918.2000000477,019_m_f_d_a.png,O,None,2001,8,1,2874.2000000476837,629044.0,7784,VNB,C,6
2,prac,1,0.0,2-Back,0.0,m,Fri Mar 27 2026 13:57:36 GMT-0500 (Central Daylight Time),633534.7000000477,012_o_f_d_a.png,O,z,745,9,1,1611.0,631923.7000000477,7784,VNB,C,7
3,prac,1,0.0,2-Back,1.0,m,Fri Mar 27 2026 13:57:36 GMT-0500 (Central Daylight Time),635302.5999999046,014_m_m_h_a.png,O,m,991,10,1,1757.6999998092651,633544.9000000954,7784,VNB,C,8
3,prac,1,1.0,2-Back,0.0,z,Fri Mar 27 2026 13:57:36 GMT-0500 (Central Daylight Time),638166.4000000954,022_y_f_d_a.png,O,None,2006,11,1,2859.300000190735,635307.0999999046,7784,VNB,C,9
4,prac,1,0.0,2-Back,1.0,m,Fri Mar 27 2026 13:57:36 GMT-0500 (Central Daylight Time),639731.5999999046,015_o_m_n_a.png,O,m,690,12,1,1556.3999998569489,638175.2000000477,7784,VNB,C,10
0,test,1,0.0,2-Back,,,Fri Mar 27 2026 13:57:36 GMT-0500 (Central Daylight Time),639731.5999999046,025_y_m_h_a.png,O,space,2460,1,1,1556.3999998569489,638175.2000000477,7784,VNB,C,0
0,test,1,0.0,2-Back,,,Fri Mar 27 2026 13:57:36 GMT-0500 (Central Daylight Time),639731.5999999046,012_o_f_n_a.png,O,space,2460,2,1,1556.3999998569489,638175.2000000477,7784,VNB,C,0
0,test,1,0.0,2-Back,0.0,z,Fri Mar 27 2026 13:57:36 GMT-0500 (Central Daylight Time),666158.9000000954,015_o_m_h_a.png,O,None,2001,3,1,3013.300000190735,663145.5999999046,7784,VNB,C,1
1,test,1,0.0,2-Back,1.0,m,Fri Mar 27 2026 13:57:36 GMT-0500 (Central Daylight Time),668756.2999999523,019_m_f_d_a.png,O,m,1571,4,1,2586.2999999523163,666170.0,7784,VNB,C,2
1,test,1,1.0,2-Back,0.0,m,Fri Mar 27 2026 13:57:36 GMT-0500 (Central Daylight Time),671139.0,025_y_m_n_a.png,O,z,1356,5,1,2379.7999999523163,668759.2000000477,7784,VNB,C,3
1,test,1,0.0,2-Back,0.0,z,Fri Mar 27 2026 13:57:36 GMT-0500 (Central Daylight Time),673404.0999999046,022_y_f_d_a.png,O,m,1246,6,1,2254.5999999046326,671149.5,7784,VNB,C,4
2,test,1,0.0,2-Back,1.0,m,Fri Mar 27 2026 13:57:36 GMT-0500 (Central Daylight Time),675438.0,014_m_m_h_a.png,O,m,1002,7,1,2031.7999999523163,673406.2000000477,7784,VNB,C,5
2,test,1,1.0,2-Back,0.0,m,Fri Mar 27 2026 13:57:36 GMT-0500 (Central Daylight Time),677402.7999999523,022_y_f_n_a.png,O,z,946,8,1,1958.0999999046326,675444.7000000477,7784,VNB,C,6
2,test,1,0.0,2-Back,0.0,z,Fri Mar 27 2026 13:57:36 GMT-0500 (Central Daylight Time),679870.5999999046,012_o_f_h_a.png,O,m,1443,9,1,2463.0999999046326,677407.5,7784,VNB,C,7
2,test,1,0.0,2-Back,0.0,m,Fri Mar 27 2026 13:57:36 GMT-0500 (Central Daylight Time),681468.2000000477,015_o_m_d_a.png,O,z,577,10,1,1590.7000000476837,679877.5,7784,VNB,C,8
2,test,1,1.0,2-Back,0.0,m,Fri Mar 27 2026 13:57:36 GMT-0500 (Central Daylight Time),683034.5999999046,014_m_m_d_a.png,O,z,540,11,1,1562.0,681472.5999999046,7784,VNB,C,9
3,test,1,0.0,2-Back,1.0,m,Fri Mar 27 2026 13:57:36 GMT-0500 (Central Daylight Time),684535.9000000954,019_m_f_n_a.png,O,m,468,12,1,1494.0,683041.9000000954,7784,VNB,C,10
4,test,1,0.0,2-Back,1.0,m,Fri Mar 27 2026 13:57:36 GMT-0500 (Central Daylight Time),686034.7000000477,022_y_f_h_a.png,O,m,474,13,1,1495.2000000476837,684539.5,7784,VNB,C,11
4,test,1,0.0,2-Back,0.0,z,Fri Mar 27 2026 13:57:36 GMT-0500 (Central Daylight Time),687434.5,014_m_m_n_a.png,O,m,375,14,1,1392.4000000953674,686042.0999999046,7784,VNB,C,12
4,test,1,0.0,2-Back,0.0,m,Fri Mar 27 2026 13:57:36 GMT-0500 (Central Daylight Time),689365.9000000954,025_y_m_d_a.png,O,z,903,15,1,1928.8000001907349,687437.0999999046,7784,VNB,C,13
5,test,1,1.0,2-Back,1.0,m,Fri Mar 27 2026 13:57:36 GMT-0500 (Central Daylight Time),691364.9000000954,019_m_f_h_a.png,O,m,978,16,1,1992.0,689372.9000000954,7784,VNB,C,14
5,test,1,0.0,2-Back,0.0,z,Fri Mar 27 2026 13:57:36 GMT-0500 (Central Daylight Time),694399.2999999523,012_o_f_d_a.png,O,None,2016,17,1,3032.399999856949,691366.9000000954,7784,VNB,C,15
6,test,1,0.0,2-Back,1.0,m,Fri Mar 27 2026 13:57:36 GMT-0500 (Central Daylight Time),695981.7000000477,015_o_m_n_a.png,O,m,562,18,1,1573.1000001430511,694408.5999999046,7784,VNB,C,16
0,test,2,0.0,2-Back,,,Fri Mar 27 2026 13:57:36 GMT-0500 (Central Daylight Time),695981.7000000477,014_m_m_h_a.png,O,space,3114,1,1,1573.1000001430511,694408.5999999046,7784,VNB,C,0
0,test,2,0.0,2-Back,,,Fri Mar 27 2026 13:57:36 GMT-0500 (Central Daylight Time),695981.7000000477,022_y_f_n_a.png,O,space,3114,2,1,1573.1000001430511,694408.5999999046,7784,VNB,C,0
1,test,2,1.0,2-Back,1.0,z,Fri Mar 27 2026 13:57:36 GMT-0500 (Central Daylight Time),707144.2000000477,012_o_f_h_a.png,O,z,1816,3,1,2828.2000000476837,704316.0,7784,VNB,C,1
1,test,2,0.0,2-Back,0.0,m,Fri Mar 27 2026 13:57:36 GMT-0500 (Central Daylight Time),710177.2000000477,015_o_m_d_a.png,O,None,2015,4,1,3023.9000000953674,707153.2999999523,7784,VNB,C,2
2,test,2,0.0,2-Back,1.0,m,Fri Mar 27 2026 13:57:36 GMT-0500 (Central Daylight Time),712376.2000000477,019_m_f_d_a.png,O,m,1167,5,1,2195.7000000476837,710180.5,7784,VNB,C,3
3,test,2,0.0,2-Back,1.0,m,Fri Mar 27 2026 13:57:36 GMT-0500 (Central Daylight Time),713941.0,025_y_m_h_a.png,O,m,544,6,1,1554.7999999523163,712386.2000000477,7784,VNB,C,4
3,test,2,0.0,2-Back,0.0,m,Fri Mar 27 2026 13:57:36 GMT-0500 (Central Daylight Time),716961.2999999523,012_o_f_n_a.png,O,None,2002,7,1,3015.2000000476837,713946.0999999046,7784,VNB,C,5
3,test,2,1.0,2-Back,0.0,z,Fri Mar 27 2026 13:57:36 GMT-0500 (Central Daylight Time),719372.9000000954,015_o_m_h_a.png,O,m,1395,8,1,2404.2000000476837,716968.7000000477,7784,VNB,C,6
3,test,2,0.0,2-Back,0.0,m,Fri Mar 27 2026 13:57:36 GMT-0500 (Central Daylight Time),721156.2000000477,022_y_f_d_a.png,O,z,762,9,1,1776.9000000953674,719379.2999999523,7784,VNB,C,7
4,test,2,0.0,2-Back,1.0,m,Fri Mar 27 2026 13:57:36 GMT-0500 (Central Daylight Time),723820.9000000954,025_y_m_d_a.png,O,m,1642,10,1,2654.100000143051,721166.7999999523,7784,VNB,C,8
4,test,2,0.0,2-Back,0.0,m,Fri Mar 27 2026 13:57:36 GMT-0500 (Central Daylight Time),725853.9000000954,014_m_m_n_a.png,O,z,1010,11,1,2028.6000001430511,723825.2999999523,7784,VNB,C,9
5,test,2,0.0,2-Back,1.0,m,Fri Mar 27 2026 13:57:36 GMT-0500 (Central Daylight Time),727803.7999999523,019_m_f_h_a.png,O,m,921,12,1,1944.5999999046326,725859.2000000477,7784,VNB,C,10
5,test,2,1.0,2-Back,0.0,z,Fri Mar 27 2026 13:57:36 GMT-0500 (Central Daylight Time),729586.7999999523,015_o_m_n_a.png,O,m,756,13,1,1779.0999999046326,727807.7000000477,7784,VNB,C,11
5,test,2,0.0,2-Back,0.0,m,Fri Mar 27 2026 13:57:36 GMT-0500 (Central Daylight Time),731236.7000000477,012_o_f_d_a.png,O,z,631,14,1,1639.7999999523163,729596.9000000954,7784,VNB,C,12
6,test,2,0.0,2-Back,1.0,m,Fri Mar 27 2026 13:57:36 GMT-0500 (Central Daylight Time),732869.0999999046,022_y_f_h_a.png,O,m,611,15,1,1628.0999999046326,731241.0,7784,VNB,C,13
6,test,2,0.0,2-Back,0.0,z,Fri Mar 27 2026 13:57:36 GMT-0500 (Central Daylight Time),734952.0,014_m_m_d_a.png,O,m,1050,16,1,2072.9000000953674,732879.0999999046,7784,VNB,C,14
6,test,2,0.0,2-Back,0.0,m,Fri Mar 27 2026 13:57:36 GMT-0500 (Central Daylight Time),737101.2999999523,025_y_m_n_a.png,O,z,1120,17,1,2147.2999999523163,734954.0,7784,VNB,C,15
6,test,2,1.0,2-Back,0.0,m,Fri Mar 27 2026 13:57:36 GMT-0500 (Central Daylight Time),739631.9000000954,019_m_f_n_a.png,O,z,1505,18,1,2524.5,737107.4000000954,7784,VNB,C,16
0,test,3,1.0,2-Back,,,Fri Mar 27 2026 13:57:36 GMT-0500 (Central Daylight Time),739631.9000000954,015_o_m_n_a.png,O,space,1921,1,1,2524.5,737107.4000000954,7784,VNB,C,0
0,test,3,1.0,2-Back,,,Fri Mar 27 2026 13:57:36 GMT-0500 (Central Daylight Time),739631.9000000954,012_o_f_d_a.png,O,space,1921,2,1,2524.5,737107.4000000954,7784,VNB,C,0
0,test,3,0.0,2-Back,0.0,m,Fri Mar 27 2026 13:57:36 GMT-0500 (Central Daylight Time),749647.2000000477,022_y_f_h_a.png,O,None,2015,3,1,3027.5,746619.7000000477,7784,VNB,C,1
1,test,3,0.0,2-Back,1.0,z,Fri Mar 27 2026 13:57:36 GMT-0500 (Central Daylight Time),752297.2000000477,019_m_f_d_a.png,O,z,1625,4,1,2640.2000000476837,749657.0,7784,VNB,C,2
2,test,3,1.0,2-Back,1.0,m,Fri Mar 27 2026 13:57:36 GMT-0500 (Central Daylight Time),754829.9000000954,025_y_m_n_a.png,O,m,1512,5,1,2529.4000000953674,752300.5,7784,VNB,C,3
3,test,3,0.0,2-Back,1.0,m,Fri Mar 27 2026 13:57:36 GMT-0500 (Central Daylight Time),756745.5,015_o_m_h_a.png,O,m,884,6,1,1908.9000000953674,754836.5999999046,7784,VNB,C,4
3,test,3,0.0,2-Back,0.0,z,Fri Mar 27 2026 13:57:36 GMT-0500 (Central Daylight Time),758394.2000000477,022_y_f_n_a.png,O,m,623,7,1,1642.9000000953674,756751.2999999523,7784,VNB,C,5
3,test,3,1.0,2-Back,0.0,m,Fri Mar 27 2026 13:57:36 GMT-0500 (Central Daylight Time),759745.2000000477,014_m_m_d_a.png,O,z,333,8,1,1343.4000000953674,758401.7999999523,7784,VNB,C,6
3,test,3,0.0,2-Back,0.0,m,Fri Mar 27 2026 13:57:36 GMT-0500 (Central Daylight Time),761360.5,025_y_m_d_a.png,O,z,584,9,1,1611.5,759749.0,7784,VNB,C,7
4,test,3,0.0,2-Back,1.0,m,Fri Mar 27 2026 13:57:36 GMT-0500 (Central Daylight Time),762893.0999999046,012_o_f_h_a.png,O,m,512,10,1,1525.2999999523163,761367.7999999523,7784,VNB,C,8
5,test,3,1.0,2-Back,1.0,m,Fri Mar 27 2026 13:57:36 GMT-0500 (Central Daylight Time),764293.5,019_m_f_n_a.png,O,m,379,11,1,1398.0999999046326,762895.4000000954,7784,VNB,C,9
6,test,3,1.0,2-Back,1.0,z,Fri Mar 27 2026 13:57:36 GMT-0500 (Central Daylight Time),766691.0999999046,014_m_m_h_a.png,O,z,1379,12,1,2387.699999809265,764303.4000000954,7784,VNB,C,10
7,test,3,0.0,2-Back,1.0,m,Fri Mar 27 2026 13:57:36 GMT-0500 (Central Daylight Time),769208.7000000477,022_y_f_d_a.png,O,m,1499,13,1,2514.2999999523163,766694.4000000954,7784,VNB,C,11
8,test,3,0.0,2-Back,1.0,m,Fri Mar 27 2026 13:57:36 GMT-0500 (Central Daylight Time),771188.9000000954,012_o_f_n_a.png,O,m,959,14,1,1974.9000000953674,769214.0,7784,VNB,C,12
9,test,3,0.0,2-Back,1.0,z,Fri Mar 27 2026 13:57:36 GMT-0500 (Central Daylight Time),772673.5999999046,015_o_m_d_a.png,O,z,466,15,1,1482.3999998569489,771191.2000000477,7784,VNB,C,13
9,test,3,1.0,2-Back,0.0,m,Fri Mar 27 2026 13:57:36 GMT-0500 (Central Daylight Time),774256.7999999523,019_m_f_h_a.png,O,z,557,16,1,1577.3999998569489,772679.4000000954,7784,VNB,C,14
10,test,3,0.0,2-Back,1.0,m,Fri Mar 27 2026 13:57:36 GMT-0500 (Central Daylight Time),775838.9000000954,014_m_m_n_a.png,O,m,558,17,1,1579.9000000953674,774259.0,7784,VNB,C,15
11,test,3,0.0,2-Back,1.0,z,Fri Mar 27 2026 13:57:36 GMT-0500 (Central Daylight Time),777455.2999999523,025_y_m_h_a.png,O,z,584,18,1,1608.2000000476837,775847.0999999046,7784,VNB,C,16
0,test,4,0.0,2-Back,,,Fri Mar 27 2026 13:57:36 GMT-0500 (Central Daylight Time),777455.2999999523,019_m_f_n_a.png,O,space,1360,1,1,1608.2000000476837,775847.0999999046,7784,VNB,C,0
0,test,4,0.0,2-Back,,,Fri Mar 27 2026 13:57:36 GMT-0500 (Central Daylight Time),777455.2999999523,015_o_m_n_a.png,O,space,1360,2,1,1608.2000000476837,775847.0999999046,7784,VNB,C,0
1,test,4,1.0,2-Back,1.0,m,Fri Mar 27 2026 13:57:36 GMT-0500 (Central Daylight Time),786634.5999999046,025_y_m_h_a.png,O,m,1582,3,1,2612.199999809265,784022.4000000954,7784,VNB,C,1
2,test,4,1.0,2-Back,1.0,m,Fri Mar 27 2026 13:57:36 GMT-0500 (Central Daylight Time),788900.5,012_o_f_d_a.png,O,m,1236,4,1,2263.2999999523163,786637.2000000477,7784,VNB,C,2
2,test,4,0.0,2-Back,0.0,z,Fri Mar 27 2026 13:57:36 GMT-0500 (Central Daylight Time),791666.2000000477,015_o_m_h_a.png,O,m,1736,5,1,2764.100000143051,788902.0999999046,7784,VNB,C,3
2,test,4,0.0,2-Back,0.0,m,Fri Mar 27 2026 13:57:36 GMT-0500 (Central Daylight Time),794251.0,014_m_m_n_a.png,O,z,1566,6,1,2576.7999999523163,791674.2000000477,7784,VNB,C,4
3,test,4,0.0,2-Back,1.0,m,Fri Mar 27 2026 13:57:36 GMT-0500 (Central Daylight Time),795949.7000000477,019_m_f_d_a.png,O,m,680,7,1,1696.2999999523163,794253.4000000954,7784,VNB,C,5
4,test,4,0.0,2-Back,1.0,z,Fri Mar 27 2026 13:57:36 GMT-0500 (Central Daylight Time),797348.0999999046,022_y_f_n_a.png,O,z,379,8,1,1389.5999999046326,795958.5,7784,VNB,C,6
5,test,4,1.0,2-Back,1.0,m,Fri Mar 27 2026 13:57:36 GMT-0500 (Central Daylight Time),798866.2999999523,012_o_f_h_a.png,O,m,500,9,1,1514.8999998569489,797351.4000000954,7784,VNB,C,7
6,test,4,0.0,2-Back,1.0,m,Fri Mar 27 2026 13:57:36 GMT-0500 (Central Daylight Time),800163.5,014_m_m_h_a.png,O,m,277,10,1,1287.2000000476837,798876.2999999523,7784,VNB,C,8
7,test,4,0.0,2-Back,1.0,m,Fri Mar 27 2026 13:57:36 GMT-0500 (Central Daylight Time),801548.0,022_y_f_d_a.png,O,m,366,11,1,1382.5999999046326,800165.4000000954,7784,VNB,C,9
7,test,4,0.0,2-Back,0.0,m,Fri Mar 27 2026 13:57:36 GMT-0500 (Central Daylight Time),803029.5999999046,025_y_m_n_a.png,O,z,452,12,1,1475.8999998569489,801553.7000000477,7784,VNB,C,10
7,test,4,0.0,2-Back,0.0,z,Fri Mar 27 2026 13:57:36 GMT-0500 (Central Daylight Time),804563.0999999046,015_o_m_d_a.png,O,m,516,13,1,1530.0,803033.0999999046,7784,VNB,C,11
8,test,4,1.0,2-Back,1.0,m,Fri Mar 27 2026 13:57:36 GMT-0500 (Central Daylight Time),806097.5999999046,019_m_f_h_a.png,O,m,518,14,1,1526.7999999523163,804570.7999999523,7784,VNB,C,12
9,test,4,1.0,2-Back,1.0,m,Fri Mar 27 2026 13:57:36 GMT-0500 (Central Daylight Time),807645.0999999046,022_y_f_h_a.png,O,m,527,15,1,1544.2999999523163,806100.7999999523,7784,VNB,C,13
9,test,4,0.0,2-Back,0.0,m,Fri Mar 27 2026 13:57:36 GMT-0500 (Central Daylight Time),808995.2000000477,012_o_f_n_a.png,O,z,324,16,1,1341.2000000476837,807654.0,7784,VNB,C,14
9,test,4,0.0,2-Back,0.0,m,Fri Mar 27 2026 13:57:36 GMT-0500 (Central Daylight Time),810346.0,025_y_m_d_a.png,O,z,334,17,1,1348.2999999523163,808997.7000000477,7784,VNB,C,15
9,test,4,1.0,2-Back,0.0,m,Fri Mar 27 2026 13:57:36 GMT-0500 (Central Daylight Time),811628.5,014_m_m_d_a.png,O,z,266,18,1,1274.2999999523163,810354.2000000477,7784,VNB,C,16
0,test,5,1.0,2-Back,,,Fri Mar 27 2026 13:57:36 GMT-0500 (Central Daylight Time),811628.5,022_y_f_d_a.png,O,space,1388,1,1,1274.2999999523163,810354.2000000477,7784,VNB,C,0
0,test,5,1.0,2-Back,,,Fri Mar 27 2026 13:57:36 GMT-0500 (Central Daylight Time),811628.5,012_o_f_h_a.png,O,space,1388,2,1,1274.2999999523163,810354.2000000477,7784,VNB,C,0
1,test,5,1.0,2-Back,1.0,z,Fri Mar 27 2026 13:57:36 GMT-0500 (Central Daylight Time),820609.0999999046,015_o_m_d_a.png,O,z,1341,3,1,2364.5,818244.5999999046,7784,VNB,C,1
2,test,5,1.0,2-Back,1.0,m,Fri Mar 27 2026 13:57:36 GMT-0500 (Central Daylight Time),822807.0999999046,019_m_f_n_a.png,O,m,1175,4,1,2190.699999809265,820616.4000000954,7784,VNB,C,2
2,test,5,0.0,2-Back,0.0,m,Fri Mar 27 2026 13:57:36 GMT-0500 (Central Daylight Time),825290.4000000954,014_m_m_h_a.png,O,z,1456,5,1,2480.7000000476837,822809.7000000477,7784,VNB,C,3
2,test,5,0.0,2-Back,0.0,z,Fri Mar 27 2026 13:57:36 GMT-0500 (Central Daylight Time),827455.7000000477,022_y_f_n_a.png,O,m,1135,6,1,2156.2000000476837,825299.5,7784,VNB,C,4
2,test,5,0.0,2-Back,0.0,m,Fri Mar 27 2026 13:57:36 GMT-0500 (Central Daylight Time),829273.0999999046,012_o_f_d_a.png,O,z,800,7,1,1814.8999998569489,827458.2000000477,7784,VNB,C,5
2,test,5,0.0,2-Back,0.0,m,Fri Mar 27 2026 13:57:36 GMT-0500 (Central Daylight Time),832054.0999999046,015_o_m_h_a.png,O,z,1752,8,1,2772.899999856949,829281.2000000477,7784,VNB,C,6
3,test,5,1.0,2-Back,1.0,z,Fri Mar 27 2026 13:57:36 GMT-0500 (Central Daylight Time),834219.7000000477,019_m_f_d_a.png,O,z,1145,9,1,2162.4000000953674,832057.2999999523,7784,VNB,C,7
4,test,5,0.0,2-Back,1.0,m,Fri Mar 27 2026 13:57:36 GMT-0500 (Central Daylight Time),835869.4000000954,025_y_m_n_a.png,O,m,626,10,1,1640.4000000953674,834229.0,7784,VNB,C,8
4,test,5,0.0,2-Back,0.0,m,Fri Mar 27 2026 13:57:36 GMT-0500 (Central Daylight Time),837453.0999999046,014_m_m_n_a.png,O,z,567,11,1,1578.1999998092651,835874.9000000954,7784,VNB,C,9
4,test,5,0.0,2-Back,0.0,m,Fri Mar 27 2026 13:57:36 GMT-0500 (Central Daylight Time),839251.5,022_y_f_h_a.png,O,z,771,12,1,1790.4000000953674,837461.0999999046,7784,VNB,C,10
4,test,5,0.0,2-Back,0.0,m,Fri Mar 27 2026 13:57:36 GMT-0500 (Central Daylight Time),841768.0,025_y_m_d_a.png,O,z,1484,13,1,2511.0999999046326,839256.9000000954,7784,VNB,C,11
4,test,5,1.0,2-Back,0.0,z,Fri Mar 27 2026 13:57:36 GMT-0500 (Central Daylight Time),843201.7000000477,019_m_f_h_a.png,O,m,415,14,1,1425.5,841776.2000000477,7784,VNB,C,12
4,test,5,0.0,2-Back,0.0,m,Fri Mar 27 2026 13:57:36 GMT-0500 (Central Daylight Time),844766.2000000477,015_o_m_n_a.png,O,z,534,15,1,1560.7000000476837,843205.5,7784,VNB,C,13
4,test,5,0.0,2-Back,0.0,m,Fri Mar 27 2026 13:57:36 GMT-0500 (Central Daylight Time),846316.0,014_m_m_d_a.png,O,z,529,16,1,1541.0,844775.0,7784,VNB,C,14
4,test,5,0.0,2-Back,0.0,z,Fri Mar 27 2026 13:57:36 GMT-0500 (Central Daylight Time),847865.5999999046,012_o_f_n_a.png,O,m,523,17,1,1546.5999999046326,846319.0,7784,VNB,C,15
5,test,5,1.0,2-Back,1.0,m,Fri Mar 27 2026 13:57:36 GMT-0500 (Central Daylight Time),849415.5999999046,025_y_m_h_a.png,O,m,519,18,1,1539.8999998569489,847875.7000000477,7784,VNB,C,16
