block_c,block_dur,condition,countdown,datetime,endtime,list,multichar_response,project,response,response_time,session_number,start_end,starttime,subject_id,task,task_vers,trial
,,,,Wed May 21 2025 14:34:30 GMT-0500 (Central Daylight Time),,,,I,space,339,1,,,8032,WL,B,
prac,,0,,Wed May 21 2025 14:34:30 GMT-0500 (Central Daylight Time),,NA,b,I,b,5449,1,,,8032,WL,B,1.0
prac,,0,,Wed May 21 2025 14:34:30 GMT-0500 (Central Daylight Time),,NA,bo,I,o,827,1,,,8032,WL,B,1.0
prac,,0,,Wed May 21 2025 14:34:30 GMT-0500 (Central Daylight Time),,NA,boo,I,o,147,1,,,8032,WL,B,1.0
prac,,0,,Wed May 21 2025 14:34:30 GMT-0500 (Central Daylight Time),,NA,boos,I,s,147,1,,,8032,WL,B,1.0
prac,,0,,Wed May 21 2025 14:34:30 GMT-0500 (Central Daylight Time),,NA,boost,I,t,189,1,,,8032,WL,B,1.0
prac,,0,,Wed May 21 2025 14:34:30 GMT-0500 (Central Daylight Time),,NA,boostenter,I,enter,3909,1,,,8032,WL,B,1.0
1,0.8159999847412109,learn,59184.00001525879,Wed May 21 2025 14:34:30 GMT-0500 (Central Daylight Time),139474.60000002384,A,s,I,s,810,1,816.2999999523163,138658.30000007153,8032,WL,B,1.0
1,1.1659998893737793,learn,58834.00011062622,Wed May 21 2025 14:34:30 GMT-0500 (Central Daylight Time),139824.20000004768,A,st,I,t,329,1,1165.8999999761581,138658.30000007153,8032,WL,B,1.0
1,1.6159999370574951,learn,58384.000062942505,Wed May 21 2025 14:34:30 GMT-0500 (Central Daylight Time),140274.20000004768,A,str,I,r,428,1,1615.8999999761581,138658.30000007153,8032,WL,B,1.0
1,1.8319997787475586,learn,58168.00022125244,Wed May 21 2025 14:34:30 GMT-0500 (Central Daylight Time),140490.5,A,stre,I,e,210,1,1832.1999999284744,138658.30000007153,8032,WL,B,1.0
1,2.1489999294281006,learn,57851.0000705719,Wed May 21 2025 14:34:30 GMT-0500 (Central Daylight Time),140807.20000004768,A,stree,I,e,306,1,2148.899999976158,138658.30000007153,8032,WL,B,1.0
1,2.6489999294281006,learn,57351.0000705719,Wed May 21 2025 14:34:30 GMT-0500 (Central Daylight Time),141307.0,A,street,I,t,485,1,2648.6999999284744,138658.30000007153,8032,WL,B,1.0
1,4.648000001907349,learn,55351.99999809265,Wed May 21 2025 14:34:30 GMT-0500 (Central Daylight Time),143306.5,A,streetenter,I,enter,1994,1,4648.199999928474,138658.30000007153,8032,WL,B,1.0
1,5.580999851226807,learn,54419.00014877319,Wed May 21 2025 14:34:30 GMT-0500 (Central Daylight Time),144239.60000002384,A,d,I,d,914,1,932.6999999284744,143306.90000009537,8032,WL,B,2.0
1,5.697999954223633,learn,54302.00004577637,Wed May 21 2025 14:34:30 GMT-0500 (Central Daylight Time),144356.10000002384,A,do,I,o,101,1,1049.1999999284744,143306.90000009537,8032,WL,B,2.0
1,5.898000001907349,learn,54101.99999809265,Wed May 21 2025 14:34:30 GMT-0500 (Central Daylight Time),144555.70000004768,A,doo,I,o,192,1,1248.7999999523163,143306.90000009537,8032,WL,B,2.0
1,6.148000001907349,learn,53851.99999809265,Wed May 21 2025 14:34:30 GMT-0500 (Central Daylight Time),144806.0,A,door,I,r,240,1,1499.0999999046326,143306.90000009537,8032,WL,B,2.0
1,6.797999858856201,learn,53202.0001411438,Wed May 21 2025 14:34:30 GMT-0500 (Central Daylight Time),145455.80000007153,A,doorenter,I,enter,630,1,2148.899999976158,143306.90000009537,8032,WL,B,2.0
1,7.196999788284302,learn,52803.0002117157,Wed May 21 2025 14:34:30 GMT-0500 (Central Daylight Time),145855.5,A,s,I,s,389,1,399.1999999284744,145456.30000007153,8032,WL,B,3.0
1,7.446999788284302,learn,52553.0002117157,Wed May 21 2025 14:34:30 GMT-0500 (Central Daylight Time),146105.60000002384,A,st,I,t,229,1,649.2999999523163,145456.30000007153,8032,WL,B,3.0
1,7.730999946594238,learn,52269.00005340576,Wed May 21 2025 14:34:30 GMT-0500 (Central Daylight Time),146388.80000007153,A,sta,I,a,275,1,932.5,145456.30000007153,8032,WL,B,3.0
1,8.04699993133545,learn,51953.00006866455,Wed May 21 2025 14:34:30 GMT-0500 (Central Daylight Time),146705.30000007153,A,star,I,r,304,1,1249.0,145456.30000007153,8032,WL,B,3.0
1,8.879999876022339,learn,51120.00012397766,Wed May 21 2025 14:34:30 GMT-0500 (Central Daylight Time),147538.30000007153,A,starenter,I,enter,812,1,2082.0,145456.30000007153,8032,WL,B,3.0
1,9.562999963760376,learn,50437.000036239624,Wed May 21 2025 14:34:30 GMT-0500 (Central Daylight Time),148221.70000004768,A,c,I,c,674,1,682.7999999523163,147538.90000009537,8032,WL,B,4.0
1,9.729999780654907,learn,50270.00021934509,Wed May 21 2025 14:34:30 GMT-0500 (Central Daylight Time),148388.10000002384,A,ca,I,a,159,1,849.1999999284744,147538.90000009537,8032,WL,B,4.0
1,9.962999820709229,learn,50037.00017929077,Wed May 21 2025 14:34:30 GMT-0500 (Central Daylight Time),148621.60000002384,A,cab,I,b,225,1,1082.6999999284744,147538.90000009537,8032,WL,B,4.0
1,10.179999828338623,learn,49820.00017166138,Wed May 21 2025 14:34:30 GMT-0500 (Central Daylight Time),148838.0,A,cabi,I,i,199,1,1299.0999999046326,147538.90000009537,8032,WL,B,4.0
1,10.412999868392944,learn,49587.000131607056,Wed May 21 2025 14:34:30 GMT-0500 (Central Daylight Time),149071.30000007153,A,cabin,I,n,215,1,1532.3999999761581,147538.90000009537,8032,WL,B,4.0
1,10.895999908447266,learn,49104.000091552734,Wed May 21 2025 14:34:30 GMT-0500 (Central Daylight Time),149554.5,A,cabinenter,I,enter,462,1,2015.5999999046326,147538.90000009537,8032,WL,B,4.0
1,11.495999813079834,learn,48504.000186920166,Wed May 21 2025 14:34:30 GMT-0500 (Central Daylight Time),150154.30000007153,A,a,I,a,594,1,599.3999999761581,149554.90000009537,8032,WL,B,5.0
1,11.728999853134155,learn,48271.000146865845,Wed May 21 2025 14:34:30 GMT-0500 (Central Daylight Time),150387.5,A,ar,I,r,218,1,832.5999999046326,149554.90000009537,8032,WL,B,5.0
1,11.978999853134155,learn,48021.000146865845,Wed May 21 2025 14:34:30 GMT-0500 (Central Daylight Time),150637.5,A,arm,I,m,241,1,1082.5999999046326,149554.90000009537,8032,WL,B,5.0
1,12.52899980545044,learn,47471.00019454956,Wed May 21 2025 14:34:30 GMT-0500 (Central Daylight Time),151186.90000009537,A,armenter,I,enter,543,1,1632.0,149554.90000009537,8032,WL,B,5.0
1,15.027999877929688,learn,44972.00012207031,Wed May 21 2025 14:34:30 GMT-0500 (Central Daylight Time),153686.40000009537,A,s,I,s,2490,1,2499.2000000476837,151187.20000004768,8032,WL,B,6.0
1,15.127999782562256,learn,44872.000217437744,Wed May 21 2025 14:34:30 GMT-0500 (Central Daylight Time),153786.5,A,sk,I,k,79,1,2599.2999999523163,151187.20000004768,8032,WL,B,6.0
1,15.34499979019165,learn,44655.00020980835,Wed May 21 2025 14:34:30 GMT-0500 (Central Daylight Time),154003.10000002384,A,ski,I,i,203,1,2815.899999976158,151187.20000004768,8032,WL,B,6.0
1,15.51199984550476,learn,44488.00015449524,Wed May 21 2025 14:34:30 GMT-0500 (Central Daylight Time),154169.80000007153,A,skin,I,n,154,1,2982.600000023842,151187.20000004768,8032,WL,B,6.0
1,15.860999822616577,learn,44139.00017738342,Wed May 21 2025 14:34:30 GMT-0500 (Central Daylight Time),154519.60000002384,A,skinenter,I,enter,331,1,3332.399999976158,151187.20000004768,8032,WL,B,6.0
1,16.877999782562256,learn,43122.000217437744,Wed May 21 2025 14:34:30 GMT-0500 (Central Daylight Time),155536.0,A,f,I,f,1005,1,1016.0,154520.0,8032,WL,B,7.0
1,17.043999910354614,learn,42956.000089645386,Wed May 21 2025 14:34:30 GMT-0500 (Central Daylight Time),155702.40000009537,A,fi,I,i,157,1,1182.4000000953674,154520.0,8032,WL,B,7.0
1,17.227999925613403,learn,42772.0000743866,Wed May 21 2025 14:34:30 GMT-0500 (Central Daylight Time),155885.90000009537,A,fir,I,r,173,1,1365.9000000953674,154520.0,8032,WL,B,7.0
1,17.74399995803833,learn,42256.00004196167,Wed May 21 2025 14:34:30 GMT-0500 (Central Daylight Time),156402.30000007153,A,fire,I,e,503,1,1882.3000000715256,154520.0,8032,WL,B,7.0
1,18.0939998626709,learn,41906.0001373291,Wed May 21 2025 14:34:30 GMT-0500 (Central Daylight Time),156752.40000009537,A,fireenter,I,enter,331,1,2232.4000000953674,154520.0,8032,WL,B,7.0
1,18.8439998626709,learn,41156.0001373291,Wed May 21 2025 14:34:30 GMT-0500 (Central Daylight Time),157502.10000002384,A,c,I,c,741,1,749.3999999761581,156752.70000004768,8032,WL,B,8.0
1,18.99399995803833,learn,41006.00004196167,Wed May 21 2025 14:34:30 GMT-0500 (Central Daylight Time),157651.90000009537,A,ca,I,a,143,1,899.2000000476837,156752.70000004768,8032,WL,B,8.0
1,19.244999885559082,learn,40755.00011444092,Wed May 21 2025 14:34:30 GMT-0500 (Central Daylight Time),157903.30000007153,A,cab,I,b,241,1,1150.6000000238419,156752.70000004768,8032,WL,B,8.0
1,19.359999895095825,learn,40640.000104904175,Wed May 21 2025 14:34:30 GMT-0500 (Central Daylight Time),158018.40000009537,A,cabi,I,i,93,1,1265.7000000476837,156752.70000004768,8032,WL,B,8.0
1,19.5939998626709,learn,40406.0001373291,Wed May 21 2025 14:34:30 GMT-0500 (Central Daylight Time),158251.90000009537,A,cabin,I,n,218,1,1499.2000000476837,156752.70000004768,8032,WL,B,8.0
1,19.99399995803833,learn,40006.00004196167,Wed May 21 2025 14:34:30 GMT-0500 (Central Daylight Time),158651.60000002384,A,cabinenter,I,enter,393,1,1898.8999999761581,156752.70000004768,8032,WL,B,8.0
1,23.875999927520752,learn,36124.00007247925,Wed May 21 2025 14:34:30 GMT-0500 (Central Daylight Time),162533.70000004768,A,g,I,g,3865,1,3881.600000023842,158652.10000002384,8032,WL,B,9.0
1,24.258999824523926,learn,35741.000175476074,Wed May 21 2025 14:34:30 GMT-0500 (Central Daylight Time),162917.20000004768,A,gr,I,r,367,1,4265.100000023842,158652.10000002384,8032,WL,B,9.0
1,24.491999864578247,learn,35508.00013542175,Wed May 21 2025 14:34:30 GMT-0500 (Central Daylight Time),163150.5,A,gra,I,a,216,1,4498.399999976158,158652.10000002384,8032,WL,B,9.0
1,24.741999864578247,learn,35258.00013542175,Wed May 21 2025 14:34:30 GMT-0500 (Central Daylight Time),163400.20000004768,A,gras,I,s,231,1,4748.100000023842,158652.10000002384,8032,WL,B,9.0
1,24.924999952316284,learn,35075.000047683716,Wed May 21 2025 14:34:30 GMT-0500 (Central Daylight Time),163583.40000009537,A,grass,I,s,173,1,4931.300000071526,158652.10000002384,8032,WL,B,9.0
1,25.274999856948853,learn,34725.00014305115,Wed May 21 2025 14:34:30 GMT-0500 (Central Daylight Time),163933.20000004768,A,grassenter,I,enter,334,1,5281.100000023842,158652.10000002384,8032,WL,B,9.0
1,26.45799994468689,learn,33542.00005531311,Wed May 21 2025 14:34:30 GMT-0500 (Central Daylight Time),165116.20000004768,A,w,I,w,1176,1,1182.6000000238419,163933.60000002384,8032,WL,B,10.0
1,26.574999809265137,learn,33425.00019073486,Wed May 21 2025 14:34:30 GMT-0500 (Central Daylight Time),165233.10000002384,A,wi,I,i,105,1,1299.5,163933.60000002384,8032,WL,B,10.0
1,26.774999856948853,learn,33225.00014305115,Wed May 21 2025 14:34:30 GMT-0500 (Central Daylight Time),165432.80000007153,A,win,I,n,180,1,1499.2000000476837,163933.60000002384,8032,WL,B,10.0
1,26.94099998474121,learn,33059.00001525879,Wed May 21 2025 14:34:30 GMT-0500 (Central Daylight Time),165599.70000004768,A,wind,I,d,156,1,1666.1000000238419,163933.60000002384,8032,WL,B,10.0
1,27.107999801635742,learn,32892.00019836426,Wed May 21 2025 14:34:30 GMT-0500 (Central Daylight Time),165766.20000004768,A,windo,I,o,150,1,1832.6000000238419,163933.60000002384,8032,WL,B,10.0
1,27.340999841690063,learn,32659.000158309937,Wed May 21 2025 14:34:30 GMT-0500 (Central Daylight Time),165999.30000007153,A,window,I,w,215,1,2065.7000000476837,163933.60000002384,8032,WL,B,10.0
1,27.72099995613098,learn,32279.00004386902,Wed May 21 2025 14:34:30 GMT-0500 (Central Daylight Time),166379.30000007153,A,windowenter,I,enter,375,1,2445.7000000476837,163933.60000002384,8032,WL,B,10.0
1,33.98899984359741,learn,26011.000156402588,Wed May 21 2025 14:34:30 GMT-0500 (Central Daylight Time),172647.30000007153,A,d,I,d,6250,1,6267.700000047684,166379.60000002384,8032,WL,B,11.0
1,34.121999979019165,learn,25878.000020980835,Wed May 21 2025 14:34:30 GMT-0500 (Central Daylight Time),172780.60000002384,A,do,I,o,126,1,6401.0,166379.60000002384,8032,WL,B,11.0
1,34.35599994659424,learn,25644.00005340576,Wed May 21 2025 14:34:30 GMT-0500 (Central Daylight Time),173013.70000004768,A,doo,I,o,217,1,6634.100000023842,166379.60000002384,8032,WL,B,11.0
1,34.47199988365173,learn,25528.000116348267,Wed May 21 2025 14:34:30 GMT-0500 (Central Daylight Time),173130.60000002384,A,door,I,r,111,1,6751.0,166379.60000002384,8032,WL,B,11.0
1,34.88799977302551,learn,25112.000226974487,Wed May 21 2025 14:34:30 GMT-0500 (Central Daylight Time),173546.60000002384,A,doorenter,I,enter,411,1,7167.0,166379.60000002384,8032,WL,B,11.0
1,39.3199999332428,learn,20680.000066757202,Wed May 21 2025 14:34:30 GMT-0500 (Central Daylight Time),177979.0,A,p,I,p,4419,1,4432.0,173547.0,8032,WL,B,12.0
1,39.63699984550476,learn,20363.00015449524,Wed May 21 2025 14:34:30 GMT-0500 (Central Daylight Time),178295.60000002384,A,pi,I,i,298,1,4748.600000023842,173547.0,8032,WL,B,12.0
1,39.93599987030029,learn,20064.000129699707,Wed May 21 2025 14:34:30 GMT-0500 (Central Daylight Time),178595.5,A,pip,I,p,286,1,5048.5,173547.0,8032,WL,B,12.0
1,40.252999782562256,learn,19747.000217437744,Wed May 21 2025 14:34:30 GMT-0500 (Central Daylight Time),178912.0,A,pipe,I,e,305,1,5365.0,173547.0,8032,WL,B,12.0
1,40.65299987792969,learn,19347.000122070312,Wed May 21 2025 14:34:30 GMT-0500 (Central Daylight Time),179311.80000007153,A,pipeenter,I,enter,381,1,5764.800000071526,173547.0,8032,WL,B,12.0
1,49.33299994468689,learn,10667.00005531311,Wed May 21 2025 14:34:30 GMT-0500 (Central Daylight Time),187992.40000009537,A,l,I,l,8669,1,8680.200000047684,179312.20000004768,8032,WL,B,13.0
1,49.43299984931946,learn,10567.000150680542,Wed May 21 2025 14:34:30 GMT-0500 (Central Daylight Time),188092.10000002384,A,la,I,a,92,1,8779.899999976158,179312.20000004768,8032,WL,B,13.0
1,49.61699986457825,learn,10383.000135421753,Wed May 21 2025 14:34:30 GMT-0500 (Central Daylight Time),188275.60000002384,A,lak,I,k,177,1,8963.399999976158,179312.20000004768,8032,WL,B,13.0
1,49.83299994468689,learn,10167.00005531311,Wed May 21 2025 14:34:30 GMT-0500 (Central Daylight Time),188492.0,A,lake,I,e,210,1,9179.799999952316,179312.20000004768,8032,WL,B,13.0
1,50.09999990463257,learn,9900.000095367432,Wed May 21 2025 14:34:30 GMT-0500 (Central Daylight Time),188759.0,A,lakeenter,I,enter,249,1,9446.799999952316,179312.20000004768,8032,WL,B,13.0
1,60.013999938964844,learn,-13.99993896484375,Wed May 21 2025 14:34:30 GMT-0500 (Central Daylight Time),198672.5,A,None,I,None,9909,1,9913.299999952316,188759.20000004768,8032,WL,B,14.0
2,0.6830000877380371,learn,59316.99991226196,Wed May 21 2025 14:34:30 GMT-0500 (Central Daylight Time),272532.5,A,s,I,s,668,1,682.7999999523163,271849.7000000477,8032,WL,B,1.0
2,0.999000072479248,learn,59000.99992752075,Wed May 21 2025 14:34:30 GMT-0500 (Central Daylight Time),272849.2000000477,A,st,I,t,304,1,999.5,271849.7000000477,8032,WL,B,1.0
2,1.2829999923706055,learn,58717.000007629395,Wed May 21 2025 14:34:30 GMT-0500 (Central Daylight Time),273132.3000000715,A,str,I,r,276,1,1282.6000000238419,271849.7000000477,8032,WL,B,1.0
2,1.4160001277923584,learn,58583.99987220764,Wed May 21 2025 14:34:30 GMT-0500 (Central Daylight Time),273265.8000000715,A,stre,I,e,113,1,1416.1000000238419,271849.7000000477,8032,WL,B,1.0
2,1.633000135421753,learn,58366.99986457825,Wed May 21 2025 14:34:30 GMT-0500 (Central Daylight Time),273482.2000000477,A,stree,I,e,203,1,1632.5,271849.7000000477,8032,WL,B,1.0
2,1.9160001277923584,learn,58083.99987220764,Wed May 21 2025 14:34:30 GMT-0500 (Central Daylight Time),273765.8000000715,A,street,I,t,275,1,1916.1000000238419,271849.7000000477,8032,WL,B,1.0
2,2.432000160217285,learn,57567.999839782715,Wed May 21 2025 14:34:30 GMT-0500 (Central Daylight Time),274282.0,A,streetenter,I,enter,496,1,2432.2999999523163,271849.7000000477,8032,WL,B,1.0
2,2.865000009536743,learn,57134.99999046326,Wed May 21 2025 14:34:30 GMT-0500 (Central Daylight Time),274715.10000002384,A,d,I,d,427,1,432.7999999523163,274282.3000000715,8032,WL,B,2.0
2,3.3320000171661377,learn,56667.99998283386,Wed May 21 2025 14:34:30 GMT-0500 (Central Daylight Time),275181.90000009537,A,do,I,o,458,1,899.6000000238419,274282.3000000715,8032,WL,B,2.0
2,3.5820000171661377,learn,56417.99998283386,Wed May 21 2025 14:34:30 GMT-0500 (Central Daylight Time),275431.7000000477,A,doo,I,o,231,1,1149.3999999761581,274282.3000000715,8032,WL,B,2.0
2,3.7820000648498535,learn,56217.99993515015,Wed May 21 2025 14:34:30 GMT-0500 (Central Daylight Time),275631.60000002384,A,door,I,r,182,1,1349.2999999523163,274282.3000000715,8032,WL,B,2.0
2,4.315000057220459,learn,55684.99994277954,Wed May 21 2025 14:34:30 GMT-0500 (Central Daylight Time),276164.8000000715,A,doorenter,I,enter,526,1,1882.5,274282.3000000715,8032,WL,B,2.0
2,4.730999946594238,learn,55269.00005340576,Wed May 21 2025 14:34:30 GMT-0500 (Central Daylight Time),276581.2000000477,A,a,I,a,401,1,416.10000002384186,276165.10000002384,8032,WL,B,3.0
2,4.916000127792358,learn,55083.99987220764,Wed May 21 2025 14:34:30 GMT-0500 (Central Daylight Time),276765.7000000477,A,ar,I,r,168,1,600.6000000238419,276165.10000002384,8032,WL,B,3.0
2,5.180999994277954,learn,54819.000005722046,Wed May 21 2025 14:34:30 GMT-0500 (Central Daylight Time),277031.10000002384,A,arm,I,m,255,1,866.0,276165.10000002384,8032,WL,B,3.0
2,5.498000144958496,learn,54501.999855041504,Wed May 21 2025 14:34:30 GMT-0500 (Central Daylight Time),277347.8000000715,A,armenter,I,enter,310,1,1182.7000000476837,276165.10000002384,8032,WL,B,3.0
2,5.8480000495910645,learn,54151.999950408936,Wed May 21 2025 14:34:30 GMT-0500 (Central Daylight Time),277697.40000009537,A,s,I,s,330,1,349.3000000715256,277348.10000002384,8032,WL,B,4.0
2,5.965000152587891,learn,54034.99984741211,Wed May 21 2025 14:34:30 GMT-0500 (Central Daylight Time),277814.40000009537,A,sk,I,k,108,1,466.3000000715256,277348.10000002384,8032,WL,B,4.0
2,6.197999954223633,learn,53802.00004577637,Wed May 21 2025 14:34:30 GMT-0500 (Central Daylight Time),278047.5,A,ski,I,i,215,1,699.3999999761581,277348.10000002384,8032,WL,B,4.0
2,6.364000082015991,learn,53635.99991798401,Wed May 21 2025 14:34:30 GMT-0500 (Central Daylight Time),278213.8000000715,A,skin,I,n,158,1,865.7000000476837,277348.10000002384,8032,WL,B,4.0
2,6.71399998664856,learn,53286.00001335144,Wed May 21 2025 14:34:30 GMT-0500 (Central Daylight Time),278564.10000002384,A,skinenter,I,enter,344,1,1216.0,277348.10000002384,8032,WL,B,4.0
2,7.246999979019165,learn,52753.000020980835,Wed May 21 2025 14:34:30 GMT-0500 (Central Daylight Time),279097.2000000477,A,w,I,w,513,1,532.7999999523163,278564.40000009537,8032,WL,B,5.0
2,7.3480000495910645,learn,52651.999950408936,Wed May 21 2025 14:34:30 GMT-0500 (Central Daylight Time),279197.40000009537,A,wi,I,i,84,1,633.0,278564.40000009537,8032,WL,B,5.0
2,7.531000137329102,learn,52468.9998626709,Wed May 21 2025 14:34:30 GMT-0500 (Central Daylight Time),279380.3000000715,A,wif,I,f,168,1,815.8999999761581,278564.40000009537,8032,WL,B,5.0
2,7.697999954223633,learn,52302.00004577637,Wed May 21 2025 14:34:30 GMT-0500 (Central Daylight Time),279547.3000000715,A,wife,I,e,153,1,982.8999999761581,278564.40000009537,8032,WL,B,5.0
2,7.980999946594238,learn,52019.00005340576,Wed May 21 2025 14:34:30 GMT-0500 (Central Daylight Time),279830.3000000715,A,wifeenter,I,enter,266,1,1265.8999999761581,278564.40000009537,8032,WL,B,5.0
2,8.564000129699707,learn,51435.99987030029,Wed May 21 2025 14:34:30 GMT-0500 (Central Daylight Time),280413.40000009537,A,c,I,c,567,1,582.8000000715256,279830.60000002384,8032,WL,B,6.0
2,8.680000066757202,learn,51319.9999332428,Wed May 21 2025 14:34:30 GMT-0500 (Central Daylight Time),280530.2000000477,A,cl,I,l,96,1,699.6000000238419,279830.60000002384,8032,WL,B,6.0
2,8.897000074386597,learn,51102.9999256134,Wed May 21 2025 14:34:30 GMT-0500 (Central Daylight Time),280746.60000002384,A,clo,I,o,203,1,916.0,279830.60000002384,8032,WL,B,6.0
2,9.246999979019165,learn,50753.000020980835,Wed May 21 2025 14:34:30 GMT-0500 (Central Daylight Time),281096.5,A,cloc,I,c,331,1,1265.8999999761581,279830.60000002384,8032,WL,B,6.0
2,9.397000074386597,learn,50602.9999256134,Wed May 21 2025 14:34:30 GMT-0500 (Central Daylight Time),281246.40000009537,A,clock,I,k,141,1,1415.8000000715256,279830.60000002384,8032,WL,B,6.0
2,9.980000019073486,learn,50019.999980926514,Wed May 21 2025 14:34:30 GMT-0500 (Central Daylight Time),281829.5,A,clockenter,I,enter,574,1,1998.8999999761581,279830.60000002384,8032,WL,B,6.0
2,11.19700002670288,learn,48802.99997329712,Wed May 21 2025 14:34:30 GMT-0500 (Central Daylight Time),283046.2000000477,A,p,I,p,1208,1,1216.3999999761581,281829.8000000715,8032,WL,B,7.0
2,11.328999996185303,learn,48671.0000038147,Wed May 21 2025 14:34:30 GMT-0500 (Central Daylight Time),283179.10000002384,A,pu,I,u,126,1,1349.2999999523163,281829.8000000715,8032,WL,B,7.0
2,12.456000089645386,learn,47543.999910354614,Wed May 21 2025 14:34:30 GMT-0500 (Central Daylight Time),284305.5,A,pup,I,p,974,1,2475.6999999284744,281829.8000000715,8032,WL,B,7.0
2,12.913000106811523,learn,47086.99989318848,Wed May 21 2025 14:34:30 GMT-0500 (Central Daylight Time),284762.3000000715,A,pupi,I,i,444,1,2932.5,281829.8000000715,8032,WL,B,7.0
2,13.162000179290771,learn,46837.99982070923,Wed May 21 2025 14:34:30 GMT-0500 (Central Daylight Time),285012.10000002384,A,pupil,I,l,243,1,3182.2999999523163,281829.8000000715,8032,WL,B,7.0
2,13.529000043869019,learn,46470.99995613098,Wed May 21 2025 14:34:30 GMT-0500 (Central Daylight Time),285378.5,A,pupilenter,I,enter,361,1,3548.6999999284744,281829.8000000715,8032,WL,B,7.0
2,13.995000123977661,learn,46004.99987602234,Wed May 21 2025 14:34:30 GMT-0500 (Central Daylight Time),285845.10000002384,A,p,I,p,459,1,466.2999999523163,285378.8000000715,8032,WL,B,8.0
2,14.328999996185303,learn,45671.0000038147,Wed May 21 2025 14:34:30 GMT-0500 (Central Daylight Time),286178.3000000715,A,pi,I,i,312,1,799.5,285378.8000000715,8032,WL,B,8.0
2,14.578999996185303,learn,45421.0000038147,Wed May 21 2025 14:34:30 GMT-0500 (Central Daylight Time),286428.60000002384,A,pip,I,p,235,1,1049.7999999523163,285378.8000000715,8032,WL,B,8.0
2,15.312000036239624,learn,44687.999963760376,Wed May 21 2025 14:34:30 GMT-0500 (Central Daylight Time),287161.2000000477,A,pipe,I,e,713,1,1782.3999999761581,285378.8000000715,8032,WL,B,8.0
2,15.611000061035156,learn,44388.999938964844,Wed May 21 2025 14:34:30 GMT-0500 (Central Daylight Time),287461.10000002384,A,pipeenter,I,enter,284,1,2082.2999999523163,285378.8000000715,8032,WL,B,8.0
2,16.544000148773193,learn,43455.99985122681,Wed May 21 2025 14:34:30 GMT-0500 (Central Daylight Time),288394.2000000477,A,l,I,l,920,1,932.7000000476837,287461.5,8032,WL,B,9.0
2,16.710999965667725,learn,43289.000034332275,Wed May 21 2025 14:34:30 GMT-0500 (Central Daylight Time),288560.90000009537,A,la,I,a,147,1,1099.4000000953674,287461.5,8032,WL,B,9.0
2,16.878000020980835,learn,43121.999979019165,Wed May 21 2025 14:34:30 GMT-0500 (Central Daylight Time),288727.3000000715,A,lak,I,k,148,1,1265.8000000715256,287461.5,8032,WL,B,9.0
2,17.144999980926514,learn,42855.000019073486,Wed May 21 2025 14:34:30 GMT-0500 (Central Daylight Time),288994.3000000715,A,lake,I,e,262,1,1532.8000000715256,287461.5,8032,WL,B,9.0
2,17.545000076293945,learn,42454.999923706055,Wed May 21 2025 14:34:30 GMT-0500 (Central Daylight Time),289394.3000000715,A,lakeenter,I,enter,395,1,1932.8000000715256,287461.5,8032,WL,B,9.0
2,18.528000116348267,learn,41471.99988365173,Wed May 21 2025 14:34:30 GMT-0500 (Central Daylight Time),290377.3000000715,A,g,I,g,963,1,982.8000000715256,289394.5,8032,WL,B,10.0
2,18.81000018119812,learn,41189.99981880188,Wed May 21 2025 14:34:30 GMT-0500 (Central Daylight Time),290660.10000002384,A,gr,I,r,267,1,1265.6000000238419,289394.5,8032,WL,B,10.0
2,18.960000038146973,learn,41039.99996185303,Wed May 21 2025 14:34:30 GMT-0500 (Central Daylight Time),290810.2000000477,A,gra,I,a,137,1,1415.7000000476837,289394.5,8032,WL,B,10.0
2,19.14400005340576,learn,40855.99994659424,Wed May 21 2025 14:34:30 GMT-0500 (Central Daylight Time),290993.40000009537,A,gras,I,s,171,1,1598.9000000953674,289394.5,8032,WL,B,10.0
2,19.444000005722046,learn,40555.999994277954,Wed May 21 2025 14:34:30 GMT-0500 (Central Daylight Time),291293.3000000715,A,grass,I,s,284,1,1898.8000000715256,289394.5,8032,WL,B,10.0
2,19.710000038146973,learn,40289.99996185303,Wed May 21 2025 14:34:30 GMT-0500 (Central Daylight Time),291560.10000002384,A,grassenter,I,enter,256,1,2165.600000023842,289394.5,8032,WL,B,10.0
2,25.308000087738037,learn,34691.99991226196,Wed May 21 2025 14:34:30 GMT-0500 (Central Daylight Time),297158.10000002384,A,s,I,s,5581,1,5597.699999928474,291560.40000009537,8032,WL,B,11.0
2,25.508000135421753,learn,34491.99986457825,Wed May 21 2025 14:34:30 GMT-0500 (Central Daylight Time),297358.2000000477,A,st,I,t,191,1,5797.799999952316,291560.40000009537,8032,WL,B,11.0
2,25.674999952316284,learn,34325.000047683716,Wed May 21 2025 14:34:30 GMT-0500 (Central Daylight Time),297525.10000002384,A,sta,I,a,151,1,5964.699999928474,291560.40000009537,8032,WL,B,11.0
2,25.85800004005432,learn,34141.99995994568,Wed May 21 2025 14:34:30 GMT-0500 (Central Daylight Time),297708.10000002384,A,star,I,r,176,1,6147.699999928474,291560.40000009537,8032,WL,B,11.0
2,26.27400016784668,learn,33725.99983215332,Wed May 21 2025 14:34:30 GMT-0500 (Central Daylight Time),298124.60000002384,A,starenter,I,enter,409,1,6564.199999928474,291560.40000009537,8032,WL,B,11.0
2,33.23900008201599,learn,26760.99991798401,Wed May 21 2025 14:34:30 GMT-0500 (Central Daylight Time),305089.2000000477,A,f,I,f,6945,1,6964.299999952316,298124.90000009537,8032,WL,B,12.0
2,33.33899998664856,learn,26661.00001335144,Wed May 21 2025 14:34:30 GMT-0500 (Central Daylight Time),305189.10000002384,A,fi,I,i,84,1,7064.199999928474,298124.90000009537,8032,WL,B,12.0
2,33.50600004196167,learn,26493.99995803833,Wed May 21 2025 14:34:30 GMT-0500 (Central Daylight Time),305355.90000009537,A,fir,I,r,152,1,7231.0,298124.90000009537,8032,WL,B,12.0
2,33.75500011444092,learn,26244.999885559082,Wed May 21 2025 14:34:30 GMT-0500 (Central Daylight Time),305605.5,A,fire,I,e,241,1,7480.599999904633,298124.90000009537,8032,WL,B,12.0
2,34.0550000667572,learn,25944.999933242798,Wed May 21 2025 14:34:30 GMT-0500 (Central Daylight Time),305905.60000002384,A,fireenter,I,enter,280,1,7780.699999928474,298124.90000009537,8032,WL,B,12.0
2,35.105000019073486,learn,24894.999980926514,Wed May 21 2025 14:34:30 GMT-0500 (Central Daylight Time),306954.8000000715,A,s,I,s,1044,1,1048.8000000715256,305906.0,8032,WL,B,13.0
2,35.28800010681152,learn,24711.999893188477,Wed May 21 2025 14:34:30 GMT-0500 (Central Daylight Time),307138.40000009537,A,st,I,t,164,1,1232.4000000953674,305906.0,8032,WL,B,13.0
2,35.437999963760376,learn,24562.000036239624,Wed May 21 2025 14:34:30 GMT-0500 (Central Daylight Time),307288.60000002384,A,sta,I,a,131,1,1382.6000000238419,305906.0,8032,WL,B,13.0
2,35.62100005149841,learn,24378.999948501587,Wed May 21 2025 14:34:30 GMT-0500 (Central Daylight Time),307471.5,A,star,I,r,173,1,1565.5,305906.0,8032,WL,B,13.0
2,36.074000120162964,learn,23925.999879837036,Wed May 21 2025 14:34:30 GMT-0500 (Central Daylight Time),307924.7000000477,A,starenter,I,enter,431,1,2018.7000000476837,305906.0,8032,WL,B,13.0
2,60.01400017738342,learn,-14.000177383422852,Wed May 21 2025 14:34:30 GMT-0500 (Central Daylight Time),331864.10000002384,A,None,I,None,23934,1,23939.100000023842,307925.0,8032,WL,B,14.0
3,0.5829999446868896,learn,59417.00005531311,Wed May 21 2025 14:34:30 GMT-0500 (Central Daylight Time),401708.8000000715,A,s,I,s,568,1,583.1000000238419,401125.7000000477,8032,WL,B,1.0
3,1.0279998779296875,learn,58972.00012207031,Wed May 21 2025 14:34:30 GMT-0500 (Central Daylight Time),402153.8000000715,A,st,I,t,421,1,1028.1000000238419,401125.7000000477,8032,WL,B,1.0
3,1.315999984741211,learn,58684.00001525879,Wed May 21 2025 14:34:30 GMT-0500 (Central Daylight Time),402442.40000009537,A,str,I,r,283,1,1316.7000000476837,401125.7000000477,8032,WL,B,1.0
3,1.5989999771118164,learn,58401.00002288818,Wed May 21 2025 14:34:30 GMT-0500 (Central Daylight Time),402725.40000009537,A,stre,I,e,267,1,1599.7000000476837,401125.7000000477,8032,WL,B,1.0
3,1.815999984741211,learn,58184.00001525879,Wed May 21 2025 14:34:30 GMT-0500 (Central Daylight Time),402941.7000000477,A,stree,I,e,208,1,1816.0,401125.7000000477,8032,WL,B,1.0
3,2.0490000247955322,learn,57950.99997520447,Wed May 21 2025 14:34:30 GMT-0500 (Central Daylight Time),403174.90000009537,A,street,I,t,224,1,2049.2000000476837,401125.7000000477,8032,WL,B,1.0
3,2.365999937057495,learn,57634.000062942505,Wed May 21 2025 14:34:30 GMT-0500 (Central Daylight Time),403491.7000000477,A,streetenter,I,enter,310,1,2366.0,401125.7000000477,8032,WL,B,1.0
3,3.681999921798706,learn,56318.000078201294,Wed May 21 2025 14:34:30 GMT-0500 (Central Daylight Time),404807.8000000715,A,g,I,g,1305,1,1315.7000000476837,403492.10000002384,8032,WL,B,2.0
3,4.0320000648498535,learn,55967.99993515015,Wed May 21 2025 14:34:30 GMT-0500 (Central Daylight Time),405157.60000002384,A,gr,I,r,341,1,1665.5,403492.10000002384,8032,WL,B,2.0
3,4.2820000648498535,learn,55717.99993515015,Wed May 21 2025 14:34:30 GMT-0500 (Central Daylight Time),405407.5,A,gra,I,a,232,1,1915.3999999761581,403492.10000002384,8032,WL,B,2.0
3,4.514999866485596,learn,55485.000133514404,Wed May 21 2025 14:34:30 GMT-0500 (Central Daylight Time),405640.90000009537,A,gras,I,s,214,1,2148.8000000715256,403492.10000002384,8032,WL,B,2.0
3,4.664999961853027,learn,55335.00003814697,Wed May 21 2025 14:34:30 GMT-0500 (Central Daylight Time),405790.60000002384,A,grass,I,s,133,1,2298.5,403492.10000002384,8032,WL,B,2.0
3,4.898000001907349,learn,55101.99999809265,Wed May 21 2025 14:34:30 GMT-0500 (Central Daylight Time),406024.2000000477,A,grassenter,I,enter,215,1,2532.100000023842,403492.10000002384,8032,WL,B,2.0
3,5.315000057220459,learn,54684.99994277954,Wed May 21 2025 14:34:30 GMT-0500 (Central Daylight Time),406440.5,A,d,I,d,405,1,416.0,406024.5,8032,WL,B,3.0
3,5.4649999141693115,learn,54535.00008583069,Wed May 21 2025 14:34:30 GMT-0500 (Central Daylight Time),406590.60000002384,A,do,I,o,141,1,566.1000000238419,406024.5,8032,WL,B,3.0
3,5.680999994277954,learn,54319.000005722046,Wed May 21 2025 14:34:30 GMT-0500 (Central Daylight Time),406807.0,A,doo,I,o,207,1,782.5,406024.5,8032,WL,B,3.0
3,5.864000082015991,learn,54135.99991798401,Wed May 21 2025 14:34:30 GMT-0500 (Central Daylight Time),406990.40000009537,A,door,I,r,174,1,965.9000000953674,406024.5,8032,WL,B,3.0
3,6.180999994277954,learn,53819.000005722046,Wed May 21 2025 14:34:30 GMT-0500 (Central Daylight Time),407307.0,A,doorenter,I,enter,295,1,1282.5,406024.5,8032,WL,B,3.0
3,6.63100004196167,learn,53368.99995803833,Wed May 21 2025 14:34:30 GMT-0500 (Central Daylight Time),407757.10000002384,A,a,I,a,435,1,449.7999999523163,407307.3000000715,8032,WL,B,4.0
3,6.846999883651733,learn,53153.00011634827,Wed May 21 2025 14:34:30 GMT-0500 (Central Daylight Time),407973.3000000715,A,ar,I,r,200,1,666.0,407307.3000000715,8032,WL,B,4.0
3,7.013999938964844,learn,52986.000061035156,Wed May 21 2025 14:34:30 GMT-0500 (Central Daylight Time),408140.0,A,arm,I,m,152,1,832.6999999284744,407307.3000000715,8032,WL,B,4.0
3,7.596999883651733,learn,52403.00011634827,Wed May 21 2025 14:34:30 GMT-0500 (Central Daylight Time),408723.0,A,armenter,I,enter,578,1,1415.6999999284744,407307.3000000715,8032,WL,B,4.0
3,8.096999883651733,learn,51903.00011634827,Wed May 21 2025 14:34:30 GMT-0500 (Central Daylight Time),409223.10000002384,A,w,I,w,491,1,499.7999999523163,408723.3000000715,8032,WL,B,5.0
3,8.246999979019165,learn,51753.000020980835,Wed May 21 2025 14:34:30 GMT-0500 (Central Daylight Time),409373.10000002384,A,wi,I,i,142,1,649.7999999523163,408723.3000000715,8032,WL,B,5.0
3,8.746999979019165,learn,51253.000020980835,Wed May 21 2025 14:34:30 GMT-0500 (Central Daylight Time),409872.90000009537,A,win,I,n,480,1,1149.6000000238419,408723.3000000715,8032,WL,B,5.0
3,9.129999876022339,learn,50870.00012397766,Wed May 21 2025 14:34:30 GMT-0500 (Central Daylight Time),410256.0,A,wind,I,d,373,1,1532.6999999284744,408723.3000000715,8032,WL,B,5.0
3,9.595999956130981,learn,50404.00004386902,Wed May 21 2025 14:34:30 GMT-0500 (Central Daylight Time),410722.40000009537,A,windo,I,o,461,1,1999.1000000238419,408723.3000000715,8032,WL,B,5.0
3,9.79699993133545,learn,50203.00006866455,Wed May 21 2025 14:34:30 GMT-0500 (Central Daylight Time),410922.7000000477,A,window,I,w,179,1,2199.399999976158,408723.3000000715,8032,WL,B,5.0
3,10.579999923706055,learn,49420.000076293945,Wed May 21 2025 14:34:30 GMT-0500 (Central Daylight Time),411705.60000002384,A,windowenter,I,enter,771,1,2982.2999999523163,408723.3000000715,8032,WL,B,5.0
3,10.930000066757202,learn,49069.9999332428,Wed May 21 2025 14:34:30 GMT-0500 (Central Daylight Time),412055.7000000477,A,s,I,s,340,1,349.7999999523163,411705.90000009537,8032,WL,B,6.0
3,11.162999868392944,learn,48837.000131607056,Wed May 21 2025 14:34:30 GMT-0500 (Central Daylight Time),412288.90000009537,A,st,I,t,222,1,583.0,411705.90000009537,8032,WL,B,6.0
3,11.312999963760376,learn,48687.000036239624,Wed May 21 2025 14:34:30 GMT-0500 (Central Daylight Time),412438.90000009537,A,sta,I,a,141,1,733.0,411705.90000009537,8032,WL,B,6.0
3,11.546000003814697,learn,48453.9999961853,Wed May 21 2025 14:34:30 GMT-0500 (Central Daylight Time),412672.0,A,star,I,r,222,1,966.0999999046326,411705.90000009537,8032,WL,B,6.0
3,11.895999908447266,learn,48104.000091552734,Wed May 21 2025 14:34:30 GMT-0500 (Central Daylight Time),413021.7000000477,A,starenter,I,enter,333,1,1315.7999999523163,411705.90000009537,8032,WL,B,6.0
3,12.895999908447266,learn,47104.000091552734,Wed May 21 2025 14:34:30 GMT-0500 (Central Daylight Time),414021.60000002384,A,c,I,c,992,1,999.6999999284744,413021.90000009537,8032,WL,B,7.0
3,12.978999853134155,learn,47021.000146865845,Wed May 21 2025 14:34:30 GMT-0500 (Central Daylight Time),414105.0,A,ci,I,i,72,1,1083.0999999046326,413021.90000009537,8032,WL,B,7.0
3,13.279000043869019,learn,46720.99995613098,Wed May 21 2025 14:34:30 GMT-0500 (Central Daylight Time),414404.7000000477,A,cit,I,t,284,1,1382.7999999523163,413021.90000009537,8032,WL,B,7.0
3,13.828999996185303,learn,46171.0000038147,Wed May 21 2025 14:34:30 GMT-0500 (Central Daylight Time),414954.60000002384,A,city,I,y,545,1,1932.6999999284744,413021.90000009537,8032,WL,B,7.0
3,14.227999925613403,learn,45772.0000743866,Wed May 21 2025 14:34:30 GMT-0500 (Central Daylight Time),415354.40000009537,A,cityenter,I,enter,387,1,2332.5,413021.90000009537,8032,WL,B,7.0
3,14.628000020980835,learn,45371.999979019165,Wed May 21 2025 14:34:30 GMT-0500 (Central Daylight Time),415754.3000000715,A,s,I,s,379,1,399.7000000476837,415354.60000002384,8032,WL,B,8.0
3,14.744999885559082,learn,45255.00011444092,Wed May 21 2025 14:34:30 GMT-0500 (Central Daylight Time),415871.0,A,sk,I,k,107,1,516.3999999761581,415354.60000002384,8032,WL,B,8.0
3,14.977999925613403,learn,45022.0000743866,Wed May 21 2025 14:34:30 GMT-0500 (Central Daylight Time),416104.2000000477,A,ski,I,i,215,1,749.6000000238419,415354.60000002384,8032,WL,B,8.0
3,15.17799997329712,learn,44822.00002670288,Wed May 21 2025 14:34:30 GMT-0500 (Central Daylight Time),416304.10000002384,A,skin,I,n,181,1,949.5,415354.60000002384,8032,WL,B,8.0
3,15.628000020980835,learn,44371.999979019165,Wed May 21 2025 14:34:30 GMT-0500 (Central Daylight Time),416754.3000000715,A,skinenter,I,enter,445,1,1399.7000000476837,415354.60000002384,8032,WL,B,8.0
3,16.39400005340576,learn,43605.99994659424,Wed May 21 2025 14:34:30 GMT-0500 (Central Daylight Time),417520.3000000715,A,a,I,a,755,1,765.7000000476837,416754.60000002384,8032,WL,B,9.0
3,16.626999855041504,learn,43373.000144958496,Wed May 21 2025 14:34:30 GMT-0500 (Central Daylight Time),417753.90000009537,A,ar,I,r,213,1,999.3000000715256,416754.60000002384,8032,WL,B,9.0
3,16.810999870300293,learn,43189.00012969971,Wed May 21 2025 14:34:30 GMT-0500 (Central Daylight Time),417937.10000002384,A,arm,I,m,163,1,1182.5,416754.60000002384,8032,WL,B,9.0
3,17.17799997329712,learn,42822.00002670288,Wed May 21 2025 14:34:30 GMT-0500 (Central Daylight Time),418304.5,A,armenter,I,enter,348,1,1549.8999999761581,416754.60000002384,8032,WL,B,9.0
3,19.80999994277954,learn,40190.00005722046,Wed May 21 2025 14:34:30 GMT-0500 (Central Daylight Time),420936.10000002384,A,c,I,c,2621,1,2631.2999999523163,418304.8000000715,8032,WL,B,10.0
3,19.95899987220764,learn,40041.00012779236,Wed May 21 2025 14:34:30 GMT-0500 (Central Daylight Time),421086.0,A,ca,I,a,133,1,2781.1999999284744,418304.8000000715,8032,WL,B,10.0
3,20.193000078201294,learn,39806.999921798706,Wed May 21 2025 14:34:30 GMT-0500 (Central Daylight Time),421319.10000002384,A,cab,I,b,223,1,3014.2999999523163,418304.8000000715,8032,WL,B,10.0
3,20.325999975204468,learn,39674.00002479553,Wed May 21 2025 14:34:30 GMT-0500 (Central Daylight Time),421452.5,A,cabi,I,i,118,1,3147.6999999284744,418304.8000000715,8032,WL,B,10.0
3,20.526000022888184,learn,39473.99997711182,Wed May 21 2025 14:34:30 GMT-0500 (Central Daylight Time),421652.3000000715,A,cabin,I,n,185,1,3347.5,418304.8000000715,8032,WL,B,10.0
3,20.825999975204468,learn,39174.00002479553,Wed May 21 2025 14:34:30 GMT-0500 (Central Daylight Time),421952.5,A,cabinenter,I,enter,289,1,3647.6999999284744,418304.8000000715,8032,WL,B,10.0
3,21.108999967575073,learn,38891.00003242493,Wed May 21 2025 14:34:30 GMT-0500 (Central Daylight Time),422235.40000009537,A,f,I,f,277,1,282.60000002384186,421952.8000000715,8032,WL,B,11.0
3,21.259000062942505,learn,38740.999937057495,Wed May 21 2025 14:34:30 GMT-0500 (Central Daylight Time),422385.5,A,fi,I,i,130,1,432.6999999284744,421952.8000000715,8032,WL,B,11.0
3,21.441999912261963,learn,38558.00008773804,Wed May 21 2025 14:34:30 GMT-0500 (Central Daylight Time),422568.7000000477,A,fir,I,r,164,1,615.8999999761581,421952.8000000715,8032,WL,B,11.0
3,21.759000062942505,learn,38240.999937057495,Wed May 21 2025 14:34:30 GMT-0500 (Central Daylight Time),422885.40000009537,A,fire,I,e,301,1,932.6000000238419,421952.8000000715,8032,WL,B,11.0
3,22.042999982833862,learn,37957.00001716614,Wed May 21 2025 14:34:30 GMT-0500 (Central Daylight Time),423169.7000000477,A,fireenter,I,enter,264,1,1216.8999999761581,421952.8000000715,8032,WL,B,11.0
3,23.757999897003174,learn,36242.000102996826,Wed May 21 2025 14:34:30 GMT-0500 (Central Daylight Time),424885.0,A,p,I,p,1699,1,1714.8999999761581,423170.10000002384,8032,WL,B,12.0
3,23.990999937057495,learn,36009.000062942505,Wed May 21 2025 14:34:30 GMT-0500 (Central Daylight Time),425117.90000009537,A,pi,I,i,216,1,1947.8000000715256,423170.10000002384,8032,WL,B,12.0
3,24.19099998474121,learn,35809.00001525879,Wed May 21 2025 14:34:30 GMT-0500 (Central Daylight Time),425318.0,A,pip,I,p,191,1,2147.899999976158,423170.10000002384,8032,WL,B,12.0
3,24.625,learn,35375.0,Wed May 21 2025 14:34:30 GMT-0500 (Central Daylight Time),425751.3000000715,A,pipenter,I,enter,423,1,2581.2000000476837,423170.10000002384,8032,WL,B,12.0
3,26.44099998474121,learn,33559.00001525879,Wed May 21 2025 14:34:30 GMT-0500 (Central Daylight Time),427567.40000009537,A,p,I,p,1798,1,1815.9000000953674,425751.5,8032,WL,B,13.0
3,26.591000080108643,learn,33408.99991989136,Wed May 21 2025 14:34:30 GMT-0500 (Central Daylight Time),427717.2000000477,A,pu,I,u,134,1,1965.7000000476837,425751.5,8032,WL,B,13.0
3,26.907000064849854,learn,33092.99993515015,Wed May 21 2025 14:34:30 GMT-0500 (Central Daylight Time),428034.0,A,pup,I,p,296,1,2282.5,425751.5,8032,WL,B,13.0
3,27.323999881744385,learn,32676.000118255615,Wed May 21 2025 14:34:30 GMT-0500 (Central Daylight Time),428450.3000000715,A,pupi,I,i,403,1,2698.8000000715256,425751.5,8032,WL,B,13.0
3,27.60699987411499,learn,32393.00012588501,Wed May 21 2025 14:34:30 GMT-0500 (Central Daylight Time),428733.7000000477,A,pupil,I,l,275,1,2982.2000000476837,425751.5,8032,WL,B,13.0
3,28.407000064849854,learn,31592.999935150146,Wed May 21 2025 14:34:30 GMT-0500 (Central Daylight Time),429533.40000009537,A,pupilenter,I,enter,792,1,3781.9000000953674,425751.5,8032,WL,B,13.0
3,30.52300000190735,learn,29476.99999809265,Wed May 21 2025 14:34:30 GMT-0500 (Central Daylight Time),431649.40000009537,A,c,I,c,2096,1,2115.4000000953674,429534.0,8032,WL,B,14.0
3,30.58999991416931,learn,29410.00008583069,Wed May 21 2025 14:34:30 GMT-0500 (Central Daylight Time),431716.3000000715,A,cl,I,l,52,1,2182.3000000715256,429534.0,8032,WL,B,14.0
3,30.789000034332275,learn,29210.999965667725,Wed May 21 2025 14:34:30 GMT-0500 (Central Daylight Time),431916.0,A,clo,I,o,185,1,2382.0,429534.0,8032,WL,B,14.0
3,30.872999906539917,learn,29127.000093460083,Wed May 21 2025 14:34:30 GMT-0500 (Central Daylight Time),431999.40000009537,A,cloc,I,c,65,1,2465.4000000953674,429534.0,8032,WL,B,14.0
3,31.055999994277954,learn,28944.000005722046,Wed May 21 2025 14:34:30 GMT-0500 (Central Daylight Time),432182.60000002384,A,clock,I,k,166,1,2648.600000023842,429534.0,8032,WL,B,14.0
3,31.44000005722046,learn,28559.99994277954,Wed May 21 2025 14:34:30 GMT-0500 (Central Daylight Time),432567.0,A,clockenter,I,enter,375,1,3033.0,429534.0,8032,WL,B,14.0
3,46.300999879837036,learn,13699.000120162964,Wed May 21 2025 14:34:30 GMT-0500 (Central Daylight Time),447427.8000000715,A,s,I,s,14846,1,14860.5,432567.3000000715,8032,WL,B,15.0
3,46.41799998283386,learn,13582.000017166138,Wed May 21 2025 14:34:30 GMT-0500 (Central Daylight Time),447544.2000000477,A,sk,I,k,97,1,14976.899999976158,432567.3000000715,8032,WL,B,15.0
3,46.634000062942505,learn,13365.999937057495,Wed May 21 2025 14:34:30 GMT-0500 (Central Daylight Time),447761.0,A,ski,I,i,197,1,15193.699999928474,432567.3000000715,8032,WL,B,15.0
3,46.800999879837036,learn,13199.000120162964,Wed May 21 2025 14:34:30 GMT-0500 (Central Daylight Time),447927.60000002384,A,skin,I,n,148,1,15360.299999952316,432567.3000000715,8032,WL,B,15.0
3,47.33399987220764,learn,12666.000127792358,Wed May 21 2025 14:34:30 GMT-0500 (Central Daylight Time),448460.8000000715,A,skinenter,I,enter,526,1,15893.5,432567.3000000715,8032,WL,B,15.0
4,0.3840000629425049,learn,59615.999937057495,Wed May 21 2025 14:34:30 GMT-0500 (Central Daylight Time),521387.8000000715,A,s,I,s,377,1,383.0,521004.8000000715,8032,WL,B,1.0
4,0.7170000076293945,learn,59282.999992370605,Wed May 21 2025 14:34:30 GMT-0500 (Central Daylight Time),521721.2000000477,A,st,I,t,321,1,716.3999999761581,521004.8000000715,8032,WL,B,1.0
4,1.0170001983642578,learn,58982.99980163574,Wed May 21 2025 14:34:30 GMT-0500 (Central Daylight Time),522021.2000000477,A,str,I,r,284,1,1016.3999999761581,521004.8000000715,8032,WL,B,1.0
4,1.2170000076293945,learn,58782.999992370605,Wed May 21 2025 14:34:30 GMT-0500 (Central Daylight Time),522221.0,A,stre,I,e,184,1,1216.1999999284744,521004.8000000715,8032,WL,B,1.0
4,1.4170000553131104,learn,58582.99994468689,Wed May 21 2025 14:34:30 GMT-0500 (Central Daylight Time),522420.8000000715,A,stree,I,e,192,1,1416.0,521004.8000000715,8032,WL,B,1.0
4,1.933000087738037,learn,58066.99991226196,Wed May 21 2025 14:34:30 GMT-0500 (Central Daylight Time),522937.3000000715,A,street,I,t,497,1,1932.5,521004.8000000715,8032,WL,B,1.0
4,2.2830002307891846,learn,57716.999769210815,Wed May 21 2025 14:34:30 GMT-0500 (Central Daylight Time),523287.3000000715,A,streetenter,I,enter,332,1,2282.5,521004.8000000715,8032,WL,B,1.0
4,3.0990002155303955,learn,56900.999784469604,Wed May 21 2025 14:34:30 GMT-0500 (Central Daylight Time),524103.60000002384,A,g,I,g,806,1,816.0,523287.60000002384,8032,WL,B,2.0
4,3.383000135421753,learn,56616.99986457825,Wed May 21 2025 14:34:30 GMT-0500 (Central Daylight Time),524386.8000000715,A,gr,I,r,277,1,1099.2000000476837,523287.60000002384,8032,WL,B,2.0
4,3.56600022315979,learn,56433.99977684021,Wed May 21 2025 14:34:30 GMT-0500 (Central Daylight Time),524570.1000000238,A,gra,I,a,163,1,1282.5,523287.60000002384,8032,WL,B,2.0
4,3.7660000324249268,learn,56233.99996757507,Wed May 21 2025 14:34:30 GMT-0500 (Central Daylight Time),524770.2000000477,A,gras,I,s,179,1,1482.6000000238419,523287.60000002384,8032,WL,B,2.0
4,3.9160001277923584,learn,56083.99987220764,Wed May 21 2025 14:34:30 GMT-0500 (Central Daylight Time),524920.2000000477,A,grass,I,s,139,1,1632.6000000238419,523287.60000002384,8032,WL,B,2.0
4,4.299000024795532,learn,55700.99997520447,Wed May 21 2025 14:34:30 GMT-0500 (Central Daylight Time),525303.2000000477,A,grassenter,I,enter,365,1,2015.6000000238419,523287.60000002384,8032,WL,B,2.0
4,4.666000127792358,learn,55333.99987220764,Wed May 21 2025 14:34:30 GMT-0500 (Central Daylight Time),525670.0,A,d,I,d,350,1,366.2999999523163,525303.7000000477,8032,WL,B,3.0
4,4.7820000648498535,learn,55217.99993515015,Wed May 21 2025 14:34:30 GMT-0500 (Central Daylight Time),525786.5,A,do,I,o,103,1,482.7999999523163,525303.7000000477,8032,WL,B,3.0
4,4.982000112533569,learn,55017.99988746643,Wed May 21 2025 14:34:30 GMT-0500 (Central Daylight Time),525986.4000000954,A,doo,I,o,187,1,682.7000000476837,525303.7000000477,8032,WL,B,3.0
4,5.14900016784668,learn,54850.99983215332,Wed May 21 2025 14:34:30 GMT-0500 (Central Daylight Time),526153.1000000238,A,door,I,r,147,1,849.3999999761581,525303.7000000477,8032,WL,B,3.0
4,5.9150002002716064,learn,54084.99979972839,Wed May 21 2025 14:34:30 GMT-0500 (Central Daylight Time),526919.5,A,doorenter,I,enter,756,1,1615.7999999523163,525303.7000000477,8032,WL,B,3.0
4,6.2820000648498535,learn,53717.99993515015,Wed May 21 2025 14:34:30 GMT-0500 (Central Daylight Time),527286.1000000238,A,a,I,a,357,1,366.2999999523163,526919.8000000715,8032,WL,B,4.0
4,6.498000144958496,learn,53501.999855041504,Wed May 21 2025 14:34:30 GMT-0500 (Central Daylight Time),527502.6000000238,A,ar,I,r,199,1,582.7999999523163,526919.8000000715,8032,WL,B,4.0
4,6.732000112533569,learn,53267.99988746643,Wed May 21 2025 14:34:30 GMT-0500 (Central Daylight Time),527735.9000000954,A,arm,I,m,223,1,816.1000000238419,526919.8000000715,8032,WL,B,4.0
4,7.248000144958496,learn,52751.999855041504,Wed May 21 2025 14:34:30 GMT-0500 (Central Daylight Time),528252.3000000715,A,armenter,I,enter,502,1,1332.5,526919.8000000715,8032,WL,B,4.0
4,8.231000185012817,learn,51768.99981498718,Wed May 21 2025 14:34:30 GMT-0500 (Central Daylight Time),529235.3000000715,A,s,I,s,977,1,982.7000000476837,528252.6000000238,8032,WL,B,5.0
4,8.464000225067139,learn,51535.99977493286,Wed May 21 2025 14:34:30 GMT-0500 (Central Daylight Time),529468.7000000477,A,st,I,t,218,1,1216.1000000238419,528252.6000000238,8032,WL,B,5.0
4,8.598000049591064,learn,51401.999950408936,Wed May 21 2025 14:34:30 GMT-0500 (Central Daylight Time),529602.4000000954,A,sta,I,a,121,1,1349.8000000715256,528252.6000000238,8032,WL,B,5.0
4,8.831000089645386,learn,51168.999910354614,Wed May 21 2025 14:34:30 GMT-0500 (Central Daylight Time),529834.9000000954,A,star,I,r,227,1,1582.3000000715256,528252.6000000238,8032,WL,B,5.0
4,9.364000082015991,learn,50635.99991798401,Wed May 21 2025 14:34:30 GMT-0500 (Central Daylight Time),530368.3000000715,A,starenter,I,enter,514,1,2115.7000000476837,528252.6000000238,8032,WL,B,5.0
4,9.831000089645386,learn,50168.999910354614,Wed May 21 2025 14:34:30 GMT-0500 (Central Daylight Time),530834.9000000954,A,c,I,c,453,1,466.2000000476837,530368.7000000477,8032,WL,B,6.0
4,9.981000185012817,learn,50018.99981498718,Wed May 21 2025 14:34:30 GMT-0500 (Central Daylight Time),530985.0,A,ci,I,i,131,1,616.2999999523163,530368.7000000477,8032,WL,B,6.0
4,10.164000034332275,learn,49835.999965667725,Wed May 21 2025 14:34:30 GMT-0500 (Central Daylight Time),531168.2000000477,A,cit,I,t,165,1,799.5,530368.7000000477,8032,WL,B,6.0
4,10.414000034332275,learn,49585.999965667725,Wed May 21 2025 14:34:30 GMT-0500 (Central Daylight Time),531418.3000000715,A,city,I,y,229,1,1049.6000000238419,530368.7000000477,8032,WL,B,6.0
4,10.997000217437744,learn,49002.999782562256,Wed May 21 2025 14:34:30 GMT-0500 (Central Daylight Time),532001.3000000715,A,cityenter,I,enter,563,1,1632.6000000238419,530368.7000000477,8032,WL,B,6.0
4,12.097000122070312,learn,47902.99987792969,Wed May 21 2025 14:34:30 GMT-0500 (Central Daylight Time),533100.8000000715,A,l,I,l,1092,1,1099.3000000715256,532001.5,8032,WL,B,7.0
4,12.247000217437744,learn,47752.999782562256,Wed May 21 2025 14:34:30 GMT-0500 (Central Daylight Time),533250.8000000715,A,la,I,a,136,1,1249.3000000715256,532001.5,8032,WL,B,7.0
4,12.44700002670288,learn,47552.99997329712,Wed May 21 2025 14:34:30 GMT-0500 (Central Daylight Time),533451.1000000238,A,lak,I,k,187,1,1449.6000000238419,532001.5,8032,WL,B,7.0
4,12.713000059127808,learn,47286.99994087219,Wed May 21 2025 14:34:30 GMT-0500 (Central Daylight Time),533717.3000000715,A,lake,I,e,250,1,1715.8000000715256,532001.5,8032,WL,B,7.0
4,12.963000059127808,learn,47036.99994087219,Wed May 21 2025 14:34:30 GMT-0500 (Central Daylight Time),533967.3000000715,A,lakeenter,I,enter,232,1,1965.8000000715256,532001.5,8032,WL,B,7.0
4,13.380000114440918,learn,46619.99988555908,Wed May 21 2025 14:34:30 GMT-0500 (Central Daylight Time),534383.7000000477,A,c,I,c,406,1,416.0,533967.7000000477,8032,WL,B,8.0
4,13.53000020980835,learn,46469.99979019165,Wed May 21 2025 14:34:30 GMT-0500 (Central Daylight Time),534533.9000000954,A,ca,I,a,141,1,566.2000000476837,533967.7000000477,8032,WL,B,8.0
4,13.779000043869019,learn,46220.99995613098,Wed May 21 2025 14:34:30 GMT-0500 (Central Daylight Time),534783.6000000238,A,cab,I,b,232,1,815.8999999761581,533967.7000000477,8032,WL,B,8.0
4,13.979000091552734,learn,46020.999908447266,Wed May 21 2025 14:34:30 GMT-0500 (Central Daylight Time),534983.5,A,cabi,I,i,190,1,1015.7999999523163,533967.7000000477,8032,WL,B,8.0
4,14.246000051498413,learn,45753.99994850159,Wed May 21 2025 14:34:30 GMT-0500 (Central Daylight Time),535250.3000000715,A,cabin,I,n,246,1,1282.6000000238419,533967.7000000477,8032,WL,B,8.0
4,14.729000091552734,learn,45270.999908447266,Wed May 21 2025 14:34:30 GMT-0500 (Central Daylight Time),535733.3000000715,A,cabinenter,I,enter,467,1,1765.6000000238419,533967.7000000477,8032,WL,B,8.0
4,15.312000036239624,learn,44687.999963760376,Wed May 21 2025 14:34:30 GMT-0500 (Central Daylight Time),536316.4000000954,A,w,I,w,576,1,582.8000000715256,535733.6000000238,8032,WL,B,9.0
4,15.446000099182129,learn,44553.99990081787,Wed May 21 2025 14:34:30 GMT-0500 (Central Daylight Time),536449.9000000954,A,wi,I,i,113,1,716.3000000715256,535733.6000000238,8032,WL,B,9.0
4,15.646000146865845,learn,44353.999853134155,Wed May 21 2025 14:34:30 GMT-0500 (Central Daylight Time),536649.7000000477,A,wif,I,f,188,1,916.1000000238419,535733.6000000238,8032,WL,B,9.0
4,15.946000099182129,learn,44053.99990081787,Wed May 21 2025 14:34:30 GMT-0500 (Central Daylight Time),536949.8000000715,A,wife,I,e,284,1,1216.2000000476837,535733.6000000238,8032,WL,B,9.0
4,16.295000076293945,learn,43704.999923706055,Wed May 21 2025 14:34:30 GMT-0500 (Central Daylight Time),537299.7000000477,A,wifeenter,I,enter,343,1,1566.1000000238419,535733.6000000238,8032,WL,B,9.0
4,16.761000156402588,learn,43238.99984359741,Wed May 21 2025 14:34:30 GMT-0500 (Central Daylight Time),537766.1000000238,A,f,I,f,450,1,465.89999997615814,537300.2000000477,8032,WL,B,10.0
4,16.91200017929077,learn,43087.99982070923,Wed May 21 2025 14:34:30 GMT-0500 (Central Daylight Time),537916.4000000954,A,fi,I,i,135,1,616.2000000476837,537300.2000000477,8032,WL,B,10.0
4,17.211000204086304,learn,42788.999795913696,Wed May 21 2025 14:34:30 GMT-0500 (Central Daylight Time),538216.0,A,fir,I,r,281,1,915.7999999523163,537300.2000000477,8032,WL,B,10.0
4,17.49400019645691,learn,42505.99980354309,Wed May 21 2025 14:34:30 GMT-0500 (Central Daylight Time),538498.9000000954,A,fire,I,e,278,1,1198.7000000476837,537300.2000000477,8032,WL,B,10.0
4,17.99400019645691,learn,42005.99980354309,Wed May 21 2025 14:34:30 GMT-0500 (Central Daylight Time),538999.0,A,fireenter,I,enter,483,1,1698.7999999523163,537300.2000000477,8032,WL,B,10.0
4,19.91000008583069,learn,40089.99991416931,Wed May 21 2025 14:34:30 GMT-0500 (Central Daylight Time),540914.8000000715,A,p,I,p,1911,1,1915.5,538999.3000000715,8032,WL,B,11.0
4,20.14400005340576,learn,39855.99994659424,Wed May 21 2025 14:34:30 GMT-0500 (Central Daylight Time),541148.4000000954,A,pu,I,u,227,1,2149.100000023842,538999.3000000715,8032,WL,B,11.0
4,20.39400005340576,learn,39605.99994659424,Wed May 21 2025 14:34:30 GMT-0500 (Central Daylight Time),541398.3000000715,A,pup,I,p,241,1,2399.0,538999.3000000715,8032,WL,B,11.0
4,21.110000133514404,learn,38889.999866485596,Wed May 21 2025 14:34:30 GMT-0500 (Central Daylight Time),542114.7000000477,A,pupi,I,i,711,1,3115.399999976158,538999.3000000715,8032,WL,B,11.0
4,21.64300012588501,learn,38356.99987411499,Wed May 21 2025 14:34:30 GMT-0500 (Central Daylight Time),542647.8000000715,A,pupil,I,l,523,1,3648.5,538999.3000000715,8032,WL,B,11.0
4,21.993000030517578,learn,38006.99996948242,Wed May 21 2025 14:34:30 GMT-0500 (Central Daylight Time),542997.8000000715,A,pupilenter,I,enter,334,1,3998.5,538999.3000000715,8032,WL,B,11.0
4,23.509000062942505,learn,36490.999937057495,Wed May 21 2025 14:34:30 GMT-0500 (Central Daylight Time),544514.0,A,s,I,s,1504,1,1515.8999999761581,542998.1000000238,8032,WL,B,12.0
4,23.610000133514404,learn,36389.999866485596,Wed May 21 2025 14:34:30 GMT-0500 (Central Daylight Time),544614.3000000715,A,sk,I,k,92,1,1616.2000000476837,542998.1000000238,8032,WL,B,12.0
4,23.826000213623047,learn,36173.99978637695,Wed May 21 2025 14:34:30 GMT-0500 (Central Daylight Time),544830.5,A,ski,I,i,207,1,1832.3999999761581,542998.1000000238,8032,WL,B,12.0
4,23.9760000705719,learn,36023.9999294281,Wed May 21 2025 14:34:30 GMT-0500 (Central Daylight Time),544980.5,A,skin,I,n,143,1,1982.3999999761581,542998.1000000238,8032,WL,B,12.0
4,24.359000205993652,learn,35640.99979400635,Wed May 21 2025 14:34:30 GMT-0500 (Central Daylight Time),545363.6000000238,A,skinenter,I,enter,377,1,2365.5,542998.1000000238,8032,WL,B,12.0
4,26.875,learn,33125.0,Wed May 21 2025 14:34:30 GMT-0500 (Central Daylight Time),547879.7000000477,A,p,I,p,2498,1,2515.899999976158,545363.8000000715,8032,WL,B,13.0
4,27.69100022315979,learn,32308.99977684021,Wed May 21 2025 14:34:30 GMT-0500 (Central Daylight Time),548695.9000000954,A,,I,backspace,806,1,3332.100000023842,545363.8000000715,8032,WL,B,13.0
4,29.10700011253357,learn,30892.99988746643,Wed May 21 2025 14:34:30 GMT-0500 (Central Daylight Time),550112.2000000477,A,c,I,c,1398,1,4748.399999976158,545363.8000000715,8032,WL,B,13.0
4,29.20800018310547,learn,30791.99981689453,Wed May 21 2025 14:34:30 GMT-0500 (Central Daylight Time),550212.3000000715,A,ci,I,i,93,1,4848.5,545363.8000000715,8032,WL,B,13.0
4,29.457000017166138,learn,30542.999982833862,Wed May 21 2025 14:34:30 GMT-0500 (Central Daylight Time),550462.2000000477,A,cit,I,t,241,1,5098.399999976158,545363.8000000715,8032,WL,B,13.0
4,29.641000032424927,learn,30358.999967575073,Wed May 21 2025 14:34:30 GMT-0500 (Central Daylight Time),550645.5,A,city,I,y,167,1,5281.699999928474,545363.8000000715,8032,WL,B,13.0
4,29.990000009536743,learn,30009.999990463257,Wed May 21 2025 14:34:30 GMT-0500 (Central Daylight Time),550995.0,A,cityenter,I,enter,344,1,5631.199999928474,545363.8000000715,8032,WL,B,13.0
4,41.95300006866455,learn,18046.99993133545,Wed May 21 2025 14:34:30 GMT-0500 (Central Daylight Time),562957.9000000954,A,c,I,c,11955,1,11962.700000047684,550995.2000000477,8032,WL,B,14.0
4,42.02000021934509,learn,17979.999780654907,Wed May 21 2025 14:34:30 GMT-0500 (Central Daylight Time),563024.5,A,cl,I,l,47,1,12029.299999952316,550995.2000000477,8032,WL,B,14.0
4,42.254000186920166,learn,17745.999813079834,Wed May 21 2025 14:34:30 GMT-0500 (Central Daylight Time),563258.3000000715,A,clo,I,o,221,1,12263.100000023842,550995.2000000477,8032,WL,B,14.0
4,42.420000076293945,learn,17579.999923706055,Wed May 21 2025 14:34:30 GMT-0500 (Central Daylight Time),563424.5,A,cloc,I,c,147,1,12429.299999952316,550995.2000000477,8032,WL,B,14.0
4,42.670000076293945,learn,17329.999923706055,Wed May 21 2025 14:34:30 GMT-0500 (Central Daylight Time),563674.8000000715,A,clock,I,k,228,1,12679.600000023842,550995.2000000477,8032,WL,B,14.0
4,43.003000020980835,learn,16996.999979019165,Wed May 21 2025 14:34:30 GMT-0500 (Central Daylight Time),564007.6000000238,A,clockenter,I,enter,322,1,13012.399999976158,550995.2000000477,8032,WL,B,14.0
4,49.53400015830994,learn,10465.999841690063,Wed May 21 2025 14:34:30 GMT-0500 (Central Daylight Time),570539.1000000238,A,l,I,l,6518,1,6531.199999928474,564007.9000000954,8032,WL,B,15.0
4,49.651000022888184,learn,10348.999977111816,Wed May 21 2025 14:34:30 GMT-0500 (Central Daylight Time),570655.6000000238,A,la,I,a,98,1,6647.699999928474,564007.9000000954,8032,WL,B,15.0
4,49.76800012588501,learn,10231.99987411499,Wed May 21 2025 14:34:30 GMT-0500 (Central Daylight Time),570772.5,A,lak,I,k,102,1,6764.599999904633,564007.9000000954,8032,WL,B,15.0
4,49.93400001525879,learn,10065.999984741211,Wed May 21 2025 14:34:30 GMT-0500 (Central Daylight Time),570939.0,A,lake,I,e,145,1,6931.099999904633,564007.9000000954,8032,WL,B,15.0
4,50.11800003051758,learn,9881.999969482422,Wed May 21 2025 14:34:30 GMT-0500 (Central Daylight Time),571122.4000000954,A,lakeenter,I,enter,163,1,7114.5,564007.9000000954,8032,WL,B,15.0
5,0.5339999198913574,learn,60000.0,Wed May 21 2025 14:34:30 GMT-0500 (Central Daylight Time),644566.2000000477,A,s,I,s,517,1,533.3999999761581,644032.8000000715,8032,WL,B,1.0
5,0.9670000076293945,learn,60000.0,Wed May 21 2025 14:34:30 GMT-0500 (Central Daylight Time),644999.3000000715,A,st,I,t,415,1,966.5,644032.8000000715,8032,WL,B,1.0
5,1.3329999446868896,learn,60000.0,Wed May 21 2025 14:34:30 GMT-0500 (Central Daylight Time),645365.7000000477,A,str,I,r,358,1,1332.8999999761581,644032.8000000715,8032,WL,B,1.0
5,1.616999864578247,learn,60000.0,Wed May 21 2025 14:34:30 GMT-0500 (Central Daylight Time),645648.9000000954,A,stre,I,e,272,1,1616.1000000238419,644032.8000000715,8032,WL,B,1.0
5,1.8999998569488525,learn,60000.0,Wed May 21 2025 14:34:30 GMT-0500 (Central Daylight Time),645932.2000000477,A,stree,I,e,268,1,1899.3999999761581,644032.8000000715,8032,WL,B,1.0
5,2.1999998092651367,learn,60000.0,Wed May 21 2025 14:34:30 GMT-0500 (Central Daylight Time),646232.0,A,street,I,t,289,1,2199.1999999284744,644032.8000000715,8032,WL,B,1.0
5,2.615999937057495,learn,60000.0,Wed May 21 2025 14:34:30 GMT-0500 (Central Daylight Time),646648.5,A,streetenter,I,enter,397,1,2615.6999999284744,644032.8000000715,8032,WL,B,1.0
5,3.7990000247955322,learn,60000.0,Wed May 21 2025 14:34:30 GMT-0500 (Central Daylight Time),647831.6000000238,A,g,I,g,1165,1,1182.7999999523163,646648.8000000715,8032,WL,B,2.0
5,4.082000017166138,learn,60000.0,Wed May 21 2025 14:34:30 GMT-0500 (Central Daylight Time),648114.6000000238,A,gr,I,r,278,1,1465.7999999523163,646648.8000000715,8032,WL,B,2.0
5,4.25,learn,60000.0,Wed May 21 2025 14:34:30 GMT-0500 (Central Daylight Time),648282.0,A,gra,I,a,163,1,1633.1999999284744,646648.8000000715,8032,WL,B,2.0
5,4.4659998416900635,learn,60000.0,Wed May 21 2025 14:34:30 GMT-0500 (Central Daylight Time),648498.1000000238,A,gras,I,s,211,1,1849.2999999523163,646648.8000000715,8032,WL,B,2.0
5,4.665999889373779,learn,60000.0,Wed May 21 2025 14:34:30 GMT-0500 (Central Daylight Time),648698.0,A,grass,I,s,180,1,2049.1999999284744,646648.8000000715,8032,WL,B,2.0
5,5.56499981880188,learn,60000.0,Wed May 21 2025 14:34:30 GMT-0500 (Central Daylight Time),649597.6000000238,A,grassenter,I,enter,883,1,2948.7999999523163,646648.8000000715,8032,WL,B,2.0
5,6.148999929428101,learn,60000.0,Wed May 21 2025 14:34:30 GMT-0500 (Central Daylight Time),650180.8000000715,A,d,I,d,568,1,582.8999999761581,649597.9000000954,8032,WL,B,3.0
5,6.348999977111816,learn,60000.0,Wed May 21 2025 14:34:30 GMT-0500 (Central Daylight Time),650380.7000000477,A,do,I,o,184,1,782.7999999523163,649597.9000000954,8032,WL,B,3.0
5,6.56499981880188,learn,60000.0,Wed May 21 2025 14:34:30 GMT-0500 (Central Daylight Time),650597.3000000715,A,doo,I,o,201,1,999.3999999761581,649597.9000000954,8032,WL,B,3.0
5,6.781999826431274,learn,60000.0,Wed May 21 2025 14:34:30 GMT-0500 (Central Daylight Time),650814.0,A,door,I,r,200,1,1216.0999999046326,649597.9000000954,8032,WL,B,3.0
5,7.23199987411499,learn,60000.0,Wed May 21 2025 14:34:30 GMT-0500 (Central Daylight Time),651263.7000000477,A,doorenter,I,enter,439,1,1665.7999999523163,649597.9000000954,8032,WL,B,3.0
5,7.648000001907349,learn,60000.0,Wed May 21 2025 14:34:30 GMT-0500 (Central Daylight Time),651680.4000000954,A,a,I,a,398,1,416.40000009536743,651264.0,8032,WL,B,4.0
5,7.847999811172485,learn,60000.0,Wed May 21 2025 14:34:30 GMT-0500 (Central Daylight Time),651880.4000000954,A,ar,I,r,189,1,616.4000000953674,651264.0,8032,WL,B,4.0
5,8.06499981880188,learn,60000.0,Wed May 21 2025 14:34:30 GMT-0500 (Central Daylight Time),652097.2000000477,A,arm,I,m,197,1,833.2000000476837,651264.0,8032,WL,B,4.0
5,8.863999843597412,learn,60000.0,Wed May 21 2025 14:34:30 GMT-0500 (Central Daylight Time),652896.5,A,armenter,I,enter,788,1,1632.5,651264.0,8032,WL,B,4.0
5,14.279000043869019,learn,60000.0,Wed May 21 2025 14:34:30 GMT-0500 (Central Daylight Time),658311.6000000238,A,s,I,s,5397,1,5414.699999928474,652896.9000000954,8032,WL,B,5.0
5,14.51199984550476,learn,60000.0,Wed May 21 2025 14:34:30 GMT-0500 (Central Daylight Time),658544.7000000477,A,st,I,t,213,1,5647.799999952316,652896.9000000954,8032,WL,B,5.0
5,14.645999908447266,learn,60000.0,Wed May 21 2025 14:34:30 GMT-0500 (Central Daylight Time),658678.4000000954,A,sta,I,a,125,1,5781.5,652896.9000000954,8032,WL,B,5.0
5,14.895999908447266,learn,60000.0,Wed May 21 2025 14:34:30 GMT-0500 (Central Daylight Time),658928.4000000954,A,star,I,r,239,1,6031.5,652896.9000000954,8032,WL,B,5.0
5,15.34500002861023,learn,60000.0,Wed May 21 2025 14:34:30 GMT-0500 (Central Daylight Time),659378.0,A,starenter,I,enter,429,1,6481.099999904633,652896.9000000954,8032,WL,B,5.0
5,15.878999948501587,learn,60000.0,Wed May 21 2025 14:34:30 GMT-0500 (Central Daylight Time),659911.2000000477,A,w,I,w,523,1,532.8999999761581,659378.3000000715,8032,WL,B,6.0
5,16.027999877929688,learn,60000.0,Wed May 21 2025 14:34:30 GMT-0500 (Central Daylight Time),660061.1000000238,A,wi,I,i,142,1,682.7999999523163,659378.3000000715,8032,WL,B,6.0
5,16.26199984550476,learn,60000.0,Wed May 21 2025 14:34:30 GMT-0500 (Central Daylight Time),660294.2000000477,A,wif,I,f,216,1,915.8999999761581,659378.3000000715,8032,WL,B,6.0
5,16.494999885559082,learn,60000.0,Wed May 21 2025 14:34:30 GMT-0500 (Central Daylight Time),660527.7000000477,A,wife,I,e,215,1,1149.3999999761581,659378.3000000715,8032,WL,B,6.0
5,16.960999965667725,learn,60000.0,Wed May 21 2025 14:34:30 GMT-0500 (Central Daylight Time),660994.1000000238,A,wifeenter,I,enter,454,1,1615.7999999523163,659378.3000000715,8032,WL,B,6.0
5,19.626999855041504,learn,60000.0,Wed May 21 2025 14:34:30 GMT-0500 (Central Daylight Time),663660.0,A,c,I,c,2659,1,2665.5999999046326,660994.4000000954,8032,WL,B,7.0
5,19.710000038146973,learn,60000.0,Wed May 21 2025 14:34:30 GMT-0500 (Central Daylight Time),663743.1000000238,A,ci,I,i,73,1,2748.6999999284744,660994.4000000954,8032,WL,B,7.0
5,19.92799997329712,learn,60000.0,Wed May 21 2025 14:34:30 GMT-0500 (Central Daylight Time),663960.9000000954,A,cit,I,t,198,1,2966.5,660994.4000000954,8032,WL,B,7.0
5,20.109999895095825,learn,60000.0,Wed May 21 2025 14:34:30 GMT-0500 (Central Daylight Time),664143.1000000238,A,city,I,y,173,1,3148.6999999284744,660994.4000000954,8032,WL,B,7.0
5,20.526999950408936,learn,60000.0,Wed May 21 2025 14:34:30 GMT-0500 (Central Daylight Time),664559.8000000715,A,cityenter,I,enter,398,1,3565.399999976158,660994.4000000954,8032,WL,B,7.0
5,22.509999990463257,learn,60000.0,Wed May 21 2025 14:34:30 GMT-0500 (Central Daylight Time),666542.3000000715,A,p,I,p,1973,1,1982.2000000476837,664560.1000000238,8032,WL,B,8.0
5,22.72599983215332,learn,60000.0,Wed May 21 2025 14:34:30 GMT-0500 (Central Daylight Time),666758.9000000954,A,pu,I,u,199,1,2198.8000000715256,664560.1000000238,8032,WL,B,8.0
5,22.97599983215332,learn,60000.0,Wed May 21 2025 14:34:30 GMT-0500 (Central Daylight Time),667009.0,A,pup,I,p,230,1,2448.899999976158,664560.1000000238,8032,WL,B,8.0
5,23.276000022888184,learn,60000.0,Wed May 21 2025 14:34:30 GMT-0500 (Central Daylight Time),667308.8000000715,A,pupi,I,i,284,1,2748.7000000476837,664560.1000000238,8032,WL,B,8.0
5,23.675999879837036,learn,60000.0,Wed May 21 2025 14:34:30 GMT-0500 (Central Daylight Time),667708.7000000477,A,pupil,I,l,393,1,3148.600000023842,664560.1000000238,8032,WL,B,8.0
5,24.05900001525879,learn,60000.0,Wed May 21 2025 14:34:30 GMT-0500 (Central Daylight Time),668091.9000000954,A,pupilenter,I,enter,369,1,3531.8000000715256,664560.1000000238,8032,WL,B,8.0
5,25.658999919891357,learn,60000.0,Wed May 21 2025 14:34:30 GMT-0500 (Central Daylight Time),669691.3000000715,A,c,I,c,1586,1,1599.0,668092.3000000715,8032,WL,B,9.0
5,25.776000022888184,learn,60000.0,Wed May 21 2025 14:34:30 GMT-0500 (Central Daylight Time),669808.2000000477,A,ca,I,a,106,1,1715.8999999761581,668092.3000000715,8032,WL,B,9.0
5,26.024999856948853,learn,60000.0,Wed May 21 2025 14:34:30 GMT-0500 (Central Daylight Time),670058.0,A,cab,I,b,237,1,1965.6999999284744,668092.3000000715,8032,WL,B,9.0
5,26.174999952316284,learn,60000.0,Wed May 21 2025 14:34:30 GMT-0500 (Central Daylight Time),670208.0,A,cabi,I,i,131,1,2115.6999999284744,668092.3000000715,8032,WL,B,9.0
5,26.342000007629395,learn,60000.0,Wed May 21 2025 14:34:30 GMT-0500 (Central Daylight Time),670374.4000000954,A,cabin,I,n,157,1,2282.100000023842,668092.3000000715,8032,WL,B,9.0
5,26.774999856948853,learn,60000.0,Wed May 21 2025 14:34:30 GMT-0500 (Central Daylight Time),670807.7000000477,A,cabinenter,I,enter,415,1,2715.399999976158,668092.3000000715,8032,WL,B,9.0
5,27.125,learn,60000.0,Wed May 21 2025 14:34:30 GMT-0500 (Central Daylight Time),671157.6000000238,A,l,I,l,341,1,349.60000002384186,670808.0,8032,WL,B,10.0
5,27.257999897003174,learn,60000.0,Wed May 21 2025 14:34:30 GMT-0500 (Central Daylight Time),671290.8000000715,A,la,I,a,120,1,482.8000000715256,670808.0,8032,WL,B,10.0
5,27.44099998474121,learn,60000.0,Wed May 21 2025 14:34:30 GMT-0500 (Central Daylight Time),671474.0,A,lak,I,k,162,1,666.0,670808.0,8032,WL,B,10.0
5,27.72499990463257,learn,60000.0,Wed May 21 2025 14:34:30 GMT-0500 (Central Daylight Time),671757.6000000238,A,lake,I,e,268,1,949.6000000238419,670808.0,8032,WL,B,10.0
5,28.257999897003174,learn,60000.0,Wed May 21 2025 14:34:30 GMT-0500 (Central Daylight Time),672290.5,A,lakeenter,I,enter,520,1,1482.5,670808.0,8032,WL,B,10.0
5,29.240999937057495,learn,60000.0,Wed May 21 2025 14:34:30 GMT-0500 (Central Daylight Time),673273.6000000238,A,f,I,f,963,1,982.7999999523163,672290.8000000715,8032,WL,B,11.0
5,29.37399983406067,learn,60000.0,Wed May 21 2025 14:34:30 GMT-0500 (Central Daylight Time),673407.0,A,fi,I,i,116,1,1116.1999999284744,672290.8000000715,8032,WL,B,11.0
5,29.806999921798706,learn,60000.0,Wed May 21 2025 14:34:30 GMT-0500 (Central Daylight Time),673840.1000000238,A,fir,I,r,414,1,1549.2999999523163,672290.8000000715,8032,WL,B,11.0
5,30.0239999294281,learn,60000.0,Wed May 21 2025 14:34:30 GMT-0500 (Central Daylight Time),674056.7000000477,A,fire,I,e,205,1,1765.8999999761581,672290.8000000715,8032,WL,B,11.0
5,30.37399983406067,learn,60000.0,Wed May 21 2025 14:34:30 GMT-0500 (Central Daylight Time),674406.5,A,fireenter,I,enter,333,1,2115.6999999284744,672290.8000000715,8032,WL,B,11.0
5,30.891000032424927,learn,60000.0,Wed May 21 2025 14:34:30 GMT-0500 (Central Daylight Time),674923.2000000477,A,p,I,p,503,1,516.2999999523163,674406.9000000954,8032,WL,B,12.0
5,31.473999977111816,learn,60000.0,Wed May 21 2025 14:34:30 GMT-0500 (Central Daylight Time),675506.3000000715,A,pi,I,i,562,1,1099.3999999761581,674406.9000000954,8032,WL,B,12.0
5,31.823999881744385,learn,60000.0,Wed May 21 2025 14:34:30 GMT-0500 (Central Daylight Time),675856.5,A,pip,I,p,331,1,1449.5999999046326,674406.9000000954,8032,WL,B,12.0
5,32.156999826431274,learn,60000.0,Wed May 21 2025 14:34:30 GMT-0500 (Central Daylight Time),676189.3000000715,A,pipe,I,e,325,1,1782.3999999761581,674406.9000000954,8032,WL,B,12.0
5,33.12299990653992,learn,60000.0,Wed May 21 2025 14:34:30 GMT-0500 (Central Daylight Time),677155.6000000238,A,pipeenter,I,enter,952,1,2748.6999999284744,674406.9000000954,8032,WL,B,12.0
5,34.70599985122681,learn,60000.0,Wed May 21 2025 14:34:30 GMT-0500 (Central Daylight Time),678738.4000000954,A,c,I,c,1578,1,1582.4000000953674,677156.0,8032,WL,B,13.0
5,34.789000034332275,learn,60000.0,Wed May 21 2025 14:34:30 GMT-0500 (Central Daylight Time),678821.9000000954,A,cl,I,l,75,1,1665.9000000953674,677156.0,8032,WL,B,13.0
5,35.00600004196167,learn,60000.0,Wed May 21 2025 14:34:30 GMT-0500 (Central Daylight Time),679038.5,A,clo,I,o,200,1,1882.5,677156.0,8032,WL,B,13.0
5,35.055999994277954,learn,60000.0,Wed May 21 2025 14:34:30 GMT-0500 (Central Daylight Time),679088.4000000954,A,cloc,I,c,39,1,1932.4000000953674,677156.0,8032,WL,B,13.0
5,35.47199988365173,learn,60000.0,Wed May 21 2025 14:34:30 GMT-0500 (Central Daylight Time),679505.1000000238,A,clock,I,k,397,1,2349.100000023842,677156.0,8032,WL,B,13.0
5,35.871999979019165,learn,60000.0,Wed May 21 2025 14:34:30 GMT-0500 (Central Daylight Time),679904.8000000715,A,clockenter,I,enter,381,1,2748.8000000715256,677156.0,8032,WL,B,13.0
5,36.98899984359741,learn,60000.0,Wed May 21 2025 14:34:30 GMT-0500 (Central Daylight Time),681021.3000000715,A,w,I,w,1101,1,1116.1000000238419,679905.2000000477,8032,WL,B,14.0
5,37.05499982833862,learn,60000.0,Wed May 21 2025 14:34:30 GMT-0500 (Central Daylight Time),681087.8000000715,A,wi,I,i,56,1,1182.6000000238419,679905.2000000477,8032,WL,B,14.0
5,37.223999977111816,learn,60000.0,Wed May 21 2025 14:34:30 GMT-0500 (Central Daylight Time),681256.2000000477,A,win,I,n,150,1,1351.0,679905.2000000477,8032,WL,B,14.0
5,37.33799982070923,learn,60000.0,Wed May 21 2025 14:34:30 GMT-0500 (Central Daylight Time),681371.1000000238,A,wind,I,d,101,1,1465.8999999761581,679905.2000000477,8032,WL,B,14.0
5,37.65499997138977,learn,60000.0,Wed May 21 2025 14:34:30 GMT-0500 (Central Daylight Time),681687.6000000238,A,windo,I,o,298,1,1782.3999999761581,679905.2000000477,8032,WL,B,14.0
5,37.787999868392944,learn,60000.0,Wed May 21 2025 14:34:30 GMT-0500 (Central Daylight Time),681820.8000000715,A,window,I,w,118,1,1915.6000000238419,679905.2000000477,8032,WL,B,14.0
5,38.07099986076355,learn,60000.0,Wed May 21 2025 14:34:30 GMT-0500 (Central Daylight Time),682103.9000000954,A,windowenter,I,enter,265,1,2198.7000000476837,679905.2000000477,8032,WL,B,14.0
5,39.270999908447266,learn,60000.0,Wed May 21 2025 14:34:30 GMT-0500 (Central Daylight Time),683303.8000000715,A,p,I,p,1182,1,1199.6000000238419,682104.2000000477,8032,WL,B,15.0
5,39.437999963760376,learn,60000.0,Wed May 21 2025 14:34:30 GMT-0500 (Central Daylight Time),683470.2000000477,A,pu,I,u,149,1,1366.0,682104.2000000477,8032,WL,B,15.0
5,39.65400004386902,learn,60000.0,Wed May 21 2025 14:34:30 GMT-0500 (Central Daylight Time),683687.1000000238,A,pup,I,p,207,1,1582.8999999761581,682104.2000000477,8032,WL,B,15.0
5,40.4210000038147,learn,60000.0,Wed May 21 2025 14:34:30 GMT-0500 (Central Daylight Time),684453.5,A,pupi,I,i,750,1,2349.2999999523163,682104.2000000477,8032,WL,B,15.0
5,40.86299991607666,learn,60000.0,Wed May 21 2025 14:34:30 GMT-0500 (Central Daylight Time),684895.5,A,pupil,I,l,296,1,2791.2999999523163,682104.2000000477,8032,WL,B,15.0
5,41.22099995613098,learn,60000.0,Wed May 21 2025 14:34:30 GMT-0500 (Central Daylight Time),685253.1000000238,A,pupilenter,I,enter,342,1,3148.899999976158,682104.2000000477,8032,WL,B,15.0
6,0.8919999599456787,distr,59108.00004005432,Wed May 21 2025 14:34:30 GMT-0500 (Central Daylight Time),755573.5,B,b,I,b,888,1,892.0999999046326,754681.4000000954,8032,WL,B,1.0
6,0.9830000400543213,distr,59016.99995994568,Wed May 21 2025 14:34:30 GMT-0500 (Central Daylight Time),755664.2000000477,B,ba,I,a,79,1,982.7999999523163,754681.4000000954,8032,WL,B,1.0
6,1.2669999599456787,distr,58733.00004005432,Wed May 21 2025 14:34:30 GMT-0500 (Central Daylight Time),755947.6000000238,B,bay,I,y,269,1,1266.1999999284744,754681.4000000954,8032,WL,B,1.0
6,2.1499998569488525,distr,57850.00014305115,Wed May 21 2025 14:34:30 GMT-0500 (Central Daylight Time),756830.6000000238,B,ba,I,backspace,874,1,2149.1999999284744,754681.4000000954,8032,WL,B,1.0
6,2.2660000324249268,distr,57733.99996757507,Wed May 21 2025 14:34:30 GMT-0500 (Central Daylight Time),756947.1000000238,B,bab,I,b,110,1,2265.6999999284744,754681.4000000954,8032,WL,B,1.0
6,2.432999849319458,distr,57567.00015068054,Wed May 21 2025 14:34:30 GMT-0500 (Central Daylight Time),757113.9000000954,B,baby,I,y,154,1,2432.5,754681.4000000954,8032,WL,B,1.0
6,2.8989999294281006,distr,57101.0000705719,Wed May 21 2025 14:34:30 GMT-0500 (Central Daylight Time),757580.5,B,babyenter,I,enter,451,1,2899.0999999046326,754681.4000000954,8032,WL,B,1.0
6,3.2660000324249268,distr,56733.99996757507,Wed May 21 2025 14:34:30 GMT-0500 (Central Daylight Time),757947.3000000715,B,o,I,o,353,1,366.5,757580.8000000715,8032,WL,B,2.0
6,3.4489998817443848,distr,56551.000118255615,Wed May 21 2025 14:34:30 GMT-0500 (Central Daylight Time),758130.2000000477,B,oc,I,c,170,1,549.3999999761581,757580.8000000715,8032,WL,B,2.0
6,4.031999826431274,distr,55968.000173568726,Wed May 21 2025 14:34:30 GMT-0500 (Central Daylight Time),758713.4000000954,B,oce,I,e,563,1,1132.6000000238419,757580.8000000715,8032,WL,B,2.0
6,4.2159998416900635,distr,55784.00015830994,Wed May 21 2025 14:34:30 GMT-0500 (Central Daylight Time),758896.8000000715,B,ocea,I,a,172,1,1316.0,757580.8000000715,8032,WL,B,2.0
6,4.415999889373779,distr,55584.00011062622,Wed May 21 2025 14:34:30 GMT-0500 (Central Daylight Time),759096.6000000238,B,ocean,I,n,181,1,1515.7999999523163,757580.8000000715,8032,WL,B,2.0
6,4.914999961853027,distr,55085.00003814697,Wed May 21 2025 14:34:30 GMT-0500 (Central Daylight Time),759596.4000000954,B,oceanenter,I,enter,485,1,2015.6000000238419,757580.8000000715,8032,WL,B,2.0
6,5.997999906539917,distr,54002.00009346008,Wed May 21 2025 14:34:30 GMT-0500 (Central Daylight Time),760679.5,B,a,I,a,1073,1,1082.7999999523163,759596.7000000477,8032,WL,B,3.0
6,6.197999954223633,distr,53802.00004577637,Wed May 21 2025 14:34:30 GMT-0500 (Central Daylight Time),760879.3000000715,B,ar,I,r,182,1,1282.6000000238419,759596.7000000477,8032,WL,B,3.0
6,6.381999969482422,distr,53618.00003051758,Wed May 21 2025 14:34:30 GMT-0500 (Central Daylight Time),761062.6000000238,B,arm,I,m,166,1,1465.8999999761581,759596.7000000477,8032,WL,B,3.0
6,6.865000009536743,distr,53134.99999046326,Wed May 21 2025 14:34:30 GMT-0500 (Central Daylight Time),761546.0,B,army,I,y,463,1,1949.2999999523163,759596.7000000477,8032,WL,B,3.0
6,7.297999858856201,distr,52702.0001411438,Wed May 21 2025 14:34:30 GMT-0500 (Central Daylight Time),761978.9000000954,B,armyenter,I,enter,427,1,2382.2000000476837,759596.7000000477,8032,WL,B,3.0
6,9.69700002670288,distr,50302.99997329712,Wed May 21 2025 14:34:30 GMT-0500 (Central Daylight Time),764378.5,B,l,I,l,2394,1,2399.399999976158,761979.1000000238,8032,WL,B,4.0
6,10.063999891281128,distr,49936.00010871887,Wed May 21 2025 14:34:30 GMT-0500 (Central Daylight Time),764745.2000000477,B,li,I,i,347,1,2766.100000023842,761979.1000000238,8032,WL,B,4.0
6,10.313999891281128,distr,49686.00010871887,Wed May 21 2025 14:34:30 GMT-0500 (Central Daylight Time),764994.9000000954,B,lip,I,p,244,1,3015.8000000715256,761979.1000000238,8032,WL,B,4.0
6,10.730999946594238,distr,49269.00005340576,Wed May 21 2025 14:34:30 GMT-0500 (Central Daylight Time),765412.2000000477,B,lipenter,I,enter,411,1,3433.100000023842,761979.1000000238,8032,WL,B,4.0
6,11.912999868392944,distr,48087.000131607056,Wed May 21 2025 14:34:30 GMT-0500 (Central Daylight Time),766594.5,B,o,I,o,1177,1,1182.0999999046326,765412.4000000954,8032,WL,B,5.0
6,12.212999820709229,distr,47787.00017929077,Wed May 21 2025 14:34:30 GMT-0500 (Central Daylight Time),766894.2000000477,B,oc,I,c,291,1,1481.7999999523163,765412.4000000954,8032,WL,B,5.0
6,12.513000011444092,distr,47486.99998855591,Wed May 21 2025 14:34:30 GMT-0500 (Central Daylight Time),767194.0,B,oce,I,e,279,1,1781.5999999046326,765412.4000000954,8032,WL,B,5.0
6,12.61299991607666,distr,47387.00008392334,Wed May 21 2025 14:34:30 GMT-0500 (Central Daylight Time),767294.3000000715,B,ocea,I,a,83,1,1881.8999999761581,765412.4000000954,8032,WL,B,5.0
6,12.845999956130981,distr,47154.00004386902,Wed May 21 2025 14:34:30 GMT-0500 (Central Daylight Time),767527.2000000477,B,ocean,I,n,222,1,2114.7999999523163,765412.4000000954,8032,WL,B,5.0
6,13.212999820709229,distr,46787.00017929077,Wed May 21 2025 14:34:30 GMT-0500 (Central Daylight Time),767893.9000000954,B,oceanenter,I,enter,350,1,2481.5,765412.4000000954,8032,WL,B,5.0
6,49.20099997520447,distr,10799.000024795532,Wed May 21 2025 14:34:30 GMT-0500 (Central Daylight Time),803882.3000000715,B,f,I,f,35967,1,35988.0,767894.3000000715,8032,WL,B,6.0
6,49.76799988746643,distr,10232.00011253357,Wed May 21 2025 14:34:30 GMT-0500 (Central Daylight Time),804449.3000000715,B,fr,I,r,554,1,36555.0,767894.3000000715,8032,WL,B,6.0
6,49.967000007629395,distr,10032.999992370605,Wed May 21 2025 14:34:30 GMT-0500 (Central Daylight Time),804648.6000000238,B,fri,I,i,180,1,36754.299999952316,767894.3000000715,8032,WL,B,6.0
6,50.08399987220764,distr,9916.000127792358,Wed May 21 2025 14:34:30 GMT-0500 (Central Daylight Time),804765.3000000715,B,frie,I,e,109,1,36871.0,767894.3000000715,8032,WL,B,6.0
6,50.25099992752075,distr,9749.000072479248,Wed May 21 2025 14:34:30 GMT-0500 (Central Daylight Time),804932.2000000477,B,frien,I,n,160,1,37037.89999997616,767894.3000000715,8032,WL,B,6.0
6,50.53499984741211,distr,9465.00015258789,Wed May 21 2025 14:34:30 GMT-0500 (Central Daylight Time),805216.1000000238,B,friend,I,d,273,1,37321.799999952316,767894.3000000715,8032,WL,B,6.0
6,50.91699981689453,distr,9083.000183105469,Wed May 21 2025 14:34:30 GMT-0500 (Central Daylight Time),805598.7000000477,B,friendenter,I,enter,365,1,37704.39999997616,767894.3000000715,8032,WL,B,6.0
6,60.013999938964844,distr,-13.99993896484375,Wed May 21 2025 14:34:30 GMT-0500 (Central Daylight Time),814695.8000000715,B,None,I,None,9093,1,9096.800000071526,805599.0,8032,WL,B,7.0
7,4.315000057220459,immed,55684.99994277954,Wed May 21 2025 14:34:30 GMT-0500 (Central Daylight Time),839704.6000000238,A,g,I,g,4297,1,4315.0,835389.6000000238,8032,WL,B,1.0
7,4.664999961853027,immed,55335.00003814697,Wed May 21 2025 14:34:30 GMT-0500 (Central Daylight Time),840054.7000000477,A,gr,I,r,340,1,4665.100000023842,835389.6000000238,8032,WL,B,1.0
7,4.865000009536743,immed,55134.99999046326,Wed May 21 2025 14:34:30 GMT-0500 (Central Daylight Time),840254.5,A,gra,I,a,183,1,4864.899999976158,835389.6000000238,8032,WL,B,1.0
7,5.197999954223633,immed,54802.00004577637,Wed May 21 2025 14:34:30 GMT-0500 (Central Daylight Time),840587.6000000238,A,gras,I,s,327,1,5198.0,835389.6000000238,8032,WL,B,1.0
7,5.398000001907349,immed,54601.99999809265,Wed May 21 2025 14:34:30 GMT-0500 (Central Daylight Time),840787.5,A,grass,I,s,194,1,5397.899999976158,835389.6000000238,8032,WL,B,1.0
7,5.813999891281128,immed,54186.00010871887,Wed May 21 2025 14:34:30 GMT-0500 (Central Daylight Time),841204.3000000715,A,grassenter,I,enter,410,1,5814.700000047684,835389.6000000238,8032,WL,B,1.0
7,6.697000026702881,immed,53302.99997329712,Wed May 21 2025 14:34:30 GMT-0500 (Central Daylight Time),842087.1000000238,A,d,I,d,873,1,882.6000000238419,841204.5,8032,WL,B,2.0
7,6.846999883651733,immed,53153.00011634827,Wed May 21 2025 14:34:30 GMT-0500 (Central Daylight Time),842237.2000000477,A,do,I,o,143,1,1032.7000000476837,841204.5,8032,WL,B,2.0
7,7.046999931335449,immed,52953.00006866455,Wed May 21 2025 14:34:30 GMT-0500 (Central Daylight Time),842437.2000000477,A,doo,I,o,192,1,1232.7000000476837,841204.5,8032,WL,B,2.0
7,7.2809998989105225,immed,52719.00010108948,Wed May 21 2025 14:34:30 GMT-0500 (Central Daylight Time),842670.5,A,door,I,r,224,1,1466.0,841204.5,8032,WL,B,2.0
7,7.864000082015991,immed,52135.99991798401,Wed May 21 2025 14:34:30 GMT-0500 (Central Daylight Time),843253.6000000238,A,doorenter,I,enter,567,1,2049.100000023842,841204.5,8032,WL,B,2.0
7,8.180000066757202,immed,51819.9999332428,Wed May 21 2025 14:34:30 GMT-0500 (Central Daylight Time),843570.2000000477,A,s,I,s,295,1,316.2999999523163,843253.9000000954,8032,WL,B,3.0
7,8.379999876022339,immed,51620.00012397766,Wed May 21 2025 14:34:30 GMT-0500 (Central Daylight Time),843770.3000000715,A,st,I,t,195,1,516.3999999761581,843253.9000000954,8032,WL,B,3.0
7,8.713000059127808,immed,51286.99994087219,Wed May 21 2025 14:34:30 GMT-0500 (Central Daylight Time),844103.4000000954,A,str,I,r,315,1,849.5,843253.9000000954,8032,WL,B,3.0
7,8.77999997138977,immed,51220.00002861023,Wed May 21 2025 14:34:30 GMT-0500 (Central Daylight Time),844170.1000000238,A,stre,I,e,46,1,916.1999999284744,843253.9000000954,8032,WL,B,3.0
7,9.013000011444092,immed,50986.99998855591,Wed May 21 2025 14:34:30 GMT-0500 (Central Daylight Time),844403.1000000238,A,stree,I,e,219,1,1149.1999999284744,843253.9000000954,8032,WL,B,3.0
7,9.730000019073486,immed,50269.999980926514,Wed May 21 2025 14:34:30 GMT-0500 (Central Daylight Time),845119.7000000477,A,street,I,t,706,1,1865.7999999523163,843253.9000000954,8032,WL,B,3.0
7,9.980000019073486,immed,50019.999980926514,Wed May 21 2025 14:34:30 GMT-0500 (Central Daylight Time),845369.5,A,streetenter,I,enter,230,1,2115.5999999046326,843253.9000000954,8032,WL,B,3.0
7,11.296000003814697,immed,48703.9999961853,Wed May 21 2025 14:34:30 GMT-0500 (Central Daylight Time),846686.0,A,w,I,w,1307,1,1316.1999999284744,845369.8000000715,8032,WL,B,4.0
7,11.412999868392944,immed,48587.000131607056,Wed May 21 2025 14:34:30 GMT-0500 (Central Daylight Time),846802.5,A,wi,I,i,104,1,1432.6999999284744,845369.8000000715,8032,WL,B,4.0
7,11.562000036239624,immed,48437.999963760376,Wed May 21 2025 14:34:30 GMT-0500 (Central Daylight Time),846952.3000000715,A,win,I,n,139,1,1582.5,845369.8000000715,8032,WL,B,4.0
7,11.729000091552734,immed,48270.999908447266,Wed May 21 2025 14:34:30 GMT-0500 (Central Daylight Time),847119.2000000477,A,wind,I,d,149,1,1749.3999999761581,845369.8000000715,8032,WL,B,4.0
7,12.213000059127808,immed,47786.99994087219,Wed May 21 2025 14:34:30 GMT-0500 (Central Daylight Time),847602.7000000477,A,windo,I,o,478,1,2232.899999976158,845369.8000000715,8032,WL,B,4.0
7,12.361999988555908,immed,47638.00001144409,Wed May 21 2025 14:34:30 GMT-0500 (Central Daylight Time),847752.2000000477,A,window,I,w,130,1,2382.399999976158,845369.8000000715,8032,WL,B,4.0
7,12.694999933242798,immed,47305.0000667572,Wed May 21 2025 14:34:30 GMT-0500 (Central Daylight Time),848085.3000000715,A,windowenter,I,enter,317,1,2715.5,845369.8000000715,8032,WL,B,4.0
7,14.062000036239624,immed,45937.999963760376,Wed May 21 2025 14:34:30 GMT-0500 (Central Daylight Time),849451.6000000238,A,p,I,p,1352,1,1365.8999999761581,848085.7000000477,8032,WL,B,5.0
7,14.440000057220459,immed,45559.99994277954,Wed May 21 2025 14:34:30 GMT-0500 (Central Daylight Time),849830.2000000477,A,pu,I,u,226,1,1744.5,848085.7000000477,8032,WL,B,5.0
7,14.961999893188477,immed,45038.00010681152,Wed May 21 2025 14:34:30 GMT-0500 (Central Daylight Time),850351.6000000238,A,pup,I,p,511,1,2265.899999976158,848085.7000000477,8032,WL,B,5.0
7,15.310999870300293,immed,44689.00012969971,Wed May 21 2025 14:34:30 GMT-0500 (Central Daylight Time),850701.4000000954,A,pupi,I,i,334,1,2615.7000000476837,848085.7000000477,8032,WL,B,5.0
7,15.977999925613403,immed,44022.0000743866,Wed May 21 2025 14:34:30 GMT-0500 (Central Daylight Time),851367.7000000477,A,pupil,I,l,648,1,3282.0,848085.7000000477,8032,WL,B,5.0
7,16.32800006866455,immed,43671.99993133545,Wed May 21 2025 14:34:30 GMT-0500 (Central Daylight Time),851717.5,A,pupilenter,I,enter,334,1,3631.7999999523163,848085.7000000477,8032,WL,B,5.0
7,16.628000020980835,immed,43371.999979019165,Wed May 21 2025 14:34:30 GMT-0500 (Central Daylight Time),852017.8000000715,A,a,I,a,288,1,300.0,851717.8000000715,8032,WL,B,6.0
7,16.89400005340576,immed,43105.99994659424,Wed May 21 2025 14:34:30 GMT-0500 (Central Daylight Time),852284.0,A,ar,I,r,260,1,566.1999999284744,851717.8000000715,8032,WL,B,6.0
7,17.128000020980835,immed,42871.999979019165,Wed May 21 2025 14:34:30 GMT-0500 (Central Daylight Time),852517.5,A,arm,I,m,225,1,799.6999999284744,851717.8000000715,8032,WL,B,6.0
7,17.526999950408936,immed,42473.000049591064,Wed May 21 2025 14:34:30 GMT-0500 (Central Daylight Time),852917.1000000238,A,armenter,I,enter,384,1,1199.2999999523163,851717.8000000715,8032,WL,B,6.0
7,17.861000061035156,immed,42138.999938964844,Wed May 21 2025 14:34:30 GMT-0500 (Central Daylight Time),853250.6000000238,A,s,I,s,312,1,333.10000002384186,852917.5,8032,WL,B,7.0
7,18.026999950408936,immed,41973.000049591064,Wed May 21 2025 14:34:30 GMT-0500 (Central Daylight Time),853417.1000000238,A,sk,I,k,147,1,499.60000002384186,852917.5,8032,WL,B,7.0
7,18.259999990463257,immed,41740.00000953674,Wed May 21 2025 14:34:30 GMT-0500 (Central Daylight Time),853650.3000000715,A,ski,I,i,213,1,732.8000000715256,852917.5,8032,WL,B,7.0
7,18.47699999809265,immed,41523.00000190735,Wed May 21 2025 14:34:30 GMT-0500 (Central Daylight Time),853867.0,A,skin,I,n,196,1,949.5,852917.5,8032,WL,B,7.0
7,19.042999982833862,immed,40957.00001716614,Wed May 21 2025 14:34:30 GMT-0500 (Central Daylight Time),854433.4000000954,A,skinenter,I,enter,547,1,1515.9000000953674,852917.5,8032,WL,B,7.0
7,19.342999935150146,immed,40657.00006484985,Wed May 21 2025 14:34:30 GMT-0500 (Central Daylight Time),854733.3000000715,A,w,I,w,284,1,299.5,854433.8000000715,8032,WL,B,8.0
7,19.47699999809265,immed,40523.00000190735,Wed May 21 2025 14:34:30 GMT-0500 (Central Daylight Time),854866.8000000715,A,wi,I,i,112,1,433.0,854433.8000000715,8032,WL,B,8.0
7,19.677000045776367,immed,40322.99995422363,Wed May 21 2025 14:34:30 GMT-0500 (Central Daylight Time),855066.4000000954,A,wif,I,f,179,1,632.6000000238419,854433.8000000715,8032,WL,B,8.0
7,20.026000022888184,immed,39973.99997711182,Wed May 21 2025 14:34:30 GMT-0500 (Central Daylight Time),855416.3000000715,A,wife,I,e,331,1,982.5,854433.8000000715,8032,WL,B,8.0
7,20.325999975204468,immed,39674.00002479553,Wed May 21 2025 14:34:30 GMT-0500 (Central Daylight Time),855716.3000000715,A,wifeenter,I,enter,285,1,1282.5,854433.8000000715,8032,WL,B,8.0
7,20.66000008583069,immed,39339.99991416931,Wed May 21 2025 14:34:30 GMT-0500 (Central Daylight Time),856049.5,A,s,I,s,313,1,332.89999997615814,855716.6000000238,8032,WL,B,9.0
7,20.89299988746643,immed,39107.00011253357,Wed May 21 2025 14:34:30 GMT-0500 (Central Daylight Time),856283.1000000238,A,st,I,t,213,1,566.5,855716.6000000238,8032,WL,B,9.0
7,21.075999975204468,immed,38924.00002479553,Wed May 21 2025 14:34:30 GMT-0500 (Central Daylight Time),856466.4000000954,A,sta,I,a,178,1,749.8000000715256,855716.6000000238,8032,WL,B,9.0
7,21.276000022888184,immed,38723.99997711182,Wed May 21 2025 14:34:30 GMT-0500 (Central Daylight Time),856665.9000000954,A,star,I,r,187,1,949.3000000715256,855716.6000000238,8032,WL,B,9.0
7,21.658999919891357,immed,38341.00008010864,Wed May 21 2025 14:34:30 GMT-0500 (Central Daylight Time),857049.2000000477,A,starenter,I,enter,371,1,1332.6000000238419,855716.6000000238,8032,WL,B,9.0
7,21.925999879837036,immed,38074.000120162964,Wed May 21 2025 14:34:30 GMT-0500 (Central Daylight Time),857315.8000000715,A,c,I,c,260,1,266.2000000476837,857049.6000000238,8032,WL,B,10.0
7,22.05900001525879,immed,37940.99998474121,Wed May 21 2025 14:34:30 GMT-0500 (Central Daylight Time),857449.2000000477,A,ci,I,i,122,1,399.60000002384186,857049.6000000238,8032,WL,B,10.0
7,22.241999864578247,immed,37758.00013542175,Wed May 21 2025 14:34:30 GMT-0500 (Central Daylight Time),857632.2000000477,A,cit,I,t,164,1,582.6000000238419,857049.6000000238,8032,WL,B,10.0
7,22.4760000705719,immed,37523.9999294281,Wed May 21 2025 14:34:30 GMT-0500 (Central Daylight Time),857865.8000000715,A,city,I,y,213,1,816.2000000476837,857049.6000000238,8032,WL,B,10.0
7,23.191999912261963,immed,36808.00008773804,Wed May 21 2025 14:34:30 GMT-0500 (Central Daylight Time),858582.1000000238,A,cityenter,I,enter,708,1,1532.5,857049.6000000238,8032,WL,B,10.0
7,25.007999897003174,immed,34992.000102996826,Wed May 21 2025 14:34:30 GMT-0500 (Central Daylight Time),860398.4000000954,A,c,I,c,1799,1,1815.9000000953674,858582.5,8032,WL,B,11.0
7,25.108999967575073,immed,34891.00003242493,Wed May 21 2025 14:34:30 GMT-0500 (Central Daylight Time),860498.5,A,ca,I,a,95,1,1916.0,858582.5,8032,WL,B,11.0
7,25.341000080108643,immed,34658.99991989136,Wed May 21 2025 14:34:30 GMT-0500 (Central Daylight Time),860731.2000000477,A,cab,I,b,219,1,2148.7000000476837,858582.5,8032,WL,B,11.0
7,25.47499990463257,immed,34525.00009536743,Wed May 21 2025 14:34:30 GMT-0500 (Central Daylight Time),860864.7000000477,A,cabi,I,i,114,1,2282.2000000476837,858582.5,8032,WL,B,11.0
7,25.674999952316284,immed,34325.000047683716,Wed May 21 2025 14:34:30 GMT-0500 (Central Daylight Time),861064.8000000715,A,cabin,I,n,181,1,2482.3000000715256,858582.5,8032,WL,B,11.0
7,26.04099988937378,immed,33959.00011062622,Wed May 21 2025 14:34:30 GMT-0500 (Central Daylight Time),861431.3000000715,A,cabinenter,I,enter,349,1,2848.8000000715256,858582.5,8032,WL,B,11.0
7,28.707000017166138,immed,31292.999982833862,Wed May 21 2025 14:34:30 GMT-0500 (Central Daylight Time),864096.8000000715,A,c,I,c,2654,1,2665.100000023842,861431.7000000477,8032,WL,B,12.0
7,28.756999969482422,immed,31243.000030517578,Wed May 21 2025 14:34:30 GMT-0500 (Central Daylight Time),864146.8000000715,A,cl,I,l,36,1,2715.100000023842,861431.7000000477,8032,WL,B,12.0
7,28.973000049591064,immed,31026.999950408936,Wed May 21 2025 14:34:30 GMT-0500 (Central Daylight Time),864363.4000000954,A,clo,I,o,210,1,2931.7000000476837,861431.7000000477,8032,WL,B,12.0
7,29.457000017166138,immed,30542.999982833862,Wed May 21 2025 14:34:30 GMT-0500 (Central Daylight Time),864846.5,A,cloc,I,c,474,1,3414.7999999523163,861431.7000000477,8032,WL,B,12.0
7,29.60699987411499,immed,30393.00012588501,Wed May 21 2025 14:34:30 GMT-0500 (Central Daylight Time),864996.8000000715,A,clock,I,k,142,1,3565.100000023842,861431.7000000477,8032,WL,B,12.0
7,29.957000017166138,immed,30042.999982833862,Wed May 21 2025 14:34:30 GMT-0500 (Central Daylight Time),865346.7000000477,A,clockenter,I,enter,336,1,3915.0,861431.7000000477,8032,WL,B,12.0
7,32.389999866485596,immed,27610.000133514404,Wed May 21 2025 14:34:30 GMT-0500 (Central Daylight Time),867780.3000000715,A,p,I,p,2427,1,2433.2000000476837,865347.1000000238,8032,WL,B,13.0
7,32.60599994659424,immed,27394.00005340576,Wed May 21 2025 14:34:30 GMT-0500 (Central Daylight Time),867995.9000000954,A,pi,I,i,201,1,2648.8000000715256,865347.1000000238,8032,WL,B,13.0
7,32.83899998664856,immed,27161.00001335144,Wed May 21 2025 14:34:30 GMT-0500 (Central Daylight Time),868229.1000000238,A,pip,I,p,217,1,2882.0,865347.1000000238,8032,WL,B,13.0
7,33.305999994277954,immed,26694.000005722046,Wed May 21 2025 14:34:30 GMT-0500 (Central Daylight Time),868695.6000000238,A,pipe,I,e,456,1,3348.5,865347.1000000238,8032,WL,B,13.0
7,33.67199993133545,immed,26328.00006866455,Wed May 21 2025 14:34:30 GMT-0500 (Central Daylight Time),869062.3000000715,A,pipeenter,I,enter,358,1,3715.2000000476837,865347.1000000238,8032,WL,B,13.0
7,35.121999979019165,immed,24878.000020980835,Wed May 21 2025 14:34:30 GMT-0500 (Central Daylight Time),870511.6000000238,A,f,I,f,1431,1,1448.8999999761581,869062.7000000477,8032,WL,B,14.0
7,35.437999963760376,immed,24562.000036239624,Wed May 21 2025 14:34:30 GMT-0500 (Central Daylight Time),870828.2000000477,A,fi,I,i,302,1,1765.5,869062.7000000477,8032,WL,B,14.0
7,35.7720000743866,immed,24227.999925613403,Wed May 21 2025 14:34:30 GMT-0500 (Central Daylight Time),871161.5,A,fir,I,r,313,1,2098.7999999523163,869062.7000000477,8032,WL,B,14.0
7,36.12100005149841,immed,23878.999948501587,Wed May 21 2025 14:34:30 GMT-0500 (Central Daylight Time),871511.3000000715,A,fire,I,e,332,1,2448.600000023842,869062.7000000477,8032,WL,B,14.0
7,36.537999868392944,immed,23462.000131607056,Wed May 21 2025 14:34:30 GMT-0500 (Central Daylight Time),871928.1000000238,A,fireenter,I,enter,398,1,2865.399999976158,869062.7000000477,8032,WL,B,14.0
7,45.96799993515015,immed,14032.000064849854,Wed May 21 2025 14:34:30 GMT-0500 (Central Daylight Time),881358.3000000715,A,s,I,s,9413,1,9429.899999976158,871928.4000000954,8032,WL,B,15.0
7,46.10199999809265,immed,13898.000001907349,Wed May 21 2025 14:34:30 GMT-0500 (Central Daylight Time),881491.5,A,sk,I,k,127,1,9563.099999904633,871928.4000000954,8032,WL,B,15.0
7,46.30200004577637,immed,13697.999954223633,Wed May 21 2025 14:34:30 GMT-0500 (Central Daylight Time),881691.8000000715,A,ski,I,i,186,1,9763.399999976158,871928.4000000954,8032,WL,B,15.0
7,46.46799993515015,immed,13532.000064849854,Wed May 21 2025 14:34:30 GMT-0500 (Central Daylight Time),881858.3000000715,A,skin,I,n,154,1,9929.899999976158,871928.4000000954,8032,WL,B,15.0
7,46.734999895095825,immed,13265.000104904175,Wed May 21 2025 14:34:30 GMT-0500 (Central Daylight Time),882124.7000000477,A,skinenter,I,enter,259,1,10196.299999952316,871928.4000000954,8032,WL,B,15.0
