block_c,block_dur,condition,countdown,datetime,endtime,list,multichar_response,project,response,response_time,session_number,start_end,starttime,subject_id,task,task_vers,trial
,,,,Wed Aug 20 2025 13:30:42 GMT-0500 (Central Daylight Time),,,,I,space,434,2,,,8032,WL,C,
prac,,0,,Wed Aug 20 2025 13:30:42 GMT-0500 (Central Daylight Time),,NA,b,I,b,8972,2,,,8032,WL,C,1.0
prac,,0,,Wed Aug 20 2025 13:30:42 GMT-0500 (Central Daylight Time),,NA,bo,I,o,170,2,,,8032,WL,C,1.0
prac,,0,,Wed Aug 20 2025 13:30:42 GMT-0500 (Central Daylight Time),,NA,boo,I,o,184,2,,,8032,WL,C,1.0
prac,,0,,Wed Aug 20 2025 13:30:42 GMT-0500 (Central Daylight Time),,NA,boos,I,s,601,2,,,8032,WL,C,1.0
prac,,0,,Wed Aug 20 2025 13:30:42 GMT-0500 (Central Daylight Time),,NA,boost,I,t,203,2,,,8032,WL,C,1.0
prac,,0,,Wed Aug 20 2025 13:30:42 GMT-0500 (Central Daylight Time),,NA,boostenter,I,enter,1526,2,,,8032,WL,C,1.0
1,1.0490000247955322,learn,58950.99997520447,Wed Aug 20 2025 13:30:42 GMT-0500 (Central Daylight Time),118604.5,A,t,I,t,1030,2,1049.1000000238419,117555.39999997616,8032,WL,C,1.0
1,1.2990000247955322,learn,58700.99997520447,Wed Aug 20 2025 13:30:42 GMT-0500 (Central Daylight Time),118854.79999995232,A,to,I,o,228,2,1299.3999999761581,117555.39999997616,8032,WL,C,1.0
1,1.499000072479248,learn,58500.99992752075,Wed Aug 20 2025 13:30:42 GMT-0500 (Central Daylight Time),119054.89999997616,A,tow,I,w,173,2,1499.5,117555.39999997616,8032,WL,C,1.0
1,1.6490001678466797,learn,58350.99983215332,Wed Aug 20 2025 13:30:42 GMT-0500 (Central Daylight Time),119204.5,A,towe,I,e,120,2,1649.1000000238419,117555.39999997616,8032,WL,C,1.0
1,1.7660000324249268,learn,58233.99996757507,Wed Aug 20 2025 13:30:42 GMT-0500 (Central Daylight Time),119321.29999995232,A,tower,I,r,100,2,1765.8999999761581,117555.39999997616,8032,WL,C,1.0
1,2.949000120162964,learn,57050.999879837036,Wed Aug 20 2025 13:30:42 GMT-0500 (Central Daylight Time),120504.5,A,towerenter,I,enter,1170,2,2949.100000023842,117555.39999997616,8032,WL,C,1.0
1,3.765000104904175,learn,56234.999895095825,Wed Aug 20 2025 13:30:42 GMT-0500 (Central Daylight Time),121320.70000004768,A,w,I,w,783,2,815.2000000476837,120505.5,8032,WL,C,2.0
1,4.082000017166138,learn,55917.99998283386,Wed Aug 20 2025 13:30:42 GMT-0500 (Central Daylight Time),121637.60000002384,A,we,I,e,298,2,1132.1000000238419,120505.5,8032,WL,C,2.0
1,6.448000192642212,learn,53551.99980735779,Wed Aug 20 2025 13:30:42 GMT-0500 (Central Daylight Time),124003.20000004768,A,w,I,backspace,2348,2,3497.7000000476837,120505.5,8032,WL,C,2.0
1,7.264000177383423,learn,52735.99982261658,Wed Aug 20 2025 13:30:42 GMT-0500 (Central Daylight Time),124819.5,A,wh,I,h,800,2,4314.0,120505.5,8032,WL,C,2.0
1,7.38100004196167,learn,52618.99995803833,Wed Aug 20 2025 13:30:42 GMT-0500 (Central Daylight Time),124936.70000004768,A,whe,I,e,103,2,4431.200000047684,120505.5,8032,WL,C,2.0
1,7.514000177383423,learn,52485.99982261658,Wed Aug 20 2025 13:30:42 GMT-0500 (Central Daylight Time),125069.5,A,whea,I,a,113,2,4564.0,120505.5,8032,WL,C,2.0
1,7.680000066757202,learn,52319.9999332428,Wed Aug 20 2025 13:30:42 GMT-0500 (Central Daylight Time),125235.89999997616,A,wheat,I,t,139,2,4730.399999976158,120505.5,8032,WL,C,2.0
1,9.11300015449524,learn,50886.99984550476,Wed Aug 20 2025 13:30:42 GMT-0500 (Central Daylight Time),126668.89999997616,A,wheatenter,I,enter,1423,2,6163.399999976158,120505.5,8032,WL,C,2.0
1,11.11300015449524,learn,48886.99984550476,Wed Aug 20 2025 13:30:42 GMT-0500 (Central Daylight Time),128668.5,A,q,I,q,1985,2,1999.2999999523163,126669.20000004768,8032,WL,C,3.0
1,11.330000162124634,learn,48669.999837875366,Wed Aug 20 2025 13:30:42 GMT-0500 (Central Daylight Time),128885.5,A,qu,I,u,194,2,2216.2999999523163,126669.20000004768,8032,WL,C,3.0
1,11.913000106811523,learn,48086.99989318848,Wed Aug 20 2025 13:30:42 GMT-0500 (Central Daylight Time),129468.29999995232,A,que,I,e,559,2,2799.0999999046326,126669.20000004768,8032,WL,C,3.0
1,12.129000186920166,learn,47870.999813079834,Wed Aug 20 2025 13:30:42 GMT-0500 (Central Daylight Time),129684.79999995232,A,quee,I,e,190,2,3015.5999999046326,126669.20000004768,8032,WL,C,3.0
1,12.361999988555908,learn,47638.00001144409,Wed Aug 20 2025 13:30:42 GMT-0500 (Central Daylight Time),129918.0,A,queen,I,n,212,2,3248.7999999523163,126669.20000004768,8032,WL,C,3.0
1,12.828999996185303,learn,47171.0000038147,Wed Aug 20 2025 13:30:42 GMT-0500 (Central Daylight Time),130384.60000002384,A,queenenter,I,enter,445,2,3715.399999976158,126669.20000004768,8032,WL,C,3.0
1,13.129000186920166,learn,46870.999813079834,Wed Aug 20 2025 13:30:42 GMT-0500 (Central Daylight Time),130684.70000004768,A,s,I,s,291,2,299.8000000715256,130384.89999997616,8032,WL,C,4.0
1,13.26200008392334,learn,46737.99991607666,Wed Aug 20 2025 13:30:42 GMT-0500 (Central Daylight Time),130817.29999995232,A,su,I,u,123,2,432.39999997615814,130384.89999997616,8032,WL,C,4.0
1,13.546000003814697,learn,46453.9999961853,Wed Aug 20 2025 13:30:42 GMT-0500 (Central Daylight Time),131101.0,A,sug,I,g,266,2,716.1000000238419,130384.89999997616,8032,WL,C,4.0
1,13.812000036239624,learn,46187.999963760376,Wed Aug 20 2025 13:30:42 GMT-0500 (Central Daylight Time),131368.0,A,suga,I,a,245,2,983.1000000238419,130384.89999997616,8032,WL,C,4.0
1,14.028000116348267,learn,45971.99988365173,Wed Aug 20 2025 13:30:42 GMT-0500 (Central Daylight Time),131583.89999997616,A,sugar,I,r,210,2,1199.0,130384.89999997616,8032,WL,C,4.0
1,16.461000204086304,learn,43538.999795913696,Wed Aug 20 2025 13:30:42 GMT-0500 (Central Daylight Time),134016.29999995232,A,sugarb,I,b,2417,2,3631.399999976158,130384.89999997616,8032,WL,C,4.0
1,16.561000108718872,learn,43438.99989128113,Wed Aug 20 2025 13:30:42 GMT-0500 (Central Daylight Time),134116.60000002384,A,sugarbo,I,o,72,2,3731.7000000476837,130384.89999997616,8032,WL,C,4.0
1,16.811000108718872,learn,43188.99989128113,Wed Aug 20 2025 13:30:42 GMT-0500 (Central Daylight Time),134366.60000002384,A,sugarboy,I,y,229,2,3981.7000000476837,130384.89999997616,8032,WL,C,4.0
1,17.89400005340576,learn,42105.99994659424,Wed Aug 20 2025 13:30:42 GMT-0500 (Central Daylight Time),135449.5,A,sugarbo,I,backspace,1068,2,5064.600000023842,130384.89999997616,8032,WL,C,4.0
1,18.127000093460083,learn,41872.99990653992,Wed Aug 20 2025 13:30:42 GMT-0500 (Central Daylight Time),135682.70000004768,A,sugarb,I,backspace,217,2,5297.800000071526,130384.89999997616,8032,WL,C,4.0
1,18.461000204086304,learn,41538.999795913696,Wed Aug 20 2025 13:30:42 GMT-0500 (Central Daylight Time),136016.39999997616,A,sugar,I,backspace,321,2,5631.5,130384.89999997616,8032,WL,C,4.0
1,18.844000101089478,learn,41155.99989891052,Wed Aug 20 2025 13:30:42 GMT-0500 (Central Daylight Time),136399.29999995232,A,sugarenter,I,enter,371,2,6014.399999976158,130384.89999997616,8032,WL,C,4.0
1,19.343000173568726,learn,40656.999826431274,Wed Aug 20 2025 13:30:42 GMT-0500 (Central Daylight Time),136898.70000004768,A,b,I,b,489,2,498.40000009536743,136400.29999995232,8032,WL,C,5.0
1,20.193000078201294,learn,39806.999921798706,Wed Aug 20 2025 13:30:42 GMT-0500 (Central Daylight Time),137748.79999995232,A,bo,I,o,831,2,1348.5,136400.29999995232,8032,WL,C,5.0
1,20.39300012588501,learn,39606.99987411499,Wed Aug 20 2025 13:30:42 GMT-0500 (Central Daylight Time),137948.79999995232,A,boy,I,y,189,2,1548.5,136400.29999995232,8032,WL,C,5.0
1,21.20900011062622,learn,38790.99988937378,Wed Aug 20 2025 13:30:42 GMT-0500 (Central Daylight Time),138764.70000004768,A,boyenter,I,enter,800,2,2364.4000000953674,136400.29999995232,8032,WL,C,5.0
1,21.89300012588501,learn,38106.99987411499,Wed Aug 20 2025 13:30:42 GMT-0500 (Central Daylight Time),139448.20000004768,A,d,I,d,671,2,683.2000000476837,138765.0,8032,WL,C,6.0
1,21.993000030517578,learn,38006.99996948242,Wed Aug 20 2025 13:30:42 GMT-0500 (Central Daylight Time),139548.39999997616,A,do,I,o,92,2,783.3999999761581,138765.0,8032,WL,C,6.0
1,22.193000078201294,learn,37806.999921798706,Wed Aug 20 2025 13:30:42 GMT-0500 (Central Daylight Time),139748.10000002384,A,doc,I,c,183,2,983.1000000238419,138765.0,8032,WL,C,6.0
1,22.493000030517578,learn,37506.99996948242,Wed Aug 20 2025 13:30:42 GMT-0500 (Central Daylight Time),140048.20000004768,A,doct,I,t,286,2,1283.2000000476837,138765.0,8032,WL,C,6.0
1,22.742000102996826,learn,37257.999897003174,Wed Aug 20 2025 13:30:42 GMT-0500 (Central Daylight Time),140298.0,A,docto,I,o,224,2,1533.0,138765.0,8032,WL,C,6.0
1,23.04200005531311,learn,36957.99994468689,Wed Aug 20 2025 13:30:42 GMT-0500 (Central Daylight Time),140598.0,A,doctor,I,r,289,2,1833.0,138765.0,8032,WL,C,6.0
1,23.30900001525879,learn,36690.99998474121,Wed Aug 20 2025 13:30:42 GMT-0500 (Central Daylight Time),140864.29999995232,A,doctorenter,I,enter,252,2,2099.2999999523163,138765.0,8032,WL,C,6.0
1,23.575000047683716,learn,36424.999952316284,Wed Aug 20 2025 13:30:42 GMT-0500 (Central Daylight Time),141130.79999995232,A,c,I,c,258,2,266.0,140864.79999995232,8032,WL,C,7.0
1,23.742000102996826,learn,36257.999897003174,Wed Aug 20 2025 13:30:42 GMT-0500 (Central Daylight Time),141297.39999997616,A,ca,I,a,161,2,432.60000002384186,140864.79999995232,8032,WL,C,7.0
1,23.925000190734863,learn,36074.99980926514,Wed Aug 20 2025 13:30:42 GMT-0500 (Central Daylight Time),141481.0,A,cam,I,m,169,2,616.2000000476837,140864.79999995232,8032,WL,C,7.0
1,24.259000062942505,learn,35740.999937057495,Wed Aug 20 2025 13:30:42 GMT-0500 (Central Daylight Time),141814.60000002384,A,camp,I,p,304,2,949.8000000715256,140864.79999995232,8032,WL,C,7.0
1,25.242000102996826,learn,34757.999897003174,Wed Aug 20 2025 13:30:42 GMT-0500 (Central Daylight Time),142797.29999995232,A,campenter,I,enter,962,2,1932.5,140864.79999995232,8032,WL,C,7.0
1,25.808000087738037,learn,34191.99991226196,Wed Aug 20 2025 13:30:42 GMT-0500 (Central Daylight Time),143363.79999995232,A,f,I,f,548,2,565.7999999523163,142798.0,8032,WL,C,8.0
1,25.95800018310547,learn,34041.99981689453,Wed Aug 20 2025 13:30:42 GMT-0500 (Central Daylight Time),143513.5,A,fl,I,l,135,2,715.5,142798.0,8032,WL,C,8.0
1,26.058000087738037,learn,33941.99991226196,Wed Aug 20 2025 13:30:42 GMT-0500 (Central Daylight Time),143613.70000004768,A,fla,I,a,87,2,815.7000000476837,142798.0,8032,WL,C,8.0
1,26.258000135421753,learn,33741.99986457825,Wed Aug 20 2025 13:30:42 GMT-0500 (Central Daylight Time),143813.39999997616,A,flag,I,g,189,2,1015.3999999761581,142798.0,8032,WL,C,8.0
1,26.825000047683716,learn,33174.999952316284,Wed Aug 20 2025 13:30:42 GMT-0500 (Central Daylight Time),144380.10000002384,A,flagenter,I,enter,549,2,1582.1000000238419,142798.0,8032,WL,C,8.0
1,27.95800018310547,learn,32041.99981689453,Wed Aug 20 2025 13:30:42 GMT-0500 (Central Daylight Time),145513.10000002384,A,s,I,s,1117,2,1132.3000000715256,144380.79999995232,8032,WL,C,9.0
1,28.058000087738037,learn,31941.999912261963,Wed Aug 20 2025 13:30:42 GMT-0500 (Central Daylight Time),145613.20000004768,A,sh,I,h,81,2,1232.4000000953674,144380.79999995232,8032,WL,C,9.0
1,28.174000024795532,learn,31825.999975204468,Wed Aug 20 2025 13:30:42 GMT-0500 (Central Daylight Time),145729.5,A,sho,I,o,102,2,1348.7000000476837,144380.79999995232,8032,WL,C,9.0
1,28.290000200271606,learn,31709.999799728394,Wed Aug 20 2025 13:30:42 GMT-0500 (Central Daylight Time),145846.10000002384,A,shor,I,r,103,2,1465.3000000715256,144380.79999995232,8032,WL,C,9.0
1,28.407000064849854,learn,31592.999935150146,Wed Aug 20 2025 13:30:42 GMT-0500 (Central Daylight Time),145962.79999995232,A,shore,I,e,102,2,1582.0,144380.79999995232,8032,WL,C,9.0
1,28.85700011253357,learn,31142.99988746643,Wed Aug 20 2025 13:30:42 GMT-0500 (Central Daylight Time),146412.29999995232,A,shoreenter,I,enter,429,2,2031.5,144380.79999995232,8032,WL,C,9.0
1,43.55299997329712,learn,16447.00002670288,Wed Aug 20 2025 13:30:42 GMT-0500 (Central Daylight Time),161108.20000004768,A,d,I,d,14677,2,14695.700000047684,146412.5,8032,WL,C,10.0
1,43.836000204086304,learn,16163.999795913696,Wed Aug 20 2025 13:30:42 GMT-0500 (Central Daylight Time),161391.5,A,do,I,o,262,2,14979.0,146412.5,8032,WL,C,10.0
1,44.66900014877319,learn,15330.999851226807,Wed Aug 20 2025 13:30:42 GMT-0500 (Central Daylight Time),162224.5,A,doc,I,c,810,2,15812.0,146412.5,8032,WL,C,10.0
1,44.902000188827515,learn,15097.999811172485,Wed Aug 20 2025 13:30:42 GMT-0500 (Central Daylight Time),162457.89999997616,A,doct,I,t,218,2,16045.399999976158,146412.5,8032,WL,C,10.0
1,45.26800012588501,learn,14731.99987411499,Wed Aug 20 2025 13:30:42 GMT-0500 (Central Daylight Time),162823.89999997616,A,docto,I,o,351,2,16411.399999976158,146412.5,8032,WL,C,10.0
1,45.55200004577637,learn,14447.999954223633,Wed Aug 20 2025 13:30:42 GMT-0500 (Central Daylight Time),163107.39999997616,A,doctor,I,r,267,2,16694.899999976158,146412.5,8032,WL,C,10.0
1,46.03500008583069,learn,13964.999914169312,Wed Aug 20 2025 13:30:42 GMT-0500 (Central Daylight Time),163590.39999997616,A,doctorenter,I,enter,472,2,17177.899999976158,146412.5,8032,WL,C,10.0
1,50.81700015068054,learn,9182.999849319458,Wed Aug 20 2025 13:30:42 GMT-0500 (Central Daylight Time),168372.5,A,b,I,b,4773,2,4781.799999952316,163590.70000004768,8032,WL,C,11.0
1,50.90000009536743,learn,9099.999904632568,Wed Aug 20 2025 13:30:42 GMT-0500 (Central Daylight Time),168455.79999995232,A,bo,I,o,62,2,4865.099999904633,163590.70000004768,8032,WL,C,11.0
1,51.10000014305115,learn,8899.999856948853,Wed Aug 20 2025 13:30:42 GMT-0500 (Central Daylight Time),168655.29999995232,A,boy,I,y,195,2,5064.599999904633,163590.70000004768,8032,WL,C,11.0
1,51.367000102996826,learn,8632.999897003174,Wed Aug 20 2025 13:30:42 GMT-0500 (Central Daylight Time),168922.60000002384,A,boyenter,I,enter,251,2,5331.899999976158,163590.70000004768,8032,WL,C,11.0
1,52.0,learn,8000.0,Wed Aug 20 2025 13:30:42 GMT-0500 (Central Daylight Time),169555.70000004768,A,d,I,d,625,2,632.9000000953674,168922.79999995232,8032,WL,C,12.0
1,52.116000175476074,learn,7883.999824523926,Wed Aug 20 2025 13:30:42 GMT-0500 (Central Daylight Time),169671.89999997616,A,do,I,o,103,2,749.1000000238419,168922.79999995232,8032,WL,C,12.0
1,52.25,learn,7750.0,Wed Aug 20 2025 13:30:42 GMT-0500 (Central Daylight Time),169805.29999995232,A,doc,I,c,105,2,882.5,168922.79999995232,8032,WL,C,12.0
1,52.61900019645691,learn,7380.999803543091,Wed Aug 20 2025 13:30:42 GMT-0500 (Central Daylight Time),170174.20000004768,A,doct,I,t,363,2,1251.4000000953674,168922.79999995232,8032,WL,C,12.0
1,52.76600003242493,learn,7233.999967575073,Wed Aug 20 2025 13:30:42 GMT-0500 (Central Daylight Time),170321.5,A,docto,I,o,142,2,1398.7000000476837,168922.79999995232,8032,WL,C,12.0
1,52.93300008773804,learn,7066.999912261963,Wed Aug 20 2025 13:30:42 GMT-0500 (Central Daylight Time),170489.10000002384,A,doctor,I,r,154,2,1566.3000000715256,168922.79999995232,8032,WL,C,12.0
1,53.39900016784668,learn,6600.99983215332,Wed Aug 20 2025 13:30:42 GMT-0500 (Central Daylight Time),170954.70000004768,A,doctorenter,I,enter,442,2,2031.9000000953674,168922.79999995232,8032,WL,C,12.0
1,56.78200006484985,learn,3217.9999351501465,Wed Aug 20 2025 13:30:42 GMT-0500 (Central Daylight Time),174337.29999995232,A,f,I,f,3369,2,3382.2999999523163,170955.0,8032,WL,C,13.0
1,56.89800000190735,learn,3101.9999980926514,Wed Aug 20 2025 13:30:42 GMT-0500 (Central Daylight Time),174453.89999997616,A,fl,I,l,97,2,3498.899999976158,170955.0,8032,WL,C,13.0
1,56.98200011253357,learn,3017.9998874664307,Wed Aug 20 2025 13:30:42 GMT-0500 (Central Daylight Time),174537.5,A,fla,I,a,60,2,3582.5,170955.0,8032,WL,C,13.0
1,57.14800000190735,learn,2851.9999980926514,Wed Aug 20 2025 13:30:42 GMT-0500 (Central Daylight Time),174703.5,A,flag,I,g,153,2,3748.5,170955.0,8032,WL,C,13.0
1,57.46500015258789,learn,2534.9998474121094,Wed Aug 20 2025 13:30:42 GMT-0500 (Central Daylight Time),175020.79999995232,A,flagenter,I,enter,300,2,4065.7999999523163,170955.0,8032,WL,C,13.0
1,60.01300001144409,learn,-13.000011444091797,Wed Aug 20 2025 13:30:42 GMT-0500 (Central Daylight Time),177569.20000004768,A,None,I,None,2537,2,2547.9000000953674,175021.29999995232,8032,WL,C,14.0
2,0.9670000076293945,learn,59032.999992370605,Wed Aug 20 2025 13:30:42 GMT-0500 (Central Daylight Time),251646.79999995232,A,h,I,h,955,2,966.6999999284744,250680.10000002384,8032,WL,C,1.0
2,1.116999864578247,learn,58883.00013542175,Wed Aug 20 2025 13:30:42 GMT-0500 (Central Daylight Time),251796.20000004768,A,ho,I,o,139,2,1116.1000000238419,250680.10000002384,8032,WL,C,1.0
2,1.2829999923706055,learn,58717.000007629395,Wed Aug 20 2025 13:30:42 GMT-0500 (Central Daylight Time),251962.70000004768,A,hom,I,m,151,2,1282.6000000238419,250680.10000002384,8032,WL,C,1.0
2,1.4489998817443848,learn,58551.000118255615,Wed Aug 20 2025 13:30:42 GMT-0500 (Central Daylight Time),252128.89999997616,A,home,I,e,152,2,1448.7999999523163,250680.10000002384,8032,WL,C,1.0
2,1.7330000400543213,learn,58266.99995994568,Wed Aug 20 2025 13:30:42 GMT-0500 (Central Daylight Time),252412.5,A,homeenter,I,enter,273,2,1732.3999999761581,250680.10000002384,8032,WL,C,1.0
2,2.200000047683716,learn,57799.999952316284,Wed Aug 20 2025 13:30:42 GMT-0500 (Central Daylight Time),252879.5,A,c,I,c,446,2,466.7000000476837,252412.79999995232,8032,WL,C,2.0
2,2.3499999046325684,learn,57650.00009536743,Wed Aug 20 2025 13:30:42 GMT-0500 (Central Daylight Time),253029.29999995232,A,ca,I,a,127,2,616.5,252412.79999995232,8032,WL,C,2.0
2,2.5160000324249268,learn,57483.99996757507,Wed Aug 20 2025 13:30:42 GMT-0500 (Central Daylight Time),253195.60000002384,A,cam,I,m,150,2,782.8000000715256,252412.79999995232,8032,WL,C,2.0
2,3.1659998893737793,learn,56834.00011062622,Wed Aug 20 2025 13:30:42 GMT-0500 (Central Daylight Time),253845.70000004768,A,camp,I,p,639,2,1432.9000000953674,252412.79999995232,8032,WL,C,2.0
2,3.498999834060669,learn,56501.00016593933,Wed Aug 20 2025 13:30:42 GMT-0500 (Central Daylight Time),254178.79999995232,A,campenter,I,enter,315,2,1766.0,252412.79999995232,8032,WL,C,2.0
2,3.8320000171661377,learn,56167.99998283386,Wed Aug 20 2025 13:30:42 GMT-0500 (Central Daylight Time),254511.70000004768,A,l,I,l,328,2,332.7000000476837,254179.0,8032,WL,C,3.0
2,3.931999921798706,learn,56068.000078201294,Wed Aug 20 2025 13:30:42 GMT-0500 (Central Daylight Time),254611.89999997616,A,le,I,e,92,2,432.89999997615814,254179.0,8032,WL,C,3.0
2,4.198999881744385,learn,55801.000118255615,Wed Aug 20 2025 13:30:42 GMT-0500 (Central Daylight Time),254878.39999997616,A,let,I,t,256,2,699.3999999761581,254179.0,8032,WL,C,3.0
2,4.483000040054321,learn,55516.99995994568,Wed Aug 20 2025 13:30:42 GMT-0500 (Central Daylight Time),255162.29999995232,A,lett,I,t,276,2,983.2999999523163,254179.0,8032,WL,C,3.0
2,4.7159998416900635,learn,55284.00015830994,Wed Aug 20 2025 13:30:42 GMT-0500 (Central Daylight Time),255395.29999995232,A,lette,I,e,219,2,1216.2999999523163,254179.0,8032,WL,C,3.0
2,4.815999984741211,learn,55184.00001525879,Wed Aug 20 2025 13:30:42 GMT-0500 (Central Daylight Time),255495.60000002384,A,letter,I,r,89,2,1316.6000000238419,254179.0,8032,WL,C,3.0
2,5.098999977111816,learn,54901.00002288818,Wed Aug 20 2025 13:30:42 GMT-0500 (Central Daylight Time),255778.20000004768,A,letterenter,I,enter,259,2,1599.2000000476837,254179.0,8032,WL,C,3.0
2,5.565000057220459,learn,54434.99994277954,Wed Aug 20 2025 13:30:42 GMT-0500 (Central Daylight Time),256245.0,A,b,I,b,456,2,466.5,255778.5,8032,WL,C,4.0
2,5.648999929428101,learn,54351.0000705719,Wed Aug 20 2025 13:30:42 GMT-0500 (Central Daylight Time),256328.20000004768,A,bo,I,o,61,2,549.7000000476837,255778.5,8032,WL,C,4.0
2,5.881999969482422,learn,54118.00003051758,Wed Aug 20 2025 13:30:42 GMT-0500 (Central Daylight Time),256561.5,A,bod,I,d,228,2,783.0,255778.5,8032,WL,C,4.0
2,6.082000017166138,learn,53917.99998283386,Wed Aug 20 2025 13:30:42 GMT-0500 (Central Daylight Time),256761.39999997616,A,body,I,y,176,2,982.8999999761581,255778.5,8032,WL,C,4.0
2,6.531999826431274,learn,53468.000173568726,Wed Aug 20 2025 13:30:42 GMT-0500 (Central Daylight Time),257211.20000004768,A,bodyenter,I,enter,441,2,1432.7000000476837,255778.5,8032,WL,C,4.0
2,7.115000009536743,learn,52884.99999046326,Wed Aug 20 2025 13:30:42 GMT-0500 (Central Daylight Time),257794.39999997616,A,c,I,c,567,2,582.5,257211.89999997616,8032,WL,C,5.0
2,7.230999946594238,learn,52769.00005340576,Wed Aug 20 2025 13:30:42 GMT-0500 (Central Daylight Time),257911.10000002384,A,ca,I,a,96,2,699.2000000476837,257211.89999997616,8032,WL,C,5.0
2,7.480999946594238,learn,52519.00005340576,Wed Aug 20 2025 13:30:42 GMT-0500 (Central Daylight Time),258160.70000004768,A,cat,I,t,234,2,948.8000000715256,257211.89999997616,8032,WL,C,5.0
2,7.63100004196167,learn,52368.99995803833,Wed Aug 20 2025 13:30:42 GMT-0500 (Central Daylight Time),258310.89999997616,A,catt,I,t,130,2,1099.0,257211.89999997616,8032,WL,C,5.0
2,7.797999858856201,learn,52202.0001411438,Wed Aug 20 2025 13:30:42 GMT-0500 (Central Daylight Time),258477.5,A,cattl,I,l,157,2,1265.6000000238419,257211.89999997616,8032,WL,C,5.0
2,7.914000034332275,learn,52085.999965667725,Wed Aug 20 2025 13:30:42 GMT-0500 (Central Daylight Time),258594.20000004768,A,cattle,I,e,109,2,1382.3000000715256,257211.89999997616,8032,WL,C,5.0
2,8.197999954223633,learn,51802.00004577637,Wed Aug 20 2025 13:30:42 GMT-0500 (Central Daylight Time),258877.10000002384,A,cattleenter,I,enter,254,2,1665.2000000476837,257211.89999997616,8032,WL,C,5.0
2,9.513999938964844,learn,50486.000061035156,Wed Aug 20 2025 13:30:42 GMT-0500 (Central Daylight Time),260193.5,A,s,I,s,1302,2,1316.0,258877.5,8032,WL,C,6.0
2,9.613999843597412,learn,50386.00015640259,Wed Aug 20 2025 13:30:42 GMT-0500 (Central Daylight Time),260293.60000002384,A,sh,I,h,89,2,1416.1000000238419,258877.5,8032,WL,C,6.0
2,9.746999979019165,learn,50253.000020980835,Wed Aug 20 2025 13:30:42 GMT-0500 (Central Daylight Time),260426.89999997616,A,sho,I,o,121,2,1549.3999999761581,258877.5,8032,WL,C,6.0
2,9.896999835968018,learn,50103.00016403198,Wed Aug 20 2025 13:30:42 GMT-0500 (Central Daylight Time),260576.89999997616,A,shor,I,r,135,2,1699.3999999761581,258877.5,8032,WL,C,6.0
2,10.030999898910522,learn,49969.00010108948,Wed Aug 20 2025 13:30:42 GMT-0500 (Central Daylight Time),260710.29999995232,A,shore,I,e,107,2,1832.7999999523163,258877.5,8032,WL,C,6.0
2,10.396999835968018,learn,49603.00016403198,Wed Aug 20 2025 13:30:42 GMT-0500 (Central Daylight Time),261076.79999995232,A,shoreenter,I,enter,349,2,2199.2999999523163,258877.5,8032,WL,C,6.0
2,10.963000059127808,learn,49036.99994087219,Wed Aug 20 2025 13:30:42 GMT-0500 (Central Daylight Time),261643.20000004768,A,t,I,t,557,2,566.1000000238419,261077.10000002384,8032,WL,C,7.0
2,11.079999923706055,learn,48920.000076293945,Wed Aug 20 2025 13:30:42 GMT-0500 (Central Daylight Time),261760.10000002384,A,to,I,o,96,2,683.0,261077.10000002384,8032,WL,C,7.0
2,11.19700002670288,learn,48802.99997329712,Wed Aug 20 2025 13:30:42 GMT-0500 (Central Daylight Time),261876.70000004768,A,tow,I,w,93,2,799.6000000238419,261077.10000002384,8032,WL,C,7.0
2,11.480000019073486,learn,48519.999980926514,Wed Aug 20 2025 13:30:42 GMT-0500 (Central Daylight Time),262159.7999999523,A,towe,I,e,254,2,1082.6999999284744,261077.10000002384,8032,WL,C,7.0
2,11.54699993133545,learn,48453.00006866455,Wed Aug 20 2025 13:30:42 GMT-0500 (Central Daylight Time),262226.7000000477,A,tower,I,r,51,2,1149.6000000238419,261077.10000002384,8032,WL,C,7.0
2,12.129999876022339,learn,47870.00012397766,Wed Aug 20 2025 13:30:42 GMT-0500 (Central Daylight Time),262809.7999999523,A,towerenter,I,enter,569,2,1732.6999999284744,261077.10000002384,8032,WL,C,7.0
2,12.662999868392944,learn,47337.000131607056,Wed Aug 20 2025 13:30:42 GMT-0500 (Central Daylight Time),263342.89999997616,A,w,I,w,510,2,532.5,262810.39999997616,8032,WL,C,8.0
2,13.029000043869019,learn,46970.99995613098,Wed Aug 20 2025 13:30:42 GMT-0500 (Central Daylight Time),263709.10000002384,A,wh,I,h,348,2,898.7000000476837,262810.39999997616,8032,WL,C,8.0
2,13.128999948501587,learn,46871.00005149841,Wed Aug 20 2025 13:30:42 GMT-0500 (Central Daylight Time),263809.10000002384,A,whe,I,e,85,2,998.7000000476837,262810.39999997616,8032,WL,C,8.0
2,13.228999853134155,learn,46771.000146865845,Wed Aug 20 2025 13:30:42 GMT-0500 (Central Daylight Time),263908.7000000477,A,whea,I,a,90,2,1098.3000000715256,262810.39999997616,8032,WL,C,8.0
2,13.412999868392944,learn,46587.000131607056,Wed Aug 20 2025 13:30:42 GMT-0500 (Central Daylight Time),264092.5,A,wheat,I,t,175,2,1282.1000000238419,262810.39999997616,8032,WL,C,8.0
2,13.835000038146973,learn,46164.99996185303,Wed Aug 20 2025 13:30:42 GMT-0500 (Central Daylight Time),264515.0,A,wheatenter,I,enter,412,2,1704.6000000238419,262810.39999997616,8032,WL,C,8.0
2,14.328999996185303,learn,45671.0000038147,Wed Aug 20 2025 13:30:42 GMT-0500 (Central Daylight Time),265008.89999997616,A,q,I,q,487,2,493.5,264515.39999997616,8032,WL,C,9.0
2,14.463000059127808,learn,45536.99994087219,Wed Aug 20 2025 13:30:42 GMT-0500 (Central Daylight Time),265142.2999999523,A,qu,I,u,104,2,626.8999999761581,264515.39999997616,8032,WL,C,9.0
2,14.678999900817871,learn,45321.00009918213,Wed Aug 20 2025 13:30:42 GMT-0500 (Central Daylight Time),265358.5,A,que,I,e,197,2,843.1000000238419,264515.39999997616,8032,WL,C,9.0
2,15.228999853134155,learn,44771.000146865845,Wed Aug 20 2025 13:30:42 GMT-0500 (Central Daylight Time),265908.5,A,quee,I,e,533,2,1393.1000000238419,264515.39999997616,8032,WL,C,9.0
2,15.444999933242798,learn,44555.0000667572,Wed Aug 20 2025 13:30:42 GMT-0500 (Central Daylight Time),266125.0,A,queen,I,n,207,2,1609.6000000238419,264515.39999997616,8032,WL,C,9.0
2,16.32799983024597,learn,43672.00016975403,Wed Aug 20 2025 13:30:42 GMT-0500 (Central Daylight Time),267008.2000000477,A,queenenter,I,enter,871,2,2492.8000000715256,264515.39999997616,8032,WL,C,9.0
2,16.812000036239624,learn,43187.999963760376,Wed Aug 20 2025 13:30:42 GMT-0500 (Central Daylight Time),267491.60000002384,A,s,I,s,467,2,482.8000000715256,267008.7999999523,8032,WL,C,10.0
2,16.994999885559082,learn,43005.00011444092,Wed Aug 20 2025 13:30:42 GMT-0500 (Central Daylight Time),267674.7999999523,A,su,I,u,167,2,666.0,267008.7999999523,8032,WL,C,10.0
2,17.32799983024597,learn,42672.00016975403,Wed Aug 20 2025 13:30:42 GMT-0500 (Central Daylight Time),268007.5,A,sug,I,g,304,2,998.7000000476837,267008.7999999523,8032,WL,C,10.0
2,17.527999877929688,learn,42472.00012207031,Wed Aug 20 2025 13:30:42 GMT-0500 (Central Daylight Time),268207.5,A,suga,I,a,179,2,1198.7000000476837,267008.7999999523,8032,WL,C,10.0
2,17.711999893188477,learn,42288.00010681152,Wed Aug 20 2025 13:30:42 GMT-0500 (Central Daylight Time),268391.39999997616,A,sugar,I,r,169,2,1382.6000000238419,267008.7999999523,8032,WL,C,10.0
2,19.57699990272522,learn,40423.00009727478,Wed Aug 20 2025 13:30:42 GMT-0500 (Central Daylight Time),270256.89999997616,A,sugarenter,I,enter,1844,2,3248.100000023842,267008.7999999523,8032,WL,C,10.0
2,21.89299988746643,learn,38107.00011253357,Wed Aug 20 2025 13:30:42 GMT-0500 (Central Daylight Time),272573.2000000477,A,b,I,b,2298,2,2315.9000000953674,270257.2999999523,8032,WL,C,11.0
2,21.97599983215332,learn,38024.00016784668,Wed Aug 20 2025 13:30:42 GMT-0500 (Central Daylight Time),272655.89999997616,A,bo,I,o,77,2,2398.600000023842,270257.2999999523,8032,WL,C,11.0
2,22.192999839782715,learn,37807.000160217285,Wed Aug 20 2025 13:30:42 GMT-0500 (Central Daylight Time),272872.89999997616,A,boy,I,y,211,2,2615.600000023842,270257.2999999523,8032,WL,C,11.0
2,22.542999982833862,learn,37457.00001716614,Wed Aug 20 2025 13:30:42 GMT-0500 (Central Daylight Time),273222.5,A,boyenter,I,enter,330,2,2965.2000000476837,270257.2999999523,8032,WL,C,11.0
2,23.175999879837036,learn,36824.000120162964,Wed Aug 20 2025 13:30:42 GMT-0500 (Central Daylight Time),273855.89999997616,A,d,I,d,621,2,633.1000000238419,273222.7999999523,8032,WL,C,12.0
2,23.259999990463257,learn,36740.00000953674,Wed Aug 20 2025 13:30:42 GMT-0500 (Central Daylight Time),273939.39999997616,A,do,I,o,67,2,716.6000000238419,273222.7999999523,8032,WL,C,12.0
2,23.40999984741211,learn,36590.00015258789,Wed Aug 20 2025 13:30:42 GMT-0500 (Central Daylight Time),274089.2999999523,A,doc,I,c,144,2,866.5,273222.7999999523,8032,WL,C,12.0
2,23.710000038146973,learn,36289.99996185303,Wed Aug 20 2025 13:30:42 GMT-0500 (Central Daylight Time),274389.2000000477,A,doct,I,t,282,2,1166.4000000953674,273222.7999999523,8032,WL,C,12.0
2,23.95899987220764,learn,36041.00012779236,Wed Aug 20 2025 13:30:42 GMT-0500 (Central Daylight Time),274639.0,A,docto,I,o,238,2,1416.2000000476837,273222.7999999523,8032,WL,C,12.0
2,24.259999990463257,learn,35740.00000953674,Wed Aug 20 2025 13:30:42 GMT-0500 (Central Daylight Time),274939.2999999523,A,doctor,I,r,291,2,1716.5,273222.7999999523,8032,WL,C,12.0
2,24.776000022888184,learn,35223.99997711182,Wed Aug 20 2025 13:30:42 GMT-0500 (Central Daylight Time),275455.7000000477,A,doctorenter,I,enter,495,2,2232.9000000953674,273222.7999999523,8032,WL,C,12.0
2,26.575000047683716,learn,33424.999952316284,Wed Aug 20 2025 13:30:42 GMT-0500 (Central Daylight Time),277254.7999999523,A,c,I,c,1779,2,1799.0,275455.7999999523,8032,WL,C,13.0
2,26.691999912261963,learn,33308.00008773804,Wed Aug 20 2025 13:30:42 GMT-0500 (Central Daylight Time),277371.7000000477,A,ca,I,a,109,2,1915.9000000953674,275455.7999999523,8032,WL,C,13.0
2,26.858999967575073,learn,33141.00003242493,Wed Aug 20 2025 13:30:42 GMT-0500 (Central Daylight Time),277538.60000002384,A,cat,I,t,156,2,2082.8000000715256,275455.7999999523,8032,WL,C,13.0
2,27.04200005531311,learn,32957.99994468689,Wed Aug 20 2025 13:30:42 GMT-0500 (Central Daylight Time),277721.7000000477,A,catt,I,t,167,2,2265.9000000953674,275455.7999999523,8032,WL,C,13.0
2,27.125,learn,32875.0,Wed Aug 20 2025 13:30:42 GMT-0500 (Central Daylight Time),277804.89999997616,A,cattl,I,l,66,2,2349.100000023842,275455.7999999523,8032,WL,C,13.0
2,27.2739999294281,learn,32726.0000705719,Wed Aug 20 2025 13:30:42 GMT-0500 (Central Daylight Time),277954.10000002384,A,cattle,I,e,143,2,2498.3000000715256,275455.7999999523,8032,WL,C,13.0
2,27.524999856948853,learn,32475.000143051147,Wed Aug 20 2025 13:30:42 GMT-0500 (Central Daylight Time),278204.7999999523,A,cattleenter,I,enter,232,2,2749.0,275455.7999999523,8032,WL,C,13.0
2,38.48799991607666,learn,21512.00008392334,Wed Aug 20 2025 13:30:42 GMT-0500 (Central Daylight Time),289167.5,A,l,I,l,10951,2,10962.100000023842,278205.39999997616,8032,WL,C,14.0
2,38.605000019073486,learn,21394.999980926514,Wed Aug 20 2025 13:30:42 GMT-0500 (Central Daylight Time),289284.60000002384,A,le,I,e,99,2,11079.200000047684,278205.39999997616,8032,WL,C,14.0
2,38.75499987602234,learn,21245.00012397766,Wed Aug 20 2025 13:30:42 GMT-0500 (Central Daylight Time),289434.39999997616,A,let,I,t,134,2,11229.0,278205.39999997616,8032,WL,C,14.0
2,38.88800001144409,learn,21111.99998855591,Wed Aug 20 2025 13:30:42 GMT-0500 (Central Daylight Time),289568.10000002384,A,lett,I,t,121,2,11362.700000047684,278205.39999997616,8032,WL,C,14.0
2,39.32099986076355,learn,20679.00013923645,Wed Aug 20 2025 13:30:42 GMT-0500 (Central Daylight Time),290001.10000002384,A,lette,I,e,419,2,11795.700000047684,278205.39999997616,8032,WL,C,14.0
2,39.4210000038147,learn,20578.999996185303,Wed Aug 20 2025 13:30:42 GMT-0500 (Central Daylight Time),290100.7999999523,A,letter,I,r,82,2,11895.399999976158,278205.39999997616,8032,WL,C,14.0
2,39.62100005149841,learn,20378.999948501587,Wed Aug 20 2025 13:30:42 GMT-0500 (Central Daylight Time),290301.10000002384,A,letterenter,I,enter,175,2,12095.700000047684,278205.39999997616,8032,WL,C,14.0
2,46.484999895095825,learn,13515.000104904175,Wed Aug 20 2025 13:30:42 GMT-0500 (Central Daylight Time),297165.2999999523,A,c,I,c,6846,2,6864.0,290301.2999999523,8032,WL,C,15.0
2,46.567999839782715,learn,13432.000160217285,Wed Aug 20 2025 13:30:42 GMT-0500 (Central Daylight Time),297248.5,A,co,I,o,69,2,6947.200000047684,290301.2999999523,8032,WL,C,15.0
2,46.734999895095825,learn,13265.000104904175,Wed Aug 20 2025 13:30:42 GMT-0500 (Central Daylight Time),297415.10000002384,A,cor,I,r,155,2,7113.800000071526,290301.2999999523,8032,WL,C,15.0
2,46.86800003051758,learn,13131.999969482422,Wed Aug 20 2025 13:30:42 GMT-0500 (Central Daylight Time),297548.5,A,corn,I,n,125,2,7247.200000047684,290301.2999999523,8032,WL,C,15.0
2,47.10199999809265,learn,12898.000001907349,Wed Aug 20 2025 13:30:42 GMT-0500 (Central Daylight Time),297781.89999997616,A,cornenter,I,enter,205,2,7480.600000023842,290301.2999999523,8032,WL,C,15.0
3,0.40000009536743164,learn,59599.99990463257,Wed Aug 20 2025 13:30:42 GMT-0500 (Central Daylight Time),368992.5,A,f,I,f,387,2,399.2999999523163,368593.2000000477,8032,WL,C,1.0
3,0.5829999446868896,learn,59417.00005531311,Wed Aug 20 2025 13:30:42 GMT-0500 (Central Daylight Time),369175.5,A,fl,I,l,171,2,582.2999999523163,368593.2000000477,8032,WL,C,1.0
3,0.6670000553131104,learn,59332.99994468689,Wed Aug 20 2025 13:30:42 GMT-0500 (Central Daylight Time),369259.39999997616,A,fla,I,a,68,2,666.1999999284744,368593.2000000477,8032,WL,C,1.0
3,1.1500000953674316,learn,58849.99990463257,Wed Aug 20 2025 13:30:42 GMT-0500 (Central Daylight Time),369742.39999997616,A,flag,I,g,463,2,1149.1999999284744,368593.2000000477,8032,WL,C,1.0
3,1.3329999446868896,learn,58667.00005531311,Wed Aug 20 2025 13:30:42 GMT-0500 (Central Daylight Time),369925.7999999523,A,flagenter,I,enter,164,2,1332.5999999046326,368593.2000000477,8032,WL,C,1.0
3,1.7990000247955322,learn,58200.99997520447,Wed Aug 20 2025 13:30:42 GMT-0500 (Central Daylight Time),370391.7999999523,A,l,I,l,451,2,465.1999999284744,369926.60000002384,8032,WL,C,2.0
3,2.0329999923706055,learn,57967.000007629395,Wed Aug 20 2025 13:30:42 GMT-0500 (Central Daylight Time),370626.0,A,le,I,e,224,2,699.3999999761581,369926.60000002384,8032,WL,C,2.0
3,2.2330000400543213,learn,57766.99995994568,Wed Aug 20 2025 13:30:42 GMT-0500 (Central Daylight Time),370825.5,A,let,I,t,176,2,898.8999999761581,369926.60000002384,8032,WL,C,2.0
3,2.3989999294281006,learn,57601.0000705719,Wed Aug 20 2025 13:30:42 GMT-0500 (Central Daylight Time),370992.0,A,lett,I,t,162,2,1065.3999999761581,369926.60000002384,8032,WL,C,2.0
3,2.549999952316284,learn,57450.000047683716,Wed Aug 20 2025 13:30:42 GMT-0500 (Central Daylight Time),371142.2999999523,A,lette,I,e,131,2,1215.6999999284744,369926.60000002384,8032,WL,C,2.0
3,2.6489999294281006,learn,57351.0000705719,Wed Aug 20 2025 13:30:42 GMT-0500 (Central Daylight Time),371241.89999997616,A,letter,I,r,92,2,1315.2999999523163,369926.60000002384,8032,WL,C,2.0
3,2.9159998893737793,learn,57084.00011062622,Wed Aug 20 2025 13:30:42 GMT-0500 (Central Daylight Time),371508.39999997616,A,letterenter,I,enter,257,2,1581.7999999523163,369926.60000002384,8032,WL,C,2.0
3,3.5320000648498535,learn,56467.99993515015,Wed Aug 20 2025 13:30:42 GMT-0500 (Central Daylight Time),372125.0,A,c,I,c,598,2,616.2999999523163,371508.7000000477,8032,WL,C,3.0
3,3.631999969482422,learn,56368.00003051758,Wed Aug 20 2025 13:30:42 GMT-0500 (Central Daylight Time),372225.0,A,co,I,o,86,2,716.2999999523163,371508.7000000477,8032,WL,C,3.0
3,3.7990000247955322,learn,56200.99997520447,Wed Aug 20 2025 13:30:42 GMT-0500 (Central Daylight Time),372391.2999999523,A,cor,I,r,153,2,882.5999999046326,371508.7000000477,8032,WL,C,3.0
3,3.9820001125335693,learn,56017.99988746643,Wed Aug 20 2025 13:30:42 GMT-0500 (Central Daylight Time),372575.10000002384,A,corn,I,n,172,2,1066.3999999761581,371508.7000000477,8032,WL,C,3.0
3,4.249000072479248,learn,55750.99992752075,Wed Aug 20 2025 13:30:42 GMT-0500 (Central Daylight Time),372841.39999997616,A,cornenter,I,enter,260,2,1332.6999999284744,371508.7000000477,8032,WL,C,3.0
3,4.648000001907349,learn,55351.99999809265,Wed Aug 20 2025 13:30:42 GMT-0500 (Central Daylight Time),373241.10000002384,A,n,I,n,395,2,399.5,372841.60000002384,8032,WL,C,4.0
3,4.815000057220459,learn,55184.99994277954,Wed Aug 20 2025 13:30:42 GMT-0500 (Central Daylight Time),373408.0,A,na,I,a,137,2,566.3999999761581,372841.60000002384,8032,WL,C,4.0
3,4.949000120162964,learn,55050.999879837036,Wed Aug 20 2025 13:30:42 GMT-0500 (Central Daylight Time),373541.39999997616,A,nai,I,i,122,2,699.7999999523163,372841.60000002384,8032,WL,C,4.0
3,5.082000017166138,learn,54917.99998283386,Wed Aug 20 2025 13:30:42 GMT-0500 (Central Daylight Time),373675.0,A,nail,I,l,125,2,833.3999999761581,372841.60000002384,8032,WL,C,4.0
3,5.54800009727478,learn,54451.99990272522,Wed Aug 20 2025 13:30:42 GMT-0500 (Central Daylight Time),374141.10000002384,A,nailenter,I,enter,440,2,1299.5,372841.60000002384,8032,WL,C,4.0
3,6.049000024795532,learn,53950.99997520447,Wed Aug 20 2025 13:30:42 GMT-0500 (Central Daylight Time),374641.2999999523,A,t,I,t,494,2,499.89999997615814,374141.39999997616,8032,WL,C,5.0
3,6.148999929428101,learn,53851.0000705719,Wed Aug 20 2025 13:30:42 GMT-0500 (Central Daylight Time),374741.10000002384,A,to,I,o,82,2,599.7000000476837,374141.39999997616,8032,WL,C,5.0
3,6.315999984741211,learn,53684.00001525879,Wed Aug 20 2025 13:30:42 GMT-0500 (Central Daylight Time),374909.0,A,tow,I,w,150,2,767.6000000238419,374141.39999997616,8032,WL,C,5.0
3,6.4649999141693115,learn,53535.00008583069,Wed Aug 20 2025 13:30:42 GMT-0500 (Central Daylight Time),375057.5,A,towe,I,e,126,2,916.1000000238419,374141.39999997616,8032,WL,C,5.0
3,6.997999906539917,learn,53002.00009346008,Wed Aug 20 2025 13:30:42 GMT-0500 (Central Daylight Time),375590.89999997616,A,tower,I,r,521,2,1449.5,374141.39999997616,8032,WL,C,5.0
3,7.2149999141693115,learn,52785.00008583069,Wed Aug 20 2025 13:30:42 GMT-0500 (Central Daylight Time),375807.2999999523,A,towerenter,I,enter,196,2,1665.8999999761581,374141.39999997616,8032,WL,C,5.0
3,7.815000057220459,learn,52184.99994277954,Wed Aug 20 2025 13:30:42 GMT-0500 (Central Daylight Time),376407.2999999523,A,w,I,w,571,2,599.3999999761581,375807.89999997616,8032,WL,C,6.0
3,8.947999954223633,learn,51052.00004577637,Wed Aug 20 2025 13:30:42 GMT-0500 (Central Daylight Time),377540.2999999523,A,wh,I,h,1125,2,1732.3999999761581,375807.89999997616,8032,WL,C,6.0
3,9.04699993133545,learn,50953.00006866455,Wed Aug 20 2025 13:30:42 GMT-0500 (Central Daylight Time),377640.0,A,whe,I,e,86,2,1832.1000000238419,375807.89999997616,8032,WL,C,6.0
3,9.147000074386597,learn,50852.9999256134,Wed Aug 20 2025 13:30:42 GMT-0500 (Central Daylight Time),377740.2000000477,A,whea,I,a,90,2,1932.3000000715256,375807.89999997616,8032,WL,C,6.0
3,9.397000074386597,learn,50602.9999256134,Wed Aug 20 2025 13:30:42 GMT-0500 (Central Daylight Time),377990.10000002384,A,wheat,I,t,240,2,2182.2000000476837,375807.89999997616,8032,WL,C,6.0
3,9.680999994277954,learn,50319.000005722046,Wed Aug 20 2025 13:30:42 GMT-0500 (Central Daylight Time),378273.5,A,wheatenter,I,enter,269,2,2465.600000023842,375807.89999997616,8032,WL,C,6.0
3,11.02999997138977,learn,48970.00002861023,Wed Aug 20 2025 13:30:42 GMT-0500 (Central Daylight Time),379622.7000000477,A,q,I,q,1326,2,1348.5,378274.2000000477,8032,WL,C,7.0
3,11.180000066757202,learn,48819.9999332428,Wed Aug 20 2025 13:30:42 GMT-0500 (Central Daylight Time),379772.89999997616,A,qu,I,u,133,2,1498.6999999284744,378274.2000000477,8032,WL,C,7.0
3,11.27999997138977,learn,48720.00002861023,Wed Aug 20 2025 13:30:42 GMT-0500 (Central Daylight Time),379872.7999999523,A,que,I,e,79,2,1598.5999999046326,378274.2000000477,8032,WL,C,7.0
3,11.52999997138977,learn,48470.00002861023,Wed Aug 20 2025 13:30:42 GMT-0500 (Central Daylight Time),380122.89999997616,A,quee,I,e,242,2,1848.6999999284744,378274.2000000477,8032,WL,C,7.0
3,11.77999997138977,learn,48220.00002861023,Wed Aug 20 2025 13:30:42 GMT-0500 (Central Daylight Time),380372.7000000477,A,queen,I,n,232,2,2098.5,378274.2000000477,8032,WL,C,7.0
3,12.196000099182129,learn,47803.99990081787,Wed Aug 20 2025 13:30:42 GMT-0500 (Central Daylight Time),380789.10000002384,A,queenenter,I,enter,396,2,2514.899999976158,378274.2000000477,8032,WL,C,7.0
3,12.598000049591064,learn,47401.999950408936,Wed Aug 20 2025 13:30:42 GMT-0500 (Central Daylight Time),381190.2999999523,A,s,I,s,382,2,400.89999997615814,380789.39999997616,8032,WL,C,8.0
3,12.696000099182129,learn,47303.99990081787,Wed Aug 20 2025 13:30:42 GMT-0500 (Central Daylight Time),381289.0,A,su,I,u,85,2,499.60000002384186,380789.39999997616,8032,WL,C,8.0
3,13.046000003814697,learn,46953.9999961853,Wed Aug 20 2025 13:30:42 GMT-0500 (Central Daylight Time),381638.60000002384,A,sug,I,g,321,2,849.2000000476837,380789.39999997616,8032,WL,C,8.0
3,13.413000106811523,learn,46586.99989318848,Wed Aug 20 2025 13:30:42 GMT-0500 (Central Daylight Time),382005.7000000477,A,suga,I,a,357,2,1216.3000000715256,380789.39999997616,8032,WL,C,8.0
3,13.69700002670288,learn,46302.99997329712,Wed Aug 20 2025 13:30:42 GMT-0500 (Central Daylight Time),382290.0,A,sugar,I,r,267,2,1500.6000000238419,380789.39999997616,8032,WL,C,8.0
3,14.296000003814697,learn,45703.9999961853,Wed Aug 20 2025 13:30:42 GMT-0500 (Central Daylight Time),382888.5,A,sugarenter,I,enter,577,2,2099.100000023842,380789.39999997616,8032,WL,C,8.0
3,17.91100001335144,learn,42088.99998664856,Wed Aug 20 2025 13:30:42 GMT-0500 (Central Daylight Time),386503.5,A,b,I,b,3602,2,3614.2999999523163,382889.2000000477,8032,WL,C,9.0
3,17.99399995803833,learn,42006.00004196167,Wed Aug 20 2025 13:30:42 GMT-0500 (Central Daylight Time),386586.7999999523,A,bo,I,o,67,2,3697.5999999046326,382889.2000000477,8032,WL,C,9.0
3,18.211999893188477,learn,41788.00010681152,Wed Aug 20 2025 13:30:42 GMT-0500 (Central Daylight Time),386804.2999999523,A,boy,I,y,206,2,3915.0999999046326,382889.2000000477,8032,WL,C,9.0
3,18.477999925613403,learn,41522.0000743866,Wed Aug 20 2025 13:30:42 GMT-0500 (Central Daylight Time),387070.5,A,boyenter,I,enter,249,2,4181.299999952316,382889.2000000477,8032,WL,C,9.0
3,18.91100001335144,learn,41088.99998664856,Wed Aug 20 2025 13:30:42 GMT-0500 (Central Daylight Time),387503.2000000477,A,d,I,d,419,2,432.10000002384186,387071.10000002384,8032,WL,C,10.0
3,18.99399995803833,learn,41006.00004196167,Wed Aug 20 2025 13:30:42 GMT-0500 (Central Daylight Time),387587.0,A,do,I,o,67,2,515.8999999761581,387071.10000002384,8032,WL,C,10.0
3,19.16100001335144,learn,40838.99998664856,Wed Aug 20 2025 13:30:42 GMT-0500 (Central Daylight Time),387753.7000000477,A,doc,I,c,144,2,682.6000000238419,387071.10000002384,8032,WL,C,10.0
3,19.526999950408936,learn,40473.000049591064,Wed Aug 20 2025 13:30:42 GMT-0500 (Central Daylight Time),388119.7000000477,A,doct,I,t,357,2,1048.6000000238419,387071.10000002384,8032,WL,C,10.0
3,19.82699990272522,learn,40173.00009727478,Wed Aug 20 2025 13:30:42 GMT-0500 (Central Daylight Time),388420.2000000477,A,docto,I,o,292,2,1349.1000000238419,387071.10000002384,8032,WL,C,10.0
3,20.05999994277954,learn,39940.00005722046,Wed Aug 20 2025 13:30:42 GMT-0500 (Central Daylight Time),388652.7000000477,A,doctor,I,r,211,2,1581.6000000238419,387071.10000002384,8032,WL,C,10.0
3,20.49399995803833,learn,39506.00004196167,Wed Aug 20 2025 13:30:42 GMT-0500 (Central Daylight Time),389086.39999997616,A,doctorenter,I,enter,413,2,2015.2999999523163,387071.10000002384,8032,WL,C,10.0
3,20.82699990272522,learn,39173.00009727478,Wed Aug 20 2025 13:30:42 GMT-0500 (Central Daylight Time),389419.7999999523,A,c,I,c,325,2,333.09999990463257,389086.7000000477,8032,WL,C,11.0
3,20.943000078201294,learn,39056.999921798706,Wed Aug 20 2025 13:30:42 GMT-0500 (Central Daylight Time),389535.89999997616,A,ca,I,a,107,2,449.1999999284744,389086.7000000477,8032,WL,C,11.0
3,21.109999895095825,learn,38890.000104904175,Wed Aug 20 2025 13:30:42 GMT-0500 (Central Daylight Time),389702.7999999523,A,cat,I,t,147,2,616.0999999046326,389086.7000000477,8032,WL,C,11.0
3,21.26099991798401,learn,38739.00008201599,Wed Aug 20 2025 13:30:42 GMT-0500 (Central Daylight Time),389853.2000000477,A,catt,I,t,132,2,766.5,389086.7000000477,8032,WL,C,11.0
3,21.41000008583069,learn,38589.99991416931,Wed Aug 20 2025 13:30:42 GMT-0500 (Central Daylight Time),390002.89999997616,A,cattl,I,l,141,2,916.1999999284744,389086.7000000477,8032,WL,C,11.0
3,21.55999994277954,learn,38440.00005722046,Wed Aug 20 2025 13:30:42 GMT-0500 (Central Daylight Time),390152.89999997616,A,cattle,I,e,135,2,1066.1999999284744,389086.7000000477,8032,WL,C,11.0
3,21.91000008583069,learn,38089.99991416931,Wed Aug 20 2025 13:30:42 GMT-0500 (Central Daylight Time),390502.89999997616,A,cattleenter,I,enter,334,2,1416.1999999284744,389086.7000000477,8032,WL,C,11.0
3,22.342999935150146,learn,37657.00006484985,Wed Aug 20 2025 13:30:42 GMT-0500 (Central Daylight Time),390935.7999999523,A,b,I,b,428,2,432.59999990463257,390503.2000000477,8032,WL,C,12.0
3,22.493000030517578,learn,37506.99996948242,Wed Aug 20 2025 13:30:42 GMT-0500 (Central Daylight Time),391085.7000000477,A,bo,I,o,138,2,582.5,390503.2000000477,8032,WL,C,12.0
3,22.710000038146973,learn,37289.99996185303,Wed Aug 20 2025 13:30:42 GMT-0500 (Central Daylight Time),391302.39999997616,A,bod,I,d,197,2,799.1999999284744,390503.2000000477,8032,WL,C,12.0
3,23.092999935150146,learn,36907.00006484985,Wed Aug 20 2025 13:30:42 GMT-0500 (Central Daylight Time),391685.5,A,body,I,y,364,2,1182.2999999523163,390503.2000000477,8032,WL,C,12.0
3,23.509000062942505,learn,36490.999937057495,Wed Aug 20 2025 13:30:42 GMT-0500 (Central Daylight Time),392101.89999997616,A,bodyenter,I,enter,406,2,1598.6999999284744,390503.2000000477,8032,WL,C,12.0
3,24.05900001525879,learn,35940.99998474121,Wed Aug 20 2025 13:30:42 GMT-0500 (Central Daylight Time),392651.7999999523,A,s,I,s,541,2,549.5,392102.2999999523,8032,WL,C,13.0
3,24.158999919891357,learn,35841.00008010864,Wed Aug 20 2025 13:30:42 GMT-0500 (Central Daylight Time),392751.60000002384,A,sh,I,h,86,2,649.3000000715256,392102.2999999523,8032,WL,C,13.0
3,24.292999982833862,learn,35707.00001716614,Wed Aug 20 2025 13:30:42 GMT-0500 (Central Daylight Time),392885.2999999523,A,sho,I,o,115,2,783.0,392102.2999999523,8032,WL,C,13.0
3,24.443000078201294,learn,35556.999921798706,Wed Aug 20 2025 13:30:42 GMT-0500 (Central Daylight Time),393035.2000000477,A,shor,I,r,141,2,932.9000000953674,392102.2999999523,8032,WL,C,13.0
3,24.575999975204468,learn,35424.00002479553,Wed Aug 20 2025 13:30:42 GMT-0500 (Central Daylight Time),393168.2999999523,A,shore,I,e,120,2,1066.0,392102.2999999523,8032,WL,C,13.0
3,24.941999912261963,learn,35058.00008773804,Wed Aug 20 2025 13:30:42 GMT-0500 (Central Daylight Time),393535.0,A,shoreenter,I,enter,346,2,1432.7000000476837,392102.2999999523,8032,WL,C,13.0
3,30.640000104904175,learn,29359.999895095825,Wed Aug 20 2025 13:30:42 GMT-0500 (Central Daylight Time),399233.10000002384,A,l,I,l,5678,2,5697.800000071526,393535.2999999523,8032,WL,C,14.0
3,30.723999977111816,learn,29276.000022888184,Wed Aug 20 2025 13:30:42 GMT-0500 (Central Daylight Time),399316.2000000477,A,le,I,e,73,2,5780.900000095367,393535.2999999523,8032,WL,C,14.0
3,30.890000104904175,learn,29109.999895095825,Wed Aug 20 2025 13:30:42 GMT-0500 (Central Daylight Time),399483.10000002384,A,let,I,t,156,2,5947.800000071526,393535.2999999523,8032,WL,C,14.0
3,31.04099988937378,learn,28959.00011062622,Wed Aug 20 2025 13:30:42 GMT-0500 (Central Daylight Time),399633.2000000477,A,lett,I,t,136,2,6097.900000095367,393535.2999999523,8032,WL,C,14.0
3,31.19000005722046,learn,28809.99994277954,Wed Aug 20 2025 13:30:42 GMT-0500 (Central Daylight Time),399783.10000002384,A,lette,I,e,136,2,6247.800000071526,393535.2999999523,8032,WL,C,14.0
3,31.289999961853027,learn,28710.000038146973,Wed Aug 20 2025 13:30:42 GMT-0500 (Central Daylight Time),399882.7000000477,A,letter,I,r,91,2,6347.400000095367,393535.2999999523,8032,WL,C,14.0
3,31.539999961853027,learn,28460.000038146973,Wed Aug 20 2025 13:30:42 GMT-0500 (Central Daylight Time),400132.89999997616,A,letterenter,I,enter,237,2,6597.600000023842,393535.2999999523,8032,WL,C,14.0
3,37.0550000667572,learn,22944.999933242798,Wed Aug 20 2025 13:30:42 GMT-0500 (Central Daylight Time),405647.7000000477,A,f,I,f,5500,2,5514.400000095367,400133.2999999523,8032,WL,C,15.0
3,37.13800001144409,learn,22861.99998855591,Wed Aug 20 2025 13:30:42 GMT-0500 (Central Daylight Time),405731.0,A,fl,I,l,75,2,5597.700000047684,400133.2999999523,8032,WL,C,15.0
3,37.23799991607666,learn,22762.00008392334,Wed Aug 20 2025 13:30:42 GMT-0500 (Central Daylight Time),405831.10000002384,A,fla,I,a,89,2,5697.800000071526,400133.2999999523,8032,WL,C,15.0
3,37.611000061035156,learn,22388.999938964844,Wed Aug 20 2025 13:30:42 GMT-0500 (Central Daylight Time),406203.2000000477,A,flag,I,g,367,2,6069.900000095367,400133.2999999523,8032,WL,C,15.0
3,37.73799991607666,learn,22262.00008392334,Wed Aug 20 2025 13:30:42 GMT-0500 (Central Daylight Time),406330.89999997616,A,flagenter,I,enter,111,2,6197.600000023842,400133.2999999523,8032,WL,C,15.0
4,0.7330000400543213,learn,59266.99995994568,Wed Aug 20 2025 13:30:42 GMT-0500 (Central Daylight Time),479924.39999997616,A,t,I,t,716,2,732.7999999523163,479191.60000002384,8032,WL,C,1.0
4,0.8829998970031738,learn,59117.000102996826,Wed Aug 20 2025 13:30:42 GMT-0500 (Central Daylight Time),480074.2999999523,A,to,I,o,141,2,882.6999999284744,479191.60000002384,8032,WL,C,1.0
4,1.065999984741211,learn,58934.00001525879,Wed Aug 20 2025 13:30:42 GMT-0500 (Central Daylight Time),480257.7000000477,A,tow,I,w,177,2,1066.1000000238419,479191.60000002384,8032,WL,C,1.0
4,1.1989998817443848,learn,58801.000118255615,Wed Aug 20 2025 13:30:42 GMT-0500 (Central Daylight Time),480390.7000000477,A,towe,I,e,121,2,1199.1000000238419,479191.60000002384,8032,WL,C,1.0
4,1.2330000400543213,learn,58766.99995994568,Wed Aug 20 2025 13:30:42 GMT-0500 (Central Daylight Time),480424.10000002384,A,tower,I,r,26,2,1232.5,479191.60000002384,8032,WL,C,1.0
4,1.7159998416900635,learn,58284.00015830994,Wed Aug 20 2025 13:30:42 GMT-0500 (Central Daylight Time),480907.60000002384,A,towerenter,I,enter,467,2,1716.0,479191.60000002384,8032,WL,C,1.0
4,2.132999897003174,learn,57867.000102996826,Wed Aug 20 2025 13:30:42 GMT-0500 (Central Daylight Time),481324.10000002384,A,w,I,w,399,2,416.3000000715256,480907.7999999523,8032,WL,C,2.0
4,2.2990000247955322,learn,57700.99997520447,Wed Aug 20 2025 13:30:42 GMT-0500 (Central Daylight Time),481490.5,A,we,I,e,158,2,582.7000000476837,480907.7999999523,8032,WL,C,2.0
4,2.315999984741211,learn,57684.00001525879,Wed Aug 20 2025 13:30:42 GMT-0500 (Central Daylight Time),481507.2000000477,A,weh,I,h,0,2,599.4000000953674,480907.7999999523,8032,WL,C,2.0
4,2.9489998817443848,learn,57051.000118255615,Wed Aug 20 2025 13:30:42 GMT-0500 (Central Daylight Time),482140.39999997616,A,we,I,backspace,616,2,1232.6000000238419,480907.7999999523,8032,WL,C,2.0
4,3.115999937057495,learn,56884.000062942505,Wed Aug 20 2025 13:30:42 GMT-0500 (Central Daylight Time),482307.10000002384,A,w,I,backspace,158,2,1399.3000000715256,480907.7999999523,8032,WL,C,2.0
4,3.315999984741211,learn,56684.00001525879,Wed Aug 20 2025 13:30:42 GMT-0500 (Central Daylight Time),482507.0,A,wh,I,h,192,2,1599.2000000476837,480907.7999999523,8032,WL,C,2.0
4,3.431999921798706,learn,56568.000078201294,Wed Aug 20 2025 13:30:42 GMT-0500 (Central Daylight Time),482623.7000000477,A,whe,I,e,104,2,1715.9000000953674,480907.7999999523,8032,WL,C,2.0
4,3.4819998741149902,learn,56518.00012588501,Wed Aug 20 2025 13:30:42 GMT-0500 (Central Daylight Time),482673.5,A,whea,I,a,43,2,1765.7000000476837,480907.7999999523,8032,WL,C,2.0
4,3.631999969482422,learn,56368.00003051758,Wed Aug 20 2025 13:30:42 GMT-0500 (Central Daylight Time),482823.7000000477,A,wheat,I,t,138,2,1915.9000000953674,480907.7999999523,8032,WL,C,2.0
4,3.881999969482422,learn,56118.00003051758,Wed Aug 20 2025 13:30:42 GMT-0500 (Central Daylight Time),483073.60000002384,A,wheatenter,I,enter,232,2,2165.8000000715256,480907.7999999523,8032,WL,C,2.0
4,6.014999866485596,learn,53985.000133514404,Wed Aug 20 2025 13:30:42 GMT-0500 (Central Daylight Time),485206.2000000477,A,q,I,q,2119,2,2132.3000000715256,483073.89999997616,8032,WL,C,3.0
4,6.13100004196167,learn,53868.99995803833,Wed Aug 20 2025 13:30:42 GMT-0500 (Central Daylight Time),485322.89999997616,A,qu,I,u,100,2,2249.0,483073.89999997616,8032,WL,C,3.0
4,6.263999938964844,learn,53736.000061035156,Wed Aug 20 2025 13:30:42 GMT-0500 (Central Daylight Time),485455.7999999523,A,que,I,e,128,2,2381.899999976158,483073.89999997616,8032,WL,C,3.0
4,6.497999906539917,learn,53502.00009346008,Wed Aug 20 2025 13:30:42 GMT-0500 (Central Daylight Time),485689.2999999523,A,quee,I,e,227,2,2615.399999976158,483073.89999997616,8032,WL,C,3.0
4,6.664000034332275,learn,53335.999965667725,Wed Aug 20 2025 13:30:42 GMT-0500 (Central Daylight Time),485855.7000000477,A,queen,I,n,145,2,2781.8000000715256,483073.89999997616,8032,WL,C,3.0
4,6.930999994277954,learn,53069.000005722046,Wed Aug 20 2025 13:30:42 GMT-0500 (Central Daylight Time),486122.5,A,queenenter,I,enter,259,2,3048.600000023842,483073.89999997616,8032,WL,C,3.0
4,7.180999994277954,learn,52819.000005722046,Wed Aug 20 2025 13:30:42 GMT-0500 (Central Daylight Time),486372.2999999523,A,s,I,s,240,2,249.5,486122.7999999523,8032,WL,C,4.0
4,7.297999858856201,learn,52702.0001411438,Wed Aug 20 2025 13:30:42 GMT-0500 (Central Daylight Time),486489.10000002384,A,su,I,u,105,2,366.3000000715256,486122.7999999523,8032,WL,C,4.0
4,7.546999931335449,learn,52453.00006866455,Wed Aug 20 2025 13:30:42 GMT-0500 (Central Daylight Time),486738.7999999523,A,sug,I,g,235,2,616.0,486122.7999999523,8032,WL,C,4.0
4,7.896999835968018,learn,52103.00016403198,Wed Aug 20 2025 13:30:42 GMT-0500 (Central Daylight Time),487088.7000000477,A,suga,I,a,336,2,965.9000000953674,486122.7999999523,8032,WL,C,4.0
4,8.146999835968018,learn,51853.00016403198,Wed Aug 20 2025 13:30:42 GMT-0500 (Central Daylight Time),487338.89999997616,A,sugar,I,r,234,2,1216.1000000238419,486122.7999999523,8032,WL,C,4.0
4,8.63100004196167,learn,51368.99995803833,Wed Aug 20 2025 13:30:42 GMT-0500 (Central Daylight Time),487822.0,A,sugarenter,I,enter,472,2,1699.2000000476837,486122.7999999523,8032,WL,C,4.0
4,8.996999979019165,learn,51003.000020980835,Wed Aug 20 2025 13:30:42 GMT-0500 (Central Daylight Time),488188.60000002384,A,h,I,h,357,2,366.3000000715256,487822.2999999523,8032,WL,C,5.0
4,9.164000034332275,learn,50835.999965667725,Wed Aug 20 2025 13:30:42 GMT-0500 (Central Daylight Time),488355.2999999523,A,ho,I,o,155,2,533.0,487822.2999999523,8032,WL,C,5.0
4,9.329999923706055,learn,50670.000076293945,Wed Aug 20 2025 13:30:42 GMT-0500 (Central Daylight Time),488521.7999999523,A,hom,I,m,156,2,699.5,487822.2999999523,8032,WL,C,5.0
4,9.52999997138977,learn,50470.00002861023,Wed Aug 20 2025 13:30:42 GMT-0500 (Central Daylight Time),488721.60000002384,A,home,I,e,185,2,899.3000000715256,487822.2999999523,8032,WL,C,5.0
4,10.312999963760376,learn,49687.000036239624,Wed Aug 20 2025 13:30:42 GMT-0500 (Central Daylight Time),489504.7999999523,A,homeenter,I,enter,767,2,1682.5,487822.2999999523,8032,WL,C,5.0
4,10.77999997138977,learn,49220.00002861023,Wed Aug 20 2025 13:30:42 GMT-0500 (Central Daylight Time),489971.2000000477,A,b,I,b,454,2,466.0,489505.2000000477,8032,WL,C,6.0
4,10.912999868392944,learn,49087.000131607056,Wed Aug 20 2025 13:30:42 GMT-0500 (Central Daylight Time),490104.2000000477,A,bo,I,o,126,2,599.0,489505.2000000477,8032,WL,C,6.0
4,11.162999868392944,learn,48837.000131607056,Wed Aug 20 2025 13:30:42 GMT-0500 (Central Daylight Time),490354.39999997616,A,boy,I,y,243,2,849.1999999284744,489505.2000000477,8032,WL,C,6.0
4,11.496000051498413,learn,48503.99994850159,Wed Aug 20 2025 13:30:42 GMT-0500 (Central Daylight Time),490687.60000002384,A,boyenter,I,enter,312,2,1182.3999999761581,489505.2000000477,8032,WL,C,6.0
4,12.078999996185303,learn,47921.0000038147,Wed Aug 20 2025 13:30:42 GMT-0500 (Central Daylight Time),491270.7000000477,A,d,I,d,563,2,582.7000000476837,490688.0,8032,WL,C,7.0
4,12.162999868392944,learn,47837.000131607056,Wed Aug 20 2025 13:30:42 GMT-0500 (Central Daylight Time),491354.5,A,do,I,o,65,2,666.5,490688.0,8032,WL,C,7.0
4,12.296000003814697,learn,47703.9999961853,Wed Aug 20 2025 13:30:42 GMT-0500 (Central Daylight Time),491487.2999999523,A,doc,I,c,128,2,799.2999999523163,490688.0,8032,WL,C,7.0
4,12.578999996185303,learn,47421.0000038147,Wed Aug 20 2025 13:30:42 GMT-0500 (Central Daylight Time),491770.60000002384,A,doct,I,t,276,2,1082.6000000238419,490688.0,8032,WL,C,7.0
4,12.728999853134155,learn,47271.000146865845,Wed Aug 20 2025 13:30:42 GMT-0500 (Central Daylight Time),491920.39999997616,A,docto,I,o,141,2,1232.3999999761581,490688.0,8032,WL,C,7.0
4,13.046000003814697,learn,46953.9999961853,Wed Aug 20 2025 13:30:42 GMT-0500 (Central Daylight Time),492237.2999999523,A,doctor,I,r,297,2,1549.2999999523163,490688.0,8032,WL,C,7.0
4,13.345999956130981,learn,46654.00004386902,Wed Aug 20 2025 13:30:42 GMT-0500 (Central Daylight Time),492536.89999997616,A,doctorenter,I,enter,293,2,1848.8999999761581,490688.0,8032,WL,C,7.0
4,13.911999940872192,learn,46088.00005912781,Wed Aug 20 2025 13:30:42 GMT-0500 (Central Daylight Time),493103.7000000477,A,c,I,c,551,2,566.4000000953674,492537.2999999523,8032,WL,C,8.0
4,14.062000036239624,learn,45937.999963760376,Wed Aug 20 2025 13:30:42 GMT-0500 (Central Daylight Time),493253.7999999523,A,ca,I,a,131,2,716.5,492537.2999999523,8032,WL,C,8.0
4,14.19599986076355,learn,45804.00013923645,Wed Aug 20 2025 13:30:42 GMT-0500 (Central Daylight Time),493387.2000000477,A,cam,I,m,115,2,849.9000000953674,492537.2999999523,8032,WL,C,8.0
4,14.378999948501587,learn,45621.00005149841,Wed Aug 20 2025 13:30:42 GMT-0500 (Central Daylight Time),493570.2000000477,A,camp,I,p,169,2,1032.9000000953674,492537.2999999523,8032,WL,C,8.0
4,14.76199984550476,learn,45238.00015449524,Wed Aug 20 2025 13:30:42 GMT-0500 (Central Daylight Time),493953.2999999523,A,campenter,I,enter,368,2,1416.0,492537.2999999523,8032,WL,C,8.0
4,15.09500002861023,learn,44904.99997138977,Wed Aug 20 2025 13:30:42 GMT-0500 (Central Daylight Time),494286.7999999523,A,n,I,n,322,2,333.1999999284744,493953.60000002384,8032,WL,C,9.0
4,15.228999853134155,learn,44771.000146865845,Wed Aug 20 2025 13:30:42 GMT-0500 (Central Daylight Time),494420.0,A,na,I,a,116,2,466.39999997615814,493953.60000002384,8032,WL,C,9.0
4,15.394999980926514,learn,44605.000019073486,Wed Aug 20 2025 13:30:42 GMT-0500 (Central Daylight Time),494586.5,A,nai,I,i,159,2,632.8999999761581,493953.60000002384,8032,WL,C,9.0
4,16.027999877929688,learn,43972.00012207031,Wed Aug 20 2025 13:30:42 GMT-0500 (Central Daylight Time),495219.7000000477,A,nail,I,l,617,2,1266.1000000238419,493953.60000002384,8032,WL,C,9.0
4,16.494999885559082,learn,43505.00011444092,Wed Aug 20 2025 13:30:42 GMT-0500 (Central Daylight Time),495686.2999999523,A,nailenter,I,enter,442,2,1732.6999999284744,493953.60000002384,8032,WL,C,9.0
4,16.91100001335144,learn,43088.99998664856,Wed Aug 20 2025 13:30:42 GMT-0500 (Central Daylight Time),496102.7000000477,A,b,I,b,402,2,416.10000002384186,495686.60000002384,8032,WL,C,10.0
4,17.060999870300293,learn,42939.00012969971,Wed Aug 20 2025 13:30:42 GMT-0500 (Central Daylight Time),496252.7000000477,A,bo,I,o,130,2,566.1000000238419,495686.60000002384,8032,WL,C,10.0
4,17.227999925613403,learn,42772.0000743866,Wed Aug 20 2025 13:30:42 GMT-0500 (Central Daylight Time),496419.2999999523,A,bod,I,d,158,2,732.6999999284744,495686.60000002384,8032,WL,C,10.0
4,17.41100001335144,learn,42588.99998664856,Wed Aug 20 2025 13:30:42 GMT-0500 (Central Daylight Time),496602.5,A,body,I,y,168,2,915.8999999761581,495686.60000002384,8032,WL,C,10.0
4,17.710999965667725,learn,42289.000034332275,Wed Aug 20 2025 13:30:42 GMT-0500 (Central Daylight Time),496902.39999997616,A,bodyenter,I,enter,289,2,1215.7999999523163,495686.60000002384,8032,WL,C,10.0
4,18.0939998626709,learn,41906.0001373291,Wed Aug 20 2025 13:30:42 GMT-0500 (Central Daylight Time),497285.7999999523,A,l,I,l,372,2,383.0,496902.7999999523,8032,WL,C,11.0
4,18.26099991798401,learn,41739.00008201599,Wed Aug 20 2025 13:30:42 GMT-0500 (Central Daylight Time),497452.39999997616,A,le,I,e,157,2,549.6000000238419,496902.7999999523,8032,WL,C,11.0
4,18.460999965667725,learn,41539.000034332275,Wed Aug 20 2025 13:30:42 GMT-0500 (Central Daylight Time),497652.2000000477,A,let,I,t,182,2,749.4000000953674,496902.7999999523,8032,WL,C,11.0
4,18.611000061035156,learn,41388.999938964844,Wed Aug 20 2025 13:30:42 GMT-0500 (Central Daylight Time),497801.89999997616,A,lett,I,t,137,2,899.1000000238419,496902.7999999523,8032,WL,C,11.0
4,18.759999990463257,learn,41240.00000953674,Wed Aug 20 2025 13:30:42 GMT-0500 (Central Daylight Time),497951.7000000477,A,lette,I,e,144,2,1048.9000000953674,496902.7999999523,8032,WL,C,11.0
4,18.876999855041504,learn,41123.000144958496,Wed Aug 20 2025 13:30:42 GMT-0500 (Central Daylight Time),498068.7999999523,A,letter,I,r,108,2,1166.0,496902.7999999523,8032,WL,C,11.0
4,19.32699990272522,learn,40673.00009727478,Wed Aug 20 2025 13:30:42 GMT-0500 (Central Daylight Time),498518.5,A,letterenter,I,enter,428,2,1615.7000000476837,496902.7999999523,8032,WL,C,11.0
4,19.694000005722046,learn,40305.999994277954,Wed Aug 20 2025 13:30:42 GMT-0500 (Central Daylight Time),498885.5,A,c,I,c,347,2,366.60000002384186,498518.89999997616,8032,WL,C,12.0
4,19.776999950408936,learn,40223.000049591064,Wed Aug 20 2025 13:30:42 GMT-0500 (Central Daylight Time),498968.5,A,co,I,o,66,2,449.60000002384186,498518.89999997616,8032,WL,C,12.0
4,19.99399995803833,learn,40006.00004196167,Wed Aug 20 2025 13:30:42 GMT-0500 (Central Daylight Time),499185.10000002384,A,cor,I,r,199,2,666.2000000476837,498518.89999997616,8032,WL,C,12.0
4,20.14400005340576,learn,39855.99994659424,Wed Aug 20 2025 13:30:42 GMT-0500 (Central Daylight Time),499335.2000000477,A,corn,I,n,138,2,816.3000000715256,498518.89999997616,8032,WL,C,12.0
4,20.792999982833862,learn,39207.00001716614,Wed Aug 20 2025 13:30:42 GMT-0500 (Central Daylight Time),499984.7000000477,A,cornenter,I,enter,643,2,1465.8000000715256,498518.89999997616,8032,WL,C,12.0
4,22.942999839782715,learn,37057.000160217285,Wed Aug 20 2025 13:30:42 GMT-0500 (Central Daylight Time),502134.2000000477,A,s,I,s,2130,2,2149.2000000476837,499985.0,8032,WL,C,13.0
4,23.075999975204468,learn,36924.00002479553,Wed Aug 20 2025 13:30:42 GMT-0500 (Central Daylight Time),502267.39999997616,A,sh,I,h,125,2,2282.399999976158,499985.0,8032,WL,C,13.0
4,23.2260000705719,learn,36773.9999294281,Wed Aug 20 2025 13:30:42 GMT-0500 (Central Daylight Time),502417.5,A,sho,I,o,135,2,2432.5,499985.0,8032,WL,C,13.0
4,23.358999967575073,learn,36641.00003242493,Wed Aug 20 2025 13:30:42 GMT-0500 (Central Daylight Time),502550.7000000477,A,shor,I,r,121,2,2565.7000000476837,499985.0,8032,WL,C,13.0
4,23.493000030517578,learn,36506.99996948242,Wed Aug 20 2025 13:30:42 GMT-0500 (Central Daylight Time),502684.2999999523,A,shore,I,e,116,2,2699.2999999523163,499985.0,8032,WL,C,13.0
4,23.908999919891357,learn,36091.00008010864,Wed Aug 20 2025 13:30:42 GMT-0500 (Central Daylight Time),503100.39999997616,A,shoreenter,I,enter,405,2,3115.399999976158,499985.0,8032,WL,C,13.0
4,25.907999992370605,learn,34092.000007629395,Wed Aug 20 2025 13:30:42 GMT-0500 (Central Daylight Time),505099.7999999523,A,f,I,f,1983,2,1999.0999999046326,503100.7000000477,8032,WL,C,14.0
4,26.007999897003174,learn,33992.000102996826,Wed Aug 20 2025 13:30:42 GMT-0500 (Central Daylight Time),505199.7999999523,A,fl,I,l,93,2,2099.0999999046326,503100.7000000477,8032,WL,C,14.0
4,26.10800004005432,learn,33891.99995994568,Wed Aug 20 2025 13:30:42 GMT-0500 (Central Daylight Time),505299.7999999523,A,fla,I,a,83,2,2199.0999999046326,503100.7000000477,8032,WL,C,14.0
4,26.70799994468689,learn,33292.00005531311,Wed Aug 20 2025 13:30:42 GMT-0500 (Central Daylight Time),505899.7999999523,A,flag,I,g,591,2,2799.0999999046326,503100.7000000477,8032,WL,C,14.0
4,27.04200005531311,learn,32957.99994468689,Wed Aug 20 2025 13:30:42 GMT-0500 (Central Daylight Time),506232.89999997616,A,flagenter,I,enter,323,2,3132.1999999284744,503100.7000000477,8032,WL,C,14.0
4,27.391000032424927,learn,32608.999967575073,Wed Aug 20 2025 13:30:42 GMT-0500 (Central Daylight Time),506582.7999999523,A,n,I,n,329,2,349.5,506233.2999999523,8032,WL,C,15.0
4,27.507999897003174,learn,32492.000102996826,Wed Aug 20 2025 13:30:42 GMT-0500 (Central Daylight Time),506699.2999999523,A,na,I,a,98,2,466.0,506233.2999999523,8032,WL,C,15.0
4,27.60800004005432,learn,32391.99995994568,Wed Aug 20 2025 13:30:42 GMT-0500 (Central Daylight Time),506799.39999997616,A,nai,I,i,90,2,566.1000000238419,506233.2999999523,8032,WL,C,15.0
4,27.740999937057495,learn,32259.000062942505,Wed Aug 20 2025 13:30:42 GMT-0500 (Central Daylight Time),506932.60000002384,A,nail,I,l,116,2,699.3000000715256,506233.2999999523,8032,WL,C,15.0
4,28.240999937057495,learn,31759.000062942505,Wed Aug 20 2025 13:30:42 GMT-0500 (Central Daylight Time),507432.5,A,nailenter,I,enter,483,2,1199.2000000476837,506233.2999999523,8032,WL,C,15.0
5,0.3840000629425049,learn,60000.0,Wed Aug 20 2025 13:30:42 GMT-0500 (Central Daylight Time),578460.3999999762,A,t,I,t,366,2,383.1999999284744,578077.2000000477,8032,WL,C,1.0
5,0.6329998970031738,learn,60000.0,Wed Aug 20 2025 13:30:42 GMT-0500 (Central Daylight Time),578710.0,A,to,I,o,230,2,632.7999999523163,578077.2000000477,8032,WL,C,1.0
5,0.8169999122619629,learn,60000.0,Wed Aug 20 2025 13:30:42 GMT-0500 (Central Daylight Time),578893.7000000477,A,tow,I,w,167,2,816.5,578077.2000000477,8032,WL,C,1.0
5,0.8829998970031738,learn,60000.0,Wed Aug 20 2025 13:30:42 GMT-0500 (Central Daylight Time),578959.7999999523,A,towe,I,e,61,2,882.5999999046326,578077.2000000477,8032,WL,C,1.0
5,1.066999912261963,learn,60000.0,Wed Aug 20 2025 13:30:42 GMT-0500 (Central Daylight Time),579143.3999999762,A,tower,I,r,179,2,1066.1999999284744,578077.2000000477,8032,WL,C,1.0
5,2.450000047683716,learn,60000.0,Wed Aug 20 2025 13:30:42 GMT-0500 (Central Daylight Time),580526.2999999523,A,towerenter,I,enter,1372,2,2449.0999999046326,578077.2000000477,8032,WL,C,1.0
5,2.815999984741211,learn,60000.0,Wed Aug 20 2025 13:30:42 GMT-0500 (Central Daylight Time),580892.7999999523,A,w,I,w,344,2,366.0,580526.7999999523,8032,WL,C,2.0
5,3.0329999923706055,learn,60000.0,Wed Aug 20 2025 13:30:42 GMT-0500 (Central Daylight Time),581109.3999999762,A,wh,I,h,198,2,582.6000000238419,580526.7999999523,8032,WL,C,2.0
5,3.1989998817443848,learn,60000.0,Wed Aug 20 2025 13:30:42 GMT-0500 (Central Daylight Time),581276.1000000238,A,whe,I,e,147,2,749.3000000715256,580526.7999999523,8032,WL,C,2.0
5,3.3329999446868896,learn,60000.0,Wed Aug 20 2025 13:30:42 GMT-0500 (Central Daylight Time),581409.2999999523,A,whea,I,a,120,2,882.5,580526.7999999523,8032,WL,C,2.0
5,3.4830000400543213,learn,60000.0,Wed Aug 20 2025 13:30:42 GMT-0500 (Central Daylight Time),581559.2000000477,A,wheat,I,t,143,2,1032.4000000953674,580526.7999999523,8032,WL,C,2.0
5,3.7319998741149902,learn,60000.0,Wed Aug 20 2025 13:30:42 GMT-0500 (Central Daylight Time),581809.0,A,wheatenter,I,enter,243,2,1282.2000000476837,580526.7999999523,8032,WL,C,2.0
5,4.431999921798706,learn,60000.0,Wed Aug 20 2025 13:30:42 GMT-0500 (Central Daylight Time),582508.8999999762,A,q,I,q,682,2,699.5,581809.3999999762,8032,WL,C,3.0
5,5.098999977111816,learn,60000.0,Wed Aug 20 2025 13:30:42 GMT-0500 (Central Daylight Time),583175.5,A,qu,I,u,643,2,1366.1000000238419,581809.3999999762,8032,WL,C,3.0
5,5.348999977111816,learn,60000.0,Wed Aug 20 2025 13:30:42 GMT-0500 (Central Daylight Time),583425.2000000477,A,que,I,e,244,2,1615.8000000715256,581809.3999999762,8032,WL,C,3.0
5,5.631999969482422,learn,60000.0,Wed Aug 20 2025 13:30:42 GMT-0500 (Central Daylight Time),583708.7000000477,A,quee,I,e,270,2,1899.3000000715256,581809.3999999762,8032,WL,C,3.0
5,5.832000017166138,learn,60000.0,Wed Aug 20 2025 13:30:42 GMT-0500 (Central Daylight Time),583908.5,A,queen,I,n,182,2,2099.100000023842,581809.3999999762,8032,WL,C,3.0
5,6.115000009536743,learn,60000.0,Wed Aug 20 2025 13:30:42 GMT-0500 (Central Daylight Time),584191.6000000238,A,queenenter,I,enter,261,2,2382.2000000476837,581809.3999999762,8032,WL,C,3.0
5,6.615000009536743,learn,60000.0,Wed Aug 20 2025 13:30:42 GMT-0500 (Central Daylight Time),584691.5,A,s,I,s,483,2,499.60000002384186,584191.8999999762,8032,WL,C,4.0
5,6.747999906539917,learn,60000.0,Wed Aug 20 2025 13:30:42 GMT-0500 (Central Daylight Time),584824.6000000238,A,su,I,u,127,2,632.7000000476837,584191.8999999762,8032,WL,C,4.0
5,6.9649999141693115,learn,60000.0,Wed Aug 20 2025 13:30:42 GMT-0500 (Central Daylight Time),585041.5,A,sur,I,r,210,2,849.6000000238419,584191.8999999762,8032,WL,C,4.0
5,7.447999954223633,learn,60000.0,Wed Aug 20 2025 13:30:42 GMT-0500 (Central Daylight Time),585524.7000000477,A,su,I,backspace,465,2,1332.8000000715256,584191.8999999762,8032,WL,C,4.0
5,7.514999866485596,learn,60000.0,Wed Aug 20 2025 13:30:42 GMT-0500 (Central Daylight Time),585591.2000000477,A,sug,I,g,50,2,1399.3000000715256,584191.8999999762,8032,WL,C,4.0
5,8.148000001907349,learn,60000.0,Wed Aug 20 2025 13:30:42 GMT-0500 (Central Daylight Time),586224.5,A,suga,I,a,620,2,2032.6000000238419,584191.8999999762,8032,WL,C,4.0
5,8.348000049591064,learn,60000.0,Wed Aug 20 2025 13:30:42 GMT-0500 (Central Daylight Time),586424.5,A,sugar,I,r,186,2,2232.600000023842,584191.8999999762,8032,WL,C,4.0
5,8.580999851226807,learn,60000.0,Wed Aug 20 2025 13:30:42 GMT-0500 (Central Daylight Time),586657.5,A,sugarenter,I,enter,221,2,2465.600000023842,584191.8999999762,8032,WL,C,4.0
5,9.080999851226807,learn,60000.0,Wed Aug 20 2025 13:30:42 GMT-0500 (Central Daylight Time),587157.6000000238,A,b,I,b,489,2,499.8000000715256,586657.7999999523,8032,WL,C,5.0
5,9.197999954223633,learn,60000.0,Wed Aug 20 2025 13:30:42 GMT-0500 (Central Daylight Time),587274.2999999523,A,bo,I,o,108,2,616.5,586657.7999999523,8032,WL,C,5.0
5,9.46399998664856,learn,60000.0,Wed Aug 20 2025 13:30:42 GMT-0500 (Central Daylight Time),587540.2000000477,A,boy,I,y,256,2,882.4000000953674,586657.7999999523,8032,WL,C,5.0
5,10.664000034332275,learn,60000.0,Wed Aug 20 2025 13:30:42 GMT-0500 (Central Daylight Time),588740.2999999523,A,boyenter,I,enter,1183,2,2082.5,586657.7999999523,8032,WL,C,5.0
5,11.147000074386597,learn,60000.0,Wed Aug 20 2025 13:30:42 GMT-0500 (Central Daylight Time),589223.2999999523,A,h,I,h,478,2,482.6999999284744,588740.6000000238,8032,WL,C,6.0
5,11.29699993133545,learn,60000.0,Wed Aug 20 2025 13:30:42 GMT-0500 (Central Daylight Time),589373.6000000238,A,ho,I,o,140,2,633.0,588740.6000000238,8032,WL,C,6.0
5,11.480000019073486,learn,60000.0,Wed Aug 20 2025 13:30:42 GMT-0500 (Central Daylight Time),589556.7999999523,A,hom,I,m,166,2,816.1999999284744,588740.6000000238,8032,WL,C,6.0
5,11.647000074386597,learn,60000.0,Wed Aug 20 2025 13:30:42 GMT-0500 (Central Daylight Time),589723.3999999762,A,home,I,e,152,2,982.7999999523163,588740.6000000238,8032,WL,C,6.0
5,11.996000051498413,learn,60000.0,Wed Aug 20 2025 13:30:42 GMT-0500 (Central Daylight Time),590073.1000000238,A,homeenter,I,enter,343,2,1332.5,588740.6000000238,8032,WL,C,6.0
5,12.312999963760376,learn,60000.0,Wed Aug 20 2025 13:30:42 GMT-0500 (Central Daylight Time),590389.7999999523,A,d,I,d,298,2,316.2999999523163,590073.5,8032,WL,C,7.0
5,12.44599986076355,learn,60000.0,Wed Aug 20 2025 13:30:42 GMT-0500 (Central Daylight Time),590523.0,A,do,I,o,125,2,449.5,590073.5,8032,WL,C,7.0
5,12.596999883651733,learn,60000.0,Wed Aug 20 2025 13:30:42 GMT-0500 (Central Daylight Time),590673.2000000477,A,doc,I,c,136,2,599.7000000476837,590073.5,8032,WL,C,7.0
5,12.845999956130981,learn,60000.0,Wed Aug 20 2025 13:30:42 GMT-0500 (Central Daylight Time),590922.7000000477,A,doct,I,t,241,2,849.2000000476837,590073.5,8032,WL,C,7.0
5,13.062999963760376,learn,60000.0,Wed Aug 20 2025 13:30:42 GMT-0500 (Central Daylight Time),591139.6000000238,A,docto,I,o,209,2,1066.1000000238419,590073.5,8032,WL,C,7.0
5,13.345999956130981,learn,60000.0,Wed Aug 20 2025 13:30:42 GMT-0500 (Central Daylight Time),591422.7999999523,A,doctor,I,r,263,2,1349.2999999523163,590073.5,8032,WL,C,7.0
5,13.813999891281128,learn,60000.0,Wed Aug 20 2025 13:30:42 GMT-0500 (Central Daylight Time),591890.3999999762,A,doctorenter,I,enter,459,2,1816.8999999761581,590073.5,8032,WL,C,7.0
5,14.428999900817871,learn,60000.0,Wed Aug 20 2025 13:30:42 GMT-0500 (Central Daylight Time),592505.7999999523,A,c,I,c,608,2,615.0999999046326,591890.7000000477,8032,WL,C,8.0
5,14.628999948501587,learn,60000.0,Wed Aug 20 2025 13:30:42 GMT-0500 (Central Daylight Time),592706.1000000238,A,co,I,o,185,2,815.3999999761581,591890.7000000477,8032,WL,C,8.0
5,14.79699993133545,learn,60000.0,Wed Aug 20 2025 13:30:42 GMT-0500 (Central Daylight Time),592873.5,A,cor,I,r,162,2,982.7999999523163,591890.7000000477,8032,WL,C,8.0
5,15.062000036239624,learn,60000.0,Wed Aug 20 2025 13:30:42 GMT-0500 (Central Daylight Time),593138.7999999523,A,corn,I,n,249,2,1248.0999999046326,591890.7000000477,8032,WL,C,8.0
5,16.34500002861023,learn,60000.0,Wed Aug 20 2025 13:30:42 GMT-0500 (Central Daylight Time),594421.7999999523,A,cornenter,I,enter,1259,2,2531.0999999046326,591890.7000000477,8032,WL,C,8.0
5,16.77900004386902,learn,60000.0,Wed Aug 20 2025 13:30:42 GMT-0500 (Central Daylight Time),594855.7000000477,A,c,I,c,429,2,433.7000000476837,594422.0,8032,WL,C,9.0
5,16.944999933242798,learn,60000.0,Wed Aug 20 2025 13:30:42 GMT-0500 (Central Daylight Time),595021.7000000477,A,ca,I,a,142,2,599.7000000476837,594422.0,8032,WL,C,9.0
5,17.09500002861023,learn,60000.0,Wed Aug 20 2025 13:30:42 GMT-0500 (Central Daylight Time),595171.7000000477,A,cat,I,t,131,2,749.7000000476837,594422.0,8032,WL,C,9.0
5,17.244999885559082,learn,60000.0,Wed Aug 20 2025 13:30:42 GMT-0500 (Central Daylight Time),595322.1000000238,A,catt,I,t,141,2,900.1000000238419,594422.0,8032,WL,C,9.0
5,17.41100001335144,learn,60000.0,Wed Aug 20 2025 13:30:42 GMT-0500 (Central Daylight Time),595488.1000000238,A,cattl,I,l,153,2,1066.1000000238419,594422.0,8032,WL,C,9.0
5,17.545000076293945,learn,60000.0,Wed Aug 20 2025 13:30:42 GMT-0500 (Central Daylight Time),595622.0,A,cattle,I,e,115,2,1200.0,594422.0,8032,WL,C,9.0
5,17.82800006866455,learn,60000.0,Wed Aug 20 2025 13:30:42 GMT-0500 (Central Daylight Time),595904.6000000238,A,cattleenter,I,enter,275,2,1482.6000000238419,594422.0,8032,WL,C,9.0
5,18.477999925613403,learn,60000.0,Wed Aug 20 2025 13:30:42 GMT-0500 (Central Daylight Time),596554.5,A,c,I,c,642,2,649.3999999761581,595905.1000000238,8032,WL,C,10.0
5,18.626999855041504,learn,60000.0,Wed Aug 20 2025 13:30:42 GMT-0500 (Central Daylight Time),596704.1000000238,A,ca,I,a,136,2,799.0,595905.1000000238,8032,WL,C,10.0
5,18.793999910354614,learn,60000.0,Wed Aug 20 2025 13:30:42 GMT-0500 (Central Daylight Time),596871.1000000238,A,cam,I,m,147,2,966.0,595905.1000000238,8032,WL,C,10.0
5,18.977999925613403,learn,60000.0,Wed Aug 20 2025 13:30:42 GMT-0500 (Central Daylight Time),597054.3999999762,A,camp,I,p,164,2,1149.2999999523163,595905.1000000238,8032,WL,C,10.0
5,19.427000045776367,learn,60000.0,Wed Aug 20 2025 13:30:42 GMT-0500 (Central Daylight Time),597504.2000000477,A,campenter,I,enter,437,2,1599.1000000238419,595905.1000000238,8032,WL,C,10.0
5,19.810999870300293,learn,60000.0,Wed Aug 20 2025 13:30:42 GMT-0500 (Central Daylight Time),597887.7000000477,A,f,I,f,355,2,383.2000000476837,597504.5,8032,WL,C,11.0
5,19.927000045776367,learn,60000.0,Wed Aug 20 2025 13:30:42 GMT-0500 (Central Daylight Time),598004.0,A,fl,I,l,107,2,499.5,597504.5,8032,WL,C,11.0
5,20.05999994277954,learn,60000.0,Wed Aug 20 2025 13:30:42 GMT-0500 (Central Daylight Time),598137.2999999523,A,fla,I,a,111,2,632.7999999523163,597504.5,8032,WL,C,11.0
5,20.427000045776367,learn,60000.0,Wed Aug 20 2025 13:30:42 GMT-0500 (Central Daylight Time),598503.8999999762,A,flag,I,g,355,2,999.3999999761581,597504.5,8032,WL,C,11.0
5,20.72699999809265,learn,60000.0,Wed Aug 20 2025 13:30:42 GMT-0500 (Central Daylight Time),598803.8999999762,A,flagenter,I,enter,291,2,1299.3999999761581,597504.5,8032,WL,C,11.0
5,22.39400005340576,learn,60000.0,Wed Aug 20 2025 13:30:42 GMT-0500 (Central Daylight Time),600470.6000000238,A,s,I,s,1641,2,1666.3999999761581,598804.2000000477,8032,WL,C,12.0
5,22.509999990463257,learn,60000.0,Wed Aug 20 2025 13:30:42 GMT-0500 (Central Daylight Time),600586.3999999762,A,sh,I,h,108,2,1782.1999999284744,598804.2000000477,8032,WL,C,12.0
5,22.609999895095825,learn,60000.0,Wed Aug 20 2025 13:30:42 GMT-0500 (Central Daylight Time),600686.5,A,sho,I,o,86,2,1882.2999999523163,598804.2000000477,8032,WL,C,12.0
5,22.7260000705719,learn,60000.0,Wed Aug 20 2025 13:30:42 GMT-0500 (Central Daylight Time),600803.2999999523,A,shor,I,r,108,2,1999.0999999046326,598804.2000000477,8032,WL,C,12.0
5,22.825999975204468,learn,60000.0,Wed Aug 20 2025 13:30:42 GMT-0500 (Central Daylight Time),600903.1000000238,A,shore,I,e,96,2,2098.899999976158,598804.2000000477,8032,WL,C,12.0
5,23.292999982833862,learn,60000.0,Wed Aug 20 2025 13:30:42 GMT-0500 (Central Daylight Time),601370.0,A,shoreenter,I,enter,447,2,2565.7999999523163,598804.2000000477,8032,WL,C,12.0
5,23.743000030517578,learn,60000.0,Wed Aug 20 2025 13:30:42 GMT-0500 (Central Daylight Time),601819.3999999762,A,n,I,n,430,2,449.10000002384186,601370.2999999523,8032,WL,C,13.0
5,23.908999919891357,learn,60000.0,Wed Aug 20 2025 13:30:42 GMT-0500 (Central Daylight Time),601986.1000000238,A,na,I,a,153,2,615.8000000715256,601370.2999999523,8032,WL,C,13.0
5,24.259000062942505,learn,60000.0,Wed Aug 20 2025 13:30:42 GMT-0500 (Central Daylight Time),602336.1000000238,A,nai,I,i,337,2,965.8000000715256,601370.2999999523,8032,WL,C,13.0
5,24.45899987220764,learn,60000.0,Wed Aug 20 2025 13:30:42 GMT-0500 (Central Daylight Time),602536.1000000238,A,nail,I,l,186,2,1165.8000000715256,601370.2999999523,8032,WL,C,13.0
5,25.658999919891357,learn,60000.0,Wed Aug 20 2025 13:30:42 GMT-0500 (Central Daylight Time),603736.1000000238,A,nailb,I,b,1193,2,2365.8000000715256,601370.2999999523,8032,WL,C,13.0
5,25.741999864578247,learn,60000.0,Wed Aug 20 2025 13:30:42 GMT-0500 (Central Daylight Time),603818.8999999762,A,nailbo,I,o,76,2,2448.600000023842,601370.2999999523,8032,WL,C,13.0
5,25.991999864578247,learn,60000.0,Wed Aug 20 2025 13:30:42 GMT-0500 (Central Daylight Time),604068.8999999762,A,nailbod,I,d,234,2,2698.600000023842,601370.2999999523,8032,WL,C,13.0
5,26.424999952316284,learn,60000.0,Wed Aug 20 2025 13:30:42 GMT-0500 (Central Daylight Time),604502.1000000238,A,nailbo,I,backspace,414,2,3131.8000000715256,601370.2999999523,8032,WL,C,13.0
5,26.60800004005432,learn,60000.0,Wed Aug 20 2025 13:30:42 GMT-0500 (Central Daylight Time),604685.2000000477,A,nailb,I,backspace,158,2,3314.9000000953674,601370.2999999523,8032,WL,C,13.0
5,26.757999897003174,learn,60000.0,Wed Aug 20 2025 13:30:42 GMT-0500 (Central Daylight Time),604835.3999999762,A,nail,I,backspace,141,2,3465.100000023842,601370.2999999523,8032,WL,C,13.0
5,27.20799994468689,learn,60000.0,Wed Aug 20 2025 13:30:42 GMT-0500 (Central Daylight Time),605285.1000000238,A,nailenter,I,enter,426,2,3914.8000000715256,601370.2999999523,8032,WL,C,13.0
5,27.657999992370605,learn,60000.0,Wed Aug 20 2025 13:30:42 GMT-0500 (Central Daylight Time),605735.2000000477,A,b,I,b,429,2,449.7000000476837,605285.5,8032,WL,C,14.0
5,28.075000047683716,learn,60000.0,Wed Aug 20 2025 13:30:42 GMT-0500 (Central Daylight Time),606151.6000000238,A,bo,I,o,393,2,866.1000000238419,605285.5,8032,WL,C,14.0
5,28.274999856948853,learn,60000.0,Wed Aug 20 2025 13:30:42 GMT-0500 (Central Daylight Time),606351.3999999762,A,bod,I,d,193,2,1065.8999999761581,605285.5,8032,WL,C,14.0
5,28.524999856948853,learn,60000.0,Wed Aug 20 2025 13:30:42 GMT-0500 (Central Daylight Time),606601.6000000238,A,body,I,y,235,2,1316.1000000238419,605285.5,8032,WL,C,14.0
5,28.990999937057495,learn,60000.0,Wed Aug 20 2025 13:30:42 GMT-0500 (Central Daylight Time),607067.8999999762,A,bodyenter,I,enter,450,2,1782.3999999761581,605285.5,8032,WL,C,14.0
5,31.6729998588562,learn,60000.0,Wed Aug 20 2025 13:30:42 GMT-0500 (Central Daylight Time),609750.2000000477,A,f,I,f,2663,2,2682.100000023842,607068.1000000238,8032,WL,C,15.0
5,31.789999961853027,learn,60000.0,Wed Aug 20 2025 13:30:42 GMT-0500 (Central Daylight Time),609867.2000000477,A,fl,I,l,100,2,2799.100000023842,607068.1000000238,8032,WL,C,15.0
5,31.907000064849854,learn,60000.0,Wed Aug 20 2025 13:30:42 GMT-0500 (Central Daylight Time),609983.7999999523,A,fla,I,a,96,2,2915.6999999284744,607068.1000000238,8032,WL,C,15.0
5,32.27300000190735,learn,60000.0,Wed Aug 20 2025 13:30:42 GMT-0500 (Central Daylight Time),610350.2000000477,A,flag,I,g,347,2,3282.100000023842,607068.1000000238,8032,WL,C,15.0
5,32.53999996185303,learn,60000.0,Wed Aug 20 2025 13:30:42 GMT-0500 (Central Daylight Time),610616.7000000477,A,flagenter,I,enter,251,2,3548.600000023842,607068.1000000238,8032,WL,C,15.0
6,0.6329998970031738,distr,59367.000102996826,Wed Aug 20 2025 13:30:42 GMT-0500 (Central Daylight Time),686426.5,B,s,I,s,626,2,633.1000000238419,685793.3999999762,8032,WL,C,1.0
6,0.750999927520752,distr,59249.00007247925,Wed Aug 20 2025 13:30:42 GMT-0500 (Central Daylight Time),686544.1000000238,B,sk,I,k,95,2,750.7000000476837,685793.3999999762,8032,WL,C,1.0
6,0.9669997692108154,distr,59033.000230789185,Wed Aug 20 2025 13:30:42 GMT-0500 (Central Daylight Time),686759.7000000477,B,sky,I,y,203,2,966.3000000715256,685793.3999999762,8032,WL,C,1.0
6,1.25,distr,58750.0,Wed Aug 20 2025 13:30:42 GMT-0500 (Central Daylight Time),687042.7000000477,B,skyenter,I,enter,276,2,1249.3000000715256,685793.3999999762,8032,WL,C,1.0
6,1.6669998168945312,distr,58333.00018310547,Wed Aug 20 2025 13:30:42 GMT-0500 (Central Daylight Time),687459.6000000238,B,d,I,d,400,2,416.5,687043.1000000238,8032,WL,C,2.0
6,1.7659997940063477,distr,58234.00020599365,Wed Aug 20 2025 13:30:42 GMT-0500 (Central Daylight Time),687559.2999999523,B,do,I,o,79,2,516.1999999284744,687043.1000000238,8032,WL,C,2.0
6,1.9659998416900635,distr,58034.00015830994,Wed Aug 20 2025 13:30:42 GMT-0500 (Central Daylight Time),687759.1000000238,B,dol,I,l,195,2,716.0,687043.1000000238,8032,WL,C,2.0
6,2.182999849319458,distr,57817.00015068054,Wed Aug 20 2025 13:30:42 GMT-0500 (Central Daylight Time),687976.2000000477,B,doll,I,l,196,2,933.1000000238419,687043.1000000238,8032,WL,C,2.0
6,2.3329999446868896,distr,57667.00005531311,Wed Aug 20 2025 13:30:42 GMT-0500 (Central Daylight Time),688126.0,B,dolla,I,a,130,2,1082.8999999761581,687043.1000000238,8032,WL,C,2.0
6,2.5159997940063477,distr,57484.00020599365,Wed Aug 20 2025 13:30:42 GMT-0500 (Central Daylight Time),688309.0,B,dollar,I,r,173,2,1265.8999999761581,687043.1000000238,8032,WL,C,2.0
6,2.881999969482422,distr,57118.00003051758,Wed Aug 20 2025 13:30:42 GMT-0500 (Central Daylight Time),688675.5,B,dollarenter,I,enter,350,2,1632.3999999761581,687043.1000000238,8032,WL,C,2.0
6,3.4009997844696045,distr,56599.000215530396,Wed Aug 20 2025 13:30:42 GMT-0500 (Central Daylight Time),689194.2000000477,B,o,I,o,513,2,518.4000000953674,688675.7999999523,8032,WL,C,3.0
6,3.548999786376953,distr,56451.00021362305,Wed Aug 20 2025 13:30:42 GMT-0500 (Central Daylight Time),689342.0,B,on,I,n,136,2,666.2000000476837,688675.7999999523,8032,WL,C,3.0
6,4.098999977111816,distr,55901.00002288818,Wed Aug 20 2025 13:30:42 GMT-0500 (Central Daylight Time),689891.7999999523,B,o,I,backspace,541,2,1216.0,688675.7999999523,8032,WL,C,3.0
6,4.31499981880188,distr,55685.00018119812,Wed Aug 20 2025 13:30:42 GMT-0500 (Central Daylight Time),690108.3999999762,B,,I,backspace,199,2,1432.6000000238419,688675.7999999523,8032,WL,C,3.0
6,4.631999969482422,distr,55368.00003051758,Wed Aug 20 2025 13:30:42 GMT-0500 (Central Daylight Time),690425.2000000477,B,m,I,m,311,2,1749.4000000953674,688675.7999999523,8032,WL,C,3.0
6,4.9649999141693115,distr,55035.00008583069,Wed Aug 20 2025 13:30:42 GMT-0500 (Central Daylight Time),690758.2999999523,B,mo,I,o,322,2,2082.5,688675.7999999523,8032,WL,C,3.0
6,5.264999866485596,distr,54735.000133514404,Wed Aug 20 2025 13:30:42 GMT-0500 (Central Daylight Time),691057.8999999762,B,mon,I,n,289,2,2382.100000023842,688675.7999999523,8032,WL,C,3.0
6,5.597999811172485,distr,54402.000188827515,Wed Aug 20 2025 13:30:42 GMT-0500 (Central Daylight Time),691391.5,B,mone,I,e,310,2,2715.7000000476837,688675.7999999523,8032,WL,C,3.0
6,5.797999858856201,distr,54202.0001411438,Wed Aug 20 2025 13:30:42 GMT-0500 (Central Daylight Time),691591.3999999762,B,money,I,y,195,2,2915.600000023842,688675.7999999523,8032,WL,C,3.0
6,6.114999771118164,distr,53885.000228881836,Wed Aug 20 2025 13:30:42 GMT-0500 (Central Daylight Time),691907.8999999762,B,moneyenter,I,enter,300,2,3232.100000023842,688675.7999999523,8032,WL,C,3.0
6,7.597999811172485,distr,52402.000188827515,Wed Aug 20 2025 13:30:42 GMT-0500 (Central Daylight Time),693390.8999999762,B,b,I,b,1463,2,1482.7999999523163,691908.1000000238,8032,WL,C,4.0
6,7.680999994277954,distr,52319.000005722046,Wed Aug 20 2025 13:30:42 GMT-0500 (Central Daylight Time),693474.1000000238,B,bu,I,u,69,2,1566.0,691908.1000000238,8032,WL,C,4.0
6,7.881999969482422,distr,52118.00003051758,Wed Aug 20 2025 13:30:42 GMT-0500 (Central Daylight Time),693674.8999999762,B,but,I,t,193,2,1766.7999999523163,691908.1000000238,8032,WL,C,4.0
6,8.080999851226807,distr,51919.00014877319,Wed Aug 20 2025 13:30:42 GMT-0500 (Central Daylight Time),693874.0,B,butt,I,t,191,2,1965.8999999761581,691908.1000000238,8032,WL,C,4.0
6,8.280999898910522,distr,51719.00010108948,Wed Aug 20 2025 13:30:42 GMT-0500 (Central Daylight Time),694074.2000000477,B,butte,I,e,186,2,2166.100000023842,691908.1000000238,8032,WL,C,4.0
6,8.38099980354309,distr,51619.00019645691,Wed Aug 20 2025 13:30:42 GMT-0500 (Central Daylight Time),694173.8999999762,B,butter,I,r,80,2,2265.7999999523163,691908.1000000238,8032,WL,C,4.0
6,8.646999835968018,distr,51353.00016403198,Wed Aug 20 2025 13:30:42 GMT-0500 (Central Daylight Time),694440.2000000477,B,butterenter,I,enter,261,2,2532.100000023842,691908.1000000238,8032,WL,C,4.0
6,8.946999788284302,distr,51053.0002117157,Wed Aug 20 2025 13:30:42 GMT-0500 (Central Daylight Time),694740.3999999762,B,d,I,d,285,2,300.0,694440.3999999762,8032,WL,C,5.0
6,9.063999891281128,distr,50936.00010871887,Wed Aug 20 2025 13:30:42 GMT-0500 (Central Daylight Time),694856.7000000477,B,di,I,i,105,2,416.3000000715256,694440.3999999762,8032,WL,C,5.0
6,9.196999788284302,distr,50803.0002117157,Wed Aug 20 2025 13:30:42 GMT-0500 (Central Daylight Time),694990.2000000477,B,dia,I,a,112,2,549.8000000715256,694440.3999999762,8032,WL,C,5.0
6,9.363999843597412,distr,50636.00015640259,Wed Aug 20 2025 13:30:42 GMT-0500 (Central Daylight Time),695156.8999999762,B,diam,I,m,151,2,716.5,694440.3999999762,8032,WL,C,5.0
6,9.646999835968018,distr,50353.00016403198,Wed Aug 20 2025 13:30:42 GMT-0500 (Central Daylight Time),695439.8999999762,B,diamo,I,o,276,2,999.5,694440.3999999762,8032,WL,C,5.0
6,9.879999876022339,distr,50120.00012397766,Wed Aug 20 2025 13:30:42 GMT-0500 (Central Daylight Time),695673.5,B,diamon,I,n,227,2,1233.1000000238419,694440.3999999762,8032,WL,C,5.0
6,10.613999843597412,distr,49386.00015640259,Wed Aug 20 2025 13:30:42 GMT-0500 (Central Daylight Time),696406.7999999523,B,diamond,I,d,713,2,1966.3999999761581,694440.3999999762,8032,WL,C,5.0
6,11.179999828338623,distr,48820.00017166138,Wed Aug 20 2025 13:30:42 GMT-0500 (Central Daylight Time),696973.2000000477,B,diamondenter,I,enter,555,2,2532.8000000715256,694440.3999999762,8032,WL,C,5.0
6,15.52899980545044,distr,44471.00019454956,Wed Aug 20 2025 13:30:42 GMT-0500 (Central Daylight Time),701322.0,B,c,I,c,4334,2,4348.600000023842,696973.3999999762,8032,WL,C,6.0
6,15.611999988555908,distr,44388.00001144409,Wed Aug 20 2025 13:30:42 GMT-0500 (Central Daylight Time),701405.0,B,ch,I,h,73,2,4431.600000023842,696973.3999999762,8032,WL,C,6.0
6,15.794999837875366,distr,44205.000162124634,Wed Aug 20 2025 13:30:42 GMT-0500 (Central Daylight Time),701588.1000000238,B,chr,I,r,165,2,4614.700000047684,696973.3999999762,8032,WL,C,6.0
6,15.92799997329712,distr,44072.00002670288,Wed Aug 20 2025 13:30:42 GMT-0500 (Central Daylight Time),701721.5,B,chri,I,i,115,2,4748.100000023842,696973.3999999762,8032,WL,C,6.0
6,16.310999870300293,distr,43689.00012969971,Wed Aug 20 2025 13:30:42 GMT-0500 (Central Daylight Time),702104.2999999523,B,chris,I,s,377,2,5130.899999976158,696973.3999999762,8032,WL,C,6.0
6,17.061999797821045,distr,42938.000202178955,Wed Aug 20 2025 13:30:42 GMT-0500 (Central Daylight Time),702854.6000000238,B,chrism,I,m,740,2,5881.200000047684,696973.3999999762,8032,WL,C,6.0
6,17.26099991798401,distr,42739.00008201599,Wed Aug 20 2025 13:30:42 GMT-0500 (Central Daylight Time),703054.5,B,chrisma,I,a,180,2,6081.100000023842,696973.3999999762,8032,WL,C,6.0
6,17.527999877929688,distr,42472.00012207031,Wed Aug 20 2025 13:30:42 GMT-0500 (Central Daylight Time),703321.1000000238,B,chrismas,I,s,252,2,6347.700000047684,696973.3999999762,8032,WL,C,6.0
6,17.810999870300293,distr,42189.00012969971,Wed Aug 20 2025 13:30:42 GMT-0500 (Central Daylight Time),703604.2000000477,B,chrismass,I,s,265,2,6630.800000071526,696973.3999999762,8032,WL,C,6.0
6,18.377999782562256,distr,41622.000217437744,Wed Aug 20 2025 13:30:42 GMT-0500 (Central Daylight Time),704170.7000000477,B,chrismas,I,backspace,550,2,7197.300000071526,696973.3999999762,8032,WL,C,6.0
6,18.776999950408936,distr,41223.000049591064,Wed Aug 20 2025 13:30:42 GMT-0500 (Central Daylight Time),704570.6000000238,B,chrismasenter,I,enter,392,2,7597.200000047684,696973.3999999762,8032,WL,C,6.0
6,19.143999814987183,distr,40856.00018501282,Wed Aug 20 2025 13:30:42 GMT-0500 (Central Daylight Time),704937.2999999523,B,p,I,p,352,2,366.39999997615814,704570.8999999762,8032,WL,C,7.0
6,19.41099977493286,distr,40589.00022506714,Wed Aug 20 2025 13:30:42 GMT-0500 (Central Daylight Time),705203.7999999523,B,pl,I,l,249,2,632.8999999761581,704570.8999999762,8032,WL,C,7.0
6,19.526999950408936,distr,40473.000049591064,Wed Aug 20 2025 13:30:42 GMT-0500 (Central Daylight Time),705320.1000000238,B,pla,I,a,111,2,749.2000000476837,704570.8999999762,8032,WL,C,7.0
6,19.676999807357788,distr,40323.00019264221,Wed Aug 20 2025 13:30:42 GMT-0500 (Central Daylight Time),705470.2999999523,B,plan,I,n,139,2,899.3999999761581,704570.8999999762,8032,WL,C,7.0
6,19.91099977493286,distr,40089.00022506714,Wed Aug 20 2025 13:30:42 GMT-0500 (Central Daylight Time),705703.7999999523,B,plant,I,t,205,2,1132.8999999761581,704570.8999999762,8032,WL,C,7.0
6,20.943999767303467,distr,39056.00023269653,Wed Aug 20 2025 13:30:42 GMT-0500 (Central Daylight Time),706736.6000000238,B,plantenter,I,enter,1019,2,2165.7000000476837,704570.8999999762,8032,WL,C,7.0
6,60.013999938964844,distr,-13.99993896484375,Wed Aug 20 2025 13:30:42 GMT-0500 (Central Daylight Time),745807.7000000477,B,None,I,None,39065,2,39070.700000047684,706737.0,8032,WL,C,8.0
7,0.4830000400543213,immed,59516.99995994568,Wed Aug 20 2025 13:30:42 GMT-0500 (Central Daylight Time),774231.8999999762,A,t,I,t,478,2,482.5,773749.3999999762,8032,WL,C,1.0
7,0.6830000877380371,immed,59316.99991226196,Wed Aug 20 2025 13:30:42 GMT-0500 (Central Daylight Time),774432.2999999523,A,to,I,o,179,2,682.8999999761581,773749.3999999762,8032,WL,C,1.0
7,0.8500001430511475,immed,59149.99985694885,Wed Aug 20 2025 13:30:42 GMT-0500 (Central Daylight Time),774598.8999999762,A,tow,I,w,144,2,849.5,773749.3999999762,8032,WL,C,1.0
7,1.0329999923706055,immed,58967.000007629395,Wed Aug 20 2025 13:30:42 GMT-0500 (Central Daylight Time),774781.8999999762,A,towe,I,e,169,2,1032.5,773749.3999999762,8032,WL,C,1.0
7,1.065999984741211,immed,58934.00001525879,Wed Aug 20 2025 13:30:42 GMT-0500 (Central Daylight Time),774815.1000000238,A,tower,I,r,13,2,1065.7000000476837,773749.3999999762,8032,WL,C,1.0
7,1.9660000801086426,immed,58033.99991989136,Wed Aug 20 2025 13:30:42 GMT-0500 (Central Daylight Time),775714.8999999762,A,towerenter,I,enter,891,2,1965.5,773749.3999999762,8032,WL,C,1.0
7,2.515000104904175,immed,57484.999895095825,Wed Aug 20 2025 13:30:42 GMT-0500 (Central Daylight Time),776264.7999999523,A,w,I,w,535,2,549.5999999046326,775715.2000000477,8032,WL,C,2.0
7,2.765000104904175,immed,57234.999895095825,Wed Aug 20 2025 13:30:42 GMT-0500 (Central Daylight Time),776514.8999999762,A,wg,I,g,234,2,799.6999999284744,775715.2000000477,8032,WL,C,2.0
7,3.0980000495910645,immed,56901.999950408936,Wed Aug 20 2025 13:30:42 GMT-0500 (Central Daylight Time),776847.7000000477,A,wge,I,e,324,2,1132.5,775715.2000000477,8032,WL,C,2.0
7,3.6649999618530273,immed,56335.00003814697,Wed Aug 20 2025 13:30:42 GMT-0500 (Central Daylight Time),777414.6000000238,A,wg,I,backspace,555,2,1699.3999999761581,775715.2000000477,8032,WL,C,2.0
7,3.865000009536743,immed,56134.99999046326,Wed Aug 20 2025 13:30:42 GMT-0500 (Central Daylight Time),777614.2000000477,A,w,I,backspace,176,2,1899.0,775715.2000000477,8032,WL,C,2.0
7,4.4649999141693115,immed,55535.00008583069,Wed Aug 20 2025 13:30:42 GMT-0500 (Central Daylight Time),778214.0,A,wh,I,h,588,2,2498.7999999523163,775715.2000000477,8032,WL,C,2.0
7,4.54800009727478,immed,55451.99990272522,Wed Aug 20 2025 13:30:42 GMT-0500 (Central Daylight Time),778297.3999999762,A,whe,I,e,78,2,2582.1999999284744,775715.2000000477,8032,WL,C,2.0
7,4.615000009536743,immed,55384.99999046326,Wed Aug 20 2025 13:30:42 GMT-0500 (Central Daylight Time),778364.2999999523,A,whea,I,a,46,2,2649.0999999046326,775715.2000000477,8032,WL,C,2.0
7,4.765000104904175,immed,55234.999895095825,Wed Aug 20 2025 13:30:42 GMT-0500 (Central Daylight Time),778514.0,A,wheat,I,t,131,2,2798.7999999523163,775715.2000000477,8032,WL,C,2.0
7,5.148000001907349,immed,54851.99999809265,Wed Aug 20 2025 13:30:42 GMT-0500 (Central Daylight Time),778897.2000000477,A,wheatenter,I,enter,370,2,3182.0,775715.2000000477,8032,WL,C,2.0
7,5.513999938964844,immed,54486.000061035156,Wed Aug 20 2025 13:30:42 GMT-0500 (Central Daylight Time),779263.7000000477,A,b,I,b,354,2,366.3000000715256,778897.3999999762,8032,WL,C,3.0
7,6.164000034332275,immed,53835.999965667725,Wed Aug 20 2025 13:30:42 GMT-0500 (Central Daylight Time),779913.2999999523,A,,I,backspace,643,2,1015.8999999761581,778897.3999999762,8032,WL,C,3.0
7,8.397000074386597,immed,51602.9999256134,Wed Aug 20 2025 13:30:42 GMT-0500 (Central Daylight Time),782146.1000000238,A,f,I,f,2225,2,3248.7000000476837,778897.3999999762,8032,WL,C,3.0
7,8.513999938964844,immed,51486.000061035156,Wed Aug 20 2025 13:30:42 GMT-0500 (Central Daylight Time),782263.1000000238,A,fl,I,l,105,2,3365.7000000476837,778897.3999999762,8032,WL,C,3.0
7,8.663000106811523,immed,51336.99989318848,Wed Aug 20 2025 13:30:42 GMT-0500 (Central Daylight Time),782412.7999999523,A,fla,I,a,138,2,3515.399999976158,778897.3999999762,8032,WL,C,3.0
7,8.996999979019165,immed,51003.000020980835,Wed Aug 20 2025 13:30:42 GMT-0500 (Central Daylight Time),782746.0,A,flag,I,g,326,2,3848.600000023842,778897.3999999762,8032,WL,C,3.0
7,9.180000066757202,immed,50819.9999332428,Wed Aug 20 2025 13:30:42 GMT-0500 (Central Daylight Time),782929.2999999523,A,flagenter,I,enter,170,2,4031.899999976158,778897.3999999762,8032,WL,C,3.0
7,9.531000137329102,immed,50468.9998626709,Wed Aug 20 2025 13:30:42 GMT-0500 (Central Daylight Time),783280.6000000238,A,c,I,c,347,2,350.89999997615814,782929.7000000477,8032,WL,C,4.0
7,9.714999914169312,immed,50285.00008583069,Wed Aug 20 2025 13:30:42 GMT-0500 (Central Daylight Time),783464.6000000238,A,ca,I,a,162,2,534.8999999761581,782929.7000000477,8032,WL,C,4.0
7,9.930000066757202,immed,50069.9999332428,Wed Aug 20 2025 13:30:42 GMT-0500 (Central Daylight Time),783679.1000000238,A,cam,I,m,202,2,749.3999999761581,782929.7000000477,8032,WL,C,4.0
7,10.130000114440918,immed,49869.99988555908,Wed Aug 20 2025 13:30:42 GMT-0500 (Central Daylight Time),783879.2000000477,A,camp,I,p,188,2,949.5,782929.7000000477,8032,WL,C,4.0
7,10.52999997138977,immed,49470.00002861023,Wed Aug 20 2025 13:30:42 GMT-0500 (Central Daylight Time),784279.0,A,campenter,I,enter,382,2,1349.2999999523163,782929.7000000477,8032,WL,C,4.0
7,11.312000036239624,immed,48687.999963760376,Wed Aug 20 2025 13:30:42 GMT-0500 (Central Daylight Time),785061.7000000477,A,h,I,h,764,2,782.5,784279.2000000477,8032,WL,C,5.0
7,11.479000091552734,immed,48520.999908447266,Wed Aug 20 2025 13:30:42 GMT-0500 (Central Daylight Time),785228.7999999523,A,ho,I,o,157,2,949.5999999046326,784279.2000000477,8032,WL,C,5.0
7,11.61299991607666,immed,48387.00008392334,Wed Aug 20 2025 13:30:42 GMT-0500 (Central Daylight Time),785362.0,A,hom,I,m,114,2,1082.7999999523163,784279.2000000477,8032,WL,C,5.0
7,11.796000003814697,immed,48203.9999961853,Wed Aug 20 2025 13:30:42 GMT-0500 (Central Daylight Time),785545.5,A,home,I,e,168,2,1266.2999999523163,784279.2000000477,8032,WL,C,5.0
7,12.062000036239624,immed,47937.999963760376,Wed Aug 20 2025 13:30:42 GMT-0500 (Central Daylight Time),785811.7000000477,A,homeenter,I,enter,245,2,1532.5,784279.2000000477,8032,WL,C,5.0
7,12.42900013923645,immed,47570.99986076355,Wed Aug 20 2025 13:30:42 GMT-0500 (Central Daylight Time),786178.2999999523,A,b,I,b,355,2,366.2999999523163,785812.0,8032,WL,C,6.0
7,12.578999996185303,immed,47421.0000038147,Wed Aug 20 2025 13:30:42 GMT-0500 (Central Daylight Time),786328.2000000477,A,bo,I,o,137,2,516.2000000476837,785812.0,8032,WL,C,6.0
7,13.111999988555908,immed,46888.00001144409,Wed Aug 20 2025 13:30:42 GMT-0500 (Central Daylight Time),786861.2000000477,A,boy,I,y,513,2,1049.2000000476837,785812.0,8032,WL,C,6.0
7,13.444999933242798,immed,46555.0000667572,Wed Aug 20 2025 13:30:42 GMT-0500 (Central Daylight Time),787194.7999999523,A,boyenter,I,enter,318,2,1382.7999999523163,785812.0,8032,WL,C,6.0
7,14.01200008392334,immed,45987.99991607666,Wed Aug 20 2025 13:30:42 GMT-0500 (Central Daylight Time),787761.2999999523,A,c,I,c,550,2,566.2999999523163,787195.0,8032,WL,C,7.0
7,14.09500002861023,immed,45904.99997138977,Wed Aug 20 2025 13:30:42 GMT-0500 (Central Daylight Time),787844.6000000238,A,co,I,o,74,2,649.6000000238419,787195.0,8032,WL,C,7.0
7,14.477999925613403,immed,45522.0000743866,Wed Aug 20 2025 13:30:42 GMT-0500 (Central Daylight Time),788227.6000000238,A,c,I,backspace,369,2,1032.6000000238419,787195.0,8032,WL,C,7.0
7,15.09500002861023,immed,44904.99997138977,Wed Aug 20 2025 13:30:42 GMT-0500 (Central Daylight Time),788844.2000000477,A,,I,backspace,607,2,1649.2000000476837,787195.0,8032,WL,C,7.0
7,15.311000108718872,immed,44688.99989128113,Wed Aug 20 2025 13:30:42 GMT-0500 (Central Daylight Time),789060.7000000477,A,d,I,d,195,2,1865.7000000476837,787195.0,8032,WL,C,7.0
7,15.42799997329712,immed,44572.00002670288,Wed Aug 20 2025 13:30:42 GMT-0500 (Central Daylight Time),789177.3999999762,A,do,I,o,102,2,1982.3999999761581,787195.0,8032,WL,C,7.0
7,15.59500002861023,immed,44404.99997138977,Wed Aug 20 2025 13:30:42 GMT-0500 (Central Daylight Time),789344.2999999523,A,doc,I,c,146,2,2149.2999999523163,787195.0,8032,WL,C,7.0
7,15.99399995803833,immed,44006.00004196167,Wed Aug 20 2025 13:30:42 GMT-0500 (Central Daylight Time),789743.7999999523,A,doct,I,t,378,2,2548.7999999523163,787195.0,8032,WL,C,7.0
7,16.227999925613403,immed,43772.0000743866,Wed Aug 20 2025 13:30:42 GMT-0500 (Central Daylight Time),789977.1000000238,A,docto,I,o,222,2,2782.100000023842,787195.0,8032,WL,C,7.0
7,16.66100001335144,immed,43338.99998664856,Wed Aug 20 2025 13:30:42 GMT-0500 (Central Daylight Time),790410.2999999523,A,doctor,I,r,418,2,3215.2999999523163,787195.0,8032,WL,C,7.0
7,16.89400005340576,immed,43105.99994659424,Wed Aug 20 2025 13:30:42 GMT-0500 (Central Daylight Time),790643.6000000238,A,doctorenter,I,enter,219,2,3448.600000023842,787195.0,8032,WL,C,7.0
7,17.210999965667725,immed,42789.000034332275,Wed Aug 20 2025 13:30:42 GMT-0500 (Central Daylight Time),790960.2000000477,A,s,I,s,296,2,316.2000000476837,790644.0,8032,WL,C,8.0
7,17.3270001411438,immed,42672.9998588562,Wed Aug 20 2025 13:30:42 GMT-0500 (Central Daylight Time),791076.7999999523,A,sh,I,h,106,2,432.7999999523163,790644.0,8032,WL,C,8.0
7,17.49399995803833,immed,42506.00004196167,Wed Aug 20 2025 13:30:42 GMT-0500 (Central Daylight Time),791243.3999999762,A,sho,I,o,159,2,599.3999999761581,790644.0,8032,WL,C,8.0
