acc_sum,block,block_c,condition,correct,correct_response,datetime,endtime,flanker,jitter,project,response,response_test_buffer_response,response_test_target_response,response_time,response_time_test_buffer_response,response_time_test_target_response,row_sel,session_number,start_end,starttime,subject_id,target,task,task_vers,time_test_buffer,time_test_buffer_response,time_test_constants,time_test_flanker,time_test_jitter,time_test_logger,time_test_target,time_test_target_response,time_test_variables,trial
1,prac,1,inc,1,m,Wed Mar 11 2026 12:01:32 GMT-0500 (Central Daylight Time),221380.89999997616,pear,900,I,m,,,1676,,,14,1,3877.699999988079,217503.19999998808,7772,iron,NF,C,,,,,,,,,,1
2,prac,1,con,1,z,Wed Mar 11 2026 12:01:32 GMT-0500 (Central Daylight Time),224579.69999998808,orange,1000,I,z,,,895,,,3,1,3191.5,221388.19999998808,7772,orange,NF,C,,,,,,,,,,2
3,prac,1,con,1,z,Wed Mar 11 2026 12:01:32 GMT-0500 (Central Daylight Time),228345.29999998212,kiwi,1000,I,z,,,1347,,,7,1,3760.699999988079,224584.59999999404,7772,kiwi,NF,C,,,,,,,,,,3
4,prac,1,inc,1,m,Wed Mar 11 2026 12:01:32 GMT-0500 (Central Daylight Time),231494.59999999404,plum,1100,I,m,,,733,,,16,1,3144.800000011921,228349.79999998212,7772,lead,NF,C,,,,,,,,,,4
5,prac,1,inc,1,z,Wed Mar 11 2026 12:01:32 GMT-0500 (Central Daylight Time),234660.0,cobalt,1100,I,z,,,752,,,4,1,3160.7000000178814,231499.29999998212,7772,raisin,NF,C,,,,,,,,,,5
6,prac,1,inc,1,m,Wed Mar 11 2026 12:01:32 GMT-0500 (Central Daylight Time),237842.29999998212,raisin,1100,I,m,,,772,,,12,1,3178.0999999940395,234664.19999998808,7772,cobalt,NF,C,,,,,,,,,,6
7,prac,1,con,1,m,Wed Mar 11 2026 12:01:32 GMT-0500 (Central Daylight Time),240658.09999999404,bronze,800,I,m,,,713,,,9,1,2811.5999999940395,237846.5,7772,bronze,NF,C,,,,,,,,,,7
8,prac,1,inc,1,z,Wed Mar 11 2026 12:01:32 GMT-0500 (Central Daylight Time),243523.79999998212,iron,900,I,z,,,662,,,6,1,2861.5,240662.29999998212,7772,pear,NF,C,,,,,,,,,,8
9,prac,1,inc,1,z,Wed Mar 11 2026 12:01:32 GMT-0500 (Central Daylight Time),246689.5,lead,1100,I,z,,,762,,,8,1,3161.600000023842,243527.89999997616,7772,plum,NF,C,,,,,,,,,,9
10,prac,1,con,1,m,Wed Mar 11 2026 12:01:32 GMT-0500 (Central Daylight Time),250021.79999998212,silver,1000,I,m,,,895,,,11,1,3328.0,246693.79999998212,7772,silver,NF,C,,,,,,,,,,10
11,prac,1,con,1,m,Wed Mar 11 2026 12:01:32 GMT-0500 (Central Daylight Time),253471.0,gold,800,I,m,,,1333,,,13,1,3444.4000000059605,250026.59999999404,7772,gold,NF,C,,,,,,,,,,11
12,prac,1,con,1,m,Wed Mar 11 2026 12:01:32 GMT-0500 (Central Daylight Time),256669.59999999404,zinc,1000,I,m,,,892,,,15,1,3194.2000000178814,253475.39999997616,7772,zinc,NF,C,,,,,,,,,,12
13,prac,1,inc,1,m,Wed Mar 11 2026 12:01:32 GMT-0500 (Central Daylight Time),259569.89999997616,cherry,900,I,m,,,697,,,10,1,2896.0,256673.89999997616,7772,copper,NF,C,,,,,,,,,,13
14,prac,1,con,1,z,Wed Mar 11 2026 12:01:32 GMT-0500 (Central Daylight Time),262401.39999997616,lime,800,I,z,,,731,,,5,1,2827.2999999821186,259574.09999999404,7772,lime,NF,C,,,,,,,,,,14
15,prac,1,con,1,z,Wed Mar 11 2026 12:01:32 GMT-0500 (Central Daylight Time),265300.59999999404,banana,800,I,z,,,795,,,1,1,2895.0999999940395,262405.5,7772,banana,NF,C,,,,,,,,,,15
16,prac,1,inc,1,z,Wed Mar 11 2026 12:01:32 GMT-0500 (Central Daylight Time),268249.5,copper,900,I,z,,,740,,,2,1,2944.7000000178814,265304.7999999821,7772,cherry,NF,C,,,,,,,,,,16
1,test,1,inc,1,z,Wed Mar 11 2026 12:01:32 GMT-0500 (Central Daylight Time),328164.09999999404,silver,1000,I,z,z,None,603,387.0,216.0,7,1,2146.0999999940395,326018.0,7772,banana,NF,C,317803,317804,316056,317070,316056,318202,317587,317587,318202,1
2,test,1,con,1,m,Wed Mar 11 2026 12:01:32 GMT-0500 (Central Daylight Time),330379.89999997616,cobalt,1000,I,m,m,None,672,471.0,201.0,91,1,2210.7999999821186,328169.09999999404,7772,cobalt,NF,C,319936,319936,318207,319218,318207,320418,319735,319735,320418,2
3,test,1,con,1,z,Wed Mar 11 2026 12:01:32 GMT-0500 (Central Daylight Time),332462.5,banana,1000,I,z,z,None,535,335.0,200.0,3,1,2078.300000011921,330384.1999999881,7772,banana,NF,C,322151,322151,320422,321434,320423,322501,321951,321951,322501,3
4,test,1,con,1,z,Wed Mar 11 2026 12:01:32 GMT-0500 (Central Daylight Time),334562.09999999404,pear,1000,I,z,z,None,557,357.0,200.0,43,1,2095.5999999940395,332466.5,7772,pear,NF,C,324234,324234,322505,323517,322505,324600,324034,324034,324600,4
5,test,1,inc,1,z,Wed Mar 11 2026 12:01:32 GMT-0500 (Central Daylight Time),336944.2999999821,zinc,1000,I,z,z,None,841,641.0,200.0,55,1,2378.2999999821186,334566.0,7772,kiwi,NF,C,326333,326333,324604,325617,324604,326982,326133,326133,326982,5
6,test,1,con,1,m,Wed Mar 11 2026 12:01:32 GMT-0500 (Central Daylight Time),339093.89999997616,zinc,900,I,m,m,None,711,511.0,200.0,114,1,2145.0999999940395,336948.7999999821,7772,zinc,NF,C,328616,328616,326987,327899,326987,329132,328416,328416,329132,6
7,test,1,con,1,m,Wed Mar 11 2026 12:01:32 GMT-0500 (Central Daylight Time),341376.2999999821,gold,1000,I,m,m,None,733,533.0,200.0,99,1,2278.199999988079,339098.09999999404,7772,gold,NF,C,330865,330865,329136,330149,329137,331414,330665,330665,331414,7
8,test,1,inc,1,z,Wed Mar 11 2026 12:01:32 GMT-0500 (Central Daylight Time),343568.59999999404,iron,900,I,z,z,None,758,557.0,201.0,54,1,2188.300000011921,341380.2999999821,7772,kiwi,NF,C,333049,333049,331418,332331,331419,333607,332848,332848,333607,8
9,test,1,inc,1,z,Wed Mar 11 2026 12:01:32 GMT-0500 (Central Daylight Time),345641.7999999821,bronze,800,I,z,z,None,741,541.0,200.0,5,1,2069.0999999940395,343572.6999999881,7772,banana,NF,C,335130,335130,333611,334414,333611,335680,334930,334930,335680,9
10,test,1,inc,1,z,Wed Mar 11 2026 12:01:32 GMT-0500 (Central Daylight Time),347691.2999999821,gold,800,I,z,z,None,705,505.0,200.0,45,1,2045.2999999821186,345646.0,7772,pear,NF,C,337213,337213,335684,336497,335684,337729,337013,337013,337729,10
11,test,1,inc,1,m,Wed Mar 11 2026 12:01:32 GMT-0500 (Central Daylight Time),349874.89999997616,cherry,900,I,m,m,None,749,549.0,200.0,78,1,2179.399999976158,347695.5,7772,copper,NF,C,339362,339362,337734,338646,337734,339913,339162,339162,339913,11
12,test,1,inc,1,z,Wed Mar 11 2026 12:01:32 GMT-0500 (Central Daylight Time),352056.59999999404,silver,1000,I,z,z,None,634,434.0,200.0,15,1,2177.4000000059605,349879.1999999881,7772,cherry,NF,C,341645,341645,339917,340928,339917,342095,341445,341445,342095,12
13,test,1,inc,1,m,Wed Mar 11 2026 12:01:32 GMT-0500 (Central Daylight Time),354356.0,orange,1000,I,m,m,None,755,556.0,199.0,79,1,2295.300000011921,352060.6999999881,7772,copper,NF,C,343827,343827,342099,343111,342099,344394,343628,343628,344394,13
14,test,1,inc,1,m,Wed Mar 11 2026 12:01:32 GMT-0500 (Central Daylight Time),356505.0,kiwi,1000,I,m,m,None,608,408.0,200.0,103,1,2145.100000023842,354359.89999997616,7772,gold,NF,C,346127,346127,344398,345410,344398,346543,345927,345927,346543,14
15,test,1,con,1,m,Wed Mar 11 2026 12:01:32 GMT-0500 (Central Daylight Time),359004.39999997616,silver,1000,I,m,m,None,955,755.0,200.0,83,1,2495.399999976158,356509.0,7772,silver,NF,C,348276,348276,346547,347561,346547,349042,348076,348076,349042,15
16,test,1,con,1,m,Wed Mar 11 2026 12:01:32 GMT-0500 (Central Daylight Time),361253.39999997616,lead,1000,I,m,m,None,702,503.0,199.0,123,1,2245.0999999940395,359008.2999999821,7772,lead,NF,C,350776,350776,349046,350059,349047,351291,350576,350576,351291,16
17,test,1,inc,1,m,Wed Mar 11 2026 12:01:32 GMT-0500 (Central Daylight Time),363404.39999997616,kiwi,1000,I,m,m,None,613,414.0,199.0,127,1,2147.0,361257.39999997616,7772,lead,NF,C,353025,353025,351295,352308,351296,353443,352825,352825,353442,17
18,test,1,inc,1,m,Wed Mar 11 2026 12:01:32 GMT-0500 (Central Daylight Time),365785.59999999404,plum,1100,I,m,m,None,749,549.0,200.0,104,1,2377.0999999940395,363408.5,7772,gold,NF,C,355274,355274,353447,354557,353447,355824,355074,355074,355824,18
19,test,1,inc,1,z,Wed Mar 11 2026 12:01:32 GMT-0500 (Central Daylight Time),368234.59999999404,lead,1100,I,z,z,None,721,522.0,199.0,48,1,2444.9000000059605,365789.6999999881,7772,pear,NF,C,357740,357740,355828,357037,355828,358273,357540,357540,358273,19
20,test,1,con,1,z,Wed Mar 11 2026 12:01:32 GMT-0500 (Central Daylight Time),370650.1999999881,banana,1100,I,z,z,None,771,572.0,199.0,4,1,2411.4000000059605,368238.7999999821,7772,banana,NF,C,360106,360106,358277,359389,358277,360688,359906,359906,360688,20
21,test,1,inc,1,m,Wed Mar 11 2026 12:01:32 GMT-0500 (Central Daylight Time),372683.0,lime,800,I,m,m,None,712,513.0,199.0,125,1,2028.6000000238419,370654.39999997616,7772,lead,NF,C,362205,362205,360692,361505,360693,362721,362006,362006,362721,21
22,test,1,inc,1,z,Wed Mar 11 2026 12:01:32 GMT-0500 (Central Daylight Time),374999.2999999821,gold,800,I,z,z,None,976,776.0,200.0,53,1,2311.0999999940395,372688.1999999881,7772,kiwi,NF,C,364254,364254,362726,363538,362726,365037,364054,364054,365037,22
23,test,1,con,1,m,Wed Mar 11 2026 12:01:32 GMT-0500 (Central Daylight Time),377031.7999999821,iron,900,I,m,m,None,584,384.0,200.0,106,1,2028.5999999940395,375003.1999999881,7772,iron,NF,C,366670,366670,365041,365954,365042,367070,366470,366470,367070,23
24,test,1,con,1,m,Wed Mar 11 2026 12:01:32 GMT-0500 (Central Daylight Time),378864.59999999404,copper,800,I,m,m,None,499,299.0,200.0,73,1,1828.5999999940395,377036.0,7772,copper,NF,C,368603,368603,367074,367886,367074,368903,368403,368403,368903,24
25,test,1,con,1,m,Wed Mar 11 2026 12:01:32 GMT-0500 (Central Daylight Time),380997.1999999881,zinc,1100,I,m,m,None,493,294.0,199.0,116,1,2128.9000000059605,378868.2999999821,7772,zinc,NF,C,370736,370736,368906,370019,368907,371035,370536,370536,371035,25
26,test,1,inc,1,z,Wed Mar 11 2026 12:01:32 GMT-0500 (Central Daylight Time),383196.5,zinc,1000,I,z,z,None,662,462.0,200.0,47,1,2194.300000011921,381002.1999999881,7772,pear,NF,C,372768,372768,371040,372052,371041,373235,372568,372568,373235,26
27,test,1,con,1,z,Wed Mar 11 2026 12:01:32 GMT-0500 (Central Daylight Time),385229.59999999404,raisin,900,I,z,z,None,595,395.0,200.0,26,1,2028.5,383201.09999999404,7772,raisin,NF,C,374868,374868,373239,374151,373239,375268,374668,374668,375268,27
28,test,1,con,1,m,Wed Mar 11 2026 12:01:32 GMT-0500 (Central Daylight Time),387328.6999999881,silver,1100,I,m,m,None,458,259.0,199.0,84,1,2095.0999999940395,385233.59999999404,7772,silver,NF,C,377100,377100,375272,376384,375272,377367,376901,376901,377367,28
29,test,1,con,1,z,Wed Mar 11 2026 12:01:32 GMT-0500 (Central Daylight Time),389877.89999997616,orange,1100,I,z,z,None,903,703.0,200.0,20,1,2545.399999976158,387332.5,7772,orange,NF,C,379200,379200,377371,378483,377371,379916,379000,379000,379916,29
30,test,1,con,1,m,Wed Mar 11 2026 12:01:32 GMT-0500 (Central Daylight Time),392127.39999997616,bronze,1100,I,m,m,None,601,401.0,200.0,68,1,2244.899999976158,389882.5,7772,bronze,NF,C,381749,381749,379921,381033,379921,382165,381549,381549,382165,30
31,test,1,inc,1,z,Wed Mar 11 2026 12:01:32 GMT-0500 (Central Daylight Time),394143.59999999404,gold,800,I,z,z,None,667,468.0,199.0,37,1,2012.2000000178814,392131.39999997616,7772,lime,NF,C,383699,383699,382169,382982,382170,384182,383499,383499,384182,31
32,test,1,con,1,m,Wed Mar 11 2026 12:01:32 GMT-0500 (Central Daylight Time),396342.7999999821,bronze,900,I,m,m,None,753,553.0,200.0,66,1,2195.5999999940395,394147.1999999881,7772,bronze,NF,C,385814,385814,384185,385098,384185,386381,385614,385614,386381,32
33,test,1,con,1,m,Wed Mar 11 2026 12:01:32 GMT-0500 (Central Daylight Time),398675.39999997616,gold,1100,I,m,m,None,688,488.0,200.0,100,1,2328.899999976158,396346.5,7772,gold,NF,C,388215,388215,386385,387497,386385,388714,388014,388014,388713,33
34,test,1,con,1,z,Wed Mar 11 2026 12:01:32 GMT-0500 (Central Daylight Time),400708.0,cherry,800,I,z,z,None,688,488.0,200.0,9,1,2029.0,398679.0,7772,cherry,NF,C,390247,390247,388717,389530,388717,390746,390046,390046,390746,34
35,test,1,con,1,m,Wed Mar 11 2026 12:01:32 GMT-0500 (Central Daylight Time),402823.7999999821,iron,1100,I,m,m,None,476,276.0,200.0,108,1,2112.0,400711.7999999821,7772,iron,NF,C,392579,392579,390750,391862,390750,392862,392379,392379,392862,35
36,test,1,inc,1,z,Wed Mar 11 2026 12:01:32 GMT-0500 (Central Daylight Time),405106.5,cobalt,1100,I,z,z,None,648,448.0,200.0,32,1,2278.800000011921,402827.6999999881,7772,raisin,NF,C,394695,394695,392866,393978,392866,395145,394495,394495,395145,36
37,test,1,con,1,z,Wed Mar 11 2026 12:01:32 GMT-0500 (Central Daylight Time),407572.39999997616,kiwi,1100,I,z,z,None,820,621.0,199.0,52,1,2462.199999988079,405110.1999999881,7772,kiwi,NF,C,396978,396978,395148,396261,395148,397610,396778,396778,397610,37
38,test,1,inc,1,m,Wed Mar 11 2026 12:01:32 GMT-0500 (Central Daylight Time),409555.1999999881,lime,800,I,m,m,None,646,447.0,199.0,101,1,1979.0999999940395,407576.09999999404,7772,gold,NF,C,399144,399144,397614,398427,397614,399593,398944,398944,399593,38
39,test,1,con,1,z,Wed Mar 11 2026 12:01:32 GMT-0500 (Central Daylight Time),412054.2999999821,plum,1100,I,z,z,None,853,653.0,200.0,60,1,2495.199999988079,409559.09999999404,7772,plum,NF,C,401426,401426,399597,400710,399597,402092,401226,401226,402092,39
40,test,1,con,1,m,Wed Mar 11 2026 12:01:32 GMT-0500 (Central Daylight Time),414371.1999999881,copper,1100,I,m,m,None,672,473.0,199.0,76,1,2312.9000000059605,412058.2999999821,7772,copper,NF,C,403925,403925,402096,403209,402097,404409,403726,403726,404409,40
41,test,1,con,1,z,Wed Mar 11 2026 12:01:32 GMT-0500 (Central Daylight Time),416286.39999997616,raisin,800,I,z,z,None,568,368.0,200.0,25,1,1909.0999999940395,414377.2999999821,7772,raisin,NF,C,405943,405943,404415,405225,404416,406325,405742,405742,406324,41
42,test,1,inc,1,m,Wed Mar 11 2026 12:01:32 GMT-0500 (Central Daylight Time),418335.6999999881,banana,800,I,m,m,None,700,501.0,199.0,69,1,2045.5999999940395,416290.09999999404,7772,bronze,NF,C,407858,407858,406328,407141,406328,408374,407658,407658,408374,42
43,test,1,con,1,z,Wed Mar 11 2026 12:01:32 GMT-0500 (Central Daylight Time),420451.59999999404,plum,900,I,z,z,None,679,479.0,200.0,58,1,2111.9000000059605,418339.6999999881,7772,plum,NF,C,410007,410007,408378,409290,408378,410490,409807,409807,410490,43
44,test,1,inc,1,m,Wed Mar 11 2026 12:01:32 GMT-0500 (Central Daylight Time),422601.09999999404,pear,900,I,m,m,None,708,508.0,200.0,110,1,2146.0,420455.09999999404,7772,iron,NF,C,412123,412123,410493,411406,410493,412639,411923,411923,412639,44
45,test,1,con,1,m,Wed Mar 11 2026 12:01:32 GMT-0500 (Central Daylight Time),424600.6999999881,zinc,800,I,m,m,None,658,459.0,199.0,113,1,1995.9000000059605,422604.7999999821,7772,zinc,NF,C,414172,414172,412643,413456,412643,414639,413973,413973,414639,45
46,test,1,inc,1,m,Wed Mar 11 2026 12:01:32 GMT-0500 (Central Daylight Time),426916.59999999404,raisin,1100,I,m,m,None,678,479.0,199.0,96,1,2312.300000011921,424604.2999999821,7772,cobalt,NF,C,416472,416472,414642,415755,414643,416955,416272,416272,416955,46
47,test,1,inc,1,m,Wed Mar 11 2026 12:01:32 GMT-0500 (Central Daylight Time),429249.09999999404,raisin,1100,I,m,m,None,683,484.0,199.0,72,1,2328.7000000178814,426920.39999997616,7772,bronze,NF,C,418787,418787,416958,418071,416959,419287,418588,418588,419287,47
48,test,1,con,1,m,Wed Mar 11 2026 12:01:32 GMT-0500 (Central Daylight Time),431398.1999999881,lead,900,I,m,m,None,703,503.0,200.0,122,1,2145.5,429252.6999999881,7772,lead,NF,C,420920,420920,419291,420204,419291,421436,420720,420720,421436,48
49,test,1,con,1,z,Wed Mar 11 2026 12:01:32 GMT-0500 (Central Daylight Time),433448.39999997616,pear,800,I,z,z,None,701,501.0,200.0,41,1,2046.5,431401.89999997616,7772,pear,NF,C,422969,422969,421440,422253,421440,423487,422769,422769,423486,49
50,test,1,inc,1,z,Wed Mar 11 2026 12:01:32 GMT-0500 (Central Daylight Time),435580.39999997616,iron,900,I,z,z,None,696,496.0,200.0,62,1,2128.2999999821186,433452.09999999404,7772,plum,NF,C,425119,425119,423490,424402,423490,425618,424919,424919,425618,50
51,test,1,con,1,m,Wed Mar 11 2026 12:01:32 GMT-0500 (Central Daylight Time),437413.1999999881,gold,800,I,m,m,None,495,295.0,200.0,97,1,1828.699999988079,435584.5,7772,gold,NF,C,427151,427152,425623,426435,425623,427451,426951,426951,427451,51
52,test,1,inc,1,m,Wed Mar 11 2026 12:01:32 GMT-0500 (Central Daylight Time),439779.09999999404,plum,1100,I,m,m,None,731,531.0,200.0,128,1,2362.0999999940395,437417.0,7772,lead,NF,C,429284,429284,427455,428568,427455,429817,429084,429084,429817,52
53,test,1,inc,1,z,Wed Mar 11 2026 12:01:32 GMT-0500 (Central Daylight Time),441995.1999999881,silver,1000,I,z,z,None,672,472.0,200.0,31,1,2212.300000011921,439782.89999997616,7772,raisin,NF,C,431550,431550,429821,430835,429821,432033,431350,431350,432033,53
54,test,1,inc,1,m,Wed Mar 11 2026 12:01:32 GMT-0500 (Central Daylight Time),444194.39999997616,kiwi,1000,I,m,m,None,657,457.0,200.0,119,1,2195.5,441998.89999997616,7772,zinc,NF,C,433766,433766,432037,433049,432037,434232,433566,433566,434232,54
55,test,1,inc,1,m,Wed Mar 11 2026 12:01:32 GMT-0500 (Central Daylight Time),446427.09999999404,orange,1000,I,m,m,None,689,488.0,201.0,71,1,2228.800000011921,444198.2999999821,7772,bronze,NF,C,435967,435967,434236,435249,434236,436465,435765,435765,436465,55
56,test,1,inc,1,z,Wed Mar 11 2026 12:01:32 GMT-0500 (Central Daylight Time),448626.09999999404,zinc,1000,I,z,z,None,657,457.0,200.0,39,1,2195.2000000178814,446430.89999997616,7772,lime,NF,C,438198,438198,436469,437481,436469,438664,437998,437998,438664,56
57,test,1,con,1,z,Wed Mar 11 2026 12:01:32 GMT-0500 (Central Daylight Time),450942.09999999404,orange,900,I,z,z,None,869,669.0,200.0,18,1,2312.4000000059605,448629.6999999881,7772,orange,NF,C,440298,440298,438668,439581,438668,440980,440097,440097,440980,57
58,test,1,con,1,z,Wed Mar 11 2026 12:01:32 GMT-0500 (Central Daylight Time),453141.39999997616,kiwi,800,I,z,z,None,869,670.0,199.0,49,1,2194.899999976158,450946.5,7772,kiwi,NF,C,442497,442497,440985,441797,440985,443180,442298,442298,443179,58
59,test,1,inc,1,m,Wed Mar 11 2026 12:01:32 GMT-0500 (Central Daylight Time),455274.1999999881,pear,900,I,m,m,None,689,490.0,199.0,102,1,2129.0999999940395,453145.09999999404,7772,gold,NF,C,444813,444813,443183,444096,443183,445312,444613,444613,445312,59
60,test,1,inc,1,m,Wed Mar 11 2026 12:01:32 GMT-0500 (Central Daylight Time),457390.39999997616,cherry,900,I,m,m,None,678,478.0,200.0,70,1,2112.5,455277.89999997616,7772,bronze,NF,C,446945,446945,445316,446229,445316,447429,446745,446745,447428,60
61,test,1,inc,1,z,Wed Mar 11 2026 12:01:32 GMT-0500 (Central Daylight Time),459489.59999999404,copper,900,I,z,z,None,650,450.0,200.0,14,1,2095.0999999940395,457394.5,7772,cherry,NF,C,449061,449061,447433,448345,447433,449528,448861,448861,449528,61
62,test,1,con,1,z,Wed Mar 11 2026 12:01:32 GMT-0500 (Central Daylight Time),461490.2999999821,banana,800,I,z,z,None,656,457.0,199.0,1,1,1996.699999988079,459493.59999999404,7772,banana,NF,C,451061,451061,449532,450344,449532,451528,450861,450861,451528,62
63,test,1,inc,1,z,Wed Mar 11 2026 12:01:32 GMT-0500 (Central Daylight Time),463521.59999999404,iron,900,I,z,z,None,590,391.0,199.0,46,1,2027.5999999940395,461494.0,7772,pear,NF,C,453160,453160,451532,452444,451532,453560,452961,452961,453560,63
64,test,1,inc,1,z,Wed Mar 11 2026 12:01:32 GMT-0500 (Central Daylight Time),465804.39999997616,lead,1100,I,z,z,None,646,446.0,200.0,64,1,2278.2999999821186,463526.09999999404,7772,plum,NF,C,455393,455393,453564,454676,453564,455842,455192,455192,455842,64
65,test,1,inc,1,z,Wed Mar 11 2026 12:01:32 GMT-0500 (Central Daylight Time),467820.2999999821,gold,800,I,z,z,None,680,480.0,200.0,61,1,2012.2999999821186,465808.0,7772,plum,NF,C,457375,457375,455846,456659,455846,457858,457175,457175,457858,65
66,test,1,con,1,m,Wed Mar 11 2026 12:01:32 GMT-0500 (Central Daylight Time),470103.0,bronze,800,I,m,m,None,944,744.0,200.0,65,1,2278.600000023842,467824.39999997616,7772,bronze,NF,C,459391,459391,457862,458675,457863,460141,459191,459191,460141,66
67,test,1,inc,1,z,Wed Mar 11 2026 12:01:32 GMT-0500 (Central Daylight Time),472235.89999997616,copper,900,I,z,z,None,689,488.0,201.0,22,1,2129.199999988079,470106.6999999881,7772,orange,NF,C,461775,461775,460145,461057,460145,462274,461574,461574,462274,67
68,test,1,inc,1,m,Wed Mar 11 2026 12:01:32 GMT-0500 (Central Daylight Time),474468.09999999404,orange,1000,I,m,m,None,696,496.0,200.0,95,1,2228.5999999940395,472239.5,7772,cobalt,NF,C,464007,464007,462277,463290,462278,464506,463807,463807,464506,68
69,test,1,con,1,m,Wed Mar 11 2026 12:01:32 GMT-0500 (Central Daylight Time),476317.7999999821,iron,800,I,m,m,None,527,312.0,215.0,105,1,1845.7999999821186,474472.0,7772,iron,NF,C,466039,466039,464510,465323,464510,466356,465824,465824,466356,69
70,test,1,con,1,m,Wed Mar 11 2026 12:01:32 GMT-0500 (Central Daylight Time),478167.0,lead,800,I,m,m,None,509,310.0,199.0,121,1,1845.6000000238419,476321.39999997616,7772,lead,NF,C,467889,467889,466359,467172,466360,468205,467689,467689,468205,70
71,test,1,con,1,m,Wed Mar 11 2026 12:01:32 GMT-0500 (Central Daylight Time),480299.89999997616,lead,1100,I,m,m,None,489,289.0,200.0,124,1,2129.0,478170.89999997616,7772,lead,NF,C,470038,470038,468209,469323,468209,470338,469838,469838,470338,71
72,test,1,con,1,m,Wed Mar 11 2026 12:01:32 GMT-0500 (Central Daylight Time),482482.39999997616,bronze,1000,I,m,m,None,647,447.0,200.0,67,1,2178.7999999821186,480303.59999999404,7772,bronze,NF,C,472071,472071,470342,471354,470342,472520,471871,471871,472520,72
73,test,1,con,1,z,Wed Mar 11 2026 12:01:32 GMT-0500 (Central Daylight Time),484598.5,lime,1000,I,z,z,None,577,377.0,200.0,35,1,2112.300000011921,482486.1999999881,7772,lime,NF,C,474254,474254,472524,473537,472525,474637,474053,474053,474637,73
74,test,1,con,1,z,Wed Mar 11 2026 12:01:32 GMT-0500 (Central Daylight Time),486998.5,pear,1100,I,z,z,None,760,561.0,199.0,44,1,2396.4000000059605,484602.09999999404,7772,pear,NF,C,476469,476469,474640,475753,474640,477037,476270,476270,477037,74
75,test,1,con,1,z,Wed Mar 11 2026 12:01:32 GMT-0500 (Central Daylight Time),489063.2999999821,orange,1000,I,z,z,None,517,317.0,200.0,19,1,2061.0999999940395,487002.1999999881,7772,orange,NF,C,478769,478769,477040,478052,477041,479101,478569,478569,479101,75
76,test,1,con,1,z,Wed Mar 11 2026 12:01:32 GMT-0500 (Central Daylight Time),491213.09999999404,pear,900,I,z,z,None,702,487.0,215.0,42,1,2145.7000000178814,489067.39999997616,7772,pear,NF,C,480752,480752,479105,480018,479106,481251,480536,480536,481251,76
77,test,1,inc,1,z,Wed Mar 11 2026 12:01:32 GMT-0500 (Central Daylight Time),493545.39999997616,cobalt,1100,I,z,z,None,699,499.0,200.0,16,1,2328.699999988079,491216.6999999881,7772,cherry,NF,C,483084,483084,481255,482367,481255,483583,482884,482884,483583,77
78,test,1,inc,1,m,Wed Mar 11 2026 12:01:32 GMT-0500 (Central Daylight Time),495878.09999999404,plum,1100,I,m,m,None,693,494.0,199.0,120,1,2329.300000011921,493548.7999999821,7772,zinc,NF,C,485417,485417,483587,484700,483587,485916,485217,485217,485916,78
79,test,1,con,1,z,Wed Mar 11 2026 12:01:32 GMT-0500 (Central Daylight Time),498227.5,kiwi,1000,I,z,z,None,805,605.0,200.0,51,1,2345.600000023842,495881.89999997616,7772,kiwi,NF,C,487649,487649,485920,486934,485920,488266,487449,487449,488266,79
80,test,1,inc,1,z,Wed Mar 11 2026 12:01:32 GMT-0500 (Central Daylight Time),500293.6999999881,bronze,800,I,z,z,None,719,519.0,200.0,21,1,2062.5,498231.1999999881,7772,orange,NF,C,489800,489800,488269,489082,488269,490332,489599,489599,490332,80
81,test,1,inc,1,m,Wed Mar 11 2026 12:01:32 GMT-0500 (Central Daylight Time),502526.1999999881,orange,1000,I,m,m,None,687,487.0,200.0,87,1,2228.800000011921,500297.39999997616,7772,silver,NF,C,492064,492064,490335,491348,490336,492564,491864,491864,492564,81
82,test,1,con,1,m,Wed Mar 11 2026 12:01:32 GMT-0500 (Central Daylight Time),504425.1999999881,cobalt,800,I,m,m,None,566,366.0,200.0,89,1,1895.300000011921,502529.89999997616,7772,cobalt,NF,C,494097,494097,492568,493381,492568,494463,493897,493897,494463,82
83,test,1,con,1,z,Wed Mar 11 2026 12:01:32 GMT-0500 (Central Daylight Time),506625.09999999404,orange,800,I,z,z,None,866,666.0,200.0,17,1,2196.300000011921,504428.7999999821,7772,orange,NF,C,495997,495997,494467,495280,494467,496663,495797,495797,496663,83
84,test,1,con,1,z,Wed Mar 11 2026 12:01:32 GMT-0500 (Central Daylight Time),508990.89999997616,plum,1000,I,z,z,None,826,516.0,310.0,59,1,2362.0999999940395,506628.7999999821,7772,plum,NF,C,498507,498507,496667,497679,496667,499029,498196,498196,499029,84
85,test,1,inc,1,m,Wed Mar 11 2026 12:01:32 GMT-0500 (Central Daylight Time),511073.39999997616,pear,900,I,m,m,None,649,449.0,200.0,118,1,2078.699999988079,508994.6999999881,7772,zinc,NF,C,500662,500662,499033,499945,499033,501111,500462,500462,501111,85
86,test,1,con,1,z,Wed Mar 11 2026 12:01:32 GMT-0500 (Central Daylight Time),513272.6999999881,banana,900,I,z,z,None,749,550.0,199.0,2,1,2195.4000000059605,511077.2999999821,7772,banana,NF,C,502745,502745,501115,502028,501116,503311,502545,502545,503311,86
87,test,1,con,1,m,Wed Mar 11 2026 12:01:32 GMT-0500 (Central Daylight Time),515771.89999997616,cobalt,1100,I,m,m,None,862,663.0,199.0,92,1,2495.7999999821186,513276.09999999404,7772,cobalt,NF,C,505144,505144,503314,504427,503314,505810,504944,504944,505810,87
88,test,1,inc,1,z,Wed Mar 11 2026 12:01:32 GMT-0500 (Central Daylight Time),518071.09999999404,cobalt,1100,I,z,z,None,652,452.0,200.0,8,1,2295.5999999940395,515775.5,7772,banana,NF,C,507643,507643,505814,506927,505814,508109,507443,507443,508109,88
89,test,1,con,1,m,Wed Mar 11 2026 12:01:32 GMT-0500 (Central Daylight Time),520204.0,copper,900,I,m,m,None,688,488.0,200.0,74,1,2129.300000011921,518074.6999999881,7772,copper,NF,C,509743,509743,508113,509026,508113,510242,509542,509542,510242,89
90,test,1,con,1,m,Wed Mar 11 2026 12:01:32 GMT-0500 (Central Daylight Time),522269.7999999821,silver,800,I,m,m,None,719,519.0,200.0,81,1,2062.4000000059605,520207.39999997616,7772,silver,NF,C,511775,511775,510245,511059,510246,512308,511575,511575,512308,90
91,test,1,inc,1,m,Wed Mar 11 2026 12:01:32 GMT-0500 (Central Daylight Time),524369.099999994,lime,800,I,m,m,None,758,558.0,200.0,109,1,2095.4000000059605,522273.6999999881,7772,iron,NF,C,513841,513841,512312,513125,512312,514407,513641,513641,514407,91
92,test,1,con,1,z,Wed Mar 11 2026 12:01:32 GMT-0500 (Central Daylight Time),526418.599999994,raisin,1000,I,z,z,None,514,315.0,199.0,27,1,2045.800000011921,524372.7999999821,7772,raisin,NF,C,516140,516140,514411,515424,514411,516457,515941,515941,516457,92
93,test,1,inc,1,z,Wed Mar 11 2026 12:01:32 GMT-0500 (Central Daylight Time),528684.599999994,zinc,1000,I,z,z,None,728,528.0,200.0,63,1,2262.300000011921,526422.2999999821,7772,plum,NF,C,518190,518190,516460,517474,516460,518723,517989,517989,518723,93
94,test,1,inc,1,m,Wed Mar 11 2026 12:01:32 GMT-0500 (Central Daylight Time),530650.5,lime,800,I,m,m,None,623,424.0,199.0,117,1,1962.1000000238419,528688.3999999762,7772,zinc,NF,C,520255,520255,518726,519540,518727,520689,520056,520056,520689,94
95,test,1,con,1,z,Wed Mar 11 2026 12:01:32 GMT-0500 (Central Daylight Time),532766.3999999762,plum,800,I,z,z,None,697,493.0,204.0,57,1,2112.5,530653.8999999762,7772,plum,NF,C,522305,522305,520692,521505,520692,522805,522101,522101,522804,95
96,test,1,inc,1,m,Wed Mar 11 2026 12:01:32 GMT-0500 (Central Daylight Time),534749.2999999821,banana,800,I,m,m,None,636,437.0,199.0,93,1,1978.7999999821186,532770.5,7772,cobalt,NF,C,524338,524338,522809,523621,522809,524787,524138,524138,524787,96
97,test,1,con,1,m,Wed Mar 11 2026 12:01:32 GMT-0500 (Central Daylight Time),537081.7999999821,copper,1000,I,m,m,None,798,599.0,199.0,75,1,2328.9000000059605,534752.8999999762,7772,copper,NF,C,526520,526520,524791,525804,524791,527120,526321,526321,527120,97
98,test,1,con,1,z,Wed Mar 11 2026 12:01:32 GMT-0500 (Central Daylight Time),539231.2999999821,lime,900,I,z,z,None,702,502.0,200.0,34,1,2146.0999999940395,537085.1999999881,7772,lime,NF,C,528753,528753,527123,528038,527123,529269,528553,528553,529269,98
99,test,1,con,1,m,Wed Mar 11 2026 12:01:32 GMT-0500 (Central Daylight Time),541247.2999999821,iron,1000,I,m,m,None,467,268.0,199.0,107,1,2012.0,539235.2999999821,7772,iron,NF,C,531003,531003,529273,530286,529274,531285,530803,530803,531285,99
100,test,1,con,1,z,Wed Mar 11 2026 12:01:32 GMT-0500 (Central Daylight Time),543346.6999999881,lime,800,I,z,z,None,757,557.0,200.0,33,1,2095.5,541251.1999999881,7772,lime,NF,C,532818,532818,531289,532102,531289,533385,532618,532618,533385,100
101,test,1,inc,1,m,Wed Mar 11 2026 12:01:32 GMT-0500 (Central Daylight Time),545429.3999999762,cherry,900,I,m,m,None,638,438.0,200.0,86,1,2079.0,543350.3999999762,7772,silver,NF,C,535018,535018,533388,534301,533389,535468,534818,534818,535467,101
102,test,1,inc,1,z,Wed Mar 11 2026 12:01:32 GMT-0500 (Central Daylight Time),547462.099999994,iron,900,I,z,z,None,585,385.0,200.0,38,1,2029.0999999940395,545433.0,7772,lime,NF,C,537101,537101,535471,536384,535471,537500,536900,536900,537500,102
103,test,1,inc,1,z,Wed Mar 11 2026 12:01:32 GMT-0500 (Central Daylight Time),549711.1999999881,lead,1100,I,z,z,None,602,402.0,200.0,40,1,2245.300000011921,547465.8999999762,7772,lime,NF,C,539333,539333,537504,538617,537504,539749,539133,539133,539749,103
104,test,1,con,1,z,Wed Mar 11 2026 12:01:32 GMT-0500 (Central Daylight Time),551677.5,kiwi,900,I,z,z,None,520,321.0,199.0,50,1,1962.6000000238419,549714.8999999762,7772,kiwi,NF,C,541382,541382,539753,540666,539753,541716,541183,541183,541716,104
105,test,1,inc,1,m,Wed Mar 11 2026 12:01:32 GMT-0500 (Central Daylight Time),553893.5,raisin,1100,I,m,m,None,570,370.0,200.0,88,1,2212.4000000059605,551681.099999994,7772,silver,NF,C,543548,543549,541719,542832,541719,543932,543348,543348,543932,105
106,test,1,inc,1,m,Wed Mar 11 2026 12:01:32 GMT-0500 (Central Daylight Time),556059.599999994,kiwi,1000,I,m,m,None,645,402.0,243.0,111,1,2162.0999999940395,553897.5,7772,iron,NF,C,545692,545692,543936,544948,543936,546098,545449,545449,546098,106
107,test,1,con,1,z,Wed Mar 11 2026 12:01:32 GMT-0500 (Central Daylight Time),558391.8999999762,raisin,1100,I,z,z,None,684,484.0,200.0,28,1,2328.5999999940395,556063.2999999821,7772,raisin,NF,C,547930,547930,546101,547214,546102,548430,547730,547730,548430,107
108,test,1,con,1,z,Wed Mar 11 2026 12:01:32 GMT-0500 (Central Daylight Time),560524.599999994,cherry,1000,I,z,z,None,588,388.0,200.0,11,1,2128.9000000059605,558395.6999999881,7772,cherry,NF,C,550163,550163,548434,549447,548434,550563,549963,549963,550563,108
109,test,1,con,1,m,Wed Mar 11 2026 12:01:32 GMT-0500 (Central Daylight Time),562457.3999999762,gold,900,I,m,m,None,491,291.0,200.0,98,1,1928.8999999761581,560528.5,7772,gold,NF,C,552196,552196,550567,551479,550567,552496,551996,551996,552495,109
110,test,1,con,1,m,Wed Mar 11 2026 12:01:32 GMT-0500 (Central Daylight Time),564673.1999999881,silver,900,I,m,m,None,775,575.0,200.0,82,1,2212.0,562461.1999999881,7772,silver,NF,C,554128,554128,552499,553412,552499,554711,553928,553928,554711,110
111,test,1,con,1,z,Wed Mar 11 2026 12:01:32 GMT-0500 (Central Daylight Time),566772.3999999762,cherry,900,I,z,z,None,663,463.0,200.0,10,1,2095.399999976158,564677.0,7772,cherry,NF,C,556344,556344,554715,555628,554715,556810,556144,556144,556810,111
112,test,1,inc,1,z,Wed Mar 11 2026 12:01:32 GMT-0500 (Central Daylight Time),568988.6999999881,silver,1000,I,z,z,None,687,488.0,199.0,23,1,2212.5,566776.1999999881,7772,orange,NF,C,558527,558527,556814,557827,556814,559027,558328,558328,559027,112
113,test,1,inc,1,m,Wed Mar 11 2026 12:01:32 GMT-0500 (Central Daylight Time),570904.6999999881,banana,800,I,m,m,None,574,375.0,199.0,85,1,1912.199999988079,568992.5,7772,silver,NF,C,560560,560560,559031,559843,559031,560943,560360,560360,560943,113
114,test,1,con,1,z,Wed Mar 11 2026 12:01:32 GMT-0500 (Central Daylight Time),573237.3999999762,cherry,1100,I,z,z,None,696,496.0,200.0,12,1,2329.0999999940395,570908.2999999821,7772,cherry,NF,C,562776,562776,560946,562059,560947,563275,562576,562576,563275,114
115,test,1,inc,1,z,Wed Mar 11 2026 12:01:32 GMT-0500 (Central Daylight Time),575570.099999994,lead,1100,I,z,z,None,690,490.0,200.0,56,1,2328.5,573241.599999994,7772,kiwi,NF,C,565109,565109,563280,564392,563280,565608,564908,564908,565608,115
116,test,1,con,1,m,Wed Mar 11 2026 12:01:32 GMT-0500 (Central Daylight Time),577652.5,cobalt,900,I,m,m,None,638,438.0,200.0,90,1,2078.4000000059605,575574.099999994,7772,cobalt,NF,C,567241,567241,565612,566525,565612,567691,567041,567041,567691,116
117,test,1,inc,1,z,Wed Mar 11 2026 12:01:32 GMT-0500 (Central Daylight Time),579502.1999999881,bronze,800,I,z,z,None,511,280.0,231.0,29,1,1845.699999988079,577656.5,7772,raisin,NF,C,569255,569255,567695,568507,567695,569540,569024,569024,569540,117
118,test,1,inc,1,m,Wed Mar 11 2026 12:01:32 GMT-0500 (Central Daylight Time),581718.099999994,plum,1100,I,m,m,None,578,378.0,200.0,112,1,2212.300000011921,579505.7999999821,7772,iron,NF,C,571373,571373,569544,570656,569544,571756,571173,571173,571756,118
119,test,1,inc,1,z,Wed Mar 11 2026 12:01:32 GMT-0500 (Central Daylight Time),584017.3999999762,cobalt,1100,I,z,z,None,651,451.0,200.0,24,1,2295.5,581721.8999999762,7772,orange,NF,C,573589,573589,571760,572872,571760,574055,573389,573389,574055,119
120,test,1,con,1,m,Wed Mar 11 2026 12:01:32 GMT-0500 (Central Daylight Time),586299.7999999821,zinc,1000,I,m,m,None,747,547.0,200.0,115,1,2278.2999999821186,584021.5,7772,zinc,NF,C,575788,575788,574059,575072,574060,576338,575588,575588,576338,120
121,test,1,inc,1,m,Wed Mar 11 2026 12:01:32 GMT-0500 (Central Daylight Time),588299.1999999881,banana,800,I,m,m,None,664,464.0,200.0,77,1,1995.5999999940395,586303.599999994,7772,copper,NF,C,577871,577871,576342,577155,576342,578337,577671,577671,578337,121
122,test,1,inc,1,m,Wed Mar 11 2026 12:01:32 GMT-0500 (Central Daylight Time),590416.1999999881,pear,900,I,m,m,None,668,469.0,199.0,126,1,2113.4000000059605,588302.7999999821,7772,lead,NF,C,579970,579970,578341,579254,578341,580454,579771,579771,580454,122
123,test,1,inc,1,m,Wed Mar 11 2026 12:01:32 GMT-0500 (Central Daylight Time),592931.1999999881,raisin,1100,I,m,m,None,873,672.0,201.0,80,1,2511.199999988079,590420.0,7772,copper,NF,C,582287,582287,580458,581570,580458,582969,582086,582086,582969,123
124,test,1,inc,1,z,Wed Mar 11 2026 12:01:32 GMT-0500 (Central Daylight Time),595063.7999999821,copper,900,I,z,z,None,684,484.0,200.0,30,1,2128.7999999821186,592935.0,7772,raisin,NF,C,584602,584602,582973,583886,582973,585102,584402,584402,585102,124
125,test,1,con,1,z,Wed Mar 11 2026 12:01:32 GMT-0500 (Central Daylight Time),597263.1999999881,lime,1100,I,z,z,None,560,360.0,200.0,36,1,2195.800000011921,595067.3999999762,7772,lime,NF,C,586935,586935,585105,586219,585106,587301,586735,586735,587301,125
126,test,1,inc,1,m,Wed Mar 11 2026 12:01:32 GMT-0500 (Central Daylight Time),599312.599999994,cherry,900,I,m,m,None,608,409.0,199.0,94,1,2045.5,597267.099999994,7772,cobalt,NF,C,588934,588934,587305,588218,587305,589351,588735,588735,589351,126
127,test,1,inc,1,z,Wed Mar 11 2026 12:01:32 GMT-0500 (Central Daylight Time),601345.1999999881,bronze,800,I,z,z,None,691,492.0,199.0,13,1,2028.800000011921,599316.3999999762,7772,cherry,NF,C,590883,590883,589354,590167,589355,591383,590683,590684,591383,127
128,test,1,inc,1,z,Wed Mar 11 2026 12:01:32 GMT-0500 (Central Daylight Time),603411.0,copper,900,I,z,z,None,615,414.0,201.0,6,1,2062.2000000178814,601348.7999999821,7772,banana,NF,C,593033,593033,591387,592300,591387,593449,592831,592831,593449,128
