block_c,block_dur,condition,countdown,datetime,endtime,list,multichar_response,project,response,response_time,session_number,start_end,starttime,subject_id,task,task_vers,trial
,,,,Fri Nov 14 2025 10:09:36 GMT-0600 (Central Standard Time),,,,O,space,195,1,,,7239,WL,C,
prac,,0,,Fri Nov 14 2025 10:09:36 GMT-0600 (Central Standard Time),,NA,b,O,b,1538,1,,,7239,WL,C,1.0
prac,,0,,Fri Nov 14 2025 10:09:36 GMT-0600 (Central Standard Time),,NA,bo,O,o,233,1,,,7239,WL,C,1.0
prac,,0,,Fri Nov 14 2025 10:09:36 GMT-0600 (Central Standard Time),,NA,boo,O,o,127,1,,,7239,WL,C,1.0
prac,,0,,Fri Nov 14 2025 10:09:36 GMT-0600 (Central Standard Time),,NA,boos,O,s,99,1,,,7239,WL,C,1.0
prac,,0,,Fri Nov 14 2025 10:09:36 GMT-0600 (Central Standard Time),,NA,boost,O,t,398,1,,,7239,WL,C,1.0
prac,,0,,Fri Nov 14 2025 10:09:36 GMT-0600 (Central Standard Time),,NA,boostenter,O,enter,1750,1,,,7239,WL,C,1.0
1,0.8340001106262207,learn,59165.99988937378,Fri Nov 14 2025 10:09:36 GMT-0600 (Central Standard Time),165633.60000002384,A,t,O,t,820,1,832.6000000238419,164801.0,7239,WL,C,1.0
1,1.2010002136230469,learn,58798.99978637695,Fri Nov 14 2025 10:09:36 GMT-0600 (Central Standard Time),166000.89999997616,A,to,O,o,347,1,1199.8999999761581,164801.0,7239,WL,C,1.0
1,1.4680001735687256,learn,58531.999826431274,Fri Nov 14 2025 10:09:36 GMT-0600 (Central Standard Time),166267.89999997616,A,tow,O,w,252,1,1466.8999999761581,164801.0,7239,WL,C,1.0
1,1.7000000476837158,learn,58299.999952316284,Fri Nov 14 2025 10:09:36 GMT-0600 (Central Standard Time),166500.10000002384,A,towe,O,e,225,1,1699.1000000238419,164801.0,7239,WL,C,1.0
1,1.9830000400543213,learn,58016.99995994568,Fri Nov 14 2025 10:09:36 GMT-0600 (Central Standard Time),166783.0,A,tower,O,r,265,1,1982.0,164801.0,7239,WL,C,1.0
1,3.5830001831054688,learn,56416.99981689453,Fri Nov 14 2025 10:09:36 GMT-0600 (Central Standard Time),168383.39999997616,A,towerenter,O,enter,1582,1,3582.399999976158,164801.0,7239,WL,C,1.0
1,4.732000112533569,learn,55267.99988746643,Fri Nov 14 2025 10:09:36 GMT-0600 (Central Standard Time),169532.39999997616,A,q,O,q,1142,1,1148.6999999284744,168383.70000004768,7239,WL,C,2.0
1,4.999000072479248,learn,55000.99992752075,Fri Nov 14 2025 10:09:36 GMT-0600 (Central Standard Time),169799.30000007153,A,qu,O,u,257,1,1415.6000000238419,168383.70000004768,7239,WL,C,2.0
1,5.315000057220459,learn,54684.99994277954,Fri Nov 14 2025 10:09:36 GMT-0600 (Central Standard Time),170114.89999997616,A,que,O,e,303,1,1731.1999999284744,168383.70000004768,7239,WL,C,2.0
1,5.466000080108643,learn,54533.99991989136,Fri Nov 14 2025 10:09:36 GMT-0600 (Central Standard Time),170265.5,A,quee,O,e,139,1,1881.7999999523163,168383.70000004768,7239,WL,C,2.0
1,5.715000152587891,learn,54284.99984741211,Fri Nov 14 2025 10:09:36 GMT-0600 (Central Standard Time),170514.80000007153,A,queen,O,n,245,1,2131.100000023842,168383.70000004768,7239,WL,C,2.0
1,6.332000017166138,learn,53667.99998283386,Fri Nov 14 2025 10:09:36 GMT-0600 (Central Standard Time),171132.30000007153,A,queenenter,O,enter,610,1,2748.600000023842,168383.70000004768,7239,WL,C,2.0
1,7.39900016784668,learn,52600.99983215332,Fri Nov 14 2025 10:09:36 GMT-0600 (Central Standard Time),172198.70000004768,A,w,O,w,1048,1,1066.0,171132.70000004768,7239,WL,C,3.0
1,7.698000192642212,learn,52301.99980735779,Fri Nov 14 2025 10:09:36 GMT-0600 (Central Standard Time),172498.39999997616,A,wh,O,h,286,1,1365.6999999284744,171132.70000004768,7239,WL,C,3.0
1,7.865000009536743,learn,52134.99999046326,Fri Nov 14 2025 10:09:36 GMT-0600 (Central Standard Time),172664.60000002384,A,whe,O,e,155,1,1531.8999999761581,171132.70000004768,7239,WL,C,3.0
1,8.081000089645386,learn,51918.999910354614,Fri Nov 14 2025 10:09:36 GMT-0600 (Central Standard Time),172881.20000004768,A,whea,O,a,206,1,1748.5,171132.70000004768,7239,WL,C,3.0
1,8.297000169754028,learn,51702.99983024597,Fri Nov 14 2025 10:09:36 GMT-0600 (Central Standard Time),173097.5,A,wheat,O,t,203,1,1964.7999999523163,171132.70000004768,7239,WL,C,3.0
1,9.414000034332275,learn,50585.999965667725,Fri Nov 14 2025 10:09:36 GMT-0600 (Central Standard Time),174214.0,A,wheatenter,O,enter,1101,1,3081.2999999523163,171132.70000004768,7239,WL,C,3.0
1,10.397000074386597,learn,49602.9999256134,Fri Nov 14 2025 10:09:36 GMT-0600 (Central Standard Time),175197.39999997616,A,b,O,b,976,1,983.0999999046326,174214.30000007153,7239,WL,C,4.0
1,10.69700002670288,learn,49302.99997329712,Fri Nov 14 2025 10:09:36 GMT-0600 (Central Standard Time),175496.80000007153,A,bo,O,o,280,1,1282.5,174214.30000007153,7239,WL,C,4.0
1,11.314000129699707,learn,48685.99987030029,Fri Nov 14 2025 10:09:36 GMT-0600 (Central Standard Time),176113.89999997616,A,boy,O,y,612,1,1899.5999999046326,174214.30000007153,7239,WL,C,4.0
1,11.813000202178955,learn,48186.999797821045,Fri Nov 14 2025 10:09:36 GMT-0600 (Central Standard Time),176613.20000004768,A,boyenter,O,enter,491,1,2398.899999976158,174214.30000007153,7239,WL,C,4.0
1,13.663000106811523,learn,46336.99989318848,Fri Nov 14 2025 10:09:36 GMT-0600 (Central Standard Time),178463.30000007153,A,b,O,b,1831,1,1849.8000000715256,176613.5,7239,WL,C,5.0
1,13.946000099182129,learn,46053.99990081787,Fri Nov 14 2025 10:09:36 GMT-0600 (Central Standard Time),178746.20000004768,A,bo,O,o,269,1,2132.7000000476837,176613.5,7239,WL,C,5.0
1,14.229000091552734,learn,45770.999908447266,Fri Nov 14 2025 10:09:36 GMT-0600 (Central Standard Time),179029.0,A,bod,O,d,275,1,2415.5,176613.5,7239,WL,C,5.0
1,14.629000186920166,learn,45370.999813079834,Fri Nov 14 2025 10:09:36 GMT-0600 (Central Standard Time),179429.20000004768,A,body,O,y,384,1,2815.7000000476837,176613.5,7239,WL,C,5.0
1,15.195000171661377,learn,44804.99982833862,Fri Nov 14 2025 10:09:36 GMT-0600 (Central Standard Time),179995.20000004768,A,bodyenter,O,enter,552,1,3381.7000000476837,176613.5,7239,WL,C,5.0
1,16.34500002861023,learn,43654.99997138977,Fri Nov 14 2025 10:09:36 GMT-0600 (Central Standard Time),181145.70000004768,A,c,O,c,1129,1,1150.1000000238419,179995.60000002384,7239,WL,C,6.0
1,16.561000108718872,learn,43438.99989128113,Fri Nov 14 2025 10:09:36 GMT-0600 (Central Standard Time),181361.10000002384,A,co,O,o,212,1,1365.5,179995.60000002384,7239,WL,C,6.0
1,16.796000003814697,learn,43203.9999961853,Fri Nov 14 2025 10:09:36 GMT-0600 (Central Standard Time),181596.10000002384,A,cor,O,r,221,1,1600.5,179995.60000002384,7239,WL,C,6.0
1,16.99500012397766,learn,43004.99987602234,Fri Nov 14 2025 10:09:36 GMT-0600 (Central Standard Time),181795.30000007153,A,corn,O,n,194,1,1799.7000000476837,179995.60000002384,7239,WL,C,6.0
1,17.611999988555908,learn,42388.00001144409,Fri Nov 14 2025 10:09:36 GMT-0600 (Central Standard Time),182412.0,A,cornenter,O,enter,602,1,2416.399999976158,179995.60000002384,7239,WL,C,6.0
1,23.009000062942505,learn,36990.999937057495,Fri Nov 14 2025 10:09:36 GMT-0600 (Central Standard Time),187809.60000002384,A,h,O,h,5391,1,5397.299999952316,182412.30000007153,7239,WL,C,7.0
1,23.325000047683716,learn,36674.999952316284,Fri Nov 14 2025 10:09:36 GMT-0600 (Central Standard Time),188126.0,A,ho,O,o,300,1,5713.699999928474,182412.30000007153,7239,WL,C,7.0
1,23.576000213623047,learn,36423.99978637695,Fri Nov 14 2025 10:09:36 GMT-0600 (Central Standard Time),188376.60000002384,A,hom,O,m,230,1,5964.299999952316,182412.30000007153,7239,WL,C,7.0
1,23.843000173568726,learn,36156.999826431274,Fri Nov 14 2025 10:09:36 GMT-0600 (Central Standard Time),188643.5,A,home,O,e,263,1,6231.199999928474,182412.30000007153,7239,WL,C,7.0
1,24.210000038146973,learn,35789.99996185303,Fri Nov 14 2025 10:09:36 GMT-0600 (Central Standard Time),189010.30000007153,A,homeenter,O,enter,354,1,6598.0,182412.30000007153,7239,WL,C,7.0
1,26.391000032424927,learn,33608.99996757507,Fri Nov 14 2025 10:09:36 GMT-0600 (Central Standard Time),191191.70000004768,A,s,O,s,2171,1,2181.3000000715256,189010.39999997616,7239,WL,C,8.0
1,26.642000198364258,learn,33357.99980163574,Fri Nov 14 2025 10:09:36 GMT-0600 (Central Standard Time),191442.70000004768,A,sh,O,h,246,1,2432.3000000715256,189010.39999997616,7239,WL,C,8.0
1,26.95800018310547,learn,33041.99981689453,Fri Nov 14 2025 10:09:36 GMT-0600 (Central Standard Time),191758.80000007153,A,sho,O,o,308,1,2748.4000000953674,189010.39999997616,7239,WL,C,8.0
1,27.20800018310547,learn,32791.99981689453,Fri Nov 14 2025 10:09:36 GMT-0600 (Central Standard Time),192008.5,A,shor,O,r,231,1,2998.100000023842,189010.39999997616,7239,WL,C,8.0
1,27.44099998474121,learn,32559.00001525879,Fri Nov 14 2025 10:09:36 GMT-0600 (Central Standard Time),192241.89999997616,A,shore,O,e,213,1,3231.5,189010.39999997616,7239,WL,C,8.0
1,27.742000102996826,learn,32257.999897003174,Fri Nov 14 2025 10:09:36 GMT-0600 (Central Standard Time),192542.10000002384,A,shoreenter,O,enter,291,1,3531.7000000476837,189010.39999997616,7239,WL,C,8.0
1,28.45800018310547,learn,31541.99981689453,Fri Nov 14 2025 10:09:36 GMT-0600 (Central Standard Time),193258.20000004768,A,c,O,c,695,1,715.8000000715256,192542.39999997616,7239,WL,C,9.0
1,28.60800004005432,learn,31391.99995994568,Fri Nov 14 2025 10:09:36 GMT-0600 (Central Standard Time),193408.60000002384,A,ca,O,a,140,1,866.2000000476837,192542.39999997616,7239,WL,C,9.0
1,28.94099998474121,learn,31059.00001525879,Fri Nov 14 2025 10:09:36 GMT-0600 (Central Standard Time),193741.20000004768,A,cat,O,t,317,1,1198.8000000715256,192542.39999997616,7239,WL,C,9.0
1,29.091000080108643,learn,30908.999919891357,Fri Nov 14 2025 10:09:36 GMT-0600 (Central Standard Time),193891.89999997616,A,catt,O,t,136,1,1349.5,192542.39999997616,7239,WL,C,9.0
1,29.27400016784668,learn,30725.99983215332,Fri Nov 14 2025 10:09:36 GMT-0600 (Central Standard Time),194074.60000002384,A,cattl,O,l,178,1,1532.2000000476837,192542.39999997616,7239,WL,C,9.0
1,29.44000005722046,learn,30559.99994277954,Fri Nov 14 2025 10:09:36 GMT-0600 (Central Standard Time),194240.89999997616,A,cattle,O,e,147,1,1698.5,192542.39999997616,7239,WL,C,9.0
1,30.074000120162964,learn,29925.999879837036,Fri Nov 14 2025 10:09:36 GMT-0600 (Central Standard Time),194874.70000004768,A,cattleenter,O,enter,629,1,2332.3000000715256,192542.39999997616,7239,WL,C,9.0
1,30.873000144958496,learn,29126.999855041504,Fri Nov 14 2025 10:09:36 GMT-0600 (Central Standard Time),195674.0,A,f,O,f,785,1,798.8999999761581,194875.10000002384,7239,WL,C,10.0
1,31.09000015258789,learn,28909.99984741211,Fri Nov 14 2025 10:09:36 GMT-0600 (Central Standard Time),195890.70000004768,A,fl,O,l,204,1,1015.6000000238419,194875.10000002384,7239,WL,C,10.0
1,31.240000009536743,learn,28759.999990463257,Fri Nov 14 2025 10:09:36 GMT-0600 (Central Standard Time),196040.20000004768,A,fla,O,a,131,1,1165.1000000238419,194875.10000002384,7239,WL,C,10.0
1,31.52300000190735,learn,28476.99999809265,Fri Nov 14 2025 10:09:36 GMT-0600 (Central Standard Time),196323.80000007153,A,flag,O,g,277,1,1448.7000000476837,194875.10000002384,7239,WL,C,10.0
1,32.14100003242493,learn,27858.999967575073,Fri Nov 14 2025 10:09:36 GMT-0600 (Central Standard Time),196941.39999997616,A,flagenter,O,enter,610,1,2066.2999999523163,194875.10000002384,7239,WL,C,10.0
1,41.96900010108948,learn,18030.999898910522,Fri Nov 14 2025 10:09:36 GMT-0600 (Central Standard Time),206769.89999997616,A,c,O,c,9825,1,9828.199999928474,196941.70000004768,7239,WL,C,11.0
1,42.1710000038147,learn,17828.999996185303,Fri Nov 14 2025 10:09:36 GMT-0600 (Central Standard Time),206971.5,A,ca,O,a,187,1,10029.799999952316,196941.70000004768,7239,WL,C,11.0
1,42.337000131607056,learn,17662.999868392944,Fri Nov 14 2025 10:09:36 GMT-0600 (Central Standard Time),207137.89999997616,A,cas,O,s,146,1,10196.199999928474,196941.70000004768,7239,WL,C,11.0
1,43.15300011634827,learn,16846.999883651733,Fri Nov 14 2025 10:09:36 GMT-0600 (Central Standard Time),207953.0,A,cast,O,t,796,1,11011.299999952316,196941.70000004768,7239,WL,C,11.0
1,43.53600001335144,learn,16463.99998664856,Fri Nov 14 2025 10:09:36 GMT-0600 (Central Standard Time),208336.39999997616,A,castl,O,l,373,1,11394.699999928474,196941.70000004768,7239,WL,C,11.0
1,43.9520001411438,learn,16047.999858856201,Fri Nov 14 2025 10:09:36 GMT-0600 (Central Standard Time),208753.10000002384,A,castle,O,e,396,1,11811.399999976158,196941.70000004768,7239,WL,C,11.0
1,44.28500008583069,learn,15714.999914169312,Fri Nov 14 2025 10:09:36 GMT-0600 (Central Standard Time),209085.89999997616,A,castleenter,O,enter,315,1,12144.199999928474,196941.70000004768,7239,WL,C,11.0
1,50.151000022888184,learn,9848.999977111816,Fri Nov 14 2025 10:09:36 GMT-0600 (Central Standard Time),214951.20000004768,A,f,O,f,5857,1,5865.200000047684,209086.0,7239,WL,C,12.0
1,50.38499999046326,learn,9615.000009536743,Fri Nov 14 2025 10:09:36 GMT-0600 (Central Standard Time),215185.20000004768,A,fi,O,i,215,1,6099.200000047684,209086.0,7239,WL,C,12.0
1,50.56599998474121,learn,9434.000015258789,Fri Nov 14 2025 10:09:36 GMT-0600 (Central Standard Time),215367.0,A,fie,O,e,164,1,6281.0,209086.0,7239,WL,C,12.0
1,50.75,learn,9250.0,Fri Nov 14 2025 10:09:36 GMT-0600 (Central Standard Time),215551.0,A,fiel,O,l,166,1,6465.0,209086.0,7239,WL,C,12.0
1,50.93400001525879,learn,9065.999984741211,Fri Nov 14 2025 10:09:36 GMT-0600 (Central Standard Time),215734.20000004768,A,field,O,d,165,1,6648.200000047684,209086.0,7239,WL,C,12.0
1,51.13300013542175,learn,8866.999864578247,Fri Nov 14 2025 10:09:36 GMT-0600 (Central Standard Time),215933.80000007153,A,fieldenter,O,enter,191,1,6847.800000071526,209086.0,7239,WL,C,12.0
1,60.01400017738342,learn,-14.000177383422852,Fri Nov 14 2025 10:09:36 GMT-0600 (Central Standard Time),224814.89999997616,A,None,O,None,8877,1,8880.799999952316,215934.10000002384,7239,WL,C,13.0
2,1.067000150680542,learn,58932.99984931946,Fri Nov 14 2025 10:09:36 GMT-0600 (Central Standard Time),301490.5,A,t,O,t,1054,1,1066.6000000238419,300423.89999997616,7239,WL,C,1.0
2,1.433000087738037,learn,58566.99991226196,Fri Nov 14 2025 10:09:36 GMT-0600 (Central Standard Time),301857.0,A,to,O,o,348,1,1433.1000000238419,300423.89999997616,7239,WL,C,1.0
2,1.6500000953674316,learn,58349.99990463257,Fri Nov 14 2025 10:09:36 GMT-0600 (Central Standard Time),302073.5,A,tow,O,w,197,1,1649.6000000238419,300423.89999997616,7239,WL,C,1.0
2,1.8330001831054688,learn,58166.99981689453,Fri Nov 14 2025 10:09:36 GMT-0600 (Central Standard Time),302257.0,A,towe,O,e,164,1,1833.1000000238419,300423.89999997616,7239,WL,C,1.0
2,2.116000175476074,learn,57883.999824523926,Fri Nov 14 2025 10:09:36 GMT-0600 (Central Standard Time),302539.2000000477,A,tower,O,r,276,1,2115.3000000715256,300423.89999997616,7239,WL,C,1.0
2,2.700000047683716,learn,57299.999952316284,Fri Nov 14 2025 10:09:36 GMT-0600 (Central Standard Time),303123.10000002384,A,towerenter,O,enter,580,1,2699.2000000476837,300423.89999997616,7239,WL,C,1.0
2,3.5830001831054688,learn,56416.99981689453,Fri Nov 14 2025 10:09:36 GMT-0600 (Central Standard Time),304006.2000000477,A,q,O,q,875,1,882.8999999761581,303123.3000000715,7239,WL,C,2.0
2,3.8490002155303955,learn,56150.999784469604,Fri Nov 14 2025 10:09:36 GMT-0600 (Central Standard Time),304272.60000002384,A,qu,O,u,255,1,1149.2999999523163,303123.3000000715,7239,WL,C,2.0
2,4.199000120162964,learn,55800.999879837036,Fri Nov 14 2025 10:09:36 GMT-0600 (Central Standard Time),304622.39999997616,A,que,O,e,333,1,1499.0999999046326,303123.3000000715,7239,WL,C,2.0
2,4.39900016784668,learn,55600.99983215332,Fri Nov 14 2025 10:09:36 GMT-0600 (Central Standard Time),304822.8000000715,A,quee,O,e,191,1,1699.5,303123.3000000715,7239,WL,C,2.0
2,4.682000160217285,learn,55317.999839782715,Fri Nov 14 2025 10:09:36 GMT-0600 (Central Standard Time),305105.60000002384,A,queen,O,n,263,1,1982.2999999523163,303123.3000000715,7239,WL,C,2.0
2,5.199000120162964,learn,54800.999879837036,Fri Nov 14 2025 10:09:36 GMT-0600 (Central Standard Time),305622.10000002384,A,queenenter,O,enter,500,1,2498.7999999523163,303123.3000000715,7239,WL,C,2.0
2,6.3490002155303955,learn,53650.999784469604,Fri Nov 14 2025 10:09:36 GMT-0600 (Central Standard Time),306772.39999997616,A,w,O,w,1136,1,1150.0999999046326,305622.3000000715,7239,WL,C,3.0
2,6.615000009536743,learn,53384.99999046326,Fri Nov 14 2025 10:09:36 GMT-0600 (Central Standard Time),307038.7000000477,A,wh,O,h,251,1,1416.3999999761581,305622.3000000715,7239,WL,C,3.0
2,6.764000177383423,learn,53235.99982261658,Fri Nov 14 2025 10:09:36 GMT-0600 (Central Standard Time),307187.7000000477,A,whe,O,e,144,1,1565.3999999761581,305622.3000000715,7239,WL,C,3.0
2,6.981000185012817,learn,53018.99981498718,Fri Nov 14 2025 10:09:36 GMT-0600 (Central Standard Time),307404.7000000477,A,whea,O,a,210,1,1782.3999999761581,305622.3000000715,7239,WL,C,3.0
2,7.199000120162964,learn,52800.999879837036,Fri Nov 14 2025 10:09:36 GMT-0600 (Central Standard Time),307622.3000000715,A,wheat,O,t,209,1,2000.0,305622.3000000715,7239,WL,C,3.0
2,7.651000022888184,learn,52348.99997711182,Fri Nov 14 2025 10:09:36 GMT-0600 (Central Standard Time),308074.3000000715,A,wheatenter,O,enter,431,1,2452.0,305622.3000000715,7239,WL,C,3.0
2,8.48200011253357,learn,51517.99988746643,Fri Nov 14 2025 10:09:36 GMT-0600 (Central Standard Time),308905.2000000477,A,d,O,d,811,1,830.7000000476837,308074.5,7239,WL,C,4.0
2,8.748000144958496,learn,51251.999855041504,Fri Nov 14 2025 10:09:36 GMT-0600 (Central Standard Time),309171.8000000715,A,do,O,o,254,1,1097.3000000715256,308074.5,7239,WL,C,4.0
2,8.914000034332275,learn,51085.999965667725,Fri Nov 14 2025 10:09:36 GMT-0600 (Central Standard Time),309337.89999997616,A,doc,O,c,153,1,1263.3999999761581,308074.5,7239,WL,C,4.0
2,9.214000225067139,learn,50785.99977493286,Fri Nov 14 2025 10:09:36 GMT-0600 (Central Standard Time),309637.8000000715,A,doct,O,t,284,1,1563.3000000715256,308074.5,7239,WL,C,4.0
2,9.414000034332275,learn,50585.999965667725,Fri Nov 14 2025 10:09:36 GMT-0600 (Central Standard Time),309837.5,A,docto,O,o,192,1,1763.0,308074.5,7239,WL,C,4.0
2,9.59600019454956,learn,50403.99980545044,Fri Nov 14 2025 10:09:36 GMT-0600 (Central Standard Time),310020.0,A,doctot,O,t,176,1,1945.5,308074.5,7239,WL,C,4.0
2,10.213000059127808,learn,49786.99994087219,Fri Nov 14 2025 10:09:36 GMT-0600 (Central Standard Time),310636.39999997616,A,docto,O,backspace,611,1,2561.899999976158,308074.5,7239,WL,C,4.0
2,11.014000177383423,learn,48985.99982261658,Fri Nov 14 2025 10:09:36 GMT-0600 (Central Standard Time),311437.2000000477,A,doctor,O,r,785,1,3362.7000000476837,308074.5,7239,WL,C,4.0
2,11.463000059127808,learn,48536.99994087219,Fri Nov 14 2025 10:09:36 GMT-0600 (Central Standard Time),311886.8000000715,A,doctorenter,O,enter,442,1,3812.3000000715256,308074.5,7239,WL,C,4.0
2,12.297000169754028,learn,47702.99983024597,Fri Nov 14 2025 10:09:36 GMT-0600 (Central Standard Time),312720.2000000477,A,n,O,n,815,1,833.2000000476837,311887.0,7239,WL,C,5.0
2,12.647000074386597,learn,47352.9999256134,Fri Nov 14 2025 10:09:36 GMT-0600 (Central Standard Time),313070.3000000715,A,na,O,a,335,1,1183.3000000715256,311887.0,7239,WL,C,5.0
2,12.86300015449524,learn,47136.99984550476,Fri Nov 14 2025 10:09:36 GMT-0600 (Central Standard Time),313286.8000000715,A,nai,O,i,207,1,1399.8000000715256,311887.0,7239,WL,C,5.0
2,13.063000202178955,learn,46936.999797821045,Fri Nov 14 2025 10:09:36 GMT-0600 (Central Standard Time),313486.7000000477,A,nail,O,l,191,1,1599.7000000476837,311887.0,7239,WL,C,5.0
2,13.531000137329102,learn,46468.9998626709,Fri Nov 14 2025 10:09:36 GMT-0600 (Central Standard Time),313954.39999997616,A,nailenter,O,enter,456,1,2067.399999976158,311887.0,7239,WL,C,5.0
2,14.413000106811523,learn,45586.99989318848,Fri Nov 14 2025 10:09:36 GMT-0600 (Central Standard Time),314836.39999997616,A,b,O,b,875,1,881.7999999523163,313954.60000002384,7239,WL,C,6.0
2,14.747000217437744,learn,45252.999782562256,Fri Nov 14 2025 10:09:36 GMT-0600 (Central Standard Time),315170.3000000715,A,bo,O,o,313,1,1215.7000000476837,313954.60000002384,7239,WL,C,6.0
2,15.079000234603882,learn,44920.99976539612,Fri Nov 14 2025 10:09:36 GMT-0600 (Central Standard Time),315503.0,A,boy,O,y,315,1,1548.3999999761581,313954.60000002384,7239,WL,C,6.0
2,15.529000043869019,learn,44470.99995613098,Fri Nov 14 2025 10:09:36 GMT-0600 (Central Standard Time),315952.2000000477,A,boyenter,O,enter,438,1,1997.6000000238419,313954.60000002384,7239,WL,C,6.0
2,16.079000234603882,learn,43920.99976539612,Fri Nov 14 2025 10:09:36 GMT-0600 (Central Standard Time),316502.39999997616,A,c,O,c,541,1,550.0,315952.39999997616,7239,WL,C,7.0
2,16.27900004386902,learn,43720.99995613098,Fri Nov 14 2025 10:09:36 GMT-0600 (Central Standard Time),316702.3000000715,A,ca,O,a,183,1,749.9000000953674,315952.39999997616,7239,WL,C,7.0
2,16.44600009918213,learn,43553.99990081787,Fri Nov 14 2025 10:09:36 GMT-0600 (Central Standard Time),316869.10000002384,A,cam,O,m,160,1,916.7000000476837,315952.39999997616,7239,WL,C,7.0
2,16.84500002861023,learn,43154.99997138977,Fri Nov 14 2025 10:09:36 GMT-0600 (Central Standard Time),317268.8000000715,A,camp,O,p,393,1,1316.4000000953674,315952.39999997616,7239,WL,C,7.0
2,17.52900004386902,learn,42470.99995613098,Fri Nov 14 2025 10:09:36 GMT-0600 (Central Standard Time),317952.2000000477,A,campenter,O,enter,665,1,1999.8000000715256,315952.39999997616,7239,WL,C,7.0
2,18.295000076293945,learn,41704.999923706055,Fri Nov 14 2025 10:09:36 GMT-0600 (Central Standard Time),318718.60000002384,A,f,O,f,748,1,766.1000000238419,317952.5,7239,WL,C,8.0
2,18.544000148773193,learn,41455.99985122681,Fri Nov 14 2025 10:09:36 GMT-0600 (Central Standard Time),318967.89999997616,A,fl,O,l,231,1,1015.3999999761581,317952.5,7239,WL,C,8.0
2,18.694000005722046,learn,41305.999994277954,Fri Nov 14 2025 10:09:36 GMT-0600 (Central Standard Time),319117.89999997616,A,fla,O,a,132,1,1165.3999999761581,317952.5,7239,WL,C,8.0
2,19.028000116348267,learn,40971.99988365173,Fri Nov 14 2025 10:09:36 GMT-0600 (Central Standard Time),319451.5,A,flag,O,g,320,1,1499.0,317952.5,7239,WL,C,8.0
2,19.444000005722046,learn,40555.999994277954,Fri Nov 14 2025 10:09:36 GMT-0600 (Central Standard Time),319867.7000000477,A,flagenter,O,enter,412,1,1915.2000000476837,317952.5,7239,WL,C,8.0
2,21.14300012588501,learn,38856.99987411499,Fri Nov 14 2025 10:09:36 GMT-0600 (Central Standard Time),321567.0,A,s,O,s,1691,1,1699.1000000238419,319867.89999997616,7239,WL,C,9.0
2,21.39400005340576,learn,38605.99994659424,Fri Nov 14 2025 10:09:36 GMT-0600 (Central Standard Time),321817.10000002384,A,su,O,u,231,1,1949.2000000476837,319867.89999997616,7239,WL,C,9.0
2,21.627000093460083,learn,38372.99990653992,Fri Nov 14 2025 10:09:36 GMT-0600 (Central Standard Time),322050.8000000715,A,sug,O,g,231,1,2182.9000000953674,319867.89999997616,7239,WL,C,9.0
2,21.860000133514404,learn,38139.999866485596,Fri Nov 14 2025 10:09:36 GMT-0600 (Central Standard Time),322283.3000000715,A,suga,O,a,219,1,2415.4000000953674,319867.89999997616,7239,WL,C,9.0
2,22.0770001411438,learn,37922.9998588562,Fri Nov 14 2025 10:09:36 GMT-0600 (Central Standard Time),322500.39999997616,A,sugar,O,r,212,1,2632.5,319867.89999997616,7239,WL,C,9.0
2,23.14300012588501,learn,36856.99987411499,Fri Nov 14 2025 10:09:36 GMT-0600 (Central Standard Time),323566.3000000715,A,sugarenter,O,enter,1050,1,3698.4000000953674,319867.89999997616,7239,WL,C,9.0
2,23.593000173568726,learn,36406.999826431274,Fri Nov 14 2025 10:09:36 GMT-0600 (Central Standard Time),324016.10000002384,A,s,O,s,430,1,449.5,323566.60000002384,7239,WL,C,10.0
2,23.79300022125244,learn,36206.99977874756,Fri Nov 14 2025 10:09:36 GMT-0600 (Central Standard Time),324216.7000000477,A,sh,O,h,190,1,650.1000000238419,323566.60000002384,7239,WL,C,10.0
2,24.026000022888184,learn,35973.99997711182,Fri Nov 14 2025 10:09:36 GMT-0600 (Central Standard Time),324450.10000002384,A,sho,O,o,230,1,883.5,323566.60000002384,7239,WL,C,10.0
2,24.16000008583069,learn,35839.99991416931,Fri Nov 14 2025 10:09:36 GMT-0600 (Central Standard Time),324583.2000000477,A,shor,O,r,124,1,1016.6000000238419,323566.60000002384,7239,WL,C,10.0
2,24.243000030517578,learn,35756.99996948242,Fri Nov 14 2025 10:09:36 GMT-0600 (Central Standard Time),324666.60000002384,A,shore,O,e,71,1,1100.0,323566.60000002384,7239,WL,C,10.0
2,24.892000198364258,learn,35107.99980163574,Fri Nov 14 2025 10:09:36 GMT-0600 (Central Standard Time),325315.7000000477,A,shoreenter,O,enter,643,1,1749.1000000238419,323566.60000002384,7239,WL,C,10.0
2,25.77500009536743,learn,34224.99990463257,Fri Nov 14 2025 10:09:36 GMT-0600 (Central Standard Time),326198.7000000477,A,b,O,b,873,1,882.7000000476837,325316.0,7239,WL,C,11.0
2,25.9760000705719,learn,34023.9999294281,Fri Nov 14 2025 10:09:36 GMT-0600 (Central Standard Time),326399.3000000715,A,bo,O,o,191,1,1083.3000000715256,325316.0,7239,WL,C,11.0
2,26.342000007629395,learn,33657.999992370605,Fri Nov 14 2025 10:09:36 GMT-0600 (Central Standard Time),326765.10000002384,A,bod,O,d,350,1,1449.1000000238419,325316.0,7239,WL,C,11.0
2,26.527000188827515,learn,33472.999811172485,Fri Nov 14 2025 10:09:36 GMT-0600 (Central Standard Time),326950.2000000477,A,body,O,y,178,1,1634.2000000476837,325316.0,7239,WL,C,11.0
2,27.04300022125244,learn,32956.99977874756,Fri Nov 14 2025 10:09:36 GMT-0600 (Central Standard Time),327466.2000000477,A,bodyenter,O,enter,504,1,2150.2000000476837,325316.0,7239,WL,C,11.0
2,28.04200005531311,learn,31957.99994468689,Fri Nov 14 2025 10:09:36 GMT-0600 (Central Standard Time),328465.2000000477,A,q,O,q,980,1,998.8999999761581,327466.3000000715,7239,WL,C,12.0
2,28.192000150680542,learn,31807.999849319458,Fri Nov 14 2025 10:09:36 GMT-0600 (Central Standard Time),328615.60000002384,A,qu,O,u,132,1,1149.2999999523163,327466.3000000715,7239,WL,C,12.0
2,28.426000118255615,learn,31573.999881744385,Fri Nov 14 2025 10:09:36 GMT-0600 (Central Standard Time),328849.0,A,que,O,e,214,1,1382.6999999284744,327466.3000000715,7239,WL,C,12.0
2,28.591000080108643,learn,31408.999919891357,Fri Nov 14 2025 10:09:36 GMT-0600 (Central Standard Time),329014.7000000477,A,quee,O,e,149,1,1548.3999999761581,327466.3000000715,7239,WL,C,12.0
2,29.10800004005432,learn,30891.99995994568,Fri Nov 14 2025 10:09:36 GMT-0600 (Central Standard Time),329531.2000000477,A,queen,O,n,513,1,2064.899999976158,327466.3000000715,7239,WL,C,12.0
2,29.675000190734863,learn,30324.999809265137,Fri Nov 14 2025 10:09:36 GMT-0600 (Central Standard Time),330098.89999997616,A,queenenter,O,enter,555,1,2632.5999999046326,327466.3000000715,7239,WL,C,12.0
2,33.040000200271606,learn,26959.999799728394,Fri Nov 14 2025 10:09:36 GMT-0600 (Central Standard Time),333463.7000000477,A,c,O,c,3345,1,3364.600000023842,330099.10000002384,7239,WL,C,13.0
2,33.18900012969971,learn,26810.999870300293,Fri Nov 14 2025 10:09:36 GMT-0600 (Central Standard Time),333612.60000002384,A,ca,O,a,134,1,3513.5,330099.10000002384,7239,WL,C,13.0
2,33.307000160217285,learn,26692.999839782715,Fri Nov 14 2025 10:09:36 GMT-0600 (Central Standard Time),333730.60000002384,A,cam,O,m,106,1,3631.5,330099.10000002384,7239,WL,C,13.0
2,33.69000005722046,learn,26309.99994277954,Fri Nov 14 2025 10:09:36 GMT-0600 (Central Standard Time),334113.39999997616,A,camp,O,p,363,1,4014.2999999523163,330099.10000002384,7239,WL,C,13.0
2,34.09000015258789,learn,25909.99984741211,Fri Nov 14 2025 10:09:36 GMT-0600 (Central Standard Time),334513.10000002384,A,campenter,O,enter,388,1,4414.0,330099.10000002384,7239,WL,C,13.0
2,38.43900012969971,learn,21560.999870300293,Fri Nov 14 2025 10:09:36 GMT-0600 (Central Standard Time),338862.2000000477,A,c,O,c,4339,1,4348.899999976158,334513.3000000715,7239,WL,C,14.0
2,38.63900017738342,learn,21360.999822616577,Fri Nov 14 2025 10:09:36 GMT-0600 (Central Standard Time),339062.2000000477,A,ca,O,a,192,1,4548.899999976158,334513.3000000715,7239,WL,C,14.0
2,39.03800010681152,learn,20961.999893188477,Fri Nov 14 2025 10:09:36 GMT-0600 (Central Standard Time),339461.3000000715,A,cat,O,t,391,1,4948.0,334513.3000000715,7239,WL,C,14.0
2,39.20400023460388,learn,20795.999765396118,Fri Nov 14 2025 10:09:36 GMT-0600 (Central Standard Time),339628.0,A,catt,O,t,152,1,5114.699999928474,334513.3000000715,7239,WL,C,14.0
2,39.40400004386902,learn,20595.99995613098,Fri Nov 14 2025 10:09:36 GMT-0600 (Central Standard Time),339827.89999997616,A,cattl,O,l,186,1,5314.599999904633,334513.3000000715,7239,WL,C,14.0
2,39.57200002670288,learn,20427.99997329712,Fri Nov 14 2025 10:09:36 GMT-0600 (Central Standard Time),339995.3000000715,A,cattle,O,e,163,1,5482.0,334513.3000000715,7239,WL,C,14.0
2,40.087000131607056,learn,19912.999868392944,Fri Nov 14 2025 10:09:36 GMT-0600 (Central Standard Time),340511.0,A,cattleenter,O,enter,507,1,5997.699999928474,334513.3000000715,7239,WL,C,14.0
2,43.38600015640259,learn,16613.999843597412,Fri Nov 14 2025 10:09:36 GMT-0600 (Central Standard Time),343809.89999997616,A,n,O,n,3294,1,3298.7999999523163,340511.10000002384,7239,WL,C,15.0
2,43.62000012397766,learn,16379.999876022339,Fri Nov 14 2025 10:09:36 GMT-0600 (Central Standard Time),344043.60000002384,A,na,O,a,228,1,3532.5,340511.10000002384,7239,WL,C,15.0
2,43.82000017166138,learn,16179.999828338623,Fri Nov 14 2025 10:09:36 GMT-0600 (Central Standard Time),344243.89999997616,A,nai,O,i,194,1,3732.7999999523163,340511.10000002384,7239,WL,C,15.0
2,44.03600001335144,learn,15963.99998664856,Fri Nov 14 2025 10:09:36 GMT-0600 (Central Standard Time),344460.0,A,nail,O,l,210,1,3948.899999976158,340511.10000002384,7239,WL,C,15.0
2,44.37000012397766,learn,15629.999876022339,Fri Nov 14 2025 10:09:36 GMT-0600 (Central Standard Time),344793.89999997616,A,nailenter,O,enter,323,1,4282.799999952316,340511.10000002384,7239,WL,C,15.0
3,1.0329999923706055,learn,58967.000007629395,Fri Nov 14 2025 10:09:36 GMT-0600 (Central Standard Time),416537.0,A,t,O,t,1023,1,1032.3999999761581,415504.60000002384,7239,WL,C,1.0
3,1.5329999923706055,learn,58467.000007629395,Fri Nov 14 2025 10:09:36 GMT-0600 (Central Standard Time),417036.7000000477,A,to,O,o,483,1,1532.1000000238419,415504.60000002384,7239,WL,C,1.0
3,1.7999999523162842,learn,58200.000047683716,Fri Nov 14 2025 10:09:36 GMT-0600 (Central Standard Time),417303.8000000715,A,tow,O,w,249,1,1799.2000000476837,415504.60000002384,7239,WL,C,1.0
3,1.9659998416900635,learn,58034.00015830994,Fri Nov 14 2025 10:09:36 GMT-0600 (Central Standard Time),417470.3000000715,A,towe,O,e,158,1,1965.7000000476837,415504.60000002384,7239,WL,C,1.0
3,2.2319998741149902,learn,57768.00012588501,Fri Nov 14 2025 10:09:36 GMT-0600 (Central Standard Time),417736.39999997616,A,tower,O,r,248,1,2231.7999999523163,415504.60000002384,7239,WL,C,1.0
3,2.682999849319458,learn,57317.00015068054,Fri Nov 14 2025 10:09:36 GMT-0600 (Central Standard Time),418186.8000000715,A,towerenter,O,enter,439,1,2682.2000000476837,415504.60000002384,7239,WL,C,1.0
3,4.299000024795532,learn,55700.99997520447,Fri Nov 14 2025 10:09:36 GMT-0600 (Central Standard Time),419802.60000002384,A,w,O,w,1594,1,1615.7000000476837,418186.89999997616,7239,WL,C,2.0
3,4.582000017166138,learn,55417.99998283386,Fri Nov 14 2025 10:09:36 GMT-0600 (Central Standard Time),420086.10000002384,A,wh,O,h,276,1,1899.2000000476837,418186.89999997616,7239,WL,C,2.0
3,4.763999938964844,learn,55236.000061035156,Fri Nov 14 2025 10:09:36 GMT-0600 (Central Standard Time),420268.3000000715,A,whe,O,e,176,1,2081.4000000953674,418186.89999997616,7239,WL,C,2.0
3,4.980999946594238,learn,55019.00005340576,Fri Nov 14 2025 10:09:36 GMT-0600 (Central Standard Time),420485.60000002384,A,whea,O,a,202,1,2298.7000000476837,418186.89999997616,7239,WL,C,2.0
3,5.247999906539917,learn,54752.00009346008,Fri Nov 14 2025 10:09:36 GMT-0600 (Central Standard Time),420752.3000000715,A,wheat,O,t,248,1,2565.4000000953674,418186.89999997616,7239,WL,C,2.0
3,5.980999946594238,learn,54019.00005340576,Fri Nov 14 2025 10:09:36 GMT-0600 (Central Standard Time),421485.3000000715,A,wheatenter,O,enter,726,1,3298.4000000953674,418186.89999997616,7239,WL,C,2.0
3,8.013999938964844,learn,51986.000061035156,Fri Nov 14 2025 10:09:36 GMT-0600 (Central Standard Time),423518.2000000477,A,q,O,q,2024,1,2032.7000000476837,421485.5,7239,WL,C,3.0
3,8.230999946594238,learn,51769.00005340576,Fri Nov 14 2025 10:09:36 GMT-0600 (Central Standard Time),423735.5,A,qu,O,u,209,1,2250.0,421485.5,7239,WL,C,3.0
3,8.480000019073486,learn,51519.999980926514,Fri Nov 14 2025 10:09:36 GMT-0600 (Central Standard Time),423984.60000002384,A,que,O,e,230,1,2499.100000023842,421485.5,7239,WL,C,3.0
3,8.646999835968018,learn,51353.00016403198,Fri Nov 14 2025 10:09:36 GMT-0600 (Central Standard Time),424151.5,A,quee,O,e,149,1,2666.0,421485.5,7239,WL,C,3.0
3,8.812999963760376,learn,51187.000036239624,Fri Nov 14 2025 10:09:36 GMT-0600 (Central Standard Time),424318.10000002384,A,queen,O,n,158,1,2832.600000023842,421485.5,7239,WL,C,3.0
3,9.447999954223633,learn,50552.00004577637,Fri Nov 14 2025 10:09:36 GMT-0600 (Central Standard Time),424952.7000000477,A,queenenter,O,enter,624,1,3467.2000000476837,421485.5,7239,WL,C,3.0
3,11.345999956130981,learn,48654.00004386902,Fri Nov 14 2025 10:09:36 GMT-0600 (Central Standard Time),426850.8000000715,A,b,O,b,1885,1,1897.8000000715256,424953.0,7239,WL,C,4.0
3,11.61299991607666,learn,48387.00008392334,Fri Nov 14 2025 10:09:36 GMT-0600 (Central Standard Time),427117.39999997616,A,bo,O,o,260,1,2164.399999976158,424953.0,7239,WL,C,4.0
3,12.01199984550476,learn,47988.00015449524,Fri Nov 14 2025 10:09:36 GMT-0600 (Central Standard Time),427516.39999997616,A,boy,O,y,394,1,2563.399999976158,424953.0,7239,WL,C,4.0
3,12.42799997329712,learn,47572.00002670288,Fri Nov 14 2025 10:09:36 GMT-0600 (Central Standard Time),427933.0,A,boyenter,O,enter,402,1,2980.0,424953.0,7239,WL,C,4.0
3,13.227999925613403,learn,46772.0000743866,Fri Nov 14 2025 10:09:36 GMT-0600 (Central Standard Time),428732.39999997616,A,d,O,d,793,1,799.1999999284744,427933.2000000477,7239,WL,C,5.0
3,13.544999837875366,learn,46455.000162124634,Fri Nov 14 2025 10:09:36 GMT-0600 (Central Standard Time),429049.8000000715,A,do,O,o,298,1,1116.6000000238419,427933.2000000477,7239,WL,C,5.0
3,13.67799997329712,learn,46322.00002670288,Fri Nov 14 2025 10:09:36 GMT-0600 (Central Standard Time),429182.7000000477,A,doc,O,c,115,1,1249.5,427933.2000000477,7239,WL,C,5.0
3,13.99399995803833,learn,46006.00004196167,Fri Nov 14 2025 10:09:36 GMT-0600 (Central Standard Time),429498.60000002384,A,doct,O,t,313,1,1565.3999999761581,427933.2000000477,7239,WL,C,5.0
3,14.161999940872192,learn,45838.00005912781,Fri Nov 14 2025 10:09:36 GMT-0600 (Central Standard Time),429666.5,A,docto,O,o,155,1,1733.2999999523163,427933.2000000477,7239,WL,C,5.0
3,14.296000003814697,learn,45703.9999961853,Fri Nov 14 2025 10:09:36 GMT-0600 (Central Standard Time),429800.3000000715,A,doctor,O,r,125,1,1867.1000000238419,427933.2000000477,7239,WL,C,5.0
3,14.744999885559082,learn,45255.00011444092,Fri Nov 14 2025 10:09:36 GMT-0600 (Central Standard Time),430249.2000000477,A,doctorenter,O,enter,430,1,2316.0,427933.2000000477,7239,WL,C,5.0
3,15.57800006866455,learn,44421.99993133545,Fri Nov 14 2025 10:09:36 GMT-0600 (Central Standard Time),431082.39999997616,A,h,O,h,829,1,833.0999999046326,430249.3000000715,7239,WL,C,6.0
3,15.82800006866455,learn,44171.99993133545,Fri Nov 14 2025 10:09:36 GMT-0600 (Central Standard Time),431332.5,A,ho,O,o,236,1,1083.1999999284744,430249.3000000715,7239,WL,C,6.0
3,16.060999870300293,learn,43939.00012969971,Fri Nov 14 2025 10:09:36 GMT-0600 (Central Standard Time),431565.10000002384,A,hom,O,m,225,1,1315.7999999523163,430249.3000000715,7239,WL,C,6.0
3,16.293999910354614,learn,43706.000089645386,Fri Nov 14 2025 10:09:36 GMT-0600 (Central Standard Time),431798.2000000477,A,home,O,e,225,1,1548.8999999761581,430249.3000000715,7239,WL,C,6.0
3,16.99399995803833,learn,43006.00004196167,Fri Nov 14 2025 10:09:36 GMT-0600 (Central Standard Time),432498.5,A,homeenter,O,enter,689,1,2249.1999999284744,430249.3000000715,7239,WL,C,6.0
3,18.16100001335144,learn,41838.99998664856,Fri Nov 14 2025 10:09:36 GMT-0600 (Central Standard Time),433665.10000002384,A,c,O,c,1155,1,1166.2999999523163,432498.8000000715,7239,WL,C,7.0
3,18.378000020980835,learn,41621.999979019165,Fri Nov 14 2025 10:09:36 GMT-0600 (Central Standard Time),433882.10000002384,A,ca,O,a,205,1,1383.2999999523163,432498.8000000715,7239,WL,C,7.0
3,18.55999994277954,learn,41440.00005722046,Fri Nov 14 2025 10:09:36 GMT-0600 (Central Standard Time),434064.60000002384,A,cam,O,m,172,1,1565.7999999523163,432498.8000000715,7239,WL,C,7.0
3,18.861000061035156,learn,41138.999938964844,Fri Nov 14 2025 10:09:36 GMT-0600 (Central Standard Time),434365.3000000715,A,camp,O,p,286,1,1866.5,432498.8000000715,7239,WL,C,7.0
3,20.858999967575073,learn,39141.00003242493,Fri Nov 14 2025 10:09:36 GMT-0600 (Central Standard Time),436363.7000000477,A,campenter,O,enter,1993,1,3864.899999976158,432498.8000000715,7239,WL,C,7.0
3,21.70899987220764,learn,38291.00012779236,Fri Nov 14 2025 10:09:36 GMT-0600 (Central Standard Time),437213.3000000715,A,f,O,f,835,1,849.4000000953674,436363.89999997616,7239,WL,C,8.0
3,22.009999990463257,learn,37990.00000953674,Fri Nov 14 2025 10:09:36 GMT-0600 (Central Standard Time),437514.2000000477,A,fl,O,l,289,1,1150.3000000715256,436363.89999997616,7239,WL,C,8.0
3,22.15999984741211,learn,37840.00015258789,Fri Nov 14 2025 10:09:36 GMT-0600 (Central Standard Time),437664.5,A,fla,O,a,141,1,1300.6000000238419,436363.89999997616,7239,WL,C,8.0
3,22.524999856948853,learn,37475.00014305115,Fri Nov 14 2025 10:09:36 GMT-0600 (Central Standard Time),438029.8000000715,A,flag,O,g,357,1,1665.9000000953674,436363.89999997616,7239,WL,C,8.0
3,23.026000022888184,learn,36973.99997711182,Fri Nov 14 2025 10:09:36 GMT-0600 (Central Standard Time),438531.0,A,flagenter,O,enter,498,1,2167.100000023842,436363.89999997616,7239,WL,C,8.0
3,24.024999856948853,learn,35975.00014305115,Fri Nov 14 2025 10:09:36 GMT-0600 (Central Standard Time),439530.0,A,n,O,n,996,1,998.7999999523163,438531.2000000477,7239,WL,C,9.0
3,24.241999864578247,learn,35758.00013542175,Fri Nov 14 2025 10:09:36 GMT-0600 (Central Standard Time),439746.89999997616,A,na,O,a,204,1,1215.6999999284744,438531.2000000477,7239,WL,C,9.0
3,24.424999952316284,learn,35575.000047683716,Fri Nov 14 2025 10:09:36 GMT-0600 (Central Standard Time),439929.39999997616,A,nai,O,i,171,1,1398.1999999284744,438531.2000000477,7239,WL,C,9.0
3,24.608999967575073,learn,35391.00003242493,Fri Nov 14 2025 10:09:36 GMT-0600 (Central Standard Time),440113.39999997616,A,nail,O,l,174,1,1582.1999999284744,438531.2000000477,7239,WL,C,9.0
3,25.04200005531311,learn,34957.99994468689,Fri Nov 14 2025 10:09:36 GMT-0600 (Central Standard Time),440546.7000000477,A,nailenter,O,enter,422,1,2015.5,438531.2000000477,7239,WL,C,9.0
3,25.79099988937378,learn,34209.00011062622,Fri Nov 14 2025 10:09:36 GMT-0600 (Central Standard Time),441295.3000000715,A,l,O,l,740,1,748.5,440546.8000000715,7239,WL,C,10.0
3,25.957000017166138,learn,34042.99998283386,Fri Nov 14 2025 10:09:36 GMT-0600 (Central Standard Time),441461.7000000477,A,le,O,e,160,1,914.8999999761581,440546.8000000715,7239,WL,C,10.0
3,26.22499990463257,learn,33775.00009536743,Fri Nov 14 2025 10:09:36 GMT-0600 (Central Standard Time),441729.7000000477,A,let,O,t,265,1,1182.8999999761581,440546.8000000715,7239,WL,C,10.0
3,26.39199995994568,learn,33608.00004005432,Fri Nov 14 2025 10:09:36 GMT-0600 (Central Standard Time),441896.7000000477,A,lett,O,t,148,1,1349.8999999761581,440546.8000000715,7239,WL,C,10.0
3,26.624000072479248,learn,33375.99992752075,Fri Nov 14 2025 10:09:36 GMT-0600 (Central Standard Time),442128.89999997616,A,lette,O,e,213,1,1582.0999999046326,440546.8000000715,7239,WL,C,10.0
3,26.69099998474121,learn,33309.00001525879,Fri Nov 14 2025 10:09:36 GMT-0600 (Central Standard Time),442195.39999997616,A,letter,O,r,61,1,1648.5999999046326,440546.8000000715,7239,WL,C,10.0
3,27.157000064849854,learn,32842.99993515015,Fri Nov 14 2025 10:09:36 GMT-0600 (Central Standard Time),442661.60000002384,A,letterenter,O,enter,450,1,2114.7999999523163,440546.8000000715,7239,WL,C,10.0
3,27.807999849319458,learn,32192.000150680542,Fri Nov 14 2025 10:09:36 GMT-0600 (Central Standard Time),443312.39999997616,A,c,O,c,639,1,650.5,442661.89999997616,7239,WL,C,11.0
3,27.973999977111816,learn,32026.000022888184,Fri Nov 14 2025 10:09:36 GMT-0600 (Central Standard Time),443478.39999997616,A,ca,O,a,158,1,816.5,442661.89999997616,7239,WL,C,11.0
3,28.340999841690063,learn,31659.000158309937,Fri Nov 14 2025 10:09:36 GMT-0600 (Central Standard Time),443845.2000000477,A,cat,O,t,353,1,1183.3000000715256,442661.89999997616,7239,WL,C,11.0
3,28.473999977111816,learn,31526.000022888184,Fri Nov 14 2025 10:09:36 GMT-0600 (Central Standard Time),443978.3000000715,A,catt,O,t,130,1,1316.4000000953674,442661.89999997616,7239,WL,C,11.0
3,28.657000064849854,learn,31342.999935150146,Fri Nov 14 2025 10:09:36 GMT-0600 (Central Standard Time),444162.10000002384,A,cattl,O,l,173,1,1500.2000000476837,442661.89999997616,7239,WL,C,11.0
3,28.79099988937378,learn,31209.00011062622,Fri Nov 14 2025 10:09:36 GMT-0600 (Central Standard Time),444295.5,A,cattle,O,e,124,1,1633.6000000238419,442661.89999997616,7239,WL,C,11.0
3,29.539000034332275,learn,30460.999965667725,Fri Nov 14 2025 10:09:36 GMT-0600 (Central Standard Time),445043.8000000715,A,cattleenter,O,enter,735,1,2381.9000000953674,442661.89999997616,7239,WL,C,11.0
3,29.973999977111816,learn,30026.000022888184,Fri Nov 14 2025 10:09:36 GMT-0600 (Central Standard Time),445478.60000002384,A,s,O,s,417,1,434.5,445044.10000002384,7239,WL,C,12.0
3,30.1729998588562,learn,29827.0001411438,Fri Nov 14 2025 10:09:36 GMT-0600 (Central Standard Time),445677.39999997616,A,sh,O,h,182,1,633.2999999523163,445044.10000002384,7239,WL,C,12.0
3,30.35699987411499,learn,29643.00012588501,Fri Nov 14 2025 10:09:36 GMT-0600 (Central Standard Time),445861.39999997616,A,sho,O,o,169,1,817.2999999523163,445044.10000002384,7239,WL,C,12.0
3,30.473000049591064,learn,29526.999950408936,Fri Nov 14 2025 10:09:36 GMT-0600 (Central Standard Time),445977.2000000477,A,shor,O,r,97,1,933.1000000238419,445044.10000002384,7239,WL,C,12.0
3,30.52300000190735,learn,29476.99999809265,Fri Nov 14 2025 10:09:36 GMT-0600 (Central Standard Time),446027.39999997616,A,shore,O,e,45,1,983.2999999523163,445044.10000002384,7239,WL,C,12.0
3,31.539999961853027,learn,28460.000038146973,Fri Nov 14 2025 10:09:36 GMT-0600 (Central Standard Time),447044.39999997616,A,shoreenter,O,enter,1012,1,2000.2999999523163,445044.10000002384,7239,WL,C,12.0
3,32.19000005722046,learn,27809.99994277954,Fri Nov 14 2025 10:09:36 GMT-0600 (Central Standard Time),447694.0,A,b,O,b,632,1,649.2999999523163,447044.7000000477,7239,WL,C,13.0
3,32.37299990653992,learn,27627.000093460083,Fri Nov 14 2025 10:09:36 GMT-0600 (Central Standard Time),447877.5,A,bo,O,o,175,1,832.7999999523163,447044.7000000477,7239,WL,C,13.0
3,32.72199988365173,learn,27278.000116348267,Fri Nov 14 2025 10:09:36 GMT-0600 (Central Standard Time),448227.0,A,bod,O,d,346,1,1182.2999999523163,447044.7000000477,7239,WL,C,13.0
3,32.937999963760376,learn,27062.000036239624,Fri Nov 14 2025 10:09:36 GMT-0600 (Central Standard Time),448442.60000002384,A,body,O,y,211,1,1397.8999999761581,447044.7000000477,7239,WL,C,13.0
3,33.33899998664856,learn,26661.00001335144,Fri Nov 14 2025 10:09:36 GMT-0600 (Central Standard Time),448843.89999997616,A,bodyenter,O,enter,387,1,1799.1999999284744,447044.7000000477,7239,WL,C,13.0
3,33.770999908447266,learn,26229.000091552734,Fri Nov 14 2025 10:09:36 GMT-0600 (Central Standard Time),449276.0,A,s,O,s,419,1,432.0,448844.0,7239,WL,C,14.0
3,33.9539999961853,learn,26046.000003814697,Fri Nov 14 2025 10:09:36 GMT-0600 (Central Standard Time),449459.0,A,su,O,u,167,1,615.0,448844.0,7239,WL,C,14.0
3,34.138999938964844,learn,25861.000061035156,Fri Nov 14 2025 10:09:36 GMT-0600 (Central Standard Time),449643.3000000715,A,sug,O,g,181,1,799.3000000715256,448844.0,7239,WL,C,14.0
3,34.353999853134155,learn,25646.000146865845,Fri Nov 14 2025 10:09:36 GMT-0600 (Central Standard Time),449859.0,A,suga,O,a,211,1,1015.0,448844.0,7239,WL,C,14.0
3,34.58800005912781,learn,25411.999940872192,Fri Nov 14 2025 10:09:36 GMT-0600 (Central Standard Time),450092.60000002384,A,sugar,O,r,227,1,1248.6000000238419,448844.0,7239,WL,C,14.0
3,34.97099995613098,learn,25029.00004386902,Fri Nov 14 2025 10:09:36 GMT-0600 (Central Standard Time),450476.0,A,sugarenter,O,enter,378,1,1632.0,448844.0,7239,WL,C,14.0
3,50.86699986457825,learn,9133.000135421753,Fri Nov 14 2025 10:09:36 GMT-0600 (Central Standard Time),466371.89999997616,A,c,O,c,15889,1,15895.699999928474,450476.2000000477,7239,WL,C,15.0
3,51.098999977111816,learn,8901.000022888184,Fri Nov 14 2025 10:09:36 GMT-0600 (Central Standard Time),466604.0,A,co,O,o,218,1,16127.799999952316,450476.2000000477,7239,WL,C,15.0
3,51.26699995994568,learn,8733.000040054321,Fri Nov 14 2025 10:09:36 GMT-0600 (Central Standard Time),466771.7000000477,A,cor,O,r,162,1,16295.5,450476.2000000477,7239,WL,C,15.0
3,51.41599988937378,learn,8584.00011062622,Fri Nov 14 2025 10:09:36 GMT-0600 (Central Standard Time),466920.89999997616,A,corn,O,n,146,1,16444.699999928474,450476.2000000477,7239,WL,C,15.0
3,51.717000007629395,learn,8282.999992370605,Fri Nov 14 2025 10:09:36 GMT-0600 (Central Standard Time),467221.39999997616,A,cornenter,O,enter,286,1,16745.199999928474,450476.2000000477,7239,WL,C,15.0
4,0.9489998817443848,learn,59051.000118255615,Fri Nov 14 2025 10:09:36 GMT-0600 (Central Standard Time),536165.5,A,t,O,t,932,1,949.1999999284744,535216.3000000715,7239,WL,C,1.0
4,1.249000072479248,learn,58750.99992752075,Fri Nov 14 2025 10:09:36 GMT-0600 (Central Standard Time),536465.5,A,to,O,o,289,1,1249.1999999284744,535216.3000000715,7239,WL,C,1.0
4,1.499000072479248,learn,58500.99992752075,Fri Nov 14 2025 10:09:36 GMT-0600 (Central Standard Time),536715.1000000238,A,tow,O,w,235,1,1498.7999999523163,535216.3000000715,7239,WL,C,1.0
4,1.7319998741149902,learn,58268.00012588501,Fri Nov 14 2025 10:09:36 GMT-0600 (Central Standard Time),536948.2000000477,A,towe,O,e,227,1,1731.8999999761581,535216.3000000715,7239,WL,C,1.0
4,1.9830000400543213,learn,58016.99995994568,Fri Nov 14 2025 10:09:36 GMT-0600 (Central Standard Time),537199.5,A,tower,O,r,242,1,1983.1999999284744,535216.3000000715,7239,WL,C,1.0
4,2.815000057220459,learn,57184.99994277954,Fri Nov 14 2025 10:09:36 GMT-0600 (Central Standard Time),538031.3999999762,A,towerenter,O,enter,823,1,2815.0999999046326,535216.3000000715,7239,WL,C,1.0
4,3.5820000171661377,learn,56417.99998283386,Fri Nov 14 2025 10:09:36 GMT-0600 (Central Standard Time),538798.2000000477,A,w,O,w,750,1,766.5,538031.7000000477,7239,WL,C,2.0
4,3.865000009536743,learn,56134.99999046326,Fri Nov 14 2025 10:09:36 GMT-0600 (Central Standard Time),539081.0,A,wh,O,h,263,1,1049.2999999523163,538031.7000000477,7239,WL,C,2.0
4,4.098999977111816,learn,55901.00002288818,Fri Nov 14 2025 10:09:36 GMT-0600 (Central Standard Time),539314.5,A,whe,O,e,221,1,1282.7999999523163,538031.7000000477,7239,WL,C,2.0
4,4.29800009727478,learn,55701.99990272522,Fri Nov 14 2025 10:09:36 GMT-0600 (Central Standard Time),539514.3999999762,A,whea,O,a,196,1,1482.6999999284744,538031.7000000477,7239,WL,C,2.0
4,4.5320000648498535,learn,55467.99993515015,Fri Nov 14 2025 10:09:36 GMT-0600 (Central Standard Time),539747.8000000715,A,wheat,O,t,220,1,1716.1000000238419,538031.7000000477,7239,WL,C,2.0
4,5.0980000495910645,learn,54901.999950408936,Fri Nov 14 2025 10:09:36 GMT-0600 (Central Standard Time),540314.2000000477,A,wheatenter,O,enter,562,1,2282.5,538031.7000000477,7239,WL,C,2.0
4,6.114000082015991,learn,53885.99991798401,Fri Nov 14 2025 10:09:36 GMT-0600 (Central Standard Time),541330.6000000238,A,q,O,q,1004,1,1016.2999999523163,540314.3000000715,7239,WL,C,3.0
4,6.346999883651733,learn,53653.00011634827,Fri Nov 14 2025 10:09:36 GMT-0600 (Central Standard Time),541563.7000000477,A,qu,O,u,220,1,1249.3999999761581,540314.3000000715,7239,WL,C,3.0
4,6.629999876022339,learn,53370.00012397766,Fri Nov 14 2025 10:09:36 GMT-0600 (Central Standard Time),541846.7000000477,A,que,O,e,266,1,1532.3999999761581,540314.3000000715,7239,WL,C,3.0
4,6.7799999713897705,learn,53220.00002861023,Fri Nov 14 2025 10:09:36 GMT-0600 (Central Standard Time),541997.0,A,quee,O,e,135,1,1682.6999999284744,540314.3000000715,7239,WL,C,3.0
4,6.947999954223633,learn,53052.00004577637,Fri Nov 14 2025 10:09:36 GMT-0600 (Central Standard Time),542164.2000000477,A,queen,O,n,160,1,1849.8999999761581,540314.3000000715,7239,WL,C,3.0
4,7.546999931335449,learn,52453.00006866455,Fri Nov 14 2025 10:09:36 GMT-0600 (Central Standard Time),542763.5,A,queenenter,O,enter,587,1,2449.1999999284744,540314.3000000715,7239,WL,C,3.0
4,8.480000019073486,learn,51519.999980926514,Fri Nov 14 2025 10:09:36 GMT-0600 (Central Standard Time),543696.7000000477,A,h,O,h,913,1,933.0,542763.7000000477,7239,WL,C,4.0
4,8.730000019073486,learn,51269.999980926514,Fri Nov 14 2025 10:09:36 GMT-0600 (Central Standard Time),543946.3000000715,A,ho,O,o,237,1,1182.6000000238419,542763.7000000477,7239,WL,C,4.0
4,8.996000051498413,learn,51003.99994850159,Fri Nov 14 2025 10:09:36 GMT-0600 (Central Standard Time),544212.6000000238,A,hom,O,m,259,1,1448.8999999761581,542763.7000000477,7239,WL,C,4.0
4,9.312999963760376,learn,50687.000036239624,Fri Nov 14 2025 10:09:36 GMT-0600 (Central Standard Time),544529.6000000238,A,home,O,e,306,1,1765.8999999761581,542763.7000000477,7239,WL,C,4.0
4,10.19700002670288,learn,49802.99997329712,Fri Nov 14 2025 10:09:36 GMT-0600 (Central Standard Time),545413.3999999762,A,homeenter,O,enter,877,1,2649.6999999284744,542763.7000000477,7239,WL,C,4.0
4,11.046000003814697,learn,48953.9999961853,Fri Nov 14 2025 10:09:36 GMT-0600 (Central Standard Time),546262.3999999762,A,b,O,b,833,1,848.7999999523163,545413.6000000238,7239,WL,C,5.0
4,11.279000043869019,learn,48720.99995613098,Fri Nov 14 2025 10:09:36 GMT-0600 (Central Standard Time),546495.7000000477,A,bo,O,o,216,1,1082.1000000238419,545413.6000000238,7239,WL,C,5.0
4,11.529000043869019,learn,48470.99995613098,Fri Nov 14 2025 10:09:36 GMT-0600 (Central Standard Time),546745.6000000238,A,boy,O,y,245,1,1332.0,545413.6000000238,7239,WL,C,5.0
4,12.046000003814697,learn,47953.9999961853,Fri Nov 14 2025 10:09:36 GMT-0600 (Central Standard Time),547262.1000000238,A,boyenter,O,enter,509,1,1848.5,545413.6000000238,7239,WL,C,5.0
4,12.84500002861023,learn,47154.99997138977,Fri Nov 14 2025 10:09:36 GMT-0600 (Central Standard Time),548061.8000000715,A,l,O,l,784,1,799.3000000715256,547262.5,7239,WL,C,6.0
4,12.979000091552734,learn,47020.999908447266,Fri Nov 14 2025 10:09:36 GMT-0600 (Central Standard Time),548195.3999999762,A,le,O,e,129,1,932.8999999761581,547262.5,7239,WL,C,6.0
4,13.244999885559082,learn,46755.00011444092,Fri Nov 14 2025 10:09:36 GMT-0600 (Central Standard Time),548461.7000000477,A,let,O,t,250,1,1199.2000000476837,547262.5,7239,WL,C,6.0
4,13.395999908447266,learn,46604.000091552734,Fri Nov 14 2025 10:09:36 GMT-0600 (Central Standard Time),548612.3000000715,A,lett,O,t,137,1,1349.8000000715256,547262.5,7239,WL,C,6.0
4,13.611999988555908,learn,46388.00001144409,Fri Nov 14 2025 10:09:36 GMT-0600 (Central Standard Time),548828.3999999762,A,lette,O,e,211,1,1565.8999999761581,547262.5,7239,WL,C,6.0
4,13.694999933242798,learn,46305.0000667572,Fri Nov 14 2025 10:09:36 GMT-0600 (Central Standard Time),548911.2000000477,A,letter,O,r,65,1,1648.7000000476837,547262.5,7239,WL,C,6.0
4,14.246000051498413,learn,45753.99994850159,Fri Nov 14 2025 10:09:36 GMT-0600 (Central Standard Time),549462.0,A,letterenter,O,enter,544,1,2199.5,547262.5,7239,WL,C,6.0
4,14.779000043869019,learn,45220.99995613098,Fri Nov 14 2025 10:09:36 GMT-0600 (Central Standard Time),549995.3000000715,A,d,O,d,518,1,533.0,549462.3000000715,7239,WL,C,7.0
4,15.010999917984009,learn,44989.00008201599,Fri Nov 14 2025 10:09:36 GMT-0600 (Central Standard Time),550227.7000000477,A,do,O,o,219,1,765.3999999761581,549462.3000000715,7239,WL,C,7.0
4,15.128000020980835,learn,44871.999979019165,Fri Nov 14 2025 10:09:36 GMT-0600 (Central Standard Time),550344.3999999762,A,doc,O,c,98,1,882.0999999046326,549462.3000000715,7239,WL,C,7.0
4,15.361000061035156,learn,44638.999938964844,Fri Nov 14 2025 10:09:36 GMT-0600 (Central Standard Time),550577.8000000715,A,doct,O,t,221,1,1115.5,549462.3000000715,7239,WL,C,7.0
4,15.510999917984009,learn,44489.00008201599,Fri Nov 14 2025 10:09:36 GMT-0600 (Central Standard Time),550727.8000000715,A,docto,O,o,140,1,1265.5,549462.3000000715,7239,WL,C,7.0
4,15.644999980926514,learn,44355.000019073486,Fri Nov 14 2025 10:09:36 GMT-0600 (Central Standard Time),550861.2000000477,A,doctor,O,r,118,1,1398.8999999761581,549462.3000000715,7239,WL,C,7.0
4,16.177000045776367,learn,43822.99995422363,Fri Nov 14 2025 10:09:36 GMT-0600 (Central Standard Time),551393.8000000715,A,doctorenter,O,enter,512,1,1931.5,549462.3000000715,7239,WL,C,7.0
4,17.82800006866455,learn,42171.99993133545,Fri Nov 14 2025 10:09:36 GMT-0600 (Central Standard Time),553044.1000000238,A,c,O,c,1635,1,1650.1000000238419,551394.0,7239,WL,C,8.0
4,17.99399995803833,learn,42006.00004196167,Fri Nov 14 2025 10:09:36 GMT-0600 (Central Standard Time),553210.5,A,co,O,o,163,1,1816.5,551394.0,7239,WL,C,8.0
4,18.194000005722046,learn,41805.999994277954,Fri Nov 14 2025 10:09:36 GMT-0600 (Central Standard Time),553410.2000000477,A,cor,O,r,187,1,2016.2000000476837,551394.0,7239,WL,C,8.0
4,18.359999895095825,learn,41640.000104904175,Fri Nov 14 2025 10:09:36 GMT-0600 (Central Standard Time),553576.7000000477,A,corn,O,n,148,1,2182.7000000476837,551394.0,7239,WL,C,8.0
4,18.70899987220764,learn,41291.00012779236,Fri Nov 14 2025 10:09:36 GMT-0600 (Central Standard Time),553925.8999999762,A,cornenter,O,enter,333,1,2531.899999976158,551394.0,7239,WL,C,8.0
4,19.128000020980835,learn,40871.999979019165,Fri Nov 14 2025 10:09:36 GMT-0600 (Central Standard Time),554344.1000000238,A,s,O,s,408,1,418.0,553926.1000000238,7239,WL,C,9.0
4,19.359999895095825,learn,40640.000104904175,Fri Nov 14 2025 10:09:36 GMT-0600 (Central Standard Time),554576.7000000477,A,su,O,u,223,1,650.6000000238419,553926.1000000238,7239,WL,C,9.0
4,19.592999935150146,learn,40407.00006484985,Fri Nov 14 2025 10:09:36 GMT-0600 (Central Standard Time),554809.7000000477,A,sug,O,g,222,1,883.6000000238419,553926.1000000238,7239,WL,C,9.0
4,19.792999982833862,learn,40207.00001716614,Fri Nov 14 2025 10:09:36 GMT-0600 (Central Standard Time),555009.8000000715,A,suga,O,a,188,1,1083.7000000476837,553926.1000000238,7239,WL,C,9.0
4,20.02500009536743,learn,39974.99990463257,Fri Nov 14 2025 10:09:36 GMT-0600 (Central Standard Time),555241.8000000715,A,sugar,O,r,229,1,1315.7000000476837,553926.1000000238,7239,WL,C,9.0
4,20.425999879837036,learn,39574.000120162964,Fri Nov 14 2025 10:09:36 GMT-0600 (Central Standard Time),555642.3000000715,A,sugarenter,O,enter,396,1,1716.2000000476837,553926.1000000238,7239,WL,C,9.0
4,23.825000047683716,learn,36174.999952316284,Fri Nov 14 2025 10:09:36 GMT-0600 (Central Standard Time),559041.5,A,n,O,n,3379,1,3398.899999976158,555642.6000000238,7239,WL,C,10.0
4,24.058000087738037,learn,35941.99991226196,Fri Nov 14 2025 10:09:36 GMT-0600 (Central Standard Time),559275.0,A,na,O,a,221,1,3632.399999976158,555642.6000000238,7239,WL,C,10.0
4,24.240999937057495,learn,35759.000062942505,Fri Nov 14 2025 10:09:36 GMT-0600 (Central Standard Time),559458.1000000238,A,nai,O,i,179,1,3815.5,555642.6000000238,7239,WL,C,10.0
4,24.45799994468689,learn,35542.00005531311,Fri Nov 14 2025 10:09:36 GMT-0600 (Central Standard Time),559674.7000000477,A,nail,O,l,205,1,4032.100000023842,555642.6000000238,7239,WL,C,10.0
4,24.95799994468689,learn,35042.00005531311,Fri Nov 14 2025 10:09:36 GMT-0600 (Central Standard Time),560174.3000000715,A,nailenter,O,enter,492,1,4531.700000047684,555642.6000000238,7239,WL,C,10.0
4,26.157999992370605,learn,33842.000007629395,Fri Nov 14 2025 10:09:36 GMT-0600 (Central Standard Time),561374.5,A,c,O,c,1191,1,1199.8999999761581,560174.6000000238,7239,WL,C,11.0
4,26.308000087738037,learn,33691.99991226196,Fri Nov 14 2025 10:09:36 GMT-0600 (Central Standard Time),561525.0,A,ca,O,a,135,1,1350.3999999761581,560174.6000000238,7239,WL,C,11.0
4,26.723999977111816,learn,33276.00002288818,Fri Nov 14 2025 10:09:36 GMT-0600 (Central Standard Time),561940.8000000715,A,cat,O,t,401,1,1766.2000000476837,560174.6000000238,7239,WL,C,11.0
4,26.841000080108643,learn,33158.99991989136,Fri Nov 14 2025 10:09:36 GMT-0600 (Central Standard Time),562057.1000000238,A,catt,O,t,96,1,1882.5,560174.6000000238,7239,WL,C,11.0
4,27.006999969482422,learn,32993.00003051758,Fri Nov 14 2025 10:09:36 GMT-0600 (Central Standard Time),562224.0,A,cattl,O,l,158,1,2049.399999976158,560174.6000000238,7239,WL,C,11.0
4,27.140000104904175,learn,32859.999895095825,Fri Nov 14 2025 10:09:36 GMT-0600 (Central Standard Time),562356.7000000477,A,cattle,O,e,118,1,2182.100000023842,560174.6000000238,7239,WL,C,11.0
4,27.924000024795532,learn,32075.999975204468,Fri Nov 14 2025 10:09:36 GMT-0600 (Central Standard Time),563140.8999999762,A,cattleenter,O,enter,770,1,2966.2999999523163,560174.6000000238,7239,WL,C,11.0
4,28.424000024795532,learn,31575.999975204468,Fri Nov 14 2025 10:09:36 GMT-0600 (Central Standard Time),563640.3999999762,A,s,O,s,482,1,499.2999999523163,563141.1000000238,7239,WL,C,12.0
4,28.624000072479248,learn,31375.999927520752,Fri Nov 14 2025 10:09:36 GMT-0600 (Central Standard Time),563840.7000000477,A,sh,O,h,186,1,699.6000000238419,563141.1000000238,7239,WL,C,12.0
4,28.83999991416931,learn,31160.00008583069,Fri Nov 14 2025 10:09:36 GMT-0600 (Central Standard Time),564056.8000000715,A,sho,O,o,205,1,915.7000000476837,563141.1000000238,7239,WL,C,12.0
4,28.973999977111816,learn,31026.000022888184,Fri Nov 14 2025 10:09:36 GMT-0600 (Central Standard Time),564191.0,A,shor,O,r,125,1,1049.8999999761581,563141.1000000238,7239,WL,C,12.0
4,29.039999961853027,learn,30960.000038146973,Fri Nov 14 2025 10:09:36 GMT-0600 (Central Standard Time),564256.2000000477,A,shore,O,e,55,1,1115.1000000238419,563141.1000000238,7239,WL,C,12.0
4,29.473999977111816,learn,30526.000022888184,Fri Nov 14 2025 10:09:36 GMT-0600 (Central Standard Time),564690.2000000477,A,shoreenter,O,enter,414,1,1549.1000000238419,563141.1000000238,7239,WL,C,12.0
4,29.990000009536743,learn,30009.999990463257,Fri Nov 14 2025 10:09:36 GMT-0600 (Central Standard Time),565206.2000000477,A,b,O,b,499,1,515.7000000476837,564690.5,7239,WL,C,13.0
4,30.207000017166138,learn,29792.999982833862,Fri Nov 14 2025 10:09:36 GMT-0600 (Central Standard Time),565423.2000000477,A,bo,O,o,199,1,732.7000000476837,564690.5,7239,WL,C,13.0
4,30.52300000190735,learn,29476.99999809265,Fri Nov 14 2025 10:09:36 GMT-0600 (Central Standard Time),565739.1000000238,A,bod,O,d,303,1,1048.6000000238419,564690.5,7239,WL,C,13.0
4,30.707000017166138,learn,29292.999982833862,Fri Nov 14 2025 10:09:36 GMT-0600 (Central Standard Time),565923.3000000715,A,body,O,y,178,1,1232.8000000715256,564690.5,7239,WL,C,13.0
4,31.407000064849854,learn,28592.999935150146,Fri Nov 14 2025 10:09:36 GMT-0600 (Central Standard Time),566623.5,A,bodyenter,O,enter,684,1,1933.0,564690.5,7239,WL,C,13.0
4,32.3050000667572,learn,27694.999933242798,Fri Nov 14 2025 10:09:36 GMT-0600 (Central Standard Time),567522.0,A,c,O,c,894,1,898.1999999284744,566623.8000000715,7239,WL,C,14.0
4,32.52300000190735,learn,27476.99999809265,Fri Nov 14 2025 10:09:36 GMT-0600 (Central Standard Time),567739.8999999762,A,ca,O,a,205,1,1116.0999999046326,566623.8000000715,7239,WL,C,14.0
4,32.68899989128113,learn,27311.000108718872,Fri Nov 14 2025 10:09:36 GMT-0600 (Central Standard Time),567905.5,A,cam,O,m,156,1,1281.6999999284744,566623.8000000715,7239,WL,C,14.0
4,33.039000034332275,learn,26960.999965667725,Fri Nov 14 2025 10:09:36 GMT-0600 (Central Standard Time),568255.8999999762,A,camp,O,p,341,1,1632.0999999046326,566623.8000000715,7239,WL,C,14.0
4,33.555999994277954,learn,26444.000005722046,Fri Nov 14 2025 10:09:36 GMT-0600 (Central Standard Time),568772.3999999762,A,campenter,O,enter,502,1,2148.5999999046326,566623.8000000715,7239,WL,C,14.0
4,60.01300001144409,learn,-13.000011444091797,Fri Nov 14 2025 10:09:36 GMT-0600 (Central Standard Time),595229.8999999762,A,None,O,None,26453,1,26457.299999952316,568772.6000000238,7239,WL,C,15.0
5,1.1489999294281006,learn,60000.0,Fri Nov 14 2025 10:09:36 GMT-0600 (Central Standard Time),665741.1000000238,A,t,O,t,1135,1,1149.8999999761581,664591.2000000477,7239,WL,C,1.0
5,1.4819998741149902,learn,60000.0,Fri Nov 14 2025 10:09:36 GMT-0600 (Central Standard Time),666074.0,A,to,O,o,329,1,1482.7999999523163,664591.2000000477,7239,WL,C,1.0
5,1.7170000076293945,learn,60000.0,Fri Nov 14 2025 10:09:36 GMT-0600 (Central Standard Time),666308.3999999762,A,tow,O,w,231,1,1717.1999999284744,664591.2000000477,7239,WL,C,1.0
5,1.931999921798706,learn,60000.0,Fri Nov 14 2025 10:09:36 GMT-0600 (Central Standard Time),666523.2000000477,A,towe,O,e,209,1,1932.0,664591.2000000477,7239,WL,C,1.0
5,2.182999849319458,learn,60000.0,Fri Nov 14 2025 10:09:36 GMT-0600 (Central Standard Time),666774.3000000715,A,tower,O,r,242,1,2183.100000023842,664591.2000000477,7239,WL,C,1.0
5,3.297999858856201,learn,60000.0,Fri Nov 14 2025 10:09:36 GMT-0600 (Central Standard Time),667889.8999999762,A,towerenter,O,enter,1112,1,3298.6999999284744,664591.2000000477,7239,WL,C,1.0
5,4.381999969482422,learn,60000.0,Fri Nov 14 2025 10:09:36 GMT-0600 (Central Standard Time),668973.5,A,q,O,q,1075,1,1083.2999999523163,667890.2000000477,7239,WL,C,2.0
5,4.631999969482422,learn,60000.0,Fri Nov 14 2025 10:09:36 GMT-0600 (Central Standard Time),669223.2000000477,A,qu,O,u,240,1,1333.0,667890.2000000477,7239,WL,C,2.0
5,4.931999921798706,learn,60000.0,Fri Nov 14 2025 10:09:36 GMT-0600 (Central Standard Time),669523.2000000477,A,que,O,e,280,1,1633.0,667890.2000000477,7239,WL,C,2.0
5,5.097999811172485,learn,60000.0,Fri Nov 14 2025 10:09:36 GMT-0600 (Central Standard Time),669689.7000000477,A,quee,O,e,147,1,1799.5,667890.2000000477,7239,WL,C,2.0
5,5.299000024795532,learn,60000.0,Fri Nov 14 2025 10:09:36 GMT-0600 (Central Standard Time),669890.3000000715,A,queen,O,n,188,1,2000.1000000238419,667890.2000000477,7239,WL,C,2.0
5,5.697999954223633,learn,60000.0,Fri Nov 14 2025 10:09:36 GMT-0600 (Central Standard Time),670289.0,A,queenenter,O,enter,390,1,2398.7999999523163,667890.2000000477,7239,WL,C,2.0
5,6.580999851226807,learn,60000.0,Fri Nov 14 2025 10:09:36 GMT-0600 (Central Standard Time),671172.7000000477,A,w,O,w,869,1,883.3999999761581,670289.3000000715,7239,WL,C,3.0
5,6.997999906539917,learn,60000.0,Fri Nov 14 2025 10:09:36 GMT-0600 (Central Standard Time),671589.3000000715,A,wh,O,h,402,1,1300.0,670289.3000000715,7239,WL,C,3.0
5,7.247999906539917,learn,60000.0,Fri Nov 14 2025 10:09:36 GMT-0600 (Central Standard Time),671839.2000000477,A,whe,O,e,232,1,1549.8999999761581,670289.3000000715,7239,WL,C,3.0
5,7.480999946594238,learn,60000.0,Fri Nov 14 2025 10:09:36 GMT-0600 (Central Standard Time),672072.8000000715,A,whea,O,a,223,1,1783.5,670289.3000000715,7239,WL,C,3.0
5,7.730000019073486,learn,60000.0,Fri Nov 14 2025 10:09:36 GMT-0600 (Central Standard Time),672322.0,A,wheat,O,t,246,1,2032.6999999284744,670289.3000000715,7239,WL,C,3.0
5,8.629999876022339,learn,60000.0,Fri Nov 14 2025 10:09:36 GMT-0600 (Central Standard Time),673221.7000000477,A,wheatenter,O,enter,893,1,2932.399999976158,670289.3000000715,7239,WL,C,3.0
5,11.013999938964844,learn,60000.0,Fri Nov 14 2025 10:09:36 GMT-0600 (Central Standard Time),675605.1000000238,A,b,O,b,2368,1,2383.2000000476837,673221.8999999762,7239,WL,C,4.0
5,11.228999853134155,learn,60000.0,Fri Nov 14 2025 10:09:36 GMT-0600 (Central Standard Time),675821.0,A,bo,O,o,209,1,2599.100000023842,673221.8999999762,7239,WL,C,4.0
5,11.812999963760376,learn,60000.0,Fri Nov 14 2025 10:09:36 GMT-0600 (Central Standard Time),676404.1000000238,A,boy,O,y,570,1,3182.2000000476837,673221.8999999762,7239,WL,C,4.0
5,12.544999837875366,learn,60000.0,Fri Nov 14 2025 10:09:36 GMT-0600 (Central Standard Time),677136.8000000715,A,boyenter,O,enter,723,1,3914.9000000953674,673221.8999999762,7239,WL,C,4.0
5,13.161999940872192,learn,60000.0,Fri Nov 14 2025 10:09:36 GMT-0600 (Central Standard Time),677753.6000000238,A,l,O,l,605,1,616.6000000238419,677137.0,7239,WL,C,5.0
5,13.345999956130981,learn,60000.0,Fri Nov 14 2025 10:09:36 GMT-0600 (Central Standard Time),677937.3000000715,A,le,O,e,164,1,800.3000000715256,677137.0,7239,WL,C,5.0
5,13.628999948501587,learn,60000.0,Fri Nov 14 2025 10:09:36 GMT-0600 (Central Standard Time),678220.3000000715,A,let,O,t,269,1,1083.3000000715256,677137.0,7239,WL,C,5.0
5,13.77899980545044,learn,60000.0,Fri Nov 14 2025 10:09:36 GMT-0600 (Central Standard Time),678370.6000000238,A,lett,O,t,139,1,1233.6000000238419,677137.0,7239,WL,C,5.0
5,14.01199984550476,learn,60000.0,Fri Nov 14 2025 10:09:36 GMT-0600 (Central Standard Time),678603.3999999762,A,lette,O,e,229,1,1466.3999999761581,677137.0,7239,WL,C,5.0
5,14.128000020980835,learn,60000.0,Fri Nov 14 2025 10:09:36 GMT-0600 (Central Standard Time),678719.7000000477,A,letter,O,r,107,1,1582.7000000476837,677137.0,7239,WL,C,5.0
5,14.51199984550476,learn,60000.0,Fri Nov 14 2025 10:09:36 GMT-0600 (Central Standard Time),679103.3999999762,A,letterenter,O,enter,367,1,1966.3999999761581,677137.0,7239,WL,C,5.0
5,15.378999948501587,learn,60000.0,Fri Nov 14 2025 10:09:36 GMT-0600 (Central Standard Time),679970.3999999762,A,f,O,f,855,1,866.6999999284744,679103.7000000477,7239,WL,C,6.0
5,15.628000020980835,learn,60000.0,Fri Nov 14 2025 10:09:36 GMT-0600 (Central Standard Time),680219.8999999762,A,fl,O,l,235,1,1116.1999999284744,679103.7000000477,7239,WL,C,6.0
5,15.777999877929688,learn,60000.0,Fri Nov 14 2025 10:09:36 GMT-0600 (Central Standard Time),680369.3000000715,A,fla,O,a,138,1,1265.6000000238419,679103.7000000477,7239,WL,C,6.0
5,16.061999797821045,learn,60000.0,Fri Nov 14 2025 10:09:36 GMT-0600 (Central Standard Time),680653.2000000477,A,flag,O,g,269,1,1549.5,679103.7000000477,7239,WL,C,6.0
5,16.444000005722046,learn,60000.0,Fri Nov 14 2025 10:09:36 GMT-0600 (Central Standard Time),681035.7000000477,A,flagenter,O,enter,370,1,1932.0,679103.7000000477,7239,WL,C,6.0
5,17.26099991798401,learn,60000.0,Fri Nov 14 2025 10:09:36 GMT-0600 (Central Standard Time),681852.8000000715,A,c,O,c,811,1,817.0,681035.8000000715,7239,WL,C,7.0
5,17.477999925613403,learn,60000.0,Fri Nov 14 2025 10:09:36 GMT-0600 (Central Standard Time),682069.3000000715,A,co,O,o,210,1,1033.5,681035.8000000715,7239,WL,C,7.0
5,17.66100001335144,learn,60000.0,Fri Nov 14 2025 10:09:36 GMT-0600 (Central Standard Time),682252.7000000477,A,cor,O,r,176,1,1216.8999999761581,681035.8000000715,7239,WL,C,7.0
5,17.82699990272522,learn,60000.0,Fri Nov 14 2025 10:09:36 GMT-0600 (Central Standard Time),682418.6000000238,A,corn,O,n,162,1,1382.7999999523163,681035.8000000715,7239,WL,C,7.0
5,18.17799997329712,learn,60000.0,Fri Nov 14 2025 10:09:36 GMT-0600 (Central Standard Time),682769.2000000477,A,cornenter,O,enter,331,1,1733.3999999761581,681035.8000000715,7239,WL,C,7.0
5,18.611999988555908,learn,60000.0,Fri Nov 14 2025 10:09:36 GMT-0600 (Central Standard Time),683203.2000000477,A,s,O,s,420,1,433.8000000715256,682769.3999999762,7239,WL,C,8.0
5,18.810999870300293,learn,60000.0,Fri Nov 14 2025 10:09:36 GMT-0600 (Central Standard Time),683402.1000000238,A,su,O,u,179,1,632.7000000476837,682769.3999999762,7239,WL,C,8.0
5,19.07799983024597,learn,60000.0,Fri Nov 14 2025 10:09:36 GMT-0600 (Central Standard Time),683669.6000000238,A,sug,O,g,261,1,900.2000000476837,682769.3999999762,7239,WL,C,8.0
5,19.292999982833862,learn,60000.0,Fri Nov 14 2025 10:09:36 GMT-0600 (Central Standard Time),683884.5,A,suga,O,a,200,1,1115.1000000238419,682769.3999999762,7239,WL,C,8.0
5,19.509999990463257,learn,60000.0,Fri Nov 14 2025 10:09:36 GMT-0600 (Central Standard Time),684102.0,A,sugar,O,r,209,1,1332.6000000238419,682769.3999999762,7239,WL,C,8.0
5,19.876999855041504,learn,60000.0,Fri Nov 14 2025 10:09:36 GMT-0600 (Central Standard Time),684468.2000000477,A,sugarenter,O,enter,360,1,1698.8000000715256,682769.3999999762,7239,WL,C,8.0
5,20.55999994277954,learn,60000.0,Fri Nov 14 2025 10:09:36 GMT-0600 (Central Standard Time),685151.5,A,d,O,d,666,1,683.1000000238419,684468.3999999762,7239,WL,C,9.0
5,20.825999975204468,learn,60000.0,Fri Nov 14 2025 10:09:36 GMT-0600 (Central Standard Time),685418.0,A,do,O,o,263,1,949.6000000238419,684468.3999999762,7239,WL,C,9.0
5,20.960999965667725,learn,60000.0,Fri Nov 14 2025 10:09:36 GMT-0600 (Central Standard Time),685552.3000000715,A,doc,O,c,124,1,1083.9000000953674,684468.3999999762,7239,WL,C,9.0
5,21.243000030517578,learn,60000.0,Fri Nov 14 2025 10:09:36 GMT-0600 (Central Standard Time),685834.2000000477,A,doct,O,t,271,1,1365.8000000715256,684468.3999999762,7239,WL,C,9.0
5,21.376999855041504,learn,60000.0,Fri Nov 14 2025 10:09:36 GMT-0600 (Central Standard Time),685968.3000000715,A,docto,O,o,124,1,1499.9000000953674,684468.3999999762,7239,WL,C,9.0
5,21.47699999809265,learn,60000.0,Fri Nov 14 2025 10:09:36 GMT-0600 (Central Standard Time),686068.3999999762,A,doctor,O,r,97,1,1600.0,684468.3999999762,7239,WL,C,9.0
5,21.80900001525879,learn,60000.0,Fri Nov 14 2025 10:09:36 GMT-0600 (Central Standard Time),686401.0,A,doctorenter,O,enter,314,1,1932.6000000238419,684468.3999999762,7239,WL,C,9.0
5,22.359999895095825,learn,60000.0,Fri Nov 14 2025 10:09:36 GMT-0600 (Central Standard Time),686951.1000000238,A,n,O,n,531,1,549.8999999761581,686401.2000000477,7239,WL,C,10.0
5,22.542999982833862,learn,60000.0,Fri Nov 14 2025 10:09:36 GMT-0600 (Central Standard Time),687134.7000000477,A,na,O,a,176,1,733.5,686401.2000000477,7239,WL,C,10.0
5,22.776999950408936,learn,60000.0,Fri Nov 14 2025 10:09:36 GMT-0600 (Central Standard Time),687368.2000000477,A,nai,O,i,215,1,967.0,686401.2000000477,7239,WL,C,10.0
5,23.026000022888184,learn,60000.0,Fri Nov 14 2025 10:09:36 GMT-0600 (Central Standard Time),687617.2000000477,A,nail,O,l,229,1,1216.0,686401.2000000477,7239,WL,C,10.0
5,23.408999919891357,learn,60000.0,Fri Nov 14 2025 10:09:36 GMT-0600 (Central Standard Time),688000.8999999762,A,nailenter,O,enter,373,1,1599.6999999284744,686401.2000000477,7239,WL,C,10.0
5,27.64199995994568,learn,60000.0,Fri Nov 14 2025 10:09:36 GMT-0600 (Central Standard Time),692233.3999999762,A,c,O,c,4212,1,4232.299999952316,688001.1000000238,7239,WL,C,11.0
5,27.77300000190735,learn,60000.0,Fri Nov 14 2025 10:09:36 GMT-0600 (Central Standard Time),692365.0,A,ca,O,a,126,1,4363.899999976158,688001.1000000238,7239,WL,C,11.0
5,28.122999906539917,learn,60000.0,Fri Nov 14 2025 10:09:36 GMT-0600 (Central Standard Time),692714.8999999762,A,cat,O,t,345,1,4713.799999952316,688001.1000000238,7239,WL,C,11.0
5,28.274999856948853,learn,60000.0,Fri Nov 14 2025 10:09:36 GMT-0600 (Central Standard Time),692866.2000000477,A,catt,O,t,131,1,4865.100000023842,688001.1000000238,7239,WL,C,11.0
5,28.424000024795532,learn,60000.0,Fri Nov 14 2025 10:09:36 GMT-0600 (Central Standard Time),693015.3999999762,A,cattl,O,l,141,1,5014.299999952316,688001.1000000238,7239,WL,C,11.0
5,28.54199981689453,learn,60000.0,Fri Nov 14 2025 10:09:36 GMT-0600 (Central Standard Time),693133.3000000715,A,cattle,O,e,103,1,5132.200000047684,688001.1000000238,7239,WL,C,11.0
5,29.107999801635742,learn,60000.0,Fri Nov 14 2025 10:09:36 GMT-0600 (Central Standard Time),693699.3999999762,A,cattleenter,O,enter,561,1,5698.299999952316,688001.1000000238,7239,WL,C,11.0
5,30.073999881744385,learn,60000.0,Fri Nov 14 2025 10:09:36 GMT-0600 (Central Standard Time),694665.3000000715,A,b,O,b,955,1,965.7000000476837,693699.6000000238,7239,WL,C,12.0
5,30.289999961853027,learn,60000.0,Fri Nov 14 2025 10:09:36 GMT-0600 (Central Standard Time),694881.3000000715,A,bo,O,o,197,1,1181.7000000476837,693699.6000000238,7239,WL,C,12.0
5,31.10599994659424,learn,60000.0,Fri Nov 14 2025 10:09:36 GMT-0600 (Central Standard Time),695697.6000000238,A,bod,O,d,798,1,1998.0,693699.6000000238,7239,WL,C,12.0
5,31.256999969482422,learn,60000.0,Fri Nov 14 2025 10:09:36 GMT-0600 (Central Standard Time),695848.2000000477,A,body,O,y,140,1,2148.600000023842,693699.6000000238,7239,WL,C,12.0
5,31.622999906539917,learn,60000.0,Fri Nov 14 2025 10:09:36 GMT-0600 (Central Standard Time),696214.3999999762,A,bodyenter,O,enter,349,1,2514.7999999523163,693699.6000000238,7239,WL,C,12.0
5,32.68899989128113,learn,60000.0,Fri Nov 14 2025 10:09:36 GMT-0600 (Central Standard Time),697280.3000000715,A,s,O,s,1046,1,1065.6000000238419,696214.7000000477,7239,WL,C,13.0
5,32.95599985122681,learn,60000.0,Fri Nov 14 2025 10:09:36 GMT-0600 (Central Standard Time),697547.5,A,sh,O,h,254,1,1332.7999999523163,696214.7000000477,7239,WL,C,13.0
5,33.204999923706055,learn,60000.0,Fri Nov 14 2025 10:09:36 GMT-0600 (Central Standard Time),697797.0,A,sho,O,o,243,1,1582.2999999523163,696214.7000000477,7239,WL,C,13.0
5,33.40599989891052,learn,60000.0,Fri Nov 14 2025 10:09:36 GMT-0600 (Central Standard Time),697997.5,A,shor,O,r,185,1,1782.7999999523163,696214.7000000477,7239,WL,C,13.0
5,33.50599980354309,learn,60000.0,Fri Nov 14 2025 10:09:36 GMT-0600 (Central Standard Time),698097.3999999762,A,shore,O,e,96,1,1882.6999999284744,696214.7000000477,7239,WL,C,13.0
5,33.90599989891052,learn,60000.0,Fri Nov 14 2025 10:09:36 GMT-0600 (Central Standard Time),698498.0,A,shoreenter,O,enter,381,1,2283.2999999523163,696214.7000000477,7239,WL,C,13.0
5,49.11800003051758,learn,60000.0,Fri Nov 14 2025 10:09:36 GMT-0600 (Central Standard Time),713709.0,A,s,O,s,15204,1,15210.799999952316,698498.2000000477,7239,WL,C,14.0
5,49.467000007629395,learn,60000.0,Fri Nov 14 2025 10:09:36 GMT-0600 (Central Standard Time),714059.1000000238,A,su,O,u,338,1,15560.899999976158,698498.2000000477,7239,WL,C,14.0
5,49.800999879837036,learn,60000.0,Fri Nov 14 2025 10:09:36 GMT-0600 (Central Standard Time),714392.3000000715,A,sug,O,g,323,1,15894.100000023842,698498.2000000477,7239,WL,C,14.0
5,50.050999879837036,learn,60000.0,Fri Nov 14 2025 10:09:36 GMT-0600 (Central Standard Time),714642.8000000715,A,suga,O,a,246,1,16144.600000023842,698498.2000000477,7239,WL,C,14.0
5,50.26799988746643,learn,60000.0,Fri Nov 14 2025 10:09:36 GMT-0600 (Central Standard Time),714859.3999999762,A,sugar,O,r,211,1,16361.199999928474,698498.2000000477,7239,WL,C,14.0
5,50.83399987220764,learn,60000.0,Fri Nov 14 2025 10:09:36 GMT-0600 (Central Standard Time),715425.8000000715,A,sugarenter,O,enter,563,1,16927.600000023842,698498.2000000477,7239,WL,C,14.0
5,55.847999811172485,learn,60000.0,Fri Nov 14 2025 10:09:36 GMT-0600 (Central Standard Time),720440.3999999762,A,h,O,h,5005,1,5014.399999976158,715426.0,7239,WL,C,15.0
5,56.181999921798706,learn,60000.0,Fri Nov 14 2025 10:09:36 GMT-0600 (Central Standard Time),720773.6000000238,A,ho,O,o,318,1,5347.600000023842,715426.0,7239,WL,C,15.0
5,56.430999994277954,learn,60000.0,Fri Nov 14 2025 10:09:36 GMT-0600 (Central Standard Time),721023.3999999762,A,hom,O,m,232,1,5597.399999976158,715426.0,7239,WL,C,15.0
5,56.73099994659424,learn,60000.0,Fri Nov 14 2025 10:09:36 GMT-0600 (Central Standard Time),721323.0,A,home,O,e,286,1,5897.0,715426.0,7239,WL,C,15.0
5,57.11399984359741,learn,60000.0,Fri Nov 14 2025 10:09:36 GMT-0600 (Central Standard Time),721705.8999999762,A,homeenter,O,enter,372,1,6279.899999976158,715426.0,7239,WL,C,15.0
6,1.2000000476837158,distr,58799.999952316284,Fri Nov 14 2025 10:09:36 GMT-0600 (Central Standard Time),797682.8000000715,B,d,O,d,1198,1,1200.0,796482.8000000715,7239,WL,C,1.0
6,1.4509999752044678,distr,58549.00002479553,Fri Nov 14 2025 10:09:36 GMT-0600 (Central Standard Time),797933.1000000238,B,do,O,o,235,1,1450.2999999523163,796482.8000000715,7239,WL,C,1.0
6,1.75,distr,58250.0,Fri Nov 14 2025 10:09:36 GMT-0600 (Central Standard Time),798232.5,B,dol,O,l,281,1,1749.6999999284744,796482.8000000715,7239,WL,C,1.0
6,1.883000135421753,distr,58116.99986457825,Fri Nov 14 2025 10:09:36 GMT-0600 (Central Standard Time),798365.2000000477,B,doll,O,l,126,1,1882.3999999761581,796482.8000000715,7239,WL,C,1.0
6,2.049999952316284,distr,57950.000047683716,Fri Nov 14 2025 10:09:36 GMT-0600 (Central Standard Time),798532.5,B,dolla,O,a,153,1,2049.6999999284744,796482.8000000715,7239,WL,C,1.0
6,2.383000135421753,distr,57616.99986457825,Fri Nov 14 2025 10:09:36 GMT-0600 (Central Standard Time),798865.7000000477,B,dollar,O,r,314,1,2382.899999976158,796482.8000000715,7239,WL,C,1.0
6,2.8489999771118164,distr,57151.00002288818,Fri Nov 14 2025 10:09:36 GMT-0600 (Central Standard Time),799331.6000000238,B,dollarenter,O,enter,461,1,2848.7999999523163,796482.8000000715,7239,WL,C,1.0
6,4.098999977111816,distr,55901.00002288818,Fri Nov 14 2025 10:09:36 GMT-0600 (Central Standard Time),800581.8000000715,B,m,O,m,1234,1,1250.0,799331.8000000715,7239,WL,C,2.0
6,4.615999937057495,distr,55384.000062942505,Fri Nov 14 2025 10:09:36 GMT-0600 (Central Standard Time),801098.3000000715,B,mo,O,o,513,1,1766.5,799331.8000000715,7239,WL,C,2.0
6,5.082000017166138,distr,54917.99998283386,Fri Nov 14 2025 10:09:36 GMT-0600 (Central Standard Time),801564.6000000238,B,mon,O,n,451,1,2232.7999999523163,799331.8000000715,7239,WL,C,2.0
6,5.465000152587891,distr,54534.99984741211,Fri Nov 14 2025 10:09:36 GMT-0600 (Central Standard Time),801947.2000000477,B,mone,O,e,378,1,2615.399999976158,799331.8000000715,7239,WL,C,2.0
6,5.664999961853027,distr,54335.00003814697,Fri Nov 14 2025 10:09:36 GMT-0600 (Central Standard Time),802147.8000000715,B,money,O,y,187,1,2816.0,799331.8000000715,7239,WL,C,2.0
6,6.08899998664856,distr,53911.00001335144,Fri Nov 14 2025 10:09:36 GMT-0600 (Central Standard Time),802571.8000000715,B,moneyenter,O,enter,410,1,3240.0,799331.8000000715,7239,WL,C,2.0
6,6.932000160217285,distr,53067.999839782715,Fri Nov 14 2025 10:09:36 GMT-0600 (Central Standard Time),803414.3000000715,B,s,O,s,827,1,842.5,802571.8000000715,7239,WL,C,3.0
6,7.164999961853027,distr,52835.00003814697,Fri Nov 14 2025 10:09:36 GMT-0600 (Central Standard Time),803647.6000000238,B,sk,O,k,224,1,1075.7999999523163,802571.8000000715,7239,WL,C,3.0
6,7.582000017166138,distr,52417.99998283386,Fri Nov 14 2025 10:09:36 GMT-0600 (Central Standard Time),804064.3999999762,B,sky,O,y,398,1,1492.5999999046326,802571.8000000715,7239,WL,C,3.0
6,8.081000089645386,distr,51918.999910354614,Fri Nov 14 2025 10:09:36 GMT-0600 (Central Standard Time),804563.3999999762,B,skyenter,O,enter,496,1,1991.5999999046326,802571.8000000715,7239,WL,C,3.0
6,8.865000009536743,distr,51134.99999046326,Fri Nov 14 2025 10:09:36 GMT-0600 (Central Standard Time),805347.0,B,f,O,f,769,1,783.2999999523163,804563.7000000477,7239,WL,C,4.0
6,9.098000049591064,distr,50901.999950408936,Fri Nov 14 2025 10:09:36 GMT-0600 (Central Standard Time),805580.1000000238,B,fo,O,o,219,1,1016.3999999761581,804563.7000000477,7239,WL,C,4.0
6,9.296000003814697,distr,50703.9999961853,Fri Nov 14 2025 10:09:36 GMT-0600 (Central Standard Time),805779.0,B,for,O,r,195,1,1215.2999999523163,804563.7000000477,7239,WL,C,4.0
6,9.480000019073486,distr,50519.999980926514,Fri Nov 14 2025 10:09:36 GMT-0600 (Central Standard Time),805962.7000000477,B,fore,O,e,172,1,1399.0,804563.7000000477,7239,WL,C,4.0
6,9.831000089645386,distr,50168.999910354614,Fri Nov 14 2025 10:09:36 GMT-0600 (Central Standard Time),806313.5,B,forex,O,x,341,1,1749.7999999523163,804563.7000000477,7239,WL,C,4.0
6,10.330000162124634,distr,49669.999837875366,Fri Nov 14 2025 10:09:36 GMT-0600 (Central Standard Time),806812.6000000238,B,fore,O,backspace,484,1,2248.899999976158,804563.7000000477,7239,WL,C,4.0
6,10.54699993133545,distr,49453.00006866455,Fri Nov 14 2025 10:09:36 GMT-0600 (Central Standard Time),807029.3000000715,B,fores,O,s,201,1,2465.600000023842,804563.7000000477,7239,WL,C,4.0
6,10.865000009536743,distr,49134.99999046326,Fri Nov 14 2025 10:09:36 GMT-0600 (Central Standard Time),807347.6000000238,B,forest,O,t,305,1,2783.899999976158,804563.7000000477,7239,WL,C,4.0
6,11.364000082015991,distr,48635.99991798401,Fri Nov 14 2025 10:09:36 GMT-0600 (Central Standard Time),807846.1000000238,B,forestenter,O,enter,482,1,3282.399999976158,804563.7000000477,7239,WL,C,4.0
6,12.263000011444092,distr,47736.99998855591,Fri Nov 14 2025 10:09:36 GMT-0600 (Central Standard Time),808745.7000000477,B,m,O,m,896,1,899.5,807846.2000000477,7239,WL,C,5.0
6,12.513000011444092,distr,47486.99998855591,Fri Nov 14 2025 10:09:36 GMT-0600 (Central Standard Time),808995.7000000477,B,mo,O,o,236,1,1149.5,807846.2000000477,7239,WL,C,5.0
6,12.696000099182129,distr,47303.99990081787,Fri Nov 14 2025 10:09:36 GMT-0600 (Central Standard Time),809178.8999999762,B,mot,O,t,170,1,1332.6999999284744,807846.2000000477,7239,WL,C,5.0
6,12.830000162124634,distr,47169.999837875366,Fri Nov 14 2025 10:09:36 GMT-0600 (Central Standard Time),809312.5,B,moth,O,h,124,1,1466.2999999523163,807846.2000000477,7239,WL,C,5.0
6,12.913000106811523,distr,47086.99989318848,Fri Nov 14 2025 10:09:36 GMT-0600 (Central Standard Time),809395.8000000715,B,mothe,O,e,70,1,1549.6000000238419,807846.2000000477,7239,WL,C,5.0
6,12.980000019073486,distr,47019.999980926514,Fri Nov 14 2025 10:09:36 GMT-0600 (Central Standard Time),809462.0,B,mother,O,r,57,1,1615.7999999523163,807846.2000000477,7239,WL,C,5.0
6,13.980000019073486,distr,46019.999980926514,Fri Nov 14 2025 10:09:36 GMT-0600 (Central Standard Time),810462.1000000238,B,motherenter,O,enter,993,1,2615.899999976158,807846.2000000477,7239,WL,C,5.0
6,14.779000043869019,distr,45220.99995613098,Fri Nov 14 2025 10:09:36 GMT-0600 (Central Standard Time),811261.7000000477,B,v,O,v,783,1,799.3000000715256,810462.3999999762,7239,WL,C,6.0
6,15.029000043869019,distr,44970.99995613098,Fri Nov 14 2025 10:09:36 GMT-0600 (Central Standard Time),811511.5,B,va,O,a,233,1,1049.1000000238419,810462.3999999762,7239,WL,C,6.0
6,15.212000131607056,distr,44787.999868392944,Fri Nov 14 2025 10:09:36 GMT-0600 (Central Standard Time),811694.7000000477,B,val,O,l,174,1,1232.3000000715256,810462.3999999762,7239,WL,C,6.0
6,15.328999996185303,distr,44671.0000038147,Fri Nov 14 2025 10:09:36 GMT-0600 (Central Standard Time),811811.5,B,vall,O,l,113,1,1349.1000000238419,810462.3999999762,7239,WL,C,6.0
6,15.562000036239624,distr,44437.999963760376,Fri Nov 14 2025 10:09:36 GMT-0600 (Central Standard Time),812044.3000000715,B,valle,O,e,220,1,1581.9000000953674,810462.3999999762,7239,WL,C,6.0
6,15.84500002861023,distr,44154.99997138977,Fri Nov 14 2025 10:09:36 GMT-0600 (Central Standard Time),812327.6000000238,B,valley,O,y,274,1,1865.2000000476837,810462.3999999762,7239,WL,C,6.0
6,16.644999980926514,distr,43355.000019073486,Fri Nov 14 2025 10:09:36 GMT-0600 (Central Standard Time),813127.7000000477,B,valleyenter,O,enter,791,1,2665.3000000715256,810462.3999999762,7239,WL,C,6.0
6,17.17799997329712,distr,42822.00002670288,Fri Nov 14 2025 10:09:36 GMT-0600 (Central Standard Time),813660.8000000715,B,c,O,c,527,1,532.9000000953674,813127.8999999762,7239,WL,C,7.0
6,17.361000061035156,distr,42638.999938964844,Fri Nov 14 2025 10:09:36 GMT-0600 (Central Standard Time),813844.0,B,ch,O,h,179,1,716.1000000238419,813127.8999999762,7239,WL,C,7.0
6,17.962000131607056,distr,42037.999868392944,Fri Nov 14 2025 10:09:36 GMT-0600 (Central Standard Time),814444.5,B,chr,O,r,587,1,1316.6000000238419,813127.8999999762,7239,WL,C,7.0
6,18.17799997329712,distr,41822.00002670288,Fri Nov 14 2025 10:09:36 GMT-0600 (Central Standard Time),814660.2000000477,B,chri,O,i,201,1,1532.3000000715256,813127.8999999762,7239,WL,C,7.0
6,18.295000076293945,distr,41704.999923706055,Fri Nov 14 2025 10:09:36 GMT-0600 (Central Standard Time),814777.5,B,chris,O,s,107,1,1649.6000000238419,813127.8999999762,7239,WL,C,7.0
6,18.561000108718872,distr,41438.99989128113,Fri Nov 14 2025 10:09:36 GMT-0600 (Central Standard Time),815043.5,B,christ,O,t,252,1,1915.6000000238419,813127.8999999762,7239,WL,C,7.0
6,18.776999950408936,distr,41223.000049591064,Fri Nov 14 2025 10:09:36 GMT-0600 (Central Standard Time),815259.2000000477,B,christm,O,m,212,1,2131.3000000715256,813127.8999999762,7239,WL,C,7.0
6,18.960000038146973,distr,41039.99996185303,Fri Nov 14 2025 10:09:36 GMT-0600 (Central Standard Time),815442.8999999762,B,christma,O,a,181,1,2315.0,813127.8999999762,7239,WL,C,7.0
6,19.078999996185303,distr,40921.0000038147,Fri Nov 14 2025 10:09:36 GMT-0600 (Central Standard Time),815561.3999999762,B,christmas,O,s,99,1,2433.5,813127.8999999762,7239,WL,C,7.0
6,19.610000133514404,distr,40389.999866485596,Fri Nov 14 2025 10:09:36 GMT-0600 (Central Standard Time),816092.8999999762,B,christmasenter,O,enter,517,1,2965.0,813127.8999999762,7239,WL,C,7.0
6,35.1560001373291,distr,24843.9998626709,Fri Nov 14 2025 10:09:36 GMT-0600 (Central Standard Time),831638.8000000715,B,enter,O,enter,15538,1,15545.800000071526,816093.0,7239,WL,C,8.0
6,60.013999938964844,distr,-13.99993896484375,Fri Nov 14 2025 10:09:36 GMT-0600 (Central Standard Time),856497.0,B,None,O,None,24854,1,24857.899999976158,831639.1000000238,7239,WL,C,9.0
7,1.3499999046325684,immed,58650.00009536743,Fri Nov 14 2025 10:09:36 GMT-0600 (Central Standard Time),868260.1000000238,A,t,O,t,1344,1,1349.7000000476837,866910.3999999762,7239,WL,C,1.0
7,1.6170001029968262,immed,58382.999897003174,Fri Nov 14 2025 10:09:36 GMT-0600 (Central Standard Time),868526.8999999762,A,to,O,o,250,1,1616.5,866910.3999999762,7239,WL,C,1.0
7,1.8329999446868896,immed,58167.00005531311,Fri Nov 14 2025 10:09:36 GMT-0600 (Central Standard Time),868743.1000000238,A,tow,O,w,199,1,1832.7000000476837,866910.3999999762,7239,WL,C,1.0
7,2.0160000324249268,immed,57983.99996757507,Fri Nov 14 2025 10:09:36 GMT-0600 (Central Standard Time),868925.8999999762,A,towe,O,e,175,1,2015.5,866910.3999999762,7239,WL,C,1.0
7,2.2660000324249268,immed,57733.99996757507,Fri Nov 14 2025 10:09:36 GMT-0600 (Central Standard Time),869176.2000000477,A,tower,O,r,240,1,2265.8000000715256,866910.3999999762,7239,WL,C,1.0
7,2.7660000324249268,immed,57233.99996757507,Fri Nov 14 2025 10:09:36 GMT-0600 (Central Standard Time),869676.3999999762,A,towerenter,O,enter,495,1,2766.0,866910.3999999762,7239,WL,C,1.0
7,3.9159998893737793,immed,56084.00011062622,Fri Nov 14 2025 10:09:36 GMT-0600 (Central Standard Time),870825.6000000238,A,q,O,q,1144,1,1149.0,869676.6000000238,7239,WL,C,2.0
7,4.2149999141693115,immed,55785.00008583069,Fri Nov 14 2025 10:09:36 GMT-0600 (Central Standard Time),871125.3999999762,A,qu,O,u,284,1,1448.7999999523163,869676.6000000238,7239,WL,C,2.0
7,4.482000112533569,immed,55517.99988746643,Fri Nov 14 2025 10:09:36 GMT-0600 (Central Standard Time),871392.3000000715,A,que,O,e,257,1,1715.7000000476837,869676.6000000238,7239,WL,C,2.0
7,4.648999929428101,immed,55351.0000705719,Fri Nov 14 2025 10:09:36 GMT-0600 (Central Standard Time),871558.8000000715,A,quee,O,e,150,1,1882.2000000476837,869676.6000000238,7239,WL,C,2.0
7,4.9649999141693115,immed,55035.00008583069,Fri Nov 14 2025 10:09:36 GMT-0600 (Central Standard Time),871875.3000000715,A,queen,O,n,297,1,2198.7000000476837,869676.6000000238,7239,WL,C,2.0
7,5.549000024795532,immed,54450.99997520447,Fri Nov 14 2025 10:09:36 GMT-0600 (Central Standard Time),872459.1000000238,A,queenenter,O,enter,572,1,2782.5,869676.6000000238,7239,WL,C,2.0
7,7.2149999141693115,immed,52785.00008583069,Fri Nov 14 2025 10:09:36 GMT-0600 (Central Standard Time),874124.8999999762,A,f,O,f,1659,1,1665.5999999046326,872459.3000000715,7239,WL,C,3.0
7,7.447999954223633,immed,52552.00004577637,Fri Nov 14 2025 10:09:36 GMT-0600 (Central Standard Time),874357.6000000238,A,fl,O,l,224,1,1898.2999999523163,872459.3000000715,7239,WL,C,3.0
7,7.614000082015991,immed,52385.99991798401,Fri Nov 14 2025 10:09:36 GMT-0600 (Central Standard Time),874524.2000000477,A,fla,O,a,152,1,2064.899999976158,872459.3000000715,7239,WL,C,3.0
7,8.347000122070312,immed,51652.99987792969,Fri Nov 14 2025 10:09:36 GMT-0600 (Central Standard Time),875257.3999999762,A,flag,O,g,730,1,2798.0999999046326,872459.3000000715,7239,WL,C,3.0
7,8.898000001907349,immed,51101.99999809265,Fri Nov 14 2025 10:09:36 GMT-0600 (Central Standard Time),875808.2000000477,A,flagenter,O,enter,533,1,3348.899999976158,872459.3000000715,7239,WL,C,3.0
7,9.648000001907349,immed,50351.99999809265,Fri Nov 14 2025 10:09:36 GMT-0600 (Central Standard Time),876557.7000000477,A,l,O,l,732,1,749.3000000715256,875808.3999999762,7239,WL,C,4.0
7,9.829999923706055,immed,50170.000076293945,Fri Nov 14 2025 10:09:36 GMT-0600 (Central Standard Time),876740.5,A,le,O,e,168,1,932.1000000238419,875808.3999999762,7239,WL,C,4.0
7,10.097000122070312,immed,49902.99987792969,Fri Nov 14 2025 10:09:36 GMT-0600 (Central Standard Time),877007.3000000715,A,let,O,t,249,1,1198.9000000953674,875808.3999999762,7239,WL,C,4.0
7,10.247999906539917,immed,49752.00009346008,Fri Nov 14 2025 10:09:36 GMT-0600 (Central Standard Time),877157.6000000238,A,lett,O,t,143,1,1349.2000000476837,875808.3999999762,7239,WL,C,4.0
7,10.496999979019165,immed,49503.000020980835,Fri Nov 14 2025 10:09:36 GMT-0600 (Central Standard Time),877407.0,A,lette,O,e,232,1,1598.6000000238419,875808.3999999762,7239,WL,C,4.0
7,10.579999923706055,immed,49420.000076293945,Fri Nov 14 2025 10:09:36 GMT-0600 (Central Standard Time),877490.1000000238,A,letter,O,r,79,1,1681.7000000476837,875808.3999999762,7239,WL,C,4.0
7,11.44700002670288,immed,48552.99997329712,Fri Nov 14 2025 10:09:36 GMT-0600 (Central Standard Time),878356.8999999762,A,letterenter,O,enter,860,1,2548.5,875808.3999999762,7239,WL,C,4.0
7,12.630000114440918,immed,47369.99988555908,Fri Nov 14 2025 10:09:36 GMT-0600 (Central Standard Time),879539.7000000477,A,w,O,w,1178,1,1182.8000000715256,878356.8999999762,7239,WL,C,5.0
7,12.928999900817871,immed,47071.00009918213,Fri Nov 14 2025 10:09:36 GMT-0600 (Central Standard Time),879839.3000000715,A,wh,O,h,290,1,1482.4000000953674,878356.8999999762,7239,WL,C,5.0
7,13.128999948501587,immed,46871.00005149841,Fri Nov 14 2025 10:09:36 GMT-0600 (Central Standard Time),880039.3999999762,A,whe,O,e,190,1,1682.5,878356.8999999762,7239,WL,C,5.0
7,13.345999956130981,immed,46654.00004386902,Fri Nov 14 2025 10:09:36 GMT-0600 (Central Standard Time),880256.5,A,whea,O,a,198,1,1899.6000000238419,878356.8999999762,7239,WL,C,5.0
7,13.595999956130981,immed,46404.00004386902,Fri Nov 14 2025 10:09:36 GMT-0600 (Central Standard Time),880506.0,A,wheat,O,t,246,1,2149.100000023842,878356.8999999762,7239,WL,C,5.0
7,14.013000011444092,immed,45986.99998855591,Fri Nov 14 2025 10:09:36 GMT-0600 (Central Standard Time),880923.0,A,wheatenter,O,enter,413,1,2566.100000023842,878356.8999999762,7239,WL,C,5.0
7,14.746000051498413,immed,45253.99994850159,Fri Nov 14 2025 10:09:36 GMT-0600 (Central Standard Time),881655.7000000477,A,c,O,c,715,1,732.5,880923.2000000477,7239,WL,C,6.0
7,14.996000051498413,immed,45003.99994850159,Fri Nov 14 2025 10:09:36 GMT-0600 (Central Standard Time),881905.7000000477,A,co,O,o,238,1,982.5,880923.2000000477,7239,WL,C,6.0
7,15.194999933242798,immed,44805.0000667572,Fri Nov 14 2025 10:09:36 GMT-0600 (Central Standard Time),882105.5,A,cor,O,r,196,1,1182.2999999523163,880923.2000000477,7239,WL,C,6.0
7,15.395999908447266,immed,44604.000091552734,Fri Nov 14 2025 10:09:36 GMT-0600 (Central Standard Time),882305.7000000477,A,corn,O,n,190,1,1382.5,880923.2000000477,7239,WL,C,6.0
7,15.812000036239624,immed,44187.999963760376,Fri Nov 14 2025 10:09:36 GMT-0600 (Central Standard Time),882721.8000000715,A,cornenter,O,enter,413,1,1798.6000000238419,880923.2000000477,7239,WL,C,6.0
7,16.244999885559082,immed,43755.00011444092,Fri Nov 14 2025 10:09:36 GMT-0600 (Central Standard Time),883155.1000000238,A,s,O,s,420,1,433.10000002384186,882722.0,7239,WL,C,7.0
7,16.477999925613403,immed,43522.0000743866,Fri Nov 14 2025 10:09:36 GMT-0600 (Central Standard Time),883388.2000000477,A,su,O,u,219,1,666.2000000476837,882722.0,7239,WL,C,7.0
7,16.711999893188477,immed,43288.00010681152,Fri Nov 14 2025 10:09:36 GMT-0600 (Central Standard Time),883622.1000000238,A,sug,O,g,226,1,900.1000000238419,882722.0,7239,WL,C,7.0
7,16.92899990081787,immed,43071.00009918213,Fri Nov 14 2025 10:09:36 GMT-0600 (Central Standard Time),883838.6000000238,A,suga,O,a,200,1,1116.6000000238419,882722.0,7239,WL,C,7.0
7,17.14400005340576,immed,42855.99994659424,Fri Nov 14 2025 10:09:36 GMT-0600 (Central Standard Time),884054.0,A,sugar,O,r,204,1,1332.0,882722.0,7239,WL,C,7.0
7,17.494999885559082,immed,42505.00011444092,Fri Nov 14 2025 10:09:36 GMT-0600 (Central Standard Time),884405.0,A,sugarenter,O,enter,344,1,1683.0,882722.0,7239,WL,C,7.0
7,18.694999933242798,immed,41305.0000667572,Fri Nov 14 2025 10:09:36 GMT-0600 (Central Standard Time),885604.8000000715,A,d,O,d,1184,1,1199.7000000476837,884405.1000000238,7239,WL,C,8.0
7,18.911999940872192,immed,41088.00005912781,Fri Nov 14 2025 10:09:36 GMT-0600 (Central Standard Time),885821.8000000715,A,do,O,o,201,1,1416.7000000476837,884405.1000000238,7239,WL,C,8.0
7,19.026999950408936,immed,40973.000049591064,Fri Nov 14 2025 10:09:36 GMT-0600 (Central Standard Time),885937.5,A,doc,O,c,112,1,1532.3999999761581,884405.1000000238,7239,WL,C,8.0
7,19.278000116348267,immed,40721.99988365173,Fri Nov 14 2025 10:09:36 GMT-0600 (Central Standard Time),886187.7000000477,A,doct,O,t,236,1,1782.6000000238419,884405.1000000238,7239,WL,C,8.0
7,19.427000045776367,immed,40572.99995422363,Fri Nov 14 2025 10:09:36 GMT-0600 (Central Standard Time),886337.3999999762,A,docto,O,o,130,1,1932.2999999523163,884405.1000000238,7239,WL,C,8.0
7,19.526999950408936,immed,40473.000049591064,Fri Nov 14 2025 10:09:36 GMT-0600 (Central Standard Time),886437.6000000238,A,doctor,O,r,84,1,2032.5,884405.1000000238,7239,WL,C,8.0
7,19.859999895095825,immed,40140.000104904175,Fri Nov 14 2025 10:09:36 GMT-0600 (Central Standard Time),886770.2000000477,A,doctorenter,O,enter,321,1,2365.100000023842,884405.1000000238,7239,WL,C,8.0
7,20.677000045776367,immed,39322.99995422363,Fri Nov 14 2025 10:09:36 GMT-0600 (Central Standard Time),887587.0,A,n,O,n,803,1,816.6000000238419,886770.3999999762,7239,WL,C,9.0
7,20.91100001335144,immed,39088.99998664856,Fri Nov 14 2025 10:09:36 GMT-0600 (Central Standard Time),887821.3000000715,A,na,O,a,218,1,1050.9000000953674,886770.3999999762,7239,WL,C,9.0
7,21.177000045776367,immed,38822.99995422363,Fri Nov 14 2025 10:09:36 GMT-0600 (Central Standard Time),888086.8999999762,A,nai,O,i,256,1,1316.5,886770.3999999762,7239,WL,C,9.0
7,21.359999895095825,immed,38640.000104904175,Fri Nov 14 2025 10:09:36 GMT-0600 (Central Standard Time),888270.1000000238,A,nail,O,l,175,1,1499.7000000476837,886770.3999999762,7239,WL,C,9.0
7,21.825999975204468,immed,38174.00002479553,Fri Nov 14 2025 10:09:36 GMT-0600 (Central Standard Time),888736.2000000477,A,nailenter,O,enter,457,1,1965.8000000715256,886770.3999999762,7239,WL,C,9.0
7,22.575999975204468,immed,37424.00002479553,Fri Nov 14 2025 10:09:36 GMT-0600 (Central Standard Time),889486.3000000715,A,h,O,h,734,1,749.8000000715256,888736.5,7239,WL,C,10.0
7,22.80999994277954,immed,37190.00005722046,Fri Nov 14 2025 10:09:36 GMT-0600 (Central Standard Time),889720.0,A,ho,O,o,216,1,983.5,888736.5,7239,WL,C,10.0
7,23.009000062942505,immed,36990.999937057495,Fri Nov 14 2025 10:09:36 GMT-0600 (Central Standard Time),889919.5,A,hom,O,m,189,1,1183.0,888736.5,7239,WL,C,10.0
7,23.193000078201294,immed,36806.999921798706,Fri Nov 14 2025 10:09:36 GMT-0600 (Central Standard Time),890103.2000000477,A,home,O,e,174,1,1366.7000000476837,888736.5,7239,WL,C,10.0
7,23.460000038146973,immed,36539.99996185303,Fri Nov 14 2025 10:09:36 GMT-0600 (Central Standard Time),890369.8000000715,A,homeenter,O,enter,263,1,1633.3000000715256,888736.5,7239,WL,C,10.0
7,23.927000045776367,immed,36072.99995422363,Fri Nov 14 2025 10:09:36 GMT-0600 (Central Standard Time),890836.8999999762,A,c,O,c,452,1,466.89999997615814,890370.0,7239,WL,C,11.0
7,24.05900001525879,immed,35940.99998474121,Fri Nov 14 2025 10:09:36 GMT-0600 (Central Standard Time),890969.3000000715,A,ca,O,a,121,1,599.3000000715256,890370.0,7239,WL,C,11.0
7,24.408999919891357,immed,35591.00008010864,Fri Nov 14 2025 10:09:36 GMT-0600 (Central Standard Time),891319.2000000477,A,cat,O,t,333,1,949.2000000476837,890370.0,7239,WL,C,11.0
7,24.526000022888184,immed,35473.99997711182,Fri Nov 14 2025 10:09:36 GMT-0600 (Central Standard Time),891436.0,A,catt,O,t,104,1,1066.0,890370.0,7239,WL,C,11.0
7,24.691999912261963,immed,35308.00008773804,Fri Nov 14 2025 10:09:36 GMT-0600 (Central Standard Time),891602.3999999762,A,cattl,O,l,153,1,1232.3999999761581,890370.0,7239,WL,C,11.0
7,24.79200005531311,immed,35207.99994468689,Fri Nov 14 2025 10:09:36 GMT-0600 (Central Standard Time),891701.8999999762,A,cattle,O,e,92,1,1331.8999999761581,890370.0,7239,WL,C,11.0
7,25.240999937057495,immed,34759.000062942505,Fri Nov 14 2025 10:09:36 GMT-0600 (Central Standard Time),892151.5,A,cattleenter,O,enter,441,1,1781.5,890370.0,7239,WL,C,11.0
7,26.72499990463257,immed,33275.00009536743,Fri Nov 14 2025 10:09:36 GMT-0600 (Central Standard Time),893635.0,A,s,O,s,1481,1,1483.3999999761581,892151.6000000238,7239,WL,C,12.0
7,26.924999952316284,immed,33075.000047683716,Fri Nov 14 2025 10:09:36 GMT-0600 (Central Standard Time),893835.0,A,sh,O,h,186,1,1683.3999999761581,892151.6000000238,7239,WL,C,12.0
7,27.108999967575073,immed,32891.00003242493,Fri Nov 14 2025 10:09:36 GMT-0600 (Central Standard Time),894019.1000000238,A,sho,O,o,179,1,1867.5,892151.6000000238,7239,WL,C,12.0
7,27.242000102996826,immed,32757.999897003174,Fri Nov 14 2025 10:09:36 GMT-0600 (Central Standard Time),894151.8000000715,A,shor,O,r,115,1,2000.2000000476837,892151.6000000238,7239,WL,C,12.0
7,27.308000087738037,immed,32691.999912261963,Fri Nov 14 2025 10:09:36 GMT-0600 (Central Standard Time),894218.3000000715,A,shore,O,e,54,1,2066.7000000476837,892151.6000000238,7239,WL,C,12.0
7,28.507999897003174,immed,31492.000102996826,Fri Nov 14 2025 10:09:36 GMT-0600 (Central Standard Time),895417.8000000715,A,shoreenter,O,enter,1196,1,3266.2000000476837,892151.6000000238,7239,WL,C,12.0
7,29.473999977111816,immed,30526.000022888184,Fri Nov 14 2025 10:09:36 GMT-0600 (Central Standard Time),896384.3999999762,A,b,O,b,955,1,966.5,895417.8999999762,7239,WL,C,13.0
7,29.756999969482422,immed,30243.000030517578,Fri Nov 14 2025 10:09:36 GMT-0600 (Central Standard Time),896667.1000000238,A,bo,O,o,260,1,1249.2000000476837,895417.8999999762,7239,WL,C,13.0
7,30.157999992370605,immed,29842.000007629395,Fri Nov 14 2025 10:09:36 GMT-0600 (Central Standard Time),897068.2000000477,A,bod,O,d,387,1,1650.3000000715256,895417.8999999762,7239,WL,C,13.0
7,30.324000120162964,immed,29675.999879837036,Fri Nov 14 2025 10:09:36 GMT-0600 (Central Standard Time),897234.1000000238,A,body,O,y,154,1,1816.2000000476837,895417.8999999762,7239,WL,C,13.0
7,30.640000104904175,immed,29359.999895095825,Fri Nov 14 2025 10:09:36 GMT-0600 (Central Standard Time),897550.5,A,bodyenter,O,enter,301,1,2132.600000023842,895417.8999999762,7239,WL,C,13.0
7,31.60700011253357,immed,28392.99988746643,Fri Nov 14 2025 10:09:36 GMT-0600 (Central Standard Time),898517.0,A,b,O,b,960,1,966.2999999523163,897550.7000000477,7239,WL,C,14.0
7,31.822999954223633,immed,28177.000045776367,Fri Nov 14 2025 10:09:36 GMT-0600 (Central Standard Time),898733.1000000238,A,bo,O,o,201,1,1182.3999999761581,897550.7000000477,7239,WL,C,14.0
7,32.09100008010864,immed,27908.999919891357,Fri Nov 14 2025 10:09:36 GMT-0600 (Central Standard Time),899000.8000000715,A,boy,O,y,257,1,1450.1000000238419,897550.7000000477,7239,WL,C,14.0
7,32.42300009727478,immed,27576.99990272522,Fri Nov 14 2025 10:09:36 GMT-0600 (Central Standard Time),899332.8999999762,A,boyenter,O,enter,325,1,1782.1999999284744,897550.7000000477,7239,WL,C,14.0
7,60.013999938964844,immed,-13.99993896484375,Fri Nov 14 2025 10:09:36 GMT-0600 (Central Standard Time),926924.5,A,None,O,None,27587,1,27591.299999952316,899333.2000000477,7239,WL,C,15.0
