acc_sum,block,block_c,change,condition,correct,correct_response,datetime,endtime,face,project,response,response_time,row_sel,session_number,start_end,starttime,subject_id,task,task_vers,trial
0,prac,1,,1-Back,,,Thu Oct 16 2025 15:23:01 GMT-0400 (Eastern Daylight Time),,050_m_f_n_a.png,I,space,17653,1,3,,,9015,NNB,A,0
1,prac,1,0.0,1-Back,1.0,m,Thu Oct 16 2025 15:23:01 GMT-0400 (Eastern Daylight Time),2581456.900000006,063_y_f_n_a.png,I,m,648,2,3,1532.5,2579924.400000006,9015,NNB,A,1
2,prac,1,1.0,1-Back,1.0,z,Thu Oct 16 2025 15:23:01 GMT-0400 (Eastern Daylight Time),2583190.599999994,063_y_f_n_a.png,I,z,950,3,3,1721.0999999940395,2581469.5,9015,NNB,A,2
3,prac,1,0.0,1-Back,1.0,m,Thu Oct 16 2025 15:23:01 GMT-0400 (Eastern Daylight Time),2584740.5,053_o_m_n_a.png,I,m,722,4,3,1535.4000000059605,2583205.099999994,9015,NNB,A,3
4,prac,1,0.0,1-Back,1.0,m,Thu Oct 16 2025 15:23:01 GMT-0400 (Eastern Daylight Time),2586407.400000006,058_m_m_n_a.png,I,m,840,5,3,1652.2000000029802,2584755.200000003,9015,NNB,A,4
5,prac,1,1.0,1-Back,1.0,z,Thu Oct 16 2025 15:23:01 GMT-0400 (Eastern Daylight Time),2587724.0,058_m_m_n_a.png,I,z,527,6,3,1302.7000000029802,2586421.299999997,9015,NNB,A,5
6,prac,1,0.0,1-Back,1.0,m,Thu Oct 16 2025 15:23:01 GMT-0400 (Eastern Daylight Time),2589440.700000003,047_o_f_n_a.png,I,m,832,7,3,1701.7999999970198,2587738.900000006,9015,NNB,A,6
7,prac,1,0.0,1-Back,1.0,m,Thu Oct 16 2025 15:23:01 GMT-0400 (Eastern Daylight Time),2590990.599999994,045_m_m_n_a.png,I,m,719,8,3,1534.7999999970198,2589455.799999997,9015,NNB,A,7
8,prac,1,0.0,1-Back,1.0,m,Thu Oct 16 2025 15:23:01 GMT-0400 (Eastern Daylight Time),2592373.799999997,050_m_f_n_a.png,I,m,598,9,3,1368.5,2591005.299999997,9015,NNB,A,8
9,prac,1,1.0,1-Back,1.0,z,Thu Oct 16 2025 15:23:01 GMT-0400 (Eastern Daylight Time),2593890.400000006,050_m_f_n_a.png,I,z,719,10,3,1502.0,2592388.400000006,9015,NNB,A,9
10,prac,1,0.0,1-Back,1.0,m,Thu Oct 16 2025 15:23:01 GMT-0400 (Eastern Daylight Time),2595390.599999994,053_o_m_n_a.png,I,m,705,11,3,1485.3999999910593,2593905.200000003,9015,NNB,A,10
10,prac,1,0.0,1-Back,0.0,m,Thu Oct 16 2025 15:23:01 GMT-0400 (Eastern Daylight Time),2597040.400000006,010_y_f_n_a.png,I,z,772,12,3,1635.0,2595405.400000006,9015,NNB,A,11
0,test,1,0.0,1-Back,,,Thu Oct 16 2025 15:23:01 GMT-0400 (Eastern Daylight Time),2597040.400000006,063_y_f_n_a.png,I,space,18416,1,3,1635.0,2595405.400000006,9015,NNB,A,0
1,test,1,0.0,1-Back,1.0,m,Thu Oct 16 2025 15:23:01 GMT-0400 (Eastern Daylight Time),2626307.200000003,043_m_f_n_a.png,I,m,701,2,3,1720.4000000059605,2624586.799999997,9015,NNB,A,1
2,test,1,0.0,1-Back,1.0,m,Thu Oct 16 2025 15:23:01 GMT-0400 (Eastern Daylight Time),2628840.299999997,010_y_f_n_a.png,I,m,1512,3,3,2519.0999999940395,2626321.200000003,9015,NNB,A,2
3,test,1,1.0,1-Back,1.0,z,Thu Oct 16 2025 15:23:01 GMT-0400 (Eastern Daylight Time),2630590.400000006,010_y_f_n_a.png,I,z,722,4,3,1735.9000000059605,2628854.5,9015,NNB,A,3
4,test,1,0.0,1-Back,1.0,m,Thu Oct 16 2025 15:23:01 GMT-0400 (Eastern Daylight Time),2632490.400000006,043_m_f_n_a.png,I,m,876,5,3,1887.6000000089407,2630602.799999997,9015,NNB,A,4
5,test,1,0.0,1-Back,1.0,m,Thu Oct 16 2025 15:23:01 GMT-0400 (Eastern Daylight Time),2634490.200000003,053_o_m_n_a.png,I,m,976,6,3,1984.2000000029802,2632506.0,9015,NNB,A,5
6,test,1,1.0,1-Back,1.0,z,Thu Oct 16 2025 15:23:01 GMT-0400 (Eastern Daylight Time),2636073.299999997,053_o_m_n_a.png,I,z,559,7,3,1569.5999999940395,2634503.700000003,9015,NNB,A,6
7,test,1,0.0,1-Back,1.0,m,Thu Oct 16 2025 15:23:01 GMT-0400 (Eastern Daylight Time),2637823.700000003,058_m_m_n_a.png,I,m,722,8,3,1739.4000000059605,2636084.299999997,9015,NNB,A,7
8,test,1,0.0,1-Back,1.0,m,Thu Oct 16 2025 15:23:01 GMT-0400 (Eastern Daylight Time),2639540.400000006,047_o_f_n_a.png,I,m,666,9,3,1699.2000000029802,2637841.200000003,9015,NNB,A,8
9,test,1,0.0,1-Back,1.0,m,Thu Oct 16 2025 15:23:01 GMT-0400 (Eastern Daylight Time),2641224.200000003,058_m_m_n_a.png,I,m,661,10,3,1669.7999999970198,2639554.400000006,9015,NNB,A,9
10,test,1,0.0,1-Back,1.0,m,Thu Oct 16 2025 15:23:01 GMT-0400 (Eastern Daylight Time),2643023.700000003,041_y_m_n_a.png,I,m,771,11,3,1790.0,2641233.700000003,9015,NNB,A,10
11,test,1,1.0,1-Back,1.0,z,Thu Oct 16 2025 15:23:01 GMT-0400 (Eastern Daylight Time),2644590.400000006,041_y_m_n_a.png,I,z,539,12,3,1554.4000000059605,2643036.0,9015,NNB,A,11
12,test,1,0.0,1-Back,1.0,m,Thu Oct 16 2025 15:23:01 GMT-0400 (Eastern Daylight Time),2646257.099999994,044_o_f_n_a.png,I,m,636,13,3,1653.5,2644603.599999994,9015,NNB,A,12
13,test,1,1.0,1-Back,1.0,z,Thu Oct 16 2025 15:23:01 GMT-0400 (Eastern Daylight Time),2647757.0,044_o_f_n_a.png,I,z,473,14,3,1485.9000000059605,2646271.099999994,9015,NNB,A,13
14,test,1,0.0,1-Back,1.0,m,Thu Oct 16 2025 15:23:01 GMT-0400 (Eastern Daylight Time),2649423.700000003,008_y_m_n_a.png,I,m,621,15,3,1650.6000000089407,2647773.099999994,9015,NNB,A,14
15,test,1,0.0,1-Back,1.0,m,Thu Oct 16 2025 15:23:01 GMT-0400 (Eastern Daylight Time),2650990.400000006,050_m_f_n_a.png,I,m,539,16,3,1553.6000000089407,2649436.799999997,9015,NNB,A,15
16,test,1,0.0,1-Back,1.0,m,Thu Oct 16 2025 15:23:01 GMT-0400 (Eastern Daylight Time),2652523.599999994,046_o_m_n_a.png,I,m,508,17,3,1519.0,2651004.599999994,9015,NNB,A,16
17,test,1,0.0,1-Back,1.0,m,Thu Oct 16 2025 15:23:01 GMT-0400 (Eastern Daylight Time),2654090.299999997,050_m_f_n_a.png,I,m,543,18,3,1551.5,2652538.799999997,9015,NNB,A,17
0,test,2,0.0,1-Back,,,Thu Oct 16 2025 15:23:01 GMT-0400 (Eastern Daylight Time),2654090.299999997,058_m_m_n_a.png,I,space,2832,1,3,1551.5,2652538.799999997,9015,NNB,A,0
1,test,2,0.0,1-Back,1.0,m,Thu Oct 16 2025 15:23:01 GMT-0400 (Eastern Daylight Time),2660573.0,043_m_f_n_a.png,I,m,589,2,3,1602.2000000029802,2658970.799999997,9015,NNB,A,1
2,test,2,1.0,1-Back,1.0,z,Thu Oct 16 2025 15:23:01 GMT-0400 (Eastern Daylight Time),2662073.700000003,043_m_f_n_a.png,I,z,477,3,3,1490.7999999970198,2660582.900000006,9015,NNB,A,2
3,test,2,0.0,1-Back,1.0,m,Thu Oct 16 2025 15:23:01 GMT-0400 (Eastern Daylight Time),2663740.400000006,058_m_m_n_a.png,I,m,641,4,3,1653.2000000029802,2662087.200000003,9015,NNB,A,3
4,test,2,0.0,1-Back,1.0,m,Thu Oct 16 2025 15:23:01 GMT-0400 (Eastern Daylight Time),2665390.0,041_y_m_n_a.png,I,m,621,5,3,1636.2999999970198,2663753.700000003,9015,NNB,A,4
5,test,2,0.0,1-Back,1.0,m,Thu Oct 16 2025 15:23:01 GMT-0400 (Eastern Daylight Time),2666907.0,063_y_f_n_a.png,I,m,493,6,3,1504.7000000029802,2665402.299999997,9015,NNB,A,5
6,test,2,1.0,1-Back,1.0,z,Thu Oct 16 2025 15:23:01 GMT-0400 (Eastern Daylight Time),2668406.700000003,063_y_f_n_a.png,I,z,479,7,3,1486.5,2666920.200000003,9015,NNB,A,6
7,test,2,0.0,1-Back,1.0,m,Thu Oct 16 2025 15:23:01 GMT-0400 (Eastern Daylight Time),2670006.900000006,041_y_m_n_a.png,I,m,580,8,3,1590.0,2668416.900000006,9015,NNB,A,7
8,test,2,0.0,1-Back,1.0,m,Thu Oct 16 2025 15:23:01 GMT-0400 (Eastern Daylight Time),2671590.0,044_o_f_n_a.png,I,m,547,9,3,1568.7000000029802,2670021.299999997,9015,NNB,A,8
9,test,2,0.0,1-Back,1.0,m,Thu Oct 16 2025 15:23:01 GMT-0400 (Eastern Daylight Time),2673140.400000006,045_m_m_n_a.png,I,m,516,10,3,1537.300000011921,2671603.099999994,9015,NNB,A,9
10,test,2,1.0,1-Back,1.0,z,Thu Oct 16 2025 15:23:01 GMT-0400 (Eastern Daylight Time),2674673.700000003,045_m_m_n_a.png,I,z,502,11,3,1518.7000000029802,2673155.0,9015,NNB,A,10
11,test,2,0.0,1-Back,1.0,m,Thu Oct 16 2025 15:23:01 GMT-0400 (Eastern Daylight Time),2676506.599999994,044_o_f_n_a.png,I,m,808,12,3,1818.2999999970198,2674688.299999997,9015,NNB,A,11
12,test,2,0.0,1-Back,1.0,m,Thu Oct 16 2025 15:23:01 GMT-0400 (Eastern Daylight Time),2678040.400000006,047_o_f_n_a.png,I,m,512,13,3,1523.1000000089407,2676517.299999997,9015,NNB,A,12
13,test,2,0.0,1-Back,1.0,m,Thu Oct 16 2025 15:23:01 GMT-0400 (Eastern Daylight Time),2679690.400000006,053_o_m_n_a.png,I,m,626,14,3,1635.9000000059605,2678054.5,9015,NNB,A,13
14,test,2,0.0,1-Back,1.0,m,Thu Oct 16 2025 15:23:01 GMT-0400 (Eastern Daylight Time),2681273.599999994,046_o_m_n_a.png,I,m,560,15,3,1569.3999999910593,2679704.200000003,9015,NNB,A,14
15,test,2,1.0,1-Back,1.0,z,Thu Oct 16 2025 15:23:01 GMT-0400 (Eastern Daylight Time),2682756.799999997,046_o_m_n_a.png,I,z,465,16,3,1469.3999999910593,2681287.400000006,9015,NNB,A,15
16,test,2,0.0,1-Back,1.0,m,Thu Oct 16 2025 15:23:01 GMT-0400 (Eastern Daylight Time),2684323.700000003,008_y_m_n_a.png,I,m,534,17,3,1553.6000000089407,2682770.099999994,9015,NNB,A,16
17,test,2,1.0,1-Back,1.0,z,Thu Oct 16 2025 15:23:01 GMT-0400 (Eastern Daylight Time),2685840.200000003,008_y_m_n_a.png,I,z,487,18,3,1503.1000000089407,2684337.099999994,9015,NNB,A,17
0,test,3,1.0,1-Back,,,Thu Oct 16 2025 15:23:01 GMT-0400 (Eastern Daylight Time),2685840.200000003,010_y_f_n_a.png,I,space,4090,1,3,1503.1000000089407,2684337.099999994,9015,NNB,A,0
1,test,3,0.0,1-Back,1.0,m,Thu Oct 16 2025 15:23:01 GMT-0400 (Eastern Daylight Time),2693689.700000003,046_o_m_n_a.png,I,m,625,2,3,1635.2999999970198,2692054.400000006,9015,NNB,A,1
2,test,3,1.0,1-Back,1.0,z,Thu Oct 16 2025 15:23:01 GMT-0400 (Eastern Daylight Time),2695356.799999997,046_o_m_n_a.png,I,z,641,3,3,1657.0999999940395,2693699.700000003,9015,NNB,A,2
3,test,3,0.0,1-Back,1.0,m,Thu Oct 16 2025 15:23:01 GMT-0400 (Eastern Daylight Time),2697056.900000006,050_m_f_n_a.png,I,m,670,4,3,1686.800000011921,2695370.099999994,9015,NNB,A,3
4,test,3,1.0,1-Back,1.0,z,Thu Oct 16 2025 15:23:01 GMT-0400 (Eastern Daylight Time),2698606.900000006,050_m_f_n_a.png,I,z,522,5,3,1534.4000000059605,2697072.5,9015,NNB,A,4
5,test,3,0.0,1-Back,1.0,m,Thu Oct 16 2025 15:23:01 GMT-0400 (Eastern Daylight Time),2700157.0,044_o_f_n_a.png,I,m,524,6,3,1536.5999999940395,2698620.400000006,9015,NNB,A,5
6,test,3,0.0,1-Back,1.0,m,Thu Oct 16 2025 15:23:01 GMT-0400 (Eastern Daylight Time),2701657.0,041_y_m_n_a.png,I,m,478,7,3,1485.7999999970198,2700171.200000003,9015,NNB,A,6
7,test,3,0.0,1-Back,1.0,m,Thu Oct 16 2025 15:23:01 GMT-0400 (Eastern Daylight Time),2703190.0,044_o_f_n_a.png,I,m,514,8,3,1519.7000000029802,2701670.299999997,9015,NNB,A,7
8,test,3,0.0,1-Back,1.0,m,Thu Oct 16 2025 15:23:01 GMT-0400 (Eastern Daylight Time),2704740.400000006,008_y_m_n_a.png,I,m,516,9,3,1535.9000000059605,2703204.5,9015,NNB,A,8
9,test,3,1.0,1-Back,1.0,z,Thu Oct 16 2025 15:23:01 GMT-0400 (Eastern Daylight Time),2706173.5,008_y_m_n_a.png,I,z,406,10,3,1420.5999999940395,2704752.900000006,9015,NNB,A,9
10,test,3,0.0,1-Back,1.0,m,Thu Oct 16 2025 15:23:01 GMT-0400 (Eastern Daylight Time),2707707.0,043_m_f_n_a.png,I,m,492,11,3,1517.0,2706190.0,9015,NNB,A,10
11,test,3,0.0,1-Back,1.0,m,Thu Oct 16 2025 15:23:01 GMT-0400 (Eastern Daylight Time),2709173.400000006,063_y_f_n_a.png,I,m,448,12,3,1451.7000000029802,2707721.700000003,9015,NNB,A,11
12,test,3,1.0,1-Back,1.0,z,Thu Oct 16 2025 15:23:01 GMT-0400 (Eastern Daylight Time),2710623.700000003,063_y_f_n_a.png,I,z,421,13,3,1437.2999999970198,2709186.400000006,9015,NNB,A,12
13,test,3,0.0,1-Back,1.0,m,Thu Oct 16 2025 15:23:01 GMT-0400 (Eastern Daylight Time),2712140.400000006,043_m_f_n_a.png,I,m,474,14,3,1500.0,2710640.400000006,9015,NNB,A,13
14,test,3,0.0,1-Back,1.0,m,Thu Oct 16 2025 15:23:01 GMT-0400 (Eastern Daylight Time),2713623.599999994,058_m_m_n_a.png,I,m,462,15,3,1470.5,2712153.099999994,9015,NNB,A,14
15,test,3,1.0,1-Back,1.0,z,Thu Oct 16 2025 15:23:01 GMT-0400 (Eastern Daylight Time),2715007.099999994,058_m_m_n_a.png,I,z,355,16,3,1369.5,2713637.599999994,9015,NNB,A,15
16,test,3,0.0,1-Back,1.0,m,Thu Oct 16 2025 15:23:01 GMT-0400 (Eastern Daylight Time),2716623.599999994,047_o_f_n_a.png,I,m,571,17,3,1601.199999988079,2715022.400000006,9015,NNB,A,16
17,test,3,1.0,1-Back,1.0,z,Thu Oct 16 2025 15:23:01 GMT-0400 (Eastern Daylight Time),2718073.299999997,047_o_f_n_a.png,I,z,427,18,3,1435.5,2716637.799999997,9015,NNB,A,17
0,test,4,1.0,1-Back,,,Thu Oct 16 2025 15:23:01 GMT-0400 (Eastern Daylight Time),2718073.299999997,050_m_f_n_a.png,I,space,2618,1,3,1435.5,2716637.799999997,9015,NNB,A,0
1,test,4,0.0,1-Back,1.0,m,Thu Oct 16 2025 15:23:01 GMT-0400 (Eastern Daylight Time),2724340.299999997,046_o_m_n_a.png,I,m,584,2,3,1602.5999999940395,2722737.700000003,9015,NNB,A,1
2,test,4,0.0,1-Back,1.0,m,Thu Oct 16 2025 15:23:01 GMT-0400 (Eastern Daylight Time),2725890.400000006,050_m_f_n_a.png,I,m,518,3,3,1535.800000011921,2724354.599999994,9015,NNB,A,2
3,test,4,0.0,1-Back,1.0,m,Thu Oct 16 2025 15:23:01 GMT-0400 (Eastern Daylight Time),2727440.400000006,044_o_f_n_a.png,I,m,520,4,3,1536.6000000089407,2725903.799999997,9015,NNB,A,3
4,test,4,1.0,1-Back,1.0,z,Thu Oct 16 2025 15:23:01 GMT-0400 (Eastern Daylight Time),2728840.299999997,044_o_f_n_a.png,I,z,378,5,3,1386.0999999940395,2727454.200000003,9015,NNB,A,4
5,test,4,0.0,1-Back,1.0,m,Thu Oct 16 2025 15:23:01 GMT-0400 (Eastern Daylight Time),2730339.5,063_y_f_n_a.png,I,m,466,6,3,1484.9000000059605,2728854.599999994,9015,NNB,A,5
6,test,4,0.0,1-Back,1.0,m,Thu Oct 16 2025 15:23:01 GMT-0400 (Eastern Daylight Time),2731873.700000003,041_y_m_n_a.png,I,m,502,7,3,1522.9000000059605,2730350.799999997,9015,NNB,A,6
7,test,4,1.0,1-Back,1.0,z,Thu Oct 16 2025 15:23:01 GMT-0400 (Eastern Daylight Time),2733407.0,041_y_m_n_a.png,I,z,505,8,3,1520.2000000029802,2731886.799999997,9015,NNB,A,7
8,test,4,0.0,1-Back,1.0,m,Thu Oct 16 2025 15:23:01 GMT-0400 (Eastern Daylight Time),2734940.299999997,063_y_f_n_a.png,I,m,507,9,3,1518.7999999970198,2733421.5,9015,NNB,A,8
9,test,4,0.0,1-Back,1.0,m,Thu Oct 16 2025 15:23:01 GMT-0400 (Eastern Daylight Time),2736473.599999994,045_m_m_n_a.png,I,m,510,10,3,1518.5,2734955.099999994,9015,NNB,A,9
10,test,4,1.0,1-Back,1.0,z,Thu Oct 16 2025 15:23:01 GMT-0400 (Eastern Daylight Time),2737939.900000006,045_m_m_n_a.png,I,z,433,11,3,1452.7000000029802,2736487.200000003,9015,NNB,A,10
11,test,4,0.0,1-Back,1.0,m,Thu Oct 16 2025 15:23:01 GMT-0400 (Eastern Daylight Time),2739506.900000006,047_o_f_n_a.png,I,m,534,12,3,1556.300000011921,2737950.599999994,9015,NNB,A,11
12,test,4,0.0,1-Back,1.0,m,Thu Oct 16 2025 15:23:01 GMT-0400 (Eastern Daylight Time),2741040.299999997,053_o_m_n_a.png,I,m,504,13,3,1520.5,2739519.799999997,9015,NNB,A,12
13,test,4,0.0,1-Back,1.0,m,Thu Oct 16 2025 15:23:01 GMT-0400 (Eastern Daylight Time),2742523.599999994,047_o_f_n_a.png,I,m,458,14,3,1468.8999999910593,2741054.700000003,9015,NNB,A,13
13,test,4,0.0,1-Back,0.0,m,Thu Oct 16 2025 15:23:01 GMT-0400 (Eastern Daylight Time),2745557.200000003,010_y_f_n_a.png,I,None,2016,15,3,3020.0,2742537.200000003,9015,NNB,A,14
14,test,4,1.0,1-Back,1.0,z,Thu Oct 16 2025 15:23:01 GMT-0400 (Eastern Daylight Time),2747289.900000006,010_y_f_n_a.png,I,z,710,16,3,1719.1000000089407,2745570.799999997,9015,NNB,A,15
15,test,4,0.0,1-Back,1.0,m,Thu Oct 16 2025 15:23:01 GMT-0400 (Eastern Daylight Time),2749107.0,043_m_f_n_a.png,I,m,785,17,3,1804.0999999940395,2747302.900000006,9015,NNB,A,16
16,test,4,1.0,1-Back,1.0,z,Thu Oct 16 2025 15:23:01 GMT-0400 (Eastern Daylight Time),2750890.299999997,043_m_f_n_a.png,I,z,760,18,3,1770.3999999910593,2749119.900000006,9015,NNB,A,17
0,test,5,1.0,1-Back,,,Thu Oct 16 2025 15:23:01 GMT-0400 (Eastern Daylight Time),2750890.299999997,053_o_m_n_a.png,I,space,4656,1,3,1770.3999999910593,2749119.900000006,9015,NNB,A,0
1,test,5,1.0,1-Back,1.0,z,Thu Oct 16 2025 15:23:01 GMT-0400 (Eastern Daylight Time),2759107.0,053_o_m_n_a.png,I,z,500,2,3,1519.9000000059605,2757587.099999994,9015,NNB,A,1
2,test,5,0.0,1-Back,1.0,m,Thu Oct 16 2025 15:23:01 GMT-0400 (Eastern Daylight Time),2760740.400000006,063_y_f_n_a.png,I,m,616,3,3,1619.5,2759120.900000006,9015,NNB,A,2
3,test,5,0.0,1-Back,1.0,m,Thu Oct 16 2025 15:23:01 GMT-0400 (Eastern Daylight Time),2762273.5,041_y_m_n_a.png,I,m,502,4,3,1520.0999999940395,2760753.400000006,9015,NNB,A,3
4,test,5,0.0,1-Back,1.0,m,Thu Oct 16 2025 15:23:01 GMT-0400 (Eastern Daylight Time),2763740.299999997,063_y_f_n_a.png,I,m,441,5,3,1453.0,2762287.299999997,9015,NNB,A,4
5,test,5,0.0,1-Back,1.0,m,Thu Oct 16 2025 15:23:01 GMT-0400 (Eastern Daylight Time),2765323.599999994,058_m_m_n_a.png,I,m,558,6,3,1570.0,2763753.599999994,9015,NNB,A,5
6,test,5,1.0,1-Back,1.0,z,Thu Oct 16 2025 15:23:01 GMT-0400 (Eastern Daylight Time),2766740.5,058_m_m_n_a.png,I,z,399,7,3,1403.7000000029802,2765336.799999997,9015,NNB,A,6
7,test,5,0.0,1-Back,1.0,m,Thu Oct 16 2025 15:23:01 GMT-0400 (Eastern Daylight Time),2768190.299999997,010_y_f_n_a.png,I,m,422,8,3,1437.3999999910593,2766752.900000006,9015,NNB,A,7
8,test,5,0.0,1-Back,1.0,m,Thu Oct 16 2025 15:23:01 GMT-0400 (Eastern Daylight Time),2769740.299999997,008_y_m_n_a.png,I,m,525,9,3,1535.3999999910593,2768204.900000006,9015,NNB,A,8
9,test,5,0.0,1-Back,1.0,m,Thu Oct 16 2025 15:23:01 GMT-0400 (Eastern Daylight Time),2771290.299999997,010_y_f_n_a.png,I,m,526,10,3,1536.3999999910593,2769753.900000006,9015,NNB,A,9
10,test,5,0.0,1-Back,1.0,m,Thu Oct 16 2025 15:23:01 GMT-0400 (Eastern Daylight Time),2772806.599999994,047_o_f_n_a.png,I,m,497,11,3,1502.8999999910593,2771303.700000003,9015,NNB,A,10
11,test,5,1.0,1-Back,1.0,z,Thu Oct 16 2025 15:23:01 GMT-0400 (Eastern Daylight Time),2774456.799999997,047_o_f_n_a.png,I,z,628,12,3,1633.8999999910593,2772822.900000006,9015,NNB,A,11
12,test,5,0.0,1-Back,1.0,m,Thu Oct 16 2025 15:23:01 GMT-0400 (Eastern Daylight Time),2775990.0,046_o_m_n_a.png,I,m,514,13,3,1519.7999999970198,2774470.200000003,9015,NNB,A,12
13,test,5,0.0,1-Back,1.0,m,Thu Oct 16 2025 15:23:01 GMT-0400 (Eastern Daylight Time),2777540.099999994,050_m_f_n_a.png,I,m,516,14,3,1535.5999999940395,2776004.5,9015,NNB,A,13
14,test,5,1.0,1-Back,1.0,z,Thu Oct 16 2025 15:23:01 GMT-0400 (Eastern Daylight Time),2778940.200000003,050_m_f_n_a.png,I,z,374,15,3,1386.1000000089407,2777554.099999994,9015,NNB,A,14
15,test,5,0.0,1-Back,1.0,m,Thu Oct 16 2025 15:23:01 GMT-0400 (Eastern Daylight Time),2780640.099999994,046_o_m_n_a.png,I,m,671,16,3,1685.699999988079,2778954.400000006,9015,NNB,A,15
16,test,5,0.0,1-Back,1.0,m,Thu Oct 16 2025 15:23:01 GMT-0400 (Eastern Daylight Time),2782189.799999997,043_m_f_n_a.png,I,m,522,17,3,1536.5999999940395,2780653.200000003,9015,NNB,A,16
17,test,5,0.0,1-Back,1.0,m,Thu Oct 16 2025 15:23:01 GMT-0400 (Eastern Daylight Time),2783790.299999997,045_m_m_n_a.png,I,m,572,18,3,1587.2999999970198,2782203.0,9015,NNB,A,17
0,prac,1,0.0,2-Back,,,Thu Oct 16 2025 15:23:01 GMT-0400 (Eastern Daylight Time),2783790.299999997,008_y_m_n_a.png,I,space,17988,1,3,1587.2999999970198,2782203.0,9015,NNB,A,0
0,prac,1,0.0,2-Back,,,Thu Oct 16 2025 15:23:01 GMT-0400 (Eastern Daylight Time),2783790.299999997,043_m_f_n_a.png,I,space,17988,2,3,1587.2999999970198,2782203.0,9015,NNB,A,0
1,prac,1,1.0,2-Back,1.0,m,Thu Oct 16 2025 15:23:01 GMT-0400 (Eastern Daylight Time),2929207.099999994,046_o_m_n_a.png,I,m,1165,3,3,1981.0,2927226.099999994,9015,NNB,A,1
2,prac,1,0.0,2-Back,1.0,m,Thu Oct 16 2025 15:23:01 GMT-0400 (Eastern Daylight Time),2931239.400000006,047_o_f_n_a.png,I,m,1151,4,3,2015.7000000029802,2929223.700000003,9015,NNB,A,2
3,prac,1,0.0,2-Back,1.0,z,Thu Oct 16 2025 15:23:01 GMT-0400 (Eastern Daylight Time),2933157.099999994,046_o_m_n_a.png,I,z,1134,5,3,1903.3999999910593,2931253.700000003,9015,NNB,A,3
3,prac,1,1.0,2-Back,0.0,z,Thu Oct 16 2025 15:23:01 GMT-0400 (Eastern Daylight Time),2935090.200000003,047_o_f_n_a.png,I,m,1150,6,3,1917.4000000059605,2933172.799999997,9015,NNB,A,4
4,prac,1,0.0,2-Back,1.0,m,Thu Oct 16 2025 15:23:01 GMT-0400 (Eastern Daylight Time),2936923.599999994,045_m_m_n_a.png,I,m,988,7,3,1815.8999999910593,2935107.700000003,9015,NNB,A,5
5,prac,1,0.0,2-Back,1.0,m,Thu Oct 16 2025 15:23:01 GMT-0400 (Eastern Daylight Time),2938606.900000006,053_o_m_n_a.png,I,m,848,8,3,1667.300000011921,2936939.599999994,9015,NNB,A,6
6,prac,1,0.0,2-Back,1.0,m,Thu Oct 16 2025 15:23:01 GMT-0400 (Eastern Daylight Time),2940373.200000003,010_y_f_n_a.png,I,m,898,9,3,1749.9000000059605,2938623.299999997,9015,NNB,A,7
6,prac,1,1.0,2-Back,0.0,z,Thu Oct 16 2025 15:23:01 GMT-0400 (Eastern Daylight Time),2941906.599999994,053_o_m_n_a.png,I,m,749,10,3,1516.0,2940390.599999994,9015,NNB,A,8
7,prac,1,0.0,2-Back,1.0,m,Thu Oct 16 2025 15:23:01 GMT-0400 (Eastern Daylight Time),2943690.200000003,063_y_f_n_a.png,I,m,940,11,3,1766.7000000029802,2941923.5,9015,NNB,A,9
7,prac,1,0.0,2-Back,0.0,m,Thu Oct 16 2025 15:23:01 GMT-0400 (Eastern Daylight Time),2945506.900000006,045_m_m_n_a.png,I,z,1034,12,3,1801.800000011921,2943705.099999994,9015,NNB,A,10
0,test,1,0.0,2-Back,,,Thu Oct 16 2025 15:23:01 GMT-0400 (Eastern Daylight Time),2945506.900000006,041_y_m_n_a.png,I,space,14600,1,3,1801.800000011921,2943705.099999994,9015,NNB,A,0
0,test,1,0.0,2-Back,,,Thu Oct 16 2025 15:23:01 GMT-0400 (Eastern Daylight Time),2945506.900000006,041_y_m_n_a.png,I,space,14600,2,3,1801.800000011921,2943705.099999994,9015,NNB,A,0
1,test,1,0.0,2-Back,1.0,m,Thu Oct 16 2025 15:23:01 GMT-0400 (Eastern Daylight Time),2982306.900000006,047_o_f_n_a.png,I,m,935,3,3,1969.2000000029802,2980337.700000003,9015,NNB,A,1
2,test,1,0.0,2-Back,1.0,m,Thu Oct 16 2025 15:23:01 GMT-0400 (Eastern Daylight Time),2984306.799999997,058_m_m_n_a.png,I,m,950,4,3,1983.7999999970198,2982323.0,9015,NNB,A,2
3,test,1,1.0,2-Back,1.0,z,Thu Oct 16 2025 15:23:01 GMT-0400 (Eastern Daylight Time),2986173.5,047_o_f_n_a.png,I,z,822,5,3,1852.2000000029802,2984321.299999997,9015,NNB,A,3
4,test,1,0.0,2-Back,1.0,m,Thu Oct 16 2025 15:23:01 GMT-0400 (Eastern Daylight Time),2988156.799999997,063_y_f_n_a.png,I,m,957,6,3,1968.2000000029802,2986188.599999994,9015,NNB,A,4
4,test,1,0.0,2-Back,0.0,m,Thu Oct 16 2025 15:23:01 GMT-0400 (Eastern Daylight Time),2990406.5,058_m_m_n_a.png,I,z,1212,7,3,2231.9000000059605,2988174.599999994,9015,NNB,A,5
4,test,1,1.0,2-Back,0.0,z,Thu Oct 16 2025 15:23:01 GMT-0400 (Eastern Daylight Time),2992956.299999997,063_y_f_n_a.png,I,m,1523,8,3,2536.2999999970198,2990420.0,9015,NNB,A,6
5,test,1,0.0,2-Back,1.0,m,Thu Oct 16 2025 15:23:01 GMT-0400 (Eastern Daylight Time),2994940.099999994,008_y_m_n_a.png,I,m,959,9,3,1972.699999988079,2992967.400000006,9015,NNB,A,7
6,test,1,0.0,2-Back,1.0,m,Thu Oct 16 2025 15:23:01 GMT-0400 (Eastern Daylight Time),2996689.900000006,044_o_f_n_a.png,I,m,719,10,3,1734.4000000059605,2994955.5,9015,NNB,A,8
7,test,1,1.0,2-Back,1.0,z,Thu Oct 16 2025 15:23:01 GMT-0400 (Eastern Daylight Time),2998440.099999994,008_y_m_n_a.png,I,z,729,11,3,1736.3999999910593,2996703.700000003,9015,NNB,A,9
8,test,1,0.0,2-Back,1.0,m,Thu Oct 16 2025 15:23:01 GMT-0400 (Eastern Daylight Time),3000223.5,043_m_f_n_a.png,I,m,755,12,3,1767.9000000059605,2998455.599999994,9015,NNB,A,10
9,test,1,0.0,2-Back,1.0,m,Thu Oct 16 2025 15:23:01 GMT-0400 (Eastern Daylight Time),3002323.400000006,043_m_f_n_a.png,I,m,1067,13,3,2085.800000011921,3000237.599999994,9015,NNB,A,11
10,test,1,0.0,2-Back,1.0,m,Thu Oct 16 2025 15:23:01 GMT-0400 (Eastern Daylight Time),3004540.099999994,046_o_m_n_a.png,I,m,1174,14,3,2202.3999999910593,3002337.700000003,9015,NNB,A,12
10,test,1,0.0,2-Back,0.0,m,Thu Oct 16 2025 15:23:01 GMT-0400 (Eastern Daylight Time),3006573.400000006,044_o_f_n_a.png,I,z,1007,15,3,2018.2000000029802,3004555.200000003,9015,NNB,A,13
11,test,1,1.0,2-Back,1.0,z,Thu Oct 16 2025 15:23:01 GMT-0400 (Eastern Daylight Time),3009139.5,046_o_m_n_a.png,I,z,1532,16,3,2550.7999999970198,3006588.700000003,9015,NNB,A,14
12,test,1,0.0,2-Back,1.0,m,Thu Oct 16 2025 15:23:01 GMT-0400 (Eastern Daylight Time),3010623.799999997,050_m_f_n_a.png,I,m,455,17,3,1473.2000000029802,3009150.599999994,9015,NNB,A,15
13,test,1,0.0,2-Back,1.0,m,Thu Oct 16 2025 15:23:01 GMT-0400 (Eastern Daylight Time),3012573.400000006,045_m_m_n_a.png,I,m,923,18,3,1937.2000000029802,3010636.200000003,9015,NNB,A,16
0,test,2,0.0,2-Back,,,Thu Oct 16 2025 15:23:01 GMT-0400 (Eastern Daylight Time),3012573.400000006,045_m_m_n_a.png,I,space,3381,1,3,1937.2000000029802,3010636.200000003,9015,NNB,A,0
0,test,2,0.0,2-Back,,,Thu Oct 16 2025 15:23:01 GMT-0400 (Eastern Daylight Time),3012573.400000006,010_y_f_n_a.png,I,space,3381,2,3,1937.2000000029802,3010636.200000003,9015,NNB,A,0
1,test,2,1.0,2-Back,1.0,z,Thu Oct 16 2025 15:23:01 GMT-0400 (Eastern Daylight Time),3022890.099999994,045_m_m_n_a.png,I,z,760,3,3,1768.2999999970198,3021121.799999997,9015,NNB,A,1
2,test,2,0.0,2-Back,1.0,m,Thu Oct 16 2025 15:23:01 GMT-0400 (Eastern Daylight Time),3024806.700000003,050_m_f_n_a.png,I,m,897,4,3,1902.0,3022904.700000003,9015,NNB,A,2
3,test,2,0.0,2-Back,1.0,m,Thu Oct 16 2025 15:23:01 GMT-0400 (Eastern Daylight Time),3026772.599999994,010_y_f_n_a.png,I,m,948,5,3,1951.3999999910593,3024821.200000003,9015,NNB,A,3
4,test,2,0.0,2-Back,1.0,m,Thu Oct 16 2025 15:23:01 GMT-0400 (Eastern Daylight Time),3028739.700000003,046_o_m_n_a.png,I,m,933,6,3,1954.9000000059605,3026784.799999997,9015,NNB,A,4
4,test,2,0.0,2-Back,0.0,m,Thu Oct 16 2025 15:23:01 GMT-0400 (Eastern Daylight Time),3030906.700000003,063_y_f_n_a.png,I,z,1143,7,3,2152.6000000089407,3028754.099999994,9015,NNB,A,5
4,test,2,1.0,2-Back,0.0,z,Thu Oct 16 2025 15:23:01 GMT-0400 (Eastern Daylight Time),3033573.0,046_o_m_n_a.png,I,m,1648,8,3,2651.5999999940395,3030921.400000006,9015,NNB,A,6
5,test,2,0.0,2-Back,1.0,m,Thu Oct 16 2025 15:23:01 GMT-0400 (Eastern Daylight Time),3036373.200000003,008_y_m_n_a.png,I,m,1781,9,3,2786.5,3033586.700000003,9015,NNB,A,7
6,test,2,0.0,2-Back,1.0,m,Thu Oct 16 2025 15:23:01 GMT-0400 (Eastern Daylight Time),3038456.5,008_y_m_n_a.png,I,m,1044,10,3,2066.0,3036390.5,9015,NNB,A,8
7,test,2,0.0,2-Back,1.0,m,Thu Oct 16 2025 15:23:01 GMT-0400 (Eastern Daylight Time),3040156.700000003,043_m_f_n_a.png,I,m,674,11,3,1686.2999999970198,3038470.400000006,9015,NNB,A,9
8,test,2,0.0,2-Back,1.0,m,Thu Oct 16 2025 15:23:01 GMT-0400 (Eastern Daylight Time),3042090.099999994,010_y_f_n_a.png,I,m,893,12,3,1915.5,3040174.599999994,9015,NNB,A,10
9,test,2,1.0,2-Back,1.0,z,Thu Oct 16 2025 15:23:01 GMT-0400 (Eastern Daylight Time),3043840.0,043_m_f_n_a.png,I,z,721,13,3,1736.0999999940395,3042103.900000006,9015,NNB,A,11
10,test,2,0.0,2-Back,1.0,m,Thu Oct 16 2025 15:23:01 GMT-0400 (Eastern Daylight Time),3045539.599999994,053_o_m_n_a.png,I,m,682,14,3,1684.0999999940395,3043855.5,9015,NNB,A,12
11,test,2,0.0,2-Back,1.0,m,Thu Oct 16 2025 15:23:01 GMT-0400 (Eastern Daylight Time),3047507.0,053_o_m_n_a.png,I,m,950,15,3,1953.0999999940395,3045553.900000006,9015,NNB,A,13
12,test,2,0.0,2-Back,1.0,m,Thu Oct 16 2025 15:23:01 GMT-0400 (Eastern Daylight Time),3049523.0,044_o_f_n_a.png,I,m,984,16,3,2005.4000000059605,3047517.599999994,9015,NNB,A,14
13,test,2,0.0,2-Back,1.0,m,Thu Oct 16 2025 15:23:01 GMT-0400 (Eastern Daylight Time),3051423.400000006,058_m_m_n_a.png,I,m,872,17,3,1885.800000011921,3049537.599999994,9015,NNB,A,15
14,test,2,1.0,2-Back,1.0,z,Thu Oct 16 2025 15:23:01 GMT-0400 (Eastern Daylight Time),3054090.0,044_o_f_n_a.png,I,z,1627,18,3,2648.9000000059605,3051441.099999994,9015,NNB,A,16
0,test,3,1.0,2-Back,,,Thu Oct 16 2025 15:23:01 GMT-0400 (Eastern Daylight Time),3054090.0,041_y_m_n_a.png,I,space,1080,1,3,2648.9000000059605,3051441.099999994,9015,NNB,A,0
0,test,3,1.0,2-Back,,,Thu Oct 16 2025 15:23:01 GMT-0400 (Eastern Daylight Time),3054090.0,041_y_m_n_a.png,I,space,1080,2,3,2648.9000000059605,3051441.099999994,9015,NNB,A,0
1,test,3,0.0,2-Back,1.0,m,Thu Oct 16 2025 15:23:01 GMT-0400 (Eastern Daylight Time),3062456.700000003,044_o_f_n_a.png,I,m,1161,3,3,2168.1000000089407,3060288.599999994,9015,NNB,A,1
1,test,3,0.0,2-Back,0.0,m,Thu Oct 16 2025 15:23:01 GMT-0400 (Eastern Daylight Time),3065490.400000006,045_m_m_n_a.png,I,None,2016,4,3,3019.4000000059605,3062471.0,9015,NNB,A,2
2,test,3,1.0,2-Back,1.0,z,Thu Oct 16 2025 15:23:01 GMT-0400 (Eastern Daylight Time),3066923.400000006,044_o_f_n_a.png,I,z,409,5,3,1418.300000011921,3065505.099999994,9015,NNB,A,3
3,test,3,0.0,2-Back,1.0,m,Thu Oct 16 2025 15:23:01 GMT-0400 (Eastern Daylight Time),3068756.200000003,008_y_m_n_a.png,I,m,798,6,3,1817.9000000059605,3066938.299999997,9015,NNB,A,4
4,test,3,0.0,2-Back,1.0,m,Thu Oct 16 2025 15:23:01 GMT-0400 (Eastern Daylight Time),3070823.200000003,045_m_m_n_a.png,I,m,1046,7,3,2055.6000000089407,3068767.599999994,9015,NNB,A,5
5,test,3,1.0,2-Back,1.0,z,Thu Oct 16 2025 15:23:01 GMT-0400 (Eastern Daylight Time),3072773.099999994,008_y_m_n_a.png,I,z,932,8,3,1935.699999988079,3070837.400000006,9015,NNB,A,6
6,test,3,0.0,2-Back,1.0,m,Thu Oct 16 2025 15:23:01 GMT-0400 (Eastern Daylight Time),3074506.700000003,010_y_f_n_a.png,I,m,708,9,3,1719.5,3072787.200000003,9015,NNB,A,7
7,test,3,0.0,2-Back,1.0,m,Thu Oct 16 2025 15:23:01 GMT-0400 (Eastern Daylight Time),3076340.0,058_m_m_n_a.png,I,m,800,10,3,1818.7000000029802,3074521.299999997,9015,NNB,A,8
8,test,3,1.0,2-Back,1.0,z,Thu Oct 16 2025 15:23:01 GMT-0400 (Eastern Daylight Time),3078523.299999997,010_y_f_n_a.png,I,z,1159,11,3,2168.2999999970198,3076355.0,9015,NNB,A,9
8,test,3,1.0,2-Back,0.0,z,Thu Oct 16 2025 15:23:01 GMT-0400 (Eastern Daylight Time),3081356.5,058_m_m_n_a.png,I,m,1807,12,3,2818.9000000059605,3078537.599999994,9015,NNB,A,10
9,test,3,0.0,2-Back,1.0,m,Thu Oct 16 2025 15:23:01 GMT-0400 (Eastern Daylight Time),3083273.299999997,044_o_f_n_a.png,I,m,894,13,3,1902.5999999940395,3081370.700000003,9015,NNB,A,11
10,test,3,0.0,2-Back,1.0,m,Thu Oct 16 2025 15:23:01 GMT-0400 (Eastern Daylight Time),3084973.099999994,050_m_f_n_a.png,I,m,672,14,3,1685.199999988079,3083287.900000006,9015,NNB,A,12
11,test,3,0.0,2-Back,1.0,m,Thu Oct 16 2025 15:23:01 GMT-0400 (Eastern Daylight Time),3086756.5,046_o_m_n_a.png,I,m,766,15,3,1771.0,3084985.5,9015,NNB,A,13
11,test,3,1.0,2-Back,0.0,z,Thu Oct 16 2025 15:23:01 GMT-0400 (Eastern Daylight Time),3088389.700000003,050_m_f_n_a.png,I,m,614,16,3,1619.9000000059605,3086769.799999997,9015,NNB,A,14
12,test,3,0.0,2-Back,1.0,m,Thu Oct 16 2025 15:23:01 GMT-0400 (Eastern Daylight Time),3090306.700000003,047_o_f_n_a.png,I,m,885,17,3,1902.2000000029802,3088404.5,9015,NNB,A,15
13,test,3,0.0,2-Back,1.0,m,Thu Oct 16 2025 15:23:01 GMT-0400 (Eastern Daylight Time),3092456.599999994,047_o_f_n_a.png,I,m,1111,18,3,2134.7999999970198,3090321.799999997,9015,NNB,A,16
0,test,4,0.0,2-Back,,,Thu Oct 16 2025 15:23:01 GMT-0400 (Eastern Daylight Time),3092456.599999994,053_o_m_n_a.png,I,space,906,1,3,2134.7999999970198,3090321.799999997,9015,NNB,A,0
0,test,4,0.0,2-Back,,,Thu Oct 16 2025 15:23:01 GMT-0400 (Eastern Daylight Time),3092456.599999994,063_y_f_n_a.png,I,space,906,2,3,2134.7999999970198,3090321.799999997,9015,NNB,A,0
1,test,4,1.0,2-Back,1.0,z,Thu Oct 16 2025 15:23:01 GMT-0400 (Eastern Daylight Time),3100306.599999994,053_o_m_n_a.png,I,z,752,3,3,1768.8999999910593,3098537.700000003,9015,NNB,A,1
2,test,4,1.0,2-Back,1.0,z,Thu Oct 16 2025 15:23:01 GMT-0400 (Eastern Daylight Time),3102656.700000003,063_y_f_n_a.png,I,z,1320,4,3,2335.1000000089407,3100321.599999994,9015,NNB,A,2
3,test,4,0.0,2-Back,1.0,m,Thu Oct 16 2025 15:23:01 GMT-0400 (Eastern Daylight Time),3104573.200000003,044_o_f_n_a.png,I,m,873,5,3,1900.6000000089407,3102672.599999994,9015,NNB,A,3
3,test,4,0.0,2-Back,0.0,m,Thu Oct 16 2025 15:23:01 GMT-0400 (Eastern Daylight Time),3107539.900000006,044_o_f_n_a.png,I,z,1933,6,3,2951.5,3104588.400000006,9015,NNB,A,4
4,test,4,0.0,2-Back,1.0,m,Thu Oct 16 2025 15:23:01 GMT-0400 (Eastern Daylight Time),3109290.0,043_m_f_n_a.png,I,m,711,7,3,1735.9000000059605,3107554.099999994,9015,NNB,A,5
5,test,4,0.0,2-Back,1.0,m,Thu Oct 16 2025 15:23:01 GMT-0400 (Eastern Daylight Time),3111473.299999997,008_y_m_n_a.png,I,m,1153,8,3,2168.3999999910593,3109304.900000006,9015,NNB,A,6
6,test,4,1.0,2-Back,1.0,z,Thu Oct 16 2025 15:23:01 GMT-0400 (Eastern Daylight Time),3113040.0,043_m_f_n_a.png,I,z,537,9,3,1552.5,3111487.5,9015,NNB,A,7
7,test,4,0.0,2-Back,1.0,m,Thu Oct 16 2025 15:23:01 GMT-0400 (Eastern Daylight Time),3114990.0,058_m_m_n_a.png,I,m,923,10,3,1935.5,3113054.5,9015,NNB,A,8
7,test,4,0.0,2-Back,0.0,m,Thu Oct 16 2025 15:23:01 GMT-0400 (Eastern Daylight Time),3116573.5,008_y_m_n_a.png,I,z,540,11,3,1569.0,3115004.5,9015,NNB,A,9
8,test,4,0.0,2-Back,1.0,m,Thu Oct 16 2025 15:23:01 GMT-0400 (Eastern Daylight Time),3118373.099999994,047_o_f_n_a.png,I,m,764,12,3,1784.0999999940395,3116589.0,9015,NNB,A,10
9,test,4,0.0,2-Back,1.0,m,Thu Oct 16 2025 15:23:01 GMT-0400 (Eastern Daylight Time),3120206.700000003,041_y_m_n_a.png,I,m,805,13,3,1818.9000000059605,3118387.799999997,9015,NNB,A,11
10,test,4,1.0,2-Back,1.0,z,Thu Oct 16 2025 15:23:01 GMT-0400 (Eastern Daylight Time),3122456.599999994,047_o_f_n_a.png,I,z,1211,14,3,2234.3999999910593,3120222.200000003,9015,NNB,A,12
11,test,4,1.0,2-Back,1.0,z,Thu Oct 16 2025 15:23:01 GMT-0400 (Eastern Daylight Time),3125456.700000003,041_y_m_n_a.png,I,z,1970,15,3,2984.6000000089407,3122472.099999994,9015,NNB,A,13
12,test,4,0.0,2-Back,1.0,m,Thu Oct 16 2025 15:23:01 GMT-0400 (Eastern Daylight Time),3127306.700000003,045_m_m_n_a.png,I,m,810,16,3,1834.6000000089407,3125472.099999994,9015,NNB,A,14
13,test,4,0.0,2-Back,1.0,m,Thu Oct 16 2025 15:23:01 GMT-0400 (Eastern Daylight Time),3129106.700000003,050_m_f_n_a.png,I,m,767,17,3,1785.0,3127321.700000003,9015,NNB,A,15
14,test,4,1.0,2-Back,1.0,z,Thu Oct 16 2025 15:23:01 GMT-0400 (Eastern Daylight Time),3130907.0,045_m_m_n_a.png,I,z,759,18,3,1783.9000000059605,3129123.099999994,9015,NNB,A,16
0,test,5,1.0,2-Back,,,Thu Oct 16 2025 15:23:01 GMT-0400 (Eastern Daylight Time),3130907.0,041_y_m_n_a.png,I,space,1128,1,3,1783.9000000059605,3129123.099999994,9015,NNB,A,0
0,test,5,1.0,2-Back,,,Thu Oct 16 2025 15:23:01 GMT-0400 (Eastern Daylight Time),3130907.0,050_m_f_n_a.png,I,space,1128,2,3,1783.9000000059605,3129123.099999994,9015,NNB,A,0
1,test,5,1.0,2-Back,1.0,z,Thu Oct 16 2025 15:23:01 GMT-0400 (Eastern Daylight Time),3138623.400000006,041_y_m_n_a.png,I,z,438,3,3,1467.9000000059605,3137155.5,9015,NNB,A,1
2,test,5,1.0,2-Back,1.0,z,Thu Oct 16 2025 15:23:01 GMT-0400 (Eastern Daylight Time),3140690.0,050_m_f_n_a.png,I,z,1035,4,3,2051.4000000059605,3138638.599999994,9015,NNB,A,2
3,test,5,0.0,2-Back,1.0,m,Thu Oct 16 2025 15:23:01 GMT-0400 (Eastern Daylight Time),3142489.900000006,047_o_f_n_a.png,I,m,777,5,3,1785.4000000059605,3140704.5,9015,NNB,A,3
3,test,5,0.0,2-Back,0.0,m,Thu Oct 16 2025 15:23:01 GMT-0400 (Eastern Daylight Time),3145373.400000006,041_y_m_n_a.png,I,z,1840,6,3,2867.5,3142505.900000006,9015,NNB,A,4
4,test,5,0.0,2-Back,1.0,m,Thu Oct 16 2025 15:23:01 GMT-0400 (Eastern Daylight Time),3147073.299999997,010_y_f_n_a.png,I,m,653,7,3,1684.0999999940395,3145389.200000003,9015,NNB,A,5
4,test,5,0.0,2-Back,0.0,m,Thu Oct 16 2025 15:23:01 GMT-0400 (Eastern Daylight Time),3149156.700000003,047_o_f_n_a.png,I,z,1050,8,3,2068.5,3147088.200000003,9015,NNB,A,6
4,test,5,1.0,2-Back,0.0,z,Thu Oct 16 2025 15:23:01 GMT-0400 (Eastern Daylight Time),3150856.5,010_y_f_n_a.png,I,m,678,9,3,1684.5999999940395,3149171.900000006,9015,NNB,A,7
5,test,5,0.0,2-Back,1.0,m,Thu Oct 16 2025 15:23:01 GMT-0400 (Eastern Daylight Time),3152540.0,046_o_m_n_a.png,I,m,641,10,3,1666.7999999970198,3150873.200000003,9015,NNB,A,8
6,test,5,0.0,2-Back,1.0,m,Thu Oct 16 2025 15:23:01 GMT-0400 (Eastern Daylight Time),3154623.299999997,043_m_f_n_a.png,I,m,1055,11,3,2068.7000000029802,3152554.599999994,9015,NNB,A,9
7,test,5,0.0,2-Back,1.0,m,Thu Oct 16 2025 15:23:01 GMT-0400 (Eastern Daylight Time),3156556.700000003,058_m_m_n_a.png,I,m,907,12,3,1918.5,3154638.200000003,9015,NNB,A,10
7,test,5,0.0,2-Back,0.0,m,Thu Oct 16 2025 15:23:01 GMT-0400 (Eastern Daylight Time),3158139.900000006,046_o_m_n_a.png,I,z,558,13,3,1568.1000000089407,3156571.799999997,9015,NNB,A,11
7,test,5,1.0,2-Back,0.0,z,Thu Oct 16 2025 15:23:01 GMT-0400 (Eastern Daylight Time),3159923.299999997,058_m_m_n_a.png,I,m,751,14,3,1769.5,3158153.799999997,9015,NNB,A,12
8,test,5,0.0,2-Back,1.0,m,Thu Oct 16 2025 15:23:01 GMT-0400 (Eastern Daylight Time),3161773.0,063_y_f_n_a.png,I,m,806,15,3,1835.4000000059605,3159937.599999994,9015,NNB,A,13
9,test,5,0.0,2-Back,1.0,m,Thu Oct 16 2025 15:23:01 GMT-0400 (Eastern Daylight Time),3163540.200000003,053_o_m_n_a.png,I,m,750,16,3,1755.5,3161784.700000003,9015,NNB,A,14
10,test,5,0.0,2-Back,1.0,m,Thu Oct 16 2025 15:23:01 GMT-0400 (Eastern Daylight Time),3165406.700000003,043_m_f_n_a.png,I,m,839,17,3,1851.1000000089407,3163555.599999994,9015,NNB,A,15
11,test,5,1.0,2-Back,1.0,z,Thu Oct 16 2025 15:23:01 GMT-0400 (Eastern Daylight Time),3167623.200000003,053_o_m_n_a.png,I,z,1196,18,3,2202.4000000059605,3165420.799999997,9015,NNB,A,16
