Q,Q1,Q2,Q3,Q4,acc_sum,block,block_c,correct,correct_response,datetime,endtime,project,response,response_time,row_sel,session_number,squiggle1,squiggle1x,squiggle1y,squiggle2,squiggle2x,squiggle2y,squiggle3,squiggle3x,squiggle3y,squiggle4,squiggle4x,squiggle4y,start_end,starttime,subject_id,target_congruent,task,task_vers,testsquiggle,testsquigglex,testsquiggley,time_practice_delay,time_practice_fixation,time_practice_stimuli,time_practice_study,time_test_delay,time_test_fixation,time_test_stimuli,time_test_study,trial
1,1,0,0,0,0,prac,1,0,z,Thu Dec 11 2025 16:58:20 GMT-0600 (Central Standard Time),156134.80000001192,O,None,2016,1,,16.bmp,-120,-120,17.bmp,120,-120,18.bmp,-120,120,19.bmp,120,120,10810.800000011921,145324.0,7717,yes,SM,B,16.bmp,-120,-120,148477,142450,150479,144462,,,,,1
3,0,0,1,0,1,prac,1,1,m,Thu Dec 11 2025 16:58:20 GMT-0600 (Central Standard Time),166330.10000002384,O,m,1389,2,,20.bmp,-120,-120,21.bmp,120,-120,22.bmp,-120,120,23.bmp,120,120,10191.100000023842,156139.0,7717,no,SM,B,23.bmp,-120,120,159290,153265,161291,155275,,,,,2
4,0,0,0,1,1,prac,1,0,m,Thu Dec 11 2025 16:58:20 GMT-0600 (Central Standard Time),177159.89999997616,O,None,2016,3,,24.bmp,-120,-120,25.bmp,120,-120,26.bmp,-120,120,27.bmp,120,120,10825.299999952316,166334.60000002384,7717,no,SM,B,24.bmp,120,120,169487,163461,171503,165472,,,,,3
2,0,1,0,0,1,prac,1,0,z,Thu Dec 11 2025 16:58:20 GMT-0600 (Central Standard Time),187972.69999998808,O,None,2014,4,,28.bmp,-120,-120,29.bmp,120,-120,30.bmp,-120,120,31.bmp,120,120,10803.699999988079,177169.0,7717,yes,SM,B,29.bmp,120,-120,180317,174295,182318,176304,,,,,4
3,0,0,1,0,2,prac,1,1,z,Thu Dec 11 2025 16:58:20 GMT-0600 (Central Standard Time),198104.89999997616,O,z,1341,5,,32.bmp,-120,-120,33.bmp,120,-120,34.bmp,-120,120,35.bmp,120,120,10128.099999964237,187976.80000001192,7717,yes,SM,B,34.bmp,-120,120,191130,185103,193131,187115,,,,,5
1,1,0,0,0,3,prac,1,1,m,Thu Dec 11 2025 16:58:20 GMT-0600 (Central Standard Time),208615.5,O,m,1700,6,,36.bmp,-120,-120,37.bmp,120,-120,38.bmp,-120,120,39.bmp,120,120,10507.699999988079,198107.80000001192,7717,no,SM,B,39.bmp,-120,-120,201260,195234,203276,197245,,,,,6
2,0,1,0,0,3,prac,1,0,m,Thu Dec 11 2025 16:58:20 GMT-0600 (Central Standard Time),219430.10000002384,O,None,2015,7,,40.bmp,-120,-120,41.bmp,120,-120,42.bmp,-120,120,43.bmp,120,120,10810.700000047684,208619.39999997616,7717,no,SM,B,40.bmp,120,-120,211773,205746,213774,207758,,,,,7
4,0,0,0,1,3,prac,1,0,z,Thu Dec 11 2025 16:58:20 GMT-0600 (Central Standard Time),229826.39999997616,O,m,1572,8,,44.bmp,-120,-120,45.bmp,120,-120,46.bmp,-120,120,47.bmp,120,120,10392.399999976158,219434.0,7717,yes,SM,B,47.bmp,120,120,222586,216560,224603,218573,,,,,8
1,1,0,0,0,0,prac,2,0,z,Thu Dec 11 2025 16:58:20 GMT-0600 (Central Standard Time),245254.89999997616,O,None,2017,1,,16.bmp,-120,-120,17.bmp,120,-120,18.bmp,-120,120,19.bmp,120,120,10826.299999952316,234428.60000002384,7717,yes,SM,B,16.bmp,-120,-120,237583,231555,239598,233568,,,,,1
3,0,0,1,0,1,prac,2,1,m,Thu Dec 11 2025 16:58:20 GMT-0600 (Central Standard Time),255817.69999998808,O,m,1748,2,,20.bmp,-120,-120,21.bmp,120,-120,22.bmp,-120,120,23.bmp,120,120,10559.099999964237,245258.60000002384,7717,no,SM,B,23.bmp,-120,120,248412,242385,250428,244397,,,,,2
4,0,0,0,1,2,prac,2,1,m,Thu Dec 11 2025 16:58:20 GMT-0600 (Central Standard Time),266498.8000000119,O,m,1854,3,,24.bmp,-120,-120,25.bmp,120,-120,26.bmp,-120,120,27.bmp,120,120,10674.800000011921,255824.0,7717,no,SM,B,24.bmp,120,120,258975,252950,260993,254960,,,,,3
2,0,1,0,0,2,prac,2,0,z,Thu Dec 11 2025 16:58:20 GMT-0600 (Central Standard Time),276993.6999999881,O,m,1672,4,,28.bmp,-120,-120,29.bmp,120,-120,30.bmp,-120,120,31.bmp,120,120,10487.5,266506.1999999881,7717,yes,SM,B,29.bmp,120,-120,269655,263632,271671,265640,,,,,4
3,0,0,1,0,3,prac,2,1,z,Thu Dec 11 2025 16:58:20 GMT-0600 (Central Standard Time),287574.6999999881,O,z,1751,5,,32.bmp,-120,-120,33.bmp,120,-120,34.bmp,-120,120,35.bmp,120,120,10577.599999964237,276997.10000002384,7717,yes,SM,B,34.bmp,-120,120,280154,274123,282168,276136,,,,,5
1,1,0,0,0,4,prac,2,1,m,Thu Dec 11 2025 16:58:20 GMT-0600 (Central Standard Time),298253.89999997616,O,m,1860,6,,36.bmp,-120,-120,37.bmp,120,-120,38.bmp,-120,120,39.bmp,120,120,10674.699999988079,287579.1999999881,7717,no,SM,B,39.bmp,-120,-120,290733,284705,292748,286716,,,,,6
2,0,1,0,0,5,prac,2,1,m,Thu Dec 11 2025 16:58:20 GMT-0600 (Central Standard Time),308899.0,O,m,1828,7,,40.bmp,-120,-120,41.bmp,120,-120,42.bmp,-120,120,43.bmp,120,120,10641.899999976158,298257.10000002384,7717,no,SM,B,40.bmp,120,-120,301412,295384,303428,297396,,,,,7
4,0,0,0,1,5,prac,2,0,z,Thu Dec 11 2025 16:58:20 GMT-0600 (Central Standard Time),319064.6999999881,O,m,1365,8,,44.bmp,-120,-120,45.bmp,120,-120,46.bmp,-120,120,47.bmp,120,120,10163.5,308901.1999999881,7717,yes,SM,B,47.bmp,120,120,312042,306027,314043,308028,,,,,8
4,0,0,0,1,1,test,1,1,m,Thu Dec 11 2025 16:58:20 GMT-0600 (Central Standard Time),340307.5,O,m,1350,1,,48.bmp,-120,-120,49.bmp,120,-120,50.bmp,-120,120,43.bmp,120,120,9394.399999976158,330913.10000002384,7717,yes,SM,B,50.bmp,120,120,312042,306027,314043,308028,334069.0,328039.0,336083.0,330055.0,1
2,0,1,0,0,2,test,1,1,m,Thu Dec 11 2025 16:58:20 GMT-0600 (Central Standard Time),349888.60000002384,O,m,1542,2,,1.bmp,-120,-120,2.bmp,120,-120,3.bmp,-120,120,4.bmp,120,120,9579.100000023842,340309.5,7717,yes,SM,B,3.bmp,120,-120,312042,306027,314043,308028,343465.0,337436.0,345466.0,339450.0,2
1,1,0,0,0,2,test,1,0,z,Thu Dec 11 2025 16:58:20 GMT-0600 (Central Standard Time),359934.8000000119,O,None,2014,3,,5.bmp,-120,-120,6.bmp,120,-120,7.bmp,-120,120,8.bmp,120,120,10042.800000011921,349892.0,7717,yes,SM,B,5.bmp,-120,-120,312042,306027,314043,308028,353045.0,347018.0,355047.0,349030.0,3
3,0,0,1,0,2,test,1,0,m,Thu Dec 11 2025 16:58:20 GMT-0600 (Central Standard Time),369998.8000000119,O,None,2016,4,,9.bmp,-120,-120,10.bmp,120,-120,11.bmp,-120,120,12.bmp,120,120,10061.600000023842,359937.1999999881,7717,yes,SM,B,9.bmp,-120,120,312042,306027,314043,308028,363093.0,357063.0,365109.0,359077.0,4
2,0,1,0,0,3,test,1,1,z,Thu Dec 11 2025 16:58:20 GMT-0600 (Central Standard Time),379544.1999999881,O,z,1496,5,,13.bmp,-120,-120,14.bmp,120,-120,15.bmp,-120,120,16.bmp,120,120,9540.0,370004.1999999881,7717,yes,SM,B,14.bmp,120,-120,312042,306027,314043,308028,373157.0,367131.0,375174.0,369140.0,5
3,0,0,1,0,4,test,1,1,z,Thu Dec 11 2025 16:58:20 GMT-0600 (Central Standard Time),389058.1999999881,O,z,1456,6,,17.bmp,-120,-120,18.bmp,120,-120,19.bmp,-120,120,20.bmp,120,120,9511.800000011921,379546.39999997616,7717,yes,SM,B,19.bmp,-120,120,312042,306027,314043,308028,382703.0,376672.0,384719.0,378687.0,6
4,0,0,0,1,5,test,1,1,z,Thu Dec 11 2025 16:58:20 GMT-0600 (Central Standard Time),399055.0,O,z,1943,7,,21.bmp,-120,-120,22.bmp,120,-120,23.bmp,-120,120,24.bmp,120,120,9990.800000011921,389064.1999999881,7717,yes,SM,B,24.bmp,120,120,312042,306027,314043,308028,392216.0,386190.0,394232.0,388201.0,7
2,0,1,0,0,6,test,1,1,m,Thu Dec 11 2025 16:58:20 GMT-0600 (Central Standard Time),408803.10000002384,O,m,1698,8,,25.bmp,-120,-120,26.bmp,120,-120,27.bmp,-120,120,28.bmp,120,120,9745.900000035763,399057.1999999881,7717,yes,SM,B,25.bmp,120,-120,312042,306027,314043,308028,402213.0,396183.0,404231.0,398201.0,8
3,0,0,1,0,7,test,1,1,m,Thu Dec 11 2025 16:58:20 GMT-0600 (Central Standard Time),417998.60000002384,O,m,1142,9,,29.bmp,-120,-120,30.bmp,120,-120,31.bmp,-120,120,32.bmp,120,120,9190.800000011921,408807.8000000119,7717,yes,SM,B,30.bmp,-120,120,312042,306027,314043,308028,411961.0,405934.0,413977.0,407945.0,9
4,0,0,0,1,7,test,1,0,z,Thu Dec 11 2025 16:58:20 GMT-0600 (Central Standard Time),428045.6999999881,O,None,2013,10,,37.bmp,-120,-120,38.bmp,120,-120,39.bmp,-120,120,40.bmp,120,120,10044.099999964237,418001.60000002384,7717,yes,SM,B,40.bmp,120,120,312042,306027,314043,308028,421157.0,415128.0,423159.0,417142.0,10
3,0,0,1,0,8,test,1,1,z,Thu Dec 11 2025 16:58:20 GMT-0600 (Central Standard Time),437909.0,O,z,1810,11,,33.bmp,-120,-120,34.bmp,120,-120,35.bmp,-120,120,36.bmp,120,120,9853.5,428055.5,7717,yes,SM,B,35.bmp,-120,120,312042,306027,314043,308028,431205.0,425182.0,433221.0,427189.0,11
2,0,1,0,0,9,test,1,1,m,Thu Dec 11 2025 16:58:20 GMT-0600 (Central Standard Time),447339.60000002384,O,m,1372,12,,41.bmp,-120,-120,42.bmp,120,-120,43.bmp,-120,120,44.bmp,120,120,9427.0,437912.60000002384,7717,yes,SM,B,41.bmp,120,-120,312042,306027,314043,308028,441068.0,435039.0,443083.0,437052.0,12
3,0,0,1,0,10,test,1,1,m,Thu Dec 11 2025 16:58:20 GMT-0600 (Central Standard Time),456704.39999997616,O,m,1309,13,,45.bmp,-120,-120,46.bmp,120,-120,47.bmp,-120,120,48.bmp,120,120,9361.299999952316,447343.10000002384,7717,yes,SM,B,46.bmp,-120,120,312042,306027,314043,308028,450497.0,444469.0,452514.0,446484.0,13
1,1,0,0,0,11,test,1,1,z,Thu Dec 11 2025 16:58:20 GMT-0600 (Central Standard Time),466366.8000000119,O,z,1601,14,,49.bmp,-120,-120,50.bmp,120,-120,4.bmp,-120,120,1.bmp,120,120,9659.100000023842,456707.6999999881,7717,yes,SM,B,49.bmp,-120,-120,312042,306027,314043,308028,459863.0,453834.0,461878.0,455846.0,14
4,0,0,0,1,11,test,1,0,m,Thu Dec 11 2025 16:58:20 GMT-0600 (Central Standard Time),476414.8000000119,O,None,2016,15,,10.bmp,-120,-120,11.bmp,120,-120,12.bmp,-120,120,13.bmp,120,120,10043.5,466371.3000000119,7717,yes,SM,B,11.bmp,120,120,312042,306027,314043,308028,469510.0,463497.0,471525.0,465509.0,15
1,1,0,0,0,11,test,1,0,m,Thu Dec 11 2025 16:58:20 GMT-0600 (Central Standard Time),485728.1999999881,O,z,1259,16,,2.bmp,-120,-120,3.bmp,120,-120,4.bmp,-120,120,5.bmp,120,120,9310.899999976158,476417.3000000119,7717,yes,SM,B,5.bmp,-120,-120,312042,306027,314043,308028,479572.0,473544.0,481588.0,475558.0,16
3,0,0,1,0,11,test,1,0,m,Thu Dec 11 2025 16:58:20 GMT-0600 (Central Standard Time),495424.5,O,z,1651,17,,22.bmp,-120,-120,23.bmp,120,-120,24.bmp,-120,120,25.bmp,120,120,9693.800000011921,485730.6999999881,7717,yes,SM,B,22.bmp,-120,120,312042,306027,314043,308028,488872.0,482857.0,490885.0,484870.0,17
1,1,0,0,0,11,test,1,0,z,Thu Dec 11 2025 16:58:20 GMT-0600 (Central Standard Time),505022.10000002384,O,m,1552,18,,6.bmp,-120,-120,7.bmp,120,-120,8.bmp,-120,120,9.bmp,120,120,9592.300000011921,495429.8000000119,7717,yes,SM,B,6.bmp,-120,-120,312042,306027,314043,308028,498582.0,492556.0,500583.0,494572.0,18
2,0,1,0,0,11,test,1,0,z,Thu Dec 11 2025 16:58:20 GMT-0600 (Central Standard Time),514902.3000000119,O,m,1844,19,,26.bmp,-120,-120,27.bmp,120,-120,28.bmp,-120,120,29.bmp,120,120,9871.600000023842,505030.6999999881,7717,yes,SM,B,27.bmp,120,-120,312042,306027,314043,308028,508165.0,502157.0,510179.0,504164.0,19
3,0,0,1,0,12,test,1,1,z,Thu Dec 11 2025 16:58:20 GMT-0600 (Central Standard Time),524382.1999999881,O,z,1444,20,,30.bmp,-120,-120,31.bmp,120,-120,32.bmp,-120,120,33.bmp,120,120,9474.099999964237,514908.10000002384,7717,yes,SM,B,32.bmp,-120,120,312042,306027,314043,308028,518049.0,512034.0,520059.0,514045.0,20
1,1,0,0,0,13,test,1,1,m,Thu Dec 11 2025 16:58:20 GMT-0600 (Central Standard Time),534161.6999999881,O,m,1723,21,,14.bmp,-120,-120,15.bmp,120,-120,16.bmp,-120,120,17.bmp,120,120,9775.699999988079,524386.0,7717,yes,SM,B,16.bmp,-120,-120,312042,306027,314043,308028,527541.0,521512.0,529556.0,523530.0,21
4,0,0,0,1,13,test,1,0,z,Thu Dec 11 2025 16:58:20 GMT-0600 (Central Standard Time),544224.1999999881,O,None,2014,22,,18.bmp,-120,-120,19.bmp,120,-120,20.bmp,-120,120,21.bmp,120,120,10058.300000011921,534165.8999999762,7717,yes,SM,B,21.bmp,120,120,312042,306027,314043,308028,537321.0,531292.0,539336.0,533305.0,22
1,1,0,0,0,14,test,1,1,m,Thu Dec 11 2025 16:58:20 GMT-0600 (Central Standard Time),553972.6000000238,O,m,1695,23,,34.bmp,-120,-120,35.bmp,120,-120,36.bmp,-120,120,37.bmp,120,120,9746.300000011921,544226.3000000119,7717,yes,SM,B,37.bmp,-120,-120,312042,306027,314043,308028,547385.0,541353.0,549400.0,543370.0,23
2,0,1,0,0,14,test,1,0,z,Thu Dec 11 2025 16:58:20 GMT-0600 (Central Standard Time),564036.6000000238,O,None,2016,24,,42.bmp,-120,-120,43.bmp,120,-120,44.bmp,-120,120,45.bmp,120,120,10060.100000023842,553976.5,7717,yes,SM,B,43.bmp,120,-120,312042,306027,314043,308028,557130.0,551103.0,559147.0,553117.0,24
4,0,0,0,1,14,test,1,0,m,Thu Dec 11 2025 16:58:20 GMT-0600 (Central Standard Time),573549.1000000238,O,z,1475,25,,46.bmp,-120,-120,47.bmp,120,-120,48.bmp,-120,120,49.bmp,120,120,9509.600000023842,564039.5,7717,yes,SM,B,48.bmp,120,120,312042,306027,314043,308028,567193.0,561166.0,569196.0,563178.0,25
1,1,0,0,0,14,test,1,0,z,Thu Dec 11 2025 16:58:20 GMT-0600 (Central Standard Time),583014.8999999762,O,m,1399,26,,38.bmp,-120,-120,39.bmp,120,-120,40.bmp,-120,120,41.bmp,120,120,9463.599999964237,573551.3000000119,7717,yes,SM,B,38.bmp,-120,-120,312042,306027,314043,308028,576707.0,570677.0,578724.0,572691.0,26
4,0,0,0,1,15,test,1,1,z,Thu Dec 11 2025 16:58:20 GMT-0600 (Central Standard Time),592909.5,O,z,1834,27,,50.bmp,-120,-120,11.bmp,120,-120,1.bmp,-120,120,2.bmp,120,120,9889.800000011921,583019.6999999881,7717,yes,SM,B,2.bmp,120,120,312042,306027,314043,308028,586172.0,580146.0,588188.0,582155.0,27
3,0,0,1,0,16,test,1,1,m,Thu Dec 11 2025 16:58:20 GMT-0600 (Central Standard Time),602690.3000000119,O,m,1715,28,,3.bmp,-120,-120,4.bmp,120,-120,5.bmp,-120,120,6.bmp,120,120,9777.800000011921,592912.5,7717,yes,SM,B,3.bmp,-120,120,312042,306027,314043,308028,596070.0,590039.0,598085.0,592053.0,28
2,0,1,0,0,17,test,1,1,z,Thu Dec 11 2025 16:58:20 GMT-0600 (Central Standard Time),612704.3999999762,O,z,1950,29,,7.bmp,-120,-120,8.bmp,120,-120,9.bmp,-120,120,10.bmp,120,120,10010.099999964237,602694.3000000119,7717,yes,SM,B,8.bmp,120,-120,312042,306027,314043,308028,605848.0,599821.0,607865.0,601835.0,29
3,0,0,1,0,17,test,1,0,z,Thu Dec 11 2025 16:58:20 GMT-0600 (Central Standard Time),622717.3000000119,O,m,1954,30,,11.bmp,-120,-120,12.bmp,120,-120,13.bmp,-120,120,14.bmp,120,120,10009.199999988079,612708.1000000238,7717,yes,SM,B,13.bmp,-120,120,312042,306027,314043,308028,615863.0,609834.0,617878.0,611847.0,30
1,1,0,0,0,18,test,1,1,z,Thu Dec 11 2025 16:58:20 GMT-0600 (Central Standard Time),632731.3000000119,O,z,1956,31,,15.bmp,-120,-120,16.bmp,120,-120,17.bmp,-120,120,18.bmp,120,120,10006.900000035763,622724.3999999762,7717,yes,SM,B,15.bmp,-120,-120,312042,306027,314043,308028,625875.0,619851.0,627892.0,621861.0,31
2,0,1,0,0,19,test,1,1,m,Thu Dec 11 2025 16:58:20 GMT-0600 (Central Standard Time),642627.8000000119,O,m,1847,32,,19.bmp,-120,-120,20.bmp,120,-120,21.bmp,-120,120,22.bmp,120,120,9890.600000023842,632737.1999999881,7717,yes,SM,B,19.bmp,120,-120,312042,306027,314043,308028,635888.0,629864.0,637905.0,631874.0,32
4,0,0,0,1,19,test,1,0,z,Thu Dec 11 2025 16:58:20 GMT-0600 (Central Standard Time),652608.1000000238,O,m,1926,33,,31.bmp,-120,-120,32.bmp,120,-120,33.bmp,-120,120,34.bmp,120,120,9975.700000047684,642632.3999999762,7717,yes,SM,B,34.bmp,120,120,312042,306027,314043,308028,645786.0,639759.0,647802.0,641774.0,33
2,0,1,0,0,20,test,1,1,z,Thu Dec 11 2025 16:58:20 GMT-0600 (Central Standard Time),662638.1000000238,O,z,1967,34,,23.bmp,-120,-120,24.bmp,120,-120,25.bmp,-120,120,26.bmp,120,120,10025.100000023842,652613.0,7717,yes,SM,B,24.bmp,120,-120,312042,306027,314043,308028,655767.0,649739.0,657784.0,651750.0,34
4,0,0,0,1,20,test,1,0,m,Thu Dec 11 2025 16:58:20 GMT-0600 (Central Standard Time),672702.1000000238,O,None,2016,35,,27.bmp,-120,-120,28.bmp,120,-120,29.bmp,-120,120,30.bmp,120,120,10056.900000035763,662645.1999999881,7717,yes,SM,B,29.bmp,120,120,312042,306027,314043,308028,665795.0,659771.0,667812.0,661782.0,35
3,0,0,1,0,21,test,1,1,m,Thu Dec 11 2025 16:58:20 GMT-0600 (Central Standard Time),682616.0,O,m,1851,36,,35.bmp,-120,-120,36.bmp,120,-120,37.bmp,-120,120,38.bmp,120,120,9910.199999988079,672705.8000000119,7717,yes,SM,B,35.bmp,-120,120,312042,306027,314043,308028,675861.0,669832.0,677876.0,671844.0,36
1,1,0,0,0,21,test,1,0,m,Thu Dec 11 2025 16:58:20 GMT-0600 (Central Standard Time),692678.1000000238,O,None,2015,37,,39.bmp,-120,-120,40.bmp,120,-120,41.bmp,-120,120,42.bmp,120,120,10058.900000035763,682619.1999999881,7717,yes,SM,B,40.bmp,-120,-120,312042,306027,314043,308028,685773.0,679745.0,687789.0,681756.0,37
2,0,1,0,0,22,test,1,1,m,Thu Dec 11 2025 16:58:20 GMT-0600 (Central Standard Time),702525.8999999762,O,m,1803,38,,43.bmp,-120,-120,44.bmp,120,-120,45.bmp,-120,120,46.bmp,120,120,9845.399999976158,692680.5,7717,yes,SM,B,45.bmp,120,-120,312042,306027,314043,308028,695835.0,689807.0,697836.0,691821.0,38
4,0,0,0,1,23,test,1,1,z,Thu Dec 11 2025 16:58:20 GMT-0600 (Central Standard Time),712439.1999999881,O,z,1853,39,,47.bmp,-120,-120,48.bmp,120,-120,49.bmp,-120,120,50.bmp,120,120,9908.699999988079,702530.5,7717,yes,SM,B,50.bmp,120,120,312042,306027,314043,308028,705683.0,699657.0,707699.0,701667.0,39
3,0,0,1,0,23,test,1,0,m,Thu Dec 11 2025 16:58:20 GMT-0600 (Central Standard Time),722502.1000000238,O,None,2015,40,,4.bmp,-120,-120,5.bmp,120,-120,6.bmp,-120,120,7.bmp,120,120,10058.200000047684,712443.8999999762,7717,yes,SM,B,5.bmp,-120,120,312042,306027,314043,308028,715598.0,709570.0,717613.0,711584.0,40
1,1,0,0,0,24,test,1,1,z,Thu Dec 11 2025 16:58:20 GMT-0600 (Central Standard Time),731734.6000000238,O,z,1188,41,,8.bmp,-120,-120,9.bmp,120,-120,10.bmp,-120,120,11.bmp,120,120,9228.0,722506.6000000238,7717,yes,SM,B,8.bmp,-120,-120,312042,306027,314043,308028,725646.0,719633.0,727659.0,721644.0,41
4,0,0,0,1,24,test,1,0,z,Thu Dec 11 2025 16:58:20 GMT-0600 (Central Standard Time),741779.6999999881,O,None,2001,42,,12.bmp,-120,-120,13.bmp,120,-120,14.bmp,-120,120,15.bmp,120,120,10041.5,731738.1999999881,7717,yes,SM,B,15.bmp,120,120,312042,306027,314043,308028,734890.0,728864.0,736905.0,730875.0,42
1,1,0,0,0,25,test,1,1,z,Thu Dec 11 2025 16:58:20 GMT-0600 (Central Standard Time),751644.5,O,z,1829,43,,16.bmp,-120,-120,17.bmp,120,-120,18.bmp,-120,120,19.bmp,120,120,9860.0,741784.5,7717,yes,SM,B,16.bmp,-120,-120,312042,306027,314043,308028,744937.0,738911.0,746938.0,740924.0,43
4,0,0,0,1,26,test,1,1,m,Thu Dec 11 2025 16:58:20 GMT-0600 (Central Standard Time),761305.6999999881,O,m,1620,44,,4.bmp,-120,-120,1.bmp,120,-120,2.bmp,-120,120,3.bmp,120,120,9657.5,751648.1999999881,7717,yes,SM,B,4.bmp,120,120,312042,306027,314043,308028,754801.0,748774.0,756802.0,750785.0,44
1,1,0,0,0,26,test,1,0,m,Thu Dec 11 2025 16:58:20 GMT-0600 (Central Standard Time),771353.6999999881,O,None,2015,45,,28.bmp,-120,-120,29.bmp,120,-120,30.bmp,-120,120,31.bmp,120,120,10045.699999988079,761308.0,7717,yes,SM,B,31.bmp,-120,-120,312042,306027,314043,308028,764463.0,758434.0,766465.0,760450.0,45
1,1,0,0,0,27,test,1,1,m,Thu Dec 11 2025 16:58:20 GMT-0600 (Central Standard Time),780550.6000000238,O,m,1136,46,,20.bmp,-120,-120,21.bmp,120,-120,22.bmp,-120,120,23.bmp,120,120,9192.200000047684,771358.3999999762,7717,yes,SM,B,21.bmp,-120,-120,312042,306027,314043,308028,774512.0,768485.0,776528.0,770496.0,46
3,0,0,1,0,27,test,1,0,z,Thu Dec 11 2025 16:58:20 GMT-0600 (Central Standard Time),790614.6999999881,O,None,2016,47,,24.bmp,-120,-120,25.bmp,120,-120,26.bmp,-120,120,27.bmp,120,120,10060.599999964237,780554.1000000238,7717,yes,SM,B,26.bmp,-120,120,312042,306027,314043,308028,783709.0,777681.0,785725.0,779694.0,47
3,0,0,1,0,27,test,1,0,z,Thu Dec 11 2025 16:58:20 GMT-0600 (Central Standard Time),800378.5,O,m,1700,48,,40.bmp,-120,-120,41.bmp,120,-120,42.bmp,-120,120,43.bmp,120,120,9760.600000023842,790617.8999999762,7717,yes,SM,B,42.bmp,-120,120,312042,306027,314043,308028,793772.0,787744.0,795788.0,789757.0,48
2,0,1,0,0,27,test,1,0,z,Thu Dec 11 2025 16:58:20 GMT-0600 (Central Standard Time),810441.1999999881,O,None,2016,49,,36.bmp,-120,-120,37.bmp,120,-120,38.bmp,-120,120,39.bmp,120,120,10058.599999964237,800382.6000000238,7717,yes,SM,B,37.bmp,120,-120,312042,306027,314043,308028,803536.0,797509.0,805551.0,799520.0,49
3,0,0,1,0,27,test,1,0,m,Thu Dec 11 2025 16:58:20 GMT-0600 (Central Standard Time),820306.3999999762,O,z,1809,50,,32.bmp,-120,-120,33.bmp,120,-120,34.bmp,-120,120,35.bmp,120,120,9860.299999952316,810446.1000000238,7717,yes,SM,B,32.bmp,-120,120,312042,306027,314043,308028,813601.0,807572.0,815615.0,809586.0,50
2,0,1,0,0,27,test,1,0,z,Thu Dec 11 2025 16:58:20 GMT-0600 (Central Standard Time),830367.8000000119,O,None,2014,51,,44.bmp,-120,-120,45.bmp,120,-120,46.bmp,-120,120,47.bmp,120,120,10058.900000035763,820308.8999999762,7717,yes,SM,B,45.bmp,120,-120,312042,306027,314043,308028,823463.0,817435.0,825480.0,819448.0,51
4,0,0,0,1,27,test,1,0,m,Thu Dec 11 2025 16:58:20 GMT-0600 (Central Standard Time),840432.1000000238,O,None,2016,52,,48.bmp,-120,-120,49.bmp,120,-120,50.bmp,-120,120,31.bmp,120,120,10059.0,830373.1000000238,7717,yes,SM,B,48.bmp,120,120,312042,306027,314043,308028,833526.0,827499.0,835542.0,829510.0,52
3,0,0,1,0,28,test,1,1,z,Thu Dec 11 2025 16:58:20 GMT-0600 (Central Standard Time),850127.3000000119,O,z,1642,53,,1.bmp,-120,-120,2.bmp,120,-120,3.bmp,-120,120,4.bmp,120,120,9689.300000011921,840438.0,7717,yes,SM,B,3.bmp,-120,120,312042,306027,314043,308028,843589.0,837564.0,845605.0,839575.0,53
1,1,0,0,0,28,test,1,0,m,Thu Dec 11 2025 16:58:20 GMT-0600 (Central Standard Time),860191.8999999762,O,None,2015,54,,5.bmp,-120,-120,6.bmp,120,-120,7.bmp,-120,120,8.bmp,120,120,10059.399999976158,850132.5,7717,yes,SM,B,7.bmp,-120,-120,312042,306027,314043,308028,853286.0,847259.0,855303.0,849271.0,54
4,0,0,0,1,28,test,1,0,z,Thu Dec 11 2025 16:58:20 GMT-0600 (Central Standard Time),870255.3999999762,O,None,2015,55,,9.bmp,-120,-120,10.bmp,120,-120,11.bmp,-120,120,12.bmp,120,120,10057.099999964237,860198.3000000119,7717,yes,SM,B,12.bmp,120,120,312042,306027,314043,308028,863349.0,857324.0,865366.0,859335.0,55
2,0,1,0,0,28,test,1,0,m,Thu Dec 11 2025 16:58:20 GMT-0600 (Central Standard Time),880302.8000000119,O,None,2016,56,,13.bmp,-120,-120,14.bmp,120,-120,15.bmp,-120,120,16.bmp,120,120,10041.699999988079,870261.1000000238,7717,yes,SM,B,13.bmp,120,-120,312042,306027,314043,308028,873412.0,867387.0,875413.0,869398.0,56
4,0,0,0,1,29,test,1,1,m,Thu Dec 11 2025 16:58:20 GMT-0600 (Central Standard Time),890317.1000000238,O,m,1956,57,,17.bmp,-120,-120,18.bmp,120,-120,19.bmp,-120,120,20.bmp,120,120,10009.400000035763,880307.6999999881,7717,yes,SM,B,18.bmp,120,120,312042,306027,314043,308028,883461.0,877434.0,885475.0,879445.0,57
3,0,0,1,0,29,test,1,0,z,Thu Dec 11 2025 16:58:20 GMT-0600 (Central Standard Time),899731.3999999762,O,m,1372,58,,21.bmp,-120,-120,22.bmp,120,-120,23.bmp,-120,120,24.bmp,120,120,9410.299999952316,890321.1000000238,7717,yes,SM,B,23.bmp,-120,120,312042,306027,314043,308028,893459.0,887447.0,895474.0,889458.0,58
2,0,1,0,0,30,test,1,1,m,Thu Dec 11 2025 16:58:20 GMT-0600 (Central Standard Time),909611.3999999762,O,m,1833,59,,25.bmp,-120,-120,26.bmp,120,-120,27.bmp,-120,120,28.bmp,120,120,9873.099999964237,899738.3000000119,7717,yes,SM,B,28.bmp,120,-120,312042,306027,314043,308028,902885.0,896865.0,904887.0,898872.0,59
1,1,0,0,0,30,test,1,0,z,Thu Dec 11 2025 16:58:20 GMT-0600 (Central Standard Time),919673.5,O,None,2017,60,,29.bmp,-120,-120,30.bmp,120,-120,31.bmp,-120,120,32.bmp,120,120,10058.800000011921,909614.6999999881,7717,yes,SM,B,29.bmp,-120,-120,312042,306027,314043,308028,912769.0,906741.0,914783.0,908752.0,60
2,0,1,0,0,31,test,1,1,z,Thu Dec 11 2025 16:58:20 GMT-0600 (Central Standard Time),929419.5,O,z,1701,61,,33.bmp,-120,-120,34.bmp,120,-120,35.bmp,-120,120,36.bmp,120,120,9743.600000023842,919675.8999999762,7717,yes,SM,B,34.bmp,120,-120,312042,306027,314043,308028,922831.0,916802.0,924834.0,918816.0,61
4,0,0,0,1,31,test,1,0,z,Thu Dec 11 2025 16:58:20 GMT-0600 (Central Standard Time),939484.5,O,None,2017,62,,41.bmp,-120,-120,42.bmp,120,-120,43.bmp,-120,120,44.bmp,120,120,10061.899999976158,929422.6000000238,7717,yes,SM,B,44.bmp,120,120,312042,306027,314043,308028,932578.0,926549.0,934593.0,928564.0,62
1,1,0,0,0,31,test,1,0,m,Thu Dec 11 2025 16:58:20 GMT-0600 (Central Standard Time),949530.0,O,None,2015,63,,45.bmp,-120,-120,46.bmp,120,-120,47.bmp,-120,120,48.bmp,120,120,10041.199999988079,939488.8000000119,7717,yes,SM,B,45.bmp,-120,120,312042,306027,314043,308028,942627.0,936615.0,944641.0,938626.0,63
2,0,1,0,0,31,test,1,0,z,Thu Dec 11 2025 16:58:20 GMT-0600 (Central Standard Time),959595.0,O,None,2017,64,,49.bmp,-120,-120,50.bmp,120,-120,12.bmp,-120,120,1.bmp,120,120,10061.0,949534.0,7717,yes,SM,B,50.bmp,120,-120,312042,306027,314043,308028,952688.0,946660.0,954704.0,948674.0,64
4,0,0,0,1,31,test,1,0,m,Thu Dec 11 2025 16:58:20 GMT-0600 (Central Standard Time),969657.1000000238,O,None,2015,65,,2.bmp,-120,-120,3.bmp,120,-120,4.bmp,-120,120,5.bmp,120,120,10058.400000035763,959598.6999999881,7717,yes,SM,B,4.bmp,120,120,312042,306027,314043,308028,962752.0,956725.0,964768.0,958736.0,65
3,0,0,1,0,32,test,1,1,m,Thu Dec 11 2025 16:58:20 GMT-0600 (Central Standard Time),979486.8999999762,O,m,1776,66,,6.bmp,-120,-120,7.bmp,120,-120,8.bmp,-120,120,9.bmp,120,120,9823.5,969663.3999999762,7717,yes,SM,B,9.bmp,-120,120,312042,306027,314043,308028,972815.0,966790.0,974831.0,968800.0,66
2,0,1,0,0,33,test,1,1,m,Thu Dec 11 2025 16:58:20 GMT-0600 (Central Standard Time),989250.6999999881,O,m,1707,67,,37.bmp,-120,-120,38.bmp,120,-120,39.bmp,-120,120,40.bmp,120,120,9756.300000011921,979494.3999999762,7717,yes,SM,B,39.bmp,120,-120,312042,306027,314043,308028,982645.0,976621.0,984661.0,978631.0,67
3,0,0,1,0,34,test,1,1,z,Thu Dec 11 2025 16:58:20 GMT-0600 (Central Standard Time),998648.0,O,z,1333,68,,10.bmp,-120,-120,11.bmp,120,-120,12.bmp,-120,120,13.bmp,120,120,9392.399999976158,989255.6000000238,7717,yes,SM,B,12.bmp,-120,120,312042,306027,314043,308028,992408.0,986382.0,994426.0,988394.0,68
1,1,0,0,0,34,test,1,0,m,Thu Dec 11 2025 16:58:20 GMT-0600 (Central Standard Time),1008711.6999999881,O,None,2013,69,,14.bmp,-120,-120,15.bmp,120,-120,16.bmp,-120,120,17.bmp,120,120,10059.599999964237,998652.1000000238,7717,yes,SM,B,15.bmp,-120,-120,312042,306027,314043,308028,1001807.0,995778.0,1003825.0,997790.0,69
2,0,1,0,0,34,test,1,0,m,Thu Dec 11 2025 16:58:20 GMT-0600 (Central Standard Time),1018759.8000000119,O,None,2016,70,,18.bmp,-120,-120,19.bmp,120,-120,20.bmp,-120,120,21.bmp,120,120,10044.199999988079,1008715.6000000238,7717,yes,SM,B,20.bmp,120,-120,312042,306027,314043,308028,1011869.0,1005842.0,1013870.0,1007855.0,70
4,0,0,0,1,34,test,1,0,z,Thu Dec 11 2025 16:58:20 GMT-0600 (Central Standard Time),1028272.0,O,m,1451,71,,22.bmp,-120,-120,23.bmp,120,-120,24.bmp,-120,120,25.bmp,120,120,9508.699999988079,1018763.3000000119,7717,yes,SM,B,25.bmp,120,120,312042,306027,314043,308028,1021916.0,1015890.0,1023932.0,1017902.0,71
1,1,0,0,0,34,test,1,0,z,Thu Dec 11 2025 16:58:20 GMT-0600 (Central Standard Time),1037853.0,O,m,1521,72,,26.bmp,-120,-120,27.bmp,120,-120,28.bmp,-120,120,29.bmp,120,120,9576.600000023842,1028276.3999999762,7717,yes,SM,B,26.bmp,-120,-120,312042,306027,314043,308028,1031429.0,1025403.0,1033446.0,1027415.0,72
2,0,1,0,0,34,test,1,0,z,Thu Dec 11 2025 16:58:20 GMT-0600 (Central Standard Time),1047915.3999999762,O,None,2014,73,,30.bmp,-120,-120,31.bmp,120,-120,32.bmp,-120,120,33.bmp,120,120,10059.0,1037856.3999999762,7717,yes,SM,B,31.bmp,120,-120,312042,306027,314043,308028,1041010.0,1034983.0,1043027.0,1036995.0,73
4,0,0,0,1,34,test,1,0,m,Thu Dec 11 2025 16:58:20 GMT-0600 (Central Standard Time),1057979.800000012,O,None,2016,74,,34.bmp,-120,-120,35.bmp,120,-120,36.bmp,-120,120,37.bmp,120,120,10061.400000035763,1047918.3999999762,7717,yes,SM,B,36.bmp,120,120,312042,306027,314043,308028,1051074.0,1045045.0,1053090.0,1047058.0,74
2,0,1,0,0,34,test,1,0,m,Thu Dec 11 2025 16:58:20 GMT-0600 (Central Standard Time),1067410.0,O,z,1383,75,,38.bmp,-120,-120,39.bmp,120,-120,40.bmp,-120,120,41.bmp,120,120,9426.199999988079,1057983.800000012,7717,yes,SM,B,41.bmp,120,-120,312042,306027,314043,308028,1061138.0,1055110.0,1063153.0,1057122.0,75
1,1,0,0,0,35,test,1,1,z,Thu Dec 11 2025 16:58:20 GMT-0600 (Central Standard Time),1076839.300000012,O,z,1376,76,,42.bmp,-120,-120,43.bmp,120,-120,44.bmp,-120,120,45.bmp,120,120,9426.400000035763,1067412.8999999762,7717,yes,SM,B,42.bmp,-120,-120,312042,306027,314043,308028,1070567.0,1064539.0,1072583.0,1066551.0,76
3,0,0,1,0,35,test,1,0,z,Thu Dec 11 2025 16:58:20 GMT-0600 (Central Standard Time),1086520.0,O,m,1626,77,,50.bmp,-120,-120,11.bmp,120,-120,1.bmp,-120,120,2.bmp,120,120,9677.0,1076843.0,7717,yes,SM,B,1.bmp,-120,120,312042,306027,314043,308028,1079997.0,1073969.0,1082014.0,1075984.0,77
1,1,0,0,0,36,test,1,1,m,Thu Dec 11 2025 16:58:20 GMT-0600 (Central Standard Time),1095783.3999999762,O,m,1201,78,,46.bmp,-120,-120,47.bmp,120,-120,48.bmp,-120,120,49.bmp,120,120,9259.799999952316,1086523.6000000238,7717,yes,SM,B,47.bmp,-120,-120,312042,306027,314043,308028,1089679.0,1083650.0,1091694.0,1085661.0,78
4,0,0,0,1,37,test,1,1,m,Thu Dec 11 2025 16:58:20 GMT-0600 (Central Standard Time),1105480.3999999762,O,m,1633,79,,7.bmp,-120,-120,8.bmp,120,-120,9.bmp,-120,120,10.bmp,120,120,9690.299999952316,1095790.1000000238,7717,yes,SM,B,7.bmp,120,120,312042,306027,314043,308028,1098942.0,1092916.0,1100958.0,1094927.0,79
3,0,0,1,0,38,test,1,1,m,Thu Dec 11 2025 16:58:20 GMT-0600 (Central Standard Time),1114828.300000012,O,m,1288,80,,3.bmp,-120,-120,4.bmp,120,-120,5.bmp,-120,120,6.bmp,120,120,9343.699999988079,1105484.6000000238,7717,yes,SM,B,6.bmp,-120,120,312042,306027,314043,308028,1108640.0,1102611.0,1110654.0,1104623.0,80
