acc_sum,block,block_c,change,condition,correct,correct_response,datetime,endtime,face,project,response,response_time,row_sel,session_number,start_end,starttime,subject_id,task,task_vers,trial
0,prac,1,,1-Back,,,Fri May 09 2025 09:59:00 GMT-0500 (Central Daylight Time),,012_o_f_d_a.png,O,space,7131,1,1,,,7140,VNB,C,0
0,prac,1,0.0,1-Back,0,m,Fri May 09 2025 09:59:00 GMT-0500 (Central Daylight Time),162005.19999998808,022_y_f_n_a.png,O,z,719,2,1,1616.2999999970198,160388.89999999106,7140,VNB,C,1
0,prac,1,0.0,1-Back,0,m,Fri May 09 2025 09:59:00 GMT-0500 (Central Daylight Time),164904.59999999404,014_m_m_h_a.png,O,None,2005,3,1,2867.7999999970198,162036.79999999702,7140,VNB,C,2
1,prac,1,0.0,1-Back,1,m,Fri May 09 2025 09:59:00 GMT-0500 (Central Daylight Time),167337.0,025_y_m_d_a.png,O,m,1526,4,1,2400.5,164936.5,7140,VNB,C,3
1,prac,1,0.0,1-Back,0,m,Fri May 09 2025 09:59:00 GMT-0500 (Central Daylight Time),169313.39999999106,012_o_f_n_a.png,O,z,1059,5,1,1945.7000000029802,167367.69999998808,7140,VNB,C,4
1,prac,1,1.0,1-Back,0,z,Fri May 09 2025 09:59:00 GMT-0500 (Central Daylight Time),171868.69999998808,025_y_m_n_a.png,O,m,1631,6,1,2519.199999988079,169349.5,7140,VNB,C,5
2,prac,1,0.0,1-Back,1,m,Fri May 09 2025 09:59:00 GMT-0500 (Central Daylight Time),173934.89999999106,015_o_m_h_a.png,O,m,1134,7,1,2033.3999999910593,171901.5,7140,VNB,C,6
3,prac,1,0.0,1-Back,1,m,Fri May 09 2025 09:59:00 GMT-0500 (Central Daylight Time),175884.19999998808,019_m_f_d_a.png,O,m,1031,8,1,1918.8999999910593,173965.29999999702,7140,VNB,C,7
3,prac,1,1.0,1-Back,0,z,Fri May 09 2025 09:59:00 GMT-0500 (Central Daylight Time),178816.39999999106,022_y_f_d_a.png,O,None,2014,9,1,2898.5999999940395,175917.79999999702,7140,VNB,C,8
4,prac,1,0.0,1-Back,1,m,Fri May 09 2025 09:59:00 GMT-0500 (Central Daylight Time),181182.5,014_m_m_n_a.png,O,m,1461,10,1,2336.0,178846.5,7140,VNB,C,9
5,prac,1,0.0,1-Back,1,m,Fri May 09 2025 09:59:00 GMT-0500 (Central Daylight Time),182898.69999998808,012_o_f_h_a.png,O,m,797,11,1,1686.699999988079,181212.0,7140,VNB,C,10
6,prac,1,0.0,1-Back,1,m,Fri May 09 2025 09:59:00 GMT-0500 (Central Daylight Time),184414.89999999106,025_y_m_d_a.png,O,m,606,12,1,1479.0,182935.89999999106,7140,VNB,C,11
0,prac,2,0.0,1-Back,,,Fri May 09 2025 09:59:00 GMT-0500 (Central Daylight Time),184414.89999999106,012_o_f_d_a.png,O,a,4736,1,1,1479.0,182935.89999999106,7140,VNB,C,0
1,prac,2,0.0,1-Back,1,m,Fri May 09 2025 09:59:00 GMT-0500 (Central Daylight Time),194112.09999999404,022_y_f_n_a.png,O,m,974,2,1,1865.9000000059605,192246.19999998808,7140,VNB,C,1
2,prac,2,0.0,1-Back,1,m,Fri May 09 2025 09:59:00 GMT-0500 (Central Daylight Time),195761.39999999106,014_m_m_h_a.png,O,m,753,3,1,1615.5999999940395,194145.79999999702,7140,VNB,C,2
3,prac,2,0.0,1-Back,1,m,Fri May 09 2025 09:59:00 GMT-0500 (Central Daylight Time),197227.69999998808,025_y_m_d_a.png,O,m,658,4,1,1435.2999999970198,195792.39999999106,7140,VNB,C,3
4,prac,2,0.0,1-Back,1,m,Fri May 09 2025 09:59:00 GMT-0500 (Central Daylight Time),198810.5,012_o_f_n_a.png,O,m,670,5,1,1548.9000000059605,197261.59999999404,7140,VNB,C,4
4,prac,2,1.0,1-Back,0,z,Fri May 09 2025 09:59:00 GMT-0500 (Central Daylight Time),201043.09999999404,025_y_m_n_a.png,O,m,1342,6,1,2202.5,198840.59999999404,7140,VNB,C,5
5,prac,2,0.0,1-Back,1,m,Fri May 09 2025 09:59:00 GMT-0500 (Central Daylight Time),202942.5,015_o_m_h_a.png,O,m,968,7,1,1868.5,201074.0,7140,VNB,C,6
6,prac,2,0.0,1-Back,1,m,Fri May 09 2025 09:59:00 GMT-0500 (Central Daylight Time),204508.69999998808,019_m_f_d_a.png,O,m,636,8,1,1533.199999988079,202975.5,7140,VNB,C,7
7,prac,2,1.0,1-Back,1,z,Fri May 09 2025 09:59:00 GMT-0500 (Central Daylight Time),206308.09999999404,022_y_f_d_a.png,O,z,871,9,1,1766.0999999940395,204542.0,7140,VNB,C,8
8,prac,2,0.0,1-Back,1,m,Fri May 09 2025 09:59:00 GMT-0500 (Central Daylight Time),207874.19999998808,014_m_m_n_a.png,O,m,673,10,1,1535.5999999940395,206338.59999999404,7140,VNB,C,9
8,prac,2,0.0,1-Back,0,m,Fri May 09 2025 09:59:00 GMT-0500 (Central Daylight Time),209523.69999998808,012_o_f_h_a.png,O,z,730,11,1,1618.5,207905.19999998808,7140,VNB,C,10
9,prac,2,0.0,1-Back,1,m,Fri May 09 2025 09:59:00 GMT-0500 (Central Daylight Time),211489.5,025_y_m_d_a.png,O,m,1061,12,1,1935.800000011921,209553.69999998808,7140,VNB,C,11
0,test,1,0.0,1-Back,,,Fri May 09 2025 09:59:00 GMT-0500 (Central Daylight Time),211489.5,022_y_f_d_a.png,O,space,4163,1,1,1935.800000011921,209553.69999998808,7140,VNB,C,0
1,test,1,0.0,1-Back,1,m,Fri May 09 2025 09:59:00 GMT-0500 (Central Daylight Time),226801.69999998808,019_m_f_n_a.png,O,m,1108,2,1,2120.199999988079,224681.5,7140,VNB,C,1
2,test,1,0.0,1-Back,1,m,Fri May 09 2025 09:59:00 GMT-0500 (Central Daylight Time),228917.69999998808,015_o_m_h_a.png,O,m,1072,3,1,2086.199999988079,226831.5,7140,VNB,C,2
3,test,1,1.0,1-Back,1,z,Fri May 09 2025 09:59:00 GMT-0500 (Central Daylight Time),230800.59999999404,014_m_m_h_a.png,O,z,836,4,1,1855.2999999970198,228945.29999999702,7140,VNB,C,3
3,test,1,0.0,1-Back,0,m,Fri May 09 2025 09:59:00 GMT-0500 (Central Daylight Time),232784.39999999106,012_o_f_n_a.png,O,z,921,5,1,1950.2000000029802,230834.19999998808,7140,VNB,C,4
4,test,1,0.0,1-Back,1,m,Fri May 09 2025 09:59:00 GMT-0500 (Central Daylight Time),234599.19999998808,025_y_m_d_a.png,O,m,754,6,1,1783.199999988079,232816.0,7140,VNB,C,5
4,test,1,1.0,1-Back,0,z,Fri May 09 2025 09:59:00 GMT-0500 (Central Daylight Time),236831.89999999106,019_m_f_d_a.png,O,m,1194,7,1,2202.3999999910593,234629.5,7140,VNB,C,6
5,test,1,0.0,1-Back,1,m,Fri May 09 2025 09:59:00 GMT-0500 (Central Daylight Time),239131.19999998808,022_y_f_h_a.png,O,m,1249,8,1,2268.699999988079,236862.5,7140,VNB,C,7
6,test,1,0.0,1-Back,1,m,Fri May 09 2025 09:59:00 GMT-0500 (Central Daylight Time),241080.59999999404,015_o_m_n_a.png,O,m,902,9,1,1918.5,239162.09999999404,7140,VNB,C,8
7,test,1,0.0,1-Back,1,m,Fri May 09 2025 09:59:00 GMT-0500 (Central Daylight Time),242946.5,025_y_m_h_a.png,O,m,825,10,1,1836.7000000029802,241109.79999999702,7140,VNB,C,9
8,test,1,0.0,1-Back,1,m,Fri May 09 2025 09:59:00 GMT-0500 (Central Daylight Time),244746.09999999404,015_o_m_d_a.png,O,m,751,11,1,1771.2000000029802,242974.89999999106,7140,VNB,C,10
9,test,1,1.0,1-Back,1,z,Fri May 09 2025 09:59:00 GMT-0500 (Central Daylight Time),246995.39999999106,012_o_f_d_a.png,O,z,1215,12,1,2220.2000000029802,244775.19999998808,7140,VNB,C,11
10,test,1,0.0,1-Back,1,m,Fri May 09 2025 09:59:00 GMT-0500 (Central Daylight Time),248811.29999999702,014_m_m_n_a.png,O,m,774,13,1,1788.1000000089407,247023.19999998808,7140,VNB,C,12
11,test,1,1.0,1-Back,1,z,Fri May 09 2025 09:59:00 GMT-0500 (Central Daylight Time),250994.09999999404,022_y_f_n_a.png,O,z,1134,14,1,2152.4000000059605,248841.69999998808,7140,VNB,C,13
12,test,1,0.0,1-Back,1,m,Fri May 09 2025 09:59:00 GMT-0500 (Central Daylight Time),252776.79999999702,019_m_f_h_a.png,O,m,735,15,1,1751.4000000059605,251025.39999999106,7140,VNB,C,14
13,test,1,0.0,1-Back,1,m,Fri May 09 2025 09:59:00 GMT-0500 (Central Daylight Time),255509.5,014_m_m_d_a.png,O,m,1688,16,1,2700.7000000029802,252808.79999999702,7140,VNB,C,15
14,test,1,0.0,1-Back,1,m,Fri May 09 2025 09:59:00 GMT-0500 (Central Daylight Time),257558.69999998808,025_y_m_n_a.png,O,m,1004,17,1,2021.3999999910593,255537.29999999702,7140,VNB,C,16
15,test,1,0.0,1-Back,1,m,Fri May 09 2025 09:59:00 GMT-0500 (Central Daylight Time),259791.29999999702,012_o_f_h_a.png,O,m,1187,18,1,2202.9000000059605,257588.39999999106,7140,VNB,C,17
0,test,2,0.0,1-Back,,,Fri May 09 2025 09:59:00 GMT-0500 (Central Daylight Time),259791.29999999702,025_y_m_n_a.png,O,space,2123,1,1,2202.9000000059605,257588.39999999106,7140,VNB,C,0
1,test,2,0.0,1-Back,1,m,Fri May 09 2025 09:59:00 GMT-0500 (Central Daylight Time),266239.1999999881,022_y_f_h_a.png,O,m,1261,2,1,2269.8999999910593,263969.299999997,7140,VNB,C,1
2,test,2,1.0,1-Back,1,m,Fri May 09 2025 09:59:00 GMT-0500 (Central Daylight Time),267905.299999997,015_o_m_n_a.png,O,m,627,3,1,1638.6000000089407,266266.6999999881,7140,VNB,C,2
3,test,2,0.0,1-Back,1,m,Fri May 09 2025 09:59:00 GMT-0500 (Central Daylight Time),269587.89999999106,019_m_f_d_a.png,O,m,648,4,1,1652.7999999970198,267935.09999999404,7140,VNB,C,3
4,test,2,0.0,1-Back,1,z,Fri May 09 2025 09:59:00 GMT-0500 (Central Daylight Time),271554.09999999404,014_m_m_d_a.png,O,z,925,5,1,1933.9000000059605,269620.1999999881,7140,VNB,C,4
5,test,2,0.0,1-Back,1,m,Fri May 09 2025 09:59:00 GMT-0500 (Central Daylight Time),273403.59999999404,025_y_m_h_a.png,O,m,807,6,1,1818.4000000059605,271585.1999999881,7140,VNB,C,5
6,test,2,1.0,1-Back,1,z,Fri May 09 2025 09:59:00 GMT-0500 (Central Daylight Time),275386.39999999106,012_o_f_h_a.png,O,z,942,7,1,1952.0999999940395,273434.299999997,7140,VNB,C,6
7,test,2,0.0,1-Back,1,m,Fri May 09 2025 09:59:00 GMT-0500 (Central Daylight Time),277602.39999999106,019_m_f_n_a.png,O,m,1167,8,1,2186.2999999970198,275416.09999999404,7140,VNB,C,7
8,test,2,0.0,1-Back,1,m,Fri May 09 2025 09:59:00 GMT-0500 (Central Daylight Time),280151.59999999404,022_y_f_d_a.png,O,m,1503,9,1,2518.9000000059605,277632.6999999881,7140,VNB,C,8
9,test,2,0.0,1-Back,1,m,Fri May 09 2025 09:59:00 GMT-0500 (Central Daylight Time),282134.39999999106,014_m_m_n_a.png,O,m,946,10,1,1953.3999999910593,280181.0,7140,VNB,C,9
10,test,2,1.0,1-Back,1,m,Fri May 09 2025 09:59:00 GMT-0500 (Central Daylight Time),283883.59999999404,019_m_f_h_a.png,O,m,716,11,1,1721.5999999940395,282162.0,7140,VNB,C,10
11,test,2,0.0,1-Back,1,z,Fri May 09 2025 09:59:00 GMT-0500 (Central Daylight Time),285916.39999999106,015_o_m_h_a.png,O,z,990,12,1,2001.2999999970198,283915.09999999404,7140,VNB,C,11
12,test,2,0.0,1-Back,1,m,Fri May 09 2025 09:59:00 GMT-0500 (Central Daylight Time),287632.799999997,025_y_m_d_a.png,O,m,677,13,1,1686.9000000059605,285945.89999999106,7140,VNB,C,12
13,test,2,0.0,1-Back,1,m,Fri May 09 2025 09:59:00 GMT-0500 (Central Daylight Time),290081.6999999881,012_o_f_n_a.png,O,m,1392,14,1,2418.3999999910593,287663.299999997,7140,VNB,C,13
14,test,2,0.0,1-Back,1,z,Fri May 09 2025 09:59:00 GMT-0500 (Central Daylight Time),291997.89999999106,022_y_f_n_a.png,O,z,872,15,1,1887.5,290110.39999999106,7140,VNB,C,14
15,test,2,1.0,1-Back,1,m,Fri May 09 2025 09:59:00 GMT-0500 (Central Daylight Time),293814.09999999404,014_m_m_h_a.png,O,m,780,16,1,1785.5,292028.59999999404,7140,VNB,C,15
16,test,2,0.0,1-Back,1,m,Fri May 09 2025 09:59:00 GMT-0500 (Central Daylight Time),296380.09999999404,012_o_f_d_a.png,O,m,1523,17,1,2534.5999999940395,293845.5,7140,VNB,C,16
17,test,2,1.0,1-Back,1,z,Fri May 09 2025 09:59:00 GMT-0500 (Central Daylight Time),298429.09999999404,015_o_m_d_a.png,O,z,1015,18,1,2018.4000000059605,296410.6999999881,7140,VNB,C,17
0,test,3,1.0,1-Back,,,Fri May 09 2025 09:59:00 GMT-0500 (Central Daylight Time),298429.09999999404,012_o_f_h_a.png,O,space,1157,1,1,2018.4000000059605,296410.6999999881,7140,VNB,C,0
1,test,3,0.0,1-Back,1,m,Fri May 09 2025 09:59:00 GMT-0500 (Central Daylight Time),304360.59999999404,019_m_f_d_a.png,O,m,1586,2,1,2603.2000000029802,301757.39999999106,7140,VNB,C,1
2,test,3,1.0,1-Back,1,m,Fri May 09 2025 09:59:00 GMT-0500 (Central Daylight Time),306543.39999999106,014_m_m_n_a.png,O,m,1136,3,1,2151.7999999970198,304391.59999999404,7140,VNB,C,2
3,test,3,0.0,1-Back,1,z,Fri May 09 2025 09:59:00 GMT-0500 (Central Daylight Time),308559.299999997,012_o_f_n_a.png,O,z,978,4,1,1987.0,306572.299999997,7140,VNB,C,3
4,test,3,1.0,1-Back,1,m,Fri May 09 2025 09:59:00 GMT-0500 (Central Daylight Time),310292.39999999106,015_o_m_d_a.png,O,m,690,5,1,1706.0999999940395,308586.299999997,7140,VNB,C,4
5,test,3,0.0,1-Back,1,m,Fri May 09 2025 09:59:00 GMT-0500 (Central Daylight Time),312358.299999997,022_y_f_h_a.png,O,m,1004,6,1,2032.7000000029802,310325.59999999404,7140,VNB,C,5
6,test,3,0.0,1-Back,1,z,Fri May 09 2025 09:59:00 GMT-0500 (Central Daylight Time),314141.09999999404,025_y_m_h_a.png,O,z,739,7,1,1753.0999999940395,312388.0,7140,VNB,C,6
7,test,3,0.0,1-Back,1,m,Fri May 09 2025 09:59:00 GMT-0500 (Central Daylight Time),315873.299999997,019_m_f_n_a.png,O,m,693,8,1,1703.7999999970198,314169.5,7140,VNB,C,7
8,test,3,0.0,1-Back,1,m,Fri May 09 2025 09:59:00 GMT-0500 (Central Daylight Time),317656.39999999106,022_y_f_d_a.png,O,m,727,9,1,1748.8999999910593,315907.5,7140,VNB,C,8
9,test,3,1.0,1-Back,1,m,Fri May 09 2025 09:59:00 GMT-0500 (Central Daylight Time),319355.799999997,015_o_m_n_a.png,O,m,665,10,1,1667.2999999970198,317688.5,7140,VNB,C,9
10,test,3,0.0,1-Back,1,m,Fri May 09 2025 09:59:00 GMT-0500 (Central Daylight Time),320988.89999999106,014_m_m_h_a.png,O,m,597,11,1,1605.2000000029802,319383.6999999881,7140,VNB,C,10
11,test,3,0.0,1-Back,1,z,Fri May 09 2025 09:59:00 GMT-0500 (Central Daylight Time),322571.799999997,019_m_f_h_a.png,O,z,532,12,1,1550.4000000059605,321021.39999999106,7140,VNB,C,11
12,test,3,1.0,1-Back,1,m,Fri May 09 2025 09:59:00 GMT-0500 (Central Daylight Time),324271.1999999881,012_o_f_d_a.png,O,m,645,13,1,1666.0999999940395,322605.09999999404,7140,VNB,C,12
13,test,3,0.0,1-Back,1,z,Fri May 09 2025 09:59:00 GMT-0500 (Central Daylight Time),326220.6999999881,014_m_m_d_a.png,O,z,906,14,1,1920.5,324300.1999999881,7140,VNB,C,13
14,test,3,0.0,1-Back,1,m,Fri May 09 2025 09:59:00 GMT-0500 (Central Daylight Time),328203.39999999106,025_y_m_n_a.png,O,m,941,15,1,1953.3999999910593,326250.0,7140,VNB,C,14
15,test,3,1.0,1-Back,1,m,Fri May 09 2025 09:59:00 GMT-0500 (Central Daylight Time),330086.09999999404,015_o_m_h_a.png,O,m,846,16,1,1853.0,328233.09999999404,7140,VNB,C,15
16,test,3,0.0,1-Back,1,m,Fri May 09 2025 09:59:00 GMT-0500 (Central Daylight Time),331985.299999997,025_y_m_d_a.png,O,m,852,17,1,1868.7000000029802,330116.59999999404,7140,VNB,C,16
17,test,3,1.0,1-Back,1,m,Fri May 09 2025 09:59:00 GMT-0500 (Central Daylight Time),333768.1999999881,022_y_f_n_a.png,O,m,744,18,1,1753.3999999910593,332014.799999997,7140,VNB,C,17
0,test,4,1.0,1-Back,,,Fri May 09 2025 09:59:00 GMT-0500 (Central Daylight Time),333768.1999999881,014_m_m_d_a.png,O,space,1026,1,1,1753.3999999910593,332014.799999997,7140,VNB,C,0
0,test,4,0.0,1-Back,0,z,Fri May 09 2025 09:59:00 GMT-0500 (Central Daylight Time),339083.299999997,015_o_m_d_a.png,O,m,1224,2,1,2238.7000000029802,336844.59999999404,7140,VNB,C,1
1,test,4,0.0,1-Back,1,m,Fri May 09 2025 09:59:00 GMT-0500 (Central Daylight Time),341299.1999999881,025_y_m_h_a.png,O,m,1166,3,1,2186.3999999910593,339112.799999997,7140,VNB,C,2
2,test,4,0.0,1-Back,1,m,Fri May 09 2025 09:59:00 GMT-0500 (Central Daylight Time),343315.5,019_m_f_n_a.png,O,m,982,4,1,1986.800000011921,341328.6999999881,7140,VNB,C,3
3,test,4,1.0,1-Back,1,m,Fri May 09 2025 09:59:00 GMT-0500 (Central Daylight Time),345014.59999999404,012_o_f_h_a.png,O,m,654,5,1,1670.0999999940395,343344.5,7140,VNB,C,4
4,test,4,0.0,1-Back,1,m,Fri May 09 2025 09:59:00 GMT-0500 (Central Daylight Time),346697.39999999106,014_m_m_n_a.png,O,m,643,6,1,1652.0999999940395,345045.299999997,7140,VNB,C,5
5,test,4,0.0,1-Back,1,m,Fri May 09 2025 09:59:00 GMT-0500 (Central Daylight Time),348396.89999999106,025_y_m_d_a.png,O,m,656,7,1,1670.2000000029802,346726.6999999881,7140,VNB,C,6
6,test,4,1.0,1-Back,1,z,Fri May 09 2025 09:59:00 GMT-0500 (Central Daylight Time),350129.59999999404,022_y_f_d_a.png,O,z,694,8,1,1704.9000000059605,348424.6999999881,7140,VNB,C,7
7,test,4,0.0,1-Back,1,m,Fri May 09 2025 09:59:00 GMT-0500 (Central Daylight Time),351762.59999999404,019_m_f_h_a.png,O,m,592,9,1,1603.9000000059605,350158.6999999881,7140,VNB,C,8
8,test,4,0.0,1-Back,1,z,Fri May 09 2025 09:59:00 GMT-0500 (Central Daylight Time),353562.09999999404,015_o_m_h_a.png,O,z,759,10,1,1769.0999999940395,351793.0,7140,VNB,C,9
9,test,4,1.0,1-Back,1,m,Fri May 09 2025 09:59:00 GMT-0500 (Central Daylight Time),355278.1999999881,012_o_f_n_a.png,O,m,680,11,1,1686.8999999910593,353591.299999997,7140,VNB,C,10
10,test,4,0.0,1-Back,1,m,Fri May 09 2025 09:59:00 GMT-0500 (Central Daylight Time),357077.59999999404,019_m_f_d_a.png,O,m,755,12,1,1770.2999999970198,355307.299999997,7140,VNB,C,11
11,test,4,0.0,1-Back,1,m,Fri May 09 2025 09:59:00 GMT-0500 (Central Daylight Time),358677.1999999881,022_y_f_n_a.png,O,m,556,13,1,1570.199999988079,357107.0,7140,VNB,C,12
12,test,4,0.0,1-Back,1,m,Fri May 09 2025 09:59:00 GMT-0500 (Central Daylight Time),360326.59999999404,012_o_f_d_a.png,O,m,604,14,1,1618.5,358708.09999999404,7140,VNB,C,13
13,test,4,0.0,1-Back,1,m,Fri May 09 2025 09:59:00 GMT-0500 (Central Daylight Time),362059.39999999106,022_y_f_h_a.png,O,m,699,15,1,1702.5999999940395,360356.799999997,7140,VNB,C,14
14,test,4,1.0,1-Back,1,z,Fri May 09 2025 09:59:00 GMT-0500 (Central Daylight Time),363742.299999997,014_m_m_h_a.png,O,z,638,16,1,1653.1000000089407,362089.1999999881,7140,VNB,C,15
15,test,4,0.0,1-Back,1,m,Fri May 09 2025 09:59:00 GMT-0500 (Central Daylight Time),365475.0,015_o_m_n_a.png,O,m,691,17,1,1705.7000000029802,363769.299999997,7140,VNB,C,16
16,test,4,1.0,1-Back,1,z,Fri May 09 2025 09:59:00 GMT-0500 (Central Daylight Time),367124.1999999881,025_y_m_n_a.png,O,z,615,18,1,1618.3999999910593,365505.799999997,7140,VNB,C,17
0,test,5,1.0,1-Back,,,Fri May 09 2025 09:59:00 GMT-0500 (Central Daylight Time),367124.1999999881,015_o_m_n_a.png,O,space,1102,1,1,1618.3999999910593,365505.799999997,7140,VNB,C,0
1,test,5,1.0,1-Back,1,m,Fri May 09 2025 09:59:00 GMT-0500 (Central Daylight Time),371889.59999999404,012_o_f_h_a.png,O,m,585,2,1,1603.7000000029802,370285.89999999106,7140,VNB,C,1
2,test,5,0.0,1-Back,1,m,Fri May 09 2025 09:59:00 GMT-0500 (Central Daylight Time),373589.09999999404,025_y_m_d_a.png,O,m,664,3,1,1670.5,371918.59999999404,7140,VNB,C,2
3,test,5,0.0,1-Back,1,z,Fri May 09 2025 09:59:00 GMT-0500 (Central Daylight Time),375755.299999997,015_o_m_d_a.png,O,z,1132,4,1,2140.2000000029802,373615.09999999404,7140,VNB,C,3
4,test,5,0.0,1-Back,1,m,Fri May 09 2025 09:59:00 GMT-0500 (Central Daylight Time),377604.6999999881,019_m_f_h_a.png,O,m,806,5,1,1818.2999999970198,375786.39999999106,7140,VNB,C,4
5,test,5,0.0,1-Back,1,m,Fri May 09 2025 09:59:00 GMT-0500 (Central Daylight Time),379320.5,022_y_f_n_a.png,O,m,660,6,1,1684.1000000089407,377636.39999999106,7140,VNB,C,5
6,test,5,1.0,1-Back,1,z,Fri May 09 2025 09:59:00 GMT-0500 (Central Daylight Time),381936.5,012_o_f_n_a.png,O,z,1569,7,1,2586.9000000059605,379349.59999999404,7140,VNB,C,6
7,test,5,0.0,1-Back,1,m,Fri May 09 2025 09:59:00 GMT-0500 (Central Daylight Time),383702.6999999881,019_m_f_d_a.png,O,m,720,8,1,1736.3999999910593,381966.299999997,7140,VNB,C,7
8,test,5,0.0,1-Back,1,m,Fri May 09 2025 09:59:00 GMT-0500 (Central Daylight Time),385435.6999999881,025_y_m_h_a.png,O,m,699,9,1,1703.0,383732.6999999881,7140,VNB,C,8
9,test,5,0.0,1-Back,1,m,Fri May 09 2025 09:59:00 GMT-0500 (Central Daylight Time),387068.1999999881,022_y_f_d_a.png,O,m,590,10,1,1602.5,385465.6999999881,7140,VNB,C,9
10,test,5,0.0,1-Back,1,m,Fri May 09 2025 09:59:00 GMT-0500 (Central Daylight Time),389017.6999999881,014_m_m_n_a.png,O,m,909,11,1,1920.8999999910593,387096.799999997,7140,VNB,C,10
11,test,5,1.0,1-Back,1,z,Fri May 09 2025 09:59:00 GMT-0500 (Central Daylight Time),390717.0,019_m_f_n_a.png,O,z,657,12,1,1669.7000000029802,389047.299999997,7140,VNB,C,11
12,test,5,0.0,1-Back,1,m,Fri May 09 2025 09:59:00 GMT-0500 (Central Daylight Time),392333.39999999106,015_o_m_h_a.png,O,m,581,13,1,1585.2999999970198,390748.09999999404,7140,VNB,C,12
13,test,5,0.0,1-Back,1,z,Fri May 09 2025 09:59:00 GMT-0500 (Central Daylight Time),394216.0,014_m_m_h_a.png,O,z,836,14,1,1855.2000000029802,392360.799999997,7140,VNB,C,13
14,test,5,1.0,1-Back,1,m,Fri May 09 2025 09:59:00 GMT-0500 (Central Daylight Time),395965.299999997,012_o_f_d_a.png,O,m,714,15,1,1720.1000000089407,394245.1999999881,7140,VNB,C,14
15,test,5,0.0,1-Back,1,m,Fri May 09 2025 09:59:00 GMT-0500 (Central Daylight Time),398048.1999999881,025_y_m_n_a.png,O,m,1036,16,1,2059.5999999940395,395988.59999999404,7140,VNB,C,15
16,test,5,0.0,1-Back,1,m,Fri May 09 2025 09:59:00 GMT-0500 (Central Daylight Time),399698.6999999881,022_y_f_h_a.png,O,m,601,17,1,1619.7999999970198,398078.89999999106,7140,VNB,C,16
17,test,5,0.0,1-Back,1,m,Fri May 09 2025 09:59:00 GMT-0500 (Central Daylight Time),401263.89999999106,014_m_m_d_a.png,O,m,520,18,1,1536.0,399727.89999999106,7140,VNB,C,17
0,prac,1,0.0,2-Back,,,Fri May 09 2025 09:59:00 GMT-0500 (Central Daylight Time),401263.89999999106,019_m_f_n_a.png,O,space,2729,1,1,1536.0,399727.89999999106,7140,VNB,C,0
0,prac,1,0.0,2-Back,,,Fri May 09 2025 09:59:00 GMT-0500 (Central Daylight Time),401263.89999999106,012_o_f_h_a.png,O,space,2729,2,1,1536.0,399727.89999999106,7140,VNB,C,0
1,prac,1,0.0,2-Back,1,m,Fri May 09 2025 09:59:00 GMT-0500 (Central Daylight Time),480872.39999999106,015_o_m_d_a.png,O,m,1693,3,1,2585.7999999970198,478286.59999999404,7140,VNB,C,1
2,prac,1,1.0,2-Back,1,z,Fri May 09 2025 09:59:00 GMT-0500 (Central Daylight Time),483388.39999999106,014_m_m_h_a.png,O,z,1601,4,1,2486.0,480902.39999999106,7140,VNB,C,2
2,prac,1,0.0,2-Back,0,m,Fri May 09 2025 09:59:00 GMT-0500 (Central Daylight Time),485604.09999999404,022_y_f_n_a.png,O,z,1295,5,1,2182.5,483421.59999999404,7140,VNB,C,3
3,prac,1,1.0,2-Back,1,z,Fri May 09 2025 09:59:00 GMT-0500 (Central Daylight Time),487770.1999999881,015_o_m_h_a.png,O,z,1232,6,1,2135.7999999970198,485634.39999999106,7140,VNB,C,4
4,prac,1,1.0,2-Back,1,z,Fri May 09 2025 09:59:00 GMT-0500 (Central Daylight Time),489869.39999999106,025_y_m_n_a.png,O,z,1208,7,1,2069.2999999970198,487800.09999999404,7140,VNB,C,5
5,prac,1,0.0,2-Back,1,m,Fri May 09 2025 09:59:00 GMT-0500 (Central Daylight Time),491769.0,019_m_f_d_a.png,O,m,968,8,1,1869.5,489899.5,7140,VNB,C,6
6,prac,1,0.0,2-Back,1,m,Fri May 09 2025 09:59:00 GMT-0500 (Central Daylight Time),494518.1999999881,012_o_f_d_a.png,O,m,1835,9,1,2718.5999999940395,491799.59999999404,7140,VNB,C,7
7,prac,1,0.0,2-Back,1,m,Fri May 09 2025 09:59:00 GMT-0500 (Central Daylight Time),496867.299999997,014_m_m_h_a.png,O,m,1542,10,1,2318.7000000029802,494548.59999999404,7140,VNB,C,8
8,prac,1,1.0,2-Back,1,z,Fri May 09 2025 09:59:00 GMT-0500 (Central Daylight Time),498700.0,022_y_f_d_a.png,O,z,913,11,1,1801.9000000059605,496898.09999999404,7140,VNB,C,9
9,prac,1,0.0,2-Back,1,m,Fri May 09 2025 09:59:00 GMT-0500 (Central Daylight Time),500899.5,015_o_m_n_a.png,O,m,1280,12,1,2168.1000000089407,498731.39999999106,7140,VNB,C,10
0,test,1,0.0,2-Back,,,Fri May 09 2025 09:59:00 GMT-0500 (Central Daylight Time),500899.5,025_y_m_h_a.png,O,space,1094,1,1,2168.1000000089407,498731.39999999106,7140,VNB,C,0
0,test,1,0.0,2-Back,,,Fri May 09 2025 09:59:00 GMT-0500 (Central Daylight Time),500899.5,012_o_f_n_a.png,O,space,1094,2,1,2168.1000000089407,498731.39999999106,7140,VNB,C,0
1,test,1,0.0,2-Back,1,z,Fri May 09 2025 09:59:00 GMT-0500 (Central Daylight Time),516894.5,015_o_m_h_a.png,O,z,1329,3,1,2337.6000000089407,514556.89999999106,7140,VNB,C,1
2,test,1,0.0,2-Back,1,m,Fri May 09 2025 09:59:00 GMT-0500 (Central Daylight Time),518978.1999999881,019_m_f_d_a.png,O,m,1043,4,1,2054.199999988079,516924.0,7140,VNB,C,2
3,test,1,1.0,2-Back,1,m,Fri May 09 2025 09:59:00 GMT-0500 (Central Daylight Time),521176.5,025_y_m_n_a.png,O,m,1160,5,1,2168.1000000089407,519008.39999999106,7140,VNB,C,3
4,test,1,0.0,2-Back,1,z,Fri May 09 2025 09:59:00 GMT-0500 (Central Daylight Time),523175.799999997,022_y_f_d_a.png,O,z,961,6,1,1969.7999999970198,521206.0,7140,VNB,C,4
5,test,1,0.0,2-Back,1,m,Fri May 09 2025 09:59:00 GMT-0500 (Central Daylight Time),525458.299999997,014_m_m_h_a.png,O,m,1234,7,1,2251.7000000029802,523206.59999999404,7140,VNB,C,5
6,test,1,1.0,2-Back,1,m,Fri May 09 2025 09:59:00 GMT-0500 (Central Daylight Time),527557.799999997,022_y_f_n_a.png,O,m,1056,8,1,2070.2999999970198,525487.5,7140,VNB,C,6
7,test,1,0.0,2-Back,1,z,Fri May 09 2025 09:59:00 GMT-0500 (Central Daylight Time),529440.599999994,012_o_f_h_a.png,O,z,837,9,1,1853.0999999940395,527587.5,7140,VNB,C,7
8,test,1,0.0,2-Back,1,m,Fri May 09 2025 09:59:00 GMT-0500 (Central Daylight Time),532356.099999994,015_o_m_d_a.png,O,m,1864,10,1,2883.2000000029802,529472.8999999911,7140,VNB,C,8
9,test,1,1.0,2-Back,1,m,Fri May 09 2025 09:59:00 GMT-0500 (Central Daylight Time),534738.8999999911,014_m_m_d_a.png,O,m,1333,11,1,2353.0999999940395,532385.799999997,7140,VNB,C,9
10,test,1,0.0,2-Back,1,m,Fri May 09 2025 09:59:00 GMT-0500 (Central Daylight Time),536787.8999999911,019_m_f_n_a.png,O,m,1015,12,1,2019.7999999970198,534768.099999994,7140,VNB,C,10
11,test,1,0.0,2-Back,1,m,Fri May 09 2025 09:59:00 GMT-0500 (Central Daylight Time),538920.6999999881,022_y_f_h_a.png,O,m,1095,13,1,2103.0999999940395,536817.599999994,7140,VNB,C,11
12,test,1,0.0,2-Back,1,z,Fri May 09 2025 09:59:00 GMT-0500 (Central Daylight Time),540770.299999997,014_m_m_n_a.png,O,z,808,14,1,1819.6000000089407,538950.6999999881,7140,VNB,C,12
13,test,1,0.0,2-Back,1,m,Fri May 09 2025 09:59:00 GMT-0500 (Central Daylight Time),542819.5,025_y_m_d_a.png,O,m,1008,15,1,2019.800000011921,540799.6999999881,7140,VNB,C,13
14,test,1,1.0,2-Back,1,m,Fri May 09 2025 09:59:00 GMT-0500 (Central Daylight Time),544952.3999999911,019_m_f_h_a.png,O,m,1087,16,1,2105.5,542846.8999999911,7140,VNB,C,14
15,test,1,0.0,2-Back,1,z,Fri May 09 2025 09:59:00 GMT-0500 (Central Daylight Time),546851.8999999911,012_o_f_d_a.png,O,z,865,17,1,1868.5,544983.3999999911,7140,VNB,C,15
16,test,1,0.0,2-Back,1,m,Fri May 09 2025 09:59:00 GMT-0500 (Central Daylight Time),548951.0,015_o_m_n_a.png,O,m,1055,18,1,2071.6000000089407,546879.3999999911,7140,VNB,C,16
0,test,2,0.0,2-Back,,,Fri May 09 2025 09:59:00 GMT-0500 (Central Daylight Time),548951.0,014_m_m_h_a.png,O,space,1772,1,1,2071.6000000089407,546879.3999999911,7140,VNB,C,0
0,test,2,0.0,2-Back,,,Fri May 09 2025 09:59:00 GMT-0500 (Central Daylight Time),548951.0,022_y_f_n_a.png,O,space,1772,2,1,2071.6000000089407,546879.3999999911,7140,VNB,C,0
1,test,2,1.0,2-Back,1,z,Fri May 09 2025 09:59:00 GMT-0500 (Central Daylight Time),558081.5,012_o_f_h_a.png,O,z,1044,3,1,2053.6000000089407,556027.8999999911,7140,VNB,C,1
2,test,2,0.0,2-Back,1,m,Fri May 09 2025 09:59:00 GMT-0500 (Central Daylight Time),560114.099999994,015_o_m_d_a.png,O,m,975,4,1,2000.5999999940395,558113.5,7140,VNB,C,2
3,test,2,0.0,2-Back,1,m,Fri May 09 2025 09:59:00 GMT-0500 (Central Daylight Time),562879.8999999911,019_m_f_d_a.png,O,m,1703,5,1,2732.2999999970198,560147.599999994,7140,VNB,C,3
4,test,2,0.0,2-Back,1,m,Fri May 09 2025 09:59:00 GMT-0500 (Central Daylight Time),564929.5,025_y_m_h_a.png,O,m,1009,6,1,2020.6000000089407,562908.8999999911,7140,VNB,C,4
4,test,2,0.0,2-Back,0,m,Fri May 09 2025 09:59:00 GMT-0500 (Central Daylight Time),567328.5,012_o_f_n_a.png,O,z,1344,7,1,2366.300000011921,564962.1999999881,7140,VNB,C,5
5,test,2,1.0,2-Back,1,z,Fri May 09 2025 09:59:00 GMT-0500 (Central Daylight Time),569707.0,015_o_m_h_a.png,O,z,1344,8,1,2348.300000011921,567358.6999999881,7140,VNB,C,6
6,test,2,0.0,2-Back,1,m,Fri May 09 2025 09:59:00 GMT-0500 (Central Daylight Time),571677.0,022_y_f_d_a.png,O,m,806,9,1,1821.2000000029802,569855.799999997,7140,VNB,C,7
7,test,2,0.0,2-Back,1,m,Fri May 09 2025 09:59:00 GMT-0500 (Central Daylight Time),573643.299999997,025_y_m_d_a.png,O,m,891,10,1,1911.1000000089407,571732.1999999881,7140,VNB,C,8
8,test,2,0.0,2-Back,1,m,Fri May 09 2025 09:59:00 GMT-0500 (Central Daylight Time),575809.1999999881,014_m_m_n_a.png,O,m,1127,11,1,2144.8999999910593,573664.299999997,7140,VNB,C,9
9,test,2,0.0,2-Back,1,m,Fri May 09 2025 09:59:00 GMT-0500 (Central Daylight Time),577808.6999999881,019_m_f_h_a.png,O,m,953,12,1,1979.2999999970198,575829.3999999911,7140,VNB,C,10
10,test,2,1.0,2-Back,1,z,Fri May 09 2025 09:59:00 GMT-0500 (Central Daylight Time),579541.5,015_o_m_n_a.png,O,z,697,13,1,1711.1000000089407,577830.3999999911,7140,VNB,C,11
11,test,2,0.0,2-Back,1,m,Fri May 09 2025 09:59:00 GMT-0500 (Central Daylight Time),581557.599999994,012_o_f_d_a.png,O,m,973,14,1,1994.4000000059605,579563.1999999881,7140,VNB,C,12
12,test,2,0.0,2-Back,1,m,Fri May 09 2025 09:59:00 GMT-0500 (Central Daylight Time),584356.5,022_y_f_h_a.png,O,m,1757,15,1,2779.9000000059605,581576.599999994,7140,VNB,C,13
13,test,2,0.0,2-Back,1,z,Fri May 09 2025 09:59:00 GMT-0500 (Central Daylight Time),586205.8999999911,014_m_m_d_a.png,O,z,813,16,1,1831.0999999940395,584374.799999997,7140,VNB,C,14
14,test,2,0.0,2-Back,1,m,Fri May 09 2025 09:59:00 GMT-0500 (Central Daylight Time),588688.599999994,025_y_m_n_a.png,O,m,1436,17,1,2462.2999999970198,586226.299999997,7140,VNB,C,15
15,test,2,1.0,2-Back,1,m,Fri May 09 2025 09:59:00 GMT-0500 (Central Daylight Time),590771.3999999911,019_m_f_n_a.png,O,m,1042,18,1,2059.8999999910593,588711.5,7140,VNB,C,16
0,test,3,1.0,2-Back,,,Fri May 09 2025 09:59:00 GMT-0500 (Central Daylight Time),590771.3999999911,015_o_m_n_a.png,O,space,1223,1,1,2059.8999999910593,588711.5,7140,VNB,C,0
0,test,3,1.0,2-Back,,,Fri May 09 2025 09:59:00 GMT-0500 (Central Daylight Time),590771.3999999911,012_o_f_d_a.png,O,space,1223,2,1,2059.8999999910593,588711.5,7140,VNB,C,0
1,test,3,0.0,2-Back,1,m,Fri May 09 2025 09:59:00 GMT-0500 (Central Daylight Time),599368.5,022_y_f_h_a.png,O,m,1278,3,1,2297.0,597071.5,7140,VNB,C,1
2,test,3,0.0,2-Back,1,z,Fri May 09 2025 09:59:00 GMT-0500 (Central Daylight Time),601267.8999999911,019_m_f_d_a.png,O,z,866,4,1,1876.5999999940395,599391.299999997,7140,VNB,C,2
3,test,3,1.0,2-Back,1,m,Fri May 09 2025 09:59:00 GMT-0500 (Central Daylight Time),603101.799999997,025_y_m_n_a.png,O,m,799,5,1,1814.7999999970198,601287.0,7140,VNB,C,3
4,test,3,0.0,2-Back,1,m,Fri May 09 2025 09:59:00 GMT-0500 (Central Daylight Time),604983.5,015_o_m_h_a.png,O,m,846,6,1,1861.0,603122.5,7140,VNB,C,4
5,test,3,0.0,2-Back,1,z,Fri May 09 2025 09:59:00 GMT-0500 (Central Daylight Time),606849.5,022_y_f_n_a.png,O,z,818,7,1,1842.300000011921,605007.1999999881,7140,VNB,C,5
6,test,3,1.0,2-Back,1,m,Fri May 09 2025 09:59:00 GMT-0500 (Central Daylight Time),608982.299999997,014_m_m_d_a.png,O,m,1097,8,1,2113.9000000059605,606868.3999999911,7140,VNB,C,6
7,test,3,0.0,2-Back,1,m,Fri May 09 2025 09:59:00 GMT-0500 (Central Daylight Time),611115.099999994,025_y_m_d_a.png,O,m,1091,9,1,2112.2999999970198,609002.799999997,7140,VNB,C,7
8,test,3,0.0,2-Back,1,m,Fri May 09 2025 09:59:00 GMT-0500 (Central Daylight Time),613064.5,012_o_f_h_a.png,O,m,912,10,1,1924.4000000059605,611140.099999994,7140,VNB,C,8
9,test,3,1.0,2-Back,1,m,Fri May 09 2025 09:59:00 GMT-0500 (Central Daylight Time),615096.8999999911,019_m_f_n_a.png,O,m,993,11,1,2012.8999999910593,613084.0,7140,VNB,C,9
10,test,3,1.0,2-Back,1,z,Fri May 09 2025 09:59:00 GMT-0500 (Central Daylight Time),616962.799999997,014_m_m_h_a.png,O,z,825,12,1,1845.4000000059605,615117.3999999911,7140,VNB,C,10
11,test,3,0.0,2-Back,1,m,Fri May 09 2025 09:59:00 GMT-0500 (Central Daylight Time),618779.3999999911,022_y_f_d_a.png,O,m,774,13,1,1786.7999999970198,616992.599999994,7140,VNB,C,11
12,test,3,0.0,2-Back,1,m,Fri May 09 2025 09:59:00 GMT-0500 (Central Daylight Time),620761.799999997,012_o_f_n_a.png,O,m,943,14,1,1960.5,618801.299999997,7140,VNB,C,12
13,test,3,0.0,2-Back,1,z,Fri May 09 2025 09:59:00 GMT-0500 (Central Daylight Time),622677.799999997,015_o_m_d_a.png,O,z,872,15,1,1895.0,620782.799999997,7140,VNB,C,13
14,test,3,1.0,2-Back,1,m,Fri May 09 2025 09:59:00 GMT-0500 (Central Daylight Time),624610.6999999881,019_m_f_h_a.png,O,m,884,16,1,1909.8999999910593,622700.799999997,7140,VNB,C,14
15,test,3,0.0,2-Back,1,m,Fri May 09 2025 09:59:00 GMT-0500 (Central Daylight Time),626443.6999999881,014_m_m_n_a.png,O,m,792,17,1,1809.0999999940395,624634.599999994,7140,VNB,C,15
15,test,3,0.0,2-Back,0,z,Fri May 09 2025 09:59:00 GMT-0500 (Central Daylight Time),628093.0,025_y_m_h_a.png,O,m,614,18,1,1623.800000011921,626469.1999999881,7140,VNB,C,16
0,test,4,0.0,2-Back,,,Fri May 09 2025 09:59:00 GMT-0500 (Central Daylight Time),628093.0,019_m_f_n_a.png,O,space,1086,1,1,1623.800000011921,626469.1999999881,7140,VNB,C,0
0,test,4,0.0,2-Back,,,Fri May 09 2025 09:59:00 GMT-0500 (Central Daylight Time),628093.0,015_o_m_n_a.png,O,space,1086,2,1,1623.800000011921,626469.1999999881,7140,VNB,C,0
1,test,4,1.0,2-Back,1,m,Fri May 09 2025 09:59:00 GMT-0500 (Central Daylight Time),636340.099999994,025_y_m_h_a.png,O,m,832,3,1,1843.7000000029802,634496.3999999911,7140,VNB,C,1
2,test,4,1.0,2-Back,1,m,Fri May 09 2025 09:59:00 GMT-0500 (Central Daylight Time),638239.799999997,012_o_f_d_a.png,O,m,862,4,1,1878.7999999970198,636361.0,7140,VNB,C,2
3,test,4,0.0,2-Back,1,z,Fri May 09 2025 09:59:00 GMT-0500 (Central Daylight Time),640122.5,015_o_m_h_a.png,O,z,843,5,1,1860.6000000089407,638261.8999999911,7140,VNB,C,3
4,test,4,0.0,2-Back,1,m,Fri May 09 2025 09:59:00 GMT-0500 (Central Daylight Time),641971.799999997,014_m_m_n_a.png,O,m,815,6,1,1830.2999999970198,640141.5,7140,VNB,C,4
5,test,4,0.0,2-Back,1,m,Fri May 09 2025 09:59:00 GMT-0500 (Central Daylight Time),643988.0,019_m_f_d_a.png,O,m,967,7,1,1991.2000000029802,641996.799999997,7140,VNB,C,5
6,test,4,0.0,2-Back,1,z,Fri May 09 2025 09:59:00 GMT-0500 (Central Daylight Time),645870.799999997,022_y_f_n_a.png,O,z,845,8,1,1862.1000000089407,644008.6999999881,7140,VNB,C,6
7,test,4,1.0,2-Back,1,m,Fri May 09 2025 09:59:00 GMT-0500 (Central Daylight Time),647720.1999999881,012_o_f_h_a.png,O,m,804,9,1,1827.699999988079,645892.5,7140,VNB,C,7
8,test,4,0.0,2-Back,1,m,Fri May 09 2025 09:59:00 GMT-0500 (Central Daylight Time),649952.8999999911,014_m_m_h_a.png,O,m,1187,10,1,2212.0999999940395,647740.799999997,7140,VNB,C,8
9,test,4,0.0,2-Back,1,m,Fri May 09 2025 09:59:00 GMT-0500 (Central Daylight Time),652068.3999999911,022_y_f_d_a.png,O,m,1081,11,1,2095.2000000029802,649973.1999999881,7140,VNB,C,9
10,test,4,0.0,2-Back,1,m,Fri May 09 2025 09:59:00 GMT-0500 (Central Daylight Time),654084.599999994,025_y_m_n_a.png,O,m,982,12,1,1990.7999999970198,652093.799999997,7140,VNB,C,10
11,test,4,0.0,2-Back,1,z,Fri May 09 2025 09:59:00 GMT-0500 (Central Daylight Time),655818.599999994,015_o_m_d_a.png,O,z,685,13,1,1713.7999999970198,654104.799999997,7140,VNB,C,11
12,test,4,1.0,2-Back,1,m,Fri May 09 2025 09:59:00 GMT-0500 (Central Daylight Time),657600.599999994,019_m_f_h_a.png,O,m,736,14,1,1763.0,655837.599999994,7140,VNB,C,12
13,test,4,1.0,2-Back,1,m,Fri May 09 2025 09:59:00 GMT-0500 (Central Daylight Time),659699.599999994,022_y_f_h_a.png,O,m,1058,15,1,2077.7000000029802,657621.8999999911,7140,VNB,C,13
14,test,4,0.0,2-Back,1,m,Fri May 09 2025 09:59:00 GMT-0500 (Central Daylight Time),661699.0,012_o_f_n_a.png,O,m,950,16,1,1978.4000000059605,659720.599999994,7140,VNB,C,14
15,test,4,0.0,2-Back,1,m,Fri May 09 2025 09:59:00 GMT-0500 (Central Daylight Time),663648.599999994,025_y_m_d_a.png,O,m,902,17,1,1929.7999999970198,661718.799999997,7140,VNB,C,15
16,test,4,1.0,2-Back,1,m,Fri May 09 2025 09:59:00 GMT-0500 (Central Daylight Time),665314.599999994,014_m_m_d_a.png,O,m,617,18,1,1644.2000000029802,663670.3999999911,7140,VNB,C,16
0,test,5,1.0,2-Back,,,Fri May 09 2025 09:59:00 GMT-0500 (Central Daylight Time),665314.599999994,022_y_f_d_a.png,O,space,1616,1,1,1644.2000000029802,663670.3999999911,7140,VNB,C,0
0,test,5,1.0,2-Back,,,Fri May 09 2025 09:59:00 GMT-0500 (Central Daylight Time),665314.599999994,012_o_f_h_a.png,O,space,1616,2,1,1644.2000000029802,663670.3999999911,7140,VNB,C,0
1,test,5,1.0,2-Back,1,z,Fri May 09 2025 09:59:00 GMT-0500 (Central Daylight Time),674228.3999999911,015_o_m_d_a.png,O,z,965,3,1,1975.7999999970198,672252.599999994,7140,VNB,C,1
1,test,5,1.0,2-Back,0,m,Fri May 09 2025 09:59:00 GMT-0500 (Central Daylight Time),676527.799999997,019_m_f_n_a.png,O,z,1253,4,1,2277.7999999970198,674250.0,7140,VNB,C,2
2,test,5,0.0,2-Back,1,m,Fri May 09 2025 09:59:00 GMT-0500 (Central Daylight Time),678194.099999994,014_m_m_h_a.png,O,m,627,5,1,1647.0,676547.099999994,7140,VNB,C,3
3,test,5,0.0,2-Back,1,z,Fri May 09 2025 09:59:00 GMT-0500 (Central Daylight Time),680826.5,022_y_f_n_a.png,O,z,1593,6,1,2610.9000000059605,678215.599999994,7140,VNB,C,4
3,test,5,0.0,2-Back,0,m,Fri May 09 2025 09:59:00 GMT-0500 (Central Daylight Time),682726.0,012_o_f_d_a.png,O,z,864,7,1,1876.2000000029802,680849.799999997,7140,VNB,C,5
4,test,5,0.0,2-Back,1,m,Fri May 09 2025 09:59:00 GMT-0500 (Central Daylight Time),684541.8999999911,015_o_m_h_a.png,O,m,773,8,1,1793.8999999910593,682748.0,7140,VNB,C,6
5,test,5,1.0,2-Back,1,z,Fri May 09 2025 09:59:00 GMT-0500 (Central Daylight Time),687471.599999994,019_m_f_d_a.png,O,z,1896,9,1,2907.0999999940395,684564.5,7140,VNB,C,7
6,test,5,0.0,2-Back,1,m,Fri May 09 2025 09:59:00 GMT-0500 (Central Daylight Time),689590.599999994,025_y_m_n_a.png,O,m,1080,10,1,2095.5999999940395,687495.0,7140,VNB,C,8
7,test,5,0.0,2-Back,1,m,Fri May 09 2025 09:59:00 GMT-0500 (Central Daylight Time),691806.299999997,014_m_m_n_a.png,O,m,1171,11,1,2196.2999999970198,689610.0,7140,VNB,C,9
8,test,5,0.0,2-Back,1,m,Fri May 09 2025 09:59:00 GMT-0500 (Central Daylight Time),694255.6999999881,022_y_f_h_a.png,O,m,1404,12,1,2425.2999999970198,691830.3999999911,7140,VNB,C,10
9,test,5,0.0,2-Back,1,m,Fri May 09 2025 09:59:00 GMT-0500 (Central Daylight Time),696204.799999997,025_y_m_d_a.png,O,m,915,13,1,1925.2000000029802,694279.599999994,7140,VNB,C,11
10,test,5,1.0,2-Back,1,z,Fri May 09 2025 09:59:00 GMT-0500 (Central Daylight Time),698004.299999997,019_m_f_h_a.png,O,z,766,14,1,1777.7999999970198,696226.5,7140,VNB,C,12
10,test,5,0.0,2-Back,0,m,Fri May 09 2025 09:59:00 GMT-0500 (Central Daylight Time),700453.599999994,015_o_m_n_a.png,O,z,1414,15,1,2425.2999999970198,698028.299999997,7140,VNB,C,13
11,test,5,0.0,2-Back,1,m,Fri May 09 2025 09:59:00 GMT-0500 (Central Daylight Time),703102.8999999911,014_m_m_d_a.png,O,m,1613,16,1,2625.8999999910593,700477.0,7140,VNB,C,14
12,test,5,0.0,2-Back,1,z,Fri May 09 2025 09:59:00 GMT-0500 (Central Daylight Time),705052.1999999881,012_o_f_n_a.png,O,z,916,17,1,1928.0,703124.1999999881,7140,VNB,C,15
13,test,5,1.0,2-Back,1,m,Fri May 09 2025 09:59:00 GMT-0500 (Central Daylight Time),706934.8999999911,025_y_m_h_a.png,O,m,846,18,1,1861.0999999940395,705073.799999997,7140,VNB,C,16
