Number,acc_sum,block,block_c,block_cond,con_img,correct,correct_response,datetime,endtime,jitter,project,response,response_time,row_sel,session_number,start_end,starttime,subject_id,task,task_vers,trial
1,1,prac,1,A,circle.png,1,z,Tue Oct 21 2025 10:13:52 GMT-0500 (Central Daylight Time),44779.90000009537,1000,I,z,1086,1,2,2877.300000190735,41902.59999990463,8009,NTS,A,1
3,2,prac,1,A,circle.png,1,z,Tue Oct 21 2025 10:13:52 GMT-0500 (Central Daylight Time),47278.800000190735,1200,I,z,508,3,2,2489.800000190735,44789.0,8009,NTS,A,2
8,3,prac,1,A,circle.png,1,m,Tue Oct 21 2025 10:13:52 GMT-0500 (Central Daylight Time),50061.300000190735,1600,I,m,385,7,2,2777.0999999046326,47284.2000002861,8009,NTS,A,3
6,4,prac,1,A,circle.png,1,m,Tue Oct 21 2025 10:13:52 GMT-0500 (Central Daylight Time),53610.2000002861,1900,I,m,741,5,2,3542.4000000953674,50067.800000190735,8009,NTS,A,4
7,5,prac,1,A,circle.png,1,m,Tue Oct 21 2025 10:13:52 GMT-0500 (Central Daylight Time),56592.800000190735,1700,I,m,490,6,2,2976.4000000953674,53616.40000009537,8009,NTS,A,5
4,6,prac,1,A,circle.png,1,z,Tue Oct 21 2025 10:13:52 GMT-0500 (Central Daylight Time),59542.7000002861,1400,I,z,775,4,2,2943.4000000953674,56599.300000190735,8009,NTS,A,6
7,7,prac,1,A,circle.png,1,m,Tue Oct 21 2025 10:13:52 GMT-0500 (Central Daylight Time),62440.800000190735,1700,I,m,416,6,2,2892.5999999046326,59548.2000002861,8009,NTS,A,7
9,8,prac,1,A,circle.png,1,m,Tue Oct 21 2025 10:13:52 GMT-0500 (Central Daylight Time),65240.0,1500,I,m,500,8,2,2792.5999999046326,62447.40000009537,8009,NTS,A,8
2,9,prac,1,A,circle.png,1,z,Tue Oct 21 2025 10:13:52 GMT-0500 (Central Daylight Time),68555.5,2000,I,z,520,2,2,3310.0,65245.5,8009,NTS,A,9
2,10,prac,1,A,circle.png,1,z,Tue Oct 21 2025 10:13:52 GMT-0500 (Central Daylight Time),71854.40000009537,2000,I,z,508,2,2,3293.4000000953674,68561.0,8009,NTS,A,10
9,11,prac,1,A,circle.png,1,m,Tue Oct 21 2025 10:13:52 GMT-0500 (Central Daylight Time),74637.09999990463,1500,I,m,486,8,2,2777.2999997138977,71859.80000019073,8009,NTS,A,11
3,12,prac,1,A,circle.png,1,z,Tue Oct 21 2025 10:13:52 GMT-0500 (Central Daylight Time),77219.5,1200,I,z,586,3,2,2577.0,74642.5,8009,NTS,A,12
4,1,prac,1,B,triangle.png,1,m,Tue Oct 21 2025 10:13:52 GMT-0500 (Central Daylight Time),97229.80000019073,1500,I,m,752,4,2,3043.800000190735,94186.0,8009,NTS,A,1
6,2,prac,1,B,triangle.png,1,m,Tue Oct 21 2025 10:13:52 GMT-0500 (Central Daylight Time),99580.0,1000,I,m,554,5,2,2344.0999999046326,97235.90000009537,8009,NTS,A,2
8,3,prac,1,B,triangle.png,1,m,Tue Oct 21 2025 10:13:52 GMT-0500 (Central Daylight Time),102028.30000019073,1200,I,m,453,7,2,2442.4000000953674,99585.90000009537,8009,NTS,A,3
9,3,prac,1,B,triangle.png,0,z,Tue Oct 21 2025 10:13:52 GMT-0500 (Central Daylight Time),104694.2000002861,1400,I,m,476,8,2,2660.2000002861023,102034.0,8009,NTS,A,4
3,4,prac,1,B,triangle.png,1,z,Tue Oct 21 2025 10:13:52 GMT-0500 (Central Daylight Time),107709.90000009537,1600,I,z,618,3,2,3010.4000000953674,104699.5,8009,NTS,A,5
1,5,prac,1,B,triangle.png,1,z,Tue Oct 21 2025 10:13:52 GMT-0500 (Central Daylight Time),110908.90000009537,1900,I,z,510,1,2,3193.5999999046326,107715.30000019073,8009,NTS,A,6
4,6,prac,1,B,triangle.png,1,m,Tue Oct 21 2025 10:13:52 GMT-0500 (Central Daylight Time),114058.0,1500,I,m,856,4,2,3143.5999999046326,110914.40000009537,8009,NTS,A,7
2,7,prac,1,B,triangle.png,1,m,Tue Oct 21 2025 10:13:52 GMT-0500 (Central Daylight Time),117440.0,1700,I,m,891,2,2,3376.7999997138977,114063.2000002861,8009,NTS,A,8
7,8,prac,1,B,triangle.png,1,z,Tue Oct 21 2025 10:13:52 GMT-0500 (Central Daylight Time),120722.80000019073,2000,I,z,489,6,2,3277.0999999046326,117445.7000002861,8009,NTS,A,9
2,9,prac,1,B,triangle.png,1,m,Tue Oct 21 2025 10:13:52 GMT-0500 (Central Daylight Time),123954.80000019073,1700,I,m,738,2,2,3227.300000190735,120727.5,8009,NTS,A,10
3,10,prac,1,B,triangle.png,1,z,Tue Oct 21 2025 10:13:52 GMT-0500 (Central Daylight Time),127120.30000019073,1600,I,z,773,3,2,3159.0,123961.30000019073,8009,NTS,A,11
9,11,prac,1,B,triangle.png,1,z,Tue Oct 21 2025 10:13:52 GMT-0500 (Central Daylight Time),130202.7000002861,1400,I,z,896,8,2,3077.1000003814697,127125.59999990463,8009,NTS,A,12
2,1,test,1,A,circle.png,1,z,Tue Oct 21 2025 10:13:52 GMT-0500 (Central Daylight Time),149346.7000002861,2000,I,z,1089,2,2,3111.300000190735,146235.40000009537,8009,NTS,A,1
1,2,test,1,A,circle.png,1,z,Tue Oct 21 2025 10:13:52 GMT-0500 (Central Daylight Time),150946.30000019073,1000,I,z,573,1,2,1595.0,149351.30000019073,8009,NTS,A,2
3,3,test,1,A,circle.png,1,z,Tue Oct 21 2025 10:13:52 GMT-0500 (Central Daylight Time),152628.90000009537,1200,I,z,462,3,2,1678.8000001907349,150950.09999990463,8009,NTS,A,3
7,4,test,1,A,circle.png,1,m,Tue Oct 21 2025 10:13:52 GMT-0500 (Central Daylight Time),154828.30000019073,1700,I,m,479,6,2,2195.5,152632.80000019073,8009,NTS,A,4
9,5,test,1,A,circle.png,1,m,Tue Oct 21 2025 10:13:52 GMT-0500 (Central Daylight Time),156777.59999990463,1500,I,m,431,8,2,1945.5,154832.09999990463,8009,NTS,A,5
2,6,test,1,A,circle.png,1,z,Tue Oct 21 2025 10:13:52 GMT-0500 (Central Daylight Time),159360.40000009537,2000,I,z,551,2,2,2578.9000000953674,156781.5,8009,NTS,A,6
9,7,test,1,A,circle.png,1,m,Tue Oct 21 2025 10:13:52 GMT-0500 (Central Daylight Time),161359.59999990463,1500,I,m,468,8,2,1994.1999998092651,159365.40000009537,8009,NTS,A,7
4,8,test,1,A,circle.png,1,z,Tue Oct 21 2025 10:13:52 GMT-0500 (Central Daylight Time),163792.09999990463,1400,I,z,1009,4,2,2428.699999809265,161363.40000009537,8009,NTS,A,8
4,9,test,1,A,circle.png,1,z,Tue Oct 21 2025 10:13:52 GMT-0500 (Central Daylight Time),165774.90000009537,1400,I,z,560,4,2,1978.8000001907349,163796.09999990463,8009,NTS,A,9
4,10,test,1,A,circle.png,1,z,Tue Oct 21 2025 10:13:52 GMT-0500 (Central Daylight Time),167657.5,1400,I,z,457,4,2,1878.0,165779.5,8009,NTS,A,10
7,11,test,1,A,circle.png,1,m,Tue Oct 21 2025 10:13:52 GMT-0500 (Central Daylight Time),169923.5,1700,I,m,546,6,2,2262.4000000953674,167661.09999990463,8009,NTS,A,11
6,12,test,1,A,circle.png,1,m,Tue Oct 21 2025 10:13:52 GMT-0500 (Central Daylight Time),172739.30000019073,1900,I,m,897,5,2,2811.7000002861023,169927.59999990463,8009,NTS,A,12
3,13,test,1,A,circle.png,1,z,Tue Oct 21 2025 10:13:52 GMT-0500 (Central Daylight Time),174605.5,1200,I,z,645,3,2,1861.9000000953674,172743.59999990463,8009,NTS,A,13
1,14,test,1,A,circle.png,1,z,Tue Oct 21 2025 10:13:52 GMT-0500 (Central Daylight Time),176221.59999990463,1000,I,z,587,1,2,1612.1999998092651,174609.40000009537,8009,NTS,A,14
9,15,test,1,A,circle.png,1,m,Tue Oct 21 2025 10:13:52 GMT-0500 (Central Daylight Time),178287.59999990463,1500,I,m,543,8,2,2061.199999809265,176226.40000009537,8009,NTS,A,15
2,16,test,1,A,circle.png,1,z,Tue Oct 21 2025 10:13:52 GMT-0500 (Central Daylight Time),180786.80000019073,2000,I,z,481,2,2,2495.5999999046326,178291.2000002861,8009,NTS,A,16
3,17,test,1,A,circle.png,1,z,Tue Oct 21 2025 10:13:52 GMT-0500 (Central Daylight Time),182786.09999990463,1200,I,z,781,3,2,1995.5,180790.59999990463,8009,NTS,A,17
2,18,test,1,A,circle.png,1,z,Tue Oct 21 2025 10:13:52 GMT-0500 (Central Daylight Time),185485.30000019073,2000,I,z,678,2,2,2695.5,182789.80000019073,8009,NTS,A,18
6,19,test,1,A,circle.png,1,m,Tue Oct 21 2025 10:13:52 GMT-0500 (Central Daylight Time),187951.2000002861,1900,I,m,543,5,2,2461.9000000953674,185489.30000019073,8009,NTS,A,19
8,20,test,1,A,circle.png,1,m,Tue Oct 21 2025 10:13:52 GMT-0500 (Central Daylight Time),190050.59999990463,1600,I,m,473,7,2,2095.5,187955.09999990463,8009,NTS,A,20
8,21,test,1,A,circle.png,1,m,Tue Oct 21 2025 10:13:52 GMT-0500 (Central Daylight Time),192183.2000002861,1600,I,m,510,7,2,2128.7000002861023,190054.5,8009,NTS,A,21
1,22,test,1,A,circle.png,1,z,Tue Oct 21 2025 10:13:52 GMT-0500 (Central Daylight Time),193884.7000002861,1000,I,z,674,1,2,1697.7000002861023,192187.0,8009,NTS,A,22
9,23,test,1,A,circle.png,1,m,Tue Oct 21 2025 10:13:52 GMT-0500 (Central Daylight Time),195965.40000009537,1500,I,m,562,8,2,2076.199999809265,193889.2000002861,8009,NTS,A,23
8,24,test,1,A,circle.png,1,m,Tue Oct 21 2025 10:13:52 GMT-0500 (Central Daylight Time),198214.59999990463,1600,I,m,619,7,2,2245.5999999046326,195969.0,8009,NTS,A,24
4,1,test,1,B,triangle.png,1,m,Tue Oct 21 2025 10:13:52 GMT-0500 (Central Daylight Time),212393.59999990463,1500,I,m,932,4,2,2446.0999999046326,209947.5,8009,NTS,A,1
9,2,test,1,B,triangle.png,1,z,Tue Oct 21 2025 10:13:52 GMT-0500 (Central Daylight Time),215159.30000019073,1900,I,z,835,16,2,2761.2000002861023,212398.09999990463,8009,NTS,A,2
7,3,test,1,B,triangle.png,1,z,Tue Oct 21 2025 10:13:52 GMT-0500 (Central Daylight Time),217384.80000019073,1600,I,z,609,14,2,2221.5999999046326,215163.2000002861,8009,NTS,A,3
3,4,test,1,B,triangle.png,1,z,Tue Oct 21 2025 10:13:52 GMT-0500 (Central Daylight Time),220007.90000009537,2000,I,z,610,11,2,2618.300000190735,217389.59999990463,8009,NTS,A,4
6,5,test,1,B,triangle.png,1,m,Tue Oct 21 2025 10:13:52 GMT-0500 (Central Daylight Time),221657.09999990463,1000,I,m,625,5,2,1645.1999998092651,220011.90000009537,8009,NTS,A,5
6,6,test,1,B,triangle.png,1,m,Tue Oct 21 2025 10:13:52 GMT-0500 (Central Daylight Time),223706.5,1500,I,m,531,13,2,2045.7999997138977,221660.7000002861,8009,NTS,A,6
3,7,test,1,B,triangle.png,1,z,Tue Oct 21 2025 10:13:52 GMT-0500 (Central Daylight Time),225939.30000019073,1600,I,z,606,3,2,2229.0999999046326,223710.2000002861,8009,NTS,A,7
6,8,test,1,B,triangle.png,1,m,Tue Oct 21 2025 10:13:52 GMT-0500 (Central Daylight Time),227571.90000009537,1000,I,m,605,5,2,1628.9000000953674,225943.0,8009,NTS,A,8
8,9,test,1,B,triangle.png,1,m,Tue Oct 21 2025 10:13:52 GMT-0500 (Central Daylight Time),229338.2000002861,1200,I,m,540,7,2,1762.4000000953674,227575.80000019073,8009,NTS,A,9
8,10,test,1,B,triangle.png,1,m,Tue Oct 21 2025 10:13:52 GMT-0500 (Central Daylight Time),231537.5,1700,I,m,467,15,2,2195.0,229342.5,8009,NTS,A,10
8,11,test,1,B,triangle.png,1,m,Tue Oct 21 2025 10:13:52 GMT-0500 (Central Daylight Time),233720.2000002861,1700,I,m,451,15,2,2178.6000003814697,231541.59999990463,8009,NTS,A,11
1,12,test,1,B,triangle.png,1,z,Tue Oct 21 2025 10:13:52 GMT-0500 (Central Daylight Time),236552.7000002861,1900,I,z,900,1,2,2828.5,233724.2000002861,8009,NTS,A,12
7,12,test,1,B,triangle.png,0,z,Tue Oct 21 2025 10:13:52 GMT-0500 (Central Daylight Time),239285.2000002861,2000,I,m,704,6,2,2728.800000190735,236556.40000009537,8009,NTS,A,13
8,13,test,1,B,triangle.png,1,m,Tue Oct 21 2025 10:13:52 GMT-0500 (Central Daylight Time),241134.59999990463,1200,I,m,627,7,2,1845.5,239289.09999990463,8009,NTS,A,14
9,14,test,1,B,triangle.png,1,z,Tue Oct 21 2025 10:13:52 GMT-0500 (Central Daylight Time),243167.30000019073,1400,I,z,610,8,2,2028.2000002861023,241139.09999990463,8009,NTS,A,15
3,15,test,1,B,triangle.png,1,z,Tue Oct 21 2025 10:13:52 GMT-0500 (Central Daylight Time),245516.59999990463,1600,I,z,729,3,2,2345.0,243171.59999990463,8009,NTS,A,16
4,16,test,1,B,triangle.png,1,m,Tue Oct 21 2025 10:13:52 GMT-0500 (Central Daylight Time),247216.0,1000,I,m,676,12,2,1694.7999997138977,245521.2000002861,8009,NTS,A,17
7,17,test,1,B,triangle.png,1,z,Tue Oct 21 2025 10:13:52 GMT-0500 (Central Daylight Time),249931.7000002861,2000,I,z,697,6,2,2711.9000000953674,247219.80000019073,8009,NTS,A,18
2,18,test,1,B,triangle.png,1,m,Tue Oct 21 2025 10:13:52 GMT-0500 (Central Daylight Time),251981.2000002861,1200,I,m,821,10,2,2045.8000001907349,249935.40000009537,8009,NTS,A,19
9,19,test,1,B,triangle.png,1,z,Tue Oct 21 2025 10:13:52 GMT-0500 (Central Daylight Time),254730.30000019073,1400,I,z,1323,8,2,2745.2000002861023,251985.09999990463,8009,NTS,A,20
2,20,test,1,B,triangle.png,1,m,Tue Oct 21 2025 10:13:52 GMT-0500 (Central Daylight Time),257096.0,1700,I,m,642,2,2,2361.5,254734.5,8009,NTS,A,21
1,21,test,1,B,triangle.png,1,z,Tue Oct 21 2025 10:13:52 GMT-0500 (Central Daylight Time),259012.30000019073,1400,I,z,488,9,2,1912.5,257099.80000019073,8009,NTS,A,22
2,22,test,1,B,triangle.png,1,m,Tue Oct 21 2025 10:13:52 GMT-0500 (Central Daylight Time),260844.90000009537,1200,I,m,612,10,2,1829.0,259015.90000009537,8009,NTS,A,23
4,23,test,1,B,triangle.png,1,m,Tue Oct 21 2025 10:13:52 GMT-0500 (Central Daylight Time),263127.90000009537,1500,I,m,752,4,2,2279.0,260848.90000009537,8009,NTS,A,24
7,1,prac,1,C,triangle.png,1,z,Tue Oct 21 2025 10:13:52 GMT-0500 (Central Daylight Time),289602.7000002861,1200,I,z,1321,6,2,3310.5,286292.2000002861,8009,NTS,A,1
9,2,prac,1,C,circle.png,1,m,Tue Oct 21 2025 10:13:52 GMT-0500 (Central Daylight Time),292968.30000019073,1900,I,m,682,8,2,3360.300000190735,289608.0,8009,NTS,A,2
2,3,prac,1,C,triangle.png,1,m,Tue Oct 21 2025 10:13:52 GMT-0500 (Central Daylight Time),296533.90000009537,1600,I,m,1176,2,2,3560.800000190735,292973.09999990463,8009,NTS,A,3
1,4,prac,1,C,circle.png,1,z,Tue Oct 21 2025 10:13:52 GMT-0500 (Central Daylight Time),300016.09999990463,1700,I,z,982,1,2,3475.5999999046326,296540.5,8009,NTS,A,4
8,5,prac,1,C,triangle.png,1,m,Tue Oct 21 2025 10:13:52 GMT-0500 (Central Daylight Time),303416.40000009537,1400,I,m,1216,7,2,3394.9000000953674,300021.5,8009,NTS,A,5
8,6,prac,1,C,triangle.png,1,m,Tue Oct 21 2025 10:13:52 GMT-0500 (Central Daylight Time),306330.80000019073,1400,I,m,730,7,2,2909.0,303421.80000019073,8009,NTS,A,6
4,7,prac,1,C,circle.png,1,z,Tue Oct 21 2025 10:13:52 GMT-0500 (Central Daylight Time),309463.0,1000,I,z,1334,4,2,3126.2999997138977,306336.7000002861,8009,NTS,A,7
2,7,prac,1,C,triangle.png,0,m,Tue Oct 21 2025 10:13:52 GMT-0500 (Central Daylight Time),313361.80000019073,1600,I,None,1515,2,2,3893.7000002861023,309468.09999990463,8009,NTS,A,8
3,8,prac,1,C,triangle.png,1,z,Tue Oct 21 2025 10:13:52 GMT-0500 (Central Daylight Time),316560.80000019073,1500,I,z,907,3,2,3193.7000002861023,313367.09999990463,8009,NTS,A,9
1,9,prac,1,C,circle.png,1,z,Tue Oct 21 2025 10:13:52 GMT-0500 (Central Daylight Time),320026.59999990463,1700,I,z,972,1,2,3460.5999999046326,316566.0,8009,NTS,A,10
6,10,prac,1,C,circle.png,1,m,Tue Oct 21 2025 10:13:52 GMT-0500 (Central Daylight Time),323541.80000019073,2000,I,m,718,5,2,3510.0999999046326,320031.7000002861,8009,NTS,A,11
3,11,prac,1,C,triangle.png,1,z,Tue Oct 21 2025 10:13:52 GMT-0500 (Central Daylight Time),326607.5,1500,I,z,767,3,2,3060.4000000953674,323547.09999990463,8009,NTS,A,12
6,1,test,1,C,circle.png,1,m,Tue Oct 21 2025 10:13:52 GMT-0500 (Central Daylight Time),344868.5,1900,I,m,1196,21,2,3112.4000000953674,341756.09999990463,8009,NTS,A,1
7,2,test,1,C,triangle.png,1,z,Tue Oct 21 2025 10:13:52 GMT-0500 (Central Daylight Time),347467.5,1700,I,z,872,22,2,2594.699999809265,344872.80000019073,8009,NTS,A,2
3,3,test,1,C,circle.png,1,z,Tue Oct 21 2025 10:13:52 GMT-0500 (Central Daylight Time),350333.5,1600,I,z,1245,11,2,2862.199999809265,347471.30000019073,8009,NTS,A,3
7,4,test,1,C,triangle.png,1,z,Tue Oct 21 2025 10:13:52 GMT-0500 (Central Daylight Time),353382.40000009537,1700,I,z,1327,6,2,3045.300000190735,350337.09999990463,8009,NTS,A,4
9,5,test,1,C,triangle.png,1,z,Tue Oct 21 2025 10:13:52 GMT-0500 (Central Daylight Time),355865.2000002861,1400,I,z,1050,16,2,2478.9000000953674,353386.30000019073,8009,NTS,A,5
6,6,test,1,C,triangle.png,1,m,Tue Oct 21 2025 10:13:52 GMT-0500 (Central Daylight Time),357864.5,1000,I,m,967,13,2,1994.9000000953674,355869.59999990463,8009,NTS,A,6
8,7,test,1,C,triangle.png,1,m,Tue Oct 21 2025 10:13:52 GMT-0500 (Central Daylight Time),360347.0,1600,I,m,856,23,2,2478.7999997138977,357868.2000002861,8009,NTS,A,7
3,8,test,1,C,circle.png,1,z,Tue Oct 21 2025 10:13:52 GMT-0500 (Central Daylight Time),363179.5,1600,I,z,1214,19,2,2828.5,360351.0,8009,NTS,A,8
2,9,test,1,C,circle.png,1,z,Tue Oct 21 2025 10:13:52 GMT-0500 (Central Daylight Time),365578.7000002861,1700,I,z,673,18,2,2395.1000003814697,363183.59999990463,8009,NTS,A,9
8,10,test,1,C,circle.png,1,m,Tue Oct 21 2025 10:13:52 GMT-0500 (Central Daylight Time),367861.30000019073,1200,I,m,1054,15,2,2278.7000002861023,365582.59999990463,8009,NTS,A,10
1,11,test,1,C,circle.png,1,z,Tue Oct 21 2025 10:13:52 GMT-0500 (Central Daylight Time),369594.09999990463,1000,I,z,707,1,2,1728.2999997138977,367865.80000019073,8009,NTS,A,11
9,12,test,1,C,circle.png,1,m,Tue Oct 21 2025 10:13:52 GMT-0500 (Central Daylight Time),372376.59999990463,1500,I,m,1250,8,2,2778.7999997138977,369597.80000019073,8009,NTS,A,12
1,13,test,1,C,triangle.png,1,z,Tue Oct 21 2025 10:13:52 GMT-0500 (Central Daylight Time),375425.59999990463,1900,I,z,1124,9,2,3044.8999996185303,372380.7000002861,8009,NTS,A,13
9,13,test,1,C,circle.png,0,m,Tue Oct 21 2025 10:13:52 GMT-0500 (Central Daylight Time),378458.0,1500,I,None,1516,24,2,3028.699999809265,375429.30000019073,8009,NTS,A,14
4,14,test,1,C,circle.png,1,z,Tue Oct 21 2025 10:13:52 GMT-0500 (Central Daylight Time),381224.30000019073,1400,I,z,1334,4,2,2762.0,378462.30000019073,8009,NTS,A,15
4,15,test,1,C,triangle.png,1,m,Tue Oct 21 2025 10:13:52 GMT-0500 (Central Daylight Time),383589.7000002861,1500,I,m,836,12,2,2361.7000002861023,381228.0,8009,NTS,A,16
2,16,test,1,C,triangle.png,1,m,Tue Oct 21 2025 10:13:52 GMT-0500 (Central Daylight Time),386555.5,2000,I,m,948,2,2,2962.199999809265,383593.30000019073,8009,NTS,A,17
1,17,test,1,C,triangle.png,1,z,Tue Oct 21 2025 10:13:52 GMT-0500 (Central Daylight Time),389188.40000009537,1900,I,z,714,17,2,2629.0,386559.40000009537,8009,NTS,A,18
3,18,test,1,C,triangle.png,1,z,Tue Oct 21 2025 10:13:52 GMT-0500 (Central Daylight Time),391737.5,1200,I,z,1316,3,2,2545.0999999046326,389192.40000009537,8009,NTS,A,19
4,19,test,1,C,triangle.png,1,m,Tue Oct 21 2025 10:13:52 GMT-0500 (Central Daylight Time),393970.0,1500,I,m,707,20,2,2228.7999997138977,391741.2000002861,8009,NTS,A,20
2,20,test,1,C,circle.png,1,z,Tue Oct 21 2025 10:13:52 GMT-0500 (Central Daylight Time),396802.2000002861,1700,I,z,1115,10,2,2828.5,393973.7000002861,8009,NTS,A,21
6,21,test,1,C,circle.png,1,m,Tue Oct 21 2025 10:13:52 GMT-0500 (Central Daylight Time),399451.59999990463,1900,I,m,723,5,2,2645.5,396806.09999990463,8009,NTS,A,22
7,22,test,1,C,circle.png,1,m,Tue Oct 21 2025 10:13:52 GMT-0500 (Central Daylight Time),402684.0,2000,I,m,1206,14,2,3228.5,399455.5,8009,NTS,A,23
8,23,test,1,C,triangle.png,1,m,Tue Oct 21 2025 10:13:52 GMT-0500 (Central Daylight Time),405266.2000002861,1600,I,m,965,7,2,2578.5,402687.7000002861,8009,NTS,A,24
8,0,test,2,C,triangle.png,0,m,Tue Oct 21 2025 10:13:52 GMT-0500 (Central Daylight Time),413330.80000019073,1600,I,None,1516,7,2,3129.0,410201.80000019073,8009,NTS,A,1
8,0,test,2,C,circle.png,0,m,Tue Oct 21 2025 10:13:52 GMT-0500 (Central Daylight Time),415313.40000009537,1200,I,z,750,23,2,1977.9000000953674,413335.5,8009,NTS,A,2
7,1,test,2,C,circle.png,1,m,Tue Oct 21 2025 10:13:52 GMT-0500 (Central Daylight Time),418795.5,2000,I,m,1456,14,2,3478.5999999046326,415316.90000009537,8009,NTS,A,3
6,2,test,2,C,circle.png,1,m,Tue Oct 21 2025 10:13:52 GMT-0500 (Central Daylight Time),421378.2000002861,1900,I,m,657,5,2,2579.0,418799.2000002861,8009,NTS,A,4
2,3,test,2,C,circle.png,1,z,Tue Oct 21 2025 10:13:52 GMT-0500 (Central Daylight Time),423794.30000019073,1700,I,z,692,18,2,2412.4000000953674,421381.90000009537,8009,NTS,A,5
1,4,test,2,C,circle.png,1,z,Tue Oct 21 2025 10:13:52 GMT-0500 (Central Daylight Time),425476.40000009537,1000,I,z,654,1,2,1678.3000001907349,423798.09999990463,8009,NTS,A,6
8,5,test,2,C,circle.png,1,m,Tue Oct 21 2025 10:13:52 GMT-0500 (Central Daylight Time),427309.5,1200,I,m,612,15,2,1829.5,425480.0,8009,NTS,A,7
4,6,test,2,C,triangle.png,1,m,Tue Oct 21 2025 10:13:52 GMT-0500 (Central Daylight Time),429703.30000019073,1500,I,m,877,12,2,2390.0,427313.30000019073,8009,NTS,A,8
3,6,test,2,C,circle.png,0,z,Tue Oct 21 2025 10:13:52 GMT-0500 (Central Daylight Time),432074.90000009537,1600,I,m,741,11,2,2366.300000190735,429708.59999990463,8009,NTS,A,9
9,7,test,2,C,triangle.png,1,z,Tue Oct 21 2025 10:13:52 GMT-0500 (Central Daylight Time),434473.90000009537,1400,I,z,967,24,2,2395.0999999046326,432078.80000019073,8009,NTS,A,10
3,8,test,2,C,circle.png,1,z,Tue Oct 21 2025 10:13:52 GMT-0500 (Central Daylight Time),436840.0,1600,I,z,744,19,2,2362.0,434478.0,8009,NTS,A,11
7,9,test,2,C,circle.png,1,m,Tue Oct 21 2025 10:13:52 GMT-0500 (Central Daylight Time),439638.90000009537,2000,I,m,770,22,2,2795.199999809265,436843.7000002861,8009,NTS,A,12
7,10,test,2,C,triangle.png,1,z,Tue Oct 21 2025 10:13:52 GMT-0500 (Central Daylight Time),442854.59999990463,1700,I,z,1494,6,2,3212.0,439642.59999990463,8009,NTS,A,13
6,11,test,2,C,triangle.png,1,m,Tue Oct 21 2025 10:13:52 GMT-0500 (Central Daylight Time),444837.30000019073,1000,I,m,962,13,2,1978.7000002861023,442858.59999990463,8009,NTS,A,14
4,12,test,2,C,circle.png,1,z,Tue Oct 21 2025 10:13:52 GMT-0500 (Central Daylight Time),447203.7000002861,1400,I,z,939,4,2,2362.300000190735,444841.40000009537,8009,NTS,A,15
6,12,test,2,C,triangle.png,0,m,Tue Oct 21 2025 10:13:52 GMT-0500 (Central Daylight Time),449619.40000009537,1000,I,z,1390,21,2,2412.199999809265,447207.2000002861,8009,NTS,A,16
9,13,test,2,C,triangle.png,1,z,Tue Oct 21 2025 10:13:52 GMT-0500 (Central Daylight Time),451785.30000019073,1400,I,z,734,16,2,2162.300000190735,449623.0,8009,NTS,A,17
3,13,test,2,C,triangle.png,0,z,Tue Oct 21 2025 10:13:52 GMT-0500 (Central Daylight Time),454050.90000009537,1200,I,m,1048,3,2,2261.5,451789.40000009537,8009,NTS,A,18
4,13,test,2,C,triangle.png,0,m,Tue Oct 21 2025 10:13:52 GMT-0500 (Central Daylight Time),456517.2000002861,1500,I,z,938,20,2,2462.4000000953674,454054.80000019073,8009,NTS,A,19
2,13,test,2,C,triangle.png,0,m,Tue Oct 21 2025 10:13:52 GMT-0500 (Central Daylight Time),460049.59999990463,2000,I,None,1516,2,2,3528.3999996185303,456521.2000002861,8009,NTS,A,20
1,14,test,2,C,triangle.png,1,z,Tue Oct 21 2025 10:13:52 GMT-0500 (Central Daylight Time),463098.2000002861,1900,I,z,1131,9,2,3044.0,460054.2000002861,8009,NTS,A,21
2,15,test,2,C,circle.png,1,z,Tue Oct 21 2025 10:13:52 GMT-0500 (Central Daylight Time),465780.59999990463,1700,I,z,955,10,2,2677.0,463103.59999990463,8009,NTS,A,22
1,16,test,2,C,triangle.png,1,z,Tue Oct 21 2025 10:13:52 GMT-0500 (Central Daylight Time),469079.59999990463,1900,I,z,1377,17,2,3295.199999809265,465784.40000009537,8009,NTS,A,23
9,17,test,2,C,circle.png,1,m,Tue Oct 21 2025 10:13:52 GMT-0500 (Central Daylight Time),471745.59999990463,1500,I,m,1134,8,2,2661.8999996185303,469083.7000002861,8009,NTS,A,24
6,0,test,3,C,triangle.png,0,m,Tue Oct 21 2025 10:13:52 GMT-0500 (Central Daylight Time),475377.90000009537,1000,I,None,1516,13,2,2529.4000000953674,472848.5,8009,NTS,A,1
9,0,test,3,C,circle.png,0,m,Tue Oct 21 2025 10:13:52 GMT-0500 (Central Daylight Time),477860.40000009537,1500,I,z,969,24,2,2478.800000190735,475381.59999990463,8009,NTS,A,2
6,1,test,3,C,circle.png,1,m,Tue Oct 21 2025 10:13:52 GMT-0500 (Central Daylight Time),481059.09999990463,1900,I,m,1282,5,2,3195.199999809265,477863.90000009537,8009,NTS,A,3
1,2,test,3,C,circle.png,1,z,Tue Oct 21 2025 10:13:52 GMT-0500 (Central Daylight Time),482725.30000019073,1000,I,z,637,1,2,1662.5,481062.80000019073,8009,NTS,A,4
8,3,test,3,C,triangle.png,1,m,Tue Oct 21 2025 10:13:52 GMT-0500 (Central Daylight Time),485158.0,1600,I,m,811,23,2,2428.699999809265,482729.30000019073,8009,NTS,A,5
3,4,test,3,C,triangle.png,1,z,Tue Oct 21 2025 10:13:52 GMT-0500 (Central Daylight Time),487174.0,1200,I,z,787,19,2,2012.0,485162.0,8009,NTS,A,6
9,5,test,3,C,triangle.png,1,z,Tue Oct 21 2025 10:13:52 GMT-0500 (Central Daylight Time),489289.90000009537,1400,I,z,699,16,2,2112.4000000953674,487177.5,8009,NTS,A,7
6,6,test,3,C,circle.png,1,m,Tue Oct 21 2025 10:13:52 GMT-0500 (Central Daylight Time),492106.09999990463,1900,I,m,891,21,2,2812.699999809265,489293.40000009537,8009,NTS,A,8
1,7,test,3,C,circle.png,1,z,Tue Oct 21 2025 10:13:52 GMT-0500 (Central Daylight Time),493888.5,1000,I,z,759,17,2,1778.0,492110.5,8009,NTS,A,9
1,8,test,3,C,triangle.png,1,z,Tue Oct 21 2025 10:13:52 GMT-0500 (Central Daylight Time),496754.09999990463,1900,I,z,948,9,2,2861.7999997138977,493892.30000019073,8009,NTS,A,10
4,8,test,3,C,circle.png,0,z,Tue Oct 21 2025 10:13:52 GMT-0500 (Central Daylight Time),499536.7000002861,1400,I,m,1350,4,2,2778.9000000953674,496757.80000019073,8009,NTS,A,11
3,9,test,3,C,circle.png,1,z,Tue Oct 21 2025 10:13:52 GMT-0500 (Central Daylight Time),501702.90000009537,1600,I,z,536,11,2,2162.5,499540.40000009537,8009,NTS,A,12
7,10,test,3,C,circle.png,1,m,Tue Oct 21 2025 10:13:52 GMT-0500 (Central Daylight Time),504402.2000002861,2000,I,m,675,14,2,2695.6000003814697,501706.59999990463,8009,NTS,A,13
8,11,test,3,C,circle.png,1,m,Tue Oct 21 2025 10:13:52 GMT-0500 (Central Daylight Time),506335.0,1200,I,m,703,15,2,1928.6999998092651,504406.30000019073,8009,NTS,A,14
3,12,test,3,C,triangle.png,1,z,Tue Oct 21 2025 10:13:52 GMT-0500 (Central Daylight Time),508467.0,1200,I,z,914,3,2,2128.0999999046326,506338.90000009537,8009,NTS,A,15
7,13,test,3,C,triangle.png,1,z,Tue Oct 21 2025 10:13:52 GMT-0500 (Central Daylight Time),511299.80000019073,1700,I,z,1106,22,2,2829.300000190735,508470.5,8009,NTS,A,16
4,14,test,3,C,triangle.png,1,m,Tue Oct 21 2025 10:13:52 GMT-0500 (Central Daylight Time),513799.0,1500,I,m,978,12,2,2495.2999997138977,511303.7000002861,8009,NTS,A,17
7,15,test,3,C,triangle.png,1,z,Tue Oct 21 2025 10:13:52 GMT-0500 (Central Daylight Time),516364.90000009537,1700,I,z,839,6,2,2561.9000000953674,513803.0,8009,NTS,A,18
8,16,test,3,C,triangle.png,1,m,Tue Oct 21 2025 10:13:52 GMT-0500 (Central Daylight Time),518564.2000002861,1600,I,m,573,7,2,2195.1000003814697,516369.09999990463,8009,NTS,A,19
2,17,test,3,C,triangle.png,1,m,Tue Oct 21 2025 10:13:52 GMT-0500 (Central Daylight Time),521679.7000002861,2000,I,m,1093,2,2,3111.7000002861023,518568.0,8009,NTS,A,20
9,18,test,3,C,circle.png,1,m,Tue Oct 21 2025 10:13:52 GMT-0500 (Central Daylight Time),524429.2000002861,1500,I,m,1222,8,2,2745.6000003814697,521683.59999990463,8009,NTS,A,21
2,18,test,3,C,triangle.png,0,m,Tue Oct 21 2025 10:13:52 GMT-0500 (Central Daylight Time),527461.3000001907,2000,I,z,1012,18,2,3028.0999999046326,524433.2000002861,8009,NTS,A,22
2,19,test,3,C,circle.png,1,z,Tue Oct 21 2025 10:13:52 GMT-0500 (Central Daylight Time),529827.5999999046,1700,I,z,640,10,2,2362.699999809265,527464.9000000954,8009,NTS,A,23
4,20,test,3,C,circle.png,1,z,Tue Oct 21 2025 10:13:52 GMT-0500 (Central Daylight Time),531893.3000001907,1400,I,z,638,20,2,2062.0,529831.3000001907,8009,NTS,A,24
7,1,test,4,C,triangle.png,1,z,Tue Oct 21 2025 10:13:52 GMT-0500 (Central Daylight Time),536325.5,1700,I,z,1012,22,2,2729.2999997138977,533596.2000002861,8009,NTS,A,1
9,2,test,4,C,circle.png,1,m,Tue Oct 21 2025 10:13:52 GMT-0500 (Central Daylight Time),538607.9000000954,1500,I,m,751,24,2,2278.699999809265,536329.2000002861,8009,NTS,A,2
3,3,test,4,C,triangle.png,1,z,Tue Oct 21 2025 10:13:52 GMT-0500 (Central Daylight Time),540590.5,1200,I,z,761,19,2,1978.2999997138977,538612.2000002861,8009,NTS,A,3
6,4,test,4,C,circle.png,1,m,Tue Oct 21 2025 10:13:52 GMT-0500 (Central Daylight Time),543189.8000001907,1900,I,m,671,21,2,2595.5,540594.3000001907,8009,NTS,A,4
6,5,test,4,C,triangle.png,1,m,Tue Oct 21 2025 10:13:52 GMT-0500 (Central Daylight Time),545173.7000002861,1000,I,m,964,13,2,1980.2000002861023,543193.5,8009,NTS,A,5
1,6,test,4,C,triangle.png,1,z,Tue Oct 21 2025 10:13:52 GMT-0500 (Central Daylight Time),547707.2000002861,1900,I,z,600,9,2,2529.2000002861023,545178.0,8009,NTS,A,6
4,6,test,4,C,circle.png,0,z,Tue Oct 21 2025 10:13:52 GMT-0500 (Central Daylight Time),549737.5999999046,1400,I,m,615,20,2,2026.2999997138977,547711.3000001907,8009,NTS,A,7
2,6,test,4,C,triangle.png,0,m,Tue Oct 21 2025 10:13:52 GMT-0500 (Central Daylight Time),552620.2000002861,2000,I,z,863,18,2,2878.9000000953674,549741.3000001907,8009,NTS,A,8
2,7,test,4,C,circle.png,1,z,Tue Oct 21 2025 10:13:52 GMT-0500 (Central Daylight Time),554935.9000000954,1700,I,z,593,10,2,2311.699999809265,552624.2000002861,8009,NTS,A,9
9,7,test,4,C,circle.png,0,m,Tue Oct 21 2025 10:13:52 GMT-0500 (Central Daylight Time),557318.5,1500,I,z,860,8,2,2378.5999999046326,554939.9000000954,8009,NTS,A,10
1,8,test,4,C,circle.png,1,z,Tue Oct 21 2025 10:13:52 GMT-0500 (Central Daylight Time),559051.4000000954,1000,I,z,706,1,2,1728.9000000953674,557322.5,8009,NTS,A,11
4,9,test,4,C,triangle.png,1,m,Tue Oct 21 2025 10:13:52 GMT-0500 (Central Daylight Time),561484.0,1500,I,m,905,12,2,2428.9000000953674,559055.0999999046,8009,NTS,A,12
8,10,test,4,C,triangle.png,1,m,Tue Oct 21 2025 10:13:52 GMT-0500 (Central Daylight Time),563749.9000000954,1600,I,m,646,7,2,2261.699999809265,561488.2000002861,8009,NTS,A,13
3,11,test,4,C,circle.png,1,z,Tue Oct 21 2025 10:13:52 GMT-0500 (Central Daylight Time),566415.8000001907,1600,I,z,1043,11,2,2661.9000000953674,563753.9000000954,8009,NTS,A,14
6,12,test,4,C,circle.png,1,m,Tue Oct 21 2025 10:13:52 GMT-0500 (Central Daylight Time),569265.0,1900,I,m,926,5,2,2845.2999997138977,566419.7000002861,8009,NTS,A,15
8,13,test,4,C,circle.png,1,m,Tue Oct 21 2025 10:13:52 GMT-0500 (Central Daylight Time),571175.8000001907,1200,I,m,694,15,2,1906.8000001907349,569269.0,8009,NTS,A,16
2,13,test,4,C,triangle.png,0,m,Tue Oct 21 2025 10:13:52 GMT-0500 (Central Daylight Time),573896.7000002861,2000,I,z,692,2,2,2716.800000190735,571179.9000000954,8009,NTS,A,17
7,14,test,4,C,triangle.png,1,z,Tue Oct 21 2025 10:13:52 GMT-0500 (Central Daylight Time),576462.8000001907,1700,I,z,845,6,2,2561.7000002861023,573901.0999999046,8009,NTS,A,18
8,15,test,4,C,triangle.png,1,m,Tue Oct 21 2025 10:13:52 GMT-0500 (Central Daylight Time),578978.5,1600,I,m,891,23,2,2511.5999999046326,576466.9000000954,8009,NTS,A,19
9,16,test,4,C,triangle.png,1,z,Tue Oct 21 2025 10:13:52 GMT-0500 (Central Daylight Time),581077.5999999046,1400,I,z,670,16,2,2095.5,578982.0999999046,8009,NTS,A,20
7,17,test,4,C,circle.png,1,m,Tue Oct 21 2025 10:13:52 GMT-0500 (Central Daylight Time),584361.0999999046,2000,I,m,1251,14,2,3279.5,581081.5999999046,8009,NTS,A,21
3,18,test,4,C,triangle.png,1,z,Tue Oct 21 2025 10:13:52 GMT-0500 (Central Daylight Time),586459.3000001907,1200,I,z,880,3,2,2094.4000000953674,584364.9000000954,8009,NTS,A,22
1,19,test,4,C,circle.png,1,z,Tue Oct 21 2025 10:13:52 GMT-0500 (Central Daylight Time),588058.8000001907,1000,I,z,582,17,2,1594.5,586464.3000001907,8009,NTS,A,23
4,20,test,4,C,circle.png,1,z,Tue Oct 21 2025 10:13:52 GMT-0500 (Central Daylight Time),590208.4000000954,1400,I,z,726,4,2,2146.0999999046326,588062.3000001907,8009,NTS,A,24
