acc_sum,block_c,block_dur,condition,correct,correct_response,countdown,datetime,endtime,project,response,response_time,response_time_test1_response,response_time_test2_response,row_sel,same,session_number,start_end,starttime,stim1,stim2,subject_id,task,task_vers,time_test1,time_test2,trial
1,1,0.0,prac,1,z,30000.0,Thu Sep 11 2025 16:13:32 GMT-0400 (Eastern Daylight Time),49089.699999809265,I,z,1409,,,1,yes,2,2942.199999809265,46147.5,practrial1.png,practrial1.png,9024,PC,A,,,1
2,1,0.0,prac,1,z,30000.0,Thu Sep 11 2025 16:13:32 GMT-0400 (Eastern Daylight Time),52156.300000190735,I,z,1530,,,5,yes,2,3056.6000003814697,49099.699999809265,practrial5.png,practrial5.png,9024,PC,A,,,2
2,1,0.0,prac,0,m,30000.0,Thu Sep 11 2025 16:13:32 GMT-0400 (Eastern Daylight Time),55072.699999809265,I,z,1377,,,6,no,2,2908.8999996185303,52163.800000190735,practrial6.png,practrial6b.png,9024,PC,A,,,3
3,1,0.0,prac,1,m,30000.0,Thu Sep 11 2025 16:13:32 GMT-0400 (Eastern Daylight Time),57889.5,I,m,1273,,,2,no,2,2806.199999809265,55083.300000190735,practrial2.png,practrial2b.png,9024,PC,A,,,4
4,1,0.0,prac,1,m,30000.0,Thu Sep 11 2025 16:13:32 GMT-0400 (Eastern Daylight Time),61722.900000572205,I,m,2299,,,4,no,2,3825.4000005722046,57897.5,practrial4.png,practrial4b.png,9024,PC,A,,,5
5,1,0.0,prac,1,z,30000.0,Thu Sep 11 2025 16:13:32 GMT-0400 (Eastern Daylight Time),64922.800000190735,I,z,1665,,,3,yes,2,3191.0,61731.800000190735,practrial3.png,practrial3.png,9024,PC,A,,,6
1,1,1.682999849319458,test,1,z,28317.000150680542,Thu Sep 11 2025 16:13:32 GMT-0400 (Eastern Daylight Time),81290.0,I,z,1673,1673,,1,yes,2,1677.3000001907349,79612.69999980927,test1trial1.png,test1trial1.png,9024,PC,A,73223,,1
2,1,3.065999984741211,test,1,m,26934.00001525879,Thu Sep 11 2025 16:13:32 GMT-0400 (Eastern Daylight Time),82672.80000019073,I,m,1364,1364,,2,no,2,1374.8000001907349,81298.0,test1trial2.png,test1trial2b.png,9024,PC,A,74908,,2
3,1,4.83299994468689,test,1,z,25167.00005531311,Thu Sep 11 2025 16:13:32 GMT-0400 (Eastern Daylight Time),84439.4000005722,I,z,1751,1751,,3,yes,2,1755.7000007629395,82683.69999980927,test1trial3.png,test1trial3.png,9024,PC,A,76296,,3
4,1,6.349999904632568,test,1,m,23650.00009536743,Thu Sep 11 2025 16:13:32 GMT-0400 (Eastern Daylight Time),85956.30000019073,I,m,1492,1492,,4,no,2,1507.3999996185303,84448.9000005722,test1trial4.png,test1trial4b.png,9024,PC,A,78059,,4
5,1,7.882999897003174,test,1,z,22117.000102996826,Thu Sep 11 2025 16:13:32 GMT-0400 (Eastern Daylight Time),87489.69999980927,I,z,1511,1511,,5,yes,2,1524.0999994277954,85965.60000038147,test1trial5.png,test1trial5.png,9024,PC,A,79576,,5
6,1,9.282999992370605,test,1,m,20717.000007629395,Thu Sep 11 2025 16:13:32 GMT-0400 (Eastern Daylight Time),88889.5,I,m,1389,1389,,6,no,2,1393.5999994277954,87495.9000005722,test1trial6.png,test1trial6b.png,9024,PC,A,81106,,6
7,1,10.532999992370605,test,1,z,19467.000007629395,Thu Sep 11 2025 16:13:32 GMT-0400 (Eastern Daylight Time),90139.69999980927,I,z,1237,1237,,7,yes,2,1242.3999996185303,88897.30000019073,test1trial7.png,test1trial7.png,9024,PC,A,82507,,7
7,1,12.932999849319458,test,0,m,17067.000150680542,Thu Sep 11 2025 16:13:32 GMT-0400 (Eastern Daylight Time),92539.5,I,z,2387,2387,,8,no,2,2393.5999994277954,90145.9000005722,test1trial8.png,test1trial8b.png,9024,PC,A,83756,,8
8,1,14.3989999294281,test,1,z,15601.0000705719,Thu Sep 11 2025 16:13:32 GMT-0400 (Eastern Daylight Time),94005.60000038147,I,z,1442,1442,,9,yes,2,1459.6999998092651,92545.9000005722,test1trial9.png,test1trial9.png,9024,PC,A,86156,,9
9,1,15.899999856948853,test,1,m,14100.000143051147,Thu Sep 11 2025 16:13:32 GMT-0400 (Eastern Daylight Time),95506.30000019073,I,m,1483,1483,,10,no,2,1496.8999996185303,94009.4000005722,test1trial10.png,test1trial10b.png,9024,PC,A,87620,,10
10,1,17.33299994468689,test,1,z,12667.00005531311,Thu Sep 11 2025 16:13:32 GMT-0400 (Eastern Daylight Time),96939.60000038147,I,z,1421,1421,,11,yes,2,1426.3000001907349,95513.30000019073,test1trial11.png,test1trial11.png,9024,PC,A,89123,,11
10,1,19.33299994468689,test,0,m,10667.00005531311,Thu Sep 11 2025 16:13:32 GMT-0400 (Eastern Daylight Time),98939.5,I,z,1988,1988,,12,no,2,1993.6999998092651,96945.80000019073,test1trial12.png,test1trial12b.png,9024,PC,A,90556,,12
11,1,21.382999897003174,test,1,m,8617.000102996826,Thu Sep 11 2025 16:13:32 GMT-0400 (Eastern Daylight Time),100989.4000005722,I,m,2034,2034,,13,no,2,2042.1000003814697,98947.30000019073,test1trial13.png,test1trial13b.png,9024,PC,A,92557,,13
12,1,24.848999977111816,test,1,m,5151.000022888184,Thu Sep 11 2025 16:13:32 GMT-0400 (Eastern Daylight Time),104456.0,I,m,3457,3457,,14,no,2,3460.5999994277954,100995.4000005722,test1trial14.png,test1trial14b.png,9024,PC,A,94606,,14
13,1,26.799999952316284,test,1,z,3200.000047683716,Thu Sep 11 2025 16:13:32 GMT-0400 (Eastern Daylight Time),106406.19999980927,I,z,1926,1926,,15,yes,2,1942.7999992370605,104463.4000005722,test1trial15.png,test1trial15.png,9024,PC,A,98073,,15
14,1,28.01699995994568,test,1,m,1983.0000400543213,Thu Sep 11 2025 16:13:32 GMT-0400 (Eastern Daylight Time),107623.10000038147,I,m,1208,1208,,16,no,2,1209.5,106413.60000038147,test1trial16.png,test1trial16b.png,9024,PC,A,100024,,16
14,1,30.01699995994568,test,0,z,-16.99995994567871,Thu Sep 11 2025 16:13:32 GMT-0400 (Eastern Daylight Time),109623.10000038147,I,None,1993,1993,,17,yes,2,1993.8000001907349,107629.30000019073,test1trial17.png,test1trial17.png,9024,PC,A,101239,,17
1,2,2.933000087738037,test,1,m,27066.999912261963,Thu Sep 11 2025 16:13:32 GMT-0400 (Eastern Daylight Time),119356.60000038147,I,m,2919,,2919.0,1,no,2,11727.300000190735,107629.30000019073,test2trial1.png,test2trial1b.png,9024,PC,A,,110040.0,1
1,2,4.749000072479248,test,0,m,25250.999927520752,Thu Sep 11 2025 16:13:32 GMT-0400 (Eastern Daylight Time),121173.0,I,z,1792,,1792.0,2,no,2,13543.699999809265,107629.30000019073,test2trial2.png,test2trial2b.png,9024,PC,A,,112975.0,2
2,2,6.631999969482422,test,1,z,23368.000030517578,Thu Sep 11 2025 16:13:32 GMT-0400 (Eastern Daylight Time),123055.9000005722,I,z,1862,,1862.0,3,yes,2,15426.60000038147,107629.30000019073,test2trial3.png,test2trial3.png,9024,PC,A,,114793.0,3
3,2,8.299000024795532,test,1,z,21700.999975204468,Thu Sep 11 2025 16:13:32 GMT-0400 (Eastern Daylight Time),124723.10000038147,I,z,1649,,1649.0,4,yes,2,17093.800000190735,107629.30000019073,test2trial4.png,test2trial4.png,9024,PC,A,,116671.0,4
4,2,9.91599988937378,test,1,z,20084.00011062622,Thu Sep 11 2025 16:13:32 GMT-0400 (Eastern Daylight Time),126339.69999980927,I,z,1596,,1596.0,5,yes,2,18710.39999961853,107629.30000019073,test2trial5.png,test2trial5.png,9024,PC,A,,118339.0,5
5,2,11.483000040054321,test,1,z,18516.99995994568,Thu Sep 11 2025 16:13:32 GMT-0400 (Eastern Daylight Time),127906.30000019073,I,z,1546,,1546.0,6,yes,2,20277.0,107629.30000019073,test2trial6.png,test2trial6.png,9024,PC,A,,119958.0,6
6,2,13.749000072479248,test,1,m,16250.999927520752,Thu Sep 11 2025 16:13:32 GMT-0400 (Eastern Daylight Time),130172.69999980927,I,m,2251,,2251.0,7,no,2,22543.39999961853,107629.30000019073,test2trial7.png,test2trial7b.png,9024,PC,A,,121524.0,7
7,2,15.483000040054321,test,1,m,14516.999959945679,Thu Sep 11 2025 16:13:32 GMT-0400 (Eastern Daylight Time),131906.30000019073,I,m,1711,,1711.0,8,no,2,24277.0,107629.30000019073,test2trial8.png,test2trial8b.png,9024,PC,A,,123792.0,8
8,2,17.615999937057495,test,1,z,12384.000062942505,Thu Sep 11 2025 16:13:32 GMT-0400 (Eastern Daylight Time),134039.5,I,z,2120,,2120.0,9,yes,2,26410.199999809265,107629.30000019073,test2trial9.png,test2trial9.png,9024,PC,A,,125527.0,9
9,2,19.016000032424927,test,1,z,10983.999967575073,Thu Sep 11 2025 16:13:32 GMT-0400 (Eastern Daylight Time),135439.69999980927,I,z,1385,,1385.0,10,yes,2,27810.39999961853,107629.30000019073,test2trial10.png,test2trial10.png,9024,PC,A,,127655.0,10
10,2,20.749000072479248,test,1,m,9250.999927520752,Thu Sep 11 2025 16:13:32 GMT-0400 (Eastern Daylight Time),137172.4000005722,I,m,1710,,1710.0,11,no,2,29543.10000038147,107629.30000019073,test2trial11.png,test2trial11b.png,9024,PC,A,,129057.0,11
11,2,23.115999937057495,test,1,m,6884.000062942505,Thu Sep 11 2025 16:13:32 GMT-0400 (Eastern Daylight Time),139539.69999980927,I,m,2350,,2350.0,12,no,2,31910.39999961853,107629.30000019073,test2trial12.png,test2trial12b.png,9024,PC,A,,130786.0,12
12,2,24.6489999294281,test,1,z,5351.000070571899,Thu Sep 11 2025 16:13:32 GMT-0400 (Eastern Daylight Time),141073.0,I,z,1512,,1512.0,13,yes,2,33443.699999809265,107629.30000019073,test2trial13.png,test2trial13.png,9024,PC,A,,133159.0,13
12,2,26.966000080108643,test,0,m,3033.9999198913574,Thu Sep 11 2025 16:13:32 GMT-0400 (Eastern Daylight Time),143389.69999980927,I,z,2301,,2301.0,14,no,2,35760.39999961853,107629.30000019073,test2trial14.png,test2trial14b.png,9024,PC,A,,134690.0,14
13,2,28.098999977111816,test,1,m,1901.0000228881836,Thu Sep 11 2025 16:13:32 GMT-0400 (Eastern Daylight Time),144523.0,I,m,1119,,1119.0,15,no,2,36893.699999809265,107629.30000019073,test2trial15.png,test2trial15b.png,9024,PC,A,,137008.0,15
13,2,29.716000080108643,test,0,m,283.9999198913574,Thu Sep 11 2025 16:13:32 GMT-0400 (Eastern Daylight Time),146139.80000019073,I,z,1603,,1603.0,16,no,2,38510.5,107629.30000019073,test2trial16.png,test2trial16b.png,9024,PC,A,,138140.0,16
13,2,30.016000032424927,test,0,z,-16.000032424926758,Thu Sep 11 2025 16:13:32 GMT-0400 (Eastern Daylight Time),146439.69999980927,I,None,291,,291.0,17,yes,2,38810.39999961853,107629.30000019073,test2trial17.png,test2trial17.png,9024,PC,A,,139757.0,17
