acc_sum,block,block_c,change,condition,correct,correct_response,datetime,endtime,face,project,response,response_time,row_sel,session_number,start_end,starttime,subject_id,task,task_vers,trial
0,prac,1,,1-Back,,,Mon Dec 08 2025 09:04:50 GMT-0600 (Central Standard Time),,005_o_f_d_a.png,I,space,3718,1,2,,,8064,VNB,B,0
1,prac,1,0.0,1-Back,1.0,m,Mon Dec 08 2025 09:04:50 GMT-0600 (Central Standard Time),119580.5,020_y_f_n_a.png,I,m,1720,2,2,2586.5,116994.0,8064,VNB,B,1
2,prac,1,0.0,1-Back,1.0,m,Mon Dec 08 2025 09:04:50 GMT-0600 (Central Standard Time),121996.70000004768,007_m_m_h_a.png,I,m,1521,3,2,2405.899999976158,119590.80000007153,8064,VNB,B,2
3,prac,1,0.0,1-Back,1.0,m,Mon Dec 08 2025 09:04:50 GMT-0600 (Central Standard Time),124013.10000002384,016_y_m_d_a.png,I,m,1128,4,2,2006.5,122006.60000002384,8064,VNB,B,3
4,prac,1,0.0,1-Back,1.0,m,Mon Dec 08 2025 09:04:50 GMT-0600 (Central Standard Time),126028.5,005_o_f_n_a.png,I,m,1135,5,2,2005.6999999284744,124022.80000007153,8064,VNB,B,4
5,prac,1,1.0,1-Back,1.0,z,Mon Dec 08 2025 09:04:50 GMT-0600 (Central Standard Time),127944.60000002384,016_y_m_n_a.png,I,z,1028,6,2,1907.8999999761581,126036.70000004768,8064,VNB,B,5
6,prac,1,0.0,1-Back,1.0,m,Mon Dec 08 2025 09:04:50 GMT-0600 (Central Standard Time),129810.40000009537,004_o_m_h_a.png,I,m,999,7,2,1856.4000000953674,127954.0,8064,VNB,B,6
7,prac,1,0.0,1-Back,1.0,m,Mon Dec 08 2025 09:04:50 GMT-0600 (Central Standard Time),131527.0,011_m_f_d_a.png,I,m,840,8,2,1706.5,129820.5,8064,VNB,B,7
8,prac,1,1.0,1-Back,1.0,z,Mon Dec 08 2025 09:04:50 GMT-0600 (Central Standard Time),133259.5,020_y_f_d_a.png,I,z,852,9,2,1722.1999999284744,131537.30000007153,8064,VNB,B,8
9,prac,1,0.0,1-Back,1.0,m,Mon Dec 08 2025 09:04:50 GMT-0600 (Central Standard Time),135175.70000004768,007_m_m_n_a.png,I,m,1026,10,2,1905.7999999523163,133269.90000009537,8064,VNB,B,9
10,prac,1,0.0,1-Back,1.0,m,Mon Dec 08 2025 09:04:50 GMT-0600 (Central Standard Time),136941.90000009537,005_o_f_h_a.png,I,m,883,11,2,1757.6000000238419,135184.30000007153,8064,VNB,B,10
11,prac,1,0.0,1-Back,1.0,m,Mon Dec 08 2025 09:04:50 GMT-0600 (Central Standard Time),138657.70000004768,016_y_m_d_a.png,I,m,823,12,2,1707.5,136950.20000004768,8064,VNB,B,11
0,test,1,0.0,1-Back,,,Mon Dec 08 2025 09:04:50 GMT-0600 (Central Standard Time),138657.70000004768,020_y_f_d_a.png,I,space,2005,1,2,1707.5,136950.20000004768,8064,VNB,B,0
1,test,1,0.0,1-Back,1.0,m,Mon Dec 08 2025 09:04:50 GMT-0600 (Central Standard Time),150363.0,011_m_f_n_a.png,I,m,1025,2,2,2036.5,148326.5,8064,VNB,B,1
2,test,1,0.0,1-Back,1.0,m,Mon Dec 08 2025 09:04:50 GMT-0600 (Central Standard Time),152520.20000004768,004_o_m_h_a.png,I,m,990,3,2,2011.1000000238419,150509.10000002384,8064,VNB,B,2
3,test,1,1.0,1-Back,1.0,z,Mon Dec 08 2025 09:04:50 GMT-0600 (Central Standard Time),154602.80000007153,007_m_m_h_a.png,I,z,1054,4,2,2077.0,152525.80000007153,8064,VNB,B,3
4,test,1,0.0,1-Back,1.0,m,Mon Dec 08 2025 09:04:50 GMT-0600 (Central Standard Time),156385.70000004768,005_o_f_n_a.png,I,m,763,5,2,1777.2000000476837,154608.5,8064,VNB,B,4
4,test,1,0.0,1-Back,0.0,m,Mon Dec 08 2025 09:04:50 GMT-0600 (Central Standard Time),159418.20000004768,016_y_m_d_a.png,I,None,2016,6,2,3025.7999999523163,156392.40000009537,8064,VNB,B,5
5,test,1,1.0,1-Back,1.0,z,Mon Dec 08 2025 09:04:50 GMT-0600 (Central Standard Time),161400.60000002384,011_m_f_d_a.png,I,z,956,7,2,1977.0,159423.60000002384,8064,VNB,B,6
6,test,1,0.0,1-Back,1.0,m,Mon Dec 08 2025 09:04:50 GMT-0600 (Central Standard Time),163233.5,020_y_f_h_a.png,I,m,805,8,2,1827.0999999046326,161406.40000009537,8064,VNB,B,7
7,test,1,0.0,1-Back,1.0,m,Mon Dec 08 2025 09:04:50 GMT-0600 (Central Standard Time),165132.80000007153,004_o_m_n_a.png,I,m,877,9,2,1892.8999999761581,163239.90000009537,8064,VNB,B,8
8,test,1,0.0,1-Back,1.0,m,Mon Dec 08 2025 09:04:50 GMT-0600 (Central Standard Time),167282.30000007153,016_y_m_h_a.png,I,m,1122,10,2,2143.8000000715256,165138.5,8064,VNB,B,9
9,test,1,0.0,1-Back,1.0,m,Mon Dec 08 2025 09:04:50 GMT-0600 (Central Standard Time),169131.60000002384,004_o_m_d_a.png,I,m,828,11,2,1843.1000000238419,167288.5,8064,VNB,B,10
10,test,1,1.0,1-Back,1.0,z,Mon Dec 08 2025 09:04:50 GMT-0600 (Central Standard Time),171081.0,005_o_f_d_a.png,I,z,923,12,2,1943.2999999523163,169137.70000004768,8064,VNB,B,11
11,test,1,0.0,1-Back,1.0,m,Mon Dec 08 2025 09:04:50 GMT-0600 (Central Standard Time),173013.80000007153,007_m_m_n_a.png,I,m,909,13,2,1927.8999999761581,171085.90000009537,8064,VNB,B,12
12,test,1,1.0,1-Back,1.0,z,Mon Dec 08 2025 09:04:50 GMT-0600 (Central Standard Time),175063.5,020_y_f_n_a.png,I,z,1017,14,2,2043.5999999046326,173019.90000009537,8064,VNB,B,13
13,test,1,0.0,1-Back,1.0,m,Mon Dec 08 2025 09:04:50 GMT-0600 (Central Standard Time),176862.70000004768,011_m_f_h_a.png,I,m,767,15,2,1793.1000000238419,175069.60000002384,8064,VNB,B,14
14,test,1,0.0,1-Back,1.0,m,Mon Dec 08 2025 09:04:50 GMT-0600 (Central Standard Time),178778.60000002384,007_m_m_d_a.png,I,m,888,16,2,1910.0,176868.60000002384,8064,VNB,B,15
15,test,1,0.0,1-Back,1.0,m,Mon Dec 08 2025 09:04:50 GMT-0600 (Central Standard Time),180744.60000002384,016_y_m_n_a.png,I,m,940,17,2,1959.6999999284744,178784.90000009537,8064,VNB,B,16
16,test,1,0.0,1-Back,1.0,m,Mon Dec 08 2025 09:04:50 GMT-0600 (Central Standard Time),182627.20000004768,005_o_f_h_a.png,I,m,862,18,2,1877.0,180750.20000004768,8064,VNB,B,17
0,test,2,0.0,1-Back,,,Mon Dec 08 2025 09:04:50 GMT-0600 (Central Standard Time),182627.20000004768,016_y_m_n_a.png,I,space,6067,1,2,1877.0,180750.20000004768,8064,VNB,B,0
1,test,2,0.0,1-Back,1.0,m,Mon Dec 08 2025 09:04:50 GMT-0600 (Central Standard Time),192692.0,020_y_f_h_a.png,I,m,937,2,2,1961.2999999523163,190730.70000004768,8064,VNB,B,1
2,test,2,1.0,1-Back,1.0,m,Mon Dec 08 2025 09:04:50 GMT-0600 (Central Standard Time),194607.0,004_o_m_n_a.png,I,m,884,3,2,1908.6999999284744,192698.30000007153,8064,VNB,B,2
3,test,2,0.0,1-Back,1.0,m,Mon Dec 08 2025 09:04:50 GMT-0600 (Central Standard Time),196539.70000004768,011_m_f_d_a.png,I,m,903,4,2,1926.2000000476837,194613.5,8064,VNB,B,3
4,test,2,0.0,1-Back,1.0,z,Mon Dec 08 2025 09:04:50 GMT-0600 (Central Standard Time),198307.0,007_m_m_d_a.png,I,z,746,5,2,1761.0,196546.0,8064,VNB,B,4
5,test,2,0.0,1-Back,1.0,m,Mon Dec 08 2025 09:04:50 GMT-0600 (Central Standard Time),200088.40000009537,016_y_m_h_a.png,I,m,765,6,2,1776.3000000715256,198312.10000002384,8064,VNB,B,5
6,test,2,1.0,1-Back,1.0,z,Mon Dec 08 2025 09:04:50 GMT-0600 (Central Standard Time),201854.70000004768,005_o_f_h_a.png,I,z,742,7,2,1759.2000000476837,200095.5,8064,VNB,B,6
7,test,2,0.0,1-Back,1.0,m,Mon Dec 08 2025 09:04:50 GMT-0600 (Central Standard Time),203621.30000007153,011_m_f_n_a.png,I,m,744,8,2,1761.0,201860.30000007153,8064,VNB,B,7
8,test,2,0.0,1-Back,1.0,m,Mon Dec 08 2025 09:04:50 GMT-0600 (Central Standard Time),205504.90000009537,020_y_f_d_a.png,I,m,865,9,2,1877.5,203627.40000009537,8064,VNB,B,8
9,test,2,0.0,1-Back,1.0,m,Mon Dec 08 2025 09:04:50 GMT-0600 (Central Standard Time),207469.70000004768,007_m_m_n_a.png,I,m,943,10,2,1958.1000000238419,205511.60000002384,8064,VNB,B,9
10,test,2,1.0,1-Back,1.0,m,Mon Dec 08 2025 09:04:50 GMT-0600 (Central Standard Time),209302.30000007153,011_m_f_h_a.png,I,m,809,11,2,1826.8000000715256,207475.5,8064,VNB,B,10
11,test,2,0.0,1-Back,1.0,z,Mon Dec 08 2025 09:04:50 GMT-0600 (Central Standard Time),211051.80000007153,004_o_m_h_a.png,I,z,720,12,2,1743.8999999761581,209307.90000009537,8064,VNB,B,11
12,test,2,0.0,1-Back,1.0,m,Mon Dec 08 2025 09:04:50 GMT-0600 (Central Standard Time),212767.90000009537,016_y_m_d_a.png,I,m,698,13,2,1710.0,211057.90000009537,8064,VNB,B,12
13,test,2,0.0,1-Back,1.0,m,Mon Dec 08 2025 09:04:50 GMT-0600 (Central Standard Time),214567.40000009537,005_o_f_n_a.png,I,m,782,14,2,1793.7000000476837,212773.70000004768,8064,VNB,B,13
14,test,2,0.0,1-Back,1.0,z,Mon Dec 08 2025 09:04:50 GMT-0600 (Central Standard Time),216416.70000004768,020_y_f_n_a.png,I,z,831,15,2,1842.7999999523163,214573.90000009537,8064,VNB,B,14
15,test,2,1.0,1-Back,1.0,m,Mon Dec 08 2025 09:04:50 GMT-0600 (Central Standard Time),218166.10000002384,007_m_m_h_a.png,I,m,725,16,2,1744.1999999284744,216421.90000009537,8064,VNB,B,15
16,test,2,0.0,1-Back,1.0,m,Mon Dec 08 2025 09:04:50 GMT-0600 (Central Standard Time),219982.30000007153,005_o_f_d_a.png,I,m,792,17,2,1809.7000000476837,218172.60000002384,8064,VNB,B,16
17,test,2,1.0,1-Back,1.0,z,Mon Dec 08 2025 09:04:50 GMT-0600 (Central Standard Time),221781.90000009537,004_o_m_d_a.png,I,z,776,18,2,1793.1000000238419,219988.80000007153,8064,VNB,B,17
0,test,3,1.0,1-Back,,,Mon Dec 08 2025 09:04:50 GMT-0600 (Central Standard Time),221781.90000009537,005_o_f_h_a.png,I,space,2073,1,2,1793.1000000238419,219988.80000007153,8064,VNB,B,0
1,test,3,0.0,1-Back,1.0,m,Mon Dec 08 2025 09:04:50 GMT-0600 (Central Standard Time),227796.60000002384,011_m_f_d_a.png,I,m,786,2,2,1810.1000000238419,225986.5,8064,VNB,B,1
2,test,3,1.0,1-Back,1.0,m,Mon Dec 08 2025 09:04:50 GMT-0600 (Central Standard Time),229762.70000004768,007_m_m_n_a.png,I,m,938,3,2,1960.2999999523163,227802.40000009537,8064,VNB,B,2
3,test,3,0.0,1-Back,1.0,z,Mon Dec 08 2025 09:04:50 GMT-0600 (Central Standard Time),231595.30000007153,005_o_f_n_a.png,I,z,812,4,2,1827.2000000476837,229768.10000002384,8064,VNB,B,3
4,test,3,1.0,1-Back,1.0,m,Mon Dec 08 2025 09:04:50 GMT-0600 (Central Standard Time),233378.20000004768,004_o_m_d_a.png,I,m,763,5,2,1776.5,231601.70000004768,8064,VNB,B,4
5,test,3,0.0,1-Back,1.0,m,Mon Dec 08 2025 09:04:50 GMT-0600 (Central Standard Time),235144.30000007153,020_y_f_h_a.png,I,m,740,6,2,1760.8000000715256,233383.5,8064,VNB,B,5
6,test,3,0.0,1-Back,1.0,z,Mon Dec 08 2025 09:04:50 GMT-0600 (Central Standard Time),236810.20000004768,016_y_m_h_a.png,I,z,645,7,2,1660.5,235149.70000004768,8064,VNB,B,6
7,test,3,0.0,1-Back,1.0,m,Mon Dec 08 2025 09:04:50 GMT-0600 (Central Standard Time),238593.30000007153,011_m_f_n_a.png,I,m,756,8,2,1777.1000000238419,236816.20000004768,8064,VNB,B,7
8,test,3,0.0,1-Back,1.0,m,Mon Dec 08 2025 09:04:50 GMT-0600 (Central Standard Time),240459.20000004768,020_y_f_d_a.png,I,m,845,9,2,1859.2999999523163,238599.90000009537,8064,VNB,B,8
9,test,3,1.0,1-Back,1.0,m,Mon Dec 08 2025 09:04:50 GMT-0600 (Central Standard Time),242292.10000002384,004_o_m_n_a.png,I,m,803,10,2,1826.5,240465.60000002384,8064,VNB,B,9
10,test,3,0.0,1-Back,1.0,m,Mon Dec 08 2025 09:04:50 GMT-0600 (Central Standard Time),244108.20000004768,007_m_m_h_a.png,I,m,786,11,2,1809.7000000476837,242298.5,8064,VNB,B,10
11,test,3,0.0,1-Back,1.0,z,Mon Dec 08 2025 09:04:50 GMT-0600 (Central Standard Time),245874.30000007153,011_m_f_h_a.png,I,z,746,12,2,1759.8999999761581,244114.40000009537,8064,VNB,B,11
12,test,3,1.0,1-Back,1.0,m,Mon Dec 08 2025 09:04:50 GMT-0600 (Central Standard Time),247740.40000009537,005_o_f_d_a.png,I,m,836,13,2,1861.2000000476837,245879.20000004768,8064,VNB,B,12
13,test,3,0.0,1-Back,1.0,z,Mon Dec 08 2025 09:04:50 GMT-0600 (Central Standard Time),249456.5,007_m_m_d_a.png,I,z,690,14,2,1709.2999999523163,247747.20000004768,8064,VNB,B,13
14,test,3,0.0,1-Back,1.0,m,Mon Dec 08 2025 09:04:50 GMT-0600 (Central Standard Time),251372.70000004768,016_y_m_n_a.png,I,m,886,15,2,1909.8999999761581,249462.80000007153,8064,VNB,B,14
15,test,3,1.0,1-Back,1.0,m,Mon Dec 08 2025 09:04:50 GMT-0600 (Central Standard Time),253171.90000009537,004_o_m_h_a.png,I,m,770,16,2,1792.9000000953674,251379.0,8064,VNB,B,15
16,test,3,0.0,1-Back,1.0,m,Mon Dec 08 2025 09:04:50 GMT-0600 (Central Standard Time),254921.10000002384,016_y_m_d_a.png,I,m,731,17,2,1742.5,253178.60000002384,8064,VNB,B,16
17,test,3,1.0,1-Back,1.0,m,Mon Dec 08 2025 09:04:50 GMT-0600 (Central Standard Time),256937.20000004768,020_y_f_n_a.png,I,m,988,18,2,2010.2000000476837,254927.0,8064,VNB,B,17
0,test,4,1.0,1-Back,,,Mon Dec 08 2025 09:04:50 GMT-0600 (Central Standard Time),256937.20000004768,007_m_m_d_a.png,I,space,1325,1,2,2010.2000000476837,254927.0,8064,VNB,B,0
1,test,4,0.0,1-Back,1.0,z,Mon Dec 08 2025 09:04:50 GMT-0600 (Central Standard Time),262102.60000002384,004_o_m_d_a.png,I,z,784,2,2,1810.6000000238419,260292.0,8064,VNB,B,1
2,test,4,0.0,1-Back,1.0,m,Mon Dec 08 2025 09:04:50 GMT-0600 (Central Standard Time),264135.10000002384,016_y_m_h_a.png,I,m,1008,3,2,2026.6999999284744,262108.40000009537,8064,VNB,B,2
3,test,4,0.0,1-Back,1.0,m,Mon Dec 08 2025 09:04:50 GMT-0600 (Central Standard Time),265901.40000009537,011_m_f_n_a.png,I,m,735,4,2,1760.4000000953674,264141.0,8064,VNB,B,3
4,test,4,1.0,1-Back,1.0,m,Mon Dec 08 2025 09:04:50 GMT-0600 (Central Standard Time),267800.8000000715,005_o_f_h_a.png,I,m,873,5,2,1894.5,265906.3000000715,8064,VNB,B,4
5,test,4,0.0,1-Back,1.0,m,Mon Dec 08 2025 09:04:50 GMT-0600 (Central Standard Time),269733.2000000477,007_m_m_n_a.png,I,m,900,6,2,1926.2999999523163,267806.90000009537,8064,VNB,B,5
6,test,4,0.0,1-Back,1.0,m,Mon Dec 08 2025 09:04:50 GMT-0600 (Central Standard Time),271766.3000000715,016_y_m_d_a.png,I,m,1009,7,2,2027.2000000476837,269739.10000002384,8064,VNB,B,6
7,test,4,1.0,1-Back,1.0,z,Mon Dec 08 2025 09:04:50 GMT-0600 (Central Standard Time),273665.5,020_y_f_d_a.png,I,z,880,8,2,1891.8999999761581,271773.60000002384,8064,VNB,B,7
8,test,4,0.0,1-Back,1.0,m,Mon Dec 08 2025 09:04:50 GMT-0600 (Central Standard Time),275448.3000000715,011_m_f_h_a.png,I,m,757,9,2,1777.1000000238419,273671.2000000477,8064,VNB,B,8
9,test,4,0.0,1-Back,1.0,z,Mon Dec 08 2025 09:04:50 GMT-0600 (Central Standard Time),277214.60000002384,004_o_m_h_a.png,I,z,742,10,2,1759.6000000238419,275455.0,8064,VNB,B,9
10,test,4,1.0,1-Back,1.0,m,Mon Dec 08 2025 09:04:50 GMT-0600 (Central Standard Time),279065.3000000715,005_o_f_n_a.png,I,m,832,11,2,1843.5,277221.8000000715,8064,VNB,B,10
11,test,4,0.0,1-Back,1.0,m,Mon Dec 08 2025 09:04:50 GMT-0600 (Central Standard Time),281079.90000009537,011_m_f_d_a.png,I,m,991,12,2,2009.4000000953674,279070.5,8064,VNB,B,11
12,test,4,0.0,1-Back,1.0,m,Mon Dec 08 2025 09:04:50 GMT-0600 (Central Standard Time),283012.60000002384,020_y_f_n_a.png,I,m,910,13,2,1926.8999999761581,281085.7000000477,8064,VNB,B,12
13,test,4,0.0,1-Back,1.0,m,Mon Dec 08 2025 09:04:50 GMT-0600 (Central Standard Time),284978.40000009537,005_o_f_d_a.png,I,m,937,14,2,1960.0,283018.40000009537,8064,VNB,B,13
14,test,4,0.0,1-Back,1.0,m,Mon Dec 08 2025 09:04:50 GMT-0600 (Central Standard Time),286844.90000009537,020_y_f_h_a.png,I,m,843,15,2,1860.8000000715256,284984.10000002384,8064,VNB,B,14
15,test,4,1.0,1-Back,1.0,z,Mon Dec 08 2025 09:04:50 GMT-0600 (Central Standard Time),288594.10000002384,007_m_m_h_a.png,I,z,722,16,2,1743.8999999761581,286850.2000000477,8064,VNB,B,15
16,test,4,0.0,1-Back,1.0,m,Mon Dec 08 2025 09:04:50 GMT-0600 (Central Standard Time),290410.3000000715,004_o_m_n_a.png,I,m,796,17,2,1809.5,288600.8000000715,8064,VNB,B,16
17,test,4,1.0,1-Back,1.0,z,Mon Dec 08 2025 09:04:50 GMT-0600 (Central Standard Time),292209.2000000477,016_y_m_n_a.png,I,z,781,18,2,1793.5,290415.7000000477,8064,VNB,B,17
0,test,5,1.0,1-Back,,,Mon Dec 08 2025 09:04:50 GMT-0600 (Central Standard Time),292209.2000000477,004_o_m_n_a.png,I,space,1493,1,2,1793.5,290415.7000000477,8064,VNB,B,0
1,test,5,1.0,1-Back,1.0,m,Mon Dec 08 2025 09:04:50 GMT-0600 (Central Standard Time),297658.10000002384,005_o_f_h_a.png,I,m,913,2,2,1926.7999999523163,295731.3000000715,8064,VNB,B,1
2,test,5,0.0,1-Back,1.0,m,Mon Dec 08 2025 09:04:50 GMT-0600 (Central Standard Time),299540.90000009537,016_y_m_d_a.png,I,m,852,3,2,1876.9000000953674,297664.0,8064,VNB,B,2
3,test,5,0.0,1-Back,1.0,z,Mon Dec 08 2025 09:04:50 GMT-0600 (Central Standard Time),301273.60000002384,004_o_m_d_a.png,I,z,714,4,2,1725.1000000238419,299548.5,8064,VNB,B,3
4,test,5,0.0,1-Back,1.0,m,Mon Dec 08 2025 09:04:50 GMT-0600 (Central Standard Time),303206.40000009537,011_m_f_h_a.png,I,m,909,5,2,1925.8000000715256,301280.60000002384,8064,VNB,B,4
5,test,5,0.0,1-Back,1.0,m,Mon Dec 08 2025 09:04:50 GMT-0600 (Central Standard Time),305105.5,020_y_f_n_a.png,I,m,880,6,2,1893.6999999284744,303211.8000000715,8064,VNB,B,5
6,test,5,1.0,1-Back,1.0,z,Mon Dec 08 2025 09:04:50 GMT-0600 (Central Standard Time),307055.10000002384,005_o_f_n_a.png,I,z,916,7,2,1943.1000000238419,305112.0,8064,VNB,B,6
7,test,5,0.0,1-Back,1.0,m,Mon Dec 08 2025 09:04:50 GMT-0600 (Central Standard Time),309037.8000000715,011_m_f_d_a.png,I,m,951,8,2,1976.5,307061.3000000715,8064,VNB,B,7
8,test,5,0.0,1-Back,1.0,m,Mon Dec 08 2025 09:04:50 GMT-0600 (Central Standard Time),310903.8000000715,016_y_m_h_a.png,I,m,840,9,2,1860.3000000715256,309043.5,8064,VNB,B,8
9,test,5,0.0,1-Back,1.0,m,Mon Dec 08 2025 09:04:50 GMT-0600 (Central Standard Time),312720.0,020_y_f_d_a.png,I,m,791,10,2,1810.7999999523163,310909.2000000477,8064,VNB,B,9
10,test,5,0.0,1-Back,1.0,m,Mon Dec 08 2025 09:04:50 GMT-0600 (Central Standard Time),314686.10000002384,007_m_m_n_a.png,I,m,933,11,2,1960.1000000238419,312726.0,8064,VNB,B,10
11,test,5,1.0,1-Back,1.0,z,Mon Dec 08 2025 09:04:50 GMT-0600 (Central Standard Time),316535.5,011_m_f_n_a.png,I,z,686,12,2,1843.0999999046326,314692.40000009537,8064,VNB,B,11
12,test,5,0.0,1-Back,1.0,m,Mon Dec 08 2025 09:04:50 GMT-0600 (Central Standard Time),318318.2000000477,004_o_m_h_a.png,I,m,751,13,2,1776.5,316541.7000000477,8064,VNB,B,12
13,test,5,0.0,1-Back,1.0,z,Mon Dec 08 2025 09:04:50 GMT-0600 (Central Standard Time),320001.10000002384,007_m_m_h_a.png,I,z,664,14,2,1677.1000000238419,318324.0,8064,VNB,B,13
14,test,5,1.0,1-Back,1.0,m,Mon Dec 08 2025 09:04:50 GMT-0600 (Central Standard Time),321817.3000000715,005_o_f_d_a.png,I,m,788,15,2,1809.3000000715256,320008.0,8064,VNB,B,14
15,test,5,0.0,1-Back,1.0,m,Mon Dec 08 2025 09:04:50 GMT-0600 (Central Standard Time),323649.90000009537,016_y_m_n_a.png,I,m,813,16,2,1826.5,321823.40000009537,8064,VNB,B,15
16,test,5,0.0,1-Back,1.0,m,Mon Dec 08 2025 09:04:50 GMT-0600 (Central Standard Time),325515.90000009537,020_y_f_h_a.png,I,m,837,17,2,1860.9000000953674,323655.0,8064,VNB,B,16
17,test,5,0.0,1-Back,1.0,m,Mon Dec 08 2025 09:04:50 GMT-0600 (Central Standard Time),327415.40000009537,007_m_m_d_a.png,I,m,874,18,2,1893.6000000238419,325521.8000000715,8064,VNB,B,17
0,prac,1,0.0,2-Back,,,Mon Dec 08 2025 09:04:50 GMT-0600 (Central Standard Time),327415.40000009537,011_m_f_n_a.png,I,space,1409,1,2,1893.6000000238419,325521.8000000715,8064,VNB,B,0
0,prac,1,0.0,2-Back,,,Mon Dec 08 2025 09:04:50 GMT-0600 (Central Standard Time),327415.40000009537,005_o_f_h_a.png,I,space,1409,2,2,1893.6000000238419,325521.8000000715,8064,VNB,B,0
1,prac,1,0.0,2-Back,1.0,m,Mon Dec 08 2025 09:04:50 GMT-0600 (Central Standard Time),394411.0,004_o_m_d_a.png,I,m,1074,3,2,1938.5999999046326,392472.40000009537,8064,VNB,B,1
2,prac,1,1.0,2-Back,1.0,z,Mon Dec 08 2025 09:04:50 GMT-0600 (Central Standard Time),396460.5,007_m_m_h_a.png,I,z,1163,4,2,2039.8999999761581,394420.60000002384,8064,VNB,B,2
3,prac,1,0.0,2-Back,1.0,m,Mon Dec 08 2025 09:04:50 GMT-0600 (Central Standard Time),398476.40000009537,020_y_f_n_a.png,I,m,1147,5,2,2006.5,396469.90000009537,8064,VNB,B,3
3,prac,1,1.0,2-Back,0.0,z,Mon Dec 08 2025 09:04:50 GMT-0600 (Central Standard Time),400292.7000000477,004_o_m_h_a.png,I,m,1025,6,2,1808.6000000238419,398484.10000002384,8064,VNB,B,4
4,prac,1,1.0,2-Back,1.0,z,Mon Dec 08 2025 09:04:50 GMT-0600 (Central Standard Time),402508.7000000477,016_y_m_n_a.png,I,z,1338,7,2,2207.399999976158,400301.3000000715,8064,VNB,B,5
5,prac,1,0.0,2-Back,1.0,m,Mon Dec 08 2025 09:04:50 GMT-0600 (Central Standard Time),404258.0,011_m_f_d_a.png,I,m,866,8,2,1740.5999999046326,402517.40000009537,8064,VNB,B,6
6,prac,1,0.0,2-Back,1.0,m,Mon Dec 08 2025 09:04:50 GMT-0600 (Central Standard Time),406373.90000009537,005_o_f_d_a.png,I,m,1231,9,2,2105.8000000715256,404268.10000002384,8064,VNB,B,7
6,prac,1,0.0,2-Back,0.0,m,Mon Dec 08 2025 09:04:50 GMT-0600 (Central Standard Time),408023.40000009537,007_m_m_h_a.png,I,z,870,10,2,1639.4000000953674,406384.0,8064,VNB,B,8
7,prac,1,1.0,2-Back,1.0,z,Mon Dec 08 2025 09:04:50 GMT-0600 (Central Standard Time),410139.3000000715,020_y_f_d_a.png,I,z,1238,11,2,2105.8000000715256,408033.5,8064,VNB,B,9
8,prac,1,0.0,2-Back,1.0,m,Mon Dec 08 2025 09:04:50 GMT-0600 (Central Standard Time),412188.90000009537,004_o_m_n_a.png,I,m,1187,12,2,2042.1000000238419,410146.8000000715,8064,VNB,B,10
0,test,1,0.0,2-Back,,,Mon Dec 08 2025 09:04:50 GMT-0600 (Central Standard Time),412188.90000009537,016_y_m_h_a.png,I,space,1347,1,2,2042.1000000238419,410146.8000000715,8064,VNB,B,0
0,test,1,0.0,2-Back,,,Mon Dec 08 2025 09:04:50 GMT-0600 (Central Standard Time),412188.90000009537,005_o_f_n_a.png,I,space,1347,2,2,2042.1000000238419,410146.8000000715,8064,VNB,B,0
1,test,1,0.0,2-Back,1.0,z,Mon Dec 08 2025 09:04:50 GMT-0600 (Central Standard Time),432016.0,004_o_m_h_a.png,I,z,757,3,2,1777.1999999284744,430238.8000000715,8064,VNB,B,1
2,test,1,0.0,2-Back,1.0,m,Mon Dec 08 2025 09:04:50 GMT-0600 (Central Standard Time),434331.90000009537,011_m_f_d_a.png,I,m,1286,4,2,2310.2000000476837,432021.7000000477,8064,VNB,B,2
3,test,1,1.0,2-Back,1.0,m,Mon Dec 08 2025 09:04:50 GMT-0600 (Central Standard Time),436797.8000000715,016_y_m_n_a.png,I,m,1442,5,2,2460.2000000476837,434337.60000002384,8064,VNB,B,3
4,test,1,0.0,2-Back,1.0,z,Mon Dec 08 2025 09:04:50 GMT-0600 (Central Standard Time),438763.90000009537,020_y_f_d_a.png,I,z,937,6,2,1961.0,436802.90000009537,8064,VNB,B,4
5,test,1,0.0,2-Back,1.0,m,Mon Dec 08 2025 09:04:50 GMT-0600 (Central Standard Time),441046.5,007_m_m_h_a.png,I,m,1251,7,2,2276.5999999046326,438769.90000009537,8064,VNB,B,5
6,test,1,1.0,2-Back,1.0,m,Mon Dec 08 2025 09:04:50 GMT-0600 (Central Standard Time),443728.7000000477,020_y_f_n_a.png,I,m,1664,8,2,2676.899999976158,441051.8000000715,8064,VNB,B,6
7,test,1,0.0,2-Back,1.0,z,Mon Dec 08 2025 09:04:50 GMT-0600 (Central Standard Time),445611.8000000715,005_o_f_h_a.png,I,z,861,9,2,1877.0,443734.8000000715,8064,VNB,B,7
7,test,1,0.0,2-Back,0.0,m,Mon Dec 08 2025 09:04:50 GMT-0600 (Central Standard Time),448644.2000000477,004_o_m_d_a.png,I,None,2016,10,2,3026.7999999523163,445617.40000009537,8064,VNB,B,8
7,test,1,1.0,2-Back,0.0,m,Mon Dec 08 2025 09:04:50 GMT-0600 (Central Standard Time),451676.5,007_m_m_d_a.png,I,None,2015,11,2,3026.6999999284744,448649.8000000715,8064,VNB,B,9
8,test,1,0.0,2-Back,1.0,m,Mon Dec 08 2025 09:04:50 GMT-0600 (Central Standard Time),454342.3000000715,011_m_f_n_a.png,I,m,1634,12,2,2659.8000000715256,451682.5,8064,VNB,B,10
9,test,1,0.0,2-Back,1.0,m,Mon Dec 08 2025 09:04:50 GMT-0600 (Central Standard Time),456675.10000002384,020_y_f_h_a.png,I,m,1304,13,2,2327.0,454348.10000002384,8064,VNB,B,11
10,test,1,0.0,2-Back,1.0,z,Mon Dec 08 2025 09:04:50 GMT-0600 (Central Standard Time),458840.90000009537,007_m_m_n_a.png,I,z,1138,14,2,2160.100000023842,456680.8000000715,8064,VNB,B,12
11,test,1,0.0,2-Back,1.0,m,Mon Dec 08 2025 09:04:50 GMT-0600 (Central Standard Time),460990.60000002384,016_y_m_d_a.png,I,m,1117,15,2,2144.1999999284744,458846.40000009537,8064,VNB,B,13
11,test,1,1.0,2-Back,0.0,m,Mon Dec 08 2025 09:04:50 GMT-0600 (Central Standard Time),463023.10000002384,011_m_f_h_a.png,I,z,1008,16,2,2026.5,460996.60000002384,8064,VNB,B,14
11,test,1,0.0,2-Back,0.0,z,Mon Dec 08 2025 09:04:50 GMT-0600 (Central Standard Time),465255.7000000477,005_o_f_d_a.png,I,m,1199,17,2,2227.2000000476837,463028.5,8064,VNB,B,15
11,test,1,0.0,2-Back,0.0,m,Mon Dec 08 2025 09:04:50 GMT-0600 (Central Standard Time),467321.60000002384,004_o_m_n_a.png,I,z,1046,18,2,2060.2999999523163,465261.3000000715,8064,VNB,B,16
0,test,2,0.0,2-Back,,,Mon Dec 08 2025 09:04:50 GMT-0600 (Central Standard Time),467321.60000002384,007_m_m_h_a.png,I,space,1893,1,2,2060.2999999523163,465261.3000000715,8064,VNB,B,0
0,test,2,0.0,2-Back,,,Mon Dec 08 2025 09:04:50 GMT-0600 (Central Standard Time),467321.60000002384,020_y_f_n_a.png,I,space,1893,2,2,2060.2999999523163,465261.3000000715,8064,VNB,B,0
1,test,2,1.0,2-Back,1.0,z,Mon Dec 08 2025 09:04:50 GMT-0600 (Central Standard Time),476319.0,005_o_f_h_a.png,I,z,850,3,2,1860.3999999761581,474458.60000002384,8064,VNB,B,1
2,test,2,0.0,2-Back,1.0,m,Mon Dec 08 2025 09:04:50 GMT-0600 (Central Standard Time),478518.10000002384,004_o_m_d_a.png,I,m,1167,4,2,2192.7999999523163,476325.3000000715,8064,VNB,B,2
3,test,2,0.0,2-Back,1.0,m,Mon Dec 08 2025 09:04:50 GMT-0600 (Central Standard Time),480684.10000002384,011_m_f_d_a.png,I,m,1145,5,2,2159.7999999523163,478524.3000000715,8064,VNB,B,3
4,test,2,0.0,2-Back,1.0,m,Mon Dec 08 2025 09:04:50 GMT-0600 (Central Standard Time),483033.3000000715,016_y_m_h_a.png,I,m,1322,6,2,2341.2000000476837,480692.10000002384,8064,VNB,B,4
5,test,2,0.0,2-Back,1.0,m,Mon Dec 08 2025 09:04:50 GMT-0600 (Central Standard Time),485266.0,005_o_f_n_a.png,I,m,1205,7,2,2226.5,483039.5,8064,VNB,B,5
6,test,2,1.0,2-Back,1.0,z,Mon Dec 08 2025 09:04:50 GMT-0600 (Central Standard Time),487948.3000000715,004_o_m_h_a.png,I,z,1660,8,2,2676.7000000476837,485271.60000002384,8064,VNB,B,6
7,test,2,0.0,2-Back,1.0,m,Mon Dec 08 2025 09:04:50 GMT-0600 (Central Standard Time),489981.2000000477,020_y_f_d_a.png,I,m,1010,9,2,2027.3999999761581,487953.8000000715,8064,VNB,B,7
8,test,2,0.0,2-Back,1.0,m,Mon Dec 08 2025 09:04:50 GMT-0600 (Central Standard Time),492397.10000002384,016_y_m_d_a.png,I,m,1385,10,2,2411.100000023842,489986.0,8064,VNB,B,8
8,test,2,0.0,2-Back,0.0,m,Mon Dec 08 2025 09:04:50 GMT-0600 (Central Standard Time),494246.5,007_m_m_n_a.png,I,z,817,11,2,1843.7999999523163,492402.7000000477,8064,VNB,B,9
9,test,2,0.0,2-Back,1.0,m,Mon Dec 08 2025 09:04:50 GMT-0600 (Central Standard Time),496412.40000009537,011_m_f_h_a.png,I,m,1136,12,2,2160.2000000476837,494252.2000000477,8064,VNB,B,10
9,test,2,1.0,2-Back,0.0,z,Mon Dec 08 2025 09:04:50 GMT-0600 (Central Standard Time),498595.0,004_o_m_n_a.png,I,m,1154,13,2,2177.5,496417.5,8064,VNB,B,11
10,test,2,0.0,2-Back,1.0,m,Mon Dec 08 2025 09:04:50 GMT-0600 (Central Standard Time),500611.2000000477,005_o_f_d_a.png,I,m,996,14,2,2010.1000000238419,498601.10000002384,8064,VNB,B,12
10,test,2,0.0,2-Back,0.0,m,Mon Dec 08 2025 09:04:50 GMT-0600 (Central Standard Time),502510.3000000715,020_y_f_h_a.png,I,z,875,15,2,1893.7000000476837,500616.60000002384,8064,VNB,B,13
10,test,2,0.0,2-Back,0.0,z,Mon Dec 08 2025 09:04:50 GMT-0600 (Central Standard Time),505126.10000002384,007_m_m_d_a.png,I,m,1591,16,2,2609.399999976158,502516.7000000477,8064,VNB,B,14
10,test,2,0.0,2-Back,0.0,m,Mon Dec 08 2025 09:04:50 GMT-0600 (Central Standard Time),507143.7000000477,016_y_m_n_a.png,I,z,1001,17,2,2011.7000000476837,505132.0,8064,VNB,B,15
11,test,2,1.0,2-Back,1.0,m,Mon Dec 08 2025 09:04:50 GMT-0600 (Central Standard Time),509175.0,011_m_f_n_a.png,I,m,1000,18,2,2025.5,507149.5,8064,VNB,B,16
0,test,3,1.0,2-Back,,,Mon Dec 08 2025 09:04:50 GMT-0600 (Central Standard Time),509175.0,004_o_m_n_a.png,I,space,1512,1,2,2025.5,507149.5,8064,VNB,B,0
0,test,3,1.0,2-Back,,,Mon Dec 08 2025 09:04:50 GMT-0600 (Central Standard Time),509175.0,005_o_f_d_a.png,I,space,1512,2,2,2025.5,507149.5,8064,VNB,B,0
1,test,3,0.0,2-Back,1.0,m,Mon Dec 08 2025 09:04:50 GMT-0600 (Central Standard Time),517589.2000000477,020_y_f_h_a.png,I,m,827,3,2,1843.3999999761581,515745.8000000715,8064,VNB,B,1
2,test,3,0.0,2-Back,1.0,z,Mon Dec 08 2025 09:04:50 GMT-0600 (Central Standard Time),519805.10000002384,011_m_f_d_a.png,I,z,1185,4,2,2209.7999999523163,517595.3000000715,8064,VNB,B,2
3,test,3,1.0,2-Back,1.0,m,Mon Dec 08 2025 09:04:50 GMT-0600 (Central Standard Time),522304.2000000477,016_y_m_n_a.png,I,m,1480,5,2,2492.7000000476837,519811.5,8064,VNB,B,3
4,test,3,0.0,2-Back,1.0,m,Mon Dec 08 2025 09:04:50 GMT-0600 (Central Standard Time),524603.6000000238,004_o_m_h_a.png,I,m,1270,6,2,2293.899999976158,522309.7000000477,8064,VNB,B,4
4,test,3,0.0,2-Back,0.0,z,Mon Dec 08 2025 09:04:50 GMT-0600 (Central Standard Time),527636.2000000477,020_y_f_n_a.png,I,None,2016,7,2,3026.2999999523163,524609.9000000954,8064,VNB,B,5
4,test,3,1.0,2-Back,0.0,m,Mon Dec 08 2025 09:04:50 GMT-0600 (Central Standard Time),530051.9000000954,007_m_m_d_a.png,I,z,1386,8,2,2409.5,527642.4000000954,8064,VNB,B,6
5,test,3,0.0,2-Back,1.0,m,Mon Dec 08 2025 09:04:50 GMT-0600 (Central Standard Time),531935.3000000715,016_y_m_d_a.png,I,m,859,9,2,1878.2000000476837,530057.1000000238,8064,VNB,B,7
5,test,3,0.0,2-Back,0.0,m,Mon Dec 08 2025 09:04:50 GMT-0600 (Central Standard Time),533767.5,005_o_f_h_a.png,I,z,801,10,2,1827.2999999523163,531940.2000000477,8064,VNB,B,8
5,test,3,1.0,2-Back,0.0,m,Mon Dec 08 2025 09:04:50 GMT-0600 (Central Standard Time),535666.7000000477,011_m_f_n_a.png,I,z,878,11,2,1893.7000000476837,533773.0,8064,VNB,B,9
5,test,3,1.0,2-Back,0.0,z,Mon Dec 08 2025 09:04:50 GMT-0600 (Central Standard Time),537533.0,007_m_m_h_a.png,I,m,844,12,2,1860.3999999761581,535672.6000000238,8064,VNB,B,10
5,test,3,0.0,2-Back,0.0,m,Mon Dec 08 2025 09:04:50 GMT-0600 (Central Standard Time),539465.7000000477,020_y_f_d_a.png,I,z,905,13,2,1927.2999999523163,537538.4000000954,8064,VNB,B,11
6,test,3,0.0,2-Back,1.0,m,Mon Dec 08 2025 09:04:50 GMT-0600 (Central Standard Time),541714.9000000954,005_o_f_n_a.png,I,m,1229,14,2,2243.4000000953674,539471.5,8064,VNB,B,12
6,test,3,0.0,2-Back,0.0,z,Mon Dec 08 2025 09:04:50 GMT-0600 (Central Standard Time),543880.9000000954,004_o_m_d_a.png,I,m,1139,15,2,2161.2000000476837,541719.7000000477,8064,VNB,B,13
6,test,3,1.0,2-Back,0.0,m,Mon Dec 08 2025 09:04:50 GMT-0600 (Central Standard Time),545763.7000000477,011_m_f_h_a.png,I,z,862,16,2,1876.2999999523163,543887.4000000954,8064,VNB,B,14
6,test,3,0.0,2-Back,0.0,m,Mon Dec 08 2025 09:04:50 GMT-0600 (Central Standard Time),547696.4000000954,007_m_m_n_a.png,I,z,907,17,2,1926.9000000953674,545769.5,8064,VNB,B,15
6,test,3,0.0,2-Back,0.0,z,Mon Dec 08 2025 09:04:50 GMT-0600 (Central Standard Time),549595.8000000715,016_y_m_h_a.png,I,m,870,18,2,1893.7000000476837,547702.1000000238,8064,VNB,B,16
0,test,4,0.0,2-Back,,,Mon Dec 08 2025 09:04:50 GMT-0600 (Central Standard Time),549595.8000000715,011_m_f_n_a.png,I,space,1594,1,2,1893.7000000476837,547702.1000000238,8064,VNB,B,0
0,test,4,0.0,2-Back,,,Mon Dec 08 2025 09:04:50 GMT-0600 (Central Standard Time),549595.8000000715,004_o_m_n_a.png,I,space,1594,2,2,1893.7000000476837,547702.1000000238,8064,VNB,B,0
1,test,4,1.0,2-Back,1.0,m,Mon Dec 08 2025 09:04:50 GMT-0600 (Central Standard Time),558459.8000000715,016_y_m_h_a.png,I,m,1020,3,2,2043.8000000715256,556416.0,8064,VNB,B,1
2,test,4,1.0,2-Back,1.0,m,Mon Dec 08 2025 09:04:50 GMT-0600 (Central Standard Time),560542.3000000715,005_o_f_d_a.png,I,m,1059,4,2,2077.7000000476837,558464.6000000238,8064,VNB,B,2
3,test,4,0.0,2-Back,1.0,z,Mon Dec 08 2025 09:04:50 GMT-0600 (Central Standard Time),562341.8000000715,004_o_m_h_a.png,I,z,768,5,2,1793.1000000238419,560548.7000000477,8064,VNB,B,3
4,test,4,0.0,2-Back,1.0,m,Mon Dec 08 2025 09:04:50 GMT-0600 (Central Standard Time),564657.5,007_m_m_n_a.png,I,m,1297,6,2,2309.5999999046326,562347.9000000954,8064,VNB,B,4
5,test,4,0.0,2-Back,1.0,m,Mon Dec 08 2025 09:04:50 GMT-0600 (Central Standard Time),567506.8000000715,011_m_f_d_a.png,I,m,1820,7,2,2843.3000000715256,564663.5,8064,VNB,B,5
6,test,4,0.0,2-Back,1.0,z,Mon Dec 08 2025 09:04:50 GMT-0600 (Central Standard Time),570139.0,020_y_f_n_a.png,I,z,1602,8,2,2626.5,567512.5,8064,VNB,B,6
6,test,4,1.0,2-Back,0.0,m,Mon Dec 08 2025 09:04:50 GMT-0600 (Central Standard Time),572905.2000000477,005_o_f_h_a.png,I,z,1747,9,2,2760.399999976158,570144.8000000715,8064,VNB,B,7
7,test,4,0.0,2-Back,1.0,m,Mon Dec 08 2025 09:04:50 GMT-0600 (Central Standard Time),574771.1000000238,007_m_m_h_a.png,I,m,845,10,2,1860.5,572910.6000000238,8064,VNB,B,8
8,test,4,0.0,2-Back,1.0,m,Mon Dec 08 2025 09:04:50 GMT-0600 (Central Standard Time),577687.1000000238,020_y_f_d_a.png,I,m,1891,11,2,2908.6999999284744,574778.4000000954,8064,VNB,B,9
8,test,4,0.0,2-Back,0.0,m,Mon Dec 08 2025 09:04:50 GMT-0600 (Central Standard Time),579369.7000000477,016_y_m_n_a.png,I,z,656,12,2,1676.8999999761581,577692.8000000715,8064,VNB,B,10
8,test,4,0.0,2-Back,0.0,z,Mon Dec 08 2025 09:04:50 GMT-0600 (Central Standard Time),581269.2000000477,004_o_m_d_a.png,I,m,869,13,2,1893.7999999523163,579375.4000000954,8064,VNB,B,11
9,test,4,1.0,2-Back,1.0,m,Mon Dec 08 2025 09:04:50 GMT-0600 (Central Standard Time),583434.9000000954,011_m_f_h_a.png,I,m,1137,14,2,2159.8000000715256,581275.1000000238,8064,VNB,B,12
9,test,4,1.0,2-Back,0.0,m,Mon Dec 08 2025 09:04:50 GMT-0600 (Central Standard Time),585801.0,020_y_f_h_a.png,I,z,1339,15,2,2360.0999999046326,583440.9000000954,8064,VNB,B,13
10,test,4,0.0,2-Back,1.0,m,Mon Dec 08 2025 09:04:50 GMT-0600 (Central Standard Time),587950.5,005_o_f_n_a.png,I,m,1117,16,2,2144.0,585806.5,8064,VNB,B,14
11,test,4,0.0,2-Back,1.0,m,Mon Dec 08 2025 09:04:50 GMT-0600 (Central Standard Time),589899.7000000477,016_y_m_d_a.png,I,m,928,17,2,1943.7999999523163,587955.9000000954,8064,VNB,B,15
12,test,4,1.0,2-Back,1.0,m,Mon Dec 08 2025 09:04:50 GMT-0600 (Central Standard Time),592365.8000000715,007_m_m_d_a.png,I,m,1435,18,2,2460.100000023842,589905.7000000477,8064,VNB,B,16
0,test,5,1.0,2-Back,,,Mon Dec 08 2025 09:04:50 GMT-0600 (Central Standard Time),592365.8000000715,020_y_f_d_a.png,I,space,1537,1,2,2460.100000023842,589905.7000000477,8064,VNB,B,0
0,test,5,1.0,2-Back,,,Mon Dec 08 2025 09:04:50 GMT-0600 (Central Standard Time),592365.8000000715,005_o_f_h_a.png,I,space,1537,2,2,2460.100000023842,589905.7000000477,8064,VNB,B,0
1,test,5,1.0,2-Back,1.0,z,Mon Dec 08 2025 09:04:50 GMT-0600 (Central Standard Time),601013.0,004_o_m_d_a.png,I,z,860,3,2,1878.7999999523163,599134.2000000477,8064,VNB,B,1
2,test,5,1.0,2-Back,1.0,m,Mon Dec 08 2025 09:04:50 GMT-0600 (Central Standard Time),603062.5,011_m_f_n_a.png,I,m,1025,4,2,2045.7999999523163,601016.7000000477,8064,VNB,B,2
3,test,5,0.0,2-Back,1.0,m,Mon Dec 08 2025 09:04:50 GMT-0600 (Central Standard Time),605361.7000000477,007_m_m_h_a.png,I,m,1280,5,2,2295.2999999523163,603066.4000000954,8064,VNB,B,3
4,test,5,0.0,2-Back,1.0,z,Mon Dec 08 2025 09:04:50 GMT-0600 (Central Standard Time),607327.7000000477,020_y_f_n_a.png,I,z,933,6,2,1960.7000000476837,605367.0,8064,VNB,B,4
5,test,5,0.0,2-Back,1.0,m,Mon Dec 08 2025 09:04:50 GMT-0600 (Central Standard Time),609293.7000000477,005_o_f_d_a.png,I,m,943,7,2,1961.8999999761581,607331.8000000715,8064,VNB,B,5
5,test,5,0.0,2-Back,0.0,m,Mon Dec 08 2025 09:04:50 GMT-0600 (Central Standard Time),611343.0,004_o_m_h_a.png,I,z,1033,8,2,2045.0999999046326,609297.9000000954,8064,VNB,B,6
6,test,5,1.0,2-Back,1.0,z,Mon Dec 08 2025 09:04:50 GMT-0600 (Central Standard Time),613492.3000000715,011_m_f_d_a.png,I,z,1127,9,2,2142.7000000476837,611349.6000000238,8064,VNB,B,7
6,test,5,0.0,2-Back,0.0,m,Mon Dec 08 2025 09:04:50 GMT-0600 (Central Standard Time),615308.5,016_y_m_n_a.png,I,z,786,10,2,1810.0999999046326,613498.4000000954,8064,VNB,B,8
7,test,5,0.0,2-Back,1.0,m,Mon Dec 08 2025 09:04:50 GMT-0600 (Central Standard Time),617391.1000000238,007_m_m_n_a.png,I,m,1049,11,2,2077.7999999523163,615313.3000000715,8064,VNB,B,9
8,test,5,0.0,2-Back,1.0,m,Mon Dec 08 2025 09:04:50 GMT-0600 (Central Standard Time),619507.1000000238,020_y_f_h_a.png,I,m,1095,12,2,2108.899999976158,617398.2000000477,8064,VNB,B,10
9,test,5,0.0,2-Back,1.0,m,Mon Dec 08 2025 09:04:50 GMT-0600 (Central Standard Time),621456.7000000477,016_y_m_d_a.png,I,m,931,13,2,1945.8999999761581,619510.8000000715,8064,VNB,B,11
10,test,5,1.0,2-Back,1.0,z,Mon Dec 08 2025 09:04:50 GMT-0600 (Central Standard Time),623306.1000000238,011_m_f_h_a.png,I,z,829,14,2,1844.6000000238419,621461.5,8064,VNB,B,12
11,test,5,0.0,2-Back,1.0,m,Mon Dec 08 2025 09:04:50 GMT-0600 (Central Standard Time),625455.4000000954,004_o_m_n_a.png,I,m,1132,15,2,2141.8000000715256,623313.6000000238,8064,VNB,B,13
12,test,5,0.0,2-Back,1.0,m,Mon Dec 08 2025 09:04:50 GMT-0600 (Central Standard Time),627688.2000000477,007_m_m_d_a.png,I,m,1206,16,2,2228.2000000476837,625460.0,8064,VNB,B,14
13,test,5,0.0,2-Back,1.0,z,Mon Dec 08 2025 09:04:50 GMT-0600 (Central Standard Time),629637.3000000715,005_o_f_n_a.png,I,z,918,17,2,1944.5,627692.8000000715,8064,VNB,B,15
14,test,5,1.0,2-Back,1.0,m,Mon Dec 08 2025 09:04:50 GMT-0600 (Central Standard Time),631803.3000000715,016_y_m_h_a.png,I,m,1137,18,2,2160.0,629643.3000000715,8064,VNB,B,16
