acc_sum,block,block_c,change,condition,correct,correct_response,datetime,endtime,face,project,response,response_time,row_sel,session_number,start_end,starttime,subject_id,task,task_vers,trial
0,prac,1,,1-Back,,,Mon Oct 06 2025 13:46:21 GMT-0500 (Central Daylight Time),,124_o_f_d_a.png,I,space,1587,1,1,,,8064,VNB,A,0
0,prac,1,0.0,1-Back,0.0,m,Mon Oct 06 2025 13:46:21 GMT-0500 (Central Daylight Time),76500.69999998808,071_y_f_n_a.png,I,None,2011,2,1,2799.2999999523163,73701.40000003576,8064,VNB,A,1
0,prac,1,0.0,1-Back,0.0,m,Mon Oct 06 2025 13:46:21 GMT-0500 (Central Daylight Time),79315.19999998808,165_m_m_h_a.png,I,None,2011,3,1,2801.7999999523163,76513.40000003576,8064,VNB,A,2
0,prac,1,0.0,1-Back,0.0,m,Mon Oct 06 2025 13:46:21 GMT-0500 (Central Daylight Time),81149.69999998808,109_y_m_d_a.png,I,z,1016,4,1,1823.5999999642372,79326.10000002384,8064,VNB,A,3
0,prac,1,0.0,1-Back,0.0,m,Mon Oct 06 2025 13:46:21 GMT-0500 (Central Daylight Time),83249.5,124_o_f_n_a.png,I,z,1256,5,1,2087.699999988079,81161.80000001192,8064,VNB,A,4
0,prac,1,1.0,1-Back,0.0,z,Mon Oct 06 2025 13:46:21 GMT-0500 (Central Daylight Time),86048.90000003576,109_y_m_n_a.png,I,None,2007,6,1,2785.0,83263.90000003576,8064,VNB,A,5
0,prac,1,0.0,1-Back,0.0,m,Mon Oct 06 2025 13:46:21 GMT-0500 (Central Daylight Time),88861.80000001192,039_o_m_h_a.png,I,None,2017,7,1,2802.100000023842,86059.69999998808,8064,VNB,A,6
1,prac,1,0.0,1-Back,1.0,m,Mon Oct 06 2025 13:46:21 GMT-0500 (Central Daylight Time),90861.60000002384,139_m_f_d_a.png,I,m,1185,8,1,1988.699999988079,88872.90000003576,8064,VNB,A,7
2,prac,1,1.0,1-Back,1.0,z,Mon Oct 06 2025 13:46:21 GMT-0500 (Central Daylight Time),92961.80000001192,071_y_f_d_a.png,I,z,1289,9,1,2087.699999988079,90874.10000002384,8064,VNB,A,8
2,prac,1,0.0,1-Back,0.0,m,Mon Oct 06 2025 13:46:21 GMT-0500 (Central Daylight Time),94928.40000003576,165_m_m_n_a.png,I,z,1167,10,1,1955.5,92972.90000003576,8064,VNB,A,9
3,prac,1,0.0,1-Back,1.0,m,Mon Oct 06 2025 13:46:21 GMT-0500 (Central Daylight Time),97328.60000002384,124_o_f_h_a.png,I,m,1584,11,1,2388.5,94940.10000002384,8064,VNB,A,10
4,prac,1,0.0,1-Back,1.0,m,Mon Oct 06 2025 13:46:21 GMT-0500 (Central Daylight Time),99744.30000001192,109_y_m_d_a.png,I,m,1637,12,1,2404.899999976158,97339.40000003576,8064,VNB,A,11
0,prac,2,0.0,1-Back,,,Mon Oct 06 2025 13:46:21 GMT-0500 (Central Daylight Time),99744.30000001192,124_o_f_d_a.png,I,a,3524,1,1,2404.899999976158,97339.40000003576,8064,VNB,A,0
0,prac,2,0.0,1-Back,0.0,m,Mon Oct 06 2025 13:46:21 GMT-0500 (Central Daylight Time),109123.19999998808,071_y_f_n_a.png,I,None,2015,2,1,2804.2999999523163,106318.90000003576,8064,VNB,A,1
1,prac,2,0.0,1-Back,1.0,m,Mon Oct 06 2025 13:46:21 GMT-0500 (Central Daylight Time),111306.5,165_m_m_h_a.png,I,m,1370,3,1,2173.099999964237,109133.40000003576,8064,VNB,A,2
1,prac,2,0.0,1-Back,0.0,m,Mon Oct 06 2025 13:46:21 GMT-0500 (Central Daylight Time),114088.5,109_y_m_d_a.png,I,None,2005,4,1,2771.099999964237,111317.40000003576,8064,VNB,A,3
1,prac,2,0.0,1-Back,0.0,m,Mon Oct 06 2025 13:46:21 GMT-0500 (Central Daylight Time),116921.5,124_o_f_n_a.png,I,None,2010,5,1,2825.899999976158,114095.60000002384,8064,VNB,A,4
1,prac,2,1.0,1-Back,0.0,z,Mon Oct 06 2025 13:46:21 GMT-0500 (Central Daylight Time),119235.10000002384,109_y_m_n_a.png,I,m,1499,6,1,2305.5,116929.60000002384,8064,VNB,A,5
2,prac,2,0.0,1-Back,1.0,m,Mon Oct 06 2025 13:46:21 GMT-0500 (Central Daylight Time),121370.0,039_o_m_h_a.png,I,m,1326,7,1,2123.300000011921,119246.69999998808,8064,VNB,A,6
3,prac,2,0.0,1-Back,1.0,m,Mon Oct 06 2025 13:46:21 GMT-0500 (Central Daylight Time),123069.69999998808,139_m_f_d_a.png,I,m,892,8,1,1688.0,121381.69999998808,8064,VNB,A,7
4,prac,2,1.0,1-Back,1.0,z,Mon Oct 06 2025 13:46:21 GMT-0500 (Central Daylight Time),125086.10000002384,071_y_f_d_a.png,I,z,1202,9,1,2004.9000000357628,123081.19999998808,8064,VNB,A,8
4,prac,2,0.0,1-Back,0.0,m,Mon Oct 06 2025 13:46:21 GMT-0500 (Central Daylight Time),127286.10000002384,165_m_m_n_a.png,I,z,1393,10,1,2189.0,125097.10000002384,8064,VNB,A,9
5,prac,2,0.0,1-Back,1.0,m,Mon Oct 06 2025 13:46:21 GMT-0500 (Central Daylight Time),129183.60000002384,124_o_f_h_a.png,I,m,1085,11,1,1886.5,127297.10000002384,8064,VNB,A,10
6,prac,2,0.0,1-Back,1.0,m,Mon Oct 06 2025 13:46:21 GMT-0500 (Central Daylight Time),131249.90000003576,109_y_m_d_a.png,I,m,1278,12,1,2053.800000011921,129196.10000002384,8064,VNB,A,11
0,test,1,0.0,1-Back,,,Mon Oct 06 2025 13:46:21 GMT-0500 (Central Daylight Time),131249.90000003576,071_y_f_d_a.png,I,space,6193,1,1,2053.800000011921,129196.10000002384,8064,VNB,A,0
1,test,1,0.0,1-Back,1.0,m,Mon Oct 06 2025 13:46:21 GMT-0500 (Central Daylight Time),151909.80000001192,139_m_f_n_a.png,I,m,1411,2,1,2419.899999976158,149489.90000003576,8064,VNB,A,1
2,test,1,0.0,1-Back,1.0,m,Mon Oct 06 2025 13:46:21 GMT-0500 (Central Daylight Time),154242.90000003576,039_o_m_h_a.png,I,m,1298,3,1,2322.900000035763,151920.0,8064,VNB,A,2
3,test,1,1.0,1-Back,1.0,z,Mon Oct 06 2025 13:46:21 GMT-0500 (Central Daylight Time),157057.5,165_m_m_h_a.png,I,z,1788,4,1,2805.099999964237,154252.40000003576,8064,VNB,A,3
4,test,1,0.0,1-Back,1.0,m,Mon Oct 06 2025 13:46:21 GMT-0500 (Central Daylight Time),158807.19999998808,124_o_f_n_a.png,I,m,726,5,1,1739.5,157067.69999998808,8064,VNB,A,4
5,test,1,0.0,1-Back,1.0,m,Mon Oct 06 2025 13:46:21 GMT-0500 (Central Daylight Time),161791.19999998808,109_y_m_d_a.png,I,m,1950,6,1,2973.399999976158,158817.80000001192,8064,VNB,A,5
6,test,1,1.0,1-Back,1.0,z,Mon Oct 06 2025 13:46:21 GMT-0500 (Central Daylight Time),163555.40000003576,139_m_f_d_a.png,I,z,746,7,1,1753.1000000238419,161802.30000001192,8064,VNB,A,6
7,test,1,0.0,1-Back,1.0,m,Mon Oct 06 2025 13:46:21 GMT-0500 (Central Daylight Time),165388.5,071_y_f_h_a.png,I,m,811,8,1,1825.3999999761581,163563.10000002384,8064,VNB,A,7
8,test,1,0.0,1-Back,1.0,m,Mon Oct 06 2025 13:46:21 GMT-0500 (Central Daylight Time),167288.5,039_o_m_n_a.png,I,m,877,9,1,1890.300000011921,165398.19999998808,8064,VNB,A,8
9,test,1,0.0,1-Back,1.0,m,Mon Oct 06 2025 13:46:21 GMT-0500 (Central Daylight Time),169371.0,109_y_m_h_a.png,I,m,1062,10,1,2070.599999964237,167300.40000003576,8064,VNB,A,9
10,test,1,0.0,1-Back,1.0,m,Mon Oct 06 2025 13:46:21 GMT-0500 (Central Daylight Time),171319.60000002384,039_o_m_d_a.png,I,m,925,11,1,1940.4000000357628,169379.19999998808,8064,VNB,A,10
11,test,1,1.0,1-Back,1.0,z,Mon Oct 06 2025 13:46:21 GMT-0500 (Central Daylight Time),173669.10000002384,124_o_f_d_a.png,I,z,1319,12,1,2339.400000035763,171329.69999998808,8064,VNB,A,11
12,test,1,0.0,1-Back,1.0,m,Mon Oct 06 2025 13:46:21 GMT-0500 (Central Daylight Time),175785.80000001192,165_m_m_n_a.png,I,m,1091,13,1,2105.600000023842,173680.19999998808,8064,VNB,A,12
13,test,1,1.0,1-Back,1.0,z,Mon Oct 06 2025 13:46:21 GMT-0500 (Central Daylight Time),178533.30000001192,071_y_f_n_a.png,I,z,1717,14,1,2736.5,175796.80000001192,8064,VNB,A,13
14,test,1,0.0,1-Back,1.0,m,Mon Oct 06 2025 13:46:21 GMT-0500 (Central Daylight Time),180316.5,139_m_f_h_a.png,I,m,761,15,1,1772.699999988079,178543.80000001192,8064,VNB,A,14
15,test,1,0.0,1-Back,1.0,m,Mon Oct 06 2025 13:46:21 GMT-0500 (Central Daylight Time),182200.30000001192,165_m_m_d_a.png,I,m,857,16,1,1874.0,180326.30000001192,8064,VNB,A,15
16,test,1,0.0,1-Back,1.0,m,Mon Oct 06 2025 13:46:21 GMT-0500 (Central Daylight Time),184265.69999998808,109_y_m_n_a.png,I,m,1049,17,1,2055.599999964237,182210.10000002384,8064,VNB,A,16
17,test,1,0.0,1-Back,1.0,m,Mon Oct 06 2025 13:46:21 GMT-0500 (Central Daylight Time),186132.60000002384,124_o_f_h_a.png,I,m,840,18,1,1857.300000011921,184275.30000001192,8064,VNB,A,17
0,test,2,0.0,1-Back,,,Mon Oct 06 2025 13:46:21 GMT-0500 (Central Daylight Time),186132.60000002384,109_y_m_n_a.png,I,space,2660,1,1,1857.300000011921,184275.30000001192,8064,VNB,A,0
1,test,2,0.0,1-Back,1.0,m,Mon Oct 06 2025 13:46:21 GMT-0500 (Central Daylight Time),192730.69999998808,071_y_f_h_a.png,I,m,891,2,1,1905.8999999761581,190824.80000001192,8064,VNB,A,1
2,test,2,1.0,1-Back,1.0,m,Mon Oct 06 2025 13:46:21 GMT-0500 (Central Daylight Time),194679.40000003576,039_o_m_n_a.png,I,m,917,3,1,1937.300000011921,192742.10000002384,8064,VNB,A,2
3,test,2,0.0,1-Back,1.0,m,Mon Oct 06 2025 13:46:21 GMT-0500 (Central Daylight Time),197694.80000001192,139_m_f_d_a.png,I,m,1991,4,1,3005.0,194689.80000001192,8064,VNB,A,3
4,test,2,0.0,1-Back,1.0,z,Mon Oct 06 2025 13:46:21 GMT-0500 (Central Daylight Time),199477.5,165_m_m_d_a.png,I,z,752,5,1,1772.699999988079,197704.80000001192,8064,VNB,A,4
5,test,2,0.0,1-Back,1.0,m,Mon Oct 06 2025 13:46:21 GMT-0500 (Central Daylight Time),201745.5,109_y_m_h_a.png,I,m,1241,6,1,2256.899999976158,199488.60000002384,8064,VNB,A,5
6,test,2,1.0,1-Back,1.0,z,Mon Oct 06 2025 13:46:21 GMT-0500 (Central Daylight Time),203526.80000001192,124_o_f_h_a.png,I,z,751,7,1,1770.3999999761581,201756.40000003576,8064,VNB,A,6
7,test,2,0.0,1-Back,1.0,m,Mon Oct 06 2025 13:46:21 GMT-0500 (Central Daylight Time),205592.30000001192,139_m_f_n_a.png,I,m,1040,8,1,2055.399999976158,203536.90000003576,8064,VNB,A,7
8,test,2,0.0,1-Back,1.0,m,Mon Oct 06 2025 13:46:21 GMT-0500 (Central Daylight Time),207826.19999998808,071_y_f_d_a.png,I,m,1205,9,1,2223.599999964237,205602.60000002384,8064,VNB,A,8
9,test,2,0.0,1-Back,1.0,m,Mon Oct 06 2025 13:46:21 GMT-0500 (Central Daylight Time),209841.60000002384,165_m_m_n_a.png,I,m,990,10,1,2005.800000011921,207835.80000001192,8064,VNB,A,9
10,test,2,1.0,1-Back,1.0,m,Mon Oct 06 2025 13:46:21 GMT-0500 (Central Daylight Time),211823.5,139_m_f_h_a.png,I,m,958,11,1,1972.0,209851.5,8064,VNB,A,10
11,test,2,0.0,1-Back,1.0,z,Mon Oct 06 2025 13:46:21 GMT-0500 (Central Daylight Time),213606.60000002384,039_o_m_h_a.png,I,z,757,12,1,1772.6000000238419,211834.0,8064,VNB,A,11
12,test,2,0.0,1-Back,1.0,m,Mon Oct 06 2025 13:46:21 GMT-0500 (Central Daylight Time),215573.0,109_y_m_d_a.png,I,m,943,13,1,1956.0999999642372,213616.90000003576,8064,VNB,A,12
13,test,2,0.0,1-Back,1.0,m,Mon Oct 06 2025 13:46:21 GMT-0500 (Central Daylight Time),217555.10000002384,124_o_f_n_a.png,I,m,963,14,1,1971.800000011921,215583.30000001192,8064,VNB,A,13
14,test,2,0.0,1-Back,1.0,z,Mon Oct 06 2025 13:46:21 GMT-0500 (Central Daylight Time),219521.69999998808,071_y_f_n_a.png,I,z,944,15,1,1957.0999999642372,217564.60000002384,8064,VNB,A,14
15,test,2,1.0,1-Back,1.0,m,Mon Oct 06 2025 13:46:21 GMT-0500 (Central Daylight Time),221537.60000002384,165_m_m_h_a.png,I,m,992,16,1,2006.4000000357628,219531.19999998808,8064,VNB,A,15
16,test,2,0.0,1-Back,1.0,m,Mon Oct 06 2025 13:46:21 GMT-0500 (Central Daylight Time),223453.60000002384,124_o_f_d_a.png,I,m,884,17,1,1907.6000000238419,221546.0,8064,VNB,A,16
17,test,2,1.0,1-Back,1.0,z,Mon Oct 06 2025 13:46:21 GMT-0500 (Central Daylight Time),225203.30000001192,039_o_m_d_a.png,I,z,730,18,1,1739.699999988079,223463.60000002384,8064,VNB,A,17
0,test,3,1.0,1-Back,,,Mon Oct 06 2025 13:46:21 GMT-0500 (Central Daylight Time),225203.30000001192,124_o_f_h_a.png,I,space,1989,1,1,1739.699999988079,223463.60000002384,8064,VNB,A,0
1,test,3,0.0,1-Back,1.0,m,Mon Oct 06 2025 13:46:21 GMT-0500 (Central Daylight Time),231252.10000002384,139_m_f_d_a.png,I,m,968,2,1,1990.699999988079,229261.40000003576,8064,VNB,A,1
2,test,3,1.0,1-Back,1.0,m,Mon Oct 06 2025 13:46:21 GMT-0500 (Central Daylight Time),233933.19999998808,165_m_m_n_a.png,I,m,1654,3,1,2669.2999999523163,231263.90000003576,8064,VNB,A,2
3,test,3,0.0,1-Back,1.0,z,Mon Oct 06 2025 13:46:21 GMT-0500 (Central Daylight Time),235899.19999998808,124_o_f_n_a.png,I,z,938,4,1,1956.2999999523163,233942.90000003576,8064,VNB,A,3
4,test,3,1.0,1-Back,1.0,m,Mon Oct 06 2025 13:46:21 GMT-0500 (Central Daylight Time),238066.10000002384,039_o_m_d_a.png,I,m,1148,5,1,2156.5,235909.60000002384,8064,VNB,A,4
5,test,3,0.0,1-Back,1.0,m,Mon Oct 06 2025 13:46:21 GMT-0500 (Central Daylight Time),239931.60000002384,071_y_f_h_a.png,I,m,837,6,1,1857.5,238074.10000002384,8064,VNB,A,5
6,test,3,0.0,1-Back,1.0,z,Mon Oct 06 2025 13:46:21 GMT-0500 (Central Daylight Time),241748.30000001192,109_y_m_h_a.png,I,z,797,7,1,1804.5,239943.80000001192,8064,VNB,A,6
7,test,3,0.0,1-Back,1.0,m,Mon Oct 06 2025 13:46:21 GMT-0500 (Central Daylight Time),243747.0,139_m_f_n_a.png,I,m,972,8,1,1988.199999988079,241758.80000001192,8064,VNB,A,7
8,test,3,0.0,1-Back,1.0,m,Mon Oct 06 2025 13:46:21 GMT-0500 (Central Daylight Time),245797.40000003576,071_y_f_d_a.png,I,m,1021,9,1,2040.300000011921,243757.10000002384,8064,VNB,A,8
9,test,3,1.0,1-Back,1.0,m,Mon Oct 06 2025 13:46:21 GMT-0500 (Central Daylight Time),247879.69999998808,039_o_m_n_a.png,I,m,1059,10,1,2072.5,245807.19999998808,8064,VNB,A,9
10,test,3,0.0,1-Back,1.0,m,Mon Oct 06 2025 13:46:21 GMT-0500 (Central Daylight Time),249878.69999998808,165_m_m_h_a.png,I,m,967,11,1,1989.0999999642372,247889.60000002384,8064,VNB,A,10
11,test,3,0.0,1-Back,1.0,z,Mon Oct 06 2025 13:46:21 GMT-0500 (Central Daylight Time),251596.80000001192,139_m_f_h_a.png,I,z,690,12,1,1707.699999988079,249889.10000002384,8064,VNB,A,11
12,test,3,1.0,1-Back,1.0,m,Mon Oct 06 2025 13:46:21 GMT-0500 (Central Daylight Time),253429.80000001192,124_o_f_d_a.png,I,m,814,13,1,1823.699999988079,251606.10000002384,8064,VNB,A,12
13,test,3,0.0,1-Back,1.0,z,Mon Oct 06 2025 13:46:21 GMT-0500 (Central Daylight Time),255343.60000002384,165_m_m_d_a.png,I,z,892,14,1,1903.0,253440.60000002384,8064,VNB,A,13
14,test,3,0.0,1-Back,1.0,m,Mon Oct 06 2025 13:46:21 GMT-0500 (Central Daylight Time),257159.40000003576,109_y_m_n_a.png,I,m,783,15,1,1805.2000000476837,255354.19999998808,8064,VNB,A,14
15,test,3,1.0,1-Back,1.0,m,Mon Oct 06 2025 13:46:21 GMT-0500 (Central Daylight Time),259127.60000002384,039_o_m_h_a.png,I,m,936,16,1,1958.199999988079,257169.40000003576,8064,VNB,A,15
16,test,3,0.0,1-Back,1.0,m,Mon Oct 06 2025 13:46:21 GMT-0500 (Central Daylight Time),261192.40000003576,109_y_m_d_a.png,I,m,1043,17,1,2053.800000011921,259138.60000002384,8064,VNB,A,16
17,test,3,1.0,1-Back,1.0,m,Mon Oct 06 2025 13:46:21 GMT-0500 (Central Daylight Time),263324.60000002384,071_y_f_n_a.png,I,m,1111,18,1,2122.199999988079,261202.40000003576,8064,VNB,A,17
0,test,4,1.0,1-Back,,,Mon Oct 06 2025 13:46:21 GMT-0500 (Central Daylight Time),263324.60000002384,165_m_m_d_a.png,I,space,2044,1,1,2122.199999988079,261202.40000003576,8064,VNB,A,0
1,test,4,0.0,1-Back,1.0,z,Mon Oct 06 2025 13:46:21 GMT-0500 (Central Daylight Time),269421.6999999881,039_o_m_d_a.png,I,z,1002,2,1,2021.7999999523163,267399.90000003576,8064,VNB,A,1
2,test,4,0.0,1-Back,1.0,m,Mon Oct 06 2025 13:46:21 GMT-0500 (Central Daylight Time),271472.40000003576,109_y_m_h_a.png,I,m,1017,3,1,2038.6000000238419,269433.8000000119,8064,VNB,A,2
3,test,4,0.0,1-Back,1.0,m,Mon Oct 06 2025 13:46:21 GMT-0500 (Central Daylight Time),273370.90000003576,139_m_f_n_a.png,I,m,870,4,1,1886.1000000238419,271484.8000000119,8064,VNB,A,3
4,test,4,1.0,1-Back,1.0,m,Mon Oct 06 2025 13:46:21 GMT-0500 (Central Daylight Time),275420.6999999881,124_o_f_h_a.png,I,m,1020,5,1,2040.2999999523163,273380.40000003576,8064,VNB,A,4
5,test,4,0.0,1-Back,1.0,m,Mon Oct 06 2025 13:46:21 GMT-0500 (Central Daylight Time),277285.1999999881,165_m_m_n_a.png,I,m,843,6,1,1853.699999988079,275431.5,8064,VNB,A,5
6,test,4,0.0,1-Back,1.0,m,Mon Oct 06 2025 13:46:21 GMT-0500 (Central Daylight Time),279187.40000003576,109_y_m_d_a.png,I,m,871,7,1,1889.800000011921,277297.60000002384,8064,VNB,A,6
7,test,4,1.0,1-Back,1.0,z,Mon Oct 06 2025 13:46:21 GMT-0500 (Central Daylight Time),281018.1999999881,071_y_f_d_a.png,I,z,807,8,1,1819.699999988079,279198.5,8064,VNB,A,7
8,test,4,0.0,1-Back,1.0,m,Mon Oct 06 2025 13:46:21 GMT-0500 (Central Daylight Time),282734.90000003576,139_m_f_h_a.png,I,m,685,9,1,1704.300000011921,281030.60000002384,8064,VNB,A,8
9,test,4,0.0,1-Back,1.0,z,Mon Oct 06 2025 13:46:21 GMT-0500 (Central Daylight Time),284533.6999999881,039_o_m_h_a.png,I,z,770,10,1,1789.5999999642372,282744.10000002384,8064,VNB,A,9
10,test,4,1.0,1-Back,1.0,m,Mon Oct 06 2025 13:46:21 GMT-0500 (Central Daylight Time),286383.6999999881,124_o_f_n_a.png,I,m,817,11,1,1839.7999999523163,284543.90000003576,8064,VNB,A,10
11,test,4,0.0,1-Back,1.0,m,Mon Oct 06 2025 13:46:21 GMT-0500 (Central Daylight Time),288299.3000000119,139_m_f_d_a.png,I,m,889,12,1,1905.8999999761581,286393.40000003576,8064,VNB,A,11
12,test,4,0.0,1-Back,1.0,m,Mon Oct 06 2025 13:46:21 GMT-0500 (Central Daylight Time),290266.0,071_y_f_n_a.png,I,m,937,13,1,1956.800000011921,288309.1999999881,8064,VNB,A,12
12,test,4,0.0,1-Back,0.0,m,Mon Oct 06 2025 13:46:21 GMT-0500 (Central Daylight Time),292715.0,124_o_f_d_a.png,I,z,1422,14,1,2436.099999964237,290278.90000003576,8064,VNB,A,13
13,test,4,0.0,1-Back,1.0,m,Mon Oct 06 2025 13:46:21 GMT-0500 (Central Daylight Time),294650.5,071_y_f_h_a.png,I,m,908,15,1,1925.3999999761581,292725.10000002384,8064,VNB,A,14
14,test,4,1.0,1-Back,1.0,z,Mon Oct 06 2025 13:46:21 GMT-0500 (Central Daylight Time),296430.6999999881,165_m_m_h_a.png,I,z,741,16,1,1765.699999988079,294665.0,8064,VNB,A,15
15,test,4,0.0,1-Back,1.0,m,Mon Oct 06 2025 13:46:21 GMT-0500 (Central Daylight Time),298246.40000003576,039_o_m_n_a.png,I,m,794,17,1,1804.4000000357628,296442.0,8064,VNB,A,16
16,test,4,1.0,1-Back,1.0,z,Mon Oct 06 2025 13:46:21 GMT-0500 (Central Daylight Time),300330.3000000119,109_y_m_n_a.png,I,z,1066,18,1,2074.399999976158,298255.90000003576,8064,VNB,A,17
0,test,5,1.0,1-Back,,,Mon Oct 06 2025 13:46:21 GMT-0500 (Central Daylight Time),300330.3000000119,039_o_m_n_a.png,I,space,2549,1,1,2074.399999976158,298255.90000003576,8064,VNB,A,0
1,test,5,1.0,1-Back,1.0,m,Mon Oct 06 2025 13:46:21 GMT-0500 (Central Daylight Time),306844.10000002384,124_o_f_h_a.png,I,m,912,2,1,1922.6000000238419,304921.5,8064,VNB,A,1
2,test,5,0.0,1-Back,1.0,m,Mon Oct 06 2025 13:46:21 GMT-0500 (Central Daylight Time),309026.5,109_y_m_d_a.png,I,m,1154,3,1,2172.599999964237,306853.90000003576,8064,VNB,A,2
3,test,5,0.0,1-Back,1.0,z,Mon Oct 06 2025 13:46:21 GMT-0500 (Central Daylight Time),310842.90000003576,039_o_m_d_a.png,I,z,798,4,1,1805.7000000476837,309037.1999999881,8064,VNB,A,3
4,test,5,0.0,1-Back,1.0,m,Mon Oct 06 2025 13:46:21 GMT-0500 (Central Daylight Time),312628.0,139_m_f_h_a.png,I,m,757,5,1,1775.199999988079,310852.8000000119,8064,VNB,A,4
5,test,5,0.0,1-Back,1.0,m,Mon Oct 06 2025 13:46:21 GMT-0500 (Central Daylight Time),314558.10000002384,071_y_f_n_a.png,I,m,910,6,1,1918.199999988079,312639.90000003576,8064,VNB,A,5
6,test,5,1.0,1-Back,1.0,z,Mon Oct 06 2025 13:46:21 GMT-0500 (Central Daylight Time),316441.0,124_o_f_n_a.png,I,z,866,7,1,1872.199999988079,314568.8000000119,8064,VNB,A,6
7,test,5,0.0,1-Back,1.0,m,Mon Oct 06 2025 13:46:21 GMT-0500 (Central Daylight Time),318357.10000002384,139_m_f_d_a.png,I,m,887,8,1,1906.199999988079,316450.90000003576,8064,VNB,A,7
8,test,5,0.0,1-Back,1.0,m,Mon Oct 06 2025 13:46:21 GMT-0500 (Central Daylight Time),320172.1999999881,109_y_m_h_a.png,I,m,786,9,1,1802.5,318369.6999999881,8064,VNB,A,8
9,test,5,0.0,1-Back,1.0,m,Mon Oct 06 2025 13:46:21 GMT-0500 (Central Daylight Time),322006.40000003576,071_y_f_d_a.png,I,m,804,10,1,1824.300000011921,320182.10000002384,8064,VNB,A,9
10,test,5,0.0,1-Back,1.0,m,Mon Oct 06 2025 13:46:21 GMT-0500 (Central Daylight Time),324005.60000002384,165_m_m_n_a.png,I,m,972,11,1,1989.1000000238419,322016.5,8064,VNB,A,10
11,test,5,1.0,1-Back,1.0,z,Mon Oct 06 2025 13:46:21 GMT-0500 (Central Daylight Time),325837.60000002384,139_m_f_n_a.png,I,z,803,12,1,1821.0,324016.60000002384,8064,VNB,A,11
12,test,5,0.0,1-Back,1.0,m,Mon Oct 06 2025 13:46:21 GMT-0500 (Central Daylight Time),327637.60000002384,039_o_m_h_a.png,I,m,772,13,1,1788.6000000238419,325849.0,8064,VNB,A,12
13,test,5,0.0,1-Back,1.0,z,Mon Oct 06 2025 13:46:21 GMT-0500 (Central Daylight Time),329370.1999999881,165_m_m_h_a.png,I,z,714,14,1,1722.2999999523163,327647.90000003576,8064,VNB,A,13
14,test,5,1.0,1-Back,1.0,m,Mon Oct 06 2025 13:46:21 GMT-0500 (Central Daylight Time),331168.90000003576,124_o_f_d_a.png,I,m,783,15,1,1789.4000000357628,329379.5,8064,VNB,A,14
15,test,5,0.0,1-Back,1.0,m,Mon Oct 06 2025 13:46:21 GMT-0500 (Central Daylight Time),333135.3000000119,109_y_m_n_a.png,I,m,933,16,1,1957.699999988079,331177.60000002384,8064,VNB,A,15
16,test,5,0.0,1-Back,1.0,m,Mon Oct 06 2025 13:46:21 GMT-0500 (Central Daylight Time),335167.6999999881,071_y_f_h_a.png,I,m,1008,17,1,2022.699999988079,333145.0,8064,VNB,A,16
17,test,5,0.0,1-Back,1.0,m,Mon Oct 06 2025 13:46:21 GMT-0500 (Central Daylight Time),337018.60000002384,165_m_m_d_a.png,I,m,824,18,1,1841.0,335177.60000002384,8064,VNB,A,17
0,prac,1,0.0,2-Back,,,Mon Oct 06 2025 13:46:21 GMT-0500 (Central Daylight Time),337018.60000002384,139_m_f_n_a.png,I,space,1936,1,1,1841.0,335177.60000002384,8064,VNB,A,0
0,prac,1,0.0,2-Back,,,Mon Oct 06 2025 13:46:21 GMT-0500 (Central Daylight Time),337018.60000002384,124_o_f_h_a.png,I,space,1936,2,1,1841.0,335177.60000002384,8064,VNB,A,0
1,prac,1,0.0,2-Back,1.0,m,Mon Oct 06 2025 13:46:21 GMT-0500 (Central Daylight Time),412393.1999999881,039_o_m_d_a.png,I,m,1072,3,1,1856.0999999642372,410537.10000002384,8064,VNB,A,1
2,prac,1,1.0,2-Back,1.0,z,Mon Oct 06 2025 13:46:21 GMT-0500 (Central Daylight Time),414359.10000002384,165_m_m_h_a.png,I,z,1161,4,1,1954.4000000357628,412404.6999999881,8064,VNB,A,2
2,prac,1,0.0,2-Back,0.0,m,Mon Oct 06 2025 13:46:21 GMT-0500 (Central Daylight Time),416242.6999999881,071_y_f_n_a.png,I,z,1077,5,1,1870.7999999523163,414371.90000003576,8064,VNB,A,3
2,prac,1,1.0,2-Back,0.0,z,Mon Oct 06 2025 13:46:21 GMT-0500 (Central Daylight Time),418341.8000000119,039_o_m_h_a.png,I,m,1287,6,1,2082.800000011921,416259.0,8064,VNB,A,4
2,prac,1,1.0,2-Back,0.0,z,Mon Oct 06 2025 13:46:21 GMT-0500 (Central Daylight Time),420559.6999999881,109_y_m_n_a.png,I,m,1395,7,1,2208.599999964237,418351.10000002384,8064,VNB,A,5
2,prac,1,0.0,2-Back,0.0,m,Mon Oct 06 2025 13:46:21 GMT-0500 (Central Daylight Time),422607.8000000119,139_m_f_d_a.png,I,z,1241,8,1,2036.199999988079,420571.60000002384,8064,VNB,A,6
2,prac,1,0.0,2-Back,0.0,m,Mon Oct 06 2025 13:46:21 GMT-0500 (Central Daylight Time),425439.40000003576,124_o_f_d_a.png,I,None,2003,9,1,2818.0,422621.40000003576,8064,VNB,A,7
2,prac,1,0.0,2-Back,0.0,m,Mon Oct 06 2025 13:46:21 GMT-0500 (Central Daylight Time),428222.60000002384,165_m_m_h_a.png,I,None,2004,10,1,2771.0,425451.60000002384,8064,VNB,A,8
2,prac,1,1.0,2-Back,0.0,z,Mon Oct 06 2025 13:46:21 GMT-0500 (Central Daylight Time),431038.0,071_y_f_d_a.png,I,None,2013,11,1,2802.199999988079,428235.8000000119,8064,VNB,A,9
2,prac,1,0.0,2-Back,0.0,m,Mon Oct 06 2025 13:46:21 GMT-0500 (Central Daylight Time),433852.90000003576,039_o_m_n_a.png,I,None,2015,12,1,2802.7000000476837,431050.1999999881,8064,VNB,A,10
0,prac,2,0.0,2-Back,,,Mon Oct 06 2025 13:46:21 GMT-0500 (Central Daylight Time),433852.90000003576,139_m_f_n_a.png,I,a,5673,1,1,2802.7000000476837,431050.1999999881,8064,VNB,A,0
0,prac,2,0.0,2-Back,,,Mon Oct 06 2025 13:46:21 GMT-0500 (Central Daylight Time),433852.90000003576,124_o_f_h_a.png,I,a,5673,2,1,2802.7000000476837,431050.1999999881,8064,VNB,A,0
1,prac,2,0.0,2-Back,1.0,m,Mon Oct 06 2025 13:46:21 GMT-0500 (Central Daylight Time),446665.1999999881,039_o_m_d_a.png,I,m,1234,3,1,2021.5999999642372,444643.60000002384,8064,VNB,A,1
2,prac,2,1.0,2-Back,1.0,z,Mon Oct 06 2025 13:46:21 GMT-0500 (Central Daylight Time),449066.1999999881,165_m_m_h_a.png,I,z,1615,4,1,2391.5,446674.6999999881,8064,VNB,A,2
2,prac,2,0.0,2-Back,0.0,m,Mon Oct 06 2025 13:46:21 GMT-0500 (Central Daylight Time),451615.90000003576,071_y_f_n_a.png,I,z,1750,5,1,2537.900000035763,449078.0,8064,VNB,A,3
3,prac,2,1.0,2-Back,1.0,z,Mon Oct 06 2025 13:46:21 GMT-0500 (Central Daylight Time),453597.60000002384,039_o_m_h_a.png,I,z,1179,6,1,1971.0,451626.60000002384,8064,VNB,A,4
4,prac,2,1.0,2-Back,1.0,z,Mon Oct 06 2025 13:46:21 GMT-0500 (Central Daylight Time),455498.8000000119,109_y_m_n_a.png,I,z,1112,7,1,1889.1000000238419,453609.6999999881,8064,VNB,A,5
5,prac,2,0.0,2-Back,1.0,m,Mon Oct 06 2025 13:46:21 GMT-0500 (Central Daylight Time),457230.8000000119,139_m_f_d_a.png,I,m,941,8,1,1721.300000011921,455509.5,8064,VNB,A,6
6,prac,2,0.0,2-Back,1.0,m,Mon Oct 06 2025 13:46:21 GMT-0500 (Central Daylight Time),459379.10000002384,124_o_f_d_a.png,I,m,1319,9,1,2137.300000011921,457241.8000000119,8064,VNB,A,7
6,prac,2,0.0,2-Back,0.0,m,Mon Oct 06 2025 13:46:21 GMT-0500 (Central Daylight Time),461277.60000002384,165_m_m_h_a.png,I,z,1129,10,1,1887.199999988079,459390.40000003576,8064,VNB,A,8
7,prac,2,1.0,2-Back,1.0,z,Mon Oct 06 2025 13:46:21 GMT-0500 (Central Daylight Time),463513.5,071_y_f_d_a.png,I,z,1426,11,1,2224.0,461289.5,8064,VNB,A,9
8,prac,2,0.0,2-Back,1.0,m,Mon Oct 06 2025 13:46:21 GMT-0500 (Central Daylight Time),465960.5,039_o_m_n_a.png,I,m,1637,12,1,2434.800000011921,463525.6999999881,8064,VNB,A,10
0,test,1,0.0,2-Back,,,Mon Oct 06 2025 13:46:21 GMT-0500 (Central Daylight Time),465960.5,109_y_m_h_a.png,I,space,1451,1,1,2434.800000011921,463525.6999999881,8064,VNB,A,0
0,test,1,0.0,2-Back,,,Mon Oct 06 2025 13:46:21 GMT-0500 (Central Daylight Time),465960.5,124_o_f_n_a.png,I,space,1451,2,1,2434.800000011921,463525.6999999881,8064,VNB,A,0
1,test,1,0.0,2-Back,1.0,z,Mon Oct 06 2025 13:46:21 GMT-0500 (Central Daylight Time),480172.6999999881,039_o_m_h_a.png,I,z,933,3,1,1940.5,478232.1999999881,8064,VNB,A,1
2,test,1,0.0,2-Back,1.0,m,Mon Oct 06 2025 13:46:21 GMT-0500 (Central Daylight Time),482138.5,139_m_f_d_a.png,I,m,942,4,1,1953.5999999642372,480184.90000003576,8064,VNB,A,2
2,test,1,1.0,2-Back,0.0,m,Mon Oct 06 2025 13:46:21 GMT-0500 (Central Daylight Time),485170.90000003576,109_y_m_n_a.png,I,None,2016,5,1,3021.300000011921,482149.60000002384,8064,VNB,A,3
3,test,1,0.0,2-Back,1.0,z,Mon Oct 06 2025 13:46:21 GMT-0500 (Central Daylight Time),487219.1999999881,071_y_f_d_a.png,I,z,1020,6,1,2037.8999999761581,485181.3000000119,8064,VNB,A,4
4,test,1,0.0,2-Back,1.0,m,Mon Oct 06 2025 13:46:21 GMT-0500 (Central Daylight Time),489436.1999999881,165_m_m_h_a.png,I,m,1188,7,1,2208.2999999523163,487227.90000003576,8064,VNB,A,5
4,test,1,1.0,2-Back,0.0,m,Mon Oct 06 2025 13:46:21 GMT-0500 (Central Daylight Time),491468.3000000119,071_y_f_n_a.png,I,z,1013,8,1,2017.0,489451.3000000119,8064,VNB,A,6
5,test,1,0.0,2-Back,1.0,z,Mon Oct 06 2025 13:46:21 GMT-0500 (Central Daylight Time),493650.90000003576,124_o_f_h_a.png,I,z,1155,9,1,2172.400000035763,491478.5,8064,VNB,A,7
6,test,1,0.0,2-Back,1.0,m,Mon Oct 06 2025 13:46:21 GMT-0500 (Central Daylight Time),495667.1999999881,039_o_m_d_a.png,I,m,999,10,1,2005.3999999761581,493661.8000000119,8064,VNB,A,8
6,test,1,1.0,2-Back,0.0,m,Mon Oct 06 2025 13:46:21 GMT-0500 (Central Daylight Time),498151.90000003576,165_m_m_d_a.png,I,z,1460,11,1,2473.100000023842,495678.8000000119,8064,VNB,A,9
6,test,1,0.0,2-Back,0.0,m,Mon Oct 06 2025 13:46:21 GMT-0500 (Central Daylight Time),500798.90000003576,139_m_f_n_a.png,I,z,1617,12,1,2638.100000023842,498160.8000000119,8064,VNB,A,10
7,test,1,0.0,2-Back,1.0,m,Mon Oct 06 2025 13:46:21 GMT-0500 (Central Daylight Time),503166.40000003576,071_y_f_h_a.png,I,m,1337,13,1,2357.100000023842,500809.3000000119,8064,VNB,A,11
8,test,1,0.0,2-Back,1.0,z,Mon Oct 06 2025 13:46:21 GMT-0500 (Central Daylight Time),505097.6999999881,165_m_m_n_a.png,I,z,899,14,1,1919.199999988079,503178.5,8064,VNB,A,12
9,test,1,0.0,2-Back,1.0,m,Mon Oct 06 2025 13:46:21 GMT-0500 (Central Daylight Time),507096.8000000119,109_y_m_d_a.png,I,m,966,15,1,1991.300000011921,505105.5,8064,VNB,A,13
9,test,1,1.0,2-Back,0.0,m,Mon Oct 06 2025 13:46:21 GMT-0500 (Central Daylight Time),508929.60000002384,139_m_f_h_a.png,I,z,808,16,1,1820.6000000238419,507109.0,8064,VNB,A,14
10,test,1,0.0,2-Back,1.0,z,Mon Oct 06 2025 13:46:21 GMT-0500 (Central Daylight Time),511378.3000000119,124_o_f_d_a.png,I,z,1421,17,1,2438.5,508939.8000000119,8064,VNB,A,15
11,test,1,0.0,2-Back,1.0,m,Mon Oct 06 2025 13:46:21 GMT-0500 (Central Daylight Time),513644.5,039_o_m_n_a.png,I,m,1246,18,1,2255.800000011921,511388.6999999881,8064,VNB,A,16
0,test,2,0.0,2-Back,,,Mon Oct 06 2025 13:46:21 GMT-0500 (Central Daylight Time),513644.5,165_m_m_h_a.png,I,space,2004,1,1,2255.800000011921,511388.6999999881,8064,VNB,A,0
0,test,2,0.0,2-Back,,,Mon Oct 06 2025 13:46:21 GMT-0500 (Central Daylight Time),513644.5,071_y_f_n_a.png,I,space,2004,2,1,2255.800000011921,511388.6999999881,8064,VNB,A,0
1,test,2,1.0,2-Back,1.0,z,Mon Oct 06 2025 13:46:21 GMT-0500 (Central Daylight Time),522841.90000003576,124_o_f_h_a.png,I,z,1079,3,1,2100.100000023842,520741.8000000119,8064,VNB,A,1
2,test,2,0.0,2-Back,1.0,m,Mon Oct 06 2025 13:46:21 GMT-0500 (Central Daylight Time),525191.1999999881,039_o_m_d_a.png,I,m,1318,4,1,2339.199999988079,522852.0,8064,VNB,A,2
2,test,2,0.0,2-Back,0.0,m,Mon Oct 06 2025 13:46:21 GMT-0500 (Central Daylight Time),527458.1999999881,139_m_f_d_a.png,I,z,1249,5,1,2256.199999988079,525202.0,8064,VNB,A,3
2,test,2,0.0,2-Back,0.0,m,Mon Oct 06 2025 13:46:21 GMT-0500 (Central Daylight Time),530238.0,109_y_m_h_a.png,I,z,1750,6,1,2767.099999964237,527470.9000000358,8064,VNB,A,4
2,test,2,0.0,2-Back,0.0,m,Mon Oct 06 2025 13:46:21 GMT-0500 (Central Daylight Time),532655.1999999881,124_o_f_n_a.png,I,z,1383,7,1,2408.099999964237,530247.1000000238,8064,VNB,A,5
3,test,2,1.0,2-Back,1.0,z,Mon Oct 06 2025 13:46:21 GMT-0500 (Central Daylight Time),534721.9000000358,039_o_m_h_a.png,I,z,1050,8,1,2055.100000023842,532666.8000000119,8064,VNB,A,6
4,test,2,0.0,2-Back,1.0,m,Mon Oct 06 2025 13:46:21 GMT-0500 (Central Daylight Time),536787.6000000238,071_y_f_d_a.png,I,m,1048,9,1,2056.100000023842,534731.5,8064,VNB,A,7
5,test,2,0.0,2-Back,1.0,m,Mon Oct 06 2025 13:46:21 GMT-0500 (Central Daylight Time),539103.1000000238,109_y_m_d_a.png,I,m,1285,10,1,2304.5,536798.6000000238,8064,VNB,A,8
6,test,2,0.0,2-Back,1.0,m,Mon Oct 06 2025 13:46:21 GMT-0500 (Central Daylight Time),541607.1999999881,165_m_m_n_a.png,I,m,1469,11,1,2490.899999976158,539116.3000000119,8064,VNB,A,9
6,test,2,0.0,2-Back,0.0,m,Mon Oct 06 2025 13:46:21 GMT-0500 (Central Daylight Time),544234.6000000238,139_m_f_h_a.png,I,z,1606,12,1,2617.300000011921,541617.3000000119,8064,VNB,A,10
7,test,2,1.0,2-Back,1.0,z,Mon Oct 06 2025 13:46:21 GMT-0500 (Central Daylight Time),546785.1999999881,039_o_m_n_a.png,I,z,1527,13,1,2539.0,544246.1999999881,8064,VNB,A,11
8,test,2,0.0,2-Back,1.0,m,Mon Oct 06 2025 13:46:21 GMT-0500 (Central Daylight Time),549250.6000000238,124_o_f_d_a.png,I,m,1440,14,1,2454.300000011921,546796.3000000119,8064,VNB,A,12
9,test,2,0.0,2-Back,1.0,m,Mon Oct 06 2025 13:46:21 GMT-0500 (Central Daylight Time),551283.4000000358,071_y_f_h_a.png,I,m,1016,15,1,2021.4000000357628,549262.0,8064,VNB,A,13
10,test,2,0.0,2-Back,1.0,z,Mon Oct 06 2025 13:46:21 GMT-0500 (Central Daylight Time),553265.4000000358,165_m_m_d_a.png,I,z,965,16,1,1971.5,551293.9000000358,8064,VNB,A,14
11,test,2,0.0,2-Back,1.0,m,Mon Oct 06 2025 13:46:21 GMT-0500 (Central Daylight Time),555398.1999999881,109_y_m_n_a.png,I,m,1112,17,1,2123.5,553274.6999999881,8064,VNB,A,15
11,test,2,1.0,2-Back,0.0,m,Mon Oct 06 2025 13:46:21 GMT-0500 (Central Daylight Time),558048.1999999881,139_m_f_n_a.png,I,z,1620,18,1,2638.0,555410.1999999881,8064,VNB,A,16
0,test,3,1.0,2-Back,,,Mon Oct 06 2025 13:46:21 GMT-0500 (Central Daylight Time),558048.1999999881,039_o_m_n_a.png,I,space,1624,1,1,2638.0,555410.1999999881,8064,VNB,A,0
0,test,3,1.0,2-Back,,,Mon Oct 06 2025 13:46:21 GMT-0500 (Central Daylight Time),558048.1999999881,124_o_f_d_a.png,I,space,1624,2,1,2638.0,555410.1999999881,8064,VNB,A,0
1,test,3,0.0,2-Back,1.0,m,Mon Oct 06 2025 13:46:21 GMT-0500 (Central Daylight Time),566826.6999999881,071_y_f_h_a.png,I,m,1095,3,1,2103.0,564723.6999999881,8064,VNB,A,1
2,test,3,0.0,2-Back,1.0,z,Mon Oct 06 2025 13:46:21 GMT-0500 (Central Daylight Time),568710.8000000119,139_m_f_d_a.png,I,z,851,4,1,1873.3999999761581,566837.4000000358,8064,VNB,A,2
3,test,3,1.0,2-Back,1.0,m,Mon Oct 06 2025 13:46:21 GMT-0500 (Central Daylight Time),571076.8000000119,109_y_m_n_a.png,I,m,1336,5,1,2356.0,568720.8000000119,8064,VNB,A,3
3,test,3,0.0,2-Back,0.0,m,Mon Oct 06 2025 13:46:21 GMT-0500 (Central Daylight Time),573709.0,039_o_m_h_a.png,I,z,1612,6,1,2622.5,571086.5,8064,VNB,A,4
4,test,3,0.0,2-Back,1.0,z,Mon Oct 06 2025 13:46:21 GMT-0500 (Central Daylight Time),575974.6000000238,071_y_f_n_a.png,I,z,1243,7,1,2255.400000035763,573719.1999999881,8064,VNB,A,5
4,test,3,1.0,2-Back,0.0,m,Mon Oct 06 2025 13:46:21 GMT-0500 (Central Daylight Time),578740.6000000238,165_m_m_d_a.png,I,z,1743,8,1,2757.800000011921,575982.8000000119,8064,VNB,A,6
5,test,3,0.0,2-Back,1.0,m,Mon Oct 06 2025 13:46:21 GMT-0500 (Central Daylight Time),580923.6999999881,109_y_m_d_a.png,I,m,1156,9,1,2173.599999964237,578750.1000000238,8064,VNB,A,7
5,test,3,0.0,2-Back,0.0,m,Mon Oct 06 2025 13:46:21 GMT-0500 (Central Daylight Time),583039.4000000358,124_o_f_h_a.png,I,z,1093,10,1,2105.0,580934.4000000358,8064,VNB,A,8
5,test,3,1.0,2-Back,0.0,m,Mon Oct 06 2025 13:46:21 GMT-0500 (Central Daylight Time),585305.9000000358,139_m_f_n_a.png,I,z,1248,11,1,2256.100000023842,583049.8000000119,8064,VNB,A,9
5,test,3,1.0,2-Back,0.0,z,Mon Oct 06 2025 13:46:21 GMT-0500 (Central Daylight Time),587354.8000000119,165_m_m_h_a.png,I,m,1023,12,1,2040.199999988079,585314.6000000238,8064,VNB,A,10
5,test,3,0.0,2-Back,0.0,m,Mon Oct 06 2025 13:46:21 GMT-0500 (Central Daylight Time),589120.1999999881,071_y_f_d_a.png,I,z,741,13,1,1755.699999988079,587364.5,8064,VNB,A,11
6,test,3,0.0,2-Back,1.0,m,Mon Oct 06 2025 13:46:21 GMT-0500 (Central Daylight Time),591386.6999999881,124_o_f_n_a.png,I,m,1239,14,1,2256.5,589130.1999999881,8064,VNB,A,12
6,test,3,0.0,2-Back,0.0,z,Mon Oct 06 2025 13:46:21 GMT-0500 (Central Daylight Time),594219.1999999881,039_o_m_d_a.png,I,m,1806,15,1,2822.7999999523163,591396.4000000358,8064,VNB,A,13
6,test,3,1.0,2-Back,0.0,m,Mon Oct 06 2025 13:46:21 GMT-0500 (Central Daylight Time),596035.4000000358,139_m_f_h_a.png,I,z,789,16,1,1804.0,594231.4000000358,8064,VNB,A,14
6,test,3,0.0,2-Back,0.0,m,Mon Oct 06 2025 13:46:21 GMT-0500 (Central Daylight Time),598767.8000000119,165_m_m_n_a.png,I,z,1710,17,1,2721.899999976158,596045.9000000358,8064,VNB,A,15
6,test,3,0.0,2-Back,0.0,z,Mon Oct 06 2025 13:46:21 GMT-0500 (Central Daylight Time),600702.0,109_y_m_h_a.png,I,m,904,18,1,1923.300000011921,598778.6999999881,8064,VNB,A,16
0,test,4,0.0,2-Back,,,Mon Oct 06 2025 13:46:21 GMT-0500 (Central Daylight Time),600702.0,139_m_f_n_a.png,I,space,1980,1,1,1923.300000011921,598778.6999999881,8064,VNB,A,0
0,test,4,0.0,2-Back,,,Mon Oct 06 2025 13:46:21 GMT-0500 (Central Daylight Time),600702.0,039_o_m_n_a.png,I,space,1980,2,1,1923.300000011921,598778.6999999881,8064,VNB,A,0
1,test,4,1.0,2-Back,1.0,m,Mon Oct 06 2025 13:46:21 GMT-0500 (Central Daylight Time),609700.0,109_y_m_h_a.png,I,m,934,3,1,1941.800000011921,607758.1999999881,8064,VNB,A,1
2,test,4,1.0,2-Back,1.0,m,Mon Oct 06 2025 13:46:21 GMT-0500 (Central Daylight Time),611780.6000000238,124_o_f_d_a.png,I,m,1064,4,1,2069.400000035763,609711.1999999881,8064,VNB,A,2
2,test,4,0.0,2-Back,0.0,z,Mon Oct 06 2025 13:46:21 GMT-0500 (Central Daylight Time),614496.0,039_o_m_h_a.png,I,m,1691,5,1,2703.0,611793.0,8064,VNB,A,3
2,test,4,0.0,2-Back,0.0,m,Mon Oct 06 2025 13:46:21 GMT-0500 (Central Daylight Time),617313.8000000119,165_m_m_n_a.png,I,z,1801,6,1,2809.800000011921,614504.0,8064,VNB,A,4
2,test,4,0.0,2-Back,0.0,m,Mon Oct 06 2025 13:46:21 GMT-0500 (Central Daylight Time),619544.8000000119,139_m_f_d_a.png,I,z,1215,7,1,2222.300000011921,617322.5,8064,VNB,A,5
2,test,4,0.0,2-Back,0.0,z,Mon Oct 06 2025 13:46:21 GMT-0500 (Central Daylight Time),622576.6999999881,071_y_f_n_a.png,I,None,2014,8,1,3022.699999988079,619554.0,8064,VNB,A,6
2,test,4,1.0,2-Back,0.0,m,Mon Oct 06 2025 13:46:21 GMT-0500 (Central Daylight Time),624793.9000000358,124_o_f_h_a.png,I,z,1184,9,1,2206.400000035763,622587.5,8064,VNB,A,7
3,test,4,0.0,2-Back,1.0,m,Mon Oct 06 2025 13:46:21 GMT-0500 (Central Daylight Time),627025.6000000238,165_m_m_h_a.png,I,m,1215,10,1,2220.699999988079,624804.9000000358,8064,VNB,A,8
3,test,4,0.0,2-Back,0.0,m,Mon Oct 06 2025 13:46:21 GMT-0500 (Central Daylight Time),629241.1999999881,071_y_f_d_a.png,I,z,1191,11,1,2206.5,627034.6999999881,8064,VNB,A,9
4,test,4,0.0,2-Back,1.0,m,Mon Oct 06 2025 13:46:21 GMT-0500 (Central Daylight Time),631523.6000000238,109_y_m_n_a.png,I,m,1263,12,1,2270.699999988079,629252.9000000358,8064,VNB,A,10
4,test,4,0.0,2-Back,0.0,z,Mon Oct 06 2025 13:46:21 GMT-0500 (Central Daylight Time),633473.1000000238,039_o_m_d_a.png,I,m,925,13,1,1939.1000000238419,631534.0,8064,VNB,A,11
5,test,4,1.0,2-Back,1.0,m,Mon Oct 06 2025 13:46:21 GMT-0500 (Central Daylight Time),635722.3000000119,139_m_f_h_a.png,I,m,1223,14,1,2237.100000023842,633485.1999999881,8064,VNB,A,12
6,test,4,1.0,2-Back,1.0,m,Mon Oct 06 2025 13:46:21 GMT-0500 (Central Daylight Time),637772.4000000358,071_y_f_h_a.png,I,m,1022,15,1,2038.5,635733.9000000358,8064,VNB,A,13
7,test,4,0.0,2-Back,1.0,m,Mon Oct 06 2025 13:46:21 GMT-0500 (Central Daylight Time),640404.5,124_o_f_n_a.png,I,m,1604,16,1,2621.199999988079,637783.3000000119,8064,VNB,A,14
7,test,4,0.0,2-Back,0.0,m,Mon Oct 06 2025 13:46:21 GMT-0500 (Central Daylight Time),642553.9000000358,109_y_m_d_a.png,I,z,1132,17,1,2137.300000011921,640416.6000000238,8064,VNB,A,15
8,test,4,1.0,2-Back,1.0,m,Mon Oct 06 2025 13:46:21 GMT-0500 (Central Daylight Time),644719.4000000358,165_m_m_d_a.png,I,m,1142,18,1,2156.0,642563.4000000358,8064,VNB,A,16
0,test,5,1.0,2-Back,,,Mon Oct 06 2025 13:46:21 GMT-0500 (Central Daylight Time),644719.4000000358,071_y_f_d_a.png,I,space,1553,1,1,2156.0,642563.4000000358,8064,VNB,A,0
0,test,5,1.0,2-Back,,,Mon Oct 06 2025 13:46:21 GMT-0500 (Central Daylight Time),644719.4000000358,124_o_f_h_a.png,I,space,1553,2,1,2156.0,642563.4000000358,8064,VNB,A,0
1,test,5,1.0,2-Back,1.0,z,Mon Oct 06 2025 13:46:21 GMT-0500 (Central Daylight Time),653200.3000000119,039_o_m_d_a.png,I,z,810,3,1,1822.1000000238419,651378.1999999881,8064,VNB,A,1
2,test,5,1.0,2-Back,1.0,m,Mon Oct 06 2025 13:46:21 GMT-0500 (Central Daylight Time),655365.0,139_m_f_n_a.png,I,m,1135,4,1,2154.399999976158,653210.6000000238,8064,VNB,A,2
2,test,5,0.0,2-Back,0.0,m,Mon Oct 06 2025 13:46:21 GMT-0500 (Central Daylight Time),657365.5,165_m_m_h_a.png,I,z,980,5,1,1993.5999999642372,655371.9000000358,8064,VNB,A,3
3,test,5,0.0,2-Back,1.0,z,Mon Oct 06 2025 13:46:21 GMT-0500 (Central Daylight Time),659635.0,071_y_f_n_a.png,I,z,1236,6,1,2257.800000011921,657377.1999999881,8064,VNB,A,4
4,test,5,0.0,2-Back,1.0,m,Mon Oct 06 2025 13:46:21 GMT-0500 (Central Daylight Time),661614.6000000238,124_o_f_d_a.png,I,m,954,7,1,1969.6000000238419,659645.0,8064,VNB,A,5
5,test,5,0.0,2-Back,1.0,m,Mon Oct 06 2025 13:46:21 GMT-0500 (Central Daylight Time),663964.0,039_o_m_h_a.png,I,m,1321,8,1,2339.199999988079,661624.8000000119,8064,VNB,A,6
6,test,5,1.0,2-Back,1.0,z,Mon Oct 06 2025 13:46:21 GMT-0500 (Central Daylight Time),666396.9000000358,139_m_f_d_a.png,I,z,1404,9,1,2421.7000000476837,663975.1999999881,8064,VNB,A,7
7,test,5,0.0,2-Back,1.0,m,Mon Oct 06 2025 13:46:21 GMT-0500 (Central Daylight Time),668546.9000000358,109_y_m_n_a.png,I,m,1123,10,1,2137.7000000476837,666409.1999999881,8064,VNB,A,8
8,test,5,0.0,2-Back,1.0,m,Mon Oct 06 2025 13:46:21 GMT-0500 (Central Daylight Time),670478.9000000358,165_m_m_n_a.png,I,m,912,11,1,1921.800000011921,668557.1000000238,8064,VNB,A,9
8,test,5,0.0,2-Back,0.0,m,Mon Oct 06 2025 13:46:21 GMT-0500 (Central Daylight Time),672361.6999999881,071_y_f_h_a.png,I,z,866,12,1,1872.0999999642372,670489.6000000238,8064,VNB,A,10
9,test,5,0.0,2-Back,1.0,m,Mon Oct 06 2025 13:46:21 GMT-0500 (Central Daylight Time),675176.6999999881,109_y_m_d_a.png,I,m,1792,13,1,2803.699999988079,672373.0,8064,VNB,A,11
9,test,5,1.0,2-Back,0.0,z,Mon Oct 06 2025 13:46:21 GMT-0500 (Central Daylight Time),677161.0,139_m_f_h_a.png,I,m,950,14,1,1973.0,675188.0,8064,VNB,A,12
10,test,5,0.0,2-Back,1.0,m,Mon Oct 06 2025 13:46:21 GMT-0500 (Central Daylight Time),679958.3000000119,039_o_m_n_a.png,I,m,1777,15,1,2787.300000011921,677171.0,8064,VNB,A,13
11,test,5,0.0,2-Back,1.0,m,Mon Oct 06 2025 13:46:21 GMT-0500 (Central Daylight Time),682376.3000000119,165_m_m_d_a.png,I,m,1395,16,1,2407.800000011921,679968.5,8064,VNB,A,14
12,test,5,0.0,2-Back,1.0,z,Mon Oct 06 2025 13:46:21 GMT-0500 (Central Daylight Time),684626.4000000358,124_o_f_n_a.png,I,z,1234,17,1,2239.0,682387.4000000358,8064,VNB,A,15
13,test,5,1.0,2-Back,1.0,m,Mon Oct 06 2025 13:46:21 GMT-0500 (Central Daylight Time),687307.1999999881,109_y_m_h_a.png,I,m,1657,18,1,2671.5,684635.6999999881,8064,VNB,A,16
