acc_sum,block_c,block_dur,condition,correct,correct_response,countdown,datetime,endtime,project,response,response_time,response_time_test1_response,response_time_test2_response,row_sel,same,session_number,start_end,starttime,stim1,stim2,subject_id,task,task_vers,time_test1,time_test2,trial
1,1,0.0,prac,1,z,30000.0,Thu Jan 22 2026 11:44:02 GMT-0600 (Central Standard Time),45854.10000038147,O,z,2412,,,5,yes,1,3927.4000000953674,41926.7000002861,practrial5.png,practrial5.png,7728,PC,C,,,1
2,1,0.0,prac,1,z,30000.0,Thu Jan 22 2026 11:44:02 GMT-0600 (Central Standard Time),49253.40000009537,O,z,1862,,,3,yes,1,3394.0999999046326,45859.300000190735,practrial3.png,practrial3.png,7728,PC,C,,,2
3,1,0.0,prac,1,z,30000.0,Thu Jan 22 2026 11:44:02 GMT-0600 (Central Standard Time),52403.10000038147,O,z,1625,,,1,yes,1,3146.1000003814697,49257.0,practrial1.png,practrial1.png,7728,PC,C,,,3
4,1,0.0,prac,1,m,30000.0,Thu Jan 22 2026 11:44:02 GMT-0600 (Central Standard Time),56152.800000190735,O,m,2219,,,6,no,1,3745.300000190735,52407.5,practrial6.png,practrial6b.png,7728,PC,C,,,4
5,1,0.0,prac,1,m,30000.0,Thu Jan 22 2026 11:44:02 GMT-0600 (Central Standard Time),59316.5,O,m,1636,,,2,no,1,3159.7999997138977,56156.7000002861,practrial2.png,practrial2b.png,7728,PC,C,,,5
5,1,0.0,prac,0,m,30000.0,Thu Jan 22 2026 11:44:02 GMT-0600 (Central Standard Time),62666.60000038147,O,z,1825,,,4,no,1,3347.300000190735,59319.300000190735,practrial4.png,practrial4b.png,7728,PC,C,,,6
1,1,2.796999931335449,test,1,z,27203.00006866455,Thu Jan 22 2026 11:44:02 GMT-0600 (Central Standard Time),80509.2000002861,O,z,2790,2790,,1,yes,1,2794.5999999046326,77714.60000038147,test1trial1.png,test1trial1.png,7728,PC,C,74839,,1
2,1,4.063999891281128,test,1,m,25936.000108718872,Thu Jan 22 2026 11:44:02 GMT-0600 (Central Standard Time),81776.10000038147,O,m,1249,1249,,2,no,1,1264.8000001907349,80511.30000019073,test1trial2.png,test1trial2b.png,7728,PC,C,77636,,2
3,1,6.430999994277954,test,1,z,23569.000005722046,Thu Jan 22 2026 11:44:02 GMT-0600 (Central Standard Time),84143.30000019073,O,z,2360,2360,,3,yes,1,2364.800000190735,81778.5,test1trial3.png,test1trial3.png,7728,PC,C,78903,,3
4,1,7.851999998092651,test,1,m,22148.00000190735,Thu Jan 22 2026 11:44:02 GMT-0600 (Central Standard Time),85564.60000038147,O,m,1418,1418,,4,no,1,1419.2000002861023,84145.40000009537,test1trial4.png,test1trial4b.png,7728,PC,C,81270,,4
5,1,9.36299991607666,test,1,z,20637.00008392334,Thu Jan 22 2026 11:44:02 GMT-0600 (Central Standard Time),87075.60000038147,O,z,1508,1508,,5,yes,1,1508.8000001907349,85566.80000019073,test1trial5.png,test1trial5.png,7728,PC,C,82691,,5
6,1,10.878999948501587,test,1,m,19121.000051498413,Thu Jan 22 2026 11:44:02 GMT-0600 (Central Standard Time),88591.40000009537,O,m,1508,1508,,6,no,1,1513.6999998092651,87077.7000002861,test1trial6.png,test1trial6b.png,7728,PC,C,84202,,6
7,1,12.194000005722046,test,1,z,17805.999994277954,Thu Jan 22 2026 11:44:02 GMT-0600 (Central Standard Time),89906.80000019073,O,z,1302,1302,,7,yes,1,1312.8000001907349,88594.0,test1trial7.png,test1trial7.png,7728,PC,C,85719,,7
8,1,15.343999862670898,test,1,m,14656.000137329102,Thu Jan 22 2026 11:44:02 GMT-0600 (Central Standard Time),93056.7000002861,O,m,3131,3131,,8,no,1,3146.7000002861023,89910.0,test1trial8.png,test1trial8b.png,7728,PC,C,87035,,8
9,1,17.07699990272522,test,1,z,12923.00009727478,Thu Jan 22 2026 11:44:02 GMT-0600 (Central Standard Time),94789.7000002861,O,z,1718,1718,,9,yes,1,1730.4000000953674,93059.30000019073,test1trial9.png,test1trial9.png,7728,PC,C,90184,,9
10,1,18.426999807357788,test,1,m,11573.000192642212,Thu Jan 22 2026 11:44:02 GMT-0600 (Central Standard Time),96139.40000009537,O,m,1346,1346,,10,no,1,1347.1999998092651,94792.2000002861,test1trial10.png,test1trial10b.png,7728,PC,C,91917,,10
11,1,19.694000005722046,test,1,z,10305.999994277954,Thu Jan 22 2026 11:44:02 GMT-0600 (Central Standard Time),97406.0,O,z,1258,1258,,11,yes,1,1262.3999996185303,96143.60000038147,test1trial11.png,test1trial11.png,7728,PC,C,93268,,11
11,1,21.158999919891357,test,0,m,8841.000080108643,Thu Jan 22 2026 11:44:02 GMT-0600 (Central Standard Time),98871.7000002861,O,z,1446,1446,,12,no,1,1462.2000002861023,97409.5,test1trial12.png,test1trial12b.png,7728,PC,C,94535,,12
12,1,22.58999991416931,test,1,m,7410.0000858306885,Thu Jan 22 2026 11:44:02 GMT-0600 (Central Standard Time),100302.80000019073,O,m,1414,1414,,13,no,1,1428.8000001907349,98874.0,test1trial13.png,test1trial13b.png,7728,PC,C,95999,,13
13,1,23.991999864578247,test,1,m,6008.000135421753,Thu Jan 22 2026 11:44:02 GMT-0600 (Central Standard Time),101704.10000038147,O,m,1385,1385,,14,no,1,1399.2000002861023,100304.90000009537,test1trial14.png,test1trial14b.png,7728,PC,C,97430,,14
14,1,25.756999969482422,test,1,z,4243.000030517578,Thu Jan 22 2026 11:44:02 GMT-0600 (Central Standard Time),103469.40000009537,O,z,1746,1746,,15,yes,1,1759.4000000953674,101710.0,test1trial15.png,test1trial15.png,7728,PC,C,98835,,15
15,1,27.240999937057495,test,1,m,2759.000062942505,Thu Jan 22 2026 11:44:02 GMT-0600 (Central Standard Time),104953.5,O,m,1464,1464,,16,no,1,1480.2999997138977,103473.2000002861,test1trial16.png,test1trial16b.png,7728,PC,C,100598,,16
16,1,29.205999851226807,test,1,z,794.0001487731934,Thu Jan 22 2026 11:44:02 GMT-0600 (Central Standard Time),106918.2000002861,O,z,1945,1945,,17,yes,1,1959.0999999046326,104959.10000038147,test1trial17.png,test1trial17.png,7728,PC,C,102084,,17
16,1,30.006999969482422,test,0,m,-6.999969482421875,Thu Jan 22 2026 11:44:02 GMT-0600 (Central Standard Time),107719.30000019073,O,None,797,797,,18,no,1,798.1999998092651,106921.10000038147,test1trial18.png,test1trial18b.png,7728,PC,C,104046,,18
1,2,2.0820000171661377,test,1,m,27917.999982833862,Thu Jan 22 2026 11:44:02 GMT-0600 (Central Standard Time),115016.2000002861,O,m,2063,,2063.0,1,no,1,8095.099999904633,106921.10000038147,test2trial1.png,test2trial1b.png,7728,PC,C,,110063.0,1
2,2,3.9790000915527344,test,1,m,26020.999908447266,Thu Jan 22 2026 11:44:02 GMT-0600 (Central Standard Time),116914.2000002861,O,m,1883,,1883.0,2,no,1,9993.099999904633,106921.10000038147,test2trial2.png,test2trial2b.png,7728,PC,C,,112146.0,2
3,2,5.245000123977661,test,1,z,24754.99987602234,Thu Jan 22 2026 11:44:02 GMT-0600 (Central Standard Time),118180.10000038147,O,z,1259,,1259.0,3,yes,1,11259.0,106921.10000038147,test2trial3.png,test2trial3.png,7728,PC,C,,114043.0,3
4,2,6.5309998989105225,test,1,z,23469.000101089478,Thu Jan 22 2026 11:44:02 GMT-0600 (Central Standard Time),119465.5,O,z,1263,,1263.0,4,yes,1,12544.39999961853,106921.10000038147,test2trial4.png,test2trial4.png,7728,PC,C,,115311.0,4
5,2,8.413000106811523,test,1,z,21586.999893188477,Thu Jan 22 2026 11:44:02 GMT-0600 (Central Standard Time),121347.7000002861,O,z,1872,,1872.0,5,yes,1,14426.599999904633,106921.10000038147,test2trial5.png,test2trial5.png,7728,PC,C,,116597.0,5
6,2,10.013000011444092,test,1,z,19986.99998855591,Thu Jan 22 2026 11:44:02 GMT-0600 (Central Standard Time),122947.5,O,z,1594,,1594.0,6,yes,1,16026.39999961853,106921.10000038147,test2trial6.png,test2trial6.png,7728,PC,C,,118476.0,6
7,2,12.046000003814697,test,1,m,17953.999996185303,Thu Jan 22 2026 11:44:02 GMT-0600 (Central Standard Time),124980.5,O,m,2016,,2016.0,7,no,1,18059.39999961853,106921.10000038147,test2trial7.png,test2trial7b.png,7728,PC,C,,120078.0,7
8,2,13.611000061035156,test,1,m,16388.999938964844,Thu Jan 22 2026 11:44:02 GMT-0600 (Central Standard Time),126545.80000019073,O,m,1551,,1551.0,8,no,1,19624.699999809265,106921.10000038147,test2trial8.png,test2trial8b.png,7728,PC,C,,122111.0,8
9,2,15.57699990272522,test,1,z,14423.00009727478,Thu Jan 22 2026 11:44:02 GMT-0600 (Central Standard Time),128511.80000019073,O,z,1953,,1953.0,9,yes,1,21590.699999809265,106921.10000038147,test2trial9.png,test2trial9.png,7728,PC,C,,123677.0,9
10,2,16.84500002861023,test,1,z,13154.99997138977,Thu Jan 22 2026 11:44:02 GMT-0600 (Central Standard Time),129780.10000038147,O,z,1264,,1264.0,10,yes,1,22859.0,106921.10000038147,test2trial10.png,test2trial10.png,7728,PC,C,,125639.0,10
11,2,18.427000045776367,test,1,m,11572.999954223633,Thu Jan 22 2026 11:44:02 GMT-0600 (Central Standard Time),131361.60000038147,O,m,1570,,1570.0,11,no,1,24440.5,106921.10000038147,test2trial11.png,test2trial11b.png,7728,PC,C,,126908.0,11
12,2,19.9760000705719,test,1,m,10023.9999294281,Thu Jan 22 2026 11:44:02 GMT-0600 (Central Standard Time),132910.80000019073,O,m,1541,,1541.0,12,no,1,25989.699999809265,106921.10000038147,test2trial12.png,test2trial12b.png,7728,PC,C,,128490.0,12
13,2,21.759000062942505,test,1,z,8240.999937057495,Thu Jan 22 2026 11:44:02 GMT-0600 (Central Standard Time),134694.0,O,z,1768,,1768.0,13,yes,1,27772.89999961853,106921.10000038147,test2trial13.png,test2trial13.png,7728,PC,C,,130038.0,13
14,2,23.27500009536743,test,1,m,6724.999904632568,Thu Jan 22 2026 11:44:02 GMT-0600 (Central Standard Time),136209.90000009537,O,m,1498,,1498.0,14,no,1,29288.799999713898,106921.10000038147,test2trial14.png,test2trial14b.png,7728,PC,C,,131821.0,14
15,2,24.52500009536743,test,1,m,5474.999904632568,Thu Jan 22 2026 11:44:02 GMT-0600 (Central Standard Time),137460.30000019073,O,m,1244,,1244.0,15,no,1,30539.199999809265,106921.10000038147,test2trial15.png,test2trial15b.png,7728,PC,C,,133338.0,15
15,2,26.108999967575073,test,0,m,3891.0000324249268,Thu Jan 22 2026 11:44:02 GMT-0600 (Central Standard Time),139043.90000009537,O,z,1572,,1572.0,16,no,1,32122.799999713898,106921.10000038147,test2trial16.png,test2trial16b.png,7728,PC,C,,134587.0,16
16,2,27.509999990463257,test,1,z,2490.000009536743,Thu Jan 22 2026 11:44:02 GMT-0600 (Central Standard Time),140444.60000038147,O,z,1396,,1396.0,17,yes,1,33523.5,106921.10000038147,test2trial17.png,test2trial17.png,7728,PC,C,,136170.0,17
17,2,29.204999923706055,test,1,z,795.0000762939453,Thu Jan 22 2026 11:44:02 GMT-0600 (Central Standard Time),142139.60000038147,O,z,1680,,1680.0,18,yes,1,35218.5,106921.10000038147,test2trial18.png,test2trial18.png,7728,PC,C,,137573.0,18
17,2,30.005000114440918,test,0,z,-5.000114440917969,Thu Jan 22 2026 11:44:02 GMT-0600 (Central Standard Time),142939.5,O,None,797,,797.0,19,yes,1,36018.39999961853,106921.10000038147,test2trial19.png,test2trial19.png,7728,PC,C,,139266.0,19
