block_c,block_dur,condition,countdown,datetime,endtime,list,multichar_response,project,response,response_time,session_number,start_end,starttime,subject_id,task,task_vers,trial
,,,,Thu Apr 02 2026 10:43:43 GMT-0500 (Central Daylight Time),,,,O,space,472,1,,,7789,WL,B,
prac,,0,,Thu Apr 02 2026 10:43:43 GMT-0500 (Central Daylight Time),,NA,b,O,b,1173,1,,,7789,WL,B,1.0
prac,,0,,Thu Apr 02 2026 10:43:43 GMT-0500 (Central Daylight Time),,NA,bo,O,o,729,1,,,7789,WL,B,1.0
prac,,0,,Thu Apr 02 2026 10:43:43 GMT-0500 (Central Daylight Time),,NA,boo,O,o,158,1,,,7789,WL,B,1.0
prac,,0,,Thu Apr 02 2026 10:43:43 GMT-0500 (Central Daylight Time),,NA,boos,O,s,234,1,,,7789,WL,B,1.0
prac,,0,,Thu Apr 02 2026 10:43:43 GMT-0500 (Central Daylight Time),,NA,boost,O,t,317,1,,,7789,WL,B,1.0
prac,,0,,Thu Apr 02 2026 10:43:43 GMT-0500 (Central Daylight Time),,NA,boostenter,O,enter,1708,1,,,7789,WL,B,1.0
1,0.9000000953674316,learn,59099.99990463257,Thu Apr 02 2026 10:43:43 GMT-0500 (Central Daylight Time),179823.59999999404,A,a,O,a,892,1,899.4000000059605,178924.19999998808,7789,WL,B,1.0
1,1.4000000953674316,learn,58599.99990463257,Thu Apr 02 2026 10:43:43 GMT-0500 (Central Daylight Time),180323.69999998808,A,ar,O,r,478,1,1399.5,178924.19999998808,7789,WL,B,1.0
1,2.765000104904175,learn,57234.999895095825,Thu Apr 02 2026 10:43:43 GMT-0500 (Central Daylight Time),181688.89999997616,A,a,O,backspace,1344,1,2764.699999988079,178924.19999998808,7789,WL,B,1.0
1,3.1649999618530273,learn,56835.00003814697,Thu Apr 02 2026 10:43:43 GMT-0500 (Central Daylight Time),182089.09999999404,A,,O,backspace,391,1,3164.9000000059605,178924.19999998808,7789,WL,B,1.0
1,4.199000120162964,learn,55800.999879837036,Thu Apr 02 2026 10:43:43 GMT-0500 (Central Daylight Time),183122.19999998808,A,a,O,a,1013,1,4198.0,178924.19999998808,7789,WL,B,1.0
1,6.681999921798706,learn,53318.000078201294,Thu Apr 02 2026 10:43:43 GMT-0500 (Central Daylight Time),185605.89999997616,A,,O,backspace,2469,1,6681.699999988079,178924.19999998808,7789,WL,B,1.0
1,7.164999961853027,learn,52835.00003814697,Thu Apr 02 2026 10:43:43 GMT-0500 (Central Daylight Time),186088.69999998808,A,s,O,s,466,1,7164.5,178924.19999998808,7789,WL,B,1.0
1,7.796000003814697,learn,52203.9999961853,Thu Apr 02 2026 10:43:43 GMT-0500 (Central Daylight Time),186719.69999998808,A,st,O,t,612,1,7795.5,178924.19999998808,7789,WL,B,1.0
1,8.197999954223633,learn,51802.00004577637,Thu Apr 02 2026 10:43:43 GMT-0500 (Central Daylight Time),187121.89999997616,A,str,O,r,384,1,8197.699999988079,178924.19999998808,7789,WL,B,1.0
1,8.36299991607666,learn,51637.00008392334,Thu Apr 02 2026 10:43:43 GMT-0500 (Central Daylight Time),187287.0,A,stre,O,e,149,1,8362.800000011921,178924.19999998808,7789,WL,B,1.0
1,8.664000034332275,learn,51335.999965667725,Thu Apr 02 2026 10:43:43 GMT-0500 (Central Daylight Time),187587.59999999404,A,stree,O,e,277,1,8663.40000000596,178924.19999998808,7789,WL,B,1.0
1,8.895999908447266,learn,51104.000091552734,Thu Apr 02 2026 10:43:43 GMT-0500 (Central Daylight Time),187820.0,A,street,O,t,218,1,8895.800000011921,178924.19999998808,7789,WL,B,1.0
1,9.52999997138977,learn,50470.00002861023,Thu Apr 02 2026 10:43:43 GMT-0500 (Central Daylight Time),188454.0,A,streetenter,O,enter,627,1,9529.800000011921,178924.19999998808,7789,WL,B,1.0
1,10.497999906539917,learn,49502.00009346008,Thu Apr 02 2026 10:43:43 GMT-0500 (Central Daylight Time),189421.39999997616,A,d,O,d,945,1,967.0,188454.39999997616,7789,WL,B,2.0
1,10.763000011444092,learn,49236.99998855591,Thu Apr 02 2026 10:43:43 GMT-0500 (Central Daylight Time),189686.89999997616,A,do,O,o,250,1,1232.5,188454.39999997616,7789,WL,B,2.0
1,10.897000074386597,learn,49102.9999256134,Thu Apr 02 2026 10:43:43 GMT-0500 (Central Daylight Time),189820.69999998808,A,doo,O,o,126,1,1366.300000011921,188454.39999997616,7789,WL,B,2.0
1,11.130000114440918,learn,48869.99988555908,Thu Apr 02 2026 10:43:43 GMT-0500 (Central Daylight Time),190053.69999998808,A,door,O,r,227,1,1599.300000011921,188454.39999997616,7789,WL,B,2.0
1,11.930000066757202,learn,48069.9999332428,Thu Apr 02 2026 10:43:43 GMT-0500 (Central Daylight Time),190853.89999997616,A,doorenter,O,enter,791,1,2399.5,188454.39999997616,7789,WL,B,2.0
1,12.345999956130981,learn,47654.00004386902,Thu Apr 02 2026 10:43:43 GMT-0500 (Central Daylight Time),191270.0,A,a,O,a,401,1,415.80000001192093,190854.19999998808,7789,WL,B,3.0
1,12.647000074386597,learn,47352.9999256134,Thu Apr 02 2026 10:43:43 GMT-0500 (Central Daylight Time),191570.59999999404,A,ar,O,r,289,1,716.4000000059605,190854.19999998808,7789,WL,B,3.0
1,12.877000093460083,learn,47122.99990653992,Thu Apr 02 2026 10:43:43 GMT-0500 (Central Daylight Time),191800.89999997616,A,arm,O,m,212,1,946.6999999880791,190854.19999998808,7789,WL,B,3.0
1,13.510999917984009,learn,46489.00008201599,Thu Apr 02 2026 10:43:43 GMT-0500 (Central Daylight Time),192435.09999999404,A,armenter,O,enter,622,1,1580.9000000059605,190854.19999998808,7789,WL,B,3.0
1,14.394999980926514,learn,45605.000019073486,Thu Apr 02 2026 10:43:43 GMT-0500 (Central Daylight Time),193318.69999998808,A,p,O,p,869,1,883.4000000059605,192435.29999998212,7789,WL,B,4.0
1,14.84500002861023,learn,45154.99997138977,Thu Apr 02 2026 10:43:43 GMT-0500 (Central Daylight Time),193768.59999999404,A,pu,O,u,441,1,1333.300000011921,192435.29999998212,7789,WL,B,4.0
1,15.246999979019165,learn,44753.000020980835,Thu Apr 02 2026 10:43:43 GMT-0500 (Central Daylight Time),194171.0,A,pup,O,p,390,1,1735.7000000178814,192435.29999998212,7789,WL,B,4.0
1,15.811000108718872,learn,44188.99989128113,Thu Apr 02 2026 10:43:43 GMT-0500 (Central Daylight Time),194734.59999999404,A,pupi,O,i,556,1,2299.300000011921,192435.29999998212,7789,WL,B,4.0
1,16.094000101089478,learn,43905.99989891052,Thu Apr 02 2026 10:43:43 GMT-0500 (Central Daylight Time),195017.89999997616,A,pupil,O,l,262,1,2582.5999999940395,192435.29999998212,7789,WL,B,4.0
1,16.644999980926514,learn,43355.000019073486,Thu Apr 02 2026 10:43:43 GMT-0500 (Central Daylight Time),195568.59999999404,A,pupilenter,O,enter,531,1,3133.300000011921,192435.29999998212,7789,WL,B,4.0
1,17.094000101089478,learn,42905.99989891052,Thu Apr 02 2026 10:43:43 GMT-0500 (Central Daylight Time),196017.59999999404,A,f,O,f,438,1,448.80000001192093,195568.79999998212,7789,WL,B,5.0
1,17.212000131607056,learn,42787.999868392944,Thu Apr 02 2026 10:43:43 GMT-0500 (Central Daylight Time),196135.5,A,fi,O,i,111,1,566.7000000178814,195568.79999998212,7789,WL,B,5.0
1,17.51200008392334,learn,42487.99991607666,Thu Apr 02 2026 10:43:43 GMT-0500 (Central Daylight Time),196435.59999999404,A,fir,O,r,278,1,866.8000000119209,195568.79999998212,7789,WL,B,5.0
1,17.64400005340576,learn,42355.99994659424,Thu Apr 02 2026 10:43:43 GMT-0500 (Central Daylight Time),196567.79999998212,A,fire,O,e,123,1,999.0,195568.79999998212,7789,WL,B,5.0
1,22.360000133514404,learn,37639.999866485596,Thu Apr 02 2026 10:43:43 GMT-0500 (Central Daylight Time),201283.29999998212,A,fireenter,O,enter,4703,1,5714.5,195568.79999998212,7789,WL,B,5.0
1,22.9760000705719,learn,37023.9999294281,Thu Apr 02 2026 10:43:43 GMT-0500 (Central Daylight Time),201899.89999997616,A,c,O,c,602,1,616.3999999761581,201283.5,7789,WL,B,6.0
1,23.358999967575073,learn,36641.00003242493,Thu Apr 02 2026 10:43:43 GMT-0500 (Central Daylight Time),202283.09999999404,A,ci,O,i,371,1,999.5999999940395,201283.5,7789,WL,B,6.0
1,23.776000022888184,learn,36223.99997711182,Thu Apr 02 2026 10:43:43 GMT-0500 (Central Daylight Time),202699.5,A,cit,O,t,396,1,1416.0,201283.5,7789,WL,B,6.0
1,24.490999937057495,learn,35509.000062942505,Thu Apr 02 2026 10:43:43 GMT-0500 (Central Daylight Time),203414.29999998212,A,city,O,y,708,1,2130.7999999821186,201283.5,7789,WL,B,6.0
1,25.574000120162964,learn,34425.999879837036,Thu Apr 02 2026 10:43:43 GMT-0500 (Central Daylight Time),204497.59999999404,A,cityenter,O,enter,1073,1,3214.0999999940395,201283.5,7789,WL,B,6.0
1,30.457000017166138,learn,29542.999982833862,Thu Apr 02 2026 10:43:43 GMT-0500 (Central Daylight Time),209380.5,A,s,O,s,4877,1,4882.700000017881,204497.79999998212,7789,WL,B,7.0
1,30.77300000190735,learn,29226.99999809265,Thu Apr 02 2026 10:43:43 GMT-0500 (Central Daylight Time),209696.29999998212,A,st,O,t,297,1,5198.5,204497.79999998212,7789,WL,B,7.0
1,31.055999994277954,learn,28944.000005722046,Thu Apr 02 2026 10:43:43 GMT-0500 (Central Daylight Time),209979.29999998212,A,str,O,r,262,1,5481.5,204497.79999998212,7789,WL,B,7.0
1,31.189000129699707,learn,28810.999870300293,Thu Apr 02 2026 10:43:43 GMT-0500 (Central Daylight Time),210112.89999997616,A,stre,O,e,116,1,5615.0999999940395,204497.79999998212,7789,WL,B,7.0
1,31.372999906539917,learn,28627.000093460083,Thu Apr 02 2026 10:43:43 GMT-0500 (Central Daylight Time),210296.29999998212,A,stree,O,e,175,1,5798.5,204497.79999998212,7789,WL,B,7.0
1,31.60599994659424,learn,28394.00005340576,Thu Apr 02 2026 10:43:43 GMT-0500 (Central Daylight Time),210529.89999997616,A,street,O,t,214,1,6032.0999999940395,204497.79999998212,7789,WL,B,7.0
1,31.789000034332275,learn,28210.999965667725,Thu Apr 02 2026 10:43:43 GMT-0500 (Central Daylight Time),210712.79999998212,A,streetenter,O,enter,172,1,6215.0,204497.79999998212,7789,WL,B,7.0
1,33.638999938964844,learn,26361.000061035156,Thu Apr 02 2026 10:43:43 GMT-0500 (Central Daylight Time),212562.89999997616,A,c,O,c,1839,1,1849.7999999821186,210713.09999999404,7789,WL,B,8.0
1,33.74000000953674,learn,26259.999990463257,Thu Apr 02 2026 10:43:43 GMT-0500 (Central Daylight Time),212663.29999998212,A,cl,O,l,80,1,1950.199999988079,210713.09999999404,7789,WL,B,8.0
1,33.92300009727478,learn,26076.99990272522,Thu Apr 02 2026 10:43:43 GMT-0500 (Central Daylight Time),212846.5,A,clo,O,o,176,1,2133.4000000059605,210713.09999999404,7789,WL,B,8.0
1,34.055999994277954,learn,25944.000005722046,Thu Apr 02 2026 10:43:43 GMT-0500 (Central Daylight Time),212980.0,A,cloc,O,c,128,1,2266.9000000059605,210713.09999999404,7789,WL,B,8.0
1,34.22099995613098,learn,25779.00004386902,Thu Apr 02 2026 10:43:43 GMT-0500 (Central Daylight Time),213145.09999999404,A,clock,O,k,154,1,2432.0,210713.09999999404,7789,WL,B,8.0
1,34.5239999294281,learn,25476.0000705719,Thu Apr 02 2026 10:43:43 GMT-0500 (Central Daylight Time),213447.19999998808,A,clockenter,O,enter,298,1,2734.0999999940395,210713.09999999404,7789,WL,B,8.0
1,38.02300000190735,learn,21976.99999809265,Thu Apr 02 2026 10:43:43 GMT-0500 (Central Daylight Time),216946.39999997616,A,l,O,l,3489,1,3498.899999976158,213447.5,7789,WL,B,9.0
1,38.204999923706055,learn,21795.000076293945,Thu Apr 02 2026 10:43:43 GMT-0500 (Central Daylight Time),217128.39999997616,A,la,O,a,164,1,3680.899999976158,213447.5,7789,WL,B,9.0
1,38.33800005912781,learn,21661.999940872192,Thu Apr 02 2026 10:43:43 GMT-0500 (Central Daylight Time),217262.09999999404,A,lak,O,k,127,1,3814.5999999940395,213447.5,7789,WL,B,9.0
1,38.47000002861023,learn,21529.99997138977,Thu Apr 02 2026 10:43:43 GMT-0500 (Central Daylight Time),217393.79999998212,A,lake,O,e,110,1,3946.2999999821186,213447.5,7789,WL,B,9.0
1,38.62100005149841,learn,21378.999948501587,Thu Apr 02 2026 10:43:43 GMT-0500 (Central Daylight Time),217544.79999998212,A,lakeenter,O,enter,140,1,4097.299999982119,213447.5,7789,WL,B,9.0
1,60.01300001144409,learn,-13.000011444091797,Thu Apr 02 2026 10:43:43 GMT-0500 (Central Daylight Time),238937.39999997616,A,None,O,None,21387,1,21392.29999998212,217545.09999999404,7789,WL,B,10.0
2,1.2829999923706055,learn,58717.000007629395,Thu Apr 02 2026 10:43:43 GMT-0500 (Central Daylight Time),310114.7999999821,A,x,O,x,1263,1,1283.0,308831.7999999821,7789,WL,B,1.0
2,1.3980000019073486,learn,58601.99999809265,Thu Apr 02 2026 10:43:43 GMT-0500 (Central Daylight Time),310229.7999999821,A,xl,O,l,106,1,1398.0,308831.7999999821,7789,WL,B,1.0
2,1.7679998874664307,learn,58232.00011253357,Thu Apr 02 2026 10:43:43 GMT-0500 (Central Daylight Time),310599.59999999404,A,xlo,O,o,366,1,1767.800000011921,308831.7999999821,7789,WL,B,1.0
2,2.5999999046325684,learn,57400.00009536743,Thu Apr 02 2026 10:43:43 GMT-0500 (Central Daylight Time),311431.5,A,xl,O,backspace,814,1,2599.7000000178814,308831.7999999821,7789,WL,B,1.0
2,2.798999786376953,learn,57201.00021362305,Thu Apr 02 2026 10:43:43 GMT-0500 (Central Daylight Time),311630.5,A,x,O,backspace,195,1,2798.7000000178814,308831.7999999821,7789,WL,B,1.0
2,3.1509997844696045,learn,56849.000215530396,Thu Apr 02 2026 10:43:43 GMT-0500 (Central Daylight Time),311982.1999999881,A,,O,backspace,330,1,3150.4000000059605,308831.7999999821,7789,WL,B,1.0
2,4.016999959945679,learn,55983.00004005432,Thu Apr 02 2026 10:43:43 GMT-0500 (Central Daylight Time),312847.6999999881,A,x,O,x,847,1,4015.9000000059605,308831.7999999821,7789,WL,B,1.0
2,4.25,learn,55750.0,Thu Apr 02 2026 10:43:43 GMT-0500 (Central Daylight Time),313080.89999997616,A,xl,O,l,216,1,4249.0999999940395,308831.7999999821,7789,WL,B,1.0
2,4.547999858856201,learn,55452.0001411438,Thu Apr 02 2026 10:43:43 GMT-0500 (Central Daylight Time),313379.1999999881,A,xlo,O,o,284,1,4547.4000000059605,308831.7999999821,7789,WL,B,1.0
2,4.813999891281128,learn,55186.00010871887,Thu Apr 02 2026 10:43:43 GMT-0500 (Central Daylight Time),313645.6999999881,A,xlox,O,x,260,1,4813.9000000059605,308831.7999999821,7789,WL,B,1.0
2,5.815999984741211,learn,54184.00001525879,Thu Apr 02 2026 10:43:43 GMT-0500 (Central Daylight Time),314646.89999997616,A,xlo,O,backspace,996,1,5815.0999999940395,308831.7999999821,7789,WL,B,1.0
2,6.031999826431274,learn,53968.000173568726,Thu Apr 02 2026 10:43:43 GMT-0500 (Central Daylight Time),314863.0,A,xl,O,backspace,208,1,6031.200000017881,308831.7999999821,7789,WL,B,1.0
2,6.281999826431274,learn,53718.000173568726,Thu Apr 02 2026 10:43:43 GMT-0500 (Central Daylight Time),315112.7999999821,A,x,O,backspace,238,1,6281.0,308831.7999999821,7789,WL,B,1.0
2,6.882999897003174,learn,53117.000102996826,Thu Apr 02 2026 10:43:43 GMT-0500 (Central Daylight Time),315714.1999999881,A,,O,backspace,582,1,6882.4000000059605,308831.7999999821,7789,WL,B,1.0
2,7.630999803543091,learn,52369.00019645691,Thu Apr 02 2026 10:43:43 GMT-0500 (Central Daylight Time),316461.89999997616,A,c,O,c,732,1,7630.0999999940395,308831.7999999821,7789,WL,B,1.0
2,7.798999786376953,learn,52201.00021362305,Thu Apr 02 2026 10:43:43 GMT-0500 (Central Daylight Time),316630.1999999881,A,cl,O,l,163,1,7798.4000000059605,308831.7999999821,7789,WL,B,1.0
2,8.047999858856201,learn,51952.0001411438,Thu Apr 02 2026 10:43:43 GMT-0500 (Central Daylight Time),316879.6999999881,A,clo,O,o,241,1,8047.9000000059605,308831.7999999821,7789,WL,B,1.0
2,8.447999954223633,learn,51552.00004577637,Thu Apr 02 2026 10:43:43 GMT-0500 (Central Daylight Time),317279.39999997616,A,cloc,O,c,384,1,8447.59999999404,308831.7999999821,7789,WL,B,1.0
2,8.997999906539917,learn,51002.00009346008,Thu Apr 02 2026 10:43:43 GMT-0500 (Central Daylight Time),317829.09999999404,A,clock,O,k,533,1,8997.300000011921,308831.7999999821,7789,WL,B,1.0
2,10.02999997138977,learn,49970.00002861023,Thu Apr 02 2026 10:43:43 GMT-0500 (Central Daylight Time),318861.2999999821,A,clockenter,O,enter,1018,1,10029.5,308831.7999999821,7789,WL,B,1.0
2,10.646999835968018,learn,49353.00016403198,Thu Apr 02 2026 10:43:43 GMT-0500 (Central Daylight Time),319478.0,A,s,O,s,602,1,616.4000000059605,318861.59999999404,7789,WL,B,2.0
2,11.414999961853027,learn,48585.00003814697,Thu Apr 02 2026 10:43:43 GMT-0500 (Central Daylight Time),320246.39999997616,A,sr,O,r,765,1,1384.7999999821186,318861.59999999404,7789,WL,B,2.0
2,11.747999906539917,learn,48252.00009346008,Thu Apr 02 2026 10:43:43 GMT-0500 (Central Daylight Time),320579.0,A,sre,O,e,320,1,1717.4000000059605,318861.59999999404,7789,WL,B,2.0
2,11.982999801635742,learn,48017.00019836426,Thu Apr 02 2026 10:43:43 GMT-0500 (Central Daylight Time),320814.5,A,sree,O,e,213,1,1952.9000000059605,318861.59999999404,7789,WL,B,2.0
2,12.979999780654907,learn,47020.00021934509,Thu Apr 02 2026 10:43:43 GMT-0500 (Central Daylight Time),321811.6999999881,A,sre,O,backspace,984,1,2950.0999999940395,318861.59999999404,7789,WL,B,2.0
2,13.44599986076355,learn,46554.00013923645,Thu Apr 02 2026 10:43:43 GMT-0500 (Central Daylight Time),322277.7999999821,A,sr,O,backspace,460,1,3416.199999988079,318861.59999999404,7789,WL,B,2.0
2,13.678999900817871,learn,46321.00009918213,Thu Apr 02 2026 10:43:43 GMT-0500 (Central Daylight Time),322510.09999999404,A,s,O,backspace,215,1,3648.5,318861.59999999404,7789,WL,B,2.0
2,14.128999948501587,learn,45871.00005149841,Thu Apr 02 2026 10:43:43 GMT-0500 (Central Daylight Time),322960.59999999404,A,st,O,t,441,1,4099.0,318861.59999999404,7789,WL,B,2.0
2,14.52999997138977,learn,45470.00002861023,Thu Apr 02 2026 10:43:43 GMT-0500 (Central Daylight Time),323361.09999999404,A,str,O,r,381,1,4499.5,318861.59999999404,7789,WL,B,2.0
2,14.712999820709229,learn,45287.00017929077,Thu Apr 02 2026 10:43:43 GMT-0500 (Central Daylight Time),323544.09999999404,A,stre,O,e,174,1,4682.5,318861.59999999404,7789,WL,B,2.0
2,14.94599986076355,learn,45054.00013923645,Thu Apr 02 2026 10:43:43 GMT-0500 (Central Daylight Time),323777.59999999404,A,stree,O,e,224,1,4916.0,318861.59999999404,7789,WL,B,2.0
2,15.21399998664856,learn,44786.00001335144,Thu Apr 02 2026 10:43:43 GMT-0500 (Central Daylight Time),324045.1999999881,A,street,O,t,253,1,5183.5999999940395,318861.59999999404,7789,WL,B,2.0
2,16.602999925613403,learn,43397.0000743866,Thu Apr 02 2026 10:43:43 GMT-0500 (Central Daylight Time),325434.09999999404,A,streetenter,O,enter,1385,1,6572.5,318861.59999999404,7789,WL,B,2.0
2,17.543999910354614,learn,42456.000089645386,Thu Apr 02 2026 10:43:43 GMT-0500 (Central Daylight Time),326375.2999999821,A,d,O,d,926,1,941.0,325434.2999999821,7789,WL,B,3.0
2,17.793999910354614,learn,42206.000089645386,Thu Apr 02 2026 10:43:43 GMT-0500 (Central Daylight Time),326625.1999999881,A,do,O,o,233,1,1190.9000000059605,325434.2999999821,7789,WL,B,3.0
2,17.943999767303467,learn,42056.00023269653,Thu Apr 02 2026 10:43:43 GMT-0500 (Central Daylight Time),326775.5,A,doo,O,o,134,1,1341.2000000178814,325434.2999999821,7789,WL,B,3.0
2,18.17799997329712,learn,41822.00002670288,Thu Apr 02 2026 10:43:43 GMT-0500 (Central Daylight Time),327009.39999997616,A,door,O,r,216,1,1575.0999999940395,325434.2999999821,7789,WL,B,3.0
2,18.944999933242798,learn,41055.0000667572,Thu Apr 02 2026 10:43:43 GMT-0500 (Central Daylight Time),327775.89999997616,A,doorenter,O,enter,756,1,2341.5999999940395,325434.2999999821,7789,WL,B,3.0
2,19.960999965667725,learn,40039.000034332275,Thu Apr 02 2026 10:43:43 GMT-0500 (Central Daylight Time),328792.5,A,l,O,l,999,1,1016.3000000119209,327776.1999999881,7789,WL,B,4.0
2,20.144999980926514,learn,39855.000019073486,Thu Apr 02 2026 10:43:43 GMT-0500 (Central Daylight Time),328976.09999999404,A,la,O,a,174,1,1199.9000000059605,327776.1999999881,7789,WL,B,4.0
2,20.342999935150146,learn,39657.00006484985,Thu Apr 02 2026 10:43:43 GMT-0500 (Central Daylight Time),329174.39999997616,A,lak,O,k,189,1,1398.199999988079,327776.1999999881,7789,WL,B,4.0
2,20.544999837875366,learn,39455.000162124634,Thu Apr 02 2026 10:43:43 GMT-0500 (Central Daylight Time),329375.7999999821,A,lake,O,e,188,1,1599.5999999940395,327776.1999999881,7789,WL,B,4.0
2,21.110999822616577,learn,38889.00017738342,Thu Apr 02 2026 10:43:43 GMT-0500 (Central Daylight Time),329942.2999999821,A,lakeenter,O,enter,549,1,2166.0999999940395,327776.1999999881,7789,WL,B,4.0
2,21.626999855041504,learn,38373.000144958496,Thu Apr 02 2026 10:43:43 GMT-0500 (Central Daylight Time),330458.39999997616,A,a,O,a,504,1,515.8999999761581,329942.5,7789,WL,B,5.0
2,21.925999879837036,learn,38074.000120162964,Thu Apr 02 2026 10:43:43 GMT-0500 (Central Daylight Time),330757.59999999404,A,ar,O,r,283,1,815.0999999940395,329942.5,7789,WL,B,5.0
2,24.358999967575073,learn,35641.00003242493,Thu Apr 02 2026 10:43:43 GMT-0500 (Central Daylight Time),333190.39999997616,A,arm,O,m,2413,1,3247.899999976158,329942.5,7789,WL,B,5.0
2,25.711999893188477,learn,34288.00010681152,Thu Apr 02 2026 10:43:43 GMT-0500 (Central Daylight Time),334543.59999999404,A,armenter,O,enter,1331,1,4601.0999999940395,329942.5,7789,WL,B,5.0
2,26.72599983215332,learn,33274.00016784668,Thu Apr 02 2026 10:43:43 GMT-0500 (Central Daylight Time),335557.2999999821,A,p,O,p,1000,1,1013.5,334543.7999999821,7789,WL,B,6.0
2,27.14199995994568,learn,32858.00004005432,Thu Apr 02 2026 10:43:43 GMT-0500 (Central Daylight Time),335973.2999999821,A,pi,O,i,402,1,1429.5,334543.7999999821,7789,WL,B,6.0
2,27.407999992370605,learn,32592.000007629395,Thu Apr 02 2026 10:43:43 GMT-0500 (Central Daylight Time),336239.59999999404,A,pip,O,p,249,1,1695.800000011921,334543.7999999821,7789,WL,B,6.0
2,28.292999982833862,learn,31707.000017166138,Thu Apr 02 2026 10:43:43 GMT-0500 (Central Daylight Time),337124.09999999404,A,pipe,O,e,873,1,2580.300000011921,334543.7999999821,7789,WL,B,6.0
2,29.507999897003174,learn,30492.000102996826,Thu Apr 02 2026 10:43:43 GMT-0500 (Central Daylight Time),338339.59999999404,A,pipeenter,O,enter,1196,1,3795.800000011921,334543.7999999821,7789,WL,B,6.0
2,30.556999921798706,learn,29443.000078201294,Thu Apr 02 2026 10:43:43 GMT-0500 (Central Daylight Time),339388.2999999821,A,s,O,s,1036,1,1048.4000000059605,338339.89999997616,7789,WL,B,7.0
2,30.775999784469604,learn,29224.000215530396,Thu Apr 02 2026 10:43:43 GMT-0500 (Central Daylight Time),339607.39999997616,A,sk,O,k,213,1,1267.5,338339.89999997616,7789,WL,B,7.0
2,31.04099988937378,learn,28959.00011062622,Thu Apr 02 2026 10:43:43 GMT-0500 (Central Daylight Time),339872.0,A,ski,O,i,246,1,1532.1000000238419,338339.89999997616,7789,WL,B,7.0
2,31.306999921798706,learn,28693.000078201294,Thu Apr 02 2026 10:43:43 GMT-0500 (Central Daylight Time),340138.5,A,skin,O,n,253,1,1798.6000000238419,338339.89999997616,7789,WL,B,7.0
2,32.08999991416931,learn,27910.00008583069,Thu Apr 02 2026 10:43:43 GMT-0500 (Central Daylight Time),340921.0,A,skinenter,O,enter,765,1,2581.100000023842,338339.89999997616,7789,WL,B,7.0
2,32.47599983215332,learn,27524.00016784668,Thu Apr 02 2026 10:43:43 GMT-0500 (Central Daylight Time),341306.89999997616,A,f,O,f,375,1,385.69999998807907,340921.1999999881,7789,WL,B,8.0
2,32.60699987411499,learn,27393.00012588501,Thu Apr 02 2026 10:43:43 GMT-0500 (Central Daylight Time),341438.39999997616,A,fi,O,i,118,1,517.1999999880791,340921.1999999881,7789,WL,B,8.0
2,32.7739999294281,learn,27226.0000705719,Thu Apr 02 2026 10:43:43 GMT-0500 (Central Daylight Time),341605.1999999881,A,fir,O,r,151,1,684.0,340921.1999999881,7789,WL,B,8.0
2,32.924999952316284,learn,27075.000047683716,Thu Apr 02 2026 10:43:43 GMT-0500 (Central Daylight Time),341755.7999999821,A,fire,O,e,138,1,834.5999999940395,340921.1999999881,7789,WL,B,8.0
2,33.656999826431274,learn,26343.000173568726,Thu Apr 02 2026 10:43:43 GMT-0500 (Central Daylight Time),342488.09999999404,A,fireenter,O,enter,715,1,1566.9000000059605,340921.1999999881,7789,WL,B,8.0
2,34.62399983406067,learn,25376.00016593933,Thu Apr 02 2026 10:43:43 GMT-0500 (Central Daylight Time),343455.2999999821,A,g,O,g,962,1,966.9000000059605,342488.39999997616,7789,WL,B,9.0
2,34.871999979019165,learn,25128.000020980835,Thu Apr 02 2026 10:43:43 GMT-0500 (Central Daylight Time),343703.6999999881,A,gr,O,r,231,1,1215.300000011921,342488.39999997616,7789,WL,B,9.0
2,35.10599994659424,learn,24894.00005340576,Thu Apr 02 2026 10:43:43 GMT-0500 (Central Daylight Time),343937.1999999881,A,gra,O,a,215,1,1448.800000011921,342488.39999997616,7789,WL,B,9.0
2,35.25699996948242,learn,24743.000030517578,Thu Apr 02 2026 10:43:43 GMT-0500 (Central Daylight Time),344088.1999999881,A,gras,O,s,142,1,1599.800000011921,342488.39999997616,7789,WL,B,9.0
2,35.47199988365173,learn,24528.000116348267,Thu Apr 02 2026 10:43:43 GMT-0500 (Central Daylight Time),344303.6999999881,A,grass,O,s,194,1,1815.300000011921,342488.39999997616,7789,WL,B,9.0
2,35.687999963760376,learn,24312.000036239624,Thu Apr 02 2026 10:43:43 GMT-0500 (Central Daylight Time),344520.1999999881,A,grassenter,O,enter,198,1,2031.800000011921,342488.39999997616,7789,WL,B,9.0
2,38.437999963760376,learn,21562.000036239624,Thu Apr 02 2026 10:43:43 GMT-0500 (Central Daylight Time),347270.39999997616,A,c,O,c,2745,1,2749.899999976158,344520.5,7789,WL,B,10.0
2,38.537999868392944,learn,21462.000131607056,Thu Apr 02 2026 10:43:43 GMT-0500 (Central Daylight Time),347369.89999997616,A,cl,O,l,87,1,2849.399999976158,344520.5,7789,WL,B,10.0
2,38.7039999961853,learn,21296.000003814697,Thu Apr 02 2026 10:43:43 GMT-0500 (Central Daylight Time),347536.0,A,clo,O,o,157,1,3015.5,344520.5,7789,WL,B,10.0
2,38.83899998664856,learn,21161.00001335144,Thu Apr 02 2026 10:43:43 GMT-0500 (Central Daylight Time),347671.5,A,cloc,O,c,119,1,3151.0,344520.5,7789,WL,B,10.0
2,40.223999977111816,learn,19776.000022888184,Thu Apr 02 2026 10:43:43 GMT-0500 (Central Daylight Time),349056.1999999881,A,clock,O,k,1366,1,4535.699999988079,344520.5,7789,WL,B,10.0
2,40.63699984550476,learn,19363.00015449524,Thu Apr 02 2026 10:43:43 GMT-0500 (Central Daylight Time),349469.39999997616,A,clockenter,O,enter,399,1,4948.899999976158,344520.5,7789,WL,B,10.0
2,45.002999782562256,learn,14997.000217437744,Thu Apr 02 2026 10:43:43 GMT-0500 (Central Daylight Time),353835.1999999881,A,s,O,s,4361,1,4365.5999999940395,349469.59999999404,7789,WL,B,11.0
2,45.334999799728394,learn,14665.000200271606,Thu Apr 02 2026 10:43:43 GMT-0500 (Central Daylight Time),354167.39999997616,A,st,O,t,315,1,4697.799999982119,349469.59999999404,7789,WL,B,11.0
2,45.70199990272522,learn,14298.00009727478,Thu Apr 02 2026 10:43:43 GMT-0500 (Central Daylight Time),354534.5,A,str,O,r,351,1,5064.9000000059605,349469.59999999404,7789,WL,B,11.0
2,47.30299997329712,learn,12697.00002670288,Thu Apr 02 2026 10:43:43 GMT-0500 (Central Daylight Time),356134.59999999404,A,st,O,backspace,1594,1,6665.0,349469.59999999404,7789,WL,B,11.0
2,47.501999855041504,learn,12498.000144958496,Thu Apr 02 2026 10:43:43 GMT-0500 (Central Daylight Time),356333.7999999821,A,sta,O,a,192,1,6864.199999988079,349469.59999999404,7789,WL,B,11.0
2,47.734999895095825,learn,12265.000104904175,Thu Apr 02 2026 10:43:43 GMT-0500 (Central Daylight Time),356567.09999999404,A,star,O,r,226,1,7097.5,349469.59999999404,7789,WL,B,11.0
2,47.966999769210815,learn,12033.000230789185,Thu Apr 02 2026 10:43:43 GMT-0500 (Central Daylight Time),356799.59999999404,A,starenter,O,enter,210,1,7330.0,349469.59999999404,7789,WL,B,11.0
2,52.06899976730347,learn,7931.000232696533,Thu Apr 02 2026 10:43:43 GMT-0500 (Central Daylight Time),360900.7999999821,A,c,O,c,4081,1,4101.0,356799.7999999821,7789,WL,B,12.0
2,52.18299984931946,learn,7817.000150680542,Thu Apr 02 2026 10:43:43 GMT-0500 (Central Daylight Time),361015.0,A,ci,O,i,97,1,4215.200000017881,356799.7999999821,7789,WL,B,12.0
2,52.48299980163574,learn,7517.000198364258,Thu Apr 02 2026 10:43:43 GMT-0500 (Central Daylight Time),361315.39999997616,A,cit,O,t,278,1,4515.5999999940395,356799.7999999821,7789,WL,B,12.0
2,52.71599984169006,learn,7284.0001583099365,Thu Apr 02 2026 10:43:43 GMT-0500 (Central Daylight Time),361547.6999999881,A,city,O,y,217,1,4747.9000000059605,356799.7999999821,7789,WL,B,12.0
2,53.48299980163574,learn,6517.000198364258,Thu Apr 02 2026 10:43:43 GMT-0500 (Central Daylight Time),362315.1999999881,A,cityenter,O,enter,757,1,5515.4000000059605,356799.7999999821,7789,WL,B,12.0
2,56.031999826431274,learn,3968.0001735687256,Thu Apr 02 2026 10:43:43 GMT-0500 (Central Daylight Time),364864.1999999881,A,s,O,s,2532,1,2548.699999988079,362315.5,7789,WL,B,13.0
2,56.448999881744385,learn,3551.0001182556152,Thu Apr 02 2026 10:43:43 GMT-0500 (Central Daylight Time),365281.5,A,st,O,t,404,1,2966.0,362315.5,7789,WL,B,13.0
2,56.716999769210815,learn,3283.0002307891846,Thu Apr 02 2026 10:43:43 GMT-0500 (Central Daylight Time),365548.7999999821,A,str,O,r,263,1,3233.2999999821186,362315.5,7789,WL,B,13.0
2,56.864999771118164,learn,3135.000228881836,Thu Apr 02 2026 10:43:43 GMT-0500 (Central Daylight Time),365697.59999999404,A,stre,O,e,138,1,3382.0999999940395,362315.5,7789,WL,B,13.0
2,57.08199977874756,learn,2918.0002212524414,Thu Apr 02 2026 10:43:43 GMT-0500 (Central Daylight Time),365913.59999999404,A,stree,O,e,204,1,3598.0999999940395,362315.5,7789,WL,B,13.0
2,57.21599984169006,learn,2784.0001583099365,Thu Apr 02 2026 10:43:43 GMT-0500 (Central Daylight Time),366048.59999999404,A,street,O,t,125,1,3733.0999999940395,362315.5,7789,WL,B,13.0
2,57.38199996948242,learn,2618.000030517578,Thu Apr 02 2026 10:43:43 GMT-0500 (Central Daylight Time),366214.0,A,streetenter,O,enter,151,1,3898.5,362315.5,7789,WL,B,13.0
2,60.014999866485596,learn,-14.999866485595703,Thu Apr 02 2026 10:43:43 GMT-0500 (Central Daylight Time),368846.6999999881,A,None,O,None,2628,1,2632.300000011921,366214.39999997616,7789,WL,B,14.0
3,2.0840001106262207,learn,57915.99988937378,Thu Apr 02 2026 10:43:43 GMT-0500 (Central Daylight Time),442040.5,A,s,O,s,2064,1,2082.800000011921,439957.6999999881,7789,WL,B,1.0
3,3.0,learn,57000.0,Thu Apr 02 2026 10:43:43 GMT-0500 (Central Daylight Time),442956.59999999404,A,sr,O,r,893,1,2998.9000000059605,439957.6999999881,7789,WL,B,1.0
3,3.2330000400543213,learn,56766.99995994568,Thu Apr 02 2026 10:43:43 GMT-0500 (Central Daylight Time),443189.6999999881,A,sre,O,e,216,1,3232.0,439957.6999999881,7789,WL,B,1.0
3,3.4820001125335693,learn,56517.99988746643,Thu Apr 02 2026 10:43:43 GMT-0500 (Central Daylight Time),443439.2999999821,A,sree,O,e,240,1,3481.5999999940395,439957.6999999881,7789,WL,B,1.0
3,3.7320001125335693,learn,56267.99988746643,Thu Apr 02 2026 10:43:43 GMT-0500 (Central Daylight Time),443688.6999999881,A,sreet,O,t,241,1,3731.0,439957.6999999881,7789,WL,B,1.0
3,4.317000150680542,learn,55682.99984931946,Thu Apr 02 2026 10:43:43 GMT-0500 (Central Daylight Time),444274.0,A,sreetenter,O,enter,574,1,4316.300000011921,439957.6999999881,7789,WL,B,1.0
3,5.331000089645386,learn,54668.999910354614,Thu Apr 02 2026 10:43:43 GMT-0500 (Central Daylight Time),445287.59999999404,A,d,O,d,1006,1,1013.4000000059605,444274.1999999881,7789,WL,B,2.0
3,5.565000057220459,learn,54434.99994277954,Thu Apr 02 2026 10:43:43 GMT-0500 (Central Daylight Time),445521.59999999404,A,do,O,o,215,1,1247.4000000059605,444274.1999999881,7789,WL,B,2.0
3,5.715000152587891,learn,54284.99984741211,Thu Apr 02 2026 10:43:43 GMT-0500 (Central Daylight Time),445672.1999999881,A,doo,O,o,142,1,1398.0,444274.1999999881,7789,WL,B,2.0
3,6.0980000495910645,learn,53901.999950408936,Thu Apr 02 2026 10:43:43 GMT-0500 (Central Daylight Time),446054.89999997616,A,door,O,r,365,1,1780.699999988079,444274.1999999881,7789,WL,B,2.0
3,6.564000129699707,learn,53435.99987030029,Thu Apr 02 2026 10:43:43 GMT-0500 (Central Daylight Time),446520.39999997616,A,doorenter,O,enter,447,1,2246.199999988079,444274.1999999881,7789,WL,B,2.0
3,7.364000082015991,learn,52635.99991798401,Thu Apr 02 2026 10:43:43 GMT-0500 (Central Daylight Time),447321.1999999881,A,l,O,l,791,1,800.5999999940395,446520.59999999404,7789,WL,B,3.0
3,7.615999937057495,learn,52384.000062942505,Thu Apr 02 2026 10:43:43 GMT-0500 (Central Daylight Time),447572.5,A,la,O,a,247,1,1051.9000000059605,446520.59999999404,7789,WL,B,3.0
3,7.815000057220459,learn,52184.99994277954,Thu Apr 02 2026 10:43:43 GMT-0500 (Central Daylight Time),447771.6999999881,A,lak,O,k,193,1,1251.0999999940395,446520.59999999404,7789,WL,B,3.0
3,8.081000089645386,learn,51918.999910354614,Thu Apr 02 2026 10:43:43 GMT-0500 (Central Daylight Time),448038.09999999404,A,lake,O,e,260,1,1517.5,446520.59999999404,7789,WL,B,3.0
3,9.164000034332275,learn,50835.999965667725,Thu Apr 02 2026 10:43:43 GMT-0500 (Central Daylight Time),449120.89999997616,A,lakeenter,O,enter,1072,1,2600.2999999821186,446520.59999999404,7789,WL,B,3.0
3,10.27999997138977,learn,49720.00002861023,Thu Apr 02 2026 10:43:43 GMT-0500 (Central Daylight Time),450236.5,A,g,O,g,1101,1,1115.300000011921,449121.1999999881,7789,WL,B,4.0
3,10.598000049591064,learn,49401.999950408936,Thu Apr 02 2026 10:43:43 GMT-0500 (Central Daylight Time),450554.7999999821,A,gr,O,r,296,1,1433.5999999940395,449121.1999999881,7789,WL,B,4.0
3,10.763000011444092,learn,49236.99998855591,Thu Apr 02 2026 10:43:43 GMT-0500 (Central Daylight Time),450719.39999997616,A,gra,O,a,155,1,1598.199999988079,449121.1999999881,7789,WL,B,4.0
3,10.897000074386597,learn,49102.9999256134,Thu Apr 02 2026 10:43:43 GMT-0500 (Central Daylight Time),450853.7999999821,A,gras,O,s,129,1,1732.5999999940395,449121.1999999881,7789,WL,B,4.0
3,11.130000114440918,learn,48869.99988555908,Thu Apr 02 2026 10:43:43 GMT-0500 (Central Daylight Time),451087.09999999404,A,grass,O,s,224,1,1965.9000000059605,449121.1999999881,7789,WL,B,4.0
3,11.615000009536743,learn,48384.99999046326,Thu Apr 02 2026 10:43:43 GMT-0500 (Central Daylight Time),451571.6999999881,A,grassenter,O,enter,463,1,2450.5,449121.1999999881,7789,WL,B,4.0
3,12.496000051498413,learn,47503.99994850159,Thu Apr 02 2026 10:43:43 GMT-0500 (Central Daylight Time),452452.89999997616,A,w,O,w,867,1,880.8999999761581,451572.0,7789,WL,B,5.0
3,12.69700002670288,learn,47302.99997329712,Thu Apr 02 2026 10:43:43 GMT-0500 (Central Daylight Time),452654.0,A,wi,O,i,195,1,1082.0,451572.0,7789,WL,B,5.0
3,12.880000114440918,learn,47119.99988555908,Thu Apr 02 2026 10:43:43 GMT-0500 (Central Daylight Time),452836.5,A,wif,O,f,168,1,1264.5,451572.0,7789,WL,B,5.0
3,13.045000076293945,learn,46954.999923706055,Thu Apr 02 2026 10:43:43 GMT-0500 (Central Daylight Time),453002.2999999821,A,wife,O,e,155,1,1430.2999999821186,451572.0,7789,WL,B,5.0
3,13.263999938964844,learn,46736.000061035156,Thu Apr 02 2026 10:43:43 GMT-0500 (Central Daylight Time),453220.89999997616,A,wifeenter,O,enter,213,1,1648.8999999761581,451572.0,7789,WL,B,5.0
3,14.328999996185303,learn,45671.0000038147,Thu Apr 02 2026 10:43:43 GMT-0500 (Central Daylight Time),454286.2999999821,A,p,O,p,1051,1,1065.0999999940395,453221.1999999881,7789,WL,B,6.0
3,14.646000146865845,learn,45353.999853134155,Thu Apr 02 2026 10:43:43 GMT-0500 (Central Daylight Time),454602.89999997616,A,pu,O,u,296,1,1381.699999988079,453221.1999999881,7789,WL,B,6.0
3,14.913000106811523,learn,45086.99989318848,Thu Apr 02 2026 10:43:43 GMT-0500 (Central Daylight Time),454869.5,A,pup,O,p,260,1,1648.300000011921,453221.1999999881,7789,WL,B,6.0
3,15.263000011444092,learn,44736.99998855591,Thu Apr 02 2026 10:43:43 GMT-0500 (Central Daylight Time),455219.89999997616,A,pupi,O,i,338,1,1998.699999988079,453221.1999999881,7789,WL,B,6.0
3,15.529000043869019,learn,44470.99995613098,Thu Apr 02 2026 10:43:43 GMT-0500 (Central Daylight Time),455485.59999999404,A,pupil,O,l,260,1,2264.4000000059605,453221.1999999881,7789,WL,B,6.0
3,15.911999940872192,learn,44088.00005912781,Thu Apr 02 2026 10:43:43 GMT-0500 (Central Daylight Time),455868.7999999821,A,pupilenter,O,enter,368,1,2647.5999999940395,453221.1999999881,7789,WL,B,6.0
3,16.444000005722046,learn,43555.999994277954,Thu Apr 02 2026 10:43:43 GMT-0500 (Central Daylight Time),456400.7999999821,A,a,O,a,513,1,531.7999999821186,455869.0,7789,WL,B,7.0
3,16.844000101089478,learn,43155.99989891052,Thu Apr 02 2026 10:43:43 GMT-0500 (Central Daylight Time),456800.89999997616,A,ar,O,r,391,1,931.8999999761581,455869.0,7789,WL,B,7.0
3,17.111000061035156,learn,42888.999938964844,Thu Apr 02 2026 10:43:43 GMT-0500 (Central Daylight Time),457067.39999997616,A,arm,O,m,255,1,1198.3999999761581,455869.0,7789,WL,B,7.0
3,17.478000164031982,learn,42521.99983596802,Thu Apr 02 2026 10:43:43 GMT-0500 (Central Daylight Time),457435.1999999881,A,armenter,O,enter,348,1,1566.199999988079,455869.0,7789,WL,B,7.0
3,17.861999988555908,learn,42138.00001144409,Thu Apr 02 2026 10:43:43 GMT-0500 (Central Daylight Time),457818.7999999821,A,f,O,f,373,1,383.40000000596046,457435.39999997616,7789,WL,B,8.0
3,17.99399995803833,learn,42006.00004196167,Thu Apr 02 2026 10:43:43 GMT-0500 (Central Daylight Time),457950.5,A,fi,O,i,124,1,515.1000000238419,457435.39999997616,7789,WL,B,8.0
3,18.194000005722046,learn,41805.999994277954,Thu Apr 02 2026 10:43:43 GMT-0500 (Central Daylight Time),458151.09999999404,A,fir,O,r,184,1,715.7000000178814,457435.39999997616,7789,WL,B,8.0
3,18.34500002861023,learn,41654.99997138977,Thu Apr 02 2026 10:43:43 GMT-0500 (Central Daylight Time),458301.7999999821,A,fire,O,e,135,1,866.4000000059605,457435.39999997616,7789,WL,B,8.0
3,18.960999965667725,learn,41039.000034332275,Thu Apr 02 2026 10:43:43 GMT-0500 (Central Daylight Time),458917.89999997616,A,fireenter,O,enter,599,1,1482.5,457435.39999997616,7789,WL,B,8.0
3,19.545000076293945,learn,40454.999923706055,Thu Apr 02 2026 10:43:43 GMT-0500 (Central Daylight Time),459501.89999997616,A,l,O,l,578,1,583.7999999821186,458918.09999999404,7789,WL,B,9.0
3,19.712000131607056,learn,40287.999868392944,Thu Apr 02 2026 10:43:43 GMT-0500 (Central Daylight Time),459668.7999999821,A,la,O,a,161,1,750.6999999880791,458918.09999999404,7789,WL,B,9.0
3,19.8270001411438,learn,40172.9998588562,Thu Apr 02 2026 10:43:43 GMT-0500 (Central Daylight Time),459784.0,A,lak,O,k,106,1,865.9000000059605,458918.09999999404,7789,WL,B,9.0
3,19.97699999809265,learn,40023.00000190735,Thu Apr 02 2026 10:43:43 GMT-0500 (Central Daylight Time),459934.2999999821,A,lake,O,e,144,1,1016.1999999880791,458918.09999999404,7789,WL,B,9.0
3,20.108999967575073,learn,39891.00003242493,Thu Apr 02 2026 10:43:43 GMT-0500 (Central Daylight Time),460066.09999999404,A,lakeenter,O,enter,110,1,1148.0,458918.09999999404,7789,WL,B,9.0
3,23.225000143051147,learn,36774.99985694885,Thu Apr 02 2026 10:43:43 GMT-0500 (Central Daylight Time),463181.7999999821,A,s,O,s,3108,1,3115.5,460066.2999999821,7789,WL,B,10.0
3,23.544000148773193,learn,36455.99985122681,Thu Apr 02 2026 10:43:43 GMT-0500 (Central Daylight Time),463500.7999999821,A,st,O,t,315,1,3434.5,460066.2999999821,7789,WL,B,10.0
3,23.89199995994568,learn,36108.00004005432,Thu Apr 02 2026 10:43:43 GMT-0500 (Central Daylight Time),463849.1999999881,A,sta,O,a,339,1,3782.9000000059605,460066.2999999821,7789,WL,B,10.0
3,24.342000007629395,learn,35657.999992370605,Thu Apr 02 2026 10:43:43 GMT-0500 (Central Daylight Time),464299.1999999881,A,star,O,r,438,1,4232.9000000059605,460066.2999999821,7789,WL,B,10.0
3,25.79200005531311,learn,34207.99994468689,Thu Apr 02 2026 10:43:43 GMT-0500 (Central Daylight Time),465749.5,A,starenter,O,enter,1435,1,5683.200000017881,460066.2999999821,7789,WL,B,10.0
3,29.98900008201599,learn,30010.99991798401,Thu Apr 02 2026 10:43:43 GMT-0500 (Central Daylight Time),469946.5,A,d,O,d,4185,1,4196.800000011921,465749.6999999881,7789,WL,B,11.0
3,30.17300009727478,learn,29826.99990272522,Thu Apr 02 2026 10:43:43 GMT-0500 (Central Daylight Time),470130.1999999881,A,do,O,o,172,1,4380.5,465749.6999999881,7789,WL,B,11.0
3,30.34000015258789,learn,29659.99984741211,Thu Apr 02 2026 10:43:43 GMT-0500 (Central Daylight Time),470297.59999999404,A,doo,O,o,145,1,4547.9000000059605,465749.6999999881,7789,WL,B,11.0
3,30.48900008201599,learn,29510.99991798401,Thu Apr 02 2026 10:43:43 GMT-0500 (Central Daylight Time),470447.09999999404,A,door,O,r,131,1,4697.4000000059605,465749.6999999881,7789,WL,B,11.0
3,30.58899998664856,learn,29411.00001335144,Thu Apr 02 2026 10:43:43 GMT-0500 (Central Daylight Time),470546.2999999821,A,doorenter,O,enter,88,1,4796.5999999940395,465749.6999999881,7789,WL,B,11.0
3,35.390000104904175,learn,24609.999895095825,Thu Apr 02 2026 10:43:43 GMT-0500 (Central Daylight Time),475347.6999999881,A,p,O,p,4781,1,4801.199999988079,470546.5,7789,WL,B,12.0
3,35.63700008392334,learn,24362.99991607666,Thu Apr 02 2026 10:43:43 GMT-0500 (Central Daylight Time),475595.0,A,pi,O,i,232,1,5048.5,470546.5,7789,WL,B,12.0
3,35.75399994850159,learn,24246.000051498413,Thu Apr 02 2026 10:43:43 GMT-0500 (Central Daylight Time),475712.0,A,pip,O,p,107,1,5165.5,470546.5,7789,WL,B,12.0
3,35.9539999961853,learn,24046.000003814697,Thu Apr 02 2026 10:43:43 GMT-0500 (Central Daylight Time),475912.1999999881,A,pipe,O,e,191,1,5365.699999988079,470546.5,7789,WL,B,12.0
3,36.12000012397766,learn,23879.99987602234,Thu Apr 02 2026 10:43:43 GMT-0500 (Central Daylight Time),476077.5,A,pipeenter,O,enter,157,1,5531.0,470546.5,7789,WL,B,12.0
3,43.18600010871887,learn,16813.999891281128,Thu Apr 02 2026 10:43:43 GMT-0500 (Central Daylight Time),483143.2999999821,A,g,O,g,7049,1,7065.5999999940395,476077.6999999881,7789,WL,B,13.0
3,43.51900005340576,learn,16480.99994659424,Thu Apr 02 2026 10:43:43 GMT-0500 (Central Daylight Time),483476.5,A,gr,O,r,319,1,7398.800000011921,476077.6999999881,7789,WL,B,13.0
3,43.66900014877319,learn,16330.999851226807,Thu Apr 02 2026 10:43:43 GMT-0500 (Central Daylight Time),483626.59999999404,A,gra,O,a,134,1,7548.9000000059605,476077.6999999881,7789,WL,B,13.0
3,43.83500003814697,learn,16164.999961853027,Thu Apr 02 2026 10:43:43 GMT-0500 (Central Daylight Time),483793.09999999404,A,gras,O,s,147,1,7715.4000000059605,476077.6999999881,7789,WL,B,13.0
3,44.01900005340576,learn,15980.999946594238,Thu Apr 02 2026 10:43:43 GMT-0500 (Central Daylight Time),483976.89999997616,A,grass,O,s,164,1,7899.199999988079,476077.6999999881,7789,WL,B,13.0
3,44.151999950408936,learn,15848.000049591064,Thu Apr 02 2026 10:43:43 GMT-0500 (Central Daylight Time),484109.2999999821,A,grassenter,O,enter,117,1,8031.5999999940395,476077.6999999881,7789,WL,B,13.0
3,48.485000133514404,learn,11514.999866485596,Thu Apr 02 2026 10:43:43 GMT-0500 (Central Daylight Time),488442.59999999404,A,d,O,d,4314,1,4333.0999999940395,484109.5,7789,WL,B,14.0
3,48.68400001525879,learn,11315.999984741211,Thu Apr 02 2026 10:43:43 GMT-0500 (Central Daylight Time),488642.09999999404,A,do,O,o,178,1,4532.5999999940395,484109.5,7789,WL,B,14.0
3,48.81700015068054,learn,11182.999849319458,Thu Apr 02 2026 10:43:43 GMT-0500 (Central Daylight Time),488774.59999999404,A,doo,O,o,126,1,4665.0999999940395,484109.5,7789,WL,B,14.0
3,49.00100016593933,learn,10998.999834060669,Thu Apr 02 2026 10:43:43 GMT-0500 (Central Daylight Time),488958.5,A,door,O,r,170,1,4849.0,484109.5,7789,WL,B,14.0
3,49.10000014305115,learn,10899.999856948853,Thu Apr 02 2026 10:43:43 GMT-0500 (Central Daylight Time),489057.6999999881,A,doorenter,O,enter,87,1,4948.199999988079,484109.5,7789,WL,B,14.0
3,52.08299994468689,learn,7917.00005531311,Thu Apr 02 2026 10:43:43 GMT-0500 (Central Daylight Time),492040.6999999881,A,a,O,a,2966,1,2982.800000011921,489057.89999997616,7789,WL,B,15.0
3,52.3510000705719,learn,7648.999929428101,Thu Apr 02 2026 10:43:43 GMT-0500 (Central Daylight Time),492308.2999999821,A,ar,O,r,262,1,3250.4000000059605,489057.89999997616,7789,WL,B,15.0
3,52.56700015068054,learn,7432.999849319458,Thu Apr 02 2026 10:43:43 GMT-0500 (Central Daylight Time),492524.39999997616,A,arm,O,m,202,1,3466.5,489057.89999997616,7789,WL,B,15.0
3,52.76600003242493,learn,7233.999967575073,Thu Apr 02 2026 10:43:43 GMT-0500 (Central Daylight Time),492723.6999999881,A,armenter,O,enter,185,1,3665.800000011921,489057.89999997616,7789,WL,B,15.0
4,1.3990001678466797,learn,58600.99983215332,Thu Apr 02 2026 10:43:43 GMT-0500 (Central Daylight Time),575098.3999999762,A,c,O,c,1389,1,1398.5,573699.8999999762,7789,WL,B,1.0
4,1.5820000171661377,learn,58417.99998283386,Thu Apr 02 2026 10:43:43 GMT-0500 (Central Daylight Time),575281.1999999881,A,cl,O,l,163,1,1581.300000011921,573699.8999999762,7789,WL,B,1.0
4,1.9470000267028809,learn,58052.99997329712,Thu Apr 02 2026 10:43:43 GMT-0500 (Central Daylight Time),575646.7999999821,A,clo,O,o,356,1,1946.9000000059605,573699.8999999762,7789,WL,B,1.0
4,2.2970001697540283,learn,57702.99983024597,Thu Apr 02 2026 10:43:43 GMT-0500 (Central Daylight Time),575996.7999999821,A,cloc,O,c,334,1,2296.9000000059605,573699.8999999762,7789,WL,B,1.0
4,2.498000144958496,learn,57501.999855041504,Thu Apr 02 2026 10:43:43 GMT-0500 (Central Daylight Time),576197.5,A,clock,O,k,186,1,2497.600000023842,573699.8999999762,7789,WL,B,1.0
4,3.1630001068115234,learn,56836.99989318848,Thu Apr 02 2026 10:43:43 GMT-0500 (Central Daylight Time),576862.2999999821,A,clockenter,O,enter,657,1,3162.4000000059605,573699.8999999762,7789,WL,B,1.0
4,3.997000217437744,learn,56002.999782562256,Thu Apr 02 2026 10:43:43 GMT-0500 (Central Daylight Time),577696.7999999821,A,s,O,s,818,1,834.2999999821186,576862.5,7789,WL,B,2.0
4,4.146000146865845,learn,55853.999853134155,Thu Apr 02 2026 10:43:43 GMT-0500 (Central Daylight Time),577845.7999999821,A,sk,O,k,141,1,983.2999999821186,576862.5,7789,WL,B,2.0
4,4.430000066757202,learn,55569.9999332428,Thu Apr 02 2026 10:43:43 GMT-0500 (Central Daylight Time),578129.8999999762,A,ski,O,i,274,1,1267.3999999761581,576862.5,7789,WL,B,2.0
4,4.698000192642212,learn,55301.99980735779,Thu Apr 02 2026 10:43:43 GMT-0500 (Central Daylight Time),578396.8999999762,A,skin,O,n,253,1,1534.3999999761581,576862.5,7789,WL,B,2.0
4,5.497000217437744,learn,54502.999782562256,Thu Apr 02 2026 10:43:43 GMT-0500 (Central Daylight Time),579196.099999994,A,skinenter,O,enter,794,1,2333.5999999940395,576862.5,7789,WL,B,2.0
4,6.130000114440918,learn,53869.99988555908,Thu Apr 02 2026 10:43:43 GMT-0500 (Central Daylight Time),579829.0,A,a,O,a,626,1,632.7000000178814,579196.2999999821,7789,WL,B,3.0
4,6.480000019073486,learn,53519.999980926514,Thu Apr 02 2026 10:43:43 GMT-0500 (Central Daylight Time),580179.099999994,A,ar,O,r,340,1,982.8000000119209,579196.2999999821,7789,WL,B,3.0
4,6.697000026702881,learn,53302.99997329712,Thu Apr 02 2026 10:43:43 GMT-0500 (Central Daylight Time),580396.5,A,arm,O,m,212,1,1200.2000000178814,579196.2999999821,7789,WL,B,3.0
4,7.729000091552734,learn,52270.999908447266,Thu Apr 02 2026 10:43:43 GMT-0500 (Central Daylight Time),581428.599999994,A,armenter,O,enter,1017,1,2232.300000011921,579196.2999999821,7789,WL,B,3.0
4,8.312000036239624,learn,51687.999963760376,Thu Apr 02 2026 10:43:43 GMT-0500 (Central Daylight Time),582011.2999999821,A,c,O,c,571,1,582.4000000059605,581428.8999999762,7789,WL,B,4.0
4,8.53000020980835,learn,51469.99979019165,Thu Apr 02 2026 10:43:43 GMT-0500 (Central Daylight Time),582229.3999999762,A,ci,O,i,212,1,800.5,581428.8999999762,7789,WL,B,4.0
4,8.82800006866455,learn,51171.99993133545,Thu Apr 02 2026 10:43:43 GMT-0500 (Central Daylight Time),582527.8999999762,A,cit,O,t,287,1,1099.0,581428.8999999762,7789,WL,B,4.0
4,9.861000061035156,learn,50138.999938964844,Thu Apr 02 2026 10:43:43 GMT-0500 (Central Daylight Time),583560.2999999821,A,city,O,y,1016,1,2131.4000000059605,581428.8999999762,7789,WL,B,4.0
4,10.42900013923645,learn,49570.99986076355,Thu Apr 02 2026 10:43:43 GMT-0500 (Central Daylight Time),584128.1999999881,A,cityenter,O,enter,548,1,2699.300000011921,581428.8999999762,7789,WL,B,4.0
4,10.82800006866455,learn,49171.99993133545,Thu Apr 02 2026 10:43:43 GMT-0500 (Central Daylight Time),584528.099999994,A,s,O,s,385,1,399.59999999403954,584128.5,7789,WL,B,5.0
4,11.277000188827515,learn,48722.999811172485,Thu Apr 02 2026 10:43:43 GMT-0500 (Central Daylight Time),584977.099999994,A,st,O,t,439,1,848.5999999940395,584128.5,7789,WL,B,5.0
4,11.577000141143799,learn,48422.9998588562,Thu Apr 02 2026 10:43:43 GMT-0500 (Central Daylight Time),585277.1999999881,A,str,O,r,287,1,1148.699999988079,584128.5,7789,WL,B,5.0
4,11.694000005722046,learn,48305.999994277954,Thu Apr 02 2026 10:43:43 GMT-0500 (Central Daylight Time),585394.6999999881,A,stre,O,e,106,1,1266.199999988079,584128.5,7789,WL,B,5.0
4,11.960000038146973,learn,48039.99996185303,Thu Apr 02 2026 10:43:43 GMT-0500 (Central Daylight Time),585660.2999999821,A,stree,O,e,252,1,1531.7999999821186,584128.5,7789,WL,B,5.0
4,12.128000020980835,learn,47871.999979019165,Thu Apr 02 2026 10:43:43 GMT-0500 (Central Daylight Time),585828.099999994,A,street,O,t,162,1,1699.5999999940395,584128.5,7789,WL,B,5.0
4,12.425000190734863,learn,47574.99980926514,Thu Apr 02 2026 10:43:43 GMT-0500 (Central Daylight Time),586125.3999999762,A,streetenter,O,enter,278,1,1996.8999999761581,584128.5,7789,WL,B,5.0
4,12.778000116348267,learn,47221.99988365173,Thu Apr 02 2026 10:43:43 GMT-0500 (Central Daylight Time),586477.7999999821,A,g,O,g,348,1,352.19999998807907,586125.599999994,7789,WL,B,6.0
4,13.07800006866455,learn,46921.99993133545,Thu Apr 02 2026 10:43:43 GMT-0500 (Central Daylight Time),586777.6999999881,A,gr,O,r,280,1,652.0999999940395,586125.599999994,7789,WL,B,6.0
4,13.260000228881836,learn,46739.999771118164,Thu Apr 02 2026 10:43:43 GMT-0500 (Central Daylight Time),586960.0,A,gra,O,a,173,1,834.4000000059605,586125.599999994,7789,WL,B,6.0
4,13.41100001335144,learn,46588.99998664856,Thu Apr 02 2026 10:43:43 GMT-0500 (Central Daylight Time),587111.3999999762,A,gras,O,s,146,1,985.7999999821186,586125.599999994,7789,WL,B,6.0
4,13.944000005722046,learn,46055.999994277954,Thu Apr 02 2026 10:43:43 GMT-0500 (Central Daylight Time),587644.0,A,grass,O,s,526,1,1518.4000000059605,586125.599999994,7789,WL,B,6.0
4,15.06000018119812,learn,44939.99981880188,Thu Apr 02 2026 10:43:43 GMT-0500 (Central Daylight Time),588760.2999999821,A,grassenter,O,enter,1095,1,2634.699999988079,586125.599999994,7789,WL,B,6.0
4,15.70900011062622,learn,44290.99988937378,Thu Apr 02 2026 10:43:43 GMT-0500 (Central Daylight Time),589409.0,A,p,O,p,630,1,648.4000000059605,588760.599999994,7789,WL,B,7.0
4,16.010000228881836,learn,43989.999771118164,Thu Apr 02 2026 10:43:43 GMT-0500 (Central Daylight Time),589710.0,A,pu,O,u,286,1,949.4000000059605,588760.599999994,7789,WL,B,7.0
4,16.210000038146973,learn,43789.99996185303,Thu Apr 02 2026 10:43:43 GMT-0500 (Central Daylight Time),589910.0,A,pup,O,p,194,1,1149.4000000059605,588760.599999994,7789,WL,B,7.0
4,16.493000030517578,learn,43506.99996948242,Thu Apr 02 2026 10:43:43 GMT-0500 (Central Daylight Time),590192.7999999821,A,pupi,O,i,272,1,1432.199999988079,588760.599999994,7789,WL,B,7.0
4,16.80900001525879,learn,43190.99998474121,Thu Apr 02 2026 10:43:43 GMT-0500 (Central Daylight Time),590509.6999999881,A,pupil,O,l,302,1,1749.0999999940395,588760.599999994,7789,WL,B,7.0
4,17.359000205993652,learn,42640.99979400635,Thu Apr 02 2026 10:43:43 GMT-0500 (Central Daylight Time),591059.3999999762,A,pupilenter,O,enter,529,1,2298.7999999821186,588760.599999994,7789,WL,B,7.0
4,17.80900001525879,learn,42190.99998474121,Thu Apr 02 2026 10:43:43 GMT-0500 (Central Daylight Time),591508.7999999821,A,f,O,f,436,1,449.09999999403954,591059.6999999881,7789,WL,B,8.0
4,17.975000143051147,learn,42024.99985694885,Thu Apr 02 2026 10:43:43 GMT-0500 (Central Daylight Time),591675.1999999881,A,fi,O,i,147,1,615.5,591059.6999999881,7789,WL,B,8.0
4,18.142000198364258,learn,41857.99980163574,Thu Apr 02 2026 10:43:43 GMT-0500 (Central Daylight Time),591842.1999999881,A,fir,O,r,156,1,782.5,591059.6999999881,7789,WL,B,8.0
4,18.27500009536743,learn,41724.99990463257,Thu Apr 02 2026 10:43:43 GMT-0500 (Central Daylight Time),591975.2999999821,A,fire,O,e,125,1,915.5999999940395,591059.6999999881,7789,WL,B,8.0
4,18.760000228881836,learn,41239.999771118164,Thu Apr 02 2026 10:43:43 GMT-0500 (Central Daylight Time),592460.0,A,fireenter,O,enter,480,1,1400.300000011921,591059.6999999881,7789,WL,B,8.0
4,19.60800004005432,learn,40391.99995994568,Thu Apr 02 2026 10:43:43 GMT-0500 (Central Daylight Time),593307.7999999821,A,l,O,l,843,1,847.5999999940395,592460.1999999881,7789,WL,B,9.0
4,19.77400016784668,learn,40225.99983215332,Thu Apr 02 2026 10:43:43 GMT-0500 (Central Daylight Time),593474.599999994,A,la,O,a,145,1,1014.4000000059605,592460.1999999881,7789,WL,B,9.0
4,19.908000230789185,learn,40091.999769210815,Thu Apr 02 2026 10:43:43 GMT-0500 (Central Daylight Time),593608.0,A,lak,O,k,115,1,1147.800000011921,592460.1999999881,7789,WL,B,9.0
4,20.055999994277954,learn,39944.000005722046,Thu Apr 02 2026 10:43:43 GMT-0500 (Central Daylight Time),593756.6999999881,A,lake,O,e,135,1,1296.5,592460.1999999881,7789,WL,B,9.0
4,21.725000143051147,learn,38274.99985694885,Thu Apr 02 2026 10:43:43 GMT-0500 (Central Daylight Time),595424.7999999821,A,lakeenter,O,enter,1655,1,2964.5999999940395,592460.1999999881,7789,WL,B,9.0
4,22.557000160217285,learn,37442.999839782715,Thu Apr 02 2026 10:43:43 GMT-0500 (Central Daylight Time),596257.599999994,A,w,O,w,813,1,832.5999999940395,595425.0,7789,WL,B,10.0
4,22.69000005722046,learn,37309.99994277954,Thu Apr 02 2026 10:43:43 GMT-0500 (Central Daylight Time),596390.0,A,wi,O,i,111,1,965.0,595425.0,7789,WL,B,10.0
4,22.85700011253357,learn,37142.99988746643,Thu Apr 02 2026 10:43:43 GMT-0500 (Central Daylight Time),596557.3999999762,A,wif,O,f,159,1,1132.3999999761581,595425.0,7789,WL,B,10.0
4,23.04100012779236,learn,36958.99987220764,Thu Apr 02 2026 10:43:43 GMT-0500 (Central Daylight Time),596741.0,A,wife,O,e,159,1,1316.0,595425.0,7789,WL,B,10.0
4,23.44100022315979,learn,36558.99977684021,Thu Apr 02 2026 10:43:43 GMT-0500 (Central Daylight Time),597141.099999994,A,wifeenter,O,enter,392,1,1716.0999999940395,595425.0,7789,WL,B,10.0
4,23.957000017166138,learn,36042.99998283386,Thu Apr 02 2026 10:43:43 GMT-0500 (Central Daylight Time),597656.8999999762,A,w,O,w,505,1,515.5999999940395,597141.2999999821,7789,WL,B,11.0
4,24.055999994277954,learn,35944.000005722046,Thu Apr 02 2026 10:43:43 GMT-0500 (Central Daylight Time),597756.3999999762,A,wi,O,i,85,1,615.0999999940395,597141.2999999821,7789,WL,B,11.0
4,24.257000207901,learn,35742.999792099,Thu Apr 02 2026 10:43:43 GMT-0500 (Central Daylight Time),597956.7999999821,A,win,O,n,185,1,815.5,597141.2999999821,7789,WL,B,11.0
4,24.4060001373291,learn,35593.9998626709,Thu Apr 02 2026 10:43:43 GMT-0500 (Central Daylight Time),598106.2999999821,A,wind,O,d,135,1,965.0,597141.2999999821,7789,WL,B,11.0
4,24.540000200271606,learn,35459.99979972839,Thu Apr 02 2026 10:43:43 GMT-0500 (Central Daylight Time),598239.7999999821,A,windo,O,o,123,1,1098.5,597141.2999999821,7789,WL,B,11.0
4,24.706000089645386,learn,35293.999910354614,Thu Apr 02 2026 10:43:43 GMT-0500 (Central Daylight Time),598406.0,A,window,O,w,157,1,1264.7000000178814,597141.2999999821,7789,WL,B,11.0
4,25.222000122070312,learn,34777.99987792969,Thu Apr 02 2026 10:43:43 GMT-0500 (Central Daylight Time),598922.599999994,A,windowenter,O,enter,495,1,1781.300000011921,597141.2999999821,7789,WL,B,11.0
4,32.872000217437744,learn,27127.999782562256,Thu Apr 02 2026 10:43:43 GMT-0500 (Central Daylight Time),606572.099999994,A,c,O,c,7628,1,7649.300000011921,598922.7999999821,7789,WL,B,12.0
4,32.9539999961853,learn,27046.000003814697,Thu Apr 02 2026 10:43:43 GMT-0500 (Central Daylight Time),606653.7999999821,A,cl,O,l,65,1,7731.0,598922.7999999821,7789,WL,B,12.0
4,33.15400004386902,learn,26845.99995613098,Thu Apr 02 2026 10:43:43 GMT-0500 (Central Daylight Time),606854.0,A,clo,O,o,186,1,7931.200000017881,598922.7999999821,7789,WL,B,12.0
4,33.33800005912781,learn,26661.999940872192,Thu Apr 02 2026 10:43:43 GMT-0500 (Central Daylight Time),607038.0,A,cloc,O,c,177,1,8115.200000017881,598922.7999999821,7789,WL,B,12.0
4,35.336000204086304,learn,24663.999795913696,Thu Apr 02 2026 10:43:43 GMT-0500 (Central Daylight Time),609036.099999994,A,clo,O,backspace,1983,1,10113.300000011921,598922.7999999821,7789,WL,B,12.0
4,35.587000131607056,learn,24412.999868392944,Thu Apr 02 2026 10:43:43 GMT-0500 (Central Daylight Time),609287.2999999821,A,cl,O,backspace,242,1,10364.5,598922.7999999821,7789,WL,B,12.0
4,35.8030002117157,learn,24196.9997882843,Thu Apr 02 2026 10:43:43 GMT-0500 (Central Daylight Time),609503.0,A,c,O,backspace,192,1,10580.200000017881,598922.7999999821,7789,WL,B,12.0
4,36.003000020980835,learn,23996.999979019165,Thu Apr 02 2026 10:43:43 GMT-0500 (Central Daylight Time),609703.2999999821,A,,O,backspace,182,1,10780.5,598922.7999999821,7789,WL,B,12.0
4,37.218000173568726,learn,22781.999826431274,Thu Apr 02 2026 10:43:43 GMT-0500 (Central Daylight Time),610918.5,A,a,O,a,1199,1,11995.700000017881,598922.7999999821,7789,WL,B,12.0
4,37.486000061035156,learn,22513.999938964844,Thu Apr 02 2026 10:43:43 GMT-0500 (Central Daylight Time),611185.8999999762,A,ar,O,r,257,1,12263.09999999404,598922.7999999821,7789,WL,B,12.0
4,37.586000204086304,learn,22413.999795913696,Thu Apr 02 2026 10:43:43 GMT-0500 (Central Daylight Time),611286.2999999821,A,arm,O,m,91,1,12363.5,598922.7999999821,7789,WL,B,12.0
4,37.836000204086304,learn,22163.999795913696,Thu Apr 02 2026 10:43:43 GMT-0500 (Central Daylight Time),611536.599999994,A,armenter,O,enter,240,1,12613.800000011921,598922.7999999821,7789,WL,B,12.0
4,41.75,learn,18250.0,Thu Apr 02 2026 10:43:43 GMT-0500 (Central Daylight Time),615449.8999999762,A,s,O,s,3902,1,3913.0999999940395,611536.7999999821,7789,WL,B,13.0
4,42.116000175476074,learn,17883.999824523926,Thu Apr 02 2026 10:43:43 GMT-0500 (Central Daylight Time),615816.099999994,A,st,O,t,357,1,4279.300000011921,611536.7999999821,7789,WL,B,13.0
4,42.402000188827515,learn,17597.999811172485,Thu Apr 02 2026 10:43:43 GMT-0500 (Central Daylight Time),616102.2999999821,A,str,O,r,279,1,4565.5,611536.7999999821,7789,WL,B,13.0
4,42.551000118255615,learn,17448.999881744385,Thu Apr 02 2026 10:43:43 GMT-0500 (Central Daylight Time),616251.599999994,A,stre,O,e,136,1,4714.800000011921,611536.7999999821,7789,WL,B,13.0
4,42.76900005340576,learn,17230.99994659424,Thu Apr 02 2026 10:43:43 GMT-0500 (Central Daylight Time),616469.1999999881,A,stree,O,e,211,1,4932.4000000059605,611536.7999999821,7789,WL,B,13.0
4,43.00100016593933,learn,16998.99983406067,Thu Apr 02 2026 10:43:43 GMT-0500 (Central Daylight Time),616701.1999999881,A,street,O,t,210,1,5164.4000000059605,611536.7999999821,7789,WL,B,13.0
4,43.30000019073486,learn,16699.999809265137,Thu Apr 02 2026 10:43:43 GMT-0500 (Central Daylight Time),617000.0,A,streetenter,O,enter,280,1,5463.200000017881,611536.7999999821,7789,WL,B,13.0
4,44.68300008773804,learn,15316.999912261963,Thu Apr 02 2026 10:43:43 GMT-0500 (Central Daylight Time),618383.1999999881,A,g,O,g,1368,1,1382.9000000059605,617000.2999999821,7789,WL,B,14.0
4,45.0,learn,15000.0,Thu Apr 02 2026 10:43:43 GMT-0500 (Central Daylight Time),618699.8999999762,A,gr,O,r,310,1,1699.5999999940395,617000.2999999821,7789,WL,B,14.0
4,45.200000047683716,learn,14799.999952316284,Thu Apr 02 2026 10:43:43 GMT-0500 (Central Daylight Time),618900.099999994,A,gra,O,a,185,1,1899.800000011921,617000.2999999821,7789,WL,B,14.0
4,45.33400011062622,learn,14665.99988937378,Thu Apr 02 2026 10:43:43 GMT-0500 (Central Daylight Time),619034.5,A,gras,O,s,112,1,2034.2000000178814,617000.2999999821,7789,WL,B,14.0
4,45.55000019073486,learn,14449.999809265137,Thu Apr 02 2026 10:43:43 GMT-0500 (Central Daylight Time),619250.3999999762,A,grass,O,s,204,1,2250.0999999940395,617000.2999999821,7789,WL,B,14.0
4,45.849000215530396,learn,14150.999784469604,Thu Apr 02 2026 10:43:43 GMT-0500 (Central Daylight Time),619549.3999999762,A,grassenter,O,enter,292,1,2549.0999999940395,617000.2999999821,7789,WL,B,14.0
4,48.48200011253357,learn,11517.99988746643,Thu Apr 02 2026 10:43:43 GMT-0500 (Central Daylight Time),622181.6999999881,A,s,O,s,2617,1,2632.0999999940395,619549.599999994,7789,WL,B,15.0
4,48.73300004005432,learn,11266.999959945679,Thu Apr 02 2026 10:43:43 GMT-0500 (Central Daylight Time),622432.7999999821,A,st,O,t,234,1,2883.199999988079,619549.599999994,7789,WL,B,15.0
4,48.95100021362305,learn,11048.999786376953,Thu Apr 02 2026 10:43:43 GMT-0500 (Central Daylight Time),622651.3999999762,A,sta,O,a,207,1,3101.7999999821186,619549.599999994,7789,WL,B,15.0
4,49.098000049591064,learn,10901.999950408936,Thu Apr 02 2026 10:43:43 GMT-0500 (Central Daylight Time),622798.2999999821,A,star,O,r,130,1,3248.699999988079,619549.599999994,7789,WL,B,15.0
4,49.533000230789185,learn,10466.999769210815,Thu Apr 02 2026 10:43:43 GMT-0500 (Central Daylight Time),623233.099999994,A,starenter,O,enter,411,1,3683.5,619549.599999994,7789,WL,B,15.0
5,1.9170000553131104,learn,60000.0,Thu Apr 02 2026 10:43:43 GMT-0500 (Central Daylight Time),697542.1999999881,A,c,O,c,1901,1,1916.4000000059605,695625.7999999821,7789,WL,B,1.0
5,2.067000150680542,learn,60000.0,Thu Apr 02 2026 10:43:43 GMT-0500 (Central Daylight Time),697692.0,A,ci,O,i,143,1,2066.2000000178814,695625.7999999821,7789,WL,B,1.0
5,2.7829999923706055,learn,60000.0,Thu Apr 02 2026 10:43:43 GMT-0500 (Central Daylight Time),698408.3999999762,A,cit,O,t,705,1,2782.5999999940395,695625.7999999821,7789,WL,B,1.0
5,2.9010000228881836,learn,60000.0,Thu Apr 02 2026 10:43:43 GMT-0500 (Central Daylight Time),698526.099999994,A,city,O,y,102,1,2900.300000011921,695625.7999999821,7789,WL,B,1.0
5,3.450000047683716,learn,60000.0,Thu Apr 02 2026 10:43:43 GMT-0500 (Central Daylight Time),699075.1999999881,A,cityenter,O,enter,544,1,3449.4000000059605,695625.7999999821,7789,WL,B,1.0
5,4.75,learn,60000.0,Thu Apr 02 2026 10:43:43 GMT-0500 (Central Daylight Time),700374.6999999881,A,l,O,l,1293,1,1299.199999988079,699075.5,7789,WL,B,2.0
5,5.04800009727478,learn,60000.0,Thu Apr 02 2026 10:43:43 GMT-0500 (Central Daylight Time),700673.1999999881,A,la,O,a,281,1,1597.699999988079,699075.5,7789,WL,B,2.0
5,5.216000080108643,learn,60000.0,Thu Apr 02 2026 10:43:43 GMT-0500 (Central Daylight Time),700841.099999994,A,lak,O,k,157,1,1765.5999999940395,699075.5,7789,WL,B,2.0
5,5.432000160217285,learn,60000.0,Thu Apr 02 2026 10:43:43 GMT-0500 (Central Daylight Time),701056.599999994,A,lake,O,e,206,1,1981.0999999940395,699075.5,7789,WL,B,2.0
5,5.7820000648498535,learn,60000.0,Thu Apr 02 2026 10:43:43 GMT-0500 (Central Daylight Time),701406.7999999821,A,lakeenter,O,enter,333,1,2331.2999999821186,699075.5,7789,WL,B,2.0
5,6.215000152587891,learn,60000.0,Thu Apr 02 2026 10:43:43 GMT-0500 (Central Daylight Time),701839.599999994,A,s,O,s,424,1,432.59999999403954,701407.0,7789,WL,B,3.0
5,6.716000080108643,learn,60000.0,Thu Apr 02 2026 10:43:43 GMT-0500 (Central Daylight Time),702340.7999999821,A,st,O,t,495,1,933.7999999821186,701407.0,7789,WL,B,3.0
5,7.016000032424927,learn,60000.0,Thu Apr 02 2026 10:43:43 GMT-0500 (Central Daylight Time),702641.099999994,A,str,O,r,281,1,1234.0999999940395,701407.0,7789,WL,B,3.0
5,7.138000011444092,learn,60000.0,Thu Apr 02 2026 10:43:43 GMT-0500 (Central Daylight Time),702762.7999999821,A,stre,O,e,112,1,1355.7999999821186,701407.0,7789,WL,B,3.0
5,7.367000102996826,learn,60000.0,Thu Apr 02 2026 10:43:43 GMT-0500 (Central Daylight Time),702992.0,A,stree,O,e,224,1,1585.0,701407.0,7789,WL,B,3.0
5,7.498000144958496,learn,60000.0,Thu Apr 02 2026 10:43:43 GMT-0500 (Central Daylight Time),703122.7999999821,A,street,O,t,111,1,1715.7999999821186,701407.0,7789,WL,B,3.0
5,7.732000112533569,learn,60000.0,Thu Apr 02 2026 10:43:43 GMT-0500 (Central Daylight Time),703357.3999999762,A,streetenter,O,enter,215,1,1950.3999999761581,701407.0,7789,WL,B,3.0
5,8.166000127792358,learn,60000.0,Thu Apr 02 2026 10:43:43 GMT-0500 (Central Daylight Time),703791.2999999821,A,g,O,g,427,1,433.59999999403954,703357.6999999881,7789,WL,B,4.0
5,8.481000185012817,learn,60000.0,Thu Apr 02 2026 10:43:43 GMT-0500 (Central Daylight Time),704106.3999999762,A,gr,O,r,295,1,748.6999999880791,703357.6999999881,7789,WL,B,4.0
5,8.646000146865845,learn,60000.0,Thu Apr 02 2026 10:43:43 GMT-0500 (Central Daylight Time),704272.0,A,gra,O,a,146,1,914.3000000119209,703357.6999999881,7789,WL,B,4.0
5,8.797000169754028,learn,60000.0,Thu Apr 02 2026 10:43:43 GMT-0500 (Central Daylight Time),704422.2999999821,A,gras,O,s,133,1,1064.5999999940395,703357.6999999881,7789,WL,B,4.0
5,8.981000185012817,learn,60000.0,Thu Apr 02 2026 10:43:43 GMT-0500 (Central Daylight Time),704606.599999994,A,grass,O,s,168,1,1248.9000000059605,703357.6999999881,7789,WL,B,4.0
5,9.266000032424927,learn,60000.0,Thu Apr 02 2026 10:43:43 GMT-0500 (Central Daylight Time),704891.2999999821,A,grassenter,O,enter,280,1,1533.5999999940395,703357.6999999881,7789,WL,B,4.0
5,9.646000146865845,learn,60000.0,Thu Apr 02 2026 10:43:43 GMT-0500 (Central Daylight Time),705271.7999999821,A,w,O,w,371,1,380.2999999821186,704891.5,7789,WL,B,5.0
5,9.764000177383423,learn,60000.0,Thu Apr 02 2026 10:43:43 GMT-0500 (Central Daylight Time),705389.5,A,wi,O,i,110,1,498.0,704891.5,7789,WL,B,5.0
5,9.946000099182129,learn,60000.0,Thu Apr 02 2026 10:43:43 GMT-0500 (Central Daylight Time),705571.599999994,A,win,O,n,175,1,680.0999999940395,704891.5,7789,WL,B,5.0
5,10.097000122070312,learn,60000.0,Thu Apr 02 2026 10:43:43 GMT-0500 (Central Daylight Time),705722.6999999881,A,wind,O,d,130,1,831.1999999880791,704891.5,7789,WL,B,5.0
5,10.230000019073486,learn,60000.0,Thu Apr 02 2026 10:43:43 GMT-0500 (Central Daylight Time),705855.5,A,windo,O,o,123,1,964.0,704891.5,7789,WL,B,5.0
5,10.380000114440918,learn,60000.0,Thu Apr 02 2026 10:43:43 GMT-0500 (Central Daylight Time),706006.099999994,A,window,O,w,136,1,1114.5999999940395,704891.5,7789,WL,B,5.0
5,11.680000066757202,learn,60000.0,Thu Apr 02 2026 10:43:43 GMT-0500 (Central Daylight Time),707305.3999999762,A,windowenter,O,enter,1280,1,2413.899999976158,704891.5,7789,WL,B,5.0
5,12.365000009536743,learn,60000.0,Thu Apr 02 2026 10:43:43 GMT-0500 (Central Daylight Time),707990.5,A,w,O,w,670,1,684.9000000059605,707305.599999994,7789,WL,B,6.0
5,12.462000131607056,learn,60000.0,Thu Apr 02 2026 10:43:43 GMT-0500 (Central Daylight Time),708088.2999999821,A,wi,O,i,80,1,782.6999999880791,707305.599999994,7789,WL,B,6.0
5,12.646000146865845,learn,60000.0,Thu Apr 02 2026 10:43:43 GMT-0500 (Central Daylight Time),708271.599999994,A,wif,O,f,164,1,966.0,707305.599999994,7789,WL,B,6.0
5,12.76200008392334,learn,60000.0,Thu Apr 02 2026 10:43:43 GMT-0500 (Central Daylight Time),708387.3999999762,A,wife,O,e,103,1,1081.7999999821186,707305.599999994,7789,WL,B,6.0
5,12.945000171661377,learn,60000.0,Thu Apr 02 2026 10:43:43 GMT-0500 (Central Daylight Time),708570.6999999881,A,wifeenter,O,enter,171,1,1265.0999999940395,707305.599999994,7789,WL,B,6.0
5,13.430000066757202,learn,60000.0,Thu Apr 02 2026 10:43:43 GMT-0500 (Central Daylight Time),709055.6999999881,A,d,O,d,469,1,484.69999998807907,708571.0,7789,WL,B,7.0
5,13.662000179290771,learn,60000.0,Thu Apr 02 2026 10:43:43 GMT-0500 (Central Daylight Time),709287.7999999821,A,do,O,o,224,1,716.7999999821186,708571.0,7789,WL,B,7.0
5,13.831000089645386,learn,60000.0,Thu Apr 02 2026 10:43:43 GMT-0500 (Central Daylight Time),709456.8999999762,A,doo,O,o,158,1,885.8999999761581,708571.0,7789,WL,B,7.0
5,14.130000114440918,learn,60000.0,Thu Apr 02 2026 10:43:43 GMT-0500 (Central Daylight Time),709755.2999999821,A,door,O,r,285,1,1184.2999999821186,708571.0,7789,WL,B,7.0
5,14.478000164031982,learn,60000.0,Thu Apr 02 2026 10:43:43 GMT-0500 (Central Daylight Time),710103.5,A,doorenter,O,enter,338,1,1532.5,708571.0,7789,WL,B,7.0
5,14.995000123977661,learn,60000.0,Thu Apr 02 2026 10:43:43 GMT-0500 (Central Daylight Time),710621.2999999821,A,p,O,p,513,1,517.5,710103.7999999821,7789,WL,B,8.0
5,15.311000108718872,learn,60000.0,Thu Apr 02 2026 10:43:43 GMT-0500 (Central Daylight Time),710936.7999999821,A,pu,O,u,305,1,833.0,710103.7999999821,7789,WL,B,8.0
5,15.761000156402588,learn,60000.0,Thu Apr 02 2026 10:43:43 GMT-0500 (Central Daylight Time),711387.0,A,pup,O,p,438,1,1283.2000000178814,710103.7999999821,7789,WL,B,8.0
5,16.01200008392334,learn,60000.0,Thu Apr 02 2026 10:43:43 GMT-0500 (Central Daylight Time),711638.0,A,pupi,O,i,246,1,1534.2000000178814,710103.7999999821,7789,WL,B,8.0
5,16.24500012397766,learn,60000.0,Thu Apr 02 2026 10:43:43 GMT-0500 (Central Daylight Time),711871.1999999881,A,pupil,O,l,216,1,1767.4000000059605,710103.7999999821,7789,WL,B,8.0
5,16.545000076293945,learn,60000.0,Thu Apr 02 2026 10:43:43 GMT-0500 (Central Daylight Time),712170.6999999881,A,pupilenter,O,enter,287,1,2066.9000000059605,710103.7999999821,7789,WL,B,8.0
5,17.146000146865845,learn,60000.0,Thu Apr 02 2026 10:43:43 GMT-0500 (Central Daylight Time),712771.5,A,a,O,a,581,1,600.7000000178814,712170.7999999821,7789,WL,B,9.0
5,17.394999980926514,learn,60000.0,Thu Apr 02 2026 10:43:43 GMT-0500 (Central Daylight Time),713020.5,A,ar,O,r,244,1,849.7000000178814,712170.7999999821,7789,WL,B,9.0
5,17.66100001335144,learn,60000.0,Thu Apr 02 2026 10:43:43 GMT-0500 (Central Daylight Time),713286.7999999821,A,arm,O,m,250,1,1116.0,712170.7999999821,7789,WL,B,9.0
5,18.177000045776367,learn,60000.0,Thu Apr 02 2026 10:43:43 GMT-0500 (Central Daylight Time),713803.099999994,A,armenter,O,enter,498,1,1632.300000011921,712170.7999999821,7789,WL,B,9.0
5,19.278000116348267,learn,60000.0,Thu Apr 02 2026 10:43:43 GMT-0500 (Central Daylight Time),714903.5,A,s,O,s,1085,1,1100.1000000238419,713803.3999999762,7789,WL,B,10.0
5,19.542999982833862,learn,60000.0,Thu Apr 02 2026 10:43:43 GMT-0500 (Central Daylight Time),715168.8999999762,A,st,O,t,253,1,1365.5,713803.3999999762,7789,WL,B,10.0
5,19.794000148773193,learn,60000.0,Thu Apr 02 2026 10:43:43 GMT-0500 (Central Daylight Time),715420.099999994,A,sta,O,a,246,1,1616.7000000178814,713803.3999999762,7789,WL,B,10.0
5,20.3270001411438,learn,60000.0,Thu Apr 02 2026 10:43:43 GMT-0500 (Central Daylight Time),715952.6999999881,A,star,O,r,513,1,2149.300000011921,713803.3999999762,7789,WL,B,10.0
5,21.811000108718872,learn,60000.0,Thu Apr 02 2026 10:43:43 GMT-0500 (Central Daylight Time),717436.6999999881,A,starenter,O,enter,1480,1,3633.300000011921,713803.3999999762,7789,WL,B,10.0
5,22.527000188827515,learn,60000.0,Thu Apr 02 2026 10:43:43 GMT-0500 (Central Daylight Time),718152.7999999821,A,l,O,l,708,1,715.9000000059605,717436.8999999762,7789,WL,B,11.0
5,23.89300012588501,learn,60000.0,Thu Apr 02 2026 10:43:43 GMT-0500 (Central Daylight Time),719518.5,A,la,O,a,1360,1,2081.600000023842,717436.8999999762,7789,WL,B,11.0
5,24.042999982833862,learn,60000.0,Thu Apr 02 2026 10:43:43 GMT-0500 (Central Daylight Time),719668.8999999762,A,lak,O,k,134,1,2232.0,717436.8999999762,7789,WL,B,11.0
5,24.242000102996826,learn,60000.0,Thu Apr 02 2026 10:43:43 GMT-0500 (Central Daylight Time),719867.8999999762,A,lake,O,e,187,1,2431.0,717436.8999999762,7789,WL,B,11.0
5,24.493000030517578,learn,60000.0,Thu Apr 02 2026 10:43:43 GMT-0500 (Central Daylight Time),720118.2999999821,A,lakeenter,O,enter,243,1,2681.4000000059605,717436.8999999762,7789,WL,B,11.0
5,24.892000198364258,learn,60000.0,Thu Apr 02 2026 10:43:43 GMT-0500 (Central Daylight Time),720517.5,A,c,O,c,385,1,398.90000000596046,720118.599999994,7789,WL,B,12.0
5,25.075999975204468,learn,60000.0,Thu Apr 02 2026 10:43:43 GMT-0500 (Central Daylight Time),720702.0,A,ca,O,a,178,1,583.4000000059605,720118.599999994,7789,WL,B,12.0
5,25.341000080108643,learn,60000.0,Thu Apr 02 2026 10:43:43 GMT-0500 (Central Daylight Time),720967.0,A,cab,O,b,256,1,848.4000000059605,720118.599999994,7789,WL,B,12.0
5,25.492000102996826,learn,60000.0,Thu Apr 02 2026 10:43:43 GMT-0500 (Central Daylight Time),721118.1999999881,A,cabi,O,i,134,1,999.5999999940395,720118.599999994,7789,WL,B,12.0
5,25.707000017166138,learn,60000.0,Thu Apr 02 2026 10:43:43 GMT-0500 (Central Daylight Time),721332.7999999821,A,cabin,O,n,209,1,1214.199999988079,720118.599999994,7789,WL,B,12.0
5,27.29100012779236,learn,60000.0,Thu Apr 02 2026 10:43:43 GMT-0500 (Central Daylight Time),722917.099999994,A,cabinenter,O,enter,1579,1,2798.5,720118.599999994,7789,WL,B,12.0
5,27.725000143051147,learn,60000.0,Thu Apr 02 2026 10:43:43 GMT-0500 (Central Daylight Time),723350.6999999881,A,c,O,c,427,1,433.40000000596046,722917.2999999821,7789,WL,B,13.0
5,27.859000205993652,learn,60000.0,Thu Apr 02 2026 10:43:43 GMT-0500 (Central Daylight Time),723484.6999999881,A,cl,O,l,122,1,567.4000000059605,722917.2999999821,7789,WL,B,13.0
5,28.02500009536743,learn,60000.0,Thu Apr 02 2026 10:43:43 GMT-0500 (Central Daylight Time),723650.5,A,clo,O,o,154,1,733.2000000178814,722917.2999999821,7789,WL,B,13.0
5,28.20800018310547,learn,60000.0,Thu Apr 02 2026 10:43:43 GMT-0500 (Central Daylight Time),723833.599999994,A,cloc,O,c,172,1,916.3000000119209,722917.2999999821,7789,WL,B,13.0
5,28.325000047683716,learn,60000.0,Thu Apr 02 2026 10:43:43 GMT-0500 (Central Daylight Time),723950.3999999762,A,clock,O,k,99,1,1033.0999999940395,722917.2999999821,7789,WL,B,13.0
5,28.642000198364258,learn,60000.0,Thu Apr 02 2026 10:43:43 GMT-0500 (Central Daylight Time),724267.7999999821,A,clockenter,O,enter,311,1,1350.5,722917.2999999821,7789,WL,B,13.0
5,31.305999994277954,learn,60000.0,Thu Apr 02 2026 10:43:43 GMT-0500 (Central Daylight Time),726931.6999999881,A,c,O,c,2645,1,2663.699999988079,724268.0,7789,WL,B,14.0
5,31.389000177383423,learn,60000.0,Thu Apr 02 2026 10:43:43 GMT-0500 (Central Daylight Time),727015.0,A,ci,O,i,76,1,2747.0,724268.0,7789,WL,B,14.0
5,31.605000019073486,learn,60000.0,Thu Apr 02 2026 10:43:43 GMT-0500 (Central Daylight Time),727231.099999994,A,cit,O,t,207,1,2963.0999999940395,724268.0,7789,WL,B,14.0
5,31.75600004196167,learn,60000.0,Thu Apr 02 2026 10:43:43 GMT-0500 (Central Daylight Time),727382.1999999881,A,city,O,y,135,1,3114.199999988079,724268.0,7789,WL,B,14.0
5,32.13900017738342,learn,60000.0,Thu Apr 02 2026 10:43:43 GMT-0500 (Central Daylight Time),727764.7999999821,A,cityenter,O,enter,370,1,3496.7999999821186,724268.0,7789,WL,B,14.0
5,37.53800010681152,learn,60000.0,Thu Apr 02 2026 10:43:43 GMT-0500 (Central Daylight Time),733163.5,A,w,O,w,5386,1,5398.4000000059605,727765.099999994,7789,WL,B,15.0
5,37.687000036239624,learn,60000.0,Thu Apr 02 2026 10:43:43 GMT-0500 (Central Daylight Time),733312.7999999821,A,wi,O,i,140,1,5547.699999988079,727765.099999994,7789,WL,B,15.0
5,37.938000202178955,learn,60000.0,Thu Apr 02 2026 10:43:43 GMT-0500 (Central Daylight Time),733563.5,A,win,O,n,229,1,5798.4000000059605,727765.099999994,7789,WL,B,15.0
5,38.087000131607056,learn,60000.0,Thu Apr 02 2026 10:43:43 GMT-0500 (Central Daylight Time),733713.0,A,wind,O,d,128,1,5947.9000000059605,727765.099999994,7789,WL,B,15.0
5,38.23699998855591,learn,60000.0,Thu Apr 02 2026 10:43:43 GMT-0500 (Central Daylight Time),733863.1999999881,A,windo,O,o,143,1,6098.0999999940395,727765.099999994,7789,WL,B,15.0
5,38.38800001144409,learn,60000.0,Thu Apr 02 2026 10:43:43 GMT-0500 (Central Daylight Time),734013.6999999881,A,window,O,w,136,1,6248.5999999940395,727765.099999994,7789,WL,B,15.0
5,38.55299997329712,learn,60000.0,Thu Apr 02 2026 10:43:43 GMT-0500 (Central Daylight Time),734178.599999994,A,windowenter,O,enter,152,1,6413.5,727765.099999994,7789,WL,B,15.0
6,1.2009999752044678,distr,58799.00002479553,Thu Apr 02 2026 10:43:43 GMT-0500 (Central Daylight Time),812023.599999994,B,c,O,c,1186,1,1201.300000011921,810822.2999999821,7789,WL,B,1.0
6,1.75,distr,58250.0,Thu Apr 02 2026 10:43:43 GMT-0500 (Central Daylight Time),812572.7999999821,B,ce,O,e,543,1,1750.5,810822.2999999821,7789,WL,B,1.0
6,2.2660000324249268,distr,57733.99996757507,Thu Apr 02 2026 10:43:43 GMT-0500 (Central Daylight Time),813088.6999999881,B,cel,O,l,505,1,2266.4000000059605,810822.2999999821,7789,WL,B,1.0
6,2.4489998817443848,distr,57551.000118255615,Thu Apr 02 2026 10:43:43 GMT-0500 (Central Daylight Time),813271.2999999821,B,cell,O,l,174,1,2449.0,810822.2999999821,7789,WL,B,1.0
6,3.5329999923706055,distr,56467.000007629395,Thu Apr 02 2026 10:43:43 GMT-0500 (Central Daylight Time),814355.5,B,cellenter,O,enter,1061,1,3533.2000000178814,810822.2999999821,7789,WL,B,1.0
6,4.430999994277954,distr,55569.000005722046,Thu Apr 02 2026 10:43:43 GMT-0500 (Central Daylight Time),815253.7999999821,B,p,O,p,883,1,898.0999999940395,814355.6999999881,7789,WL,B,2.0
6,4.664000034332275,distr,55335.999965667725,Thu Apr 02 2026 10:43:43 GMT-0500 (Central Daylight Time),815486.2999999821,B,pa,O,a,224,1,1130.5999999940395,814355.6999999881,7789,WL,B,2.0
6,4.864000082015991,distr,55135.99991798401,Thu Apr 02 2026 10:43:43 GMT-0500 (Central Daylight Time),815686.3999999762,B,pal,O,l,180,1,1330.699999988079,814355.6999999881,7789,WL,B,2.0
6,5.013000011444092,distr,54986.99998855591,Thu Apr 02 2026 10:43:43 GMT-0500 (Central Daylight Time),815835.6999999881,B,pala,O,a,142,1,1480.0,814355.6999999881,7789,WL,B,2.0
6,5.315000057220459,distr,54684.99994277954,Thu Apr 02 2026 10:43:43 GMT-0500 (Central Daylight Time),816137.6999999881,B,palac,O,c,291,1,1782.0,814355.6999999881,7789,WL,B,2.0
6,5.615000009536743,distr,54384.99999046326,Thu Apr 02 2026 10:43:43 GMT-0500 (Central Daylight Time),816438.0,B,palace,O,e,296,1,2082.300000011921,814355.6999999881,7789,WL,B,2.0
6,5.898000001907349,distr,54101.99999809265,Thu Apr 02 2026 10:43:43 GMT-0500 (Central Daylight Time),816720.7999999821,B,palaceenter,O,enter,273,1,2365.0999999940395,814355.6999999881,7789,WL,B,2.0
6,6.799000024795532,distr,53200.99997520447,Thu Apr 02 2026 10:43:43 GMT-0500 (Central Daylight Time),817621.0,B,l,O,l,895,1,900.0,816721.0,7789,WL,B,3.0
6,7.197000026702881,distr,52802.99997329712,Thu Apr 02 2026 10:43:43 GMT-0500 (Central Daylight Time),818019.8999999762,B,li,O,i,385,1,1298.8999999761581,816721.0,7789,WL,B,3.0
6,7.397000074386597,distr,52602.9999256134,Thu Apr 02 2026 10:43:43 GMT-0500 (Central Daylight Time),818219.7999999821,B,lip,O,p,185,1,1498.7999999821186,816721.0,7789,WL,B,3.0
6,7.79800009727478,distr,52201.99990272522,Thu Apr 02 2026 10:43:43 GMT-0500 (Central Daylight Time),818620.3999999762,B,lipenter,O,enter,396,1,1899.3999999761581,816721.0,7789,WL,B,3.0
6,8.21399998664856,distr,51786.00001335144,Thu Apr 02 2026 10:43:43 GMT-0500 (Central Daylight Time),819036.8999999762,B,f,O,f,403,1,416.2999999821186,818620.599999994,7789,WL,B,4.0
6,8.46399998664856,distr,51536.00001335144,Thu Apr 02 2026 10:43:43 GMT-0500 (Central Daylight Time),819286.7999999821,B,fr,O,r,234,1,666.1999999880791,818620.599999994,7789,WL,B,4.0
6,8.628999948501587,distr,51371.00005149841,Thu Apr 02 2026 10:43:43 GMT-0500 (Central Daylight Time),819451.7999999821,B,fri,O,i,152,1,831.1999999880791,818620.599999994,7789,WL,B,4.0
6,8.696000099182129,distr,51303.99990081787,Thu Apr 02 2026 10:43:43 GMT-0500 (Central Daylight Time),819518.5,B,frie,O,e,58,1,897.9000000059605,818620.599999994,7789,WL,B,4.0
6,8.86299991607666,distr,51137.00008392334,Thu Apr 02 2026 10:43:43 GMT-0500 (Central Daylight Time),819685.7999999821,B,frien,O,n,151,1,1065.199999988079,818620.599999994,7789,WL,B,4.0
6,9.013000011444092,distr,50986.99998855591,Thu Apr 02 2026 10:43:43 GMT-0500 (Central Daylight Time),819835.8999999762,B,friend,O,d,135,1,1215.2999999821186,818620.599999994,7789,WL,B,4.0
6,9.263999938964844,distr,50736.000061035156,Thu Apr 02 2026 10:43:43 GMT-0500 (Central Daylight Time),820086.2999999821,B,friendenter,O,enter,243,1,1465.699999988079,818620.599999994,7789,WL,B,4.0
6,9.747999906539917,distr,50252.00009346008,Thu Apr 02 2026 10:43:43 GMT-0500 (Central Daylight Time),820570.099999994,B,b,O,b,472,1,483.7000000178814,820086.3999999762,7789,WL,B,5.0
6,9.963000059127808,distr,50036.99994087219,Thu Apr 02 2026 10:43:43 GMT-0500 (Central Daylight Time),820785.7999999821,B,ba,O,a,195,1,699.4000000059605,820086.3999999762,7789,WL,B,5.0
6,10.21399998664856,distr,49786.00001335144,Thu Apr 02 2026 10:43:43 GMT-0500 (Central Daylight Time),821036.599999994,B,bar,O,r,227,1,950.2000000178814,820086.3999999762,7789,WL,B,5.0
6,10.598000049591064,distr,49401.999950408936,Thu Apr 02 2026 10:43:43 GMT-0500 (Central Daylight Time),821420.3999999762,B,barenter,O,enter,377,1,1334.0,820086.3999999762,7789,WL,B,5.0
6,11.161999940872192,distr,48838.00005912781,Thu Apr 02 2026 10:43:43 GMT-0500 (Central Daylight Time),821984.8999999762,B,c,O,c,546,1,564.2999999821186,821420.599999994,7789,WL,B,6.0
6,11.263000011444092,distr,48736.99998855591,Thu Apr 02 2026 10:43:43 GMT-0500 (Central Daylight Time),822085.5,B,co,O,o,83,1,664.9000000059605,821420.599999994,7789,WL,B,6.0
6,11.36299991607666,distr,48637.00008392334,Thu Apr 02 2026 10:43:43 GMT-0500 (Central Daylight Time),822185.7999999821,B,coi,O,i,88,1,765.1999999880791,821420.599999994,7789,WL,B,6.0
6,11.562000036239624,distr,48437.999963760376,Thu Apr 02 2026 10:43:43 GMT-0500 (Central Daylight Time),822384.1999999881,B,coin,O,n,178,1,963.5999999940395,821420.599999994,7789,WL,B,6.0
6,12.61299991607666,distr,47387.00008392334,Thu Apr 02 2026 10:43:43 GMT-0500 (Central Daylight Time),823435.599999994,B,coinenter,O,enter,1030,1,2015.0,821420.599999994,7789,WL,B,6.0
6,23.23900008201599,distr,36760.99991798401,Thu Apr 02 2026 10:43:43 GMT-0500 (Central Daylight Time),834062.3999999762,B,c,O,c,10619,1,10626.5,823435.8999999762,7789,WL,B,7.0
6,23.39199995994568,distr,36608.00004005432,Thu Apr 02 2026 10:43:43 GMT-0500 (Central Daylight Time),834215.0,B,ci,O,i,138,1,10779.100000023842,823435.8999999762,7789,WL,B,7.0
6,23.72499990463257,distr,36275.00009536743,Thu Apr 02 2026 10:43:43 GMT-0500 (Central Daylight Time),834548.0,B,cit,O,t,309,1,11112.100000023842,823435.8999999762,7789,WL,B,7.0
6,23.85800004005432,distr,36141.99995994568,Thu Apr 02 2026 10:43:43 GMT-0500 (Central Daylight Time),834680.8999999762,B,city,O,y,112,1,11245.0,823435.8999999762,7789,WL,B,7.0
6,24.473999977111816,distr,35526.00002288818,Thu Apr 02 2026 10:43:43 GMT-0500 (Central Daylight Time),835297.6999999881,B,cityenter,O,enter,604,1,11861.800000011921,823435.8999999762,7789,WL,B,7.0
6,31.08999991416931,distr,28910.00008583069,Thu Apr 02 2026 10:43:43 GMT-0500 (Central Daylight Time),841913.099999994,B,o,O,o,6605,1,6615.0999999940395,835298.0,7789,WL,B,8.0
6,31.35699987411499,distr,28643.00012588501,Thu Apr 02 2026 10:43:43 GMT-0500 (Central Daylight Time),842180.1999999881,B,oc,O,c,262,1,6882.199999988079,835298.0,7789,WL,B,8.0
6,31.83899998664856,distr,28161.00001335144,Thu Apr 02 2026 10:43:43 GMT-0500 (Central Daylight Time),842662.2999999821,B,oce,O,e,466,1,7364.299999982119,835298.0,7789,WL,B,8.0
6,32.039000034332275,distr,27960.999965667725,Thu Apr 02 2026 10:43:43 GMT-0500 (Central Daylight Time),842861.7999999821,B,ocea,O,a,178,1,7563.799999982119,835298.0,7789,WL,B,8.0
6,32.17199993133545,distr,27828.00006866455,Thu Apr 02 2026 10:43:43 GMT-0500 (Central Daylight Time),842995.099999994,B,ocean,O,n,111,1,7697.0999999940395,835298.0,7789,WL,B,8.0
6,32.5220000743866,distr,27477.999925613403,Thu Apr 02 2026 10:43:43 GMT-0500 (Central Daylight Time),843345.099999994,B,oceanenter,O,enter,331,1,8047.0999999940395,835298.0,7789,WL,B,8.0
6,40.47099995613098,distr,19529.00004386902,Thu Apr 02 2026 10:43:43 GMT-0500 (Central Daylight Time),851294.0,B,s,O,s,7935,1,7948.700000017881,843345.2999999821,7789,WL,B,9.0
6,40.986000061035156,distr,19013.999938964844,Thu Apr 02 2026 10:43:43 GMT-0500 (Central Daylight Time),851808.7999999821,B,st,O,t,503,1,8463.5,843345.2999999821,7789,WL,B,9.0
6,41.20300006866455,distr,18796.99993133545,Thu Apr 02 2026 10:43:43 GMT-0500 (Central Daylight Time),852026.099999994,B,ste,O,e,198,1,8680.800000011921,843345.2999999821,7789,WL,B,9.0
6,41.36999988555908,distr,18630.000114440918,Thu Apr 02 2026 10:43:43 GMT-0500 (Central Daylight Time),852192.8999999762,B,stea,O,a,155,1,8847.59999999404,843345.2999999821,7789,WL,B,9.0
6,41.68599987030029,distr,18314.000129699707,Thu Apr 02 2026 10:43:43 GMT-0500 (Central Daylight Time),852509.3999999762,B,steam,O,m,305,1,9164.09999999404,843345.2999999821,7789,WL,B,9.0
6,42.187000036239624,distr,17812.999963760376,Thu Apr 02 2026 10:43:43 GMT-0500 (Central Daylight Time),853009.8999999762,B,steamenter,O,enter,488,1,9664.59999999404,843345.2999999821,7789,WL,B,9.0
6,57.87899994850159,distr,2121.000051498413,Thu Apr 02 2026 10:43:43 GMT-0500 (Central Daylight Time),868702.5,B,d,O,d,15685,1,15692.40000000596,853010.099999994,7789,WL,B,10.0
6,58.513999938964844,distr,1486.0000610351562,Thu Apr 02 2026 10:43:43 GMT-0500 (Central Daylight Time),869337.2999999821,B,dr,O,r,615,1,16327.199999988079,853010.099999994,7789,WL,B,10.0
6,58.63199996948242,distr,1368.0000305175781,Thu Apr 02 2026 10:43:43 GMT-0500 (Central Daylight Time),869455.0,B,dre,O,e,109,1,16444.90000000596,853010.099999994,7789,WL,B,10.0
6,58.7960000038147,distr,1203.9999961853027,Thu Apr 02 2026 10:43:43 GMT-0500 (Central Daylight Time),869619.099999994,B,dres,O,s,143,1,16609.0,853010.099999994,7789,WL,B,10.0
6,58.98099994659424,distr,1019.0000534057617,Thu Apr 02 2026 10:43:43 GMT-0500 (Central Daylight Time),869804.2999999821,B,dress,O,s,180,1,16794.19999998808,853010.099999994,7789,WL,B,10.0
6,59.395999908447266,distr,604.0000915527344,Thu Apr 02 2026 10:43:43 GMT-0500 (Central Daylight Time),870219.099999994,B,dressenter,O,enter,401,1,17209.0,853010.099999994,7789,WL,B,10.0
6,60.01300001144409,distr,-13.000011444091797,Thu Apr 02 2026 10:43:43 GMT-0500 (Central Daylight Time),870835.8999999762,B,None,O,None,614,1,616.6999999880791,870219.1999999881,7789,WL,B,11.0
7,1.0160000324249268,immed,58983.99996757507,Thu Apr 02 2026 10:43:43 GMT-0500 (Central Daylight Time),888213.6999999881,A,w,O,w,1008,1,1015.1999999880791,887198.5,7789,WL,B,1.0
7,1.182999849319458,immed,58817.00015068054,Thu Apr 02 2026 10:43:43 GMT-0500 (Central Daylight Time),888381.1999999881,A,wi,O,i,150,1,1182.699999988079,887198.5,7789,WL,B,1.0
7,1.3989999294281006,immed,58601.0000705719,Thu Apr 02 2026 10:43:43 GMT-0500 (Central Daylight Time),888596.6999999881,A,win,O,n,208,1,1398.199999988079,887198.5,7789,WL,B,1.0
7,1.5989999771118164,immed,58401.00002288818,Thu Apr 02 2026 10:43:43 GMT-0500 (Central Daylight Time),888796.6999999881,A,wind,O,d,183,1,1598.199999988079,887198.5,7789,WL,B,1.0
7,1.75,immed,58250.0,Thu Apr 02 2026 10:43:43 GMT-0500 (Central Daylight Time),888947.599999994,A,windo,O,o,126,1,1749.0999999940395,887198.5,7789,WL,B,1.0
7,1.932999849319458,immed,58067.00015068054,Thu Apr 02 2026 10:43:43 GMT-0500 (Central Daylight Time),889131.0,A,window,O,w,160,1,1932.5,887198.5,7789,WL,B,1.0
7,2.181999921798706,immed,57818.000078201294,Thu Apr 02 2026 10:43:43 GMT-0500 (Central Daylight Time),889379.6999999881,A,windowenter,O,enter,234,1,2181.199999988079,887198.5,7789,WL,B,1.0
7,2.631999969482422,immed,57368.00003051758,Thu Apr 02 2026 10:43:43 GMT-0500 (Central Daylight Time),889829.6999999881,A,l,O,l,435,1,449.80000001192093,889379.8999999762,7789,WL,B,2.0
7,2.8309998512268066,immed,57169.00014877319,Thu Apr 02 2026 10:43:43 GMT-0500 (Central Daylight Time),890029.2999999821,A,la,O,a,185,1,649.4000000059605,889379.8999999762,7789,WL,B,2.0
7,2.932999849319458,immed,57067.00015068054,Thu Apr 02 2026 10:43:43 GMT-0500 (Central Daylight Time),890130.599999994,A,lak,O,k,91,1,750.7000000178814,889379.8999999762,7789,WL,B,2.0
7,3.0989999771118164,immed,56901.00002288818,Thu Apr 02 2026 10:43:43 GMT-0500 (Central Daylight Time),890296.8999999762,A,lake,O,e,154,1,917.0,889379.8999999762,7789,WL,B,2.0
7,3.31499981880188,immed,56685.00018119812,Thu Apr 02 2026 10:43:43 GMT-0500 (Central Daylight Time),890512.7999999821,A,lakeenter,O,enter,201,1,1132.9000000059605,889379.8999999762,7789,WL,B,2.0
7,3.998999834060669,immed,56001.00016593933,Thu Apr 02 2026 10:43:43 GMT-0500 (Central Daylight Time),891197.2999999821,A,c,O,c,661,1,684.2999999821186,890513.0,7789,WL,B,3.0
7,4.099999904632568,immed,55900.00009536743,Thu Apr 02 2026 10:43:43 GMT-0500 (Central Daylight Time),891298.3999999762,A,ci,O,i,85,1,785.3999999761581,890513.0,7789,WL,B,3.0
7,4.347999811172485,immed,55652.000188827515,Thu Apr 02 2026 10:43:43 GMT-0500 (Central Daylight Time),891546.5,A,cit,O,t,237,1,1033.5,890513.0,7789,WL,B,3.0
7,4.513999938964844,immed,55486.000061035156,Thu Apr 02 2026 10:43:43 GMT-0500 (Central Daylight Time),891712.1999999881,A,city,O,y,152,1,1199.199999988079,890513.0,7789,WL,B,3.0
7,4.847999811172485,immed,55152.000188827515,Thu Apr 02 2026 10:43:43 GMT-0500 (Central Daylight Time),892045.599999994,A,cityenter,O,enter,315,1,1532.5999999940395,890513.0,7789,WL,B,3.0
7,5.414999961853027,immed,54585.00003814697,Thu Apr 02 2026 10:43:43 GMT-0500 (Central Daylight Time),892612.599999994,A,s,O,s,562,1,566.7000000178814,892045.8999999762,7789,WL,B,4.0
7,5.764999866485596,immed,54235.000133514404,Thu Apr 02 2026 10:43:43 GMT-0500 (Central Daylight Time),892962.599999994,A,st,O,t,335,1,916.7000000178814,892045.8999999762,7789,WL,B,4.0
7,6.014999866485596,immed,53985.000133514404,Thu Apr 02 2026 10:43:43 GMT-0500 (Central Daylight Time),893212.7999999821,A,str,O,r,238,1,1166.9000000059605,892045.8999999762,7789,WL,B,4.0
7,6.146999835968018,immed,53853.00016403198,Thu Apr 02 2026 10:43:43 GMT-0500 (Central Daylight Time),893345.2999999821,A,stre,O,e,114,1,1299.4000000059605,892045.8999999762,7789,WL,B,4.0
7,6.398000001907349,immed,53601.99999809265,Thu Apr 02 2026 10:43:43 GMT-0500 (Central Daylight Time),893596.3999999762,A,stree,O,e,230,1,1550.5,892045.8999999762,7789,WL,B,4.0
7,6.513999938964844,immed,53486.000061035156,Thu Apr 02 2026 10:43:43 GMT-0500 (Central Daylight Time),893712.5,A,street,O,t,96,1,1666.6000000238419,892045.8999999762,7789,WL,B,4.0
7,8.095999956130981,immed,51904.00004386902,Thu Apr 02 2026 10:43:43 GMT-0500 (Central Daylight Time),895294.5,A,streetenter,O,enter,1573,1,3248.600000023842,892045.8999999762,7789,WL,B,4.0
7,8.44700002670288,immed,51552.99997329712,Thu Apr 02 2026 10:43:43 GMT-0500 (Central Daylight Time),895644.5,A,f,O,f,335,1,349.80000001192093,895294.6999999881,7789,WL,B,5.0
7,8.63099980354309,immed,51369.00019645691,Thu Apr 02 2026 10:43:43 GMT-0500 (Central Daylight Time),895829.0,A,fi,O,i,172,1,534.3000000119209,895294.6999999881,7789,WL,B,5.0
7,8.829999923706055,immed,51170.000076293945,Thu Apr 02 2026 10:43:43 GMT-0500 (Central Daylight Time),896028.0,A,fir,O,r,185,1,733.3000000119209,895294.6999999881,7789,WL,B,5.0
7,8.94599986076355,immed,51054.00013923645,Thu Apr 02 2026 10:43:43 GMT-0500 (Central Daylight Time),896144.599999994,A,fire,O,e,98,1,849.9000000059605,895294.6999999881,7789,WL,B,5.0
7,9.230000019073486,immed,50769.999980926514,Thu Apr 02 2026 10:43:43 GMT-0500 (Central Daylight Time),896428.1999999881,A,fireenter,O,enter,268,1,1133.5,895294.6999999881,7789,WL,B,5.0
7,10.396999835968018,immed,49603.00016403198,Thu Apr 02 2026 10:43:43 GMT-0500 (Central Daylight Time),897594.7999999821,A,p,O,p,1147,1,1166.4000000059605,896428.3999999762,7789,WL,B,6.0
7,10.646999835968018,immed,49353.00016403198,Thu Apr 02 2026 10:43:43 GMT-0500 (Central Daylight Time),897845.0,A,pu,O,u,237,1,1416.6000000238419,896428.3999999762,7789,WL,B,6.0
7,10.96399998664856,immed,49036.00001335144,Thu Apr 02 2026 10:43:43 GMT-0500 (Central Daylight Time),898161.6999999881,A,pup,O,p,302,1,1733.300000011921,896428.3999999762,7789,WL,B,6.0
7,11.27999997138977,immed,48720.00002861023,Thu Apr 02 2026 10:43:43 GMT-0500 (Central Daylight Time),898477.8999999762,A,pupi,O,i,302,1,2049.5,896428.3999999762,7789,WL,B,6.0
7,11.662999868392944,immed,48337.000131607056,Thu Apr 02 2026 10:43:43 GMT-0500 (Central Daylight Time),898861.2999999821,A,pupil,O,l,377,1,2432.9000000059605,896428.3999999762,7789,WL,B,6.0
7,12.144999980926514,immed,47855.000019073486,Thu Apr 02 2026 10:43:43 GMT-0500 (Central Daylight Time),899342.7999999821,A,pupilenter,O,enter,462,1,2914.4000000059605,896428.3999999762,7789,WL,B,6.0
7,12.52999997138977,immed,47470.00002861023,Thu Apr 02 2026 10:43:43 GMT-0500 (Central Daylight Time),899727.5,A,a,O,a,381,1,384.5,899343.0,7789,WL,B,7.0
7,12.811999797821045,immed,47188.000202178955,Thu Apr 02 2026 10:43:43 GMT-0500 (Central Daylight Time),900010.2999999821,A,ar,O,r,263,1,667.2999999821186,899343.0,7789,WL,B,7.0
7,13.061999797821045,immed,46938.000202178955,Thu Apr 02 2026 10:43:43 GMT-0500 (Central Daylight Time),900260.5,A,arm,O,m,240,1,917.5,899343.0,7789,WL,B,7.0
7,13.51199984550476,immed,46488.00015449524,Thu Apr 02 2026 10:43:43 GMT-0500 (Central Daylight Time),900709.6999999881,A,armenter,O,enter,431,1,1366.699999988079,899343.0,7789,WL,B,7.0
7,13.86299991607666,immed,46137.00008392334,Thu Apr 02 2026 10:43:43 GMT-0500 (Central Daylight Time),901060.599999994,A,s,O,s,329,1,350.7000000178814,900709.8999999762,7789,WL,B,8.0
7,13.994999885559082,immed,46005.00011444092,Thu Apr 02 2026 10:43:43 GMT-0500 (Central Daylight Time),901192.6999999881,A,sk,O,k,113,1,482.80000001192093,900709.8999999762,7789,WL,B,8.0
7,14.178999900817871,immed,45821.00009918213,Thu Apr 02 2026 10:43:43 GMT-0500 (Central Daylight Time),901377.1999999881,A,ski,O,i,174,1,667.3000000119209,900709.8999999762,7789,WL,B,8.0
7,14.411999940872192,immed,45588.00005912781,Thu Apr 02 2026 10:43:43 GMT-0500 (Central Daylight Time),901610.1999999881,A,skin,O,n,211,1,900.3000000119209,900709.8999999762,7789,WL,B,8.0
7,14.74399995803833,immed,45256.00004196167,Thu Apr 02 2026 10:43:43 GMT-0500 (Central Daylight Time),901942.3999999762,A,skinenter,O,enter,324,1,1232.5,900709.8999999762,7789,WL,B,8.0
7,18.610999822616577,immed,41389.00017738342,Thu Apr 02 2026 10:43:43 GMT-0500 (Central Daylight Time),905808.599999994,A,f,O,f,3856,1,3866.0,901942.599999994,7789,WL,B,9.0
7,18.776999950408936,immed,41223.000049591064,Thu Apr 02 2026 10:43:43 GMT-0500 (Central Daylight Time),905975.5,A,fi,O,i,151,1,4032.9000000059605,901942.599999994,7789,WL,B,9.0
7,18.960999965667725,immed,41039.000034332275,Thu Apr 02 2026 10:43:43 GMT-0500 (Central Daylight Time),906158.8999999762,A,fir,O,r,176,1,4216.299999982119,901942.599999994,7789,WL,B,9.0
7,19.0939998626709,immed,40906.0001373291,Thu Apr 02 2026 10:43:43 GMT-0500 (Central Daylight Time),906292.0,A,fire,O,e,126,1,4349.4000000059605,901942.599999994,7789,WL,B,9.0
7,19.259999990463257,immed,40740.00000953674,Thu Apr 02 2026 10:43:43 GMT-0500 (Central Daylight Time),906458.1999999881,A,fireenter,O,enter,156,1,4515.5999999940395,901942.599999994,7789,WL,B,9.0
7,21.40999984741211,immed,38590.00015258789,Thu Apr 02 2026 10:43:43 GMT-0500 (Central Daylight Time),908607.599999994,A,w,O,w,2132,1,2149.0999999940395,906458.5,7789,WL,B,10.0
7,21.491999864578247,immed,38508.00013542175,Thu Apr 02 2026 10:43:43 GMT-0500 (Central Daylight Time),908690.2999999821,A,wi,O,i,69,1,2231.7999999821186,906458.5,7789,WL,B,10.0
7,21.675999879837036,immed,38324.000120162964,Thu Apr 02 2026 10:43:43 GMT-0500 (Central Daylight Time),908874.5,A,wif,O,f,165,1,2416.0,906458.5,7789,WL,B,10.0
7,21.776000022888184,immed,38223.99997711182,Thu Apr 02 2026 10:43:43 GMT-0500 (Central Daylight Time),908974.2999999821,A,wife,O,e,83,1,2515.7999999821186,906458.5,7789,WL,B,10.0
7,22.425999879837036,immed,37574.000120162964,Thu Apr 02 2026 10:43:43 GMT-0500 (Central Daylight Time),909624.099999994,A,wifeenter,O,enter,629,1,3165.5999999940395,906458.5,7789,WL,B,10.0
7,23.192999839782715,immed,36807.000160217285,Thu Apr 02 2026 10:43:43 GMT-0500 (Central Daylight Time),910390.8999999762,A,d,O,d,750,1,766.5999999940395,909624.2999999821,7789,WL,B,11.0
7,23.358999967575073,immed,36641.00003242493,Thu Apr 02 2026 10:43:43 GMT-0500 (Central Daylight Time),910557.1999999881,A,do,O,o,159,1,932.9000000059605,909624.2999999821,7789,WL,B,11.0
7,23.54199981689453,immed,36458.00018310547,Thu Apr 02 2026 10:43:43 GMT-0500 (Central Daylight Time),910740.5,A,doo,O,o,168,1,1116.2000000178814,909624.2999999821,7789,WL,B,11.0
7,23.757999897003174,immed,36242.000102996826,Thu Apr 02 2026 10:43:43 GMT-0500 (Central Daylight Time),910956.599999994,A,door,O,r,205,1,1332.300000011921,909624.2999999821,7789,WL,B,11.0
7,24.04199981689453,immed,35958.00018310547,Thu Apr 02 2026 10:43:43 GMT-0500 (Central Daylight Time),911240.0,A,doorenter,O,enter,266,1,1615.7000000178814,909624.2999999821,7789,WL,B,11.0
7,24.39299988746643,immed,35607.00011253357,Thu Apr 02 2026 10:43:43 GMT-0500 (Central Daylight Time),911590.6999999881,A,l,O,l,343,1,350.5,911240.1999999881,7789,WL,B,12.0
7,24.557999849319458,immed,35442.00015068054,Thu Apr 02 2026 10:43:43 GMT-0500 (Central Daylight Time),911756.099999994,A,la,O,a,150,1,515.9000000059605,911240.1999999881,7789,WL,B,12.0
7,24.674999952316284,immed,35325.000047683716,Thu Apr 02 2026 10:43:43 GMT-0500 (Central Daylight Time),911873.099999994,A,lak,O,k,106,1,632.9000000059605,911240.1999999881,7789,WL,B,12.0
7,24.807999849319458,immed,35192.00015068054,Thu Apr 02 2026 10:43:43 GMT-0500 (Central Daylight Time),912006.2999999821,A,lake,O,e,125,1,766.0999999940395,911240.1999999881,7789,WL,B,12.0
7,25.007999897003174,immed,34992.000102996826,Thu Apr 02 2026 10:43:43 GMT-0500 (Central Daylight Time),912206.2999999821,A,lakeenter,O,enter,185,1,966.0999999940395,911240.1999999881,7789,WL,B,12.0
7,25.325999975204468,immed,34674.00002479553,Thu Apr 02 2026 10:43:43 GMT-0500 (Central Daylight Time),912523.599999994,A,c,O,c,305,1,317.09999999403954,912206.5,7789,WL,B,13.0
7,25.47499990463257,immed,34525.00009536743,Thu Apr 02 2026 10:43:43 GMT-0500 (Central Daylight Time),912673.0,A,ca,O,a,136,1,466.5,912206.5,7789,WL,B,13.0
7,25.70899987220764,immed,34291.00012779236,Thu Apr 02 2026 10:43:43 GMT-0500 (Central Daylight Time),912907.0,A,cab,O,b,211,1,700.5,912206.5,7789,WL,B,13.0
7,25.806999921798706,immed,34193.000078201294,Thu Apr 02 2026 10:43:43 GMT-0500 (Central Daylight Time),913005.2999999821,A,cabi,O,i,83,1,798.7999999821186,912206.5,7789,WL,B,13.0
7,25.991999864578247,immed,34008.00013542175,Thu Apr 02 2026 10:43:43 GMT-0500 (Central Daylight Time),913190.0,A,cabin,O,n,171,1,983.5,912206.5,7789,WL,B,13.0
7,26.257999897003174,immed,33742.000102996826,Thu Apr 02 2026 10:43:43 GMT-0500 (Central Daylight Time),913455.599999994,A,cabinenter,O,enter,249,1,1249.0999999940395,912206.5,7789,WL,B,13.0
7,28.807999849319458,immed,31192.000150680542,Thu Apr 02 2026 10:43:43 GMT-0500 (Central Daylight Time),916006.0,A,g,O,g,2536,1,2550.300000011921,913455.6999999881,7789,WL,B,14.0
7,29.158999919891357,immed,30841.000080108643,Thu Apr 02 2026 10:43:43 GMT-0500 (Central Daylight Time),916356.8999999762,A,gr,O,r,345,1,2901.199999988079,913455.6999999881,7789,WL,B,14.0
7,29.35599994659424,immed,30644.00005340576,Thu Apr 02 2026 10:43:43 GMT-0500 (Central Daylight Time),916554.5,A,gra,O,a,184,1,3098.800000011921,913455.6999999881,7789,WL,B,14.0
7,29.639999866485596,immed,30360.000133514404,Thu Apr 02 2026 10:43:43 GMT-0500 (Central Daylight Time),916838.2999999821,A,gras,O,s,262,1,3382.5999999940395,913455.6999999881,7789,WL,B,14.0
7,29.77300000190735,immed,30226.99999809265,Thu Apr 02 2026 10:43:43 GMT-0500 (Central Daylight Time),916971.0,A,grasenter,O,enter,118,1,3515.300000011921,913455.6999999881,7789,WL,B,14.0
7,36.72199988365173,immed,23278.000116348267,Thu Apr 02 2026 10:43:43 GMT-0500 (Central Daylight Time),923919.6999999881,A,c,O,c,6943,1,6948.4000000059605,916971.2999999821,7789,WL,B,15.0
7,36.936999797821045,immed,23063.000202178955,Thu Apr 02 2026 10:43:43 GMT-0500 (Central Daylight Time),924134.8999999762,A,cl,O,l,197,1,7163.5999999940395,916971.2999999821,7789,WL,B,15.0
7,37.121999979019165,immed,22878.000020980835,Thu Apr 02 2026 10:43:43 GMT-0500 (Central Daylight Time),924319.8999999762,A,clo,O,o,181,1,7348.5999999940395,916971.2999999821,7789,WL,B,15.0
7,37.27199983596802,immed,22728.000164031982,Thu Apr 02 2026 10:43:43 GMT-0500 (Central Daylight Time),924470.1999999881,A,cloc,O,c,145,1,7498.9000000059605,916971.2999999821,7789,WL,B,15.0
7,37.353999853134155,immed,22646.000146865845,Thu Apr 02 2026 10:43:43 GMT-0500 (Central Daylight Time),924552.2999999821,A,clock,O,k,70,1,7581.0,916971.2999999821,7789,WL,B,15.0
7,37.55299997329712,immed,22447.00002670288,Thu Apr 02 2026 10:43:43 GMT-0500 (Central Daylight Time),924751.099999994,A,clockenter,O,enter,188,1,7779.800000011921,916971.2999999821,7789,WL,B,15.0
