acc_sum,block,block_c,condition,correct,correct_response,datetime,endtime,flanker,jitter,project,response,response_test_buffer_response,response_test_target_response,response_time,response_time_test_buffer_response,response_time_test_target_response,row_sel,session_number,start_end,starttime,subject_id,target,task,task_vers,time_test_buffer,time_test_buffer_response,time_test_constants,time_test_flanker,time_test_jitter,time_test_logger,time_test_target,time_test_target_response,time_test_variables,trial
0,prac,1,con,0,m,Wed Mar 25 2026 14:34:33 GMT-0500 (Central Daylight Time),215689.0,silver,1000,I,None,,,1815,,,11,1,5074.900000095367,210614.09999990463,1538,silver,NF,C,,,,,,,,,,1
0,prac,1,inc,0,z,Wed Mar 25 2026 14:34:33 GMT-0500 (Central Daylight Time),219237.0,iron,900,I,m,,,1332,,,6,1,3541.7000000476837,215695.29999995232,1538,pear,NF,C,,,,,,,,,,2
1,prac,1,inc,1,m,Wed Mar 25 2026 14:34:33 GMT-0500 (Central Daylight Time),222204.79999995232,pear,900,I,m,,,753,,,14,1,2964.2999999523163,219240.5,1538,iron,NF,C,,,,,,,,,,3
1,prac,1,inc,0,z,Wed Mar 25 2026 14:34:33 GMT-0500 (Central Daylight Time),225286.5,lead,1100,I,m,,,667,,,8,1,3075.7000000476837,222210.79999995232,1538,plum,NF,C,,,,,,,,,,4
1,prac,1,inc,0,z,Wed Mar 25 2026 14:34:33 GMT-0500 (Central Daylight Time),228068.39999985695,copper,900,I,m,,,578,,,2,1,2776.0999999046326,225292.29999995232,1538,cherry,NF,C,,,,,,,,,,5
2,prac,1,con,1,z,Wed Mar 25 2026 14:34:33 GMT-0500 (Central Daylight Time),231218.79999995232,lime,800,I,z,,,1037,,,5,1,3145.5,228073.29999995232,1538,lime,NF,C,,,,,,,,,,6
3,prac,1,con,1,m,Wed Mar 25 2026 14:34:33 GMT-0500 (Central Daylight Time),234215.09999990463,zinc,1000,I,m,,,682,,,15,1,2989.7000000476837,231225.39999985695,1538,zinc,NF,C,,,,,,,,,,7
4,prac,1,inc,1,z,Wed Mar 25 2026 14:34:33 GMT-0500 (Central Daylight Time),237383.5,cobalt,1100,I,z,,,750,,,4,1,3165.0,234218.5,1538,raisin,NF,C,,,,,,,,,,8
5,prac,1,con,1,m,Wed Mar 25 2026 14:34:33 GMT-0500 (Central Daylight Time),240365.89999985695,gold,800,I,m,,,868,,,13,1,2976.0999999046326,237389.79999995232,1538,gold,NF,C,,,,,,,,,,9
6,prac,1,con,1,z,Wed Mar 25 2026 14:34:33 GMT-0500 (Central Daylight Time),243380.79999995232,orange,1000,I,z,,,711,,,3,1,3009.4000000953674,240371.39999985695,1538,orange,NF,C,,,,,,,,,,10
7,prac,1,con,1,z,Wed Mar 25 2026 14:34:33 GMT-0500 (Central Daylight Time),246379.59999990463,kiwi,1000,I,z,,,689,,,7,1,2993.2999999523163,243386.29999995232,1538,kiwi,NF,C,,,,,,,,,,11
8,prac,1,con,1,m,Wed Mar 25 2026 14:34:33 GMT-0500 (Central Daylight Time),249229.09999990463,bronze,800,I,m,,,735,,,9,1,2842.899999856949,246386.20000004768,1538,bronze,NF,C,,,,,,,,,,12
9,prac,1,con,1,z,Wed Mar 25 2026 14:34:33 GMT-0500 (Central Daylight Time),251962.29999995232,banana,800,I,z,,,633,,,1,1,2727.2999999523163,249235.0,1538,banana,NF,C,,,,,,,,,,13
10,prac,1,inc,1,m,Wed Mar 25 2026 14:34:33 GMT-0500 (Central Daylight Time),255093.70000004768,raisin,1100,I,m,,,718,,,12,1,3126.2000000476837,251967.5,1538,cobalt,NF,C,,,,,,,,,,14
11,prac,1,inc,1,m,Wed Mar 25 2026 14:34:33 GMT-0500 (Central Daylight Time),258142.09999990463,plum,1100,I,m,,,635,,,16,1,3039.7000000476837,255102.39999985695,1538,lead,NF,C,,,,,,,,,,15
12,prac,1,inc,1,m,Wed Mar 25 2026 14:34:33 GMT-0500 (Central Daylight Time),261074.39999985695,cherry,900,I,m,,,746,,,10,1,2924.7999999523163,258149.59999990463,1538,copper,NF,C,,,,,,,,,,16
1,test,1,con,1,m,Wed Mar 25 2026 14:34:33 GMT-0500 (Central Daylight Time),312825.2999999523,copper,900,I,m,m,None,558,358.0,200.0,74,1,1992.9000000953674,310832.39999985695,1538,copper,NF,C,308641,308641,307013,307923,307014,309006,308440,308440,309006,1
2,test,1,inc,1,z,Wed Mar 25 2026 14:34:33 GMT-0500 (Central Daylight Time),314941.5,silver,1000,I,z,z,None,586,387.0,199.0,15,1,2108.9000000953674,312832.59999990463,1538,cherry,NF,C,310723,310723,309014,310022,309014,311123,310524,310524,311123,2
3,test,1,inc,1,m,Wed Mar 25 2026 14:34:33 GMT-0500 (Central Daylight Time),317140.09999990463,orange,1000,I,m,m,None,653,454.0,199.0,79,1,2192.899999856949,314947.2000000477,1538,copper,NF,C,312856,312856,311128,312141,311129,313321,312656,312656,313321,3
4,test,1,con,1,z,Wed Mar 25 2026 14:34:33 GMT-0500 (Central Daylight Time),319457.0,orange,1100,I,z,z,None,667,468.0,199.0,20,1,2311.4000000953674,317145.59999990463,1538,orange,NF,C,315154,315154,313327,314439,313327,315638,314955,314955,315638,4
5,test,1,inc,1,z,Wed Mar 25 2026 14:34:33 GMT-0500 (Central Daylight Time),321723.0,lead,1100,I,z,z,None,647,448.0,199.0,48,1,2260.2999999523163,319462.7000000477,1538,pear,NF,C,317455,317455,315644,316754,315644,317904,317255,317255,317904,5
6,test,1,con,1,m,Wed Mar 25 2026 14:34:33 GMT-0500 (Central Daylight Time),323755.0,copper,1000,I,m,m,None,499,283.0,216.0,75,1,2028.0,321727.0,1538,copper,NF,C,319653,319653,317908,318921,317908,319936,319437,319437,319936,6
7,test,1,inc,1,z,Wed Mar 25 2026 14:34:33 GMT-0500 (Central Daylight Time),325921.7999999523,silver,1000,I,z,z,None,650,450.0,200.0,23,1,2162.0,323759.7999999523,1538,orange,NF,C,321653,321653,319941,320952,319941,322103,321453,321453,322103,7
8,test,1,con,1,m,Wed Mar 25 2026 14:34:33 GMT-0500 (Central Daylight Time),327937.5,iron,800,I,m,m,None,666,466.0,200.0,105,1,2010.5,325927.0,1538,iron,NF,C,323636,323636,322108,322919,322108,324119,323435,323435,324119,8
9,test,1,con,1,m,Wed Mar 25 2026 14:34:33 GMT-0500 (Central Daylight Time),330103.09999990463,silver,1000,I,m,m,None,627,421.0,206.0,83,1,2159.7999999523163,327943.2999999523,1538,silver,NF,C,325857,325857,324124,325135,324125,326284,325651,325651,326284,9
10,test,1,con,1,m,Wed Mar 25 2026 14:34:33 GMT-0500 (Central Daylight Time),332535.59999990463,iron,1100,I,m,m,None,783,583.0,200.0,108,1,2427.5,330108.09999990463,1538,iron,NF,C,328118,328118,326289,327401,326289,328717,327917,327917,328717,10
11,test,1,con,1,m,Wed Mar 25 2026 14:34:33 GMT-0500 (Central Daylight Time),334767.5,copper,1100,I,m,m,None,583,383.0,200.0,76,1,2226.7999999523163,332540.7000000477,1538,copper,NF,C,330550,330550,328722,329833,328722,330949,330350,330350,330949,11
12,test,1,con,1,m,Wed Mar 25 2026 14:34:33 GMT-0500 (Central Daylight Time),336818.59999990463,silver,800,I,m,m,None,716,501.0,215.0,81,1,2046.0,334772.59999990463,1538,silver,NF,C,332498,332498,330954,331766,330954,333000,332283,332283,333000,12
13,test,1,inc,1,m,Wed Mar 25 2026 14:34:33 GMT-0500 (Central Daylight Time),338900.7999999523,lime,800,I,m,m,None,736,537.0,199.0,101,1,2076.2999999523163,336824.5,1538,gold,NF,C,334532,334532,333006,333816,333006,335082,334332,334332,335082,13
14,test,1,inc,1,z,Wed Mar 25 2026 14:34:33 GMT-0500 (Central Daylight Time),340948.39999985695,copper,900,I,z,z,None,612,410.0,202.0,30,1,2044.5999999046326,338903.7999999523,1538,raisin,NF,C,336716,336716,335085,335998,335085,337130,336513,336513,337129,14
15,test,1,inc,1,m,Wed Mar 25 2026 14:34:33 GMT-0500 (Central Daylight Time),343149.5,kiwi,1000,I,m,m,None,682,483.0,199.0,119,1,2197.600000143051,340951.89999985695,1538,zinc,NF,C,338847,338847,337133,338147,337133,339331,338648,338648,339331,15
16,test,1,con,1,z,Wed Mar 25 2026 14:34:33 GMT-0500 (Central Daylight Time),345197.0,pear,800,I,z,z,None,710,510.0,200.0,41,1,2043.1000001430511,343153.89999985695,1538,pear,NF,C,340863,340864,339335,340145,339335,341378,340663,340663,341378,16
17,test,1,con,1,m,Wed Mar 25 2026 14:34:33 GMT-0500 (Central Daylight Time),347380.7000000477,bronze,900,I,m,m,None,737,538.0,199.0,66,1,2179.7000000476837,345201.0,1538,bronze,NF,C,343013,343013,341382,342297,341382,343562,342813,342813,343562,17
18,test,1,inc,1,m,Wed Mar 25 2026 14:34:33 GMT-0500 (Central Daylight Time),349495.0,lime,800,I,m,m,None,767,568.0,199.0,117,1,2109.5,347385.5,1538,zinc,NF,C,345093,345093,343567,344378,343567,345676,344894,344894,345676,18
19,test,1,con,1,z,Wed Mar 25 2026 14:34:33 GMT-0500 (Central Daylight Time),351446.59999990463,raisin,800,I,z,z,None,604,404.0,200.0,25,1,1948.3999998569489,349498.2000000477,1538,raisin,NF,C,347211,347211,345679,346493,345679,347628,347010,347010,347628,19
20,test,1,con,1,z,Wed Mar 25 2026 14:34:33 GMT-0500 (Central Daylight Time),354261.59999990463,banana,1100,I,z,z,None,1169,969.0,200.0,4,1,2810.5,351451.09999990463,1538,banana,NF,C,349462,349462,347632,348744,347632,350443,349261,349261,350443,20
21,test,1,inc,1,z,Wed Mar 25 2026 14:34:33 GMT-0500 (Central Daylight Time),356494.09999990463,zinc,1000,I,z,z,None,683,484.0,199.0,47,1,2227.0999999046326,354267.0,1538,pear,NF,C,352177,352177,350448,351460,350448,352675,351977,351977,352675,21
22,test,1,inc,1,m,Wed Mar 25 2026 14:34:33 GMT-0500 (Central Daylight Time),358660.0,orange,1000,I,m,m,None,632,431.0,201.0,87,1,2162.7000000476837,356497.2999999523,1538,silver,NF,C,354410,354410,352678,353692,352679,354841,354209,354209,354841,22
23,test,1,inc,1,m,Wed Mar 25 2026 14:34:33 GMT-0500 (Central Daylight Time),361027.2000000477,plum,1100,I,m,m,None,733,533.0,200.0,120,1,2362.2000000476837,358665.0,1538,zinc,NF,C,356675,356675,354846,355958,354846,357208,356475,356475,357208,23
24,test,1,inc,1,z,Wed Mar 25 2026 14:34:33 GMT-0500 (Central Daylight Time),363109.09999990463,gold,800,I,z,z,None,736,537.0,199.0,53,1,2077.7999999523163,361031.2999999523,1538,kiwi,NF,C,358741,358741,357212,358024,357213,359290,358541,358541,359290,24
25,test,1,con,1,m,Wed Mar 25 2026 14:34:33 GMT-0500 (Central Daylight Time),365225.2999999523,lead,800,I,m,m,None,783,583.0,200.0,121,1,2111.4000000953674,363113.89999985695,1538,lead,NF,C,360807,360807,359295,360106,359295,361406,360607,360607,361406,25
26,test,1,con,1,z,Wed Mar 25 2026 14:34:33 GMT-0500 (Central Daylight Time),367573.09999990463,raisin,1100,I,z,z,None,702,502.0,200.0,28,1,2341.2000000476837,365231.89999985695,1538,raisin,NF,C,363240,363240,361413,362523,361413,363754,363040,363040,363754,26
27,test,1,con,1,z,Wed Mar 25 2026 14:34:33 GMT-0500 (Central Daylight Time),369873.59999990463,lime,1100,I,z,z,None,657,441.0,216.0,36,1,2295.0999999046326,367578.5,1538,lime,NF,C,365606,365606,363760,364872,363760,366055,365389,365389,366055,27
28,test,1,inc,1,z,Wed Mar 25 2026 14:34:33 GMT-0500 (Central Daylight Time),372122.7000000477,silver,1000,I,z,z,None,708,508.0,200.0,31,1,2244.5,369878.2000000477,1538,raisin,NF,C,367787,367787,366059,367072,366059,368304,367587,367587,368304,28
29,test,1,inc,1,z,Wed Mar 25 2026 14:34:33 GMT-0500 (Central Daylight Time),374090.0,iron,900,I,z,z,None,548,349.0,199.0,46,1,1962.2999999523163,372127.7000000477,1538,pear,NF,C,369921,369922,368309,369220,368309,370271,369722,369722,370271,29
30,test,1,inc,1,z,Wed Mar 25 2026 14:34:33 GMT-0500 (Central Daylight Time),376220.59999990463,silver,1000,I,z,z,None,586,386.0,200.0,7,1,2125.2000000476837,374095.39999985695,1538,banana,NF,C,372004,372004,370276,371286,370277,372402,371803,371803,372402,30
31,test,1,con,1,z,Wed Mar 25 2026 14:34:33 GMT-0500 (Central Daylight Time),378302.0,kiwi,900,I,z,z,None,633,433.0,200.0,50,1,2075.600000143051,376226.39999985695,1538,kiwi,NF,C,374036,374036,372407,373319,372408,374483,373835,373835,374483,31
32,test,1,inc,1,z,Wed Mar 25 2026 14:34:33 GMT-0500 (Central Daylight Time),380335.7000000477,bronze,800,I,z,z,None,689,474.0,215.0,21,1,2030.4000000953674,378305.2999999523,1538,orange,NF,C,376034,376035,374486,375302,374487,376517,375819,375819,376517,32
33,test,1,con,1,z,Wed Mar 25 2026 14:34:33 GMT-0500 (Central Daylight Time),382502.59999990463,banana,1000,I,z,z,None,619,417.0,202.0,3,1,2162.2999999523163,380340.2999999523,1538,banana,NF,C,378253,378253,376521,377534,376522,378684,378051,378051,378684,33
34,test,1,con,1,z,Wed Mar 25 2026 14:34:33 GMT-0500 (Central Daylight Time),384785.2000000477,plum,1100,I,z,z,None,640,441.0,199.0,60,1,2277.600000143051,382507.59999990463,1538,plum,NF,C,380517,380517,378689,379803,378689,380966,380317,380317,380966,34
35,test,1,inc,1,m,Wed Mar 25 2026 14:34:33 GMT-0500 (Central Daylight Time),386917.2999999523,orange,1000,I,m,m,None,587,387.0,200.0,71,1,2128.7999999523163,384788.5,1538,bronze,NF,C,382699,382699,380970,381983,380970,383098,382499,382499,383098,35
36,test,1,con,1,z,Wed Mar 25 2026 14:34:33 GMT-0500 (Central Daylight Time),389152.2999999523,cherry,1000,I,z,z,None,693,494.0,199.0,11,1,2227.0,386925.2999999523,1538,cherry,NF,C,384832,384832,383106,384115,383107,385333,384632,384632,385333,36
37,test,1,con,1,z,Wed Mar 25 2026 14:34:33 GMT-0500 (Central Daylight Time),391534.5,kiwi,1000,I,z,z,None,846,646.0,200.0,51,1,2375.100000143051,389159.39999985695,1538,kiwi,NF,C,387064,387064,385340,386348,385341,387716,386864,386864,387716,37
38,test,1,inc,1,z,Wed Mar 25 2026 14:34:33 GMT-0500 (Central Daylight Time),393614.89999985695,gold,800,I,z,z,None,749,535.0,214.0,37,1,2073.5999999046326,391541.2999999523,1538,lime,NF,C,389247,389247,387722,388530,387723,389796,389032,389032,389796,38
39,test,1,con,1,z,Wed Mar 25 2026 14:34:33 GMT-0500 (Central Daylight Time),395749.2999999523,banana,900,I,z,z,None,695,496.0,199.0,2,1,2126.7999999523163,393622.5,1538,banana,NF,C,391430,391430,389804,390714,389804,391930,391229,391230,391930,39
40,test,1,inc,1,m,Wed Mar 25 2026 14:34:33 GMT-0500 (Central Daylight Time),398048.0,raisin,1100,I,m,m,None,652,453.0,199.0,96,1,2291.7999999523163,395756.2000000477,1538,cobalt,NF,C,393762,393762,391937,393047,391938,394229,393562,393562,394229,40
41,test,1,con,1,m,Wed Mar 25 2026 14:34:33 GMT-0500 (Central Daylight Time),400047.2999999523,gold,900,I,m,m,None,552,352.0,200.0,98,1,1993.9000000953674,398053.39999985695,1538,gold,NF,C,395862,395862,394234,395145,394235,396228,395662,395662,396228,41
42,test,1,con,1,m,Wed Mar 25 2026 14:34:33 GMT-0500 (Central Daylight Time),401980.2999999523,gold,800,I,m,m,None,588,389.0,199.0,97,1,1928.4000000953674,400051.89999985695,1538,gold,NF,C,397761,397761,396233,397044,396233,398161,397561,397561,398161,42
43,test,1,con,1,z,Wed Mar 25 2026 14:34:33 GMT-0500 (Central Daylight Time),404079.0,lime,900,I,z,z,None,660,460.0,200.0,34,1,2092.600000143051,401986.39999985695,1538,lime,NF,C,399794,399794,398167,399077,398168,400260,399593,399593,400260,43
44,test,1,con,1,m,Wed Mar 25 2026 14:34:33 GMT-0500 (Central Daylight Time),406228.09999990463,zinc,900,I,m,m,None,714,497.0,217.0,114,1,2144.2999999523163,404083.7999999523,1538,zinc,NF,C,401911,401911,400265,401177,400265,402409,401694,401694,402409,44
45,test,1,con,1,m,Wed Mar 25 2026 14:34:33 GMT-0500 (Central Daylight Time),408495.09999990463,iron,1000,I,m,m,None,735,520.0,215.0,107,1,2261.2000000476837,406233.89999985695,1538,iron,NF,C,404142,404142,402415,403426,402415,404676,403927,403927,404676,45
46,test,1,inc,1,m,Wed Mar 25 2026 14:34:33 GMT-0500 (Central Daylight Time),410658.2999999523,cherry,900,I,m,m,None,718,503.0,215.0,70,1,2160.2999999523163,408498.0,1538,bronze,NF,C,406326,406326,404679,405592,404679,406839,406110,406110,406839,46
47,test,1,con,1,m,Wed Mar 25 2026 14:34:33 GMT-0500 (Central Daylight Time),413042.89999985695,zinc,1100,I,m,m,None,740,541.0,199.0,116,1,2381.699999809265,410661.2000000477,1538,zinc,NF,C,408675,408675,406842,407959,406842,409224,408475,408475,409224,47
48,test,1,inc,1,m,Wed Mar 25 2026 14:34:33 GMT-0500 (Central Daylight Time),415176.2000000477,cherry,900,I,m,m,None,685,485.0,200.0,78,1,2130.2000000476837,413046.0,1538,copper,NF,C,410857,410857,409227,410141,409227,411357,410657,410657,411357,48
49,test,1,inc,1,m,Wed Mar 25 2026 14:34:33 GMT-0500 (Central Daylight Time),417441.89999985695,kiwi,1000,I,m,m,None,734,533.0,201.0,111,1,2261.399999856949,415180.5,1538,iron,NF,C,413090,413090,411362,412374,411362,413623,412888,412888,413623,49
50,test,1,con,1,m,Wed Mar 25 2026 14:34:33 GMT-0500 (Central Daylight Time),419474.7000000477,cobalt,900,I,m,m,None,590,389.0,201.0,90,1,2029.2000000476837,417445.5,1538,cobalt,NF,C,415256,415256,413627,414540,413627,415656,415055,415055,415656,50
51,test,1,con,1,m,Wed Mar 25 2026 14:34:33 GMT-0500 (Central Daylight Time),421357.2999999523,zinc,800,I,m,m,None,543,328.0,215.0,113,1,1879.7000000476837,419477.59999990463,1538,zinc,NF,C,417206,417206,415659,416472,415659,417538,416990,416990,417538,51
52,test,1,inc,1,z,Wed Mar 25 2026 14:34:33 GMT-0500 (Central Daylight Time),423638.7000000477,copper,900,I,z,z,None,841,642.0,199.0,22,1,2274.600000143051,421364.09999990463,1538,orange,NF,C,419172,419172,417545,418456,417545,419820,418972,418972,419820,52
53,test,1,inc,1,z,Wed Mar 25 2026 14:34:33 GMT-0500 (Central Daylight Time),425755.7999999523,zinc,1000,I,z,z,None,571,358.0,213.0,55,1,2112.7000000476837,423643.09999990463,1538,kiwi,NF,C,421570,421570,419824,420838,419825,421937,421357,421357,421937,53
54,test,1,con,1,m,Wed Mar 25 2026 14:34:33 GMT-0500 (Central Daylight Time),428105.59999990463,silver,1100,I,m,m,None,709,510.0,199.0,84,1,2345.7999999523163,425759.7999999523,1538,silver,NF,C,423770,423770,421941,423055,421941,424287,423570,423570,424287,54
55,test,1,inc,1,z,Wed Mar 25 2026 14:34:33 GMT-0500 (Central Daylight Time),430220.2999999523,iron,900,I,z,z,None,672,471.0,201.0,54,1,2110.0,428110.2999999523,1538,kiwi,NF,C,425919,425920,424291,425202,424291,426401,425718,425718,426401,55
56,test,1,con,1,m,Wed Mar 25 2026 14:34:33 GMT-0500 (Central Daylight Time),432420.7000000477,gold,1000,I,m,m,None,680,465.0,215.0,99,1,2196.300000190735,430224.39999985695,1538,gold,NF,C,428135,428135,426405,427418,426406,428602,427920,427920,428602,56
57,test,1,con,1,m,Wed Mar 25 2026 14:34:33 GMT-0500 (Central Daylight Time),434486.2999999523,copper,800,I,m,m,None,745,546.0,199.0,73,1,2060.7000000476837,432425.59999990463,1538,copper,NF,C,430118,430118,428607,429417,428607,430667,429918,429918,430667,57
58,test,1,inc,1,z,Wed Mar 25 2026 14:34:33 GMT-0500 (Central Daylight Time),436536.2000000477,copper,900,I,z,z,None,615,416.0,199.0,6,1,2045.0,434491.2000000477,1538,banana,NF,C,432301,432301,430672,431584,430673,432717,432101,432101,432717,58
59,test,1,inc,1,z,Wed Mar 25 2026 14:34:33 GMT-0500 (Central Daylight Time),438584.0,bronze,800,I,z,z,None,708,508.0,200.0,29,1,2044.7000000476837,436539.2999999523,1538,raisin,NF,C,434250,434250,432720,433533,432721,434765,434050,434050,434765,59
60,test,1,inc,1,z,Wed Mar 25 2026 14:34:33 GMT-0500 (Central Daylight Time),440767.59999990463,iron,900,I,z,z,None,742,542.0,200.0,38,1,2179.5,438588.09999990463,1538,lime,NF,C,436401,436401,434769,435683,434769,436949,436200,436200,436949,60
61,test,1,con,1,z,Wed Mar 25 2026 14:34:33 GMT-0500 (Central Daylight Time),443100.09999990463,pear,1100,I,z,z,None,699,500.0,199.0,44,1,2328.0,440772.09999990463,1538,pear,NF,C,438781,438781,436953,438066,436953,439281,438581,438582,439281,61
62,test,1,inc,1,m,Wed Mar 25 2026 14:34:33 GMT-0500 (Central Daylight Time),445215.59999990463,cherry,900,I,m,m,None,676,475.0,201.0,94,1,2111.2999999523163,443104.2999999523,1538,cobalt,NF,C,440915,440915,439285,440198,439286,441397,440714,440714,441397,62
63,test,1,inc,1,z,Wed Mar 25 2026 14:34:33 GMT-0500 (Central Daylight Time),447680.2000000477,zinc,1000,I,z,z,None,921,722.0,199.0,63,1,2459.7000000476837,445220.5,1538,plum,NF,C,443131,443131,441402,442414,441402,443861,442931,442931,443861,63
64,test,1,con,1,m,Wed Mar 25 2026 14:34:33 GMT-0500 (Central Daylight Time),449881.2999999523,cobalt,1000,I,m,m,None,648,448.0,200.0,91,1,2195.2000000476837,447686.09999990463,1538,cobalt,NF,C,445597,445597,443867,444881,443867,446062,445396,445396,446062,64
65,test,1,con,1,z,Wed Mar 25 2026 14:34:33 GMT-0500 (Central Daylight Time),452079.7000000477,orange,800,I,z,z,None,857,658.0,199.0,17,1,2193.5,449886.2000000477,1538,orange,NF,C,447596,447596,446067,446879,446067,448261,447396,447396,448261,65
66,test,1,inc,1,z,Wed Mar 25 2026 14:34:33 GMT-0500 (Central Daylight Time),454913.7999999523,cobalt,1100,I,z,z,None,1182,982.0,200.0,16,1,2829.9000000953674,452083.89999985695,1538,cherry,NF,C,450096,450096,448265,449378,448265,451095,449895,449895,451095,66
67,test,1,inc,1,m,Wed Mar 25 2026 14:34:33 GMT-0500 (Central Daylight Time),457279.89999985695,raisin,1100,I,m,m,None,727,527.0,200.0,72,1,2360.199999809265,454919.7000000477,1538,bronze,NF,C,452929,452929,451101,452211,451101,453461,452728,452728,453461,67
68,test,1,inc,1,z,Wed Mar 25 2026 14:34:33 GMT-0500 (Central Daylight Time),459311.59999990463,bronze,800,I,z,z,None,692,491.0,201.0,5,1,2027.0,457284.59999990463,1538,banana,NF,C,454994,454994,453466,454277,453466,455493,454793,454793,455493,68
69,test,1,inc,1,m,Wed Mar 25 2026 14:34:33 GMT-0500 (Central Daylight Time),461577.59999990463,plum,1100,I,m,m,None,625,411.0,214.0,104,1,2263.0999999046326,459314.5,1538,gold,NF,C,457340,457340,455496,456610,455496,457759,457126,457126,457759,69
70,test,1,inc,1,z,Wed Mar 25 2026 14:34:33 GMT-0500 (Central Daylight Time),463727.2999999523,zinc,1000,I,z,z,None,611,410.0,201.0,39,1,2145.5999999046326,461581.7000000477,1538,lime,NF,C,459492,459492,457763,458775,457763,459908,459291,459291,459908,70
71,test,1,inc,1,z,Wed Mar 25 2026 14:34:33 GMT-0500 (Central Daylight Time),466093.2000000477,bronze,800,I,z,z,None,1022,822.0,200.0,13,1,2361.300000190735,463731.89999985695,1538,cherry,NF,C,461441,461441,459913,460725,459913,462274,461241,461241,462274,71
72,test,1,inc,1,z,Wed Mar 25 2026 14:34:33 GMT-0500 (Central Daylight Time),468158.7000000477,copper,900,I,z,z,None,625,410.0,215.0,14,1,2061.5,466097.2000000477,1538,cherry,NF,C,463925,463925,462278,463192,462279,464340,463709,463709,464340,72
73,test,1,inc,1,m,Wed Mar 25 2026 14:34:33 GMT-0500 (Central Daylight Time),470374.7000000477,pear,900,I,m,m,None,769,570.0,199.0,110,1,2211.100000143051,468163.59999990463,1538,iron,NF,C,465972,465972,464345,465257,464345,466556,465773,465773,466556,73
74,test,1,con,1,z,Wed Mar 25 2026 14:34:33 GMT-0500 (Central Daylight Time),472657.59999990463,banana,800,I,z,z,None,949,750.0,199.0,1,1,2277.7999999523163,470379.7999999523,1538,banana,NF,C,468072,468072,466561,467371,466561,468839,467873,467873,468839,74
75,test,1,con,1,z,Wed Mar 25 2026 14:34:33 GMT-0500 (Central Daylight Time),474655.89999985695,cherry,900,I,z,z,None,557,358.0,199.0,10,1,1991.5999999046326,472664.2999999523,1538,cherry,NF,C,470472,470472,468845,469756,468846,470837,470272,470272,470837,75
76,test,1,inc,1,m,Wed Mar 25 2026 14:34:33 GMT-0500 (Central Daylight Time),476907.39999985695,plum,1100,I,m,m,None,606,407.0,199.0,128,1,2246.399999856949,474661.0,1538,lead,NF,C,472670,472671,470842,471955,470842,473089,472470,472471,473088,76
77,test,1,con,1,z,Wed Mar 25 2026 14:34:33 GMT-0500 (Central Daylight Time),479123.39999985695,pear,1000,I,z,z,None,683,484.0,199.0,43,1,2212.0999999046326,476911.2999999523,1538,pear,NF,C,474820,474820,473092,474103,473093,475304,474621,474621,475304,77
77,test,1,con,0,m,Wed Mar 25 2026 14:34:33 GMT-0500 (Central Daylight Time),481571.2999999523,zinc,1000,I,z,z,None,916,716.0,200.0,115,1,2442.2999999523163,479129.0,1538,zinc,NF,C,477036,477036,475310,476320,475310,477752,476835,476835,477752,78
78,test,1,inc,1,m,Wed Mar 25 2026 14:34:33 GMT-0500 (Central Daylight Time),484287.09999990463,raisin,1100,I,m,m,None,1068,868.0,200.0,80,1,2710.5999999046326,481576.5,1538,copper,NF,C,479586,479586,477758,478869,477758,480468,479385,479385,480468,79
79,test,1,inc,1,m,Wed Mar 25 2026 14:34:33 GMT-0500 (Central Daylight Time),486386.7000000477,banana,800,I,m,m,None,765,565.0,200.0,85,1,2093.100000143051,484293.59999990463,1538,silver,NF,C,482002,482002,480475,481284,480475,482568,481801,481801,482568,80
80,test,1,con,1,z,Wed Mar 25 2026 14:34:33 GMT-0500 (Central Daylight Time),488702.2999999523,pear,900,I,z,z,None,871,670.0,201.0,42,1,2309.7999999523163,486392.5,1538,pear,NF,C,484201,484201,482574,483485,482574,484883,484000,484000,484883,81
81,test,1,inc,1,m,Wed Mar 25 2026 14:34:33 GMT-0500 (Central Daylight Time),491200.39999985695,lime,800,I,m,m,None,1156,956.0,200.0,109,1,2493.399999856949,488707.0,1538,iron,NF,C,486418,486418,484888,485700,484888,487381,486217,486217,487381,82
82,test,1,con,1,m,Wed Mar 25 2026 14:34:33 GMT-0500 (Central Daylight Time),493483.7999999523,bronze,1100,I,m,m,None,646,447.0,199.0,68,1,2277.0,491206.7999999523,1538,bronze,NF,C,489216,489216,487388,488500,487388,489665,489017,489017,489665,83
83,test,1,inc,1,m,Wed Mar 25 2026 14:34:33 GMT-0500 (Central Daylight Time),495616.09999990463,pear,900,I,m,m,None,688,472.0,216.0,126,1,2125.7000000476837,493490.39999985695,1538,lead,NF,C,491318,491318,489671,490583,489672,491797,491101,491101,491797,84
84,test,1,inc,1,z,Wed Mar 25 2026 14:34:33 GMT-0500 (Central Daylight Time),497967.2999999523,lead,1100,I,z,z,None,720,521.0,199.0,40,1,2346.7000000476837,495620.59999990463,1538,lime,NF,C,493614,493614,491802,492914,491802,494148,493415,493415,494148,85
85,test,1,con,1,z,Wed Mar 25 2026 14:34:33 GMT-0500 (Central Daylight Time),500032.7999999523,kiwi,1100,I,z,z,None,427,224.0,203.0,52,1,2060.5999999046326,497972.2000000477,1538,kiwi,NF,C,495983,495983,494153,495263,494153,496214,495780,495780,496214,86
86,test,1,inc,1,m,Wed Mar 25 2026 14:34:33 GMT-0500 (Central Daylight Time),502131.39999985695,cherry,900,I,m,m,None,655,456.0,199.0,86,1,2093.399999856949,500038.0,1538,silver,NF,C,497846,497846,496219,497129,496219,498313,497646,497646,498312,87
87,test,1,con,1,m,Wed Mar 25 2026 14:34:33 GMT-0500 (Central Daylight Time),504064.2999999523,cobalt,800,I,m,m,None,581,367.0,214.0,89,1,1927.4000000953674,502136.89999985695,1538,cobalt,NF,C,499863,499863,498318,499129,498318,500245,499648,499648,500245,88
88,test,1,inc,1,z,Wed Mar 25 2026 14:34:33 GMT-0500 (Central Daylight Time),506196.39999985695,cobalt,1100,I,z,z,None,487,271.0,216.0,8,1,2126.199999809265,504070.2000000477,1538,banana,NF,C,502094,502094,500251,501361,500252,502378,501878,501878,502377,89
89,test,1,inc,1,z,Wed Mar 25 2026 14:34:33 GMT-0500 (Central Daylight Time),508697.2000000477,lead,1100,I,z,z,None,875,676.0,199.0,56,1,2496.5,506200.7000000477,1538,kiwi,NF,C,504195,504195,502382,503492,502382,504878,503995,503995,504878,90
90,test,1,con,1,z,Wed Mar 25 2026 14:34:33 GMT-0500 (Central Daylight Time),511078.7999999523,orange,1000,I,z,z,None,858,644.0,214.0,19,1,2377.7000000476837,508701.09999990463,1538,orange,NF,C,506610,506610,504882,505894,504882,507260,506395,506395,507260,91
91,test,1,con,1,z,Wed Mar 25 2026 14:34:33 GMT-0500 (Central Daylight Time),513063.5,raisin,900,I,z,z,None,544,343.0,201.0,26,1,1980.1000001430511,511083.39999985695,1538,raisin,NF,C,508895,508895,507264,508176,507265,509245,508693,508693,509244,92
92,test,1,inc,1,m,Wed Mar 25 2026 14:34:33 GMT-0500 (Central Daylight Time),515110.0,pear,900,I,m,m,None,601,400.0,201.0,102,1,2042.2999999523163,513067.7000000477,1538,gold,NF,C,510878,510878,509249,510161,509249,511291,510676,510676,511291,93
93,test,1,inc,1,m,Wed Mar 25 2026 14:34:33 GMT-0500 (Central Daylight Time),517327.39999985695,raisin,1100,I,m,m,None,570,368.0,202.0,88,1,2211.2999999523163,515116.09999990463,1538,silver,NF,C,513125,513125,511297,512408,511298,513508,512923,512923,513508,94
94,test,1,con,1,m,Wed Mar 25 2026 14:34:33 GMT-0500 (Central Daylight Time),519425.09999990463,bronze,800,I,m,m,None,778,565.0,213.0,65,1,2091.399999856949,517333.7000000477,1538,bronze,NF,C,515041,515041,513515,514325,513515,515606,514827,514827,515606,95
94,test,1,inc,0,m,Wed Mar 25 2026 14:34:33 GMT-0500 (Central Daylight Time),521307.2999999523,pear,900,I,z,z,None,453,252.0,201.0,118,1,1879.2000000476837,519428.09999990463,1538,zinc,NF,C,517225,517225,515609,516522,515609,517488,517023,517023,517488,96
95,test,1,inc,1,z,Wed Mar 25 2026 14:34:33 GMT-0500 (Central Daylight Time),523724.7000000477,cobalt,1100,I,z,z,None,785,571.0,214.0,24,1,2414.0,521310.7000000477,1538,orange,NF,C,519323,519323,517492,518605,517492,519906,519108,519108,519906,97
96,test,1,con,1,m,Wed Mar 25 2026 14:34:33 GMT-0500 (Central Daylight Time),526107.2000000477,lead,1100,I,m,m,None,748,549.0,199.0,124,1,2378.100000143051,523729.09999990463,1538,lead,NF,C,521738,521738,519910,521022,519910,522288,521539,521539,522288,98
97,test,1,inc,1,z,Wed Mar 25 2026 14:34:33 GMT-0500 (Central Daylight Time),528122.899999857,gold,800,I,z,z,None,682,467.0,215.0,45,1,2009.1999998092651,526113.7000000477,1538,pear,NF,C,523836,523836,522295,523105,522295,524304,523621,523621,524304,99
98,test,1,inc,1,m,Wed Mar 25 2026 14:34:33 GMT-0500 (Central Daylight Time),530323.2000000477,orange,1000,I,m,m,None,666,467.0,199.0,95,1,2194.300000190735,528128.899999857,1538,cobalt,NF,C,526037,526037,524310,525321,524310,526504,525838,525838,526504,100
99,test,1,inc,1,m,Wed Mar 25 2026 14:34:33 GMT-0500 (Central Daylight Time),532589.2000000477,kiwi,1000,I,m,m,None,733,534.0,199.0,103,1,2261.300000190735,530327.899999857,1538,gold,NF,C,528236,528236,526509,527520,526509,528770,528037,528037,528770,101
100,test,1,con,1,z,Wed Mar 25 2026 14:34:33 GMT-0500 (Central Daylight Time),534453.0,plum,800,I,z,z,None,534,333.0,201.0,57,1,1859.0,532594.0,1538,plum,NF,C,530288,530288,528775,529586,528775,530634,530087,530087,530634,102
100,test,1,con,0,z,Wed Mar 25 2026 14:34:33 GMT-0500 (Central Daylight Time),536601.7000000477,cherry,800,I,m,m,None,812,611.0,201.0,9,1,2146.0,534455.7000000477,1538,cherry,NF,C,532170,532170,530637,531452,530637,532783,531968,531968,532783,103
101,test,1,inc,1,z,Wed Mar 25 2026 14:34:33 GMT-0500 (Central Daylight Time),539219.2000000477,lead,1100,I,z,z,None,972,773.0,199.0,64,1,2614.9000000953674,536604.2999999523,1538,plum,NF,C,534617,534617,532785,533901,532786,535400,534418,534418,535400,104
102,test,1,con,1,m,Wed Mar 25 2026 14:34:33 GMT-0500 (Central Daylight Time),541585.0,cobalt,1100,I,m,m,None,739,540.0,199.0,92,1,2359.2999999523163,539225.7000000477,1538,cobalt,NF,C,537217,537217,535407,536517,535407,537766,537018,537018,537766,105
103,test,1,con,1,m,Wed Mar 25 2026 14:34:33 GMT-0500 (Central Daylight Time),543850.2000000477,lead,1000,I,m,m,None,720,521.0,199.0,123,1,2262.300000190735,541587.899999857,1538,lead,NF,C,539500,539500,537769,538783,537769,540031,539300,539300,540031,106
104,test,1,con,1,z,Wed Mar 25 2026 14:34:33 GMT-0500 (Central Daylight Time),546099.7000000477,orange,900,I,z,z,None,799,600.0,199.0,18,1,2245.800000190735,543853.899999857,1538,orange,NF,C,541665,541665,540035,540949,540035,542281,541466,541466,542281,107
105,test,1,con,1,m,Wed Mar 25 2026 14:34:33 GMT-0500 (Central Daylight Time),548201.0,lead,900,I,m,m,None,649,433.0,216.0,122,1,2094.5,546106.5,1538,lead,NF,C,543933,543933,542288,543198,542288,544382,543717,543717,544382,108
106,test,1,con,1,z,Wed Mar 25 2026 14:34:33 GMT-0500 (Central Daylight Time),550450.0,cherry,1100,I,z,z,None,617,417.0,200.0,12,1,2243.7000000476837,548206.2999999523,1538,cherry,NF,C,546198,546198,544387,545496,544388,546631,545998,545998,546631,109
107,test,1,con,1,z,Wed Mar 25 2026 14:34:33 GMT-0500 (Central Daylight Time),552581.0,kiwi,800,I,z,z,None,794,595.0,199.0,49,1,2125.7000000476837,550455.2999999523,1538,kiwi,NF,C,548163,548163,546636,547447,546637,548762,547964,547964,548762,110
108,test,1,con,1,m,Wed Mar 25 2026 14:34:33 GMT-0500 (Central Daylight Time),554914.899999857,gold,1100,I,m,m,None,701,499.0,202.0,100,1,2328.7999999523163,552586.0999999046,1538,gold,NF,C,550597,550597,548767,549880,548767,551096,550395,550395,551096,111
109,test,1,con,1,m,Wed Mar 25 2026 14:34:33 GMT-0500 (Central Daylight Time),557296.2000000477,bronze,1000,I,m,m,None,842,641.0,201.0,67,1,2375.5,554920.7000000477,1538,bronze,NF,C,552828,552828,551102,552114,551102,553477,552627,552627,553477,112
110,test,1,inc,1,z,Wed Mar 25 2026 14:34:33 GMT-0500 (Central Daylight Time),559262.2000000477,gold,800,I,z,z,None,618,418.0,200.0,61,1,1963.5,557298.7000000477,1538,plum,NF,C,555012,555012,553480,554295,553480,555443,554812,554812,555443,113
111,test,1,inc,1,z,Wed Mar 25 2026 14:34:33 GMT-0500 (Central Daylight Time),561578.2999999523,cobalt,1100,I,z,z,None,672,457.0,215.0,32,1,2312.7000000476837,559265.5999999046,1538,raisin,NF,C,557294,557294,555447,556561,555447,557759,557079,557079,557759,114
112,test,1,inc,1,m,Wed Mar 25 2026 14:34:33 GMT-0500 (Central Daylight Time),563778.899999857,kiwi,1000,I,m,m,None,663,464.0,199.0,127,1,2197.199999809265,561581.7000000477,1538,lead,NF,C,559494,559495,557763,558779,557763,559960,559295,559295,559960,115
113,test,1,con,1,z,Wed Mar 25 2026 14:34:33 GMT-0500 (Central Daylight Time),565944.2000000477,raisin,1000,I,z,z,None,627,425.0,202.0,27,1,2161.100000143051,563783.0999999046,1538,raisin,NF,C,561694,561694,559964,560978,559964,562125,561492,561492,562125,116
114,test,1,inc,1,m,Wed Mar 25 2026 14:34:33 GMT-0500 (Central Daylight Time),567993.0999999046,lime,800,I,m,m,None,709,509.0,200.0,125,1,2045.5,565947.5999999046,1538,lead,NF,C,563659,563659,562129,562943,562129,564174,563458,563458,564174,117
115,test,1,con,1,z,Wed Mar 25 2026 14:34:33 GMT-0500 (Central Daylight Time),570110.5999999046,lime,800,I,z,z,None,779,580.0,199.0,33,1,2113.7999999523163,567996.7999999523,1538,lime,NF,C,565707,565707,564178,564992,564178,566292,565508,565508,566292,118
116,test,1,inc,1,m,Wed Mar 25 2026 14:34:33 GMT-0500 (Central Daylight Time),572092.0,banana,800,I,m,m,None,662,463.0,199.0,69,1,1977.6000001430511,570114.399999857,1538,bronze,NF,C,567807,567807,566295,567107,566296,568273,567608,567608,568273,119
117,test,1,inc,1,m,Wed Mar 25 2026 14:34:33 GMT-0500 (Central Daylight Time),574208.2000000477,banana,800,I,m,m,None,775,575.0,200.0,77,1,2112.4000000953674,572095.7999999523,1538,copper,NF,C,569807,569807,568277,569089,568277,570389,569607,569607,570389,120
118,test,1,con,1,z,Wed Mar 25 2026 14:34:33 GMT-0500 (Central Daylight Time),576573.2000000477,plum,1000,I,z,z,None,842,642.0,200.0,59,1,2359.600000143051,574213.5999999046,1538,plum,NF,C,572106,572107,570395,571405,570395,572754,571906,571906,572754,121
119,test,1,con,1,m,Wed Mar 25 2026 14:34:33 GMT-0500 (Central Daylight Time),578624.2000000477,silver,900,I,m,m,None,611,410.0,201.0,82,1,2047.8000001907349,576576.399999857,1538,silver,NF,C,574389,574389,572757,573673,572758,574805,574188,574188,574805,122
120,test,1,inc,1,z,Wed Mar 25 2026 14:34:33 GMT-0500 (Central Daylight Time),580756.2999999523,iron,900,I,z,z,None,704,489.0,215.0,62,1,2128.5999999046326,578627.7000000477,1538,plum,NF,C,576438,576438,574809,575720,574809,576937,576223,576223,576937,123
121,test,1,con,1,m,Wed Mar 25 2026 14:34:33 GMT-0500 (Central Daylight Time),582955.399999857,iron,900,I,m,m,None,771,571.0,200.0,106,1,2194.2999999523163,580761.0999999046,1538,iron,NF,C,578555,578555,576942,577853,576942,579136,578354,578354,579136,124
122,test,1,con,1,z,Wed Mar 25 2026 14:34:33 GMT-0500 (Central Daylight Time),585105.7999999523,plum,900,I,z,z,None,708,507.0,201.0,58,1,2144.9000000953674,582960.899999857,1538,plum,NF,C,580771,580771,579142,580055,579142,581287,580570,580570,581287,125
123,test,1,inc,1,m,Wed Mar 25 2026 14:34:33 GMT-0500 (Central Daylight Time),587436.5999999046,plum,1100,I,m,m,None,702,487.0,215.0,112,1,2327.5999999046326,585109.0,1538,iron,NF,C,583118,583118,581290,582402,581290,583618,582903,582903,583618,126
124,test,1,inc,1,m,Wed Mar 25 2026 14:34:33 GMT-0500 (Central Daylight Time),589538.0999999046,banana,800,I,m,m,None,749,545.0,204.0,93,1,2096.7000000476837,587441.399999857,1538,cobalt,NF,C,585157,585157,583622,584436,583623,585719,584951,584951,585719,127
125,test,1,con,1,z,Wed Mar 25 2026 14:34:33 GMT-0500 (Central Daylight Time),591719.2000000477,lime,1000,I,z,z,None,659,444.0,215.0,35,1,2176.2000000476837,589543.0,1538,lime,NF,C,587451,587451,585724,586734,585724,587900,587235,587235,587900,128
