Q,Q1,Q2,Q3,Q4,acc_sum,block,block_c,correct,correct_response,datetime,endtime,project,response,response_time,row_sel,session_number,squiggle1,squiggle1x,squiggle1y,squiggle2,squiggle2x,squiggle2y,squiggle3,squiggle3x,squiggle3y,squiggle4,squiggle4x,squiggle4y,start_end,starttime,subject_id,target_congruent,task,task_vers,testsquiggle,testsquigglex,testsquiggley,time_practice_delay,time_practice_fixation,time_practice_stimuli,time_practice_study,time_test_delay,time_test_fixation,time_test_stimuli,time_test_study,trial
1,1,0,0,0,1,prac,1,1,z,Thu Aug 21 2025 14:37:16 GMT-0400 (Eastern Daylight Time),126605.59999990463,I,z,1150,1,2,16.bmp,-120,-120,17.bmp,120,-120,18.bmp,-120,120,19.bmp,120,120,9976.800000190735,116628.7999997139,9017,yes,SM,B,16.bmp,-120,-120,120711,114685,122728,116695,,,,,1
3,0,0,1,0,2,prac,1,1,m,Thu Aug 21 2025 14:37:16 GMT-0400 (Eastern Daylight Time),136472.0,I,m,1039,2,2,20.bmp,-120,-120,21.bmp,120,-120,22.bmp,-120,120,23.bmp,120,120,9854.0,126618.0,9017,no,SM,B,23.bmp,-120,120,130695,124675,132712,126678,,,,,2
4,0,0,0,1,3,prac,1,1,m,Thu Aug 21 2025 14:37:16 GMT-0400 (Eastern Daylight Time),146372.09999990463,I,m,1075,3,2,24.bmp,-120,-120,25.bmp,120,-120,26.bmp,-120,120,27.bmp,120,120,9892.200000286102,136479.89999961853,9017,no,SM,B,24.bmp,120,120,140561,134536,142579,136545,,,,,3
2,0,1,0,0,3,prac,1,0,z,Thu Aug 21 2025 14:37:16 GMT-0400 (Eastern Daylight Time),157204.7999997139,I,None,2015,4,2,28.bmp,-120,-120,29.bmp,120,-120,30.bmp,-120,120,31.bmp,120,120,10821.699999809265,146383.09999990463,9017,yes,SM,B,29.bmp,120,-120,150461,144440,152479,146445,,,,,4
3,0,0,1,0,4,prac,1,1,z,Thu Aug 21 2025 14:37:16 GMT-0400 (Eastern Daylight Time),167338.59999990463,I,z,1302,5,2,32.bmp,-120,-120,33.bmp,120,-120,34.bmp,-120,120,35.bmp,120,120,10129.800000190735,157208.7999997139,9017,yes,SM,B,34.bmp,-120,120,161295,155265,163312,157278,,,,,5
1,1,0,0,0,5,prac,1,1,m,Thu Aug 21 2025 14:37:16 GMT-0400 (Eastern Daylight Time),177255.39999961853,I,m,1090,6,2,36.bmp,-120,-120,37.bmp,120,-120,38.bmp,-120,120,39.bmp,120,120,9908.5,167346.89999961853,9017,no,SM,B,39.bmp,-120,-120,171428,165403,173445,167412,,,,,6
2,0,1,0,0,6,prac,1,1,m,Thu Aug 21 2025 14:37:16 GMT-0400 (Eastern Daylight Time),187355.39999961853,I,m,1269,7,2,40.bmp,-120,-120,41.bmp,120,-120,42.bmp,-120,120,43.bmp,120,120,10089.599999904633,177265.7999997139,9017,no,SM,B,40.bmp,120,-120,181345,175322,183362,177328,,,,,7
4,0,0,0,1,6,prac,1,0,z,Thu Aug 21 2025 14:37:16 GMT-0400 (Eastern Daylight Time),197138.5,I,m,961,8,2,44.bmp,-120,-120,45.bmp,120,-120,46.bmp,-120,120,47.bmp,120,120,9772.0,187366.5,9017,yes,SM,B,47.bmp,120,120,191445,185423,193462,187429,,,,,8
4,0,0,0,1,1,test,1,1,m,Thu Aug 21 2025 14:37:16 GMT-0400 (Eastern Daylight Time),228372.0,I,m,1028,1,2,48.bmp,-120,-120,49.bmp,120,-120,50.bmp,-120,120,43.bmp,120,120,9077.10000038147,219294.89999961853,9017,yes,SM,B,50.bmp,120,120,191445,185423,193462,187429,223378.0,217351.0,225395.0,219362.0,1
2,0,1,0,0,1,test,1,0,m,Thu Aug 21 2025 14:37:16 GMT-0400 (Eastern Daylight Time),237788.5,I,z,1352,2,2,1.bmp,-120,-120,2.bmp,120,-120,3.bmp,-120,120,4.bmp,120,120,9408.400000095367,228380.09999990463,9017,yes,SM,B,3.bmp,120,-120,191445,185423,193462,187429,232461.0,226436.0,234479.0,228445.0,2
1,1,0,0,0,2,test,1,1,z,Thu Aug 21 2025 14:37:16 GMT-0400 (Eastern Daylight Time),247038.59999990463,I,z,1184,3,2,5.bmp,-120,-120,6.bmp,120,-120,7.bmp,-120,120,8.bmp,120,120,9241.900000095367,237796.69999980927,9017,yes,SM,B,5.bmp,-120,-120,191445,185423,193462,187429,241878.0,235853.0,243895.0,237862.0,3
3,0,0,1,0,3,test,1,1,m,Thu Aug 21 2025 14:37:16 GMT-0400 (Eastern Daylight Time),256404.89999961853,I,m,1310,4,2,9.bmp,-120,-120,10.bmp,120,-120,11.bmp,-120,120,12.bmp,120,120,9357.0,247047.89999961853,9017,yes,SM,B,9.bmp,-120,120,191445,185423,193462,187429,251128.0,245104.0,253145.0,247112.0,4
2,0,1,0,0,4,test,1,1,z,Thu Aug 21 2025 14:37:16 GMT-0400 (Eastern Daylight Time),265821.89999961853,I,z,1350,5,2,13.bmp,-120,-120,14.bmp,120,-120,15.bmp,-120,120,16.bmp,120,120,9409.199999809265,256412.69999980927,9017,yes,SM,B,14.bmp,120,-120,191445,185423,193462,187429,260495.0,254469.0,262512.0,256479.0,5
3,0,0,1,0,4,test,1,0,z,Thu Aug 21 2025 14:37:16 GMT-0400 (Eastern Daylight Time),274888.59999990463,I,m,1006,6,2,17.bmp,-120,-120,18.bmp,120,-120,19.bmp,-120,120,20.bmp,120,120,9057.599999904633,265831.0,9017,yes,SM,B,19.bmp,-120,120,191445,185423,193462,187429,269911.0,263887.0,271929.0,265895.0,6
4,0,0,0,1,5,test,1,1,z,Thu Aug 21 2025 14:37:16 GMT-0400 (Eastern Daylight Time),284022.0,I,z,1076,7,2,21.bmp,-120,-120,22.bmp,120,-120,23.bmp,-120,120,24.bmp,120,120,9126.400000095367,274895.59999990463,9017,yes,SM,B,24.bmp,120,120,191445,185423,193462,187429,278978.0,272952.0,280995.0,274962.0,7
2,0,1,0,0,6,test,1,1,m,Thu Aug 21 2025 14:37:16 GMT-0400 (Eastern Daylight Time),293055.2999997139,I,m,966,8,2,25.bmp,-120,-120,26.bmp,120,-120,27.bmp,-120,120,28.bmp,120,120,9026.099999904633,284029.19999980927,9017,yes,SM,B,25.bmp,120,-120,191445,185423,193462,187429,288111.0,282085.0,290129.0,284095.0,8
3,0,0,1,0,7,test,1,1,m,Thu Aug 21 2025 14:37:16 GMT-0400 (Eastern Daylight Time),302155.2999997139,I,m,1037,9,2,29.bmp,-120,-120,30.bmp,120,-120,31.bmp,-120,120,32.bmp,120,120,9093.199999809265,293062.09999990463,9017,yes,SM,B,30.bmp,-120,120,191445,185423,193462,187429,297145.0,291118.0,299162.0,293129.0,9
4,0,0,0,1,8,test,1,1,z,Thu Aug 21 2025 14:37:16 GMT-0400 (Eastern Daylight Time),311755.39999961853,I,z,1537,10,2,37.bmp,-120,-120,38.bmp,120,-120,39.bmp,-120,120,40.bmp,120,120,9592.599999904633,302162.7999997139,9017,yes,SM,B,40.bmp,120,120,191445,185423,193462,187429,306245.0,300219.0,308262.0,302229.0,10
3,0,0,1,0,9,test,1,1,z,Thu Aug 21 2025 14:37:16 GMT-0400 (Eastern Daylight Time),320721.89999961853,I,z,912,11,2,33.bmp,-120,-120,34.bmp,120,-120,35.bmp,-120,120,36.bmp,120,120,8956.89999961853,311765.0,9017,yes,SM,B,35.bmp,-120,120,191445,185423,193462,187429,315845.0,309821.0,317862.0,311828.0,11
2,0,1,0,0,10,test,1,1,m,Thu Aug 21 2025 14:37:16 GMT-0400 (Eastern Daylight Time),329822.0,I,m,1034,12,2,41.bmp,-120,-120,42.bmp,120,-120,43.bmp,-120,120,44.bmp,120,120,9090.10000038147,320731.89999961853,9017,yes,SM,B,41.bmp,120,-120,191445,185423,193462,187429,324812.0,318788.0,326829.0,320795.0,12
3,0,0,1,0,11,test,1,1,m,Thu Aug 21 2025 14:37:16 GMT-0400 (Eastern Daylight Time),338872.0,I,m,990,13,2,45.bmp,-120,-120,46.bmp,120,-120,47.bmp,-120,120,48.bmp,120,120,9041.5,329830.5,9017,yes,SM,B,46.bmp,-120,120,191445,185423,193462,187429,333912.0,327887.0,335929.0,329895.0,13
1,1,0,0,0,12,test,1,1,z,Thu Aug 21 2025 14:37:16 GMT-0400 (Eastern Daylight Time),348821.89999961853,I,z,1892,14,2,49.bmp,-120,-120,50.bmp,120,-120,4.bmp,-120,120,1.bmp,120,120,9941.699999809265,338880.19999980927,9017,yes,SM,B,49.bmp,-120,-120,191445,185423,193462,187429,342962.0,336936.0,344979.0,338945.0,14
4,0,0,0,1,13,test,1,1,m,Thu Aug 21 2025 14:37:16 GMT-0400 (Eastern Daylight Time),358505.2999997139,I,m,1622,15,2,10.bmp,-120,-120,11.bmp,120,-120,12.bmp,-120,120,13.bmp,120,120,9675.900000095367,348829.39999961853,9017,yes,SM,B,11.bmp,120,120,191445,185423,193462,187429,352911.0,346886.0,354929.0,348895.0,15
1,1,0,0,0,14,test,1,1,m,Thu Aug 21 2025 14:37:16 GMT-0400 (Eastern Daylight Time),367488.39999961853,I,m,931,16,2,2.bmp,-120,-120,3.bmp,120,-120,4.bmp,-120,120,5.bmp,120,120,8974.89999961853,358513.5,9017,yes,SM,B,5.bmp,-120,-120,191445,185423,193462,187429,362595.0,356570.0,364612.0,358579.0,16
3,0,0,1,0,15,test,1,1,m,Thu Aug 21 2025 14:37:16 GMT-0400 (Eastern Daylight Time),376771.69999980927,I,m,1227,17,2,22.bmp,-120,-120,23.bmp,120,-120,24.bmp,-120,120,25.bmp,120,120,9275.5,367496.19999980927,9017,yes,SM,B,22.bmp,-120,120,191445,185423,193462,187429,371578.0,365552.0,373595.0,367562.0,17
1,1,0,0,0,16,test,1,1,z,Thu Aug 21 2025 14:37:16 GMT-0400 (Eastern Daylight Time),386021.89999961853,I,z,1192,18,2,6.bmp,-120,-120,7.bmp,120,-120,8.bmp,-120,120,9.bmp,120,120,9244.89999961853,376777.0,9017,yes,SM,B,6.bmp,-120,-120,191445,185423,193462,187429,380861.0,374833.0,382879.0,376845.0,18
2,0,1,0,0,17,test,1,1,z,Thu Aug 21 2025 14:37:16 GMT-0400 (Eastern Daylight Time),394905.39999961853,I,z,822,19,2,26.bmp,-120,-120,27.bmp,120,-120,28.bmp,-120,120,29.bmp,120,120,8874.0,386031.39999961853,9017,yes,SM,B,27.bmp,120,-120,191445,185423,193462,187429,390112.0,384088.0,392129.0,386095.0,19
3,0,0,1,0,18,test,1,1,z,Thu Aug 21 2025 14:37:16 GMT-0400 (Eastern Daylight Time),404305.09999990463,I,z,1347,20,2,30.bmp,-120,-120,31.bmp,120,-120,32.bmp,-120,120,33.bmp,120,120,9391.599999904633,394913.5,9017,yes,SM,B,32.bmp,-120,120,191445,185423,193462,187429,398995.0,392970.0,401012.0,394979.0,20
1,1,0,0,0,19,test,1,1,m,Thu Aug 21 2025 14:37:16 GMT-0400 (Eastern Daylight Time),414322.09999990463,I,m,1963,21,2,14.bmp,-120,-120,15.bmp,120,-120,16.bmp,-120,120,17.bmp,120,120,10010.400000095367,404311.69999980927,9017,yes,SM,B,16.bmp,-120,-120,191445,185423,193462,187429,408395.0,402368.0,410412.0,404379.0,21
4,0,0,0,1,19,test,1,0,z,Thu Aug 21 2025 14:37:16 GMT-0400 (Eastern Daylight Time),423522.09999990463,I,m,1146,22,2,18.bmp,-120,-120,19.bmp,120,-120,20.bmp,-120,120,21.bmp,120,120,9190.200000286102,414331.89999961853,9017,yes,SM,B,21.bmp,120,120,191445,185423,193462,187429,418412.0,412388.0,420429.0,414395.0,22
1,1,0,0,0,20,test,1,1,m,Thu Aug 21 2025 14:37:16 GMT-0400 (Eastern Daylight Time),432838.69999980927,I,m,1258,23,2,34.bmp,-120,-120,35.bmp,120,-120,36.bmp,-120,120,37.bmp,120,120,9310.199999809265,423528.5,9017,yes,SM,B,37.bmp,-120,-120,191445,185423,193462,187429,427612.0,421585.0,429629.0,423595.0,23
2,0,1,0,0,21,test,1,1,z,Thu Aug 21 2025 14:37:16 GMT-0400 (Eastern Daylight Time),442238.69999980927,I,z,1334,24,2,42.bmp,-120,-120,43.bmp,120,-120,44.bmp,-120,120,45.bmp,120,120,9392.800000190735,432845.89999961853,9017,yes,SM,B,43.bmp,120,-120,191445,185423,193462,187429,436928.0,430902.0,438945.0,432912.0,24
4,0,0,0,1,22,test,1,1,m,Thu Aug 21 2025 14:37:16 GMT-0400 (Eastern Daylight Time),451322.0,I,m,1022,25,2,46.bmp,-120,-120,47.bmp,120,-120,48.bmp,-120,120,49.bmp,120,120,9074.800000190735,442247.19999980927,9017,yes,SM,B,48.bmp,120,120,191445,185423,193462,187429,446328.0,440304.0,448345.0,442312.0,25
1,1,0,0,0,23,test,1,1,z,Thu Aug 21 2025 14:37:16 GMT-0400 (Eastern Daylight Time),460172.09999990463,I,z,786,26,2,38.bmp,-120,-120,39.bmp,120,-120,40.bmp,-120,120,41.bmp,120,120,8842.099999904633,451330.0,9017,yes,SM,B,38.bmp,-120,-120,191445,185423,193462,187429,455412.0,449386.0,457429.0,451395.0,26
4,0,0,0,1,24,test,1,1,z,Thu Aug 21 2025 14:37:16 GMT-0400 (Eastern Daylight Time),469205.39999961853,I,z,976,27,2,50.bmp,-120,-120,11.bmp,120,-120,1.bmp,-120,120,2.bmp,120,120,9026.099999904633,460179.2999997139,9017,yes,SM,B,2.bmp,120,120,191445,185423,193462,187429,464262.0,458235.0,466279.0,460245.0,27
3,0,0,1,0,24,test,1,0,m,Thu Aug 21 2025 14:37:16 GMT-0400 (Eastern Daylight Time),478871.7999997139,I,z,1607,28,2,3.bmp,-120,-120,4.bmp,120,-120,5.bmp,-120,120,6.bmp,120,120,9658.299999713898,469213.5,9017,yes,SM,B,3.bmp,-120,120,191445,185423,193462,187429,473295.0,467270.0,475312.0,469279.0,28
2,0,1,0,0,25,test,1,1,z,Thu Aug 21 2025 14:37:16 GMT-0400 (Eastern Daylight Time),487722.09999990463,I,z,788,29,2,7.bmp,-120,-120,8.bmp,120,-120,9.bmp,-120,120,10.bmp,120,120,8846.0,478876.09999990463,9017,yes,SM,B,8.bmp,120,-120,191445,185423,193462,187429,482962.0,476932.0,484979.0,478945.0,29
3,0,0,1,0,26,test,1,1,z,Thu Aug 21 2025 14:37:16 GMT-0400 (Eastern Daylight Time),497055.59999990463,I,z,1282,30,2,11.bmp,-120,-120,12.bmp,120,-120,13.bmp,-120,120,14.bmp,120,120,9326.599999904633,487729.0,9017,yes,SM,B,13.bmp,-120,120,191445,185423,193462,187429,491812.0,485785.0,493829.0,487795.0,30
1,1,0,0,0,27,test,1,1,z,Thu Aug 21 2025 14:37:16 GMT-0400 (Eastern Daylight Time),506822.0,I,z,1709,31,2,15.bmp,-120,-120,16.bmp,120,-120,17.bmp,-120,120,18.bmp,120,120,9759.700000286102,497062.2999997139,9017,yes,SM,B,15.bmp,-120,-120,191445,185423,193462,187429,501145.0,495119.0,503162.0,497129.0,31
2,0,1,0,0,27,test,1,0,m,Thu Aug 21 2025 14:37:16 GMT-0400 (Eastern Daylight Time),515905.39999961853,I,z,1030,32,2,19.bmp,-120,-120,20.bmp,120,-120,21.bmp,-120,120,22.bmp,120,120,9074.099999904633,506831.2999997139,9017,yes,SM,B,19.bmp,120,-120,191445,185423,193462,187429,510912.0,504887.0,512929.0,506895.0,32
4,0,0,0,1,28,test,1,1,z,Thu Aug 21 2025 14:37:16 GMT-0400 (Eastern Daylight Time),525105.3999996185,I,z,1147,33,2,31.bmp,-120,-120,32.bmp,120,-120,33.bmp,-120,120,34.bmp,120,120,9192.599999904633,515912.7999997139,9017,yes,SM,B,34.bmp,120,120,191445,185423,193462,187429,519995.0,513969.0,522012.0,515979.0,33
2,0,1,0,0,28,test,1,0,z,Thu Aug 21 2025 14:37:16 GMT-0400 (Eastern Daylight Time),535172.1999998093,I,None,2016,34,2,23.bmp,-120,-120,24.bmp,120,-120,25.bmp,-120,120,26.bmp,120,120,10058.5,525113.6999998093,9017,yes,SM,B,24.bmp,120,-120,191445,185423,193462,187429,529195.0,523170.0,531212.0,525179.0,34
4,0,0,0,1,29,test,1,1,m,Thu Aug 21 2025 14:37:16 GMT-0400 (Eastern Daylight Time),544138.7999997139,I,m,904,35,2,27.bmp,-120,-120,28.bmp,120,-120,29.bmp,-120,120,30.bmp,120,120,8959.400000095367,535179.3999996185,9017,yes,SM,B,29.bmp,120,120,191445,185423,193462,187429,539262.0,533236.0,541279.0,535245.0,35
3,0,0,1,0,29,test,1,0,m,Thu Aug 21 2025 14:37:16 GMT-0400 (Eastern Daylight Time),553205.5,I,z,1010,36,2,35.bmp,-120,-120,36.bmp,120,-120,37.bmp,-120,120,38.bmp,120,120,9056.5,544149.0,9017,yes,SM,B,35.bmp,-120,120,191445,185423,193462,187429,548228.0,542205.0,550245.0,544212.0,36
1,1,0,0,0,29,test,1,0,m,Thu Aug 21 2025 14:37:16 GMT-0400 (Eastern Daylight Time),562688.6999998093,I,z,1431,37,2,39.bmp,-120,-120,40.bmp,120,-120,41.bmp,-120,120,42.bmp,120,120,9475.199999809265,553213.5,9017,yes,SM,B,40.bmp,-120,-120,191445,185423,193462,187429,557295.0,551270.0,559312.0,553279.0,37
2,0,1,0,0,30,test,1,1,m,Thu Aug 21 2025 14:37:16 GMT-0400 (Eastern Daylight Time),572188.7999997139,I,m,1436,38,2,43.bmp,-120,-120,44.bmp,120,-120,45.bmp,-120,120,46.bmp,120,120,9491.199999809265,562697.5999999046,9017,yes,SM,B,45.bmp,120,-120,191445,185423,193462,187429,566778.0,560754.0,568795.0,562762.0,38
4,0,0,0,1,30,test,1,0,z,Thu Aug 21 2025 14:37:16 GMT-0400 (Eastern Daylight Time),581422.1999998093,I,m,1168,39,2,47.bmp,-120,-120,48.bmp,120,-120,49.bmp,-120,120,50.bmp,120,120,9226.699999809265,572195.5,9017,yes,SM,B,50.bmp,120,120,191445,185423,193462,187429,576278.0,570252.0,578295.0,572262.0,39
3,0,0,1,0,30,test,1,0,m,Thu Aug 21 2025 14:37:16 GMT-0400 (Eastern Daylight Time),590455.5,I,z,974,40,2,4.bmp,-120,-120,5.bmp,120,-120,6.bmp,-120,120,7.bmp,120,120,9026.5,581429.0,9017,yes,SM,B,5.bmp,-120,120,191445,185423,193462,187429,585512.0,579485.0,587529.0,581495.0,40
1,1,0,0,0,31,test,1,1,z,Thu Aug 21 2025 14:37:16 GMT-0400 (Eastern Daylight Time),599288.8999996185,I,z,774,41,2,8.bmp,-120,-120,9.bmp,120,-120,10.bmp,-120,120,11.bmp,120,120,8826.099999904633,590462.7999997139,9017,yes,SM,B,8.bmp,-120,-120,191445,185423,193462,187429,594545.0,588519.0,596561.0,590529.0,41
4,0,0,0,1,32,test,1,1,z,Thu Aug 21 2025 14:37:16 GMT-0400 (Eastern Daylight Time),608488.7999997139,I,z,1140,42,2,12.bmp,-120,-120,13.bmp,120,-120,14.bmp,-120,120,15.bmp,120,120,9192.099999904633,599296.6999998093,9017,yes,SM,B,15.bmp,120,120,191445,185423,193462,187429,603378.0,597353.0,605395.0,599362.0,42
1,1,0,0,0,33,test,1,1,z,Thu Aug 21 2025 14:37:16 GMT-0400 (Eastern Daylight Time),617455.5,I,z,916,43,2,16.bmp,-120,-120,17.bmp,120,-120,18.bmp,-120,120,19.bmp,120,120,8959.800000190735,608495.6999998093,9017,yes,SM,B,16.bmp,-120,-120,191445,185423,193462,187429,612578.0,606552.0,614595.0,608562.0,43
4,0,0,0,1,33,test,1,0,m,Thu Aug 21 2025 14:37:16 GMT-0400 (Eastern Daylight Time),626705.5,I,z,1198,44,2,4.bmp,-120,-120,1.bmp,120,-120,2.bmp,-120,120,3.bmp,120,120,9243.5,617462.0,9017,yes,SM,B,4.bmp,120,120,191445,185423,193462,187429,621545.0,615518.0,623561.0,617529.0,44
1,1,0,0,0,34,test,1,1,m,Thu Aug 21 2025 14:37:16 GMT-0400 (Eastern Daylight Time),635855.5,I,m,1099,45,2,28.bmp,-120,-120,29.bmp,120,-120,30.bmp,-120,120,31.bmp,120,120,9143.300000190735,626712.1999998093,9017,yes,SM,B,31.bmp,-120,-120,191445,185423,193462,187429,630795.0,624768.0,632812.0,626779.0,45
1,1,0,0,0,35,test,1,1,m,Thu Aug 21 2025 14:37:16 GMT-0400 (Eastern Daylight Time),645255.5,I,m,1341,46,2,20.bmp,-120,-120,21.bmp,120,-120,22.bmp,-120,120,23.bmp,120,120,9393.800000190735,635861.6999998093,9017,yes,SM,B,21.bmp,-120,-120,191445,185423,193462,187429,639945.0,633918.0,641962.0,635929.0,46
3,0,0,1,0,35,test,1,0,z,Thu Aug 21 2025 14:37:16 GMT-0400 (Eastern Daylight Time),654972.2999997139,I,m,1653,47,2,24.bmp,-120,-120,25.bmp,120,-120,26.bmp,-120,120,27.bmp,120,120,9707.799999713898,645264.5,9017,yes,SM,B,26.bmp,-120,120,191445,185423,193462,187429,649345.0,643321.0,651362.0,645329.0,47
3,0,0,1,0,36,test,1,1,z,Thu Aug 21 2025 14:37:16 GMT-0400 (Eastern Daylight Time),663888.2999997139,I,z,864,48,2,40.bmp,-120,-120,41.bmp,120,-120,42.bmp,-120,120,43.bmp,120,120,8907.0,654981.2999997139,9017,yes,SM,B,42.bmp,-120,120,191445,185423,193462,187429,659062.0,653038.0,661079.0,655045.0,48
2,0,1,0,0,36,test,1,0,z,Thu Aug 21 2025 14:37:16 GMT-0400 (Eastern Daylight Time),672955.5999999046,I,m,1004,49,2,36.bmp,-120,-120,37.bmp,120,-120,38.bmp,-120,120,39.bmp,120,120,9063.400000095367,663892.1999998093,9017,yes,SM,B,37.bmp,120,-120,191445,185423,193462,187429,667978.0,661948.0,669995.0,663962.0,49
3,0,0,1,0,36,test,1,0,m,Thu Aug 21 2025 14:37:16 GMT-0400 (Eastern Daylight Time),683022.1999998093,I,None,2016,50,2,32.bmp,-120,-120,33.bmp,120,-120,34.bmp,-120,120,35.bmp,120,120,10057.099999904633,672965.0999999046,9017,yes,SM,B,32.bmp,-120,120,191445,185423,193462,187429,677045.0,671022.0,679062.0,673029.0,50
2,0,1,0,0,36,test,1,0,z,Thu Aug 21 2025 14:37:16 GMT-0400 (Eastern Daylight Time),691972.1999998093,I,m,894,51,2,44.bmp,-120,-120,45.bmp,120,-120,46.bmp,-120,120,47.bmp,120,120,8942.199999809265,683030.0,9017,yes,SM,B,45.bmp,120,-120,191445,185423,193462,187429,687112.0,681086.0,689129.0,683095.0,51
4,0,0,0,1,36,test,1,0,m,Thu Aug 21 2025 14:37:16 GMT-0400 (Eastern Daylight Time),701055.7999997139,I,z,1032,52,2,48.bmp,-120,-120,49.bmp,120,-120,50.bmp,-120,120,31.bmp,120,120,9077.199999809265,691978.5999999046,9017,yes,SM,B,48.bmp,120,120,191445,185423,193462,187429,696062.0,690035.0,698079.0,692045.0,52
3,0,0,1,0,37,test,1,1,z,Thu Aug 21 2025 14:37:16 GMT-0400 (Eastern Daylight Time),710355.5,I,z,1245,53,2,1.bmp,-120,-120,2.bmp,120,-120,3.bmp,-120,120,4.bmp,120,120,9292.900000095367,701062.5999999046,9017,yes,SM,B,3.bmp,-120,120,191445,185423,193462,187429,705145.0,699119.0,707162.0,701129.0,53
1,1,0,0,0,38,test,1,1,m,Thu Aug 21 2025 14:37:16 GMT-0400 (Eastern Daylight Time),719455.5999999046,I,m,1033,54,2,5.bmp,-120,-120,6.bmp,120,-120,7.bmp,-120,120,8.bmp,120,120,9091.700000286102,710363.8999996185,9017,yes,SM,B,7.bmp,-120,-120,191445,185423,193462,187429,714445.0,708420.0,716462.0,710429.0,54
4,0,0,0,1,38,test,1,0,z,Thu Aug 21 2025 14:37:16 GMT-0400 (Eastern Daylight Time),728355.5,I,m,845,55,2,9.bmp,-120,-120,10.bmp,120,-120,11.bmp,-120,120,12.bmp,120,120,8891.800000190735,719463.6999998093,9017,yes,SM,B,12.bmp,120,120,191445,185423,193462,187429,723545.0,717520.0,725562.0,719529.0,55
2,0,1,0,0,39,test,1,1,m,Thu Aug 21 2025 14:37:16 GMT-0400 (Eastern Daylight Time),737522.1999998093,I,m,1113,56,2,13.bmp,-120,-120,14.bmp,120,-120,15.bmp,-120,120,16.bmp,120,120,9157.5,728364.6999998093,9017,yes,SM,B,13.bmp,120,-120,191445,185423,193462,187429,732445.0,726421.0,734462.0,728429.0,56
4,0,0,0,1,40,test,1,1,m,Thu Aug 21 2025 14:37:16 GMT-0400 (Eastern Daylight Time),746489.0,I,m,906,57,2,17.bmp,-120,-120,18.bmp,120,-120,19.bmp,-120,120,20.bmp,120,120,8959.700000286102,737529.2999997139,9017,yes,SM,B,18.bmp,120,120,191445,185423,193462,187429,741612.0,735586.0,743629.0,737595.0,57
3,0,0,1,0,41,test,1,1,z,Thu Aug 21 2025 14:37:16 GMT-0400 (Eastern Daylight Time),755455.5999999046,I,z,900,58,2,21.bmp,-120,-120,22.bmp,120,-120,23.bmp,-120,120,24.bmp,120,120,8955.800000190735,746499.7999997139,9017,yes,SM,B,23.bmp,-120,120,191445,185423,193462,187429,750578.0,744556.0,752595.0,746562.0,58
2,0,1,0,0,42,test,1,1,m,Thu Aug 21 2025 14:37:16 GMT-0400 (Eastern Daylight Time),764522.1999998093,I,m,1005,59,2,25.bmp,-120,-120,26.bmp,120,-120,27.bmp,-120,120,28.bmp,120,120,9056.099999904633,755466.0999999046,9017,yes,SM,B,28.bmp,120,-120,191445,185423,193462,187429,759545.0,753523.0,761562.0,755529.0,59
1,1,0,0,0,43,test,1,1,z,Thu Aug 21 2025 14:37:16 GMT-0400 (Eastern Daylight Time),773888.7999997139,I,z,1314,60,2,29.bmp,-120,-120,30.bmp,120,-120,31.bmp,-120,120,32.bmp,120,120,9358.099999904633,764530.6999998093,9017,yes,SM,B,29.bmp,-120,-120,191445,185423,193462,187429,768612.0,762587.0,770629.0,764596.0,60
2,0,1,0,0,44,test,1,1,z,Thu Aug 21 2025 14:37:16 GMT-0400 (Eastern Daylight Time),782822.2999997139,I,z,875,61,2,33.bmp,-120,-120,34.bmp,120,-120,35.bmp,-120,120,36.bmp,120,120,8923.199999809265,773899.0999999046,9017,yes,SM,B,34.bmp,120,-120,191445,185423,193462,187429,777979.0,771956.0,779995.0,773962.0,61
4,0,0,0,1,45,test,1,1,z,Thu Aug 21 2025 14:37:16 GMT-0400 (Eastern Daylight Time),791755.5999999046,I,z,870,62,2,41.bmp,-120,-120,42.bmp,120,-120,43.bmp,-120,120,44.bmp,120,120,8925.700000286102,782829.8999996185,9017,yes,SM,B,44.bmp,120,120,191445,185423,193462,187429,786912.0,780886.0,788929.0,782895.0,62
1,1,0,0,0,46,test,1,1,m,Thu Aug 21 2025 14:37:16 GMT-0400 (Eastern Daylight Time),800822.2999997139,I,m,1009,63,2,45.bmp,-120,-120,46.bmp,120,-120,47.bmp,-120,120,48.bmp,120,120,9059.299999713898,791763.0,9017,yes,SM,B,45.bmp,-120,120,191445,185423,193462,187429,795845.0,789819.0,797862.0,791829.0,63
2,0,1,0,0,47,test,1,1,z,Thu Aug 21 2025 14:37:16 GMT-0400 (Eastern Daylight Time),810772.1999998093,I,z,1894,64,2,49.bmp,-120,-120,50.bmp,120,-120,12.bmp,-120,120,1.bmp,120,120,9942.400000095367,800829.7999997139,9017,yes,SM,B,50.bmp,120,-120,191445,185423,193462,187429,804912.0,798886.0,806929.0,800895.0,64
4,0,0,0,1,48,test,1,1,m,Thu Aug 21 2025 14:37:16 GMT-0400 (Eastern Daylight Time),819855.6999998093,I,m,1032,65,2,2.bmp,-120,-120,3.bmp,120,-120,4.bmp,-120,120,5.bmp,120,120,9076.900000095367,810778.7999997139,9017,yes,SM,B,4.bmp,120,120,191445,185423,193462,187429,814862.0,808835.0,816879.0,810845.0,65
3,0,0,1,0,49,test,1,1,m,Thu Aug 21 2025 14:37:16 GMT-0400 (Eastern Daylight Time),828889.0,I,m,973,66,2,6.bmp,-120,-120,7.bmp,120,-120,8.bmp,-120,120,9.bmp,120,120,9025.300000190735,819863.6999998093,9017,yes,SM,B,9.bmp,-120,120,191445,185423,193462,187429,823945.0,817920.0,825962.0,819929.0,66
2,0,1,0,0,50,test,1,1,m,Thu Aug 21 2025 14:37:16 GMT-0400 (Eastern Daylight Time),838255.7999997139,I,m,1315,67,2,37.bmp,-120,-120,38.bmp,120,-120,39.bmp,-120,120,40.bmp,120,120,9358.099999904633,828897.6999998093,9017,yes,SM,B,39.bmp,120,-120,191445,185423,193462,187429,832978.0,826954.0,834996.0,828962.0,67
3,0,0,1,0,50,test,1,0,z,Thu Aug 21 2025 14:37:16 GMT-0400 (Eastern Daylight Time),847605.5999999046,I,m,1294,68,2,10.bmp,-120,-120,11.bmp,120,-120,12.bmp,-120,120,13.bmp,120,120,9340.099999904633,838265.5,9017,yes,SM,B,12.bmp,-120,120,191445,185423,193462,187429,842345.0,836322.0,844362.0,838329.0,68
1,1,0,0,0,51,test,1,1,m,Thu Aug 21 2025 14:37:16 GMT-0400 (Eastern Daylight Time),856905.5999999046,I,m,1239,69,2,14.bmp,-120,-120,15.bmp,120,-120,16.bmp,-120,120,17.bmp,120,120,9289.700000286102,847615.8999996185,9017,yes,SM,B,15.bmp,-120,-120,191445,185423,193462,187429,851695.0,845672.0,853712.0,847679.0,69
2,0,1,0,0,51,test,1,0,m,Thu Aug 21 2025 14:37:16 GMT-0400 (Eastern Daylight Time),866339.0,I,z,1379,70,2,18.bmp,-120,-120,19.bmp,120,-120,20.bmp,-120,120,21.bmp,120,120,9424.800000190735,856914.1999998093,9017,yes,SM,B,20.bmp,120,-120,191445,185423,193462,187429,860995.0,854971.0,863012.0,856979.0,70
4,0,0,0,1,51,test,1,0,z,Thu Aug 21 2025 14:37:16 GMT-0400 (Eastern Daylight Time),875355.6999998093,I,m,953,71,2,22.bmp,-120,-120,23.bmp,120,-120,24.bmp,-120,120,25.bmp,120,120,9009.400000095367,866346.2999997139,9017,yes,SM,B,25.bmp,120,120,191445,185423,193462,187429,870429.0,864403.0,872446.0,866412.0,71
1,1,0,0,0,52,test,1,1,z,Thu Aug 21 2025 14:37:16 GMT-0400 (Eastern Daylight Time),884872.2999997139,I,z,1458,72,2,26.bmp,-120,-120,27.bmp,120,-120,28.bmp,-120,120,29.bmp,120,120,9507.400000095367,875364.8999996185,9017,yes,SM,B,26.bmp,-120,-120,191445,185423,193462,187429,879445.0,873421.0,881462.0,875429.0,72
2,0,1,0,0,52,test,1,0,z,Thu Aug 21 2025 14:37:16 GMT-0400 (Eastern Daylight Time),893972.2999997139,I,m,1044,73,2,30.bmp,-120,-120,31.bmp,120,-120,32.bmp,-120,120,33.bmp,120,120,9093.0,884879.2999997139,9017,yes,SM,B,31.bmp,120,-120,191445,185423,193462,187429,888962.0,882935.0,890979.0,884945.0,73
4,0,0,0,1,53,test,1,1,m,Thu Aug 21 2025 14:37:16 GMT-0400 (Eastern Daylight Time),903005.6999998093,I,m,985,74,2,34.bmp,-120,-120,35.bmp,120,-120,36.bmp,-120,120,37.bmp,120,120,9025.699999809265,893980.0,9017,yes,SM,B,36.bmp,120,120,191445,185423,193462,187429,898061.0,892036.0,900062.0,894046.0,74
2,0,1,0,0,54,test,1,1,m,Thu Aug 21 2025 14:37:16 GMT-0400 (Eastern Daylight Time),912089.0,I,m,1023,75,2,38.bmp,-120,-120,39.bmp,120,-120,40.bmp,-120,120,41.bmp,120,120,9074.800000190735,903014.1999998093,9017,yes,SM,B,41.bmp,120,-120,191445,185423,193462,187429,907095.0,901070.0,909112.0,903079.0,75
1,1,0,0,0,54,test,1,0,z,Thu Aug 21 2025 14:37:16 GMT-0400 (Eastern Daylight Time),921255.6999998093,I,m,1108,76,2,42.bmp,-120,-120,43.bmp,120,-120,44.bmp,-120,120,45.bmp,120,120,9158.900000095367,912096.7999997139,9017,yes,SM,B,42.bmp,-120,-120,191445,185423,193462,187429,916179.0,910153.0,918196.0,912162.0,76
3,0,0,1,0,55,test,1,1,z,Thu Aug 21 2025 14:37:16 GMT-0400 (Eastern Daylight Time),930589.0,I,z,1269,77,2,50.bmp,-120,-120,11.bmp,120,-120,1.bmp,-120,120,2.bmp,120,120,9324.900000095367,921264.0999999046,9017,yes,SM,B,1.bmp,-120,120,191445,185423,193462,187429,925345.0,919320.0,927362.0,921329.0,77
1,1,0,0,0,56,test,1,1,m,Thu Aug 21 2025 14:37:16 GMT-0400 (Eastern Daylight Time),939655.7999997139,I,m,1008,78,2,46.bmp,-120,-120,47.bmp,120,-120,48.bmp,-120,120,49.bmp,120,120,9060.299999713898,930595.5,9017,yes,SM,B,47.bmp,-120,-120,191445,185423,193462,187429,934679.0,928652.0,936696.0,930662.0,78
4,0,0,0,1,57,test,1,1,m,Thu Aug 21 2025 14:37:16 GMT-0400 (Eastern Daylight Time),948789.1999998093,I,m,1077,79,2,7.bmp,-120,-120,8.bmp,120,-120,9.bmp,-120,120,10.bmp,120,120,9115.699999809265,939673.5,9017,yes,SM,B,7.bmp,120,120,191445,185423,193462,187429,943761.0,937730.0,945762.0,939745.0,79
3,0,0,1,0,58,test,1,1,m,Thu Aug 21 2025 14:37:16 GMT-0400 (Eastern Daylight Time),957839.0999999046,I,m,984,80,2,3.bmp,-120,-120,4.bmp,120,-120,5.bmp,-120,120,6.bmp,120,120,9042.099999904633,948797.0,9017,yes,SM,B,6.bmp,-120,120,191445,185423,193462,187429,952879.0,946853.0,954896.0,948862.0,80
