Q,Q1,Q2,Q3,Q4,acc_sum,block,block_c,correct,correct_response,datetime,endtime,project,response,response_time,row_sel,session_number,squiggle1,squiggle1x,squiggle1y,squiggle2,squiggle2x,squiggle2y,squiggle3,squiggle3x,squiggle3y,squiggle4,squiggle4x,squiggle4y,start_end,starttime,subject_id,target_congruent,task,task_vers,testsquiggle,testsquigglex,testsquiggley,time_practice_delay,time_practice_fixation,time_practice_stimuli,time_practice_study,time_test_delay,time_test_fixation,time_test_stimuli,time_test_study,trial
1,1,0,0,0,0,prac,1,0,z,Wed May 07 2025 11:48:10 GMT-0400 (Eastern Daylight Time),169079.0,I,None,2016,1,1,116.bmp,-120,-120,117.bmp,120,-120,118.bmp,-120,120,119.bmp,120,120,10826.39999961853,158252.60000038147,9017,yes,SM,A,116.bmp,-120,-120,154695,148670,156713,150680,,,,,1
3,0,0,1,0,0,prac,1,0,m,Wed May 07 2025 11:48:10 GMT-0400 (Eastern Daylight Time),178994.80000019073,I,z,1083,2,1,120.bmp,-120,-120,121.bmp,120,-120,122.bmp,-120,120,123.bmp,120,120,9905.5,169089.30000019073,9017,no,SM,A,123.bmp,-120,120,165529,159506,167547,161514,,,,,2
4,0,0,0,1,0,prac,1,0,m,Wed May 07 2025 11:48:10 GMT-0400 (Eastern Daylight Time),189828.69999980927,I,None,2016,3,1,124.bmp,-120,-120,125.bmp,120,-120,126.bmp,-120,120,127.bmp,120,120,10829.199999809265,178999.5,9017,no,SM,A,124.bmp,120,120,175446,169417,177463,171430,,,,,3
2,0,1,0,0,1,prac,1,1,z,Wed May 07 2025 11:48:10 GMT-0400 (Eastern Daylight Time),199945.5,I,z,1285,4,1,128.bmp,-120,-120,129.bmp,120,-120,130.bmp,-120,120,131.bmp,120,120,10107.199999809265,189838.30000019073,9017,yes,SM,A,129.bmp,120,-120,186279,180256,188297,182263,,,,,4
3,0,0,1,0,2,prac,1,1,z,Wed May 07 2025 11:48:10 GMT-0400 (Eastern Daylight Time),210062.19999980927,I,z,1288,5,1,132.bmp,-120,-120,133.bmp,120,-120,134.bmp,-120,120,135.bmp,120,120,10108.599999427795,199953.60000038147,9017,yes,SM,A,134.bmp,-120,120,196396,190371,198414,192380,,,,,5
1,1,0,0,0,2,prac,1,0,m,Wed May 07 2025 11:48:10 GMT-0400 (Eastern Daylight Time),219728.69999980927,I,z,843,6,1,136.bmp,-120,-120,137.bmp,120,-120,138.bmp,-120,120,139.bmp,120,120,9657.699999809265,210071.0,9017,no,SM,A,139.bmp,-120,-120,206513,200488,208530,202497,,,,,6
2,0,1,0,0,3,prac,1,1,m,Wed May 07 2025 11:48:10 GMT-0400 (Eastern Daylight Time),230162.19999980927,I,m,1601,7,1,140.bmp,-120,-120,141.bmp,120,-120,142.bmp,-120,120,143.bmp,120,120,10425.599999427795,219736.60000038147,9017,no,SM,A,140.bmp,120,-120,216179,210154,218197,212163,,,,,7
4,0,0,0,1,3,prac,1,0,z,Wed May 07 2025 11:48:10 GMT-0400 (Eastern Daylight Time),240412.10000038147,I,m,1423,8,1,144.bmp,-120,-120,145.bmp,120,-120,146.bmp,-120,120,147.bmp,120,120,10243.20000076294,230168.89999961853,9017,yes,SM,A,147.bmp,120,120,226612,220586,228630,222597,,,,,8
1,1,0,0,0,1,prac,2,1,z,Wed May 07 2025 11:48:10 GMT-0400 (Eastern Daylight Time),263745.5,I,z,1585,1,1,116.bmp,-120,-120,117.bmp,120,-120,118.bmp,-120,120,119.bmp,120,120,10402.5,253343.0,9017,yes,SM,A,116.bmp,-120,-120,249779,243761,251797,245764,,,,,1
3,0,0,1,0,2,prac,2,1,m,Wed May 07 2025 11:48:10 GMT-0400 (Eastern Daylight Time),274095.5,I,m,1521,2,1,120.bmp,-120,-120,121.bmp,120,-120,122.bmp,-120,120,123.bmp,120,120,10342.10000038147,263753.39999961853,9017,no,SM,A,123.bmp,-120,120,260196,254171,262213,256180,,,,,2
4,0,0,0,1,3,prac,2,1,m,Wed May 07 2025 11:48:10 GMT-0400 (Eastern Daylight Time),284028.80000019073,I,m,1107,3,1,124.bmp,-120,-120,125.bmp,120,-120,126.bmp,-120,120,127.bmp,120,120,9925.400000572205,274103.39999961853,9017,no,SM,A,124.bmp,120,120,270546,264521,272563,266530,,,,,3
2,0,1,0,0,3,prac,2,0,z,Wed May 07 2025 11:48:10 GMT-0400 (Eastern Daylight Time),294011.89999961853,I,m,1157,4,1,128.bmp,-120,-120,129.bmp,120,-120,130.bmp,-120,120,131.bmp,120,120,9974.199999809265,284037.69999980927,9017,yes,SM,A,129.bmp,120,-120,280479,274455,282497,276463,,,,,4
3,0,0,1,0,4,prac,2,1,z,Wed May 07 2025 11:48:10 GMT-0400 (Eastern Daylight Time),304111.89999961853,I,z,1277,5,1,132.bmp,-120,-120,133.bmp,120,-120,134.bmp,-120,120,135.bmp,120,120,10090.199999809265,294021.69999980927,9017,yes,SM,A,134.bmp,-120,120,290462,284439,292481,286447,,,,,5
1,1,0,0,0,5,prac,2,1,m,Wed May 07 2025 11:48:10 GMT-0400 (Eastern Daylight Time),314112.0,I,m,1178,6,1,136.bmp,-120,-120,137.bmp,120,-120,138.bmp,-120,120,139.bmp,120,120,9991.699999809265,304120.30000019073,9017,no,SM,A,139.bmp,-120,-120,300563,294538,302580,296546,,,,,6
2,0,1,0,0,6,prac,2,1,m,Wed May 07 2025 11:48:10 GMT-0400 (Eastern Daylight Time),323911.89999961853,I,m,970,7,1,140.bmp,-120,-120,141.bmp,120,-120,142.bmp,-120,120,143.bmp,120,120,9791.0,314120.89999961853,9017,no,SM,A,140.bmp,120,-120,310562,304538,312580,306547,,,,,7
4,0,0,0,1,6,prac,2,0,z,Wed May 07 2025 11:48:10 GMT-0400 (Eastern Daylight Time),333878.60000038147,I,m,1138,8,1,144.bmp,-120,-120,145.bmp,120,-120,146.bmp,-120,120,147.bmp,120,120,9957.10000038147,323921.5,9017,yes,SM,A,147.bmp,120,120,320362,314339,322380,316347,,,,,8
4,0,0,0,1,1,test,1,1,m,Wed May 07 2025 11:48:10 GMT-0400 (Eastern Daylight Time),365511.80000019073,I,m,1088,1,1,148.bmp,-120,-120,149.bmp,120,-120,150.bmp,-120,120,143.bmp,120,120,9143.199999809265,356368.60000038147,9017,no,SM,A,150.bmp,120,120,320362,314339,322380,316347,352812.0,346786.0,354830.0,348797.0,1
2,0,1,0,0,2,test,1,1,m,Wed May 07 2025 11:48:10 GMT-0400 (Eastern Daylight Time),375111.39999961853,I,m,1537,2,1,101.bmp,-120,-120,102.bmp,120,-120,103.bmp,-120,120,104.bmp,120,120,9587.199999809265,365524.19999980927,9017,no,SM,A,103.bmp,120,-120,320362,314339,322380,316347,361962.0,355941.0,363980.0,357946.0,2
1,1,0,0,0,3,test,1,1,z,Wed May 07 2025 11:48:10 GMT-0400 (Eastern Daylight Time),384295.19999980927,I,z,1122,3,1,105.bmp,-120,-120,106.bmp,120,-120,107.bmp,-120,120,108.bmp,120,120,9179.300000190735,375115.89999961853,9017,yes,SM,A,105.bmp,-120,-120,320362,314339,322380,316347,371562.0,365533.0,373580.0,367546.0,3
3,0,0,1,0,3,test,1,0,m,Wed May 07 2025 11:48:10 GMT-0400 (Eastern Daylight Time),393811.69999980927,I,z,1451,4,1,109.bmp,-120,-120,110.bmp,120,-120,111.bmp,-120,120,112.bmp,120,120,9507.099999427795,384304.60000038147,9017,no,SM,A,109.bmp,-120,120,320362,314339,322380,316347,380746.0,374722.0,382763.0,376730.0,4
2,0,1,0,0,3,test,1,0,z,Wed May 07 2025 11:48:10 GMT-0400 (Eastern Daylight Time),403195.19999980927,I,m,1318,5,1,113.bmp,-120,-120,114.bmp,120,-120,115.bmp,-120,120,116.bmp,120,120,9375.599999427795,393819.60000038147,9017,yes,SM,A,114.bmp,120,-120,320362,314339,322380,316347,390262.0,384237.0,392280.0,386246.0,5
3,0,0,1,0,3,test,1,0,z,Wed May 07 2025 11:48:10 GMT-0400 (Eastern Daylight Time),412461.69999980927,I,m,1207,6,1,117.bmp,-120,-120,118.bmp,120,-120,119.bmp,-120,120,120.bmp,120,120,9259.800000190735,403201.89999961853,9017,yes,SM,A,119.bmp,-120,120,320362,314339,322380,316347,399646.0,393619.0,401663.0,395630.0,6
4,0,0,0,1,4,test,1,1,z,Wed May 07 2025 11:48:10 GMT-0400 (Eastern Daylight Time),421461.80000019073,I,z,940,7,1,121.bmp,-120,-120,122.bmp,120,-120,123.bmp,-120,120,124.bmp,120,120,8992.300000190735,412469.5,9017,yes,SM,A,124.bmp,120,120,320362,314339,322380,316347,408912.0,402887.0,410930.0,404896.0,7
2,0,1,0,0,5,test,1,1,m,Wed May 07 2025 11:48:10 GMT-0400 (Eastern Daylight Time),430511.69999980927,I,m,988,8,1,125.bmp,-120,-120,126.bmp,120,-120,127.bmp,-120,120,128.bmp,120,120,9040.5,421471.19999980927,9017,no,SM,A,125.bmp,120,-120,320362,314339,322380,316347,417912.0,411888.0,419930.0,413896.0,8
3,0,0,1,0,6,test,1,1,m,Wed May 07 2025 11:48:10 GMT-0400 (Eastern Daylight Time),439895.0,I,m,1330,9,1,129.bmp,-120,-120,130.bmp,120,-120,131.bmp,-120,120,132.bmp,120,120,9374.0,430521.0,9017,no,SM,A,130.bmp,-120,120,320362,314339,322380,316347,426962.0,420938.0,428980.0,422946.0,9
4,0,0,0,1,7,test,1,1,z,Wed May 07 2025 11:48:10 GMT-0400 (Eastern Daylight Time),449145.0,I,z,1187,10,1,137.bmp,-120,-120,138.bmp,120,-120,139.bmp,-120,120,140.bmp,120,120,9241.10000038147,439903.89999961853,9017,yes,SM,A,140.bmp,120,120,320362,314339,322380,316347,436346.0,430321.0,438363.0,432330.0,10
3,0,0,1,0,8,test,1,1,z,Wed May 07 2025 11:48:10 GMT-0400 (Eastern Daylight Time),458144.89999961853,I,z,937,11,1,133.bmp,-120,-120,134.bmp,120,-120,135.bmp,-120,120,136.bmp,120,120,8991.89999961853,449153.0,9017,yes,SM,A,135.bmp,-120,120,320362,314339,322380,316347,445596.0,439570.0,447613.0,441580.0,11
2,0,1,0,0,9,test,1,1,m,Wed May 07 2025 11:48:10 GMT-0400 (Eastern Daylight Time),467178.30000019073,I,m,977,12,1,141.bmp,-120,-120,142.bmp,120,-120,143.bmp,-120,120,144.bmp,120,120,9025.300000190735,458153.0,9017,no,SM,A,141.bmp,120,-120,320362,314339,322380,316347,454595.0,448570.0,456613.0,450580.0,12
3,0,0,1,0,10,test,1,1,m,Wed May 07 2025 11:48:10 GMT-0400 (Eastern Daylight Time),476411.69999980927,I,m,1176,13,1,145.bmp,-120,-120,146.bmp,120,-120,147.bmp,-120,120,148.bmp,120,120,9225.89999961853,467185.80000019073,9017,no,SM,A,146.bmp,-120,120,320362,314339,322380,316347,463629.0,457603.0,465646.0,459613.0,13
1,1,0,0,0,10,test,1,0,z,Wed May 07 2025 11:48:10 GMT-0400 (Eastern Daylight Time),485561.5,I,m,1086,14,1,149.bmp,-120,-120,150.bmp,120,-120,104.bmp,-120,120,101.bmp,120,120,9140.5,476421.0,9017,yes,SM,A,149.bmp,-120,-120,320362,314339,322380,316347,472862.0,466838.0,474880.0,468846.0,14
4,0,0,0,1,11,test,1,1,m,Wed May 07 2025 11:48:10 GMT-0400 (Eastern Daylight Time),494461.60000038147,I,m,840,15,1,110.bmp,-120,-120,111.bmp,120,-120,112.bmp,-120,120,113.bmp,120,120,8892.60000038147,485569.0,9017,no,SM,A,111.bmp,120,120,320362,314339,322380,316347,482012.0,475986.0,484030.0,477996.0,15
1,1,0,0,0,12,test,1,1,m,Wed May 07 2025 11:48:10 GMT-0400 (Eastern Daylight Time),503461.69999980927,I,m,948,16,1,102.bmp,-120,-120,103.bmp,120,-120,104.bmp,-120,120,105.bmp,120,120,8992.699999809265,494469.0,9017,no,SM,A,105.bmp,-120,-120,320362,314339,322380,316347,490912.0,484886.0,492930.0,486896.0,16
3,0,0,1,0,13,test,1,1,m,Wed May 07 2025 11:48:10 GMT-0400 (Eastern Daylight Time),512378.39999961853,I,m,852,17,1,122.bmp,-120,-120,123.bmp,120,-120,124.bmp,-120,120,125.bmp,120,120,8909.099999427795,503469.30000019073,9017,no,SM,A,122.bmp,-120,120,320362,314339,322380,316347,499912.0,493887.0,501930.0,495896.0,17
1,1,0,0,0,14,test,1,1,z,Wed May 07 2025 11:48:10 GMT-0400 (Eastern Daylight Time),521295.0,I,z,855,18,1,106.bmp,-120,-120,107.bmp,120,-120,108.bmp,-120,120,109.bmp,120,120,8909.699999809265,512385.30000019073,9017,yes,SM,A,106.bmp,-120,-120,320362,314339,322380,316347,508829.0,502803.0,510847.0,504813.0,18
2,0,1,0,0,14,test,1,0,z,Wed May 07 2025 11:48:10 GMT-0400 (Eastern Daylight Time),530311.6000003815,I,m,955,19,1,126.bmp,-120,-120,127.bmp,120,-120,128.bmp,-120,120,129.bmp,120,120,9003.10000038147,521308.5,9017,yes,SM,A,127.bmp,120,-120,320362,314339,322380,316347,517746.0,511726.0,519763.0,513730.0,19
3,0,0,1,0,15,test,1,1,z,Wed May 07 2025 11:48:10 GMT-0400 (Eastern Daylight Time),539511.6999998093,I,z,1138,20,1,130.bmp,-120,-120,131.bmp,120,-120,132.bmp,-120,120,133.bmp,120,120,9192.800000190735,530318.8999996185,9017,yes,SM,A,132.bmp,-120,120,320362,314339,322380,316347,526762.0,520736.0,528780.0,522746.0,20
1,1,0,0,0,16,test,1,1,m,Wed May 07 2025 11:48:10 GMT-0400 (Eastern Daylight Time),548861.3000001907,I,m,1298,21,1,114.bmp,-120,-120,115.bmp,120,-120,116.bmp,-120,120,117.bmp,120,120,9342.400000572205,539518.8999996185,9017,no,SM,A,116.bmp,-120,-120,320362,314339,322380,316347,535962.0,529936.0,537980.0,531946.0,21
4,0,0,0,1,17,test,1,1,z,Wed May 07 2025 11:48:10 GMT-0400 (Eastern Daylight Time),558445.5,I,z,1532,22,1,118.bmp,-120,-120,119.bmp,120,-120,120.bmp,-120,120,121.bmp,120,120,9577.60000038147,548867.8999996185,9017,yes,SM,A,121.bmp,120,120,320362,314339,322380,316347,545312.0,539285.0,547330.0,541296.0,22
1,1,0,0,0,18,test,1,1,m,Wed May 07 2025 11:48:10 GMT-0400 (Eastern Daylight Time),567744.8000001907,I,m,1245,23,1,134.bmp,-120,-120,135.bmp,120,-120,136.bmp,-120,120,137.bmp,120,120,9293.800000190735,558451.0,9017,no,SM,A,137.bmp,-120,-120,320362,314339,322380,316347,554895.0,548868.0,556913.0,550879.0,23
2,0,1,0,0,18,test,1,0,z,Wed May 07 2025 11:48:10 GMT-0400 (Eastern Daylight Time),577778.1999998093,I,m,1969,24,1,142.bmp,-120,-120,143.bmp,120,-120,144.bmp,-120,120,145.bmp,120,120,10025.599999427795,567752.6000003815,9017,yes,SM,A,143.bmp,120,-120,320362,314339,322380,316347,564195.0,558170.0,566213.0,560179.0,24
4,0,0,0,1,18,test,1,0,m,Wed May 07 2025 11:48:10 GMT-0400 (Eastern Daylight Time),587844.6000003815,I,None,2016,25,1,146.bmp,-120,-120,147.bmp,120,-120,148.bmp,-120,120,149.bmp,120,120,10055.900000572205,577788.6999998093,9017,no,SM,A,148.bmp,120,120,320362,314339,322380,316347,574229.0,568206.0,576246.0,570213.0,25
1,1,0,0,0,18,test,1,0,z,Wed May 07 2025 11:48:10 GMT-0400 (Eastern Daylight Time),596961.6999998093,I,m,1053,26,1,138.bmp,-120,-120,139.bmp,120,-120,140.bmp,-120,120,141.bmp,120,120,9109.599999427795,587852.1000003815,9017,yes,SM,A,138.bmp,-120,-120,320362,314339,322380,316347,584295.0,578269.0,586313.0,580279.0,26
4,0,0,0,1,18,test,1,0,z,Wed May 07 2025 11:48:10 GMT-0400 (Eastern Daylight Time),606194.6999998093,I,m,1176,27,1,150.bmp,-120,-120,111.bmp,120,-120,101.bmp,-120,120,102.bmp,120,120,9225.800000190735,596968.8999996185,9017,yes,SM,A,102.bmp,120,120,320362,314339,322380,316347,593412.0,587386.0,595430.0,589395.0,27
3,0,0,1,0,19,test,1,1,m,Wed May 07 2025 11:48:10 GMT-0400 (Eastern Daylight Time),615828.1000003815,I,m,1576,28,1,103.bmp,-120,-120,104.bmp,120,-120,105.bmp,-120,120,106.bmp,120,120,9624.800000190735,606203.3000001907,9017,no,SM,A,103.bmp,-120,120,320362,314339,322380,316347,602645.0,596620.0,604662.0,598629.0,28
2,0,1,0,0,20,test,1,1,z,Wed May 07 2025 11:48:10 GMT-0400 (Eastern Daylight Time),624861.5,I,z,982,29,1,107.bmp,-120,-120,108.bmp,120,-120,109.bmp,-120,120,110.bmp,120,120,9026.5,615835.0,9017,yes,SM,A,108.bmp,120,-120,320362,314339,322380,316347,612279.0,606252.0,614296.0,608263.0,29
3,0,0,1,0,21,test,1,1,z,Wed May 07 2025 11:48:10 GMT-0400 (Eastern Daylight Time),633978.1000003815,I,z,1052,30,1,111.bmp,-120,-120,112.bmp,120,-120,113.bmp,-120,120,114.bmp,120,120,9108.10000038147,624870.0,9017,yes,SM,A,113.bmp,-120,120,320362,314339,322380,316347,621312.0,615287.0,623330.0,617296.0,30
1,1,0,0,0,22,test,1,1,z,Wed May 07 2025 11:48:10 GMT-0400 (Eastern Daylight Time),643444.6999998093,I,z,1408,31,1,115.bmp,-120,-120,116.bmp,120,-120,117.bmp,-120,120,118.bmp,120,120,9456.89999961853,633987.8000001907,9017,yes,SM,A,115.bmp,-120,-120,320362,314339,322380,316347,630429.0,624405.0,632446.0,626413.0,31
2,0,1,0,0,23,test,1,1,m,Wed May 07 2025 11:48:10 GMT-0400 (Eastern Daylight Time),652428.1000003815,I,m,916,32,1,119.bmp,-120,-120,120.bmp,120,-120,121.bmp,-120,120,122.bmp,120,120,8974.400000572205,643453.6999998093,9017,no,SM,A,119.bmp,120,-120,320362,314339,322380,316347,639895.0,633871.0,641913.0,635879.0,32
4,0,0,0,1,24,test,1,1,z,Wed May 07 2025 11:48:10 GMT-0400 (Eastern Daylight Time),661661.3000001907,I,z,1174,33,1,131.bmp,-120,-120,132.bmp,120,-120,133.bmp,-120,120,134.bmp,120,120,9226.699999809265,652434.6000003815,9017,yes,SM,A,134.bmp,120,120,320362,314339,322380,316347,648878.0,642852.0,650896.0,644863.0,33
2,0,1,0,0,25,test,1,1,z,Wed May 07 2025 11:48:10 GMT-0400 (Eastern Daylight Time),670644.6000003815,I,z,915,34,1,123.bmp,-120,-120,124.bmp,120,-120,125.bmp,-120,120,126.bmp,120,120,8976.20000076294,661668.3999996185,9017,yes,SM,A,124.bmp,120,-120,320362,314339,322380,316347,658112.0,652086.0,660130.0,654096.0,34
4,0,0,0,1,26,test,1,1,m,Wed May 07 2025 11:48:10 GMT-0400 (Eastern Daylight Time),679761.1000003815,I,m,1061,35,1,127.bmp,-120,-120,128.bmp,120,-120,129.bmp,-120,120,130.bmp,120,120,9109.60000038147,670651.5,9017,no,SM,A,129.bmp,120,120,320362,314339,322380,316347,667095.0,661069.0,669113.0,663079.0,35
3,0,0,1,0,26,test,1,0,m,Wed May 07 2025 11:48:10 GMT-0400 (Eastern Daylight Time),689827.8999996185,I,None,2016,36,1,135.bmp,-120,-120,136.bmp,120,-120,137.bmp,-120,120,138.bmp,120,120,10060.39999961853,679767.5,9017,no,SM,A,135.bmp,-120,120,320362,314339,322380,316347,676212.0,670185.0,678229.0,672196.0,36
1,1,0,0,0,27,test,1,1,m,Wed May 07 2025 11:48:10 GMT-0400 (Eastern Daylight Time),699127.8999996185,I,m,1238,37,1,139.bmp,-120,-120,140.bmp,120,-120,141.bmp,-120,120,142.bmp,120,120,9293.199999809265,689834.6999998093,9017,no,SM,A,140.bmp,-120,-120,320362,314339,322380,316347,686278.0,680252.0,688296.0,682263.0,37
2,0,1,0,0,28,test,1,1,m,Wed May 07 2025 11:48:10 GMT-0400 (Eastern Daylight Time),708094.6000003815,I,m,914,38,1,143.bmp,-120,-120,144.bmp,120,-120,145.bmp,-120,120,146.bmp,120,120,8956.300000190735,699138.3000001907,9017,no,SM,A,145.bmp,120,-120,320362,314339,322380,316347,695578.0,689556.0,697596.0,691563.0,38
4,0,0,0,1,28,test,1,0,z,Wed May 07 2025 11:48:10 GMT-0400 (Eastern Daylight Time),718161.1999998093,I,None,2015,39,1,147.bmp,-120,-120,148.bmp,120,-120,149.bmp,-120,120,150.bmp,120,120,10052.5,708108.6999998093,9017,yes,SM,A,150.bmp,120,120,320362,314339,322380,316347,704545.0,698526.0,706563.0,700529.0,39
3,0,0,1,0,29,test,1,1,m,Wed May 07 2025 11:48:10 GMT-0400 (Eastern Daylight Time),727244.8999996185,I,m,1032,40,1,104.bmp,-120,-120,105.bmp,120,-120,106.bmp,-120,120,107.bmp,120,120,9076.39999961853,718168.5,9017,no,SM,A,105.bmp,-120,120,320362,314339,322380,316347,714612.0,708586.0,716629.0,710596.0,40
1,1,0,0,0,30,test,1,1,z,Wed May 07 2025 11:48:10 GMT-0400 (Eastern Daylight Time),736344.3000001907,I,z,1044,41,1,108.bmp,-120,-120,109.bmp,120,-120,110.bmp,-120,120,111.bmp,120,120,9093.199999809265,727251.1000003815,9017,yes,SM,A,108.bmp,-120,-120,320362,314339,322380,316347,723695.0,717668.0,725713.0,719679.0,41
4,0,0,0,1,30,test,1,0,z,Wed May 07 2025 11:48:10 GMT-0400 (Eastern Daylight Time),745677.8000001907,I,m,1281,42,1,112.bmp,-120,-120,113.bmp,120,-120,114.bmp,-120,120,115.bmp,120,120,9329.60000038147,736348.1999998093,9017,yes,SM,A,115.bmp,120,120,320362,314339,322380,316347,732795.0,726765.0,734812.0,728779.0,42
1,1,0,0,0,31,test,1,1,z,Wed May 07 2025 11:48:10 GMT-0400 (Eastern Daylight Time),754944.5,I,z,1212,43,1,116.bmp,-120,-120,117.bmp,120,-120,118.bmp,-120,120,119.bmp,120,120,9259.800000190735,745684.6999998093,9017,yes,SM,A,116.bmp,-120,-120,320362,314339,322380,316347,742128.0,736102.0,744146.0,738113.0,43
4,0,0,0,1,32,test,1,1,m,Wed May 07 2025 11:48:10 GMT-0400 (Eastern Daylight Time),764244.8999996185,I,m,1250,44,1,104.bmp,-120,-120,101.bmp,120,-120,102.bmp,-120,120,103.bmp,120,120,9292.5,754952.3999996185,9017,no,SM,A,104.bmp,120,120,320362,314339,322380,316347,751395.0,745370.0,753411.0,747379.0,44
1,1,0,0,0,33,test,1,1,m,Wed May 07 2025 11:48:10 GMT-0400 (Eastern Daylight Time),773194.3999996185,I,m,884,45,1,128.bmp,-120,-120,129.bmp,120,-120,130.bmp,-120,120,131.bmp,120,120,8941.5,764252.8999996185,9017,no,SM,A,131.bmp,-120,-120,320362,314339,322380,316347,760695.0,754670.0,762713.0,756679.0,45
1,1,0,0,0,33,test,1,0,m,Wed May 07 2025 11:48:10 GMT-0400 (Eastern Daylight Time),782094.3000001907,I,z,863,46,1,120.bmp,-120,-120,121.bmp,120,-120,122.bmp,-120,120,123.bmp,120,120,8892.300000190735,773202.0,9017,no,SM,A,121.bmp,-120,-120,320362,314339,322380,316347,769644.0,763619.0,771646.0,765629.0,46
3,0,0,1,0,33,test,1,0,z,Wed May 07 2025 11:48:10 GMT-0400 (Eastern Daylight Time),791344.5,I,m,1195,47,1,124.bmp,-120,-120,125.bmp,120,-120,126.bmp,-120,120,127.bmp,120,120,9235.89999961853,782108.6000003815,9017,yes,SM,A,126.bmp,-120,120,320362,314339,322380,316347,778545.0,772526.0,780563.0,774529.0,47
3,0,0,1,0,34,test,1,1,z,Wed May 07 2025 11:48:10 GMT-0400 (Eastern Daylight Time),800911.1000003815,I,z,1504,48,1,140.bmp,-120,-120,141.bmp,120,-120,142.bmp,-120,120,143.bmp,120,120,9556.800000190735,791354.3000001907,9017,yes,SM,A,142.bmp,-120,120,320362,314339,322380,316347,787795.0,781772.0,789813.0,783779.0,48
2,0,1,0,0,35,test,1,1,z,Wed May 07 2025 11:48:10 GMT-0400 (Eastern Daylight Time),810127.8000001907,I,z,1163,49,1,136.bmp,-120,-120,137.bmp,120,-120,138.bmp,-120,120,139.bmp,120,120,9208.400000572205,800919.3999996185,9017,yes,SM,A,137.bmp,120,-120,320362,314339,322380,316347,797362.0,791337.0,799379.0,793346.0,49
3,0,0,1,0,35,test,1,0,m,Wed May 07 2025 11:48:10 GMT-0400 (Eastern Daylight Time),819794.5,I,z,1601,50,1,132.bmp,-120,-120,133.bmp,120,-120,134.bmp,-120,120,135.bmp,120,120,9660.60000038147,810133.8999996185,9017,no,SM,A,132.bmp,-120,120,320362,314339,322380,316347,806578.0,800551.0,808596.0,802569.0,50
2,0,1,0,0,35,test,1,0,z,Wed May 07 2025 11:48:10 GMT-0400 (Eastern Daylight Time),828894.3999996185,I,m,1039,51,1,144.bmp,-120,-120,145.bmp,120,-120,146.bmp,-120,120,147.bmp,120,120,9093.199999809265,819801.1999998093,9017,yes,SM,A,145.bmp,120,-120,320362,314339,322380,316347,816245.0,810218.0,818263.0,812229.0,51
4,0,0,0,1,36,test,1,1,m,Wed May 07 2025 11:48:10 GMT-0400 (Eastern Daylight Time),837861.0,I,m,915,52,1,148.bmp,-120,-120,149.bmp,120,-120,150.bmp,-120,120,131.bmp,120,120,8958.39999961853,828902.6000003815,9017,no,SM,A,148.bmp,120,120,320362,314339,322380,316347,825345.0,819320.0,827362.0,821329.0,52
3,0,0,1,0,36,test,1,0,z,Wed May 07 2025 11:48:10 GMT-0400 (Eastern Daylight Time),847044.3000001907,I,m,1117,53,1,101.bmp,-120,-120,102.bmp,120,-120,103.bmp,-120,120,104.bmp,120,120,9175.900000572205,837868.3999996185,9017,yes,SM,A,103.bmp,-120,120,320362,314339,322380,316347,834312.0,828286.0,836329.0,830296.0,53
1,1,0,0,0,37,test,1,1,m,Wed May 07 2025 11:48:10 GMT-0400 (Eastern Daylight Time),856244.3999996185,I,m,1141,54,1,105.bmp,-120,-120,106.bmp,120,-120,107.bmp,-120,120,108.bmp,120,120,9192.29999923706,847052.1000003815,9017,no,SM,A,107.bmp,-120,-120,320362,314339,322380,316347,843495.0,837469.0,845512.0,839479.0,54
4,0,0,0,1,38,test,1,1,z,Wed May 07 2025 11:48:10 GMT-0400 (Eastern Daylight Time),865261.1000003815,I,z,958,55,1,109.bmp,-120,-120,110.bmp,120,-120,111.bmp,-120,120,112.bmp,120,120,9009.5,856251.6000003815,9017,yes,SM,A,112.bmp,120,120,320362,314339,322380,316347,852695.0,846669.0,854712.0,848679.0,55
2,0,1,0,0,39,test,1,1,m,Wed May 07 2025 11:48:10 GMT-0400 (Eastern Daylight Time),874461.0,I,m,1140,56,1,113.bmp,-120,-120,114.bmp,120,-120,115.bmp,-120,120,116.bmp,120,120,9193.300000190735,865267.6999998093,9017,no,SM,A,113.bmp,120,-120,320362,314339,322380,316347,861712.0,855685.0,863729.0,857696.0,56
4,0,0,0,1,40,test,1,1,m,Wed May 07 2025 11:48:10 GMT-0400 (Eastern Daylight Time),884044.3999996185,I,m,1517,57,1,117.bmp,-120,-120,118.bmp,120,-120,119.bmp,-120,120,120.bmp,120,120,9576.199999809265,874468.1999998093,9017,no,SM,A,118.bmp,120,120,320362,314339,322380,316347,870911.0,864885.0,872929.0,866896.0,57
3,0,0,1,0,41,test,1,1,z,Wed May 07 2025 11:48:10 GMT-0400 (Eastern Daylight Time),893377.6999998093,I,z,1269,58,1,121.bmp,-120,-120,122.bmp,120,-120,123.bmp,-120,120,124.bmp,120,120,9326.39999961853,884051.3000001907,9017,yes,SM,A,123.bmp,-120,120,320362,314339,322380,316347,880495.0,874469.0,882512.0,876479.0,58
2,0,1,0,0,41,test,1,0,m,Wed May 07 2025 11:48:10 GMT-0400 (Eastern Daylight Time),902860.8999996185,I,z,1424,59,1,125.bmp,-120,-120,126.bmp,120,-120,127.bmp,-120,120,128.bmp,120,120,9475.5,893385.3999996185,9017,no,SM,A,128.bmp,120,-120,320362,314339,322380,316347,889828.0,883803.0,891846.0,885813.0,59
1,1,0,0,0,42,test,1,1,z,Wed May 07 2025 11:48:10 GMT-0400 (Eastern Daylight Time),911594.3000001907,I,z,668,60,1,129.bmp,-120,-120,130.bmp,120,-120,131.bmp,-120,120,132.bmp,120,120,8723.199999809265,902871.1000003815,9017,yes,SM,A,129.bmp,-120,-120,320362,314339,322380,316347,899312.0,893289.0,901329.0,895295.0,60
2,0,1,0,0,43,test,1,1,z,Wed May 07 2025 11:48:10 GMT-0400 (Eastern Daylight Time),920844.1999998093,I,z,1184,61,1,133.bmp,-120,-120,134.bmp,120,-120,135.bmp,-120,120,136.bmp,120,120,9241.89999961853,911602.3000001907,9017,yes,SM,A,134.bmp,120,-120,320362,314339,322380,316347,908045.0,902020.0,910062.0,904029.0,61
4,0,0,0,1,44,test,1,1,z,Wed May 07 2025 11:48:10 GMT-0400 (Eastern Daylight Time),930010.8999996185,I,z,1101,62,1,141.bmp,-120,-120,142.bmp,120,-120,143.bmp,-120,120,144.bmp,120,120,9159.0,920851.8999996185,9017,yes,SM,A,144.bmp,120,120,320362,314339,322380,316347,917295.0,911269.0,919312.0,913279.0,62
1,1,0,0,0,44,test,1,0,m,Wed May 07 2025 11:48:10 GMT-0400 (Eastern Daylight Time),939211.1000003815,I,z,1143,63,1,145.bmp,-120,-120,146.bmp,120,-120,147.bmp,-120,120,148.bmp,120,120,9191.800000190735,930019.3000001907,9017,no,SM,A,145.bmp,-120,120,320362,314339,322380,316347,926462.0,920437.0,928479.0,922446.0,63
2,0,1,0,0,45,test,1,1,z,Wed May 07 2025 11:48:10 GMT-0400 (Eastern Daylight Time),948227.6000003815,I,z,950,64,1,149.bmp,-120,-120,150.bmp,120,-120,112.bmp,-120,120,101.bmp,120,120,9008.800000190735,939218.8000001907,9017,yes,SM,A,150.bmp,120,-120,320362,314339,322380,316347,935661.0,929636.0,937679.0,931646.0,64
4,0,0,0,1,45,test,1,0,m,Wed May 07 2025 11:48:10 GMT-0400 (Eastern Daylight Time),957394.1999998093,I,z,1109,65,1,102.bmp,-120,-120,103.bmp,120,-120,104.bmp,-120,120,105.bmp,120,120,9159.89999961853,948234.3000001907,9017,no,SM,A,104.bmp,120,120,320362,314339,322380,316347,944678.0,938651.0,946696.0,940662.0,65
3,0,0,1,0,46,test,1,1,m,Wed May 07 2025 11:48:10 GMT-0400 (Eastern Daylight Time),966660.8999996185,I,m,1215,66,1,106.bmp,-120,-120,107.bmp,120,-120,108.bmp,-120,120,109.bmp,120,120,9257.39999961853,957403.5,9017,no,SM,A,109.bmp,-120,120,320362,314339,322380,316347,953845.0,947821.0,955862.0,949828.0,66
2,0,1,0,0,47,test,1,1,m,Wed May 07 2025 11:48:10 GMT-0400 (Eastern Daylight Time),975893.8999996185,I,m,1171,67,1,137.bmp,-120,-120,138.bmp,120,-120,139.bmp,-120,120,140.bmp,120,120,9219.199999809265,966674.6999998093,9017,no,SM,A,139.bmp,120,-120,320362,314339,322380,316347,963111.0,957092.0,965129.0,959095.0,67
3,0,0,1,0,47,test,1,0,z,Wed May 07 2025 11:48:10 GMT-0400 (Eastern Daylight Time),984977.6999998093,I,m,1019,68,1,110.bmp,-120,-120,111.bmp,120,-120,112.bmp,-120,120,113.bmp,120,120,9077.199999809265,975900.5,9017,yes,SM,A,112.bmp,-120,120,320362,314339,322380,316347,972345.0,966318.0,974362.0,968329.0,68
1,1,0,0,0,48,test,1,1,m,Wed May 07 2025 11:48:10 GMT-0400 (Eastern Daylight Time),994077.1999998093,I,m,1047,69,1,114.bmp,-120,-120,115.bmp,120,-120,116.bmp,-120,120,117.bmp,120,120,9090.89999961853,984986.3000001907,9017,no,SM,A,115.bmp,-120,-120,320362,314339,322380,316347,981428.0,975404.0,983445.0,977412.0,69
2,0,1,0,0,49,test,1,1,m,Wed May 07 2025 11:48:10 GMT-0400 (Eastern Daylight Time),1003210.8000001907,I,m,1067,70,1,118.bmp,-120,-120,119.bmp,120,-120,120.bmp,-120,120,121.bmp,120,120,9126.60000038147,994084.1999998093,9017,no,SM,A,120.bmp,120,-120,320362,314339,322380,316347,990528.0,984501.0,992546.0,986512.0,70
4,0,0,0,1,50,test,1,1,z,Wed May 07 2025 11:48:10 GMT-0400 (Eastern Daylight Time),1012310.6000003815,I,z,1046,71,1,122.bmp,-120,-120,123.bmp,120,-120,124.bmp,-120,120,125.bmp,120,120,9093.10000038147,1003217.5,9017,yes,SM,A,125.bmp,120,120,320362,314339,322380,316347,999661.0,993635.0,1001679.0,995645.0,71
1,1,0,0,0,50,test,1,0,z,Wed May 07 2025 11:48:10 GMT-0400 (Eastern Daylight Time),1022144.1999998093,I,m,1770,72,1,126.bmp,-120,-120,127.bmp,120,-120,128.bmp,-120,120,129.bmp,120,120,9826.89999961853,1012317.3000001907,9017,yes,SM,A,126.bmp,-120,-120,320362,314339,322380,316347,1008761.0,1002735.0,1010779.0,1004745.0,72
2,0,1,0,0,51,test,1,1,z,Wed May 07 2025 11:48:10 GMT-0400 (Eastern Daylight Time),1031510.5,I,z,1313,73,1,130.bmp,-120,-120,131.bmp,120,-120,132.bmp,-120,120,133.bmp,120,120,9359.0,1022151.5,9017,yes,SM,A,131.bmp,120,-120,320362,314339,322380,316347,1018595.0,1012569.0,1020612.0,1014579.0,73
4,0,0,0,1,52,test,1,1,m,Wed May 07 2025 11:48:10 GMT-0400 (Eastern Daylight Time),1040844.6999998093,I,m,1282,74,1,134.bmp,-120,-120,135.bmp,120,-120,136.bmp,-120,120,137.bmp,120,120,9326.5,1031518.1999998093,9017,no,SM,A,136.bmp,120,120,320362,314339,322380,316347,1027961.0,1021935.0,1029979.0,1023945.0,74
2,0,1,0,0,53,test,1,1,m,Wed May 07 2025 11:48:10 GMT-0400 (Eastern Daylight Time),1049844.1000003815,I,m,933,75,1,138.bmp,-120,-120,139.bmp,120,-120,140.bmp,-120,120,141.bmp,120,120,8993.5,1040850.6000003815,9017,no,SM,A,141.bmp,120,-120,320362,314339,322380,316347,1037295.0,1031268.0,1039312.0,1033279.0,75
1,1,0,0,0,54,test,1,1,z,Wed May 07 2025 11:48:10 GMT-0400 (Eastern Daylight Time),1058644.6000003815,I,z,749,76,1,142.bmp,-120,-120,143.bmp,120,-120,144.bmp,-120,120,145.bmp,120,120,8792.800000190735,1049851.8000001907,9017,yes,SM,A,142.bmp,-120,-120,320362,314339,322380,316347,1046295.0,1040269.0,1048312.0,1042279.0,76
3,0,0,1,0,54,test,1,0,z,Wed May 07 2025 11:48:10 GMT-0400 (Eastern Daylight Time),1067627.3999996185,I,m,925,77,1,150.bmp,-120,-120,111.bmp,120,-120,101.bmp,-120,120,102.bmp,120,120,8976.29999923706,1058651.1000003815,9017,yes,SM,A,101.bmp,-120,120,320362,314339,322380,316347,1055095.0,1049068.0,1057112.0,1051078.0,77
1,1,0,0,0,54,test,1,0,m,Wed May 07 2025 11:48:10 GMT-0400 (Eastern Daylight Time),1077294.1000003815,I,z,1606,78,1,146.bmp,-120,-120,147.bmp,120,-120,148.bmp,-120,120,149.bmp,120,120,9657.400000572205,1067636.6999998093,9017,no,SM,A,147.bmp,-120,-120,320362,314339,322380,316347,1064078.0,1058054.0,1066095.0,1060062.0,78
4,0,0,0,1,54,test,1,0,m,Wed May 07 2025 11:48:10 GMT-0400 (Eastern Daylight Time),1086377.3000001907,I,z,1019,79,1,107.bmp,-120,-120,108.bmp,120,-120,109.bmp,-120,120,110.bmp,120,120,9076.60000038147,1077300.6999998093,9017,no,SM,A,107.bmp,120,120,320362,314339,322380,316347,1073745.0,1067718.0,1075762.0,1069729.0,79
3,0,0,1,0,54,test,1,0,m,Wed May 07 2025 11:48:10 GMT-0400 (Eastern Daylight Time),1095477.0,I,z,1048,80,1,103.bmp,-120,-120,104.bmp,120,-120,105.bmp,-120,120,106.bmp,120,120,9093.300000190735,1086383.6999998093,9017,no,SM,A,106.bmp,-120,120,320362,314339,322380,316347,1082828.0,1076801.0,1084845.0,1078812.0,80
