acc_sum,block,block_c,change,condition,correct,correct_response,datetime,endtime,face,project,response,response_time,row_sel,session_number,start_end,starttime,subject_id,task,task_vers,trial
0,prac,1,,1-Back,,,Thu Oct 09 2025 10:52:25 GMT-0500 (Central Daylight Time),,124_o_f_d_a.png,O,space,4105,1,1,,,7701,VNB,A,0
1,prac,1,0.0,1-Back,1.0,m,Thu Oct 09 2025 10:52:25 GMT-0500 (Central Daylight Time),204090.20000004768,071_y_f_n_a.png,O,m,1306,2,1,2101.899999976158,201988.30000007153,7701,VNB,A,1
1,prac,1,0.0,1-Back,0.0,m,Thu Oct 09 2025 10:52:25 GMT-0500 (Central Daylight Time),206907.70000004768,165_m_m_h_a.png,O,None,2013,3,1,2805.399999976158,204102.30000007153,7701,VNB,A,2
1,prac,1,0.0,1-Back,0.0,m,Thu Oct 09 2025 10:52:25 GMT-0500 (Central Daylight Time),209623.5,109_y_m_d_a.png,O,z,1913,4,1,2701.399999976158,206922.10000002384,7701,VNB,A,3
1,prac,1,0.0,1-Back,0.0,m,Thu Oct 09 2025 10:52:25 GMT-0500 (Central Daylight Time),212453.20000004768,124_o_f_n_a.png,O,None,2005,5,1,2816.7000000476837,209636.5,7701,VNB,A,4
2,prac,1,1.0,1-Back,1.0,z,Thu Oct 09 2025 10:52:25 GMT-0500 (Central Daylight Time),215234.80000007153,109_y_m_n_a.png,O,z,1980,6,1,2770.600000023842,212464.20000004768,7701,VNB,A,5
3,prac,1,0.0,1-Back,1.0,m,Thu Oct 09 2025 10:52:25 GMT-0500 (Central Daylight Time),217553.0,039_o_m_h_a.png,O,m,1527,7,1,2310.899999976158,215242.10000002384,7701,VNB,A,6
4,prac,1,0.0,1-Back,1.0,m,Thu Oct 09 2025 10:52:25 GMT-0500 (Central Daylight Time),219851.89999997616,139_m_f_d_a.png,O,m,1491,8,1,2287.0999999046326,217564.80000007153,7701,VNB,A,7
5,prac,1,1.0,1-Back,1.0,z,Thu Oct 09 2025 10:52:25 GMT-0500 (Central Daylight Time),222385.30000007153,071_y_f_d_a.png,O,z,1720,9,1,2521.8000000715256,219863.5,7701,VNB,A,8
5,prac,1,0.0,1-Back,0.0,m,Thu Oct 09 2025 10:52:25 GMT-0500 (Central Daylight Time),225199.70000004768,165_m_m_n_a.png,O,None,2016,10,1,2803.600000023842,222396.10000002384,7701,VNB,A,9
6,prac,1,0.0,1-Back,1.0,m,Thu Oct 09 2025 10:52:25 GMT-0500 (Central Daylight Time),227815.89999997616,124_o_f_h_a.png,O,m,1804,11,1,2605.5,225210.39999997616,7701,VNB,A,10
7,prac,1,0.0,1-Back,1.0,m,Thu Oct 09 2025 10:52:25 GMT-0500 (Central Daylight Time),229782.5,109_y_m_d_a.png,O,m,1192,12,1,1955.2999999523163,227827.20000004768,7701,VNB,A,11
0,prac,2,0.0,1-Back,,,Thu Oct 09 2025 10:52:25 GMT-0500 (Central Daylight Time),229782.5,124_o_f_d_a.png,O,a,10602,1,1,1955.2999999523163,227827.20000004768,7701,VNB,A,0
1,prac,2,0.0,1-Back,1.0,m,Thu Oct 09 2025 10:52:25 GMT-0500 (Central Daylight Time),245413.0,071_y_f_n_a.png,O,m,1177,2,1,1977.8999999761581,243435.10000002384,7701,VNB,A,1
2,prac,2,0.0,1-Back,1.0,m,Thu Oct 09 2025 10:52:25 GMT-0500 (Central Daylight Time),247785.5,165_m_m_h_a.png,O,m,1558,3,1,2361.2999999523163,245424.20000004768,7701,VNB,A,2
3,prac,2,0.0,1-Back,1.0,m,Thu Oct 09 2025 10:52:25 GMT-0500 (Central Daylight Time),249692.80000007153,109_y_m_d_a.png,O,m,1131,4,1,1898.1000000238419,247794.70000004768,7701,VNB,A,3
3,prac,2,0.0,1-Back,0.0,m,Thu Oct 09 2025 10:52:25 GMT-0500 (Central Daylight Time),252191.10000002384,124_o_f_n_a.png,O,z,1667,5,1,2486.7000000476837,249704.39999997616,7701,VNB,A,4
4,prac,2,1.0,1-Back,1.0,z,Thu Oct 09 2025 10:52:25 GMT-0500 (Central Daylight Time),254357.10000002384,109_y_m_n_a.png,O,z,1353,6,1,2154.7999999523163,252202.30000007153,7701,VNB,A,5
5,prac,2,0.0,1-Back,1.0,m,Thu Oct 09 2025 10:52:25 GMT-0500 (Central Daylight Time),256322.89999997616,039_o_m_h_a.png,O,m,1152,7,1,1954.0,254368.89999997616,7701,VNB,A,6
6,prac,2,0.0,1-Back,1.0,m,Thu Oct 09 2025 10:52:25 GMT-0500 (Central Daylight Time),258322.20000004768,139_m_f_d_a.png,O,m,1186,8,1,1988.6000000238419,256333.60000002384,7701,VNB,A,7
6,prac,2,1.0,1-Back,0.0,z,Thu Oct 09 2025 10:52:25 GMT-0500 (Central Daylight Time),261123.70000004768,071_y_f_d_a.png,O,None,2015,9,1,2789.0,258334.70000004768,7701,VNB,A,8
7,prac,2,0.0,1-Back,1.0,m,Thu Oct 09 2025 10:52:25 GMT-0500 (Central Daylight Time),263420.8000000715,165_m_m_n_a.png,O,m,1483,10,1,2283.100000023842,261137.70000004768,7701,VNB,A,9
8,prac,2,0.0,1-Back,1.0,m,Thu Oct 09 2025 10:52:25 GMT-0500 (Central Daylight Time),265320.2000000477,124_o_f_h_a.png,O,m,1077,11,1,1886.3000000715256,263433.89999997616,7701,VNB,A,10
9,prac,2,0.0,1-Back,1.0,m,Thu Oct 09 2025 10:52:25 GMT-0500 (Central Daylight Time),267137.3000000715,109_y_m_d_a.png,O,m,1047,12,1,1805.0,265332.3000000715,7701,VNB,A,11
0,test,1,0.0,1-Back,,,Thu Oct 09 2025 10:52:25 GMT-0500 (Central Daylight Time),267137.3000000715,071_y_f_d_a.png,O,space,6708,1,1,1805.0,265332.3000000715,7701,VNB,A,0
1,test,1,0.0,1-Back,1.0,m,Thu Oct 09 2025 10:52:25 GMT-0500 (Central Daylight Time),285580.5,139_m_f_n_a.png,O,m,1033,2,1,2055.2999999523163,283525.2000000477,7701,VNB,A,1
2,test,1,0.0,1-Back,1.0,m,Thu Oct 09 2025 10:52:25 GMT-0500 (Central Daylight Time),287614.10000002384,039_o_m_h_a.png,O,m,1008,3,1,2024.0,285590.10000002384,7701,VNB,A,2
3,test,1,1.0,1-Back,1.0,z,Thu Oct 09 2025 10:52:25 GMT-0500 (Central Daylight Time),290047.0,165_m_m_h_a.png,O,z,1406,4,1,2420.7999999523163,287626.2000000477,7701,VNB,A,3
4,test,1,0.0,1-Back,1.0,m,Thu Oct 09 2025 10:52:25 GMT-0500 (Central Daylight Time),292061.10000002384,124_o_f_n_a.png,O,m,989,5,1,2003.0,290058.10000002384,7701,VNB,A,4
4,test,1,0.0,1-Back,0.0,m,Thu Oct 09 2025 10:52:25 GMT-0500 (Central Daylight Time),294699.8000000715,109_y_m_d_a.png,O,z,1613,6,1,2628.4000000953674,292071.39999997616,7701,VNB,A,5
5,test,1,1.0,1-Back,1.0,z,Thu Oct 09 2025 10:52:25 GMT-0500 (Central Daylight Time),297395.10000002384,139_m_f_d_a.png,O,z,1670,7,1,2689.399999976158,294705.7000000477,7701,VNB,A,6
6,test,1,0.0,1-Back,1.0,m,Thu Oct 09 2025 10:52:25 GMT-0500 (Central Daylight Time),299110.7000000477,071_y_f_h_a.png,O,m,700,8,1,1704.8999999761581,297405.8000000715,7701,VNB,A,7
7,test,1,0.0,1-Back,1.0,m,Thu Oct 09 2025 10:52:25 GMT-0500 (Central Daylight Time),301374.7000000477,039_o_m_n_a.png,O,m,1247,9,1,2257.0,299117.7000000477,7701,VNB,A,8
8,test,1,0.0,1-Back,1.0,m,Thu Oct 09 2025 10:52:25 GMT-0500 (Central Daylight Time),303424.60000002384,109_y_m_h_a.png,O,m,1026,10,1,2038.1000000238419,301386.5,7701,VNB,A,9
9,test,1,0.0,1-Back,1.0,m,Thu Oct 09 2025 10:52:25 GMT-0500 (Central Daylight Time),305873.39999997616,039_o_m_d_a.png,O,m,1426,11,1,2438.6999999284744,303434.7000000477,7701,VNB,A,10
10,test,1,1.0,1-Back,1.0,z,Thu Oct 09 2025 10:52:25 GMT-0500 (Central Daylight Time),308056.60000002384,124_o_f_d_a.png,O,z,1163,12,1,2172.2000000476837,305884.39999997616,7701,VNB,A,11
11,test,1,0.0,1-Back,1.0,m,Thu Oct 09 2025 10:52:25 GMT-0500 (Central Daylight Time),309940.60000002384,165_m_m_n_a.png,O,m,860,13,1,1873.7000000476837,308066.89999997616,7701,VNB,A,12
11,test,1,1.0,1-Back,0.0,z,Thu Oct 09 2025 10:52:25 GMT-0500 (Central Daylight Time),312589.7000000477,071_y_f_n_a.png,O,m,1633,14,1,2638.8000000715256,309950.89999997616,7701,VNB,A,13
12,test,1,0.0,1-Back,1.0,m,Thu Oct 09 2025 10:52:25 GMT-0500 (Central Daylight Time),314571.39999997616,139_m_f_h_a.png,O,m,961,15,1,1970.0,312601.39999997616,7701,VNB,A,14
13,test,1,0.0,1-Back,1.0,m,Thu Oct 09 2025 10:52:25 GMT-0500 (Central Daylight Time),316470.3000000715,165_m_m_d_a.png,O,m,882,16,1,1887.9000000953674,314582.39999997616,7701,VNB,A,15
14,test,1,0.0,1-Back,1.0,m,Thu Oct 09 2025 10:52:25 GMT-0500 (Central Daylight Time),318703.3000000715,109_y_m_n_a.png,O,m,1213,17,1,2224.2000000476837,316479.10000002384,7701,VNB,A,16
15,test,1,0.0,1-Back,1.0,m,Thu Oct 09 2025 10:52:25 GMT-0500 (Central Daylight Time),320838.0,124_o_f_h_a.png,O,m,1107,18,1,2122.899999976158,318715.10000002384,7701,VNB,A,17
0,test,2,0.0,1-Back,,,Thu Oct 09 2025 10:52:25 GMT-0500 (Central Daylight Time),320838.0,109_y_m_n_a.png,O,space,2398,1,1,2122.899999976158,318715.10000002384,7701,VNB,A,0
1,test,2,0.0,1-Back,1.0,m,Thu Oct 09 2025 10:52:25 GMT-0500 (Central Daylight Time),327285.0,071_y_f_h_a.png,O,m,1016,2,1,2025.6999999284744,325259.3000000715,7701,VNB,A,1
2,test,2,1.0,1-Back,1.0,m,Thu Oct 09 2025 10:52:25 GMT-0500 (Central Daylight Time),329832.89999997616,039_o_m_n_a.png,O,m,1518,3,1,2539.0999999046326,327293.8000000715,7701,VNB,A,2
2,test,2,0.0,1-Back,0.0,m,Thu Oct 09 2025 10:52:25 GMT-0500 (Central Daylight Time),332115.7000000477,139_m_f_d_a.png,O,z,1255,4,1,2273.2000000476837,329842.5,7701,VNB,A,3
3,test,2,0.0,1-Back,1.0,z,Thu Oct 09 2025 10:52:25 GMT-0500 (Central Daylight Time),334098.89999997616,165_m_m_d_a.png,O,z,952,5,1,1973.5999999046326,332125.3000000715,7701,VNB,A,4
4,test,2,0.0,1-Back,1.0,m,Thu Oct 09 2025 10:52:25 GMT-0500 (Central Daylight Time),335897.3000000715,109_y_m_h_a.png,O,m,776,6,1,1788.6000000238419,334108.7000000477,7701,VNB,A,5
5,test,2,1.0,1-Back,1.0,z,Thu Oct 09 2025 10:52:25 GMT-0500 (Central Daylight Time),338745.8000000715,124_o_f_h_a.png,O,z,1825,7,1,2839.3000000715256,335906.5,7701,VNB,A,6
6,test,2,0.0,1-Back,1.0,m,Thu Oct 09 2025 10:52:25 GMT-0500 (Central Daylight Time),341145.8000000715,139_m_f_n_a.png,O,m,1369,8,1,2389.8000000715256,338756.0,7701,VNB,A,7
7,test,2,0.0,1-Back,1.0,m,Thu Oct 09 2025 10:52:25 GMT-0500 (Central Daylight Time),343928.2000000477,071_y_f_d_a.png,O,m,1763,9,1,2773.7000000476837,341154.5,7701,VNB,A,8
8,test,2,0.0,1-Back,1.0,m,Thu Oct 09 2025 10:52:25 GMT-0500 (Central Daylight Time),346510.3000000715,165_m_m_n_a.png,O,m,1556,10,1,2573.3000000715256,343937.0,7701,VNB,A,9
9,test,2,1.0,1-Back,1.0,m,Thu Oct 09 2025 10:52:25 GMT-0500 (Central Daylight Time),348727.3000000715,139_m_f_h_a.png,O,m,1182,11,1,2207.0,346520.3000000715,7701,VNB,A,10
10,test,2,0.0,1-Back,1.0,z,Thu Oct 09 2025 10:52:25 GMT-0500 (Central Daylight Time),350861.7000000477,039_o_m_h_a.png,O,z,1109,12,1,2125.3000000715256,348736.39999997616,7701,VNB,A,11
11,test,2,0.0,1-Back,1.0,m,Thu Oct 09 2025 10:52:25 GMT-0500 (Central Daylight Time),352975.8000000715,109_y_m_d_a.png,O,m,1082,13,1,2103.7000000476837,350872.10000002384,7701,VNB,A,12
11,test,2,0.0,1-Back,0.0,m,Thu Oct 09 2025 10:52:25 GMT-0500 (Central Daylight Time),355993.7000000477,124_o_f_n_a.png,O,None,2001,14,1,3006.7000000476837,352987.0,7701,VNB,A,13
11,test,2,0.0,1-Back,0.0,z,Thu Oct 09 2025 10:52:25 GMT-0500 (Central Daylight Time),359024.89999997616,071_y_f_n_a.png,O,None,2016,15,1,3021.1999999284744,356003.7000000477,7701,VNB,A,14
12,test,2,1.0,1-Back,1.0,m,Thu Oct 09 2025 10:52:25 GMT-0500 (Central Daylight Time),361056.7000000477,165_m_m_h_a.png,O,m,1004,16,1,2022.5,359034.2000000477,7701,VNB,A,15
13,test,2,0.0,1-Back,1.0,m,Thu Oct 09 2025 10:52:25 GMT-0500 (Central Daylight Time),363305.39999997616,124_o_f_d_a.png,O,m,1217,17,1,2236.0,361069.39999997616,7701,VNB,A,16
14,test,2,1.0,1-Back,1.0,z,Thu Oct 09 2025 10:52:25 GMT-0500 (Central Daylight Time),365271.7000000477,039_o_m_d_a.png,O,z,947,18,1,1956.5,363315.2000000477,7701,VNB,A,17
0,test,3,1.0,1-Back,,,Thu Oct 09 2025 10:52:25 GMT-0500 (Central Daylight Time),365271.7000000477,124_o_f_h_a.png,O,space,3155,1,1,1956.5,363315.2000000477,7701,VNB,A,0
0,test,3,0.0,1-Back,0.0,m,Thu Oct 09 2025 10:52:25 GMT-0500 (Central Daylight Time),372288.39999997616,139_m_f_d_a.png,O,z,784,2,1,1788.7999999523163,370499.60000002384,7701,VNB,A,1
1,test,3,1.0,1-Back,1.0,m,Thu Oct 09 2025 10:52:25 GMT-0500 (Central Daylight Time),374636.10000002384,165_m_m_n_a.png,O,m,1324,3,1,2333.2999999523163,372302.8000000715,7701,VNB,A,2
2,test,3,0.0,1-Back,1.0,z,Thu Oct 09 2025 10:52:25 GMT-0500 (Central Daylight Time),377151.10000002384,124_o_f_n_a.png,O,z,1488,4,1,2502.7000000476837,374648.39999997616,7701,VNB,A,3
3,test,3,1.0,1-Back,1.0,m,Thu Oct 09 2025 10:52:25 GMT-0500 (Central Daylight Time),379734.5,039_o_m_d_a.png,O,m,1564,5,1,2571.600000023842,377162.89999997616,7701,VNB,A,4
4,test,3,0.0,1-Back,1.0,m,Thu Oct 09 2025 10:52:25 GMT-0500 (Central Daylight Time),381817.10000002384,071_y_f_h_a.png,O,m,1054,6,1,2072.600000023842,379744.5,7701,VNB,A,5
5,test,3,0.0,1-Back,1.0,z,Thu Oct 09 2025 10:52:25 GMT-0500 (Central Daylight Time),384032.10000002384,109_y_m_h_a.png,O,z,1194,7,1,2202.7000000476837,381829.39999997616,7701,VNB,A,6
6,test,3,0.0,1-Back,1.0,m,Thu Oct 09 2025 10:52:25 GMT-0500 (Central Daylight Time),386014.7000000477,139_m_f_n_a.png,O,m,956,8,1,1971.1000000238419,384043.60000002384,7701,VNB,A,7
7,test,3,0.0,1-Back,1.0,m,Thu Oct 09 2025 10:52:25 GMT-0500 (Central Daylight Time),388248.8000000715,071_y_f_d_a.png,O,m,1204,9,1,2222.3000000715256,386026.5,7701,VNB,A,8
8,test,3,1.0,1-Back,1.0,m,Thu Oct 09 2025 10:52:25 GMT-0500 (Central Daylight Time),391164.8000000715,039_o_m_n_a.png,O,m,1889,10,1,2904.9000000953674,388259.89999997616,7701,VNB,A,9
9,test,3,0.0,1-Back,1.0,m,Thu Oct 09 2025 10:52:25 GMT-0500 (Central Daylight Time),393663.5,165_m_m_h_a.png,O,m,1455,11,1,2484.7999999523163,391178.7000000477,7701,VNB,A,10
10,test,3,0.0,1-Back,1.0,z,Thu Oct 09 2025 10:52:25 GMT-0500 (Central Daylight Time),395695.39999997616,139_m_f_h_a.png,O,z,1004,12,1,2016.1999999284744,393679.2000000477,7701,VNB,A,11
11,test,3,1.0,1-Back,1.0,m,Thu Oct 09 2025 10:52:25 GMT-0500 (Central Daylight Time),397561.3000000715,124_o_f_d_a.png,O,m,836,13,1,1859.3000000715256,395702.0,7701,VNB,A,12
11,test,3,0.0,1-Back,0.0,z,Thu Oct 09 2025 10:52:25 GMT-0500 (Central Daylight Time),400094.0,165_m_m_d_a.png,O,m,1506,14,1,2520.7999999523163,397573.2000000477,7701,VNB,A,13
12,test,3,0.0,1-Back,1.0,m,Thu Oct 09 2025 10:52:25 GMT-0500 (Central Daylight Time),402527.10000002384,109_y_m_n_a.png,O,m,1404,15,1,2421.100000023842,400106.0,7701,VNB,A,14
13,test,3,1.0,1-Back,1.0,m,Thu Oct 09 2025 10:52:25 GMT-0500 (Central Daylight Time),404575.2000000477,039_o_m_h_a.png,O,m,1029,16,1,2035.8000000715256,402539.39999997616,7701,VNB,A,15
14,test,3,0.0,1-Back,1.0,m,Thu Oct 09 2025 10:52:25 GMT-0500 (Central Daylight Time),406942.60000002384,109_y_m_d_a.png,O,m,1349,17,1,2358.0,404584.60000002384,7701,VNB,A,16
15,test,3,1.0,1-Back,1.0,m,Thu Oct 09 2025 10:52:25 GMT-0500 (Central Daylight Time),409640.89999997616,071_y_f_n_a.png,O,m,1670,18,1,2686.899999976158,406954.0,7701,VNB,A,17
0,test,4,1.0,1-Back,,,Thu Oct 09 2025 10:52:25 GMT-0500 (Central Daylight Time),409640.89999997616,165_m_m_d_a.png,O,space,2299,1,1,2686.899999976158,406954.0,7701,VNB,A,0
0,test,4,0.0,1-Back,0.0,z,Thu Oct 09 2025 10:52:25 GMT-0500 (Central Daylight Time),416989.2000000477,039_o_m_d_a.png,O,None,2016,2,1,3022.100000023842,413967.10000002384,7701,VNB,A,1
1,test,4,0.0,1-Back,1.0,m,Thu Oct 09 2025 10:52:25 GMT-0500 (Central Daylight Time),419172.7000000477,109_y_m_h_a.png,O,m,1150,3,1,2174.0,416998.7000000477,7701,VNB,A,2
2,test,4,0.0,1-Back,1.0,m,Thu Oct 09 2025 10:52:25 GMT-0500 (Central Daylight Time),421153.8000000715,139_m_f_n_a.png,O,m,961,4,1,1971.6000000238419,419182.2000000477,7701,VNB,A,3
3,test,4,1.0,1-Back,1.0,m,Thu Oct 09 2025 10:52:25 GMT-0500 (Central Daylight Time),423353.60000002384,124_o_f_h_a.png,O,m,1170,5,1,2188.7999999523163,421164.8000000715,7701,VNB,A,4
4,test,4,0.0,1-Back,1.0,m,Thu Oct 09 2025 10:52:25 GMT-0500 (Central Daylight Time),425469.10000002384,165_m_m_n_a.png,O,m,1090,6,1,2105.899999976158,423363.2000000477,7701,VNB,A,5
5,test,4,0.0,1-Back,1.0,m,Thu Oct 09 2025 10:52:25 GMT-0500 (Central Daylight Time),428152.5,109_y_m_d_a.png,O,m,1653,7,1,2673.399999976158,425479.10000002384,7701,VNB,A,6
6,test,4,1.0,1-Back,1.0,z,Thu Oct 09 2025 10:52:25 GMT-0500 (Central Daylight Time),430668.10000002384,071_y_f_d_a.png,O,z,1491,8,1,2504.399999976158,428163.7000000477,7701,VNB,A,7
7,test,4,0.0,1-Back,1.0,m,Thu Oct 09 2025 10:52:25 GMT-0500 (Central Daylight Time),432716.39999997616,139_m_f_h_a.png,O,m,1016,9,1,2038.0,430678.39999997616,7701,VNB,A,8
7,test,4,0.0,1-Back,0.0,z,Thu Oct 09 2025 10:52:25 GMT-0500 (Central Daylight Time),435432.39999997616,039_o_m_h_a.png,O,m,1685,10,1,2705.6999999284744,432726.7000000477,7701,VNB,A,9
8,test,4,1.0,1-Back,1.0,m,Thu Oct 09 2025 10:52:25 GMT-0500 (Central Daylight Time),437416.0,124_o_f_n_a.png,O,m,956,11,1,1973.3999999761581,435442.60000002384,7701,VNB,A,10
9,test,4,0.0,1-Back,1.0,m,Thu Oct 09 2025 10:52:25 GMT-0500 (Central Daylight Time),439949.7000000477,139_m_f_d_a.png,O,m,1508,12,1,2524.0,437425.7000000477,7701,VNB,A,11
10,test,4,0.0,1-Back,1.0,m,Thu Oct 09 2025 10:52:25 GMT-0500 (Central Daylight Time),442480.0,071_y_f_n_a.png,O,m,1503,13,1,2519.0,439961.0,7701,VNB,A,12
11,test,4,0.0,1-Back,1.0,m,Thu Oct 09 2025 10:52:25 GMT-0500 (Central Daylight Time),444747.10000002384,124_o_f_d_a.png,O,m,1234,14,1,2257.2999999523163,442489.8000000715,7701,VNB,A,13
12,test,4,0.0,1-Back,1.0,m,Thu Oct 09 2025 10:52:25 GMT-0500 (Central Daylight Time),446746.0,071_y_f_h_a.png,O,m,978,15,1,1987.6000000238419,444758.39999997616,7701,VNB,A,14
13,test,4,1.0,1-Back,1.0,z,Thu Oct 09 2025 10:52:25 GMT-0500 (Central Daylight Time),448878.8000000715,165_m_m_h_a.png,O,z,1107,16,1,2120.8000000715256,446758.0,7701,VNB,A,15
14,test,4,0.0,1-Back,1.0,m,Thu Oct 09 2025 10:52:25 GMT-0500 (Central Daylight Time),450928.10000002384,039_o_m_n_a.png,O,m,1015,17,1,2038.7999999523163,448889.3000000715,7701,VNB,A,16
15,test,4,1.0,1-Back,1.0,z,Thu Oct 09 2025 10:52:25 GMT-0500 (Central Daylight Time),452895.2000000477,109_y_m_n_a.png,O,z,940,18,1,1957.1000000238419,450938.10000002384,7701,VNB,A,17
0,test,5,1.0,1-Back,,,Thu Oct 09 2025 10:52:25 GMT-0500 (Central Daylight Time),452895.2000000477,039_o_m_n_a.png,O,space,2213,1,1,1957.1000000238419,450938.10000002384,7701,VNB,A,0
1,test,5,1.0,1-Back,1.0,m,Thu Oct 09 2025 10:52:25 GMT-0500 (Central Daylight Time),459343.0,124_o_f_h_a.png,O,m,1200,2,1,2205.1999999284744,457137.8000000715,7701,VNB,A,1
2,test,5,0.0,1-Back,1.0,m,Thu Oct 09 2025 10:52:25 GMT-0500 (Central Daylight Time),461358.2000000477,109_y_m_d_a.png,O,m,999,3,1,2007.1000000238419,459351.10000002384,7701,VNB,A,2
3,test,5,0.0,1-Back,1.0,z,Thu Oct 09 2025 10:52:25 GMT-0500 (Central Daylight Time),463540.7000000477,039_o_m_d_a.png,O,z,1158,4,1,2170.399999976158,461370.3000000715,7701,VNB,A,3
4,test,5,0.0,1-Back,1.0,m,Thu Oct 09 2025 10:52:25 GMT-0500 (Central Daylight Time),465839.7000000477,139_m_f_h_a.png,O,m,1269,5,1,2287.0,463552.7000000477,7701,VNB,A,4
5,test,5,0.0,1-Back,1.0,m,Thu Oct 09 2025 10:52:25 GMT-0500 (Central Daylight Time),467690.0,071_y_f_n_a.png,O,m,827,6,1,1839.2999999523163,465850.7000000477,7701,VNB,A,5
5,test,5,1.0,1-Back,0.0,z,Thu Oct 09 2025 10:52:25 GMT-0500 (Central Daylight Time),470338.5,124_o_f_n_a.png,O,m,1627,7,1,2638.600000023842,467699.89999997616,7701,VNB,A,6
5,test,5,0.0,1-Back,0.0,m,Thu Oct 09 2025 10:52:25 GMT-0500 (Central Daylight Time),472555.5,139_m_f_d_a.png,O,z,1185,8,1,2205.399999976158,470350.10000002384,7701,VNB,A,7
6,test,5,0.0,1-Back,1.0,m,Thu Oct 09 2025 10:52:25 GMT-0500 (Central Daylight Time),474453.39999997616,109_y_m_h_a.png,O,m,874,9,1,1886.5999999046326,472566.8000000715,7701,VNB,A,8
7,test,5,0.0,1-Back,1.0,m,Thu Oct 09 2025 10:52:25 GMT-0500 (Central Daylight Time),477203.89999997616,071_y_f_d_a.png,O,m,1717,10,1,2739.899999976158,474464.0,7701,VNB,A,9
8,test,5,0.0,1-Back,1.0,m,Thu Oct 09 2025 10:52:25 GMT-0500 (Central Daylight Time),479403.89999997616,165_m_m_n_a.png,O,m,1170,11,1,2190.2999999523163,477213.60000002384,7701,VNB,A,10
9,test,5,1.0,1-Back,1.0,z,Thu Oct 09 2025 10:52:25 GMT-0500 (Central Daylight Time),481368.60000002384,139_m_f_n_a.png,O,z,938,12,1,1953.7000000476837,479414.89999997616,7701,VNB,A,11
10,test,5,0.0,1-Back,1.0,m,Thu Oct 09 2025 10:52:25 GMT-0500 (Central Daylight Time),483399.8000000715,039_o_m_h_a.png,O,m,1010,13,1,2019.5,481380.3000000715,7701,VNB,A,12
11,test,5,0.0,1-Back,1.0,z,Thu Oct 09 2025 10:52:25 GMT-0500 (Central Daylight Time),485834.60000002384,165_m_m_h_a.png,O,z,1402,14,1,2428.2999999523163,483406.3000000715,7701,VNB,A,13
12,test,5,1.0,1-Back,1.0,m,Thu Oct 09 2025 10:52:25 GMT-0500 (Central Daylight Time),488133.2000000477,124_o_f_d_a.png,O,m,1267,15,1,2283.2000000476837,485850.0,7701,VNB,A,14
13,test,5,0.0,1-Back,1.0,m,Thu Oct 09 2025 10:52:25 GMT-0500 (Central Daylight Time),490798.60000002384,109_y_m_n_a.png,O,m,1640,16,1,2654.899999976158,488143.7000000477,7701,VNB,A,15
14,test,5,0.0,1-Back,1.0,m,Thu Oct 09 2025 10:52:25 GMT-0500 (Central Daylight Time),492831.2000000477,071_y_f_h_a.png,O,m,1012,17,1,2020.2000000476837,490811.0,7701,VNB,A,16
15,test,5,0.0,1-Back,1.0,m,Thu Oct 09 2025 10:52:25 GMT-0500 (Central Daylight Time),495162.5,165_m_m_d_a.png,O,m,1308,18,1,2320.399999976158,492842.10000002384,7701,VNB,A,17
0,prac,1,0.0,2-Back,,,Thu Oct 09 2025 10:52:25 GMT-0500 (Central Daylight Time),495162.5,139_m_f_n_a.png,O,space,4066,1,1,2320.399999976158,492842.10000002384,7701,VNB,A,0
0,prac,1,0.0,2-Back,,,Thu Oct 09 2025 10:52:25 GMT-0500 (Central Daylight Time),495162.5,124_o_f_h_a.png,O,space,4066,2,1,2320.399999976158,492842.10000002384,7701,VNB,A,0
1,prac,1,0.0,2-Back,1.0,m,Thu Oct 09 2025 10:52:25 GMT-0500 (Central Daylight Time),680122.3999999762,039_o_m_d_a.png,O,m,1469,3,1,2270.7999999523163,677851.6000000238,7701,VNB,A,1
1,prac,1,1.0,2-Back,0.0,z,Thu Oct 09 2025 10:52:25 GMT-0500 (Central Daylight Time),682937.0,165_m_m_h_a.png,O,None,2016,4,1,2803.7999999523163,680133.2000000477,7701,VNB,A,2
1,prac,1,0.0,2-Back,0.0,m,Thu Oct 09 2025 10:52:25 GMT-0500 (Central Daylight Time),685753.5,071_y_f_n_a.png,O,None,2019,5,1,2804.7999999523163,682948.7000000477,7701,VNB,A,3
1,prac,1,1.0,2-Back,0.0,z,Thu Oct 09 2025 10:52:25 GMT-0500 (Central Daylight Time),687803.2000000477,039_o_m_h_a.png,O,m,1245,6,1,2039.3999999761581,685763.8000000715,7701,VNB,A,4
1,prac,1,1.0,2-Back,0.0,z,Thu Oct 09 2025 10:52:25 GMT-0500 (Central Daylight Time),690519.3000000715,109_y_m_n_a.png,O,m,1912,7,1,2705.3000000715256,687814.0,7701,VNB,A,5
2,prac,1,0.0,2-Back,1.0,m,Thu Oct 09 2025 10:52:25 GMT-0500 (Central Daylight Time),693184.8999999762,139_m_f_d_a.png,O,m,1876,8,1,2654.5,690530.3999999762,7701,VNB,A,6
2,prac,1,0.0,2-Back,0.0,m,Thu Oct 09 2025 10:52:25 GMT-0500 (Central Daylight Time),696016.8000000715,124_o_f_d_a.png,O,None,2007,9,1,2820.9000000953674,693195.8999999762,7701,VNB,A,7
3,prac,1,0.0,2-Back,1.0,m,Thu Oct 09 2025 10:52:25 GMT-0500 (Central Daylight Time),698299.5,165_m_m_h_a.png,O,m,1505,10,1,2271.100000023842,696028.3999999762,7701,VNB,A,8
3,prac,1,1.0,2-Back,0.0,z,Thu Oct 09 2025 10:52:25 GMT-0500 (Central Daylight Time),700715.3000000715,071_y_f_d_a.png,O,m,1617,11,1,2404.2000000476837,698311.1000000238,7701,VNB,A,9
4,prac,1,0.0,2-Back,1.0,m,Thu Oct 09 2025 10:52:25 GMT-0500 (Central Daylight Time),703198.8999999762,039_o_m_n_a.png,O,m,1699,12,1,2473.2999999523163,700725.6000000238,7701,VNB,A,10
0,prac,2,0.0,2-Back,,,Thu Oct 09 2025 10:52:25 GMT-0500 (Central Daylight Time),703198.8999999762,139_m_f_n_a.png,O,a,8218,1,1,2473.2999999523163,700725.6000000238,7701,VNB,A,0
0,prac,2,0.0,2-Back,,,Thu Oct 09 2025 10:52:25 GMT-0500 (Central Daylight Time),703198.8999999762,124_o_f_h_a.png,O,a,8218,2,1,2473.2999999523163,700725.6000000238,7701,VNB,A,0
1,prac,2,0.0,2-Back,1.0,m,Thu Oct 09 2025 10:52:25 GMT-0500 (Central Daylight Time),718494.3999999762,039_o_m_d_a.png,O,m,1153,3,1,1939.6999999284744,716554.7000000477,7701,VNB,A,1
1,prac,2,1.0,2-Back,0.0,z,Thu Oct 09 2025 10:52:25 GMT-0500 (Central Daylight Time),721275.3000000715,165_m_m_h_a.png,O,None,2003,4,1,2768.4000000953674,718506.8999999762,7701,VNB,A,2
2,prac,2,0.0,2-Back,1.0,m,Thu Oct 09 2025 10:52:25 GMT-0500 (Central Daylight Time),723974.3000000715,071_y_f_n_a.png,O,m,1897,5,1,2688.600000023842,721285.7000000477,7701,VNB,A,3
2,prac,2,1.0,2-Back,0.0,z,Thu Oct 09 2025 10:52:25 GMT-0500 (Central Daylight Time),726675.0,039_o_m_h_a.png,O,m,1898,6,1,2690.899999976158,723984.1000000238,7701,VNB,A,4
2,prac,2,1.0,2-Back,0.0,z,Thu Oct 09 2025 10:52:25 GMT-0500 (Central Daylight Time),729272.7000000477,109_y_m_n_a.png,O,m,1789,7,1,2586.3000000715256,726686.3999999762,7701,VNB,A,5
2,prac,2,0.0,2-Back,0.0,m,Thu Oct 09 2025 10:52:25 GMT-0500 (Central Daylight Time),732088.8999999762,139_m_f_d_a.png,O,None,2016,8,1,2804.6999999284744,729284.2000000477,7701,VNB,A,6
2,prac,2,0.0,2-Back,0.0,m,Thu Oct 09 2025 10:52:25 GMT-0500 (Central Daylight Time),734638.6000000238,124_o_f_d_a.png,O,z,1721,9,1,2538.7999999523163,732099.8000000715,7701,VNB,A,7
3,prac,2,0.0,2-Back,1.0,m,Thu Oct 09 2025 10:52:25 GMT-0500 (Central Daylight Time),736888.1000000238,165_m_m_h_a.png,O,m,1462,10,1,2241.0,734647.1000000238,7701,VNB,A,8
4,prac,2,1.0,2-Back,1.0,z,Thu Oct 09 2025 10:52:25 GMT-0500 (Central Daylight Time),738919.7000000477,071_y_f_d_a.png,O,z,1214,11,1,2019.3000000715256,736900.3999999762,7701,VNB,A,9
5,prac,2,0.0,2-Back,1.0,m,Thu Oct 09 2025 10:52:25 GMT-0500 (Central Daylight Time),741302.6000000238,039_o_m_n_a.png,O,m,1583,12,1,2372.2000000476837,738930.3999999762,7701,VNB,A,10
0,test,1,0.0,2-Back,,,Thu Oct 09 2025 10:52:25 GMT-0500 (Central Daylight Time),741302.6000000238,109_y_m_h_a.png,O,space,6956,1,1,2372.2000000476837,738930.3999999762,7701,VNB,A,0
0,test,1,0.0,2-Back,,,Thu Oct 09 2025 10:52:25 GMT-0500 (Central Daylight Time),741302.6000000238,124_o_f_n_a.png,O,space,6956,2,1,2372.2000000476837,738930.3999999762,7701,VNB,A,0
1,test,1,0.0,2-Back,1.0,z,Thu Oct 09 2025 10:52:25 GMT-0500 (Central Daylight Time),778990.3999999762,039_o_m_h_a.png,O,z,1540,3,1,2552.899999976158,776437.5,7701,VNB,A,1
2,test,1,0.0,2-Back,1.0,m,Thu Oct 09 2025 10:52:25 GMT-0500 (Central Daylight Time),781756.2000000477,139_m_f_d_a.png,O,m,1733,4,1,2754.7000000476837,779001.5,7701,VNB,A,2
2,test,1,1.0,2-Back,0.0,m,Thu Oct 09 2025 10:52:25 GMT-0500 (Central Daylight Time),784123.1000000238,109_y_m_n_a.png,O,z,1344,5,1,2355.399999976158,781767.7000000477,7701,VNB,A,3
2,test,1,0.0,2-Back,0.0,z,Thu Oct 09 2025 10:52:25 GMT-0500 (Central Daylight Time),787072.6000000238,071_y_f_d_a.png,O,m,1933,6,1,2938.2000000476837,784134.3999999762,7701,VNB,A,4
3,test,1,0.0,2-Back,1.0,m,Thu Oct 09 2025 10:52:25 GMT-0500 (Central Daylight Time),789771.5,165_m_m_h_a.png,O,m,1675,7,1,2689.100000023842,787082.3999999762,7701,VNB,A,5
3,test,1,1.0,2-Back,0.0,m,Thu Oct 09 2025 10:52:25 GMT-0500 (Central Daylight Time),792803.1000000238,071_y_f_n_a.png,O,None,2016,8,1,3021.2999999523163,789781.8000000715,7701,VNB,A,6
3,test,1,0.0,2-Back,0.0,z,Thu Oct 09 2025 10:52:25 GMT-0500 (Central Daylight Time),795835.8000000715,124_o_f_h_a.png,O,None,2015,9,1,3021.4000000953674,792814.3999999762,7701,VNB,A,7
4,test,1,0.0,2-Back,1.0,m,Thu Oct 09 2025 10:52:25 GMT-0500 (Central Daylight Time),798117.8999999762,039_o_m_d_a.png,O,m,1260,10,1,2272.0999999046326,795845.8000000715,7701,VNB,A,8
4,test,1,1.0,2-Back,0.0,m,Thu Oct 09 2025 10:52:25 GMT-0500 (Central Daylight Time),800917.2000000477,165_m_m_d_a.png,O,z,1767,11,1,2788.600000023842,798128.6000000238,7701,VNB,A,9
4,test,1,0.0,2-Back,0.0,m,Thu Oct 09 2025 10:52:25 GMT-0500 (Central Daylight Time),803950.8000000715,139_m_f_n_a.png,O,None,2017,12,1,3023.100000023842,800927.7000000477,7701,VNB,A,10
4,test,1,0.0,2-Back,0.0,m,Thu Oct 09 2025 10:52:25 GMT-0500 (Central Daylight Time),806416.0,071_y_f_h_a.png,O,z,1438,13,1,2454.600000023842,803961.3999999762,7701,VNB,A,11
4,test,1,0.0,2-Back,0.0,z,Thu Oct 09 2025 10:52:25 GMT-0500 (Central Daylight Time),809330.1000000238,165_m_m_n_a.png,O,m,1884,14,1,2903.5,806426.6000000238,7701,VNB,A,12
4,test,1,0.0,2-Back,0.0,m,Thu Oct 09 2025 10:52:25 GMT-0500 (Central Daylight Time),812364.5,109_y_m_d_a.png,O,None,2016,15,1,3024.5,809340.0,7701,VNB,A,13
4,test,1,1.0,2-Back,0.0,m,Thu Oct 09 2025 10:52:25 GMT-0500 (Central Daylight Time),815078.3999999762,139_m_f_h_a.png,O,z,1688,16,1,2703.5999999046326,812374.8000000715,7701,VNB,A,14
4,test,1,0.0,2-Back,0.0,z,Thu Oct 09 2025 10:52:25 GMT-0500 (Central Daylight Time),818111.7000000477,124_o_f_d_a.png,O,None,2013,17,1,3024.5,815087.2000000477,7701,VNB,A,15
5,test,1,0.0,2-Back,1.0,m,Thu Oct 09 2025 10:52:25 GMT-0500 (Central Daylight Time),820193.3000000715,039_o_m_n_a.png,O,m,1060,18,1,2070.7000000476837,818122.6000000238,7701,VNB,A,16
0,test,2,0.0,2-Back,,,Thu Oct 09 2025 10:52:25 GMT-0500 (Central Daylight Time),820193.3000000715,165_m_m_h_a.png,O,space,6732,1,1,2070.7000000476837,818122.6000000238,7701,VNB,A,0
0,test,2,0.0,2-Back,,,Thu Oct 09 2025 10:52:25 GMT-0500 (Central Daylight Time),820193.3000000715,071_y_f_n_a.png,O,space,6732,2,1,2070.7000000476837,818122.6000000238,7701,VNB,A,0
1,test,2,1.0,2-Back,1.0,z,Thu Oct 09 2025 10:52:25 GMT-0500 (Central Daylight Time),834572.8999999762,124_o_f_h_a.png,O,z,1483,3,1,2503.899999976158,832069.0,7701,VNB,A,1
2,test,2,0.0,2-Back,1.0,m,Thu Oct 09 2025 10:52:25 GMT-0500 (Central Daylight Time),837505.8000000715,039_o_m_d_a.png,O,m,1904,4,1,2920.9000000953674,834584.8999999762,7701,VNB,A,2
2,test,2,0.0,2-Back,0.0,m,Thu Oct 09 2025 10:52:25 GMT-0500 (Central Daylight Time),840389.2000000477,139_m_f_d_a.png,O,z,1867,5,1,2873.8000000715256,837515.3999999762,7701,VNB,A,3
2,test,2,0.0,2-Back,0.0,m,Thu Oct 09 2025 10:52:25 GMT-0500 (Central Daylight Time),843421.7000000477,109_y_m_h_a.png,O,None,2017,6,1,3020.3000000715256,840401.3999999762,7701,VNB,A,4
2,test,2,0.0,2-Back,0.0,m,Thu Oct 09 2025 10:52:25 GMT-0500 (Central Daylight Time),845802.0,124_o_f_n_a.png,O,z,1350,7,1,2368.899999976158,843433.1000000238,7701,VNB,A,5
2,test,2,1.0,2-Back,0.0,z,Thu Oct 09 2025 10:52:25 GMT-0500 (Central Daylight Time),848551.8000000715,039_o_m_h_a.png,O,m,1729,8,1,2739.7000000476837,845812.1000000238,7701,VNB,A,6
3,test,2,0.0,2-Back,1.0,m,Thu Oct 09 2025 10:52:25 GMT-0500 (Central Daylight Time),851334.8000000715,071_y_f_d_a.png,O,m,1766,9,1,2774.0,848560.8000000715,7701,VNB,A,7
3,test,2,0.0,2-Back,0.0,m,Thu Oct 09 2025 10:52:25 GMT-0500 (Central Daylight Time),854366.2000000477,109_y_m_d_a.png,O,None,2015,10,1,3020.399999976158,851345.8000000715,7701,VNB,A,8
4,test,2,0.0,2-Back,1.0,m,Thu Oct 09 2025 10:52:25 GMT-0500 (Central Daylight Time),857183.8999999762,165_m_m_n_a.png,O,m,1789,11,1,2806.7999999523163,854377.1000000238,7701,VNB,A,9
4,test,2,0.0,2-Back,0.0,m,Thu Oct 09 2025 10:52:25 GMT-0500 (Central Daylight Time),859597.8999999762,139_m_f_h_a.png,O,z,1398,12,1,2402.899999976158,857195.0,7701,VNB,A,10
4,test,2,1.0,2-Back,0.0,z,Thu Oct 09 2025 10:52:25 GMT-0500 (Central Daylight Time),862246.5,039_o_m_n_a.png,O,m,1621,13,1,2637.5,859609.0,7701,VNB,A,11
5,test,2,0.0,2-Back,1.0,m,Thu Oct 09 2025 10:52:25 GMT-0500 (Central Daylight Time),865030.2000000477,124_o_f_d_a.png,O,m,1750,14,1,2773.7000000476837,862256.5,7701,VNB,A,12
5,test,2,0.0,2-Back,0.0,m,Thu Oct 09 2025 10:52:25 GMT-0500 (Central Daylight Time),868061.8999999762,071_y_f_h_a.png,O,None,2015,15,1,3021.899999976158,865040.0,7701,VNB,A,13
6,test,2,0.0,2-Back,1.0,z,Thu Oct 09 2025 10:52:25 GMT-0500 (Central Daylight Time),870910.8999999762,165_m_m_d_a.png,O,z,1817,16,1,2838.2999999523163,868072.6000000238,7701,VNB,A,14
6,test,2,0.0,2-Back,0.0,m,Thu Oct 09 2025 10:52:25 GMT-0500 (Central Daylight Time),873943.6000000238,109_y_m_n_a.png,O,None,2016,17,1,3021.5,870922.1000000238,7701,VNB,A,15
6,test,2,1.0,2-Back,0.0,m,Thu Oct 09 2025 10:52:25 GMT-0500 (Central Daylight Time),876726.0,139_m_f_n_a.png,O,z,1757,18,1,2772.600000023842,873953.3999999762,7701,VNB,A,16
0,test,3,1.0,2-Back,,,Thu Oct 09 2025 10:52:25 GMT-0500 (Central Daylight Time),876726.0,039_o_m_n_a.png,O,space,3600,1,1,2772.600000023842,873953.3999999762,7701,VNB,A,0
0,test,3,1.0,2-Back,,,Thu Oct 09 2025 10:52:25 GMT-0500 (Central Daylight Time),876726.0,124_o_f_d_a.png,O,space,3600,2,1,2772.600000023842,873953.3999999762,7701,VNB,A,0
1,test,3,0.0,2-Back,1.0,m,Thu Oct 09 2025 10:52:25 GMT-0500 (Central Daylight Time),887556.6000000238,071_y_f_h_a.png,O,m,1142,3,1,2153.899999976158,885402.7000000477,7701,VNB,A,1
2,test,3,0.0,2-Back,1.0,z,Thu Oct 09 2025 10:52:25 GMT-0500 (Central Daylight Time),890288.3000000715,139_m_f_d_a.png,O,z,1712,4,1,2718.8000000715256,887569.5,7701,VNB,A,2
2,test,3,1.0,2-Back,0.0,m,Thu Oct 09 2025 10:52:25 GMT-0500 (Central Daylight Time),893321.3999999762,109_y_m_n_a.png,O,None,2015,5,1,3023.399999976158,890298.0,7701,VNB,A,3
2,test,3,0.0,2-Back,0.0,m,Thu Oct 09 2025 10:52:25 GMT-0500 (Central Daylight Time),896352.8000000715,039_o_m_h_a.png,O,None,2016,6,1,3020.600000023842,893332.2000000477,7701,VNB,A,4
3,test,3,0.0,2-Back,1.0,z,Thu Oct 09 2025 10:52:25 GMT-0500 (Central Daylight Time),898952.7000000477,071_y_f_n_a.png,O,z,1581,7,1,2586.7000000476837,896366.0,7701,VNB,A,5
4,test,3,1.0,2-Back,1.0,m,Thu Oct 09 2025 10:52:25 GMT-0500 (Central Daylight Time),901918.8000000715,165_m_m_d_a.png,O,m,1934,8,1,2955.2000000476837,898963.6000000238,7701,VNB,A,6
4,test,3,0.0,2-Back,0.0,m,Thu Oct 09 2025 10:52:25 GMT-0500 (Central Daylight Time),904668.8999999762,109_y_m_d_a.png,O,z,1731,9,1,2739.399999976158,901929.5,7701,VNB,A,7
5,test,3,0.0,2-Back,1.0,m,Thu Oct 09 2025 10:52:25 GMT-0500 (Central Daylight Time),907216.7000000477,124_o_f_h_a.png,O,m,1528,10,1,2536.2000000476837,904680.5,7701,VNB,A,8
6,test,3,1.0,2-Back,1.0,m,Thu Oct 09 2025 10:52:25 GMT-0500 (Central Daylight Time),909965.8000000715,139_m_f_n_a.png,O,m,1726,11,1,2739.2000000476837,907226.6000000238,7701,VNB,A,9
7,test,3,1.0,2-Back,1.0,z,Thu Oct 09 2025 10:52:25 GMT-0500 (Central Daylight Time),912598.8999999762,165_m_m_h_a.png,O,z,1615,12,1,2621.1999999284744,909977.7000000477,7701,VNB,A,10
8,test,3,0.0,2-Back,1.0,m,Thu Oct 09 2025 10:52:25 GMT-0500 (Central Daylight Time),915080.0,071_y_f_d_a.png,O,m,1453,13,1,2471.5,912608.5,7701,VNB,A,11
9,test,3,0.0,2-Back,1.0,m,Thu Oct 09 2025 10:52:25 GMT-0500 (Central Daylight Time),918013.7000000477,124_o_f_n_a.png,O,m,1916,14,1,2923.399999976158,915090.3000000715,7701,VNB,A,12
9,test,3,0.0,2-Back,0.0,z,Thu Oct 09 2025 10:52:25 GMT-0500 (Central Daylight Time),920961.3999999762,039_o_m_d_a.png,O,m,1928,15,1,2941.0,918020.3999999762,7701,VNB,A,13
9,test,3,1.0,2-Back,0.0,m,Thu Oct 09 2025 10:52:25 GMT-0500 (Central Daylight Time),923993.8000000715,139_m_f_h_a.png,O,None,2014,16,1,3022.9000000953674,920970.8999999762,7701,VNB,A,14
9,test,3,0.0,2-Back,0.0,m,Thu Oct 09 2025 10:52:25 GMT-0500 (Central Daylight Time),927026.8999999762,165_m_m_n_a.png,O,None,2016,17,1,3023.0,924003.8999999762,7701,VNB,A,15
10,test,3,0.0,2-Back,1.0,z,Thu Oct 09 2025 10:52:25 GMT-0500 (Central Daylight Time),929742.8000000715,109_y_m_h_a.png,O,z,1700,18,1,2709.7000000476837,927033.1000000238,7701,VNB,A,16
0,test,4,0.0,2-Back,,,Thu Oct 09 2025 10:52:25 GMT-0500 (Central Daylight Time),929742.8000000715,139_m_f_n_a.png,O,space,17117,1,1,2709.7000000476837,927033.1000000238,7701,VNB,A,0
0,test,4,0.0,2-Back,,,Thu Oct 09 2025 10:52:25 GMT-0500 (Central Daylight Time),929742.8000000715,039_o_m_n_a.png,O,space,17117,2,1,2709.7000000476837,927033.1000000238,7701,VNB,A,0
1,test,4,1.0,2-Back,1.0,m,Thu Oct 09 2025 10:52:25 GMT-0500 (Central Daylight Time),954184.7000000477,109_y_m_h_a.png,O,m,1195,3,1,2203.2000000476837,951981.5,7701,VNB,A,1
2,test,4,1.0,2-Back,1.0,m,Thu Oct 09 2025 10:52:25 GMT-0500 (Central Daylight Time),956652.5,124_o_f_d_a.png,O,m,1452,4,1,2457.0,954195.5,7701,VNB,A,2
2,test,4,0.0,2-Back,0.0,z,Thu Oct 09 2025 10:52:25 GMT-0500 (Central Daylight Time),958699.1000000238,039_o_m_h_a.png,O,m,1016,5,1,2037.2000000476837,956661.8999999762,7701,VNB,A,3
2,test,4,0.0,2-Back,0.0,m,Thu Oct 09 2025 10:52:25 GMT-0500 (Central Daylight Time),961098.5,165_m_m_n_a.png,O,z,1367,6,1,2387.899999976158,958710.6000000238,7701,VNB,A,4
2,test,4,0.0,2-Back,0.0,m,Thu Oct 09 2025 10:52:25 GMT-0500 (Central Daylight Time),964132.7000000477,139_m_f_d_a.png,O,None,2017,7,1,3023.0,961109.7000000477,7701,VNB,A,5
2,test,4,0.0,2-Back,0.0,z,Thu Oct 09 2025 10:52:25 GMT-0500 (Central Daylight Time),966548.2000000477,071_y_f_n_a.png,O,m,1383,8,1,2404.8000000715256,964143.3999999762,7701,VNB,A,6
3,test,4,1.0,2-Back,1.0,m,Thu Oct 09 2025 10:52:25 GMT-0500 (Central Daylight Time),968513.3999999762,124_o_f_h_a.png,O,m,944,9,1,1955.3999999761581,966558.0,7701,VNB,A,7
4,test,4,0.0,2-Back,1.0,m,Thu Oct 09 2025 10:52:25 GMT-0500 (Central Daylight Time),970630.0,165_m_m_h_a.png,O,m,1099,10,1,2105.399999976158,968524.6000000238,7701,VNB,A,8
4,test,4,0.0,2-Back,0.0,m,Thu Oct 09 2025 10:52:25 GMT-0500 (Central Daylight Time),973579.6000000238,071_y_f_d_a.png,O,z,1918,11,1,2938.600000023842,970641.0,7701,VNB,A,9
4,test,4,0.0,2-Back,0.0,m,Thu Oct 09 2025 10:52:25 GMT-0500 (Central Daylight Time),976394.8000000715,109_y_m_n_a.png,O,z,1786,12,1,2803.4000000953674,973591.3999999762,7701,VNB,A,10
4,test,4,0.0,2-Back,0.0,z,Thu Oct 09 2025 10:52:25 GMT-0500 (Central Daylight Time),979426.8000000715,039_o_m_d_a.png,O,None,2015,13,1,3022.9000000953674,976403.8999999762,7701,VNB,A,11
5,test,4,1.0,2-Back,1.0,m,Thu Oct 09 2025 10:52:25 GMT-0500 (Central Daylight Time),981709.2000000477,139_m_f_h_a.png,O,m,1265,14,1,2271.0,979438.2000000477,7701,VNB,A,12
5,test,4,1.0,2-Back,0.0,m,Thu Oct 09 2025 10:52:25 GMT-0500 (Central Daylight Time),984124.6000000238,071_y_f_h_a.png,O,z,1398,15,1,2405.2999999523163,981719.3000000715,7701,VNB,A,13
5,test,4,0.0,2-Back,0.0,m,Thu Oct 09 2025 10:52:25 GMT-0500 (Central Daylight Time),987158.1000000238,124_o_f_n_a.png,O,None,2014,16,1,3023.2999999523163,984134.8000000715,7701,VNB,A,14
6,test,4,0.0,2-Back,1.0,m,Thu Oct 09 2025 10:52:25 GMT-0500 (Central Daylight Time),989439.8000000715,109_y_m_d_a.png,O,m,1255,17,1,2270.5,987169.3000000715,7701,VNB,A,15
7,test,4,1.0,2-Back,1.0,m,Thu Oct 09 2025 10:52:25 GMT-0500 (Central Daylight Time),991972.5,165_m_m_d_a.png,O,m,1508,18,1,2520.899999976158,989451.6000000238,7701,VNB,A,16
0,test,5,1.0,2-Back,,,Thu Oct 09 2025 10:52:25 GMT-0500 (Central Daylight Time),991972.5,071_y_f_d_a.png,O,space,2895,1,1,2520.899999976158,989451.6000000238,7701,VNB,A,0
0,test,5,1.0,2-Back,,,Thu Oct 09 2025 10:52:25 GMT-0500 (Central Daylight Time),991972.5,124_o_f_h_a.png,O,space,2895,2,1,2520.899999976158,989451.6000000238,7701,VNB,A,0
0,test,5,1.0,2-Back,0.0,z,Thu Oct 09 2025 10:52:25 GMT-0500 (Central Daylight Time),1002971.0,039_o_m_d_a.png,O,None,2001,3,1,3007.2999999523163,999963.7000000477,7701,VNB,A,1
1,test,5,1.0,2-Back,1.0,m,Thu Oct 09 2025 10:52:25 GMT-0500 (Central Daylight Time),1005320.1000000238,139_m_f_n_a.png,O,m,1332,4,1,2337.600000023842,1002982.5,7701,VNB,A,2
1,test,5,0.0,2-Back,0.0,m,Thu Oct 09 2025 10:52:25 GMT-0500 (Central Daylight Time),1007784.8999999762,165_m_m_h_a.png,O,z,1438,5,1,2452.2999999523163,1005332.6000000238,7701,VNB,A,3
1,test,5,0.0,2-Back,0.0,z,Thu Oct 09 2025 10:52:25 GMT-0500 (Central Daylight Time),1010817.2000000477,071_y_f_n_a.png,O,None,2015,6,1,3020.600000023842,1007796.6000000238,7701,VNB,A,4
2,test,5,0.0,2-Back,1.0,m,Thu Oct 09 2025 10:52:25 GMT-0500 (Central Daylight Time),1013166.6000000238,124_o_f_d_a.png,O,m,1333,7,1,2337.7000000476837,1010828.8999999762,7701,VNB,A,5
3,test,5,0.0,2-Back,1.0,m,Thu Oct 09 2025 10:52:25 GMT-0500 (Central Daylight Time),1015381.7000000477,039_o_m_h_a.png,O,m,1190,8,1,2206.2000000476837,1013175.5,7701,VNB,A,6
3,test,5,1.0,2-Back,0.0,z,Thu Oct 09 2025 10:52:25 GMT-0500 (Central Daylight Time),1018182.8000000715,139_m_f_d_a.png,O,m,1784,9,1,2789.5,1015393.3000000715,7701,VNB,A,7
3,test,5,0.0,2-Back,0.0,m,Thu Oct 09 2025 10:52:25 GMT-0500 (Central Daylight Time),1020297.0,109_y_m_n_a.png,O,z,1069,10,1,2099.5,1018197.5,7701,VNB,A,8
3,test,5,0.0,2-Back,0.0,m,Thu Oct 09 2025 10:52:25 GMT-0500 (Central Daylight Time),1023247.7000000477,165_m_m_n_a.png,O,z,1922,11,1,2938.899999976158,1020308.8000000715,7701,VNB,A,9
4,test,5,0.0,2-Back,1.0,m,Thu Oct 09 2025 10:52:25 GMT-0500 (Central Daylight Time),1026110.6000000238,071_y_f_h_a.png,O,m,1836,12,1,2851.7999999523163,1023258.8000000715,7701,VNB,A,10
5,test,5,0.0,2-Back,1.0,m,Thu Oct 09 2025 10:52:25 GMT-0500 (Central Daylight Time),1028311.7000000477,109_y_m_d_a.png,O,m,1169,13,1,2188.8000000715256,1026122.8999999762,7701,VNB,A,11
5,test,5,1.0,2-Back,0.0,z,Thu Oct 09 2025 10:52:25 GMT-0500 (Central Daylight Time),1030676.3000000715,139_m_f_h_a.png,O,m,1328,14,1,2353.8000000715256,1028322.5,7701,VNB,A,12
6,test,5,0.0,2-Back,1.0,m,Thu Oct 09 2025 10:52:25 GMT-0500 (Central Daylight Time),1033292.7000000477,039_o_m_n_a.png,O,m,1579,15,1,2609.7000000476837,1030683.0,7701,VNB,A,13
6,test,5,0.0,2-Back,0.0,m,Thu Oct 09 2025 10:52:25 GMT-0500 (Central Daylight Time),1035743.5,165_m_m_d_a.png,O,z,1423,16,1,2440.5,1033303.0,7701,VNB,A,14
6,test,5,0.0,2-Back,0.0,z,Thu Oct 09 2025 10:52:25 GMT-0500 (Central Daylight Time),1038641.3000000715,124_o_f_n_a.png,O,m,1869,17,1,2887.3000000715256,1035754.0,7701,VNB,A,15
7,test,5,1.0,2-Back,1.0,m,Thu Oct 09 2025 10:52:25 GMT-0500 (Central Daylight Time),1040924.3999999762,109_y_m_h_a.png,O,m,1250,18,1,2276.399999976158,1038648.0,7701,VNB,A,16
