acc_sum,block,block_c,change,condition,correct,correct_response,datetime,endtime,face,project,response,response_time,row_sel,session_number,start_end,starttime,subject_id,task,task_vers,trial
0,prac,1,,1-Back,,,Wed May 06 2026 13:35:10 GMT-0400 (Eastern Daylight Time),,093_m_f_n_a.png,I,space,13523,1,2,,,9054,NNB,C,0
1,prac,1,0.0,1-Back,1.0,m,Wed May 06 2026 13:35:10 GMT-0400 (Eastern Daylight Time),113440.5,098_y_f_n_a.png,I,m,686,2,2,1522.5,111918.0,9054,NNB,C,1
2,prac,1,1.0,1-Back,1.0,z,Wed May 06 2026 13:35:10 GMT-0400 (Eastern Daylight Time),115506.5,098_y_f_n_a.png,I,z,1286,3,2,2058.0999999996275,113448.40000000037,9054,NNB,C,2
3,prac,1,0.0,1-Back,1.0,m,Wed May 06 2026 13:35:10 GMT-0400 (Eastern Daylight Time),117190.5,059_o_m_n_a.png,I,m,826,4,2,1674.0999999996275,115516.40000000037,9054,NNB,C,3
4,prac,1,0.0,1-Back,1.0,m,Wed May 06 2026 13:35:10 GMT-0400 (Eastern Daylight Time),118756.80000000028,092_m_m_n_a.png,I,m,704,5,2,1558.3999999999069,117198.40000000037,9054,NNB,C,4
5,prac,1,1.0,1-Back,1.0,z,Wed May 06 2026 13:35:10 GMT-0400 (Eastern Daylight Time),120173.6000000001,092_m_m_n_a.png,I,z,649,6,2,1409.1000000000931,118764.5,9054,NNB,C,5
6,prac,1,0.0,1-Back,1.0,m,Wed May 06 2026 13:35:10 GMT-0400 (Eastern Daylight Time),121840.5,130_o_f_n_a.png,I,m,806,7,2,1658.8999999999069,120181.6000000001,9054,NNB,C,6
7,prac,1,0.0,1-Back,1.0,m,Wed May 06 2026 13:35:10 GMT-0400 (Eastern Daylight Time),123507.90000000037,082_m_m_n_a.png,I,m,820,8,2,1658.8000000002794,121849.1000000001,9054,NNB,C,7
8,prac,1,0.0,1-Back,1.0,m,Wed May 06 2026 13:35:10 GMT-0400 (Eastern Daylight Time),124940.1000000001,093_m_f_n_a.png,I,m,641,9,2,1423.7999999998137,123516.30000000028,9054,NNB,C,8
9,prac,1,1.0,1-Back,1.0,z,Wed May 06 2026 13:35:10 GMT-0400 (Eastern Daylight Time),126306.80000000028,093_m_f_n_a.png,I,z,577,10,2,1358.6000000000931,124948.20000000019,9054,NNB,C,9
10,prac,1,0.0,1-Back,1.0,m,Wed May 06 2026 13:35:10 GMT-0400 (Eastern Daylight Time),127790.20000000019,059_o_m_n_a.png,I,m,698,11,2,1473.5,126316.70000000019,9054,NNB,C,10
11,prac,1,0.0,1-Back,1.0,m,Wed May 06 2026 13:35:10 GMT-0400 (Eastern Daylight Time),129290.1000000001,028_y_f_n_a.png,I,m,642,12,2,1491.1000000000931,127799.0,9054,NNB,C,11
0,test,1,0.0,1-Back,,,Wed May 06 2026 13:35:10 GMT-0400 (Eastern Daylight Time),129290.1000000001,098_y_f_n_a.png,I,space,13978,1,2,1491.1000000000931,127799.0,9054,NNB,C,0
1,test,1,0.0,1-Back,1.0,m,Wed May 06 2026 13:35:10 GMT-0400 (Eastern Daylight Time),153006.80000000028,006_m_f_n_a.png,I,m,560,2,2,1578.1000000000931,151428.7000000002,9054,NNB,C,1
2,test,1,0.0,1-Back,1.0,m,Wed May 06 2026 13:35:10 GMT-0400 (Eastern Daylight Time),154690.1000000001,028_y_f_n_a.png,I,m,656,3,2,1675.6999999997206,153014.40000000037,9054,NNB,C,2
3,test,1,1.0,1-Back,1.0,z,Wed May 06 2026 13:35:10 GMT-0400 (Eastern Daylight Time),156206.90000000037,028_y_f_n_a.png,I,z,492,4,2,1508.5,154698.40000000037,9054,NNB,C,3
4,test,1,0.0,1-Back,1.0,m,Wed May 06 2026 13:35:10 GMT-0400 (Eastern Daylight Time),157740.30000000028,006_m_f_n_a.png,I,m,502,5,2,1526.8000000002794,156213.5,9054,NNB,C,4
5,test,1,0.0,1-Back,1.0,m,Wed May 06 2026 13:35:10 GMT-0400 (Eastern Daylight Time),159339.80000000028,059_o_m_n_a.png,I,m,578,6,2,1593.7000000001863,157746.1000000001,9054,NNB,C,5
6,test,1,1.0,1-Back,1.0,z,Wed May 06 2026 13:35:10 GMT-0400 (Eastern Daylight Time),160907.0,059_o_m_n_a.png,I,z,544,7,2,1560.1999999997206,159346.80000000028,9054,NNB,C,6
7,test,1,0.0,1-Back,1.0,m,Wed May 06 2026 13:35:10 GMT-0400 (Eastern Daylight Time),162774.30000000028,092_m_m_n_a.png,I,m,850,8,2,1859.0,160915.30000000028,9054,NNB,C,7
8,test,1,0.0,1-Back,1.0,m,Wed May 06 2026 13:35:10 GMT-0400 (Eastern Daylight Time),164356.7000000002,130_o_f_n_a.png,I,m,560,9,2,1576.3999999999069,162780.30000000028,9054,NNB,C,8
9,test,1,0.0,1-Back,1.0,m,Wed May 06 2026 13:35:10 GMT-0400 (Eastern Daylight Time),165990.30000000028,092_m_m_n_a.png,I,m,600,10,2,1625.3000000002794,164365.0,9054,NNB,C,9
10,test,1,0.0,1-Back,1.0,m,Wed May 06 2026 13:35:10 GMT-0400 (Eastern Daylight Time),167474.40000000037,057_y_m_n_a.png,I,m,464,11,2,1477.2000000001863,165997.2000000002,9054,NNB,C,10
11,test,1,1.0,1-Back,1.0,z,Wed May 06 2026 13:35:10 GMT-0400 (Eastern Daylight Time),169040.30000000028,057_y_m_n_a.png,I,z,549,12,2,1557.7000000001863,167482.6000000001,9054,NNB,C,11
12,test,1,0.0,1-Back,1.0,m,Wed May 06 2026 13:35:10 GMT-0400 (Eastern Daylight Time),170723.5,030_o_f_n_a.png,I,m,653,13,2,1675.1999999997206,169048.30000000028,9054,NNB,C,12
13,test,1,1.0,1-Back,1.0,z,Wed May 06 2026 13:35:10 GMT-0400 (Eastern Daylight Time),172257.2000000002,030_o_f_n_a.png,I,z,505,14,2,1527.7000000001863,170729.5,9054,NNB,C,13
14,test,1,0.0,1-Back,1.0,m,Wed May 06 2026 13:35:10 GMT-0400 (Eastern Daylight Time),173990.0,031_y_m_n_a.png,I,m,711,15,2,1726.8999999999069,172263.1000000001,9054,NNB,C,14
15,test,1,0.0,1-Back,1.0,m,Wed May 06 2026 13:35:10 GMT-0400 (Eastern Daylight Time),175572.6000000001,093_m_f_n_a.png,I,m,551,16,2,1574.1999999997206,173998.40000000037,9054,NNB,C,15
16,test,1,0.0,1-Back,1.0,m,Wed May 06 2026 13:35:10 GMT-0400 (Eastern Daylight Time),177123.5,146_o_m_n_a.png,I,m,522,17,2,1544.7999999998137,175578.7000000002,9054,NNB,C,16
17,test,1,0.0,1-Back,1.0,m,Wed May 06 2026 13:35:10 GMT-0400 (Eastern Daylight Time),178906.7000000002,093_m_f_n_a.png,I,m,763,18,2,1774.7999999998137,177131.90000000037,9054,NNB,C,17
0,test,2,0.0,1-Back,,,Wed May 06 2026 13:35:10 GMT-0400 (Eastern Daylight Time),178906.7000000002,092_m_m_n_a.png,I,space,1940,1,2,1774.7999999998137,177131.90000000037,9054,NNB,C,0
1,test,2,0.0,1-Back,1.0,m,Wed May 06 2026 13:35:10 GMT-0400 (Eastern Daylight Time),184739.80000000028,006_m_f_n_a.png,I,m,845,2,2,1860.0,182879.80000000028,9054,NNB,C,1
2,test,2,1.0,1-Back,1.0,z,Wed May 06 2026 13:35:10 GMT-0400 (Eastern Daylight Time),186307.1000000001,006_m_f_n_a.png,I,z,548,3,2,1560.6000000000931,184746.5,9054,NNB,C,2
3,test,2,0.0,1-Back,1.0,m,Wed May 06 2026 13:35:10 GMT-0400 (Eastern Daylight Time),187956.90000000037,092_m_m_n_a.png,I,m,619,4,2,1641.5,186315.40000000037,9054,NNB,C,3
4,test,2,0.0,1-Back,1.0,m,Wed May 06 2026 13:35:10 GMT-0400 (Eastern Daylight Time),189856.80000000028,057_y_m_n_a.png,I,m,872,5,2,1894.5,187962.30000000028,9054,NNB,C,4
5,test,2,0.0,1-Back,1.0,m,Wed May 06 2026 13:35:10 GMT-0400 (Eastern Daylight Time),191423.90000000037,098_y_f_n_a.png,I,m,550,6,2,1559.3000000002794,189864.6000000001,9054,NNB,C,5
6,test,2,1.0,1-Back,1.0,z,Wed May 06 2026 13:35:10 GMT-0400 (Eastern Daylight Time),192906.30000000028,098_y_f_n_a.png,I,z,464,7,2,1474.0,191432.30000000028,9054,NNB,C,6
7,test,2,0.0,1-Back,1.0,m,Wed May 06 2026 13:35:10 GMT-0400 (Eastern Daylight Time),194473.1000000001,057_y_m_n_a.png,I,m,539,8,2,1558.8999999999069,192914.2000000002,9054,NNB,C,7
8,test,2,0.0,1-Back,1.0,m,Wed May 06 2026 13:35:10 GMT-0400 (Eastern Daylight Time),196006.90000000037,030_o_f_n_a.png,I,m,500,9,2,1526.8000000002794,194480.1000000001,9054,NNB,C,8
9,test,2,0.0,1-Back,1.0,m,Wed May 06 2026 13:35:10 GMT-0400 (Eastern Daylight Time),197606.7000000002,082_m_m_n_a.png,I,m,566,10,2,1590.6000000000931,196016.1000000001,9054,NNB,C,9
10,test,2,1.0,1-Back,1.0,z,Wed May 06 2026 13:35:10 GMT-0400 (Eastern Daylight Time),199306.90000000037,082_m_m_n_a.png,I,z,672,11,2,1694.1000000000931,197612.80000000028,9054,NNB,C,10
11,test,2,0.0,1-Back,1.0,m,Wed May 06 2026 13:35:10 GMT-0400 (Eastern Daylight Time),200972.30000000028,030_o_f_n_a.png,I,m,633,12,2,1658.1000000000931,199314.2000000002,9054,NNB,C,11
12,test,2,0.0,1-Back,1.0,m,Wed May 06 2026 13:35:10 GMT-0400 (Eastern Daylight Time),202740.2000000002,130_o_f_n_a.png,I,m,746,13,2,1762.6000000000931,200977.6000000001,9054,NNB,C,12
13,test,2,0.0,1-Back,1.0,m,Wed May 06 2026 13:35:10 GMT-0400 (Eastern Daylight Time),204373.6000000001,059_o_m_n_a.png,I,m,602,14,2,1625.5,202748.1000000001,9054,NNB,C,13
14,test,2,0.0,1-Back,1.0,m,Wed May 06 2026 13:35:10 GMT-0400 (Eastern Daylight Time),205991.40000000037,146_o_m_n_a.png,I,m,585,15,2,1612.2000000001863,204379.2000000002,9054,NNB,C,14
15,test,2,1.0,1-Back,1.0,z,Wed May 06 2026 13:35:10 GMT-0400 (Eastern Daylight Time),207656.7000000002,146_o_m_n_a.png,I,z,649,16,2,1658.2999999998137,205998.40000000037,9054,NNB,C,15
16,test,2,0.0,1-Back,1.0,m,Wed May 06 2026 13:35:10 GMT-0400 (Eastern Daylight Time),209174.7000000002,031_y_m_n_a.png,I,m,501,17,2,1512.2000000001863,207662.5,9054,NNB,C,16
17,test,2,1.0,1-Back,1.0,z,Wed May 06 2026 13:35:10 GMT-0400 (Eastern Daylight Time),210772.30000000028,031_y_m_n_a.png,I,z,574,18,2,1593.2000000001863,209179.1000000001,9054,NNB,C,17
0,test,3,1.0,1-Back,,,Wed May 06 2026 13:35:10 GMT-0400 (Eastern Daylight Time),210772.30000000028,028_y_f_n_a.png,I,space,1378,1,2,1593.2000000001863,209179.1000000001,9054,NNB,C,0
1,test,3,0.0,1-Back,1.0,m,Wed May 06 2026 13:35:10 GMT-0400 (Eastern Daylight Time),215939.7000000002,146_o_m_n_a.png,I,m,669,1,2,1692.6000000000931,214247.1000000001,9054,NNB,C,1
2,test,3,1.0,1-Back,1.0,z,Wed May 06 2026 13:35:10 GMT-0400 (Eastern Daylight Time),217473.1000000001,146_o_m_n_a.png,I,z,512,1,2,1527.3999999999069,215945.7000000002,9054,NNB,C,2
3,test,3,0.0,1-Back,1.0,m,Wed May 06 2026 13:35:10 GMT-0400 (Eastern Daylight Time),219156.80000000028,093_m_f_n_a.png,I,m,662,1,2,1676.7000000001863,217480.1000000001,9054,NNB,C,3
4,test,3,1.0,1-Back,1.0,z,Wed May 06 2026 13:35:10 GMT-0400 (Eastern Daylight Time),220789.6000000001,093_m_f_n_a.png,I,z,609,1,2,1625.3999999999069,219164.2000000002,9054,NNB,C,4
5,test,3,0.0,1-Back,1.0,m,Wed May 06 2026 13:35:10 GMT-0400 (Eastern Daylight Time),222390.40000000037,030_o_f_n_a.png,I,m,576,1,2,1596.6000000000931,220793.80000000028,9054,NNB,C,5
6,test,3,0.0,1-Back,1.0,m,Wed May 06 2026 13:35:10 GMT-0400 (Eastern Daylight Time),223940.0,057_y_m_n_a.png,I,m,528,1,2,1543.0,222397.0,9054,NNB,C,6
7,test,3,0.0,1-Back,1.0,m,Wed May 06 2026 13:35:10 GMT-0400 (Eastern Daylight Time),225522.6000000001,030_o_f_n_a.png,I,m,561,1,2,1573.6000000000931,223949.0,9054,NNB,C,7
8,test,3,0.0,1-Back,1.0,m,Wed May 06 2026 13:35:10 GMT-0400 (Eastern Daylight Time),227307.40000000037,031_y_m_n_a.png,I,m,762,1,2,1778.6000000000931,225528.80000000028,9054,NNB,C,8
9,test,3,1.0,1-Back,1.0,z,Wed May 06 2026 13:35:10 GMT-0400 (Eastern Daylight Time),229107.0,031_y_m_n_a.png,I,z,779,1,2,1793.8999999999069,227313.1000000001,9054,NNB,C,9
10,test,3,0.0,1-Back,1.0,m,Wed May 06 2026 13:35:10 GMT-0400 (Eastern Daylight Time),230691.30000000028,006_m_f_n_a.png,I,m,564,1,2,1578.3999999999069,229112.90000000037,9054,NNB,C,10
11,test,3,0.0,1-Back,1.0,m,Wed May 06 2026 13:35:10 GMT-0400 (Eastern Daylight Time),232356.90000000037,098_y_f_n_a.png,I,m,645,1,2,1656.8000000002794,230700.1000000001,9054,NNB,C,11
12,test,3,1.0,1-Back,1.0,z,Wed May 06 2026 13:35:10 GMT-0400 (Eastern Daylight Time),234008.0,098_y_f_n_a.png,I,z,617,1,2,1643.8999999999069,232364.1000000001,9054,NNB,C,12
13,test,3,0.0,1-Back,1.0,m,Wed May 06 2026 13:35:10 GMT-0400 (Eastern Daylight Time),235707.30000000028,006_m_f_n_a.png,I,m,678,1,2,1693.3000000002794,234014.0,9054,NNB,C,13
14,test,3,0.0,1-Back,1.0,m,Wed May 06 2026 13:35:10 GMT-0400 (Eastern Daylight Time),237373.5,092_m_m_n_a.png,I,m,645,1,2,1659.5,235714.0,9054,NNB,C,14
15,test,3,1.0,1-Back,1.0,z,Wed May 06 2026 13:35:10 GMT-0400 (Eastern Daylight Time),239091.1000000001,092_m_m_n_a.png,I,z,689,1,2,1710.5,237380.6000000001,9054,NNB,C,15
16,test,3,0.0,1-Back,1.0,m,Wed May 06 2026 13:35:10 GMT-0400 (Eastern Daylight Time),240776.0,130_o_f_n_a.png,I,m,652,1,2,1677.5999999996275,239098.40000000037,9054,NNB,C,16
17,test,3,1.0,1-Back,1.0,z,Wed May 06 2026 13:35:10 GMT-0400 (Eastern Daylight Time),242506.40000000037,130_o_f_n_a.png,I,z,708,1,2,1724.1000000000931,240782.30000000028,9054,NNB,C,17
0,test,4,1.0,1-Back,,,Wed May 06 2026 13:35:10 GMT-0400 (Eastern Daylight Time),242506.40000000037,093_m_f_n_a.png,I,space,1284,1,2,1724.1000000000931,240782.30000000028,9054,NNB,C,0
1,test,4,0.0,1-Back,1.0,m,Wed May 06 2026 13:35:10 GMT-0400 (Eastern Daylight Time),247740.40000000037,146_o_m_n_a.png,I,m,821,2,2,1844.0,245896.40000000037,9054,NNB,C,1
2,test,4,0.0,1-Back,1.0,m,Wed May 06 2026 13:35:10 GMT-0400 (Eastern Daylight Time),249440.0,093_m_f_n_a.png,I,m,673,3,2,1693.0,247747.0,9054,NNB,C,2
3,test,4,0.0,1-Back,1.0,m,Wed May 06 2026 13:35:10 GMT-0400 (Eastern Daylight Time),250956.30000000028,030_o_f_n_a.png,I,m,485,4,2,1509.2000000001863,249447.1000000001,9054,NNB,C,3
4,test,4,1.0,1-Back,1.0,z,Wed May 06 2026 13:35:10 GMT-0400 (Eastern Daylight Time),252540.2000000002,030_o_f_n_a.png,I,z,552,5,2,1576.3999999999069,250963.80000000028,9054,NNB,C,4
5,test,4,0.0,1-Back,1.0,m,Wed May 06 2026 13:35:10 GMT-0400 (Eastern Daylight Time),254123.1000000001,098_y_f_n_a.png,I,m,560,6,2,1576.8999999999069,252546.2000000002,9054,NNB,C,5
6,test,4,0.0,1-Back,1.0,m,Wed May 06 2026 13:35:10 GMT-0400 (Eastern Daylight Time),255723.40000000037,057_y_m_n_a.png,I,m,577,7,2,1594.0,254129.40000000037,9054,NNB,C,6
7,test,4,1.0,1-Back,1.0,z,Wed May 06 2026 13:35:10 GMT-0400 (Eastern Daylight Time),257240.1000000001,057_y_m_n_a.png,I,z,489,8,2,1510.0,255730.1000000001,9054,NNB,C,7
8,test,4,0.0,1-Back,1.0,m,Wed May 06 2026 13:35:10 GMT-0400 (Eastern Daylight Time),258956.6000000001,098_y_f_n_a.png,I,m,684,9,2,1709.5,257247.1000000001,9054,NNB,C,8
9,test,4,0.0,1-Back,1.0,m,Wed May 06 2026 13:35:10 GMT-0400 (Eastern Daylight Time),260606.0,082_m_m_n_a.png,I,m,615,10,2,1643.1999999997206,258962.80000000028,9054,NNB,C,9
10,test,4,1.0,1-Back,1.0,z,Wed May 06 2026 13:35:10 GMT-0400 (Eastern Daylight Time),262173.4000000004,082_m_m_n_a.png,I,z,542,11,2,1562.5,260610.90000000037,9054,NNB,C,10
11,test,4,0.0,1-Back,1.0,m,Wed May 06 2026 13:35:10 GMT-0400 (Eastern Daylight Time),263843.1000000001,130_o_f_n_a.png,I,m,649,12,2,1660.1999999997206,262182.9000000004,9054,NNB,C,11
12,test,4,0.0,1-Back,1.0,m,Wed May 06 2026 13:35:10 GMT-0400 (Eastern Daylight Time),265390.1000000001,059_o_m_n_a.png,I,m,517,13,2,1541.0,263849.1000000001,9054,NNB,C,12
13,test,4,0.0,1-Back,1.0,m,Wed May 06 2026 13:35:10 GMT-0400 (Eastern Daylight Time),267123.5,130_o_f_n_a.png,I,m,712,14,2,1726.3999999999069,265397.1000000001,9054,NNB,C,13
14,test,4,0.0,1-Back,1.0,m,Wed May 06 2026 13:35:10 GMT-0400 (Eastern Daylight Time),268723.1000000001,028_y_f_n_a.png,I,m,578,15,2,1592.8999999999069,267130.2000000002,9054,NNB,C,14
15,test,4,1.0,1-Back,1.0,z,Wed May 06 2026 13:35:10 GMT-0400 (Eastern Daylight Time),270190.4000000004,028_y_f_n_a.png,I,z,434,16,2,1458.4000000003725,268732.0,9054,NNB,C,15
16,test,4,0.0,1-Back,1.0,m,Wed May 06 2026 13:35:10 GMT-0400 (Eastern Daylight Time),271773.6000000001,006_m_f_n_a.png,I,m,552,17,2,1575.6999999997206,270197.9000000004,9054,NNB,C,16
17,test,4,1.0,1-Back,1.0,z,Wed May 06 2026 13:35:10 GMT-0400 (Eastern Daylight Time),273458.1000000001,006_m_f_n_a.png,I,z,665,18,2,1678.5,271779.6000000001,9054,NNB,C,17
0,test,5,1.0,1-Back,,,Wed May 06 2026 13:35:10 GMT-0400 (Eastern Daylight Time),273458.1000000001,059_o_m_n_a.png,I,space,1236,1,2,1678.5,271779.6000000001,9054,NNB,C,0
1,test,5,1.0,1-Back,1.0,z,Wed May 06 2026 13:35:10 GMT-0400 (Eastern Daylight Time),278390.0,059_o_m_n_a.png,I,z,643,2,2,1663.8999999999069,276726.1000000001,9054,NNB,C,1
2,test,5,0.0,1-Back,1.0,m,Wed May 06 2026 13:35:10 GMT-0400 (Eastern Daylight Time),280190.1000000001,098_y_f_n_a.png,I,m,775,3,2,1792.5,278397.6000000001,9054,NNB,C,2
3,test,5,0.0,1-Back,1.0,m,Wed May 06 2026 13:35:10 GMT-0400 (Eastern Daylight Time),281773.0,057_y_m_n_a.png,I,m,551,4,2,1576.3999999999069,280196.6000000001,9054,NNB,C,3
4,test,5,0.0,1-Back,1.0,m,Wed May 06 2026 13:35:10 GMT-0400 (Eastern Daylight Time),283323.6000000001,098_y_f_n_a.png,I,m,520,5,2,1543.2999999998137,281780.3000000003,9054,NNB,C,4
5,test,5,0.0,1-Back,1.0,m,Wed May 06 2026 13:35:10 GMT-0400 (Eastern Daylight Time),284889.6000000001,092_m_m_n_a.png,I,m,547,6,2,1559.6999999997206,283329.9000000004,9054,NNB,C,5
6,test,5,1.0,1-Back,1.0,z,Wed May 06 2026 13:35:10 GMT-0400 (Eastern Daylight Time),286406.8000000003,092_m_m_n_a.png,I,z,483,7,2,1508.8000000002794,284898.0,9054,NNB,C,6
7,test,5,0.0,1-Back,1.0,m,Wed May 06 2026 13:35:10 GMT-0400 (Eastern Daylight Time),288007.0,028_y_f_n_a.png,I,m,567,8,2,1593.8999999999069,286413.1000000001,9054,NNB,C,7
8,test,5,0.0,1-Back,1.0,m,Wed May 06 2026 13:35:10 GMT-0400 (Eastern Daylight Time),290024.0,031_y_m_n_a.png,I,m,999,9,2,2010.7999999998137,288013.2000000002,9054,NNB,C,8
9,test,5,0.0,1-Back,1.0,m,Wed May 06 2026 13:35:10 GMT-0400 (Eastern Daylight Time),291657.0,028_y_f_n_a.png,I,m,607,10,2,1625.7999999998137,290031.2000000002,9054,NNB,C,9
10,test,5,0.0,1-Back,1.0,m,Wed May 06 2026 13:35:10 GMT-0400 (Eastern Daylight Time),293243.7000000002,130_o_f_n_a.png,I,m,550,11,2,1581.0,291662.7000000002,9054,NNB,C,10
11,test,5,1.0,1-Back,1.0,z,Wed May 06 2026 13:35:10 GMT-0400 (Eastern Daylight Time),295040.7000000002,130_o_f_n_a.png,I,z,779,12,2,1792.8999999999069,293247.8000000003,9054,NNB,C,11
12,test,5,0.0,1-Back,1.0,m,Wed May 06 2026 13:35:10 GMT-0400 (Eastern Daylight Time),296806.8000000003,146_o_m_n_a.png,I,m,743,13,2,1758.8000000002794,295048.0,9054,NNB,C,12
13,test,5,0.0,1-Back,1.0,m,Wed May 06 2026 13:35:10 GMT-0400 (Eastern Daylight Time),298606.5,093_m_f_n_a.png,I,m,783,14,2,1792.8999999999069,296813.6000000001,9054,NNB,C,13
14,test,5,1.0,1-Back,1.0,z,Wed May 06 2026 13:35:10 GMT-0400 (Eastern Daylight Time),300423.6000000001,093_m_f_n_a.png,I,z,783,15,2,1810.2999999998137,298613.3000000003,9054,NNB,C,14
15,test,5,0.0,1-Back,1.0,m,Wed May 06 2026 13:35:10 GMT-0400 (Eastern Daylight Time),302056.4000000004,146_o_m_n_a.png,I,m,616,16,2,1626.6000000000931,300429.8000000003,9054,NNB,C,15
16,test,5,0.0,1-Back,1.0,m,Wed May 06 2026 13:35:10 GMT-0400 (Eastern Daylight Time),303790.1000000001,006_m_f_n_a.png,I,m,710,17,2,1729.0,302061.1000000001,9054,NNB,C,16
17,test,5,0.0,1-Back,1.0,m,Wed May 06 2026 13:35:10 GMT-0400 (Eastern Daylight Time),305640.3000000003,082_m_m_n_a.png,I,m,816,18,2,1843.5,303796.8000000003,9054,NNB,C,17
0,prac,1,0.0,2-Back,,,Wed May 06 2026 13:35:10 GMT-0400 (Eastern Daylight Time),305640.3000000003,031_y_m_n_a.png,I,space,12376,1,2,1843.5,303796.8000000003,9054,NNB,C,0
0,prac,1,0.0,2-Back,,,Wed May 06 2026 13:35:10 GMT-0400 (Eastern Daylight Time),305640.3000000003,006_m_f_n_a.png,I,space,12376,2,2,1843.5,303796.8000000003,9054,NNB,C,0
1,prac,1,1.0,2-Back,1.0,m,Wed May 06 2026 13:35:10 GMT-0400 (Eastern Daylight Time),403156.5,146_o_m_n_a.png,I,m,966,3,2,1824.1999999997206,401332.3000000003,9054,NNB,C,1
2,prac,1,0.0,2-Back,1.0,m,Wed May 06 2026 13:35:10 GMT-0400 (Eastern Daylight Time),405090.1000000001,130_o_f_n_a.png,I,m,1069,4,2,1926.6000000000931,403163.5,9054,NNB,C,2
3,prac,1,0.0,2-Back,1.0,z,Wed May 06 2026 13:35:10 GMT-0400 (Eastern Daylight Time),406640.3000000003,146_o_m_n_a.png,I,z,772,5,2,1543.0,405097.3000000003,9054,NNB,C,3
4,prac,1,1.0,2-Back,1.0,z,Wed May 06 2026 13:35:10 GMT-0400 (Eastern Daylight Time),408290.4000000004,130_o_f_n_a.png,I,z,861,6,2,1641.1000000000931,406649.3000000003,9054,NNB,C,4
5,prac,1,0.0,2-Back,1.0,m,Wed May 06 2026 13:35:10 GMT-0400 (Eastern Daylight Time),410211.2000000002,082_m_m_n_a.png,I,m,1061,7,2,1913.2999999998137,408297.9000000004,9054,NNB,C,5
6,prac,1,0.0,2-Back,1.0,m,Wed May 06 2026 13:35:10 GMT-0400 (Eastern Daylight Time),411957.6000000001,059_o_m_n_a.png,I,m,885,8,2,1741.0,410216.6000000001,9054,NNB,C,6
7,prac,1,0.0,2-Back,1.0,m,Wed May 06 2026 13:35:10 GMT-0400 (Eastern Daylight Time),413707.0,028_y_f_n_a.png,I,m,891,9,2,1742.5999999996275,411964.4000000004,9054,NNB,C,7
8,prac,1,1.0,2-Back,1.0,z,Wed May 06 2026 13:35:10 GMT-0400 (Eastern Daylight Time),415273.6000000001,059_o_m_n_a.png,I,z,778,10,2,1557.6999999997206,413715.9000000004,9054,NNB,C,8
9,prac,1,0.0,2-Back,1.0,m,Wed May 06 2026 13:35:10 GMT-0400 (Eastern Daylight Time),416973.7000000002,098_y_f_n_a.png,I,m,842,11,2,1691.6000000000931,415282.1000000001,9054,NNB,C,9
9,prac,1,0.0,2-Back,0.0,m,Wed May 06 2026 13:35:10 GMT-0400 (Eastern Daylight Time),418657.2000000002,082_m_m_n_a.png,I,z,896,12,2,1674.3999999999069,416982.8000000003,9054,NNB,C,10
0,test,1,0.0,2-Back,,,Wed May 06 2026 13:35:10 GMT-0400 (Eastern Daylight Time),418657.2000000002,057_y_m_n_a.png,I,space,10213,1,2,1674.3999999999069,416982.8000000003,9054,NNB,C,0
0,test,1,0.0,2-Back,,,Wed May 06 2026 13:35:10 GMT-0400 (Eastern Daylight Time),418657.2000000002,057_y_m_n_a.png,I,space,10213,2,2,1674.3999999999069,416982.8000000003,9054,NNB,C,0
1,test,1,0.0,2-Back,1.0,m,Wed May 06 2026 13:35:10 GMT-0400 (Eastern Daylight Time),443523.6000000001,130_o_f_n_a.png,I,m,686,3,2,1709.5,441814.1000000001,9054,NNB,C,1
2,test,1,0.0,2-Back,1.0,m,Wed May 06 2026 13:35:10 GMT-0400 (Eastern Daylight Time),445256.9000000004,092_m_m_n_a.png,I,m,706,4,2,1726.7000000001863,443530.2000000002,9054,NNB,C,2
2,test,1,1.0,2-Back,0.0,z,Wed May 06 2026 13:35:10 GMT-0400 (Eastern Daylight Time),447590.2000000002,130_o_f_n_a.png,I,m,1309,5,2,2326.899999999907,445263.3000000003,9054,NNB,C,3
3,test,1,0.0,2-Back,1.0,m,Wed May 06 2026 13:35:10 GMT-0400 (Eastern Daylight Time),449673.3000000003,098_y_f_n_a.png,I,m,1064,6,2,2076.3000000002794,447597.0,9054,NNB,C,4
3,test,1,0.0,2-Back,0.0,m,Wed May 06 2026 13:35:10 GMT-0400 (Eastern Daylight Time),451356.7000000002,092_m_m_n_a.png,I,z,651,7,2,1676.1000000000931,449680.6000000001,9054,NNB,C,5
3,test,1,1.0,2-Back,0.0,z,Wed May 06 2026 13:35:10 GMT-0400 (Eastern Daylight Time),453640.4000000004,098_y_f_n_a.png,I,m,1266,8,2,2274.8000000002794,451365.6000000001,9054,NNB,C,6
4,test,1,0.0,2-Back,1.0,m,Wed May 06 2026 13:35:10 GMT-0400 (Eastern Daylight Time),455540.1000000001,031_y_m_n_a.png,I,m,868,9,2,1892.2999999998137,453647.8000000003,9054,NNB,C,7
5,test,1,0.0,2-Back,1.0,m,Wed May 06 2026 13:35:10 GMT-0400 (Eastern Daylight Time),457441.4000000004,030_o_f_n_a.png,I,m,882,10,2,1894.2000000001863,455547.2000000002,9054,NNB,C,8
6,test,1,1.0,2-Back,1.0,z,Wed May 06 2026 13:35:10 GMT-0400 (Eastern Daylight Time),459140.3000000003,031_y_m_n_a.png,I,z,679,11,2,1693.3000000002794,457447.0,9054,NNB,C,9
7,test,1,0.0,2-Back,1.0,m,Wed May 06 2026 13:35:10 GMT-0400 (Eastern Daylight Time),460990.9000000004,006_m_f_n_a.png,I,m,833,12,2,1842.4000000003725,459148.5,9054,NNB,C,10
8,test,1,0.0,2-Back,1.0,m,Wed May 06 2026 13:35:10 GMT-0400 (Eastern Daylight Time),462940.0,006_m_f_n_a.png,I,m,924,13,2,1940.6999999997206,460999.3000000003,9054,NNB,C,11
9,test,1,0.0,2-Back,1.0,m,Wed May 06 2026 13:35:10 GMT-0400 (Eastern Daylight Time),464924.1000000001,146_o_m_n_a.png,I,m,962,14,2,1978.3999999999069,462945.7000000002,9054,NNB,C,12
9,test,1,0.0,2-Back,0.0,m,Wed May 06 2026 13:35:10 GMT-0400 (Eastern Daylight Time),467174.0,030_o_f_n_a.png,I,z,1225,15,2,2241.899999999907,464932.1000000001,9054,NNB,C,13
10,test,1,1.0,2-Back,1.0,z,Wed May 06 2026 13:35:10 GMT-0400 (Eastern Daylight Time),469208.2000000002,146_o_m_n_a.png,I,z,1008,16,2,2026.7999999998137,467181.4000000004,9054,NNB,C,14
11,test,1,0.0,2-Back,1.0,m,Wed May 06 2026 13:35:10 GMT-0400 (Eastern Daylight Time),471156.9000000004,093_m_f_n_a.png,I,m,928,17,2,1940.3000000002794,469216.6000000001,9054,NNB,C,15
12,test,1,0.0,2-Back,1.0,m,Wed May 06 2026 13:35:10 GMT-0400 (Eastern Daylight Time),473257.0,082_m_m_n_a.png,I,m,1071,18,2,2092.899999999907,471164.1000000001,9054,NNB,C,16
0,test,2,0.0,2-Back,,,Wed May 06 2026 13:35:10 GMT-0400 (Eastern Daylight Time),473257.0,082_m_m_n_a.png,I,space,2629,1,2,2092.899999999907,471164.1000000001,9054,NNB,C,0
0,test,2,0.0,2-Back,,,Wed May 06 2026 13:35:10 GMT-0400 (Eastern Daylight Time),473257.0,028_y_f_n_a.png,I,space,2629,2,2,2092.899999999907,471164.1000000001,9054,NNB,C,0
1,test,2,1.0,2-Back,1.0,z,Wed May 06 2026 13:35:10 GMT-0400 (Eastern Daylight Time),482891.6000000001,082_m_m_n_a.png,I,z,856,3,2,1877.3999999999069,481014.2000000002,9054,NNB,C,1
2,test,2,0.0,2-Back,1.0,m,Wed May 06 2026 13:35:10 GMT-0400 (Eastern Daylight Time),484841.2000000002,093_m_f_n_a.png,I,m,931,4,2,1941.3999999999069,482899.8000000003,9054,NNB,C,2
3,test,2,0.0,2-Back,1.0,m,Wed May 06 2026 13:35:10 GMT-0400 (Eastern Daylight Time),486907.3000000003,028_y_f_n_a.png,I,m,1046,5,2,2060.899999999907,484846.4000000004,9054,NNB,C,3
3,test,2,0.0,2-Back,0.0,m,Wed May 06 2026 13:35:10 GMT-0400 (Eastern Daylight Time),489940.5,146_o_m_n_a.png,I,None,2016,6,2,3024.5999999996275,486915.9000000004,9054,NNB,C,4
4,test,2,0.0,2-Back,1.0,m,Wed May 06 2026 13:35:10 GMT-0400 (Eastern Daylight Time),491723.8000000003,098_y_f_n_a.png,I,m,763,7,2,1775.5,489948.3000000003,9054,NNB,C,5
5,test,2,1.0,2-Back,1.0,z,Wed May 06 2026 13:35:10 GMT-0400 (Eastern Daylight Time),493590.6000000001,146_o_m_n_a.png,I,z,842,8,2,1858.7999999998137,491731.8000000003,9054,NNB,C,6
6,test,2,0.0,2-Back,1.0,m,Wed May 06 2026 13:35:10 GMT-0400 (Eastern Daylight Time),495757.2000000002,031_y_m_n_a.png,I,m,1142,9,2,2158.899999999907,493598.3000000003,9054,NNB,C,7
7,test,2,0.0,2-Back,1.0,m,Wed May 06 2026 13:35:10 GMT-0400 (Eastern Daylight Time),497707.1000000001,031_y_m_n_a.png,I,m,921,10,2,1944.3999999999069,495762.7000000002,9054,NNB,C,8
8,test,2,0.0,2-Back,1.0,m,Wed May 06 2026 13:35:10 GMT-0400 (Eastern Daylight Time),499957.1000000001,006_m_f_n_a.png,I,m,1228,11,2,2244.2999999998137,497712.8000000003,9054,NNB,C,9
9,test,2,0.0,2-Back,1.0,m,Wed May 06 2026 13:35:10 GMT-0400 (Eastern Daylight Time),502023.0,028_y_f_n_a.png,I,m,1047,12,2,2059.6999999997206,499963.3000000003,9054,NNB,C,10
10,test,2,1.0,2-Back,1.0,z,Wed May 06 2026 13:35:10 GMT-0400 (Eastern Daylight Time),504089.7000000002,006_m_f_n_a.png,I,z,1045,13,2,2062.100000000093,502027.6000000001,9054,NNB,C,11
11,test,2,0.0,2-Back,1.0,m,Wed May 06 2026 13:35:10 GMT-0400 (Eastern Daylight Time),506223.2000000002,059_o_m_n_a.png,I,m,1107,14,2,2126.600000000093,504096.6000000001,9054,NNB,C,12
12,test,2,0.0,2-Back,1.0,m,Wed May 06 2026 13:35:10 GMT-0400 (Eastern Daylight Time),508124.1000000001,059_o_m_n_a.png,I,m,869,15,2,1894.2999999998137,506229.8000000003,9054,NNB,C,13
13,test,2,0.0,2-Back,1.0,m,Wed May 06 2026 13:35:10 GMT-0400 (Eastern Daylight Time),510106.7000000002,030_o_f_n_a.png,I,m,954,16,2,1975.7999999998137,508130.9000000004,9054,NNB,C,14
14,test,2,0.0,2-Back,1.0,m,Wed May 06 2026 13:35:10 GMT-0400 (Eastern Daylight Time),511991.1000000001,092_m_m_n_a.png,I,m,858,17,2,1878.5,510112.6000000001,9054,NNB,C,15
15,test,2,1.0,2-Back,1.0,z,Wed May 06 2026 13:35:10 GMT-0400 (Eastern Daylight Time),514206.9000000004,030_o_f_n_a.png,I,z,1200,18,2,2209.5,511997.4000000004,9054,NNB,C,16
0,test,3,1.0,2-Back,,,Wed May 06 2026 13:35:10 GMT-0400 (Eastern Daylight Time),514206.9000000004,057_y_m_n_a.png,I,space,2517,1,2,2209.5,511997.4000000004,9054,NNB,C,0
0,test,3,1.0,2-Back,,,Wed May 06 2026 13:35:10 GMT-0400 (Eastern Daylight Time),514206.9000000004,057_y_m_n_a.png,I,space,2517,2,2,2209.5,511997.4000000004,9054,NNB,C,0
1,test,3,0.0,2-Back,1.0,m,Wed May 06 2026 13:35:10 GMT-0400 (Eastern Daylight Time),523857.3000000003,030_o_f_n_a.png,I,m,972,3,2,1993.6000000000931,521863.7000000002,9054,NNB,C,1
2,test,3,0.0,2-Back,1.0,m,Wed May 06 2026 13:35:10 GMT-0400 (Eastern Daylight Time),525922.8000000003,082_m_m_n_a.png,I,m,1035,4,2,2056.7000000001863,523866.1000000001,9054,NNB,C,2
3,test,3,1.0,2-Back,1.0,z,Wed May 06 2026 13:35:10 GMT-0400 (Eastern Daylight Time),527722.8000000003,030_o_f_n_a.png,I,z,768,5,2,1794.7000000001863,525928.1000000001,9054,NNB,C,3
4,test,3,0.0,2-Back,1.0,m,Wed May 06 2026 13:35:10 GMT-0400 (Eastern Daylight Time),529507.2000000002,031_y_m_n_a.png,I,m,762,6,2,1779.2999999998137,527727.9000000004,9054,NNB,C,4
4,test,3,0.0,2-Back,0.0,m,Wed May 06 2026 13:35:10 GMT-0400 (Eastern Daylight Time),531573.8000000003,082_m_m_n_a.png,I,z,1034,7,2,2058.5,529515.3000000003,9054,NNB,C,5
5,test,3,1.0,2-Back,1.0,z,Wed May 06 2026 13:35:10 GMT-0400 (Eastern Daylight Time),534007.8000000003,031_y_m_n_a.png,I,z,1415,8,2,2426.5,531581.3000000003,9054,NNB,C,6
6,test,3,0.0,2-Back,1.0,m,Wed May 06 2026 13:35:10 GMT-0400 (Eastern Daylight Time),535874.2000000002,028_y_f_n_a.png,I,m,839,9,2,1858.6000000000931,534015.6000000001,9054,NNB,C,7
7,test,3,0.0,2-Back,1.0,m,Wed May 06 2026 13:35:10 GMT-0400 (Eastern Daylight Time),537840.3000000003,092_m_m_n_a.png,I,m,949,10,2,1958.3999999999069,535881.9000000004,9054,NNB,C,8
8,test,3,1.0,2-Back,1.0,z,Wed May 06 2026 13:35:10 GMT-0400 (Eastern Daylight Time),539824.0,028_y_f_n_a.png,I,z,958,11,2,1977.8999999999069,537846.1000000001,9054,NNB,C,9
9,test,3,1.0,2-Back,1.0,z,Wed May 06 2026 13:35:10 GMT-0400 (Eastern Daylight Time),541790.2000000002,092_m_m_n_a.png,I,z,942,12,2,1957.7999999998137,539832.4000000004,9054,NNB,C,10
10,test,3,0.0,2-Back,1.0,m,Wed May 06 2026 13:35:10 GMT-0400 (Eastern Daylight Time),543758.1000000001,030_o_f_n_a.png,I,m,942,13,2,1959.5,541798.6000000001,9054,NNB,C,11
11,test,3,0.0,2-Back,1.0,m,Wed May 06 2026 13:35:10 GMT-0400 (Eastern Daylight Time),545640.5,093_m_f_n_a.png,I,m,854,14,2,1874.5999999996275,543765.9000000004,9054,NNB,C,12
12,test,3,0.0,2-Back,1.0,m,Wed May 06 2026 13:35:10 GMT-0400 (Eastern Daylight Time),547507.2000000002,146_o_m_n_a.png,I,m,838,15,2,1860.7000000001863,545646.5,9054,NNB,C,13
13,test,3,1.0,2-Back,1.0,z,Wed May 06 2026 13:35:10 GMT-0400 (Eastern Daylight Time),549359.2000000002,093_m_f_n_a.png,I,z,834,16,2,1845.0,547514.2000000002,9054,NNB,C,14
14,test,3,0.0,2-Back,1.0,m,Wed May 06 2026 13:35:10 GMT-0400 (Eastern Daylight Time),551158.9000000004,130_o_f_n_a.png,I,m,783,17,2,1791.9000000003725,549367.0,9054,NNB,C,15
15,test,3,0.0,2-Back,1.0,m,Wed May 06 2026 13:35:10 GMT-0400 (Eastern Daylight Time),553207.2000000002,130_o_f_n_a.png,I,m,1033,18,2,2042.7999999998137,551164.4000000004,9054,NNB,C,16
0,test,4,0.0,2-Back,,,Wed May 06 2026 13:35:10 GMT-0400 (Eastern Daylight Time),553207.2000000002,059_o_m_n_a.png,I,space,1695,1,2,2042.7999999998137,551164.4000000004,9054,NNB,C,0
0,test,4,0.0,2-Back,,,Wed May 06 2026 13:35:10 GMT-0400 (Eastern Daylight Time),553207.2000000002,098_y_f_n_a.png,I,space,1695,2,2,2042.7999999998137,551164.4000000004,9054,NNB,C,0
1,test,4,1.0,2-Back,1.0,z,Wed May 06 2026 13:35:10 GMT-0400 (Eastern Daylight Time),561723.8000000003,059_o_m_n_a.png,I,z,620,3,2,1643.5,560080.3000000003,9054,NNB,C,1
2,test,4,1.0,2-Back,1.0,z,Wed May 06 2026 13:35:10 GMT-0400 (Eastern Daylight Time),563357.3000000003,098_y_f_n_a.png,I,z,611,4,2,1626.1000000000931,561731.2000000002,9054,NNB,C,2
3,test,4,0.0,2-Back,1.0,m,Wed May 06 2026 13:35:10 GMT-0400 (Eastern Daylight Time),564957.1000000001,030_o_f_n_a.png,I,m,577,5,2,1593.1999999997206,563363.9000000004,9054,NNB,C,3
4,test,4,0.0,2-Back,1.0,m,Wed May 06 2026 13:35:10 GMT-0400 (Eastern Daylight Time),566874.7000000002,030_o_f_n_a.png,I,m,890,6,2,1911.0,564963.7000000002,9054,NNB,C,4
5,test,4,0.0,2-Back,1.0,m,Wed May 06 2026 13:35:10 GMT-0400 (Eastern Daylight Time),569023.7000000002,006_m_f_n_a.png,I,m,1132,7,2,2141.600000000093,566882.1000000001,9054,NNB,C,5
6,test,4,0.0,2-Back,1.0,m,Wed May 06 2026 13:35:10 GMT-0400 (Eastern Daylight Time),570940.0,031_y_m_n_a.png,I,m,885,8,2,1910.3999999999069,569029.6000000001,9054,NNB,C,6
7,test,4,1.0,2-Back,1.0,z,Wed May 06 2026 13:35:10 GMT-0400 (Eastern Daylight Time),572640.5,006_m_f_n_a.png,I,z,674,9,2,1694.0999999996275,570946.4000000004,9054,NNB,C,7
8,test,4,0.0,2-Back,1.0,m,Wed May 06 2026 13:35:10 GMT-0400 (Eastern Daylight Time),574374.1000000001,092_m_m_n_a.png,I,m,700,10,2,1726.1000000000931,572648.0,9054,NNB,C,8
8,test,4,0.0,2-Back,0.0,m,Wed May 06 2026 13:35:10 GMT-0400 (Eastern Daylight Time),576506.1000000001,031_y_m_n_a.png,I,z,1102,11,2,2125.6999999997206,574380.4000000004,9054,NNB,C,9
9,test,4,0.0,2-Back,1.0,m,Wed May 06 2026 13:35:10 GMT-0400 (Eastern Daylight Time),578656.9000000004,130_o_f_n_a.png,I,m,1123,12,2,2148.2000000001863,576508.7000000002,9054,NNB,C,10
10,test,4,0.0,2-Back,1.0,m,Wed May 06 2026 13:35:10 GMT-0400 (Eastern Daylight Time),580407.3000000003,057_y_m_n_a.png,I,m,724,13,2,1744.7000000001863,578662.6000000001,9054,NNB,C,11
11,test,4,1.0,2-Back,1.0,z,Wed May 06 2026 13:35:10 GMT-0400 (Eastern Daylight Time),582323.6000000001,130_o_f_n_a.png,I,z,894,14,2,1910.3999999999069,580413.2000000002,9054,NNB,C,12
12,test,4,1.0,2-Back,1.0,z,Wed May 06 2026 13:35:10 GMT-0400 (Eastern Daylight Time),584623.1000000001,057_y_m_n_a.png,I,z,1282,15,2,2292.7999999998137,582330.3000000003,9054,NNB,C,13
13,test,4,0.0,2-Back,1.0,m,Wed May 06 2026 13:35:10 GMT-0400 (Eastern Daylight Time),586490.0,082_m_m_n_a.png,I,m,839,16,2,1862.0999999996275,584627.9000000004,9054,NNB,C,14
14,test,4,0.0,2-Back,1.0,m,Wed May 06 2026 13:35:10 GMT-0400 (Eastern Daylight Time),588390.6000000001,093_m_f_n_a.png,I,m,867,17,2,1895.1999999997206,586495.4000000004,9054,NNB,C,15
15,test,4,1.0,2-Back,1.0,z,Wed May 06 2026 13:35:10 GMT-0400 (Eastern Daylight Time),590340.3000000003,082_m_m_n_a.png,I,z,918,18,2,1943.8000000002794,588396.5,9054,NNB,C,16
0,test,5,1.0,2-Back,,,Wed May 06 2026 13:35:10 GMT-0400 (Eastern Daylight Time),590340.3000000003,057_y_m_n_a.png,I,space,1384,1,2,1943.8000000002794,588396.5,9054,NNB,C,0
0,test,5,1.0,2-Back,,,Wed May 06 2026 13:35:10 GMT-0400 (Eastern Daylight Time),590340.3000000003,093_m_f_n_a.png,I,space,1384,2,2,1943.8000000002794,588396.5,9054,NNB,C,0
1,test,5,1.0,2-Back,1.0,z,Wed May 06 2026 13:35:10 GMT-0400 (Eastern Daylight Time),598640.2000000002,057_y_m_n_a.png,I,z,832,3,2,1843.7000000001863,596796.5,9054,NNB,C,1
2,test,5,1.0,2-Back,1.0,z,Wed May 06 2026 13:35:10 GMT-0400 (Eastern Daylight Time),600323.6000000001,093_m_f_n_a.png,I,z,661,4,2,1677.0,598646.6000000001,9054,NNB,C,2
3,test,5,0.0,2-Back,1.0,m,Wed May 06 2026 13:35:10 GMT-0400 (Eastern Daylight Time),601974.1000000001,130_o_f_n_a.png,I,m,627,5,2,1643.3999999999069,600330.7000000002,9054,NNB,C,3
4,test,5,0.0,2-Back,1.0,m,Wed May 06 2026 13:35:10 GMT-0400 (Eastern Daylight Time),604524.1000000001,057_y_m_n_a.png,I,m,1519,6,2,2542.2999999998137,601981.8000000003,9054,NNB,C,4
5,test,5,0.0,2-Back,1.0,m,Wed May 06 2026 13:35:10 GMT-0400 (Eastern Daylight Time),606606.3000000003,028_y_f_n_a.png,I,m,1056,7,2,2075.600000000093,604530.7000000002,9054,NNB,C,5
5,test,5,0.0,2-Back,0.0,m,Wed May 06 2026 13:35:10 GMT-0400 (Eastern Daylight Time),608273.7000000002,130_o_f_n_a.png,I,z,640,8,2,1661.7999999998137,606611.9000000004,9054,NNB,C,6
6,test,5,1.0,2-Back,1.0,z,Wed May 06 2026 13:35:10 GMT-0400 (Eastern Daylight Time),610308.0,028_y_f_n_a.png,I,z,1011,9,2,2027.3999999999069,608280.6000000001,9054,NNB,C,7
7,test,5,0.0,2-Back,1.0,m,Wed May 06 2026 13:35:10 GMT-0400 (Eastern Daylight Time),612175.2000000002,146_o_m_n_a.png,I,m,834,10,2,1860.3999999999069,610314.8000000003,9054,NNB,C,8
8,test,5,0.0,2-Back,1.0,m,Wed May 06 2026 13:35:10 GMT-0400 (Eastern Daylight Time),613991.8000000003,006_m_f_n_a.png,I,m,801,11,2,1810.1000000000931,612181.7000000002,9054,NNB,C,9
9,test,5,0.0,2-Back,1.0,m,Wed May 06 2026 13:35:10 GMT-0400 (Eastern Daylight Time),615823.2000000002,092_m_m_n_a.png,I,m,815,12,2,1826.1000000000931,613997.1000000001,9054,NNB,C,10
10,test,5,0.0,2-Back,1.0,m,Wed May 06 2026 13:35:10 GMT-0400 (Eastern Daylight Time),617940.2000000002,146_o_m_n_a.png,I,m,1083,13,2,2112.0,615828.2000000002,9054,NNB,C,11
10,test,5,1.0,2-Back,0.0,z,Wed May 06 2026 13:35:10 GMT-0400 (Eastern Daylight Time),619956.9000000004,092_m_m_n_a.png,I,m,982,14,2,2010.6000000000931,617946.3000000003,9054,NNB,C,12
11,test,5,0.0,2-Back,1.0,m,Wed May 06 2026 13:35:10 GMT-0400 (Eastern Daylight Time),621690.5,098_y_f_n_a.png,I,m,705,15,2,1728.1999999997206,619962.3000000003,9054,NNB,C,13
12,test,5,0.0,2-Back,1.0,m,Wed May 06 2026 13:35:10 GMT-0400 (Eastern Daylight Time),623823.6000000001,059_o_m_n_a.png,I,m,1109,16,2,2124.100000000093,621699.5,9054,NNB,C,14
13,test,5,0.0,2-Back,1.0,m,Wed May 06 2026 13:35:10 GMT-0400 (Eastern Daylight Time),625923.2000000002,006_m_f_n_a.png,I,m,1069,17,2,2090.7999999998137,623832.4000000004,9054,NNB,C,15
13,test,5,1.0,2-Back,0.0,z,Wed May 06 2026 13:35:10 GMT-0400 (Eastern Daylight Time),628125.0,059_o_m_n_a.png,I,m,1178,18,2,2196.399999999907,625928.6000000001,9054,NNB,C,16
