Q,Q1,Q2,Q3,Q4,acc_sum,block,block_c,correct,correct_response,datetime,endtime,project,response,response_time,row_sel,session_number,squiggle1,squiggle1x,squiggle1y,squiggle2,squiggle2x,squiggle2y,squiggle3,squiggle3x,squiggle3y,squiggle4,squiggle4x,squiggle4y,start_end,starttime,subject_id,target_congruent,task,task_vers,testsquiggle,testsquigglex,testsquiggley,time_practice_delay,time_practice_fixation,time_practice_stimuli,time_practice_study,time_test_delay,time_test_fixation,time_test_stimuli,time_test_study,trial
1,1,0,0,0,0,prac,1,0,z,Fri Mar 13 2026 10:55:13 GMT-0500 (Central Daylight Time),161949.90000009537,O,None,2014,1,1,116.bmp,-120,-120,117.bmp,120,-120,118.bmp,-120,120,119.bmp,120,120,10831.400000095367,151118.5,7739,yes,SM,A,116.bmp,-120,-120,149955,143922,151971,145940,,,,,1
3,0,0,1,0,0,prac,1,0,m,Fri Mar 13 2026 10:55:13 GMT-0500 (Central Daylight Time),172796.0,O,None,2015,2,1,120.bmp,-120,-120,121.bmp,120,-120,122.bmp,-120,120,123.bmp,120,120,10829.599999904633,161966.40000009537,7739,no,SM,A,123.bmp,-120,120,160801,154770,162817,156787,,,,,2
4,0,0,0,1,0,prac,1,0,m,Fri Mar 13 2026 10:55:13 GMT-0500 (Central Daylight Time),183642.40000009537,O,None,2015,3,1,124.bmp,-120,-120,125.bmp,120,-120,126.bmp,-120,120,127.bmp,120,120,10830.200000047684,172812.20000004768,7739,no,SM,A,124.bmp,120,120,171646,165616,173664,167633,,,,,3
2,0,1,0,0,0,prac,1,0,z,Fri Mar 13 2026 10:55:13 GMT-0500 (Central Daylight Time),194488.40000009537,O,None,2014,4,1,128.bmp,-120,-120,129.bmp,120,-120,130.bmp,-120,120,131.bmp,120,120,10830.200000047684,183658.20000004768,7739,yes,SM,A,129.bmp,120,-120,182494,176462,184510,178479,,,,,4
3,0,0,1,0,0,prac,1,0,z,Fri Mar 13 2026 10:55:13 GMT-0500 (Central Daylight Time),205318.5,O,None,2016,5,1,132.bmp,-120,-120,133.bmp,120,-120,134.bmp,-120,120,135.bmp,120,120,10823.299999952316,194495.20000004768,7739,yes,SM,A,134.bmp,-120,120,193323,187299,195339,189309,,,,,5
1,1,0,0,0,1,prac,1,1,m,Fri Mar 13 2026 10:55:13 GMT-0500 (Central Daylight Time),216015.29999995232,O,m,1878,6,1,136.bmp,-120,-120,137.bmp,120,-120,138.bmp,-120,120,139.bmp,120,120,10683.399999856949,205331.90000009537,7739,no,SM,A,139.bmp,-120,-120,204153,198135,206170,200138,,,,,6
2,0,1,0,0,1,prac,1,0,m,Fri Mar 13 2026 10:55:13 GMT-0500 (Central Daylight Time),226794.79999995232,O,z,1933,7,1,140.bmp,-120,-120,141.bmp,120,-120,142.bmp,-120,120,143.bmp,120,120,10764.5,216030.29999995232,7739,no,SM,A,140.bmp,120,-120,214866,208834,216883,210851,,,,,7
4,0,0,0,1,1,prac,1,0,z,Fri Mar 13 2026 10:55:13 GMT-0500 (Central Daylight Time),237623.90000009537,O,None,2015,8,1,144.bmp,-120,-120,145.bmp,120,-120,146.bmp,-120,120,147.bmp,120,120,10815.600000143051,226808.29999995232,7739,yes,SM,A,147.bmp,120,120,225630,219612,227645,221615,,,,,8
1,1,0,0,0,0,prac,2,0,z,Fri Mar 13 2026 10:55:13 GMT-0500 (Central Daylight Time),261900.20000004768,O,None,2015,1,1,116.bmp,-120,-120,117.bmp,120,-120,118.bmp,-120,120,119.bmp,120,120,10817.200000047684,251083.0,7739,yes,SM,A,116.bmp,-120,-120,249905,243887,251921,245890,,,,,1
3,0,0,1,0,1,prac,2,1,m,Fri Mar 13 2026 10:55:13 GMT-0500 (Central Daylight Time),272330.2000000477,O,m,1609,2,1,120.bmp,-120,-120,121.bmp,120,-120,122.bmp,-120,120,123.bmp,120,120,10416.100000143051,261914.09999990463,7739,no,SM,A,123.bmp,-120,120,260735,254718,262751,256720,,,,,2
4,0,0,0,1,1,prac,2,0,m,Fri Mar 13 2026 10:55:13 GMT-0500 (Central Daylight Time),283176.2999999523,O,None,2015,3,1,124.bmp,-120,-120,125.bmp,120,-120,126.bmp,-120,120,127.bmp,120,120,10831.5,272344.7999999523,7739,no,SM,A,124.bmp,120,120,271181,265149,273198,267165,,,,,3
2,0,1,0,0,2,prac,2,1,z,Fri Mar 13 2026 10:55:13 GMT-0500 (Central Daylight Time),293889.7999999523,O,z,1875,4,1,128.bmp,-120,-120,129.bmp,120,-120,130.bmp,-120,120,131.bmp,120,120,10698.599999904633,283191.2000000477,7739,yes,SM,A,129.bmp,120,-120,282028,275995,284044,278013,,,,,4
3,0,0,1,0,3,prac,2,1,z,Fri Mar 13 2026 10:55:13 GMT-0500 (Central Daylight Time),304702.90000009537,O,z,1979,5,1,132.bmp,-120,-120,133.bmp,120,-120,134.bmp,-120,120,135.bmp,120,120,10798.5,293904.40000009537,7739,yes,SM,A,134.bmp,-120,120,292741,286708,294757,288726,,,,,5
1,1,0,0,0,4,prac,2,1,m,Fri Mar 13 2026 10:55:13 GMT-0500 (Central Daylight Time),314999.2999999523,O,m,1478,6,1,136.bmp,-120,-120,137.bmp,120,-120,138.bmp,-120,120,139.bmp,120,120,10283.200000047684,304716.09999990463,7739,no,SM,A,139.bmp,-120,-120,303537,297520,305554,299522,,,,,6
2,0,1,0,0,4,prac,2,0,m,Fri Mar 13 2026 10:55:13 GMT-0500 (Central Daylight Time),325462.59999990463,O,z,1645,7,1,140.bmp,-120,-120,141.bmp,120,-120,142.bmp,-120,120,143.bmp,120,120,10449.899999856949,315012.7000000477,7739,no,SM,A,140.bmp,120,-120,313833,307817,315851,309819,,,,,7
4,0,0,0,1,4,prac,2,0,z,Fri Mar 13 2026 10:55:13 GMT-0500 (Central Daylight Time),336292.2000000477,O,None,2014,8,1,144.bmp,-120,-120,145.bmp,120,-120,146.bmp,-120,120,147.bmp,120,120,10815.799999952316,325476.40000009537,7739,yes,SM,A,147.bmp,120,120,324297,318280,326313,320282,,,,,8
1,1,0,0,0,1,prac,3,1,z,Fri Mar 13 2026 10:55:13 GMT-0500 (Central Daylight Time),352270.90000009537,O,z,1521,1,1,116.bmp,-120,-120,117.bmp,120,-120,118.bmp,-120,120,119.bmp,120,120,10348.100000143051,341922.7999999523,7739,yes,SM,A,116.bmp,-120,-120,340760,334726,342775,336743,,,,,1
3,0,0,1,0,1,prac,3,0,m,Fri Mar 13 2026 10:55:13 GMT-0500 (Central Daylight Time),363100.40000009537,O,None,2015,2,1,120.bmp,-120,-120,121.bmp,120,-120,122.bmp,-120,120,123.bmp,120,120,10815.900000095367,352284.5,7739,no,SM,A,123.bmp,-120,120,351104,345088,353122,347089,,,,,2
4,0,0,0,1,2,prac,3,1,m,Fri Mar 13 2026 10:55:13 GMT-0500 (Central Daylight Time),373446.7999999523,O,m,1521,3,1,124.bmp,-120,-120,125.bmp,120,-120,126.bmp,-120,120,127.bmp,120,120,10333.0,363113.7999999523,7739,no,SM,A,124.bmp,120,120,361935,355918,363951,357920,,,,,3
2,0,1,0,0,2,prac,3,0,z,Fri Mar 13 2026 10:55:13 GMT-0500 (Central Daylight Time),384276.5,O,None,2015,4,1,128.bmp,-120,-120,129.bmp,120,-120,130.bmp,-120,120,131.bmp,120,120,10815.200000047684,373461.2999999523,7739,yes,SM,A,129.bmp,120,-120,372281,366265,374298,368266,,,,,4
3,0,0,1,0,3,prac,3,1,z,Fri Mar 13 2026 10:55:13 GMT-0500 (Central Daylight Time),394740.0,O,z,1624,5,1,132.bmp,-120,-120,133.bmp,120,-120,134.bmp,-120,120,135.bmp,120,120,10448.900000095367,384291.09999990463,7739,yes,SM,A,134.bmp,-120,120,383127,377095,385144,379113,,,,,5
1,1,0,0,0,4,prac,3,1,m,Fri Mar 13 2026 10:55:13 GMT-0500 (Central Daylight Time),405252.2000000477,O,m,1697,6,1,136.bmp,-120,-120,137.bmp,120,-120,138.bmp,-120,120,139.bmp,120,120,10498.0,394754.2000000477,7739,no,SM,A,139.bmp,-120,-120,393574,387558,395591,389559,,,,,6
2,0,1,0,0,4,prac,3,0,m,Fri Mar 13 2026 10:55:13 GMT-0500 (Central Daylight Time),416016.09999990463,O,z,1937,7,1,140.bmp,-120,-120,141.bmp,120,-120,142.bmp,-120,120,143.bmp,120,120,10758.599999904633,405257.5,7739,no,SM,A,140.bmp,120,-120,404088,398061,406103,400073,,,,,7
4,0,0,0,1,5,prac,3,1,z,Fri Mar 13 2026 10:55:13 GMT-0500 (Central Daylight Time),426662.7999999523,O,z,1829,8,1,144.bmp,-120,-120,145.bmp,120,-120,146.bmp,-120,120,147.bmp,120,120,10633.799999952316,416029.0,7739,yes,SM,A,147.bmp,120,120,414851,408833,416867,410835,,,,,8
4,0,0,0,1,0,test,1,0,m,Fri Mar 13 2026 10:55:13 GMT-0500 (Central Daylight Time),448955.59999990463,O,z,1633,1,1,148.bmp,-120,-120,149.bmp,120,-120,150.bmp,-120,120,143.bmp,120,120,9685.699999809265,439269.90000009537,7739,no,SM,A,150.bmp,120,120,414851,408833,416867,410835,438093.0,432074.0,440110.0,434078.0,1
2,0,1,0,0,1,test,1,1,m,Fri Mar 13 2026 10:55:13 GMT-0500 (Central Daylight Time),458868.0,O,m,1865,2,1,101.bmp,-120,-120,102.bmp,120,-120,103.bmp,-120,120,104.bmp,120,120,9899.700000047684,448968.2999999523,7739,no,SM,A,103.bmp,120,-120,414851,408833,416867,410835,447790.0,441772.0,449806.0,443775.0,2
1,1,0,0,0,1,test,1,0,z,Fri Mar 13 2026 10:55:13 GMT-0500 (Central Daylight Time),468932.09999990463,O,None,2016,3,1,105.bmp,-120,-120,106.bmp,120,-120,107.bmp,-120,120,108.bmp,120,120,10058.5,458873.59999990463,7739,yes,SM,A,105.bmp,-120,-120,414851,408833,416867,410835,457704.0,451677.0,459719.0,453688.0,3
3,0,0,1,0,2,test,1,1,m,Fri Mar 13 2026 10:55:13 GMT-0500 (Central Daylight Time),478661.5,O,m,1680,4,1,109.bmp,-120,-120,110.bmp,120,-120,111.bmp,-120,120,112.bmp,120,120,9715.900000095367,468945.59999990463,7739,no,SM,A,109.bmp,-120,120,414851,408833,416867,410835,467767.0,461749.0,469782.0,463752.0,4
2,0,1,0,0,2,test,1,0,z,Fri Mar 13 2026 10:55:13 GMT-0500 (Central Daylight Time),488725.5,O,None,2015,5,1,113.bmp,-120,-120,114.bmp,120,-120,115.bmp,-120,120,116.bmp,120,120,10059.700000047684,478665.7999999523,7739,yes,SM,A,114.bmp,120,-120,414851,408833,416867,410835,477497.0,471469.0,479513.0,473482.0,5
3,0,0,1,0,3,test,1,1,z,Fri Mar 13 2026 10:55:13 GMT-0500 (Central Daylight Time),498489.2000000477,O,z,1711,6,1,117.bmp,-120,-120,118.bmp,120,-120,119.bmp,-120,120,120.bmp,120,120,9751.0,488738.2000000477,7739,yes,SM,A,119.bmp,-120,120,414851,408833,416867,410835,487560.0,481542.0,489577.0,483545.0,6
4,0,0,0,1,4,test,1,1,z,Fri Mar 13 2026 10:55:13 GMT-0500 (Central Daylight Time),508152.5,O,z,1612,7,1,121.bmp,-120,-120,122.bmp,120,-120,123.bmp,-120,120,124.bmp,120,120,9650.5,498502.0,7739,yes,SM,A,124.bmp,120,120,414851,408833,416867,410835,497324.0,491306.0,499340.0,493309.0,7
2,0,1,0,0,5,test,1,1,m,Fri Mar 13 2026 10:55:13 GMT-0500 (Central Daylight Time),517715.5,O,m,1514,8,1,125.bmp,-120,-120,126.bmp,120,-120,127.bmp,-120,120,128.bmp,120,120,9548.700000047684,508166.7999999523,7739,no,SM,A,125.bmp,120,-120,414851,408833,416867,410835,506987.0,500970.0,509004.0,502972.0,8
3,0,0,1,0,6,test,1,1,m,Fri Mar 13 2026 10:55:13 GMT-0500 (Central Daylight Time),527579.5999999046,O,m,1801,9,1,129.bmp,-120,-120,130.bmp,120,-120,131.bmp,-120,120,132.bmp,120,120,9858.199999809265,517721.40000009537,7739,no,SM,A,130.bmp,-120,120,414851,408833,416867,410835,516550.0,510525.0,518567.0,512536.0,9
4,0,0,0,1,7,test,1,1,z,Fri Mar 13 2026 10:55:13 GMT-0500 (Central Daylight Time),537109.2000000477,O,z,1479,10,1,137.bmp,-120,-120,138.bmp,120,-120,139.bmp,-120,120,140.bmp,120,120,9516.299999952316,527592.9000000954,7739,yes,SM,A,140.bmp,120,120,414851,408833,416867,410835,526414.0,520397.0,528431.0,522399.0,10
3,0,0,1,0,7,test,1,0,z,Fri Mar 13 2026 10:55:13 GMT-0500 (Central Daylight Time),547172.2000000477,O,None,2014,11,1,133.bmp,-120,-120,134.bmp,120,-120,135.bmp,-120,120,136.bmp,120,120,10058.700000047684,537113.5,7739,yes,SM,A,135.bmp,-120,120,414851,408833,416867,410835,535944.0,529917.0,537961.0,531929.0,11
2,0,1,0,0,7,test,1,0,m,Fri Mar 13 2026 10:55:13 GMT-0500 (Central Daylight Time),557236.2000000477,O,None,2015,12,1,141.bmp,-120,-120,142.bmp,120,-120,143.bmp,-120,120,144.bmp,120,120,10060.299999952316,547175.9000000954,7739,no,SM,A,141.bmp,120,-120,414851,408833,416867,410835,546008.0,539979.0,548024.0,541992.0,12
3,0,0,1,0,7,test,1,0,m,Fri Mar 13 2026 10:55:13 GMT-0500 (Central Daylight Time),567299.9000000954,O,None,2017,13,1,145.bmp,-120,-120,146.bmp,120,-120,147.bmp,-120,120,148.bmp,120,120,10050.900000095367,557249.0,7739,no,SM,A,146.bmp,-120,120,414851,408833,416867,410835,556072.0,550053.0,558086.0,552056.0,13
1,1,0,0,0,8,test,1,1,z,Fri Mar 13 2026 10:55:13 GMT-0500 (Central Daylight Time),577163.0999999046,O,z,1800,14,1,149.bmp,-120,-120,150.bmp,120,-120,104.bmp,-120,120,101.bmp,120,120,9849.5,567313.5999999046,7739,yes,SM,A,149.bmp,-120,-120,414851,408833,416867,410835,566135.0,560117.0,568151.0,562120.0,14
4,0,0,0,1,8,test,1,0,m,Fri Mar 13 2026 10:55:13 GMT-0500 (Central Daylight Time),587226.5,O,None,2015,15,1,110.bmp,-120,-120,111.bmp,120,-120,112.bmp,-120,120,113.bmp,120,120,10050.0,577176.5,7739,no,SM,A,111.bmp,120,120,414851,408833,416867,410835,575998.0,569980.0,578014.0,571983.0,15
1,1,0,0,0,8,test,1,0,m,Fri Mar 13 2026 10:55:13 GMT-0500 (Central Daylight Time),597222.5,O,z,1944,16,1,102.bmp,-120,-120,103.bmp,120,-120,104.bmp,-120,120,105.bmp,120,120,9982.799999952316,587239.7000000477,7739,no,SM,A,105.bmp,-120,-120,414851,408833,416867,410835,586061.0,580044.0,588078.0,582046.0,16
3,0,0,1,0,8,test,1,0,m,Fri Mar 13 2026 10:55:13 GMT-0500 (Central Daylight Time),607286.7000000477,O,None,2017,17,1,122.bmp,-120,-120,123.bmp,120,-120,124.bmp,-120,120,125.bmp,120,120,10060.600000143051,597226.0999999046,7739,no,SM,A,122.bmp,-120,120,414851,408833,416867,410835,596058.0,590029.0,598073.0,592043.0,17
1,1,0,0,0,9,test,1,1,z,Fri Mar 13 2026 10:55:13 GMT-0500 (Central Daylight Time),617166.5,O,z,1830,18,1,106.bmp,-120,-120,107.bmp,120,-120,108.bmp,-120,120,109.bmp,120,120,9866.799999952316,607299.7000000477,7739,yes,SM,A,106.bmp,-120,-120,414851,408833,416867,410835,606121.0,600103.0,608138.0,602106.0,18
2,0,1,0,0,9,test,1,0,z,Fri Mar 13 2026 10:55:13 GMT-0500 (Central Daylight Time),626880.0,O,m,1662,19,1,126.bmp,-120,-120,127.bmp,120,-120,128.bmp,-120,120,129.bmp,120,120,9700.200000047684,617179.7999999523,7739,yes,SM,A,127.bmp,120,-120,414851,408833,416867,410835,616001.0,609983.0,618018.0,611986.0,19
3,0,0,1,0,10,test,1,1,z,Fri Mar 13 2026 10:55:13 GMT-0500 (Central Daylight Time),635710.4000000954,O,z,781,20,1,130.bmp,-120,-120,131.bmp,120,-120,132.bmp,-120,120,133.bmp,120,120,8818.300000190735,626892.0999999046,7739,yes,SM,A,132.bmp,-120,120,414851,408833,416867,410835,625714.0,619696.0,627731.0,621700.0,20
1,1,0,0,0,11,test,1,1,m,Fri Mar 13 2026 10:55:13 GMT-0500 (Central Daylight Time),645357.4000000954,O,m,1591,21,1,114.bmp,-120,-120,115.bmp,120,-120,116.bmp,-120,120,117.bmp,120,120,9632.700000047684,635724.7000000477,7739,no,SM,A,116.bmp,-120,-120,414851,408833,416867,410835,634545.0,628528.0,636561.0,630529.0,21
4,0,0,0,1,11,test,1,0,z,Fri Mar 13 2026 10:55:13 GMT-0500 (Central Daylight Time),655420.2999999523,O,None,2014,22,1,118.bmp,-120,-120,119.bmp,120,-120,120.bmp,-120,120,121.bmp,120,120,10051.299999952316,645369.0,7739,yes,SM,A,121.bmp,120,120,414851,408833,416867,410835,644192.0,638173.0,646209.0,640177.0,22
1,1,0,0,0,11,test,1,0,m,Fri Mar 13 2026 10:55:13 GMT-0500 (Central Daylight Time),665484.2000000477,O,None,2014,23,1,134.bmp,-120,-120,135.bmp,120,-120,136.bmp,-120,120,137.bmp,120,120,10059.200000047684,655425.0,7739,no,SM,A,137.bmp,-120,-120,414851,408833,416867,410835,654255.0,648228.0,656273.0,650239.0,23
2,0,1,0,0,11,test,1,0,z,Fri Mar 13 2026 10:55:13 GMT-0500 (Central Daylight Time),675547.5999999046,O,None,2017,24,1,142.bmp,-120,-120,143.bmp,120,-120,144.bmp,-120,120,145.bmp,120,120,10050.0,665497.5999999046,7739,yes,SM,A,143.bmp,120,-120,414851,408833,416867,410835,664319.0,658301.0,666334.0,660303.0,24
4,0,0,0,1,11,test,1,0,m,Fri Mar 13 2026 10:55:13 GMT-0500 (Central Daylight Time),685610.9000000954,O,None,2015,25,1,146.bmp,-120,-120,147.bmp,120,-120,148.bmp,-120,120,149.bmp,120,120,10050.100000143051,675560.7999999523,7739,no,SM,A,148.bmp,120,120,414851,408833,416867,410835,674381.0,668364.0,676399.0,670367.0,25
1,1,0,0,0,11,test,1,0,z,Fri Mar 13 2026 10:55:13 GMT-0500 (Central Daylight Time),695674.0999999046,O,None,2015,26,1,138.bmp,-120,-120,139.bmp,120,-120,140.bmp,-120,120,141.bmp,120,120,10050.899999856949,685623.2000000477,7739,yes,SM,A,138.bmp,-120,-120,414851,408833,416867,410835,684445.0,678427.0,686462.0,680431.0,26
4,0,0,0,1,11,test,1,0,z,Fri Mar 13 2026 10:55:13 GMT-0500 (Central Daylight Time),705737.2000000477,O,None,2014,27,1,150.bmp,-120,-120,111.bmp,120,-120,101.bmp,-120,120,102.bmp,120,120,10056.400000095367,695680.7999999523,7739,yes,SM,A,102.bmp,120,120,414851,408833,416867,410835,694509.0,688484.0,696525.0,690494.0,27
3,0,0,1,0,11,test,1,0,m,Fri Mar 13 2026 10:55:13 GMT-0500 (Central Daylight Time),715801.2000000477,O,None,2015,28,1,103.bmp,-120,-120,104.bmp,120,-120,105.bmp,-120,120,106.bmp,120,120,10058.400000095367,705742.7999999523,7739,no,SM,A,103.bmp,-120,120,414851,408833,416867,410835,704572.0,698546.0,706588.0,700557.0,28
2,0,1,0,0,11,test,1,0,z,Fri Mar 13 2026 10:55:13 GMT-0500 (Central Daylight Time),725864.7999999523,O,None,2016,29,1,107.bmp,-120,-120,108.bmp,120,-120,109.bmp,-120,120,110.bmp,120,120,10050.099999904633,715814.7000000477,7739,yes,SM,A,108.bmp,120,-120,414851,408833,416867,410835,714635.0,708618.0,716652.0,710621.0,29
3,0,0,1,0,11,test,1,0,z,Fri Mar 13 2026 10:55:13 GMT-0500 (Central Daylight Time),735927.9000000954,O,None,2016,30,1,111.bmp,-120,-120,112.bmp,120,-120,113.bmp,-120,120,114.bmp,120,120,10049.800000190735,725878.0999999046,7739,yes,SM,A,113.bmp,-120,120,414851,408833,416867,410835,724699.0,718682.0,726715.0,720684.0,30
1,1,0,0,0,11,test,1,0,z,Fri Mar 13 2026 10:55:13 GMT-0500 (Central Daylight Time),745990.9000000954,O,None,2015,31,1,115.bmp,-120,-120,116.bmp,120,-120,117.bmp,-120,120,118.bmp,120,120,10050.900000095367,735940.0,7739,yes,SM,A,115.bmp,-120,-120,414851,408833,416867,410835,734762.0,728744.0,736779.0,730747.0,31
2,0,1,0,0,11,test,1,0,m,Fri Mar 13 2026 10:55:13 GMT-0500 (Central Daylight Time),756054.5999999046,O,None,2015,32,1,119.bmp,-120,-120,120.bmp,120,-120,121.bmp,-120,120,122.bmp,120,120,10058.099999904633,745996.5,7739,no,SM,A,119.bmp,120,-120,414851,408833,416867,410835,744826.0,738800.0,746842.0,740811.0,32
4,0,0,0,1,11,test,1,0,z,Fri Mar 13 2026 10:55:13 GMT-0500 (Central Daylight Time),766118.2000000477,O,None,2016,33,1,131.bmp,-120,-120,132.bmp,120,-120,133.bmp,-120,120,134.bmp,120,120,10051.200000047684,756067.0,7739,yes,SM,A,134.bmp,120,120,414851,408833,416867,410835,754889.0,748871.0,756905.0,750874.0,33
2,0,1,0,0,11,test,1,0,z,Fri Mar 13 2026 10:55:13 GMT-0500 (Central Daylight Time),776181.2000000477,O,None,2016,34,1,123.bmp,-120,-120,124.bmp,120,-120,125.bmp,-120,120,126.bmp,120,120,10050.600000143051,766130.5999999046,7739,yes,SM,A,124.bmp,120,-120,414851,408833,416867,410835,764952.0,758934.0,766968.0,760937.0,34
4,0,0,0,1,11,test,1,0,m,Fri Mar 13 2026 10:55:13 GMT-0500 (Central Daylight Time),786243.7999999523,O,None,2015,35,1,127.bmp,-120,-120,128.bmp,120,-120,129.bmp,-120,120,130.bmp,120,120,10049.599999904633,776194.2000000477,7739,no,SM,A,129.bmp,120,120,414851,408833,416867,410835,775016.0,768998.0,777032.0,771000.0,35
3,0,0,1,0,11,test,1,0,m,Fri Mar 13 2026 10:55:13 GMT-0500 (Central Daylight Time),796307.9000000954,O,None,2017,36,1,135.bmp,-120,-120,136.bmp,120,-120,137.bmp,-120,120,138.bmp,120,120,10059.300000190735,786248.5999999046,7739,no,SM,A,135.bmp,-120,120,414851,408833,416867,410835,785079.0,779052.0,787094.0,781064.0,36
1,1,0,0,0,11,test,1,0,m,Fri Mar 13 2026 10:55:13 GMT-0500 (Central Daylight Time),806371.5999999046,O,None,2015,37,1,139.bmp,-120,-120,140.bmp,120,-120,141.bmp,-120,120,142.bmp,120,120,10049.699999809265,796321.9000000954,7739,no,SM,A,140.bmp,-120,-120,414851,408833,416867,410835,795142.0,789126.0,797159.0,791128.0,37
2,0,1,0,0,11,test,1,0,m,Fri Mar 13 2026 10:55:13 GMT-0500 (Central Daylight Time),816434.7000000477,O,None,2016,38,1,143.bmp,-120,-120,144.bmp,120,-120,145.bmp,-120,120,146.bmp,120,120,10049.799999952316,806384.9000000954,7739,no,SM,A,145.bmp,120,-120,414851,408833,416867,410835,805206.0,799189.0,807222.0,801190.0,38
4,0,0,0,1,11,test,1,0,z,Fri Mar 13 2026 10:55:13 GMT-0500 (Central Daylight Time),826497.2999999523,O,None,2015,39,1,147.bmp,-120,-120,148.bmp,120,-120,149.bmp,-120,120,150.bmp,120,120,10050.700000047684,816446.5999999046,7739,yes,SM,A,150.bmp,120,120,414851,408833,416867,410835,815269.0,809250.0,817285.0,811254.0,39
3,0,0,1,0,11,test,1,0,m,Fri Mar 13 2026 10:55:13 GMT-0500 (Central Daylight Time),836561.5,O,None,2015,40,1,104.bmp,-120,-120,105.bmp,120,-120,106.bmp,-120,120,107.bmp,120,120,10058.900000095367,826502.5999999046,7739,no,SM,A,105.bmp,-120,120,414851,408833,416867,410835,825332.0,819306.0,827349.0,821318.0,40
1,1,0,0,0,11,test,1,0,z,Fri Mar 13 2026 10:55:13 GMT-0500 (Central Daylight Time),846624.9000000954,O,None,2016,41,1,108.bmp,-120,-120,109.bmp,120,-120,110.bmp,-120,120,111.bmp,120,120,10051.200000047684,836573.7000000477,7739,yes,SM,A,108.bmp,-120,-120,414851,408833,416867,410835,835396.0,829377.0,837412.0,831381.0,41
4,0,0,0,1,11,test,1,0,z,Fri Mar 13 2026 10:55:13 GMT-0500 (Central Daylight Time),856688.2000000477,O,None,2016,42,1,112.bmp,-120,-120,113.bmp,120,-120,114.bmp,-120,120,115.bmp,120,120,10051.400000095367,846636.7999999523,7739,yes,SM,A,115.bmp,120,120,414851,408833,416867,410835,845459.0,839441.0,847475.0,841444.0,42
1,1,0,0,0,11,test,1,0,z,Fri Mar 13 2026 10:55:13 GMT-0500 (Central Daylight Time),866751.5,O,None,2015,43,1,116.bmp,-120,-120,117.bmp,120,-120,118.bmp,-120,120,119.bmp,120,120,10051.599999904633,856699.9000000954,7739,yes,SM,A,116.bmp,-120,-120,414851,408833,416867,410835,855522.0,849504.0,857539.0,851508.0,43
4,0,0,0,1,11,test,1,0,m,Fri Mar 13 2026 10:55:13 GMT-0500 (Central Daylight Time),876815.0,O,None,2016,44,1,104.bmp,-120,-120,101.bmp,120,-120,102.bmp,-120,120,103.bmp,120,120,10050.799999952316,866764.2000000477,7739,no,SM,A,104.bmp,120,120,414851,408833,416867,410835,865586.0,859568.0,867602.0,861571.0,44
1,1,0,0,0,11,test,1,0,m,Fri Mar 13 2026 10:55:13 GMT-0500 (Central Daylight Time),886878.5,O,None,2015,45,1,128.bmp,-120,-120,129.bmp,120,-120,130.bmp,-120,120,131.bmp,120,120,10051.200000047684,876827.2999999523,7739,no,SM,A,131.bmp,-120,-120,414851,408833,416867,410835,875649.0,869631.0,877666.0,871634.0,45
1,1,0,0,0,11,test,1,0,m,Fri Mar 13 2026 10:55:13 GMT-0500 (Central Daylight Time),896941.0,O,None,2015,46,1,120.bmp,-120,-120,121.bmp,120,-120,122.bmp,-120,120,123.bmp,120,120,10050.900000095367,886890.0999999046,7739,no,SM,A,121.bmp,-120,-120,414851,408833,416867,410835,885713.0,879694.0,887729.0,881698.0,46
3,0,0,1,0,11,test,1,0,z,Fri Mar 13 2026 10:55:13 GMT-0500 (Central Daylight Time),907004.7000000477,O,None,2016,47,1,124.bmp,-120,-120,125.bmp,120,-120,126.bmp,-120,120,127.bmp,120,120,10059.299999952316,896945.4000000954,7739,yes,SM,A,126.bmp,-120,120,414851,408833,416867,410835,895775.0,889749.0,897792.0,891761.0,47
3,0,0,1,0,11,test,1,0,z,Fri Mar 13 2026 10:55:13 GMT-0500 (Central Daylight Time),917068.2999999523,O,None,2015,48,1,140.bmp,-120,-120,141.bmp,120,-120,142.bmp,-120,120,143.bmp,120,120,10051.200000047684,907017.0999999046,7739,yes,SM,A,142.bmp,-120,120,414851,408833,416867,410835,905839.0,899821.0,907856.0,901825.0,48
2,0,1,0,0,11,test,1,0,z,Fri Mar 13 2026 10:55:13 GMT-0500 (Central Daylight Time),927131.5,O,None,2014,49,1,136.bmp,-120,-120,137.bmp,120,-120,138.bmp,-120,120,139.bmp,120,120,10051.5,917080.0,7739,yes,SM,A,137.bmp,120,-120,414851,408833,416867,410835,915902.0,909884.0,917920.0,911888.0,49
3,0,0,1,0,11,test,1,0,m,Fri Mar 13 2026 10:55:13 GMT-0500 (Central Daylight Time),937195.0,O,None,2015,50,1,132.bmp,-120,-120,133.bmp,120,-120,134.bmp,-120,120,135.bmp,120,120,10050.700000047684,927144.2999999523,7739,no,SM,A,132.bmp,-120,120,414851,408833,416867,410835,925966.0,919948.0,927983.0,921950.0,50
2,0,1,0,0,11,test,1,0,z,Fri Mar 13 2026 10:55:13 GMT-0500 (Central Daylight Time),947258.2000000477,O,None,2015,51,1,144.bmp,-120,-120,145.bmp,120,-120,146.bmp,-120,120,147.bmp,120,120,10050.5,937207.7000000477,7739,yes,SM,A,145.bmp,120,-120,414851,408833,416867,410835,936030.0,930011.0,938046.0,932014.0,51
4,0,0,0,1,11,test,1,0,m,Fri Mar 13 2026 10:55:13 GMT-0500 (Central Daylight Time),957321.7999999523,O,None,2015,52,1,148.bmp,-120,-120,149.bmp,120,-120,150.bmp,-120,120,131.bmp,120,120,10051.599999904633,947270.2000000477,7739,no,SM,A,148.bmp,120,120,414851,408833,416867,410835,946093.0,940074.0,948109.0,942078.0,52
3,0,0,1,0,11,test,1,0,z,Fri Mar 13 2026 10:55:13 GMT-0500 (Central Daylight Time),967385.0,O,None,2015,53,1,101.bmp,-120,-120,102.bmp,120,-120,103.bmp,-120,120,104.bmp,120,120,10049.599999904633,957335.4000000954,7739,yes,SM,A,103.bmp,-120,120,414851,408833,416867,410835,956157.0,950139.0,958173.0,952141.0,53
1,1,0,0,0,11,test,1,0,m,Fri Mar 13 2026 10:55:13 GMT-0500 (Central Daylight Time),977465.0,O,None,2015,54,1,105.bmp,-120,-120,106.bmp,120,-120,107.bmp,-120,120,108.bmp,120,120,10065.599999904633,967399.4000000954,7739,no,SM,A,107.bmp,-120,-120,414851,408833,416867,410835,966236.0,960203.0,968252.0,962220.0,54
4,0,0,0,1,11,test,1,0,z,Fri Mar 13 2026 10:55:13 GMT-0500 (Central Daylight Time),987544.2999999523,O,None,2014,55,1,109.bmp,-120,-120,110.bmp,120,-120,111.bmp,-120,120,112.bmp,120,120,10064.399999856949,977479.9000000954,7739,yes,SM,A,112.bmp,120,120,414851,408833,416867,410835,976316.0,970284.0,978333.0,972301.0,55
2,0,1,0,0,11,test,1,0,m,Fri Mar 13 2026 10:55:13 GMT-0500 (Central Daylight Time),997608.5999999046,O,None,2016,56,1,113.bmp,-120,-120,114.bmp,120,-120,115.bmp,-120,120,116.bmp,120,120,10059.099999904633,987549.5,7739,no,SM,A,113.bmp,120,-120,414851,408833,416867,410835,986380.0,980353.0,988395.0,982365.0,56
4,0,0,0,1,11,test,1,0,m,Fri Mar 13 2026 10:55:13 GMT-0500 (Central Daylight Time),1007672.0,O,None,2016,57,1,117.bmp,-120,-120,118.bmp,120,-120,119.bmp,-120,120,120.bmp,120,120,10054.0,997618.0,7739,no,SM,A,118.bmp,120,120,414851,408833,416867,410835,996442.0,990422.0,998459.0,992427.0,57
3,0,0,1,0,11,test,1,0,z,Fri Mar 13 2026 10:55:13 GMT-0500 (Central Daylight Time),1017735.0999999046,O,None,2015,58,1,121.bmp,-120,-120,122.bmp,120,-120,123.bmp,-120,120,124.bmp,120,120,10051.799999952316,1007683.2999999523,7739,yes,SM,A,123.bmp,-120,120,414851,408833,416867,410835,1006506.0,1000487.0,1008523.0,1002491.0,58
2,0,1,0,0,11,test,1,0,m,Fri Mar 13 2026 10:55:13 GMT-0500 (Central Daylight Time),1027798.5,O,None,2016,59,1,125.bmp,-120,-120,126.bmp,120,-120,127.bmp,-120,120,128.bmp,120,120,10051.200000047684,1017747.2999999523,7739,no,SM,A,128.bmp,120,-120,414851,408833,416867,410835,1016570.0,1010551.0,1018585.0,1012555.0,59
1,1,0,0,0,11,test,1,0,z,Fri Mar 13 2026 10:55:13 GMT-0500 (Central Daylight Time),1037861.4000000954,O,None,2014,60,1,129.bmp,-120,-120,130.bmp,120,-120,131.bmp,-120,120,132.bmp,120,120,10051.5,1027809.9000000954,7739,yes,SM,A,129.bmp,-120,-120,414851,408833,416867,410835,1026633.0,1020614.0,1028649.0,1022618.0,60
2,0,1,0,0,11,test,1,0,z,Fri Mar 13 2026 10:55:13 GMT-0500 (Central Daylight Time),1047925.0999999046,O,None,2015,61,1,133.bmp,-120,-120,134.bmp,120,-120,135.bmp,-120,120,136.bmp,120,120,10060.299999952316,1037864.7999999523,7739,yes,SM,A,134.bmp,120,-120,414851,408833,416867,410835,1036697.0,1030668.0,1038713.0,1032682.0,61
4,0,0,0,1,11,test,1,0,z,Fri Mar 13 2026 10:55:13 GMT-0500 (Central Daylight Time),1057988.5,O,None,2015,62,1,141.bmp,-120,-120,142.bmp,120,-120,143.bmp,-120,120,144.bmp,120,120,10051.5,1047937.0,7739,yes,SM,A,144.bmp,120,120,414851,408833,416867,410835,1046760.0,1040741.0,1048776.0,1042744.0,62
1,1,0,0,0,11,test,1,0,m,Fri Mar 13 2026 10:55:13 GMT-0500 (Central Daylight Time),1068051.7999999523,O,None,2016,63,1,145.bmp,-120,-120,146.bmp,120,-120,147.bmp,-120,120,148.bmp,120,120,10050.099999904633,1058001.7000000477,7739,no,SM,A,145.bmp,-120,120,414851,408833,416867,410835,1056823.0,1050805.0,1058839.0,1052808.0,63
2,0,1,0,0,11,test,1,0,z,Fri Mar 13 2026 10:55:13 GMT-0500 (Central Daylight Time),1078115.4000000954,O,None,2015,64,1,149.bmp,-120,-120,150.bmp,120,-120,112.bmp,-120,120,101.bmp,120,120,10050.200000047684,1068065.2000000477,7739,yes,SM,A,150.bmp,120,-120,414851,408833,416867,410835,1066886.0,1060869.0,1068903.0,1062871.0,64
4,0,0,0,1,11,test,1,0,m,Fri Mar 13 2026 10:55:13 GMT-0500 (Central Daylight Time),1088178.5999999046,O,None,2015,65,1,102.bmp,-120,-120,103.bmp,120,-120,104.bmp,-120,120,105.bmp,120,120,10051.699999809265,1078126.9000000954,7739,no,SM,A,104.bmp,120,120,414851,408833,416867,410835,1076950.0,1070931.0,1078967.0,1072934.0,65
3,0,0,1,0,11,test,1,0,m,Fri Mar 13 2026 10:55:13 GMT-0500 (Central Daylight Time),1098241.9000000954,O,None,2016,66,1,106.bmp,-120,-120,107.bmp,120,-120,108.bmp,-120,120,109.bmp,120,120,10049.600000143051,1088192.2999999523,7739,no,SM,A,109.bmp,-120,120,414851,408833,416867,410835,1087013.0,1080996.0,1089029.0,1082998.0,66
2,0,1,0,0,11,test,1,0,m,Fri Mar 13 2026 10:55:13 GMT-0500 (Central Daylight Time),1108305.5999999046,O,None,2015,67,1,137.bmp,-120,-120,138.bmp,120,-120,139.bmp,-120,120,140.bmp,120,120,10051.699999809265,1098253.9000000954,7739,no,SM,A,139.bmp,120,-120,414851,408833,416867,410835,1097076.0,1091058.0,1099093.0,1093062.0,67
3,0,0,1,0,11,test,1,0,z,Fri Mar 13 2026 10:55:13 GMT-0500 (Central Daylight Time),1118369.2000000477,O,None,2015,68,1,110.bmp,-120,-120,111.bmp,120,-120,112.bmp,-120,120,113.bmp,120,120,10051.900000095367,1108317.2999999523,7739,yes,SM,A,112.bmp,-120,120,414851,408833,416867,410835,1107140.0,1101121.0,1109157.0,1103125.0,68
1,1,0,0,0,11,test,1,0,m,Fri Mar 13 2026 10:55:13 GMT-0500 (Central Daylight Time),1128431.5,O,None,2014,69,1,114.bmp,-120,-120,115.bmp,120,-120,116.bmp,-120,120,117.bmp,120,120,10049.0,1118382.5,7739,no,SM,A,115.bmp,-120,-120,414851,408833,416867,410835,1117203.0,1111186.0,1119220.0,1113188.0,69
2,0,1,0,0,11,test,1,0,m,Fri Mar 13 2026 10:55:13 GMT-0500 (Central Daylight Time),1138495.2999999523,O,None,2015,70,1,118.bmp,-120,-120,119.bmp,120,-120,120.bmp,-120,120,121.bmp,120,120,10060.200000047684,1128435.0999999046,7739,no,SM,A,120.bmp,120,-120,414851,408833,416867,410835,1127267.0,1121238.0,1129283.0,1123252.0,70
4,0,0,0,1,11,test,1,0,z,Fri Mar 13 2026 10:55:13 GMT-0500 (Central Daylight Time),1148559.0999999046,O,None,2016,71,1,122.bmp,-120,-120,123.bmp,120,-120,124.bmp,-120,120,125.bmp,120,120,10051.299999952316,1138507.7999999523,7739,yes,SM,A,125.bmp,120,120,414851,408833,416867,410835,1137330.0,1131311.0,1139346.0,1133315.0,71
1,1,0,0,0,11,test,1,0,z,Fri Mar 13 2026 10:55:13 GMT-0500 (Central Daylight Time),1158622.2999999523,O,None,2015,72,1,126.bmp,-120,-120,127.bmp,120,-120,128.bmp,-120,120,129.bmp,120,120,10050.299999952316,1148572.0,7739,yes,SM,A,126.bmp,-120,-120,414851,408833,416867,410835,1147394.0,1141376.0,1149410.0,1143379.0,72
2,0,1,0,0,11,test,1,0,z,Fri Mar 13 2026 10:55:13 GMT-0500 (Central Daylight Time),1168668.9000000954,O,None,2014,73,1,130.bmp,-120,-120,131.bmp,120,-120,132.bmp,-120,120,133.bmp,120,120,10033.300000190735,1158635.5999999046,7739,yes,SM,A,131.bmp,120,-120,414851,408833,416867,410835,1157456.0,1151440.0,1159458.0,1153442.0,73
4,0,0,0,1,11,test,1,0,m,Fri Mar 13 2026 10:55:13 GMT-0500 (Central Daylight Time),1178732.2999999523,O,None,2015,74,1,134.bmp,-120,-120,135.bmp,120,-120,136.bmp,-120,120,137.bmp,120,120,10051.599999904633,1168680.7000000477,7739,no,SM,A,136.bmp,120,120,414851,408833,416867,410835,1167504.0,1161484.0,1169520.0,1163489.0,74
2,0,1,0,0,11,test,1,0,m,Fri Mar 13 2026 10:55:13 GMT-0500 (Central Daylight Time),1188795.4000000954,O,None,2015,75,1,138.bmp,-120,-120,139.bmp,120,-120,140.bmp,-120,120,141.bmp,120,120,10051.300000190735,1178744.0999999046,7739,no,SM,A,141.bmp,120,-120,414851,408833,416867,410835,1177567.0,1171548.0,1179583.0,1173552.0,75
1,1,0,0,0,11,test,1,0,z,Fri Mar 13 2026 10:55:13 GMT-0500 (Central Daylight Time),1198859.0,O,None,2016,76,1,142.bmp,-120,-120,143.bmp,120,-120,144.bmp,-120,120,145.bmp,120,120,10056.700000047684,1188802.2999999523,7739,yes,SM,A,142.bmp,-120,-120,414851,408833,416867,410835,1187630.0,1181606.0,1189646.0,1183616.0,76
3,0,0,1,0,11,test,1,0,z,Fri Mar 13 2026 10:55:13 GMT-0500 (Central Daylight Time),1208922.5,O,None,2015,77,1,150.bmp,-120,-120,111.bmp,120,-120,101.bmp,-120,120,102.bmp,120,120,10052.200000047684,1198870.2999999523,7739,yes,SM,A,101.bmp,-120,120,414851,408833,416867,410835,1197693.0,1191674.0,1199710.0,1193679.0,77
1,1,0,0,0,11,test,1,0,m,Fri Mar 13 2026 10:55:13 GMT-0500 (Central Daylight Time),1218985.5999999046,O,None,2015,78,1,146.bmp,-120,-120,147.bmp,120,-120,148.bmp,-120,120,149.bmp,120,120,10051.099999904633,1208934.5,7739,no,SM,A,147.bmp,-120,-120,414851,408833,416867,410835,1207757.0,1201738.0,1209773.0,1203742.0,78
4,0,0,0,1,11,test,1,0,m,Fri Mar 13 2026 10:55:13 GMT-0500 (Central Daylight Time),1229049.0,O,None,2015,79,1,107.bmp,-120,-120,108.bmp,120,-120,109.bmp,-120,120,110.bmp,120,120,10050.200000047684,1218998.7999999523,7739,no,SM,A,107.bmp,120,120,414851,408833,416867,410835,1217819.0,1211802.0,1219837.0,1213805.0,79
3,0,0,1,0,11,test,1,0,m,Fri Mar 13 2026 10:55:13 GMT-0500 (Central Daylight Time),1239112.4000000954,O,None,2015,80,1,103.bmp,-120,-120,104.bmp,120,-120,105.bmp,-120,120,106.bmp,120,120,10050.0,1229062.4000000954,7739,no,SM,A,106.bmp,-120,120,414851,408833,416867,410835,1227883.0,1221866.0,1229900.0,1223869.0,80
