acc_sum,block_c,block_dur,condition,correct,correct_response,countdown,datetime,endtime,project,response,response_time,response_time_test1_response,response_time_test2_response,row_sel,same,session_number,start_end,starttime,stim1,stim2,subject_id,task,task_vers,time_test1,time_test2,trial
1,1,0.0,prac,1,m,30000.0,Wed Mar 25 2026 16:54:32 GMT-0500 (Central Daylight Time),68377.59999990463,O,m,3748,,,4,no,1,5277.5,63100.09999990463,practrial4.png,practrial4b.png,7787,PC,B,,,1
2,1,0.0,prac,1,z,30000.0,Wed Mar 25 2026 16:54:32 GMT-0500 (Central Daylight Time),71627.79999995232,O,z,1714,,,5,yes,1,3244.2999999523163,68383.5,practrial5.png,practrial5.png,7787,PC,B,,,2
3,1,0.0,prac,1,m,30000.0,Wed Mar 25 2026 16:54:32 GMT-0500 (Central Daylight Time),76378.70000004768,O,m,3214,,,6,no,1,4744.200000047684,71634.5,practrial6.png,practrial6b.png,7787,PC,B,,,3
4,1,0.0,prac,1,m,30000.0,Wed Mar 25 2026 16:54:32 GMT-0500 (Central Daylight Time),80190.5,O,m,2282,,,2,no,1,3808.7000000476837,76381.79999995232,practrial2.png,practrial2b.png,7787,PC,B,,,4
5,1,0.0,prac,1,z,30000.0,Wed Mar 25 2026 16:54:32 GMT-0500 (Central Daylight Time),83408.5,O,z,1713,,,3,yes,1,3215.0999999046326,80193.40000009537,practrial3.png,practrial3.png,7787,PC,B,,,5
6,1,0.0,prac,1,z,30000.0,Wed Mar 25 2026 16:54:32 GMT-0500 (Central Daylight Time),87006.20000004768,O,z,2073,,,1,yes,1,3591.5,83414.70000004768,practrial1.png,practrial1.png,7787,PC,B,,,6
1,1,1.567000150680542,test,1,z,28432.999849319458,Wed Mar 25 2026 16:54:32 GMT-0500 (Central Daylight Time),110715.59999990463,O,z,1562,1562,,1,yes,1,1563.5999999046326,109152.0,test1trial1.png,test1trial1.png,7787,PC,B,106725,,1
2,1,2.7800002098083496,test,1,m,27219.99979019165,Wed Mar 25 2026 16:54:32 GMT-0500 (Central Daylight Time),111928.90000009537,O,m,1202,1202,,2,no,1,1210.0,110718.90000009537,test1trial2.png,test1trial2b.png,7787,PC,B,108292,,2
3,1,4.147000074386597,test,1,z,25852.999925613403,Wed Mar 25 2026 16:54:32 GMT-0500 (Central Daylight Time),113295.79999995232,O,z,1346,1346,,3,yes,1,1359.5999999046326,111936.20000004768,test1trial3.png,test1trial3.png,7787,PC,B,109509,,3
4,1,5.833000183105469,test,1,m,24166.99981689453,Wed Mar 25 2026 16:54:32 GMT-0500 (Central Daylight Time),114981.40000009537,O,m,1667,1667,,4,no,1,1679.3000001907349,113302.09999990463,test1trial4.png,test1trial4b.png,7787,PC,B,110876,,4
5,1,7.382000207901001,test,1,z,22617.999792099,Wed Mar 25 2026 16:54:32 GMT-0500 (Central Daylight Time),116530.40000009537,O,z,1535,1535,,5,yes,1,1545.5,114984.90000009537,test1trial5.png,test1trial5.png,7787,PC,B,112558,,5
6,1,9.281000137329102,test,1,m,20718.9998626709,Wed Mar 25 2026 16:54:32 GMT-0500 (Central Daylight Time),118429.70000004768,O,m,1884,1884,,6,no,1,1895.7999999523163,116533.90000009537,test1trial6.png,test1trial6b.png,7787,PC,B,114107,,6
7,1,10.365000009536743,test,1,z,19634.999990463257,Wed Mar 25 2026 16:54:32 GMT-0500 (Central Daylight Time),119513.59999990463,O,z,1075,1075,,7,yes,1,1080.7999999523163,118432.79999995232,test1trial7.png,test1trial7.png,7787,PC,B,116005,,7
7,1,12.097000122070312,test,0,m,17902.999877929688,Wed Mar 25 2026 16:54:32 GMT-0500 (Central Daylight Time),121245.20000004768,O,z,1716,1716,,8,no,1,1728.7999999523163,119516.40000009537,test1trial8.png,test1trial8b.png,7787,PC,B,117089,,8
8,1,13.61300015449524,test,1,z,16386.99984550476,Wed Mar 25 2026 16:54:32 GMT-0500 (Central Daylight Time),122761.90000009537,O,z,1497,1497,,9,yes,1,1513.3000001907349,121248.59999990463,test1trial9.png,test1trial9.png,7787,PC,B,118821,,9
9,1,15.063000202178955,test,1,m,14936.999797821045,Wed Mar 25 2026 16:54:32 GMT-0500 (Central Daylight Time),124211.40000009537,O,m,1438,1438,,10,no,1,1447.1000001430511,122764.29999995232,test1trial10.png,test1trial10b.png,7787,PC,B,120337,,10
10,1,16.413000106811523,test,1,z,13586.999893188477,Wed Mar 25 2026 16:54:32 GMT-0500 (Central Daylight Time),125561.29999995232,O,z,1331,1331,,11,yes,1,1347.2000000476837,124214.09999990463,test1trial11.png,test1trial11.png,7787,PC,B,121787,,11
11,1,18.011000156402588,test,1,m,11988.999843597412,Wed Mar 25 2026 16:54:32 GMT-0500 (Central Daylight Time),127159.5,O,m,1588,1588,,12,no,1,1594.7000000476837,125564.79999995232,test1trial12.png,test1trial12b.png,7787,PC,B,123138,,12
12,1,19.812000036239624,test,1,m,10187.999963760376,Wed Mar 25 2026 16:54:32 GMT-0500 (Central Daylight Time),128960.40000009537,O,m,1791,1791,,13,no,1,1798.4000000953674,127162.0,test1trial13.png,test1trial13b.png,7787,PC,B,124735,,13
13,1,21.844000101089478,test,1,m,8155.9998989105225,Wed Mar 25 2026 16:54:32 GMT-0500 (Central Daylight Time),130992.5,O,m,2013,2013,,14,no,1,2028.7999999523163,128963.70000004768,test1trial14.png,test1trial14b.png,7787,PC,B,126537,,14
14,1,23.39300012588501,test,1,z,6606.99987411499,Wed Mar 25 2026 16:54:32 GMT-0500 (Central Daylight Time),132542.0,O,z,1534,1534,,15,yes,1,1546.5,130995.5,test1trial15.png,test1trial15.png,7787,PC,B,128568,,15
15,1,25.026000022888184,test,1,m,4973.999977111816,Wed Mar 25 2026 16:54:32 GMT-0500 (Central Daylight Time),134174.90000009537,O,m,1624,1624,,16,no,1,1629.7000000476837,132545.20000004768,test1trial16.png,test1trial16b.png,7787,PC,B,130118,,16
16,1,26.85800004005432,test,1,z,3141.9999599456787,Wed Mar 25 2026 16:54:32 GMT-0500 (Central Daylight Time),136007.09999990463,O,z,1821,1821,,17,yes,1,1827.1999998092651,134179.90000009537,test1trial17.png,test1trial17.png,7787,PC,B,131753,,17
17,1,28.60700011253357,test,1,m,1392.9998874664307,Wed Mar 25 2026 16:54:32 GMT-0500 (Central Daylight Time),137756.09999990463,O,m,1735,1735,,18,no,1,1745.7999999523163,136010.29999995232,test1trial18.png,test1trial18b.png,7787,PC,B,133583,,18
17,1,30.02400016784668,test,0,m,-24.000167846679688,Wed Mar 25 2026 16:54:32 GMT-0500 (Central Daylight Time),139172.5,O,None,1407,1407,,19,no,1,1408.9000000953674,137763.59999990463,test1trial19.png,test1trial19b.png,7787,PC,B,135337,,19
1,2,1.566999912261963,test,1,m,28433.000087738037,Wed Mar 25 2026 16:54:32 GMT-0500 (Central Daylight Time),152235.40000009537,O,m,1559,,1559.0,1,no,1,14471.800000190735,137763.59999990463,test2trial1.png,test2trial1b.png,7787,PC,B,,148247.0,1
2,2,3.0329999923706055,test,1,m,26967.000007629395,Wed Mar 25 2026 16:54:32 GMT-0500 (Central Daylight Time),153701.70000004768,O,m,1448,,1448.0,2,no,1,15938.100000143051,137763.59999990463,test2trial2.png,test2trial2b.png,7787,PC,B,,149814.0,2
3,2,4.548999786376953,test,1,z,25451.000213623047,Wed Mar 25 2026 16:54:32 GMT-0500 (Central Daylight Time),155218.09999990463,O,z,1501,,1501.0,3,yes,1,17454.5,137763.59999990463,test2trial3.png,test2trial3.png,7787,PC,B,,151281.0,3
4,2,5.898000001907349,test,1,z,24101.99999809265,Wed Mar 25 2026 16:54:32 GMT-0500 (Central Daylight Time),156566.59999990463,O,z,1337,,1337.0,4,yes,1,18803.0,137763.59999990463,test2trial4.png,test2trial4.png,7787,PC,B,,152796.0,4
5,2,7.2149999141693115,test,1,z,22785.00008583069,Wed Mar 25 2026 16:54:32 GMT-0500 (Central Daylight Time),157883.90000009537,O,z,1311,,1311.0,5,yes,1,20120.300000190735,137763.59999990463,test2trial5.png,test2trial5.png,7787,PC,B,,154144.0,5
6,2,8.663999795913696,test,1,z,21336.000204086304,Wed Mar 25 2026 16:54:32 GMT-0500 (Central Daylight Time),159333.20000004768,O,z,1438,,1438.0,6,yes,1,21569.60000014305,137763.59999990463,test2trial6.png,test2trial6.png,7787,PC,B,,155463.0,6
7,2,10.197999954223633,test,1,m,19802.000045776367,Wed Mar 25 2026 16:54:32 GMT-0500 (Central Daylight Time),160866.5,O,m,1529,,1529.0,7,no,1,23102.900000095367,137763.59999990463,test2trial7.png,test2trial7b.png,7787,PC,B,,156909.0,7
8,2,11.763999938964844,test,1,m,18236.000061035156,Wed Mar 25 2026 16:54:32 GMT-0500 (Central Daylight Time),162433.09999990463,O,m,1546,,1546.0,8,no,1,24669.5,137763.59999990463,test2trial8.png,test2trial8b.png,7787,PC,B,,158444.0,8
9,2,13.263000011444092,test,1,z,16736.99998855591,Wed Mar 25 2026 16:54:32 GMT-0500 (Central Daylight Time),163931.70000004768,O,z,1492,,1492.0,9,yes,1,26168.10000014305,137763.59999990463,test2trial9.png,test2trial9.png,7787,PC,B,,160010.0,9
10,2,14.794999837875366,test,1,z,15205.000162124634,Wed Mar 25 2026 16:54:32 GMT-0500 (Central Daylight Time),165463.5,O,z,1512,,1512.0,10,yes,1,27699.900000095367,137763.59999990463,test2trial10.png,test2trial10.png,7787,PC,B,,161510.0,10
11,2,16.41099977493286,test,1,m,13589.000225067139,Wed Mar 25 2026 16:54:32 GMT-0500 (Central Daylight Time),167080.0,O,m,1607,,1607.0,11,no,1,29316.400000095367,137763.59999990463,test2trial11.png,test2trial11b.png,7787,PC,B,,163039.0,11
12,2,18.07799983024597,test,1,m,11922.000169754028,Wed Mar 25 2026 16:54:32 GMT-0500 (Central Daylight Time),168747.20000004768,O,m,1651,,1651.0,12,no,1,30983.60000014305,137763.59999990463,test2trial12.png,test2trial12b.png,7787,PC,B,,164659.0,12
13,2,19.444000005722046,test,1,z,10555.999994277954,Wed Mar 25 2026 16:54:32 GMT-0500 (Central Daylight Time),170112.70000004768,O,z,1346,,1346.0,13,yes,1,32349.10000014305,137763.59999990463,test2trial13.png,test2trial13.png,7787,PC,B,,166323.0,13
14,2,21.259999990463257,test,1,m,8740.000009536743,Wed Mar 25 2026 16:54:32 GMT-0500 (Central Daylight Time),171929.40000009537,O,m,1806,,1806.0,14,no,1,34165.800000190735,137763.59999990463,test2trial14.png,test2trial14b.png,7787,PC,B,,167690.0,14
15,2,22.876999855041504,test,1,m,7123.000144958496,Wed Mar 25 2026 16:54:32 GMT-0500 (Central Daylight Time),173546.29999995232,O,m,1605,,1605.0,15,no,1,35782.700000047684,137763.59999990463,test2trial15.png,test2trial15b.png,7787,PC,B,,169506.0,15
16,2,24.592000007629395,test,1,m,5407.9999923706055,Wed Mar 25 2026 16:54:32 GMT-0500 (Central Daylight Time),175260.79999995232,O,m,1700,,1700.0,16,no,1,37497.200000047684,137763.59999990463,test2trial16.png,test2trial16b.png,7787,PC,B,,171122.0,16
17,2,26.32699990272522,test,1,z,3673.0000972747803,Wed Mar 25 2026 16:54:32 GMT-0500 (Central Daylight Time),176995.59999990463,O,z,1729,,1729.0,17,yes,1,39232.0,137763.59999990463,test2trial17.png,test2trial17.png,7787,PC,B,,172837.0,17
18,2,27.824999809265137,test,1,z,2175.0001907348633,Wed Mar 25 2026 16:54:32 GMT-0500 (Central Daylight Time),178494.20000004768,O,z,1490,,1490.0,18,yes,1,40730.60000014305,137763.59999990463,test2trial18.png,test2trial18.png,7787,PC,B,,174572.0,18
19,2,29.544999837875366,test,1,z,455.0001621246338,Wed Mar 25 2026 16:54:32 GMT-0500 (Central Daylight Time),180214.09999990463,O,z,1700,,1700.0,19,yes,1,42450.5,137763.59999990463,test2trial19.png,test2trial19.png,7787,PC,B,,176070.0,19
19,2,30.007999897003174,test,0,z,-7.999897003173828,Wed Mar 25 2026 16:54:32 GMT-0500 (Central Daylight Time),180676.70000004768,O,None,461,,461.0,20,yes,1,42913.10000014305,137763.59999990463,test2trial20.png,test2trial20.png,7787,PC,B,,177788.0,20
