Q,Q1,Q2,Q3,Q4,acc_sum,block,block_c,correct,correct_response,datetime,endtime,project,response,response_time,row_sel,session_number,squiggle1,squiggle1x,squiggle1y,squiggle2,squiggle2x,squiggle2y,squiggle3,squiggle3x,squiggle3y,squiggle4,squiggle4x,squiggle4y,start_end,starttime,subject_id,target_congruent,task,task_vers,testsquiggle,testsquigglex,testsquiggley,time_practice_delay,time_practice_fixation,time_practice_stimuli,time_practice_study,time_test_delay,time_test_fixation,time_test_stimuli,time_test_study,trial
1,1,0,0,0,0,prac,1,0,z,Tue Nov 18 2025 18:31:47 GMT-0600 (Central Standard Time),186324.59999999404,O,None,2017,1,1,116.bmp,-120,-120,117.bmp,120,-120,118.bmp,-120,120,119.bmp,120,120,10822.59999999404,175502.0,7248,yes,SM,A,116.bmp,-120,-120,167197,161171,169212,163181,,,,,1
3,0,0,1,0,1,prac,1,1,m,Tue Nov 18 2025 18:31:47 GMT-0600 (Central Standard Time),196154.80000001192,O,m,1028,2,1,120.bmp,-120,-120,121.bmp,120,-120,122.bmp,-120,120,123.bmp,120,120,9825.200000017881,186329.59999999404,7248,no,SM,A,123.bmp,-120,120,178025,171999,180026,174012,,,,,2
4,0,0,0,1,2,prac,1,1,m,Tue Nov 18 2025 18:31:47 GMT-0600 (Central Standard Time),206703.19999998808,O,m,1733,3,1,124.bmp,-120,-120,125.bmp,120,-120,126.bmp,-120,120,127.bmp,120,120,10543.799999982119,196159.40000000596,7248,no,SM,A,124.bmp,120,120,187855,181829,189857,183842,,,,,3
2,0,1,0,0,3,prac,1,1,z,Tue Nov 18 2025 18:31:47 GMT-0600 (Central Standard Time),217098.80000001192,O,z,1568,4,1,128.bmp,-120,-120,129.bmp,120,-120,130.bmp,-120,120,131.bmp,120,120,10391.5,206707.30000001192,7248,yes,SM,A,129.bmp,120,-120,198405,192377,200421,194387,,,,,4
3,0,0,1,0,3,prac,1,0,z,Tue Nov 18 2025 18:31:47 GMT-0600 (Central Standard Time),227928.90000000596,O,None,2015,5,1,132.bmp,-120,-120,133.bmp,120,-120,134.bmp,-120,120,135.bmp,120,120,10826.59999999404,217102.30000001192,7248,yes,SM,A,134.bmp,-120,120,208800,202772,210816,204784,,,,,5
1,1,0,0,0,4,prac,1,1,m,Tue Nov 18 2025 18:31:47 GMT-0600 (Central Standard Time),238043.90000000596,O,m,1290,6,1,136.bmp,-120,-120,137.bmp,120,-120,138.bmp,-120,120,139.bmp,120,120,10112.40000000596,227931.5,7248,no,SM,A,139.bmp,-120,-120,219629,213601,221644,215614,,,,,6
2,0,1,0,0,5,prac,1,1,m,Tue Nov 18 2025 18:31:47 GMT-0600 (Central Standard Time),248023.69999998808,O,m,1158,7,1,140.bmp,-120,-120,141.bmp,120,-120,142.bmp,-120,120,143.bmp,120,120,9975.899999976158,238047.80000001192,7248,no,SM,A,140.bmp,120,-120,229743,223717,231760,225728,,,,,7
4,0,0,0,1,6,prac,1,1,z,Tue Nov 18 2025 18:31:47 GMT-0600 (Central Standard Time),258568.59999999404,O,z,1733,8,1,144.bmp,-120,-120,145.bmp,120,-120,146.bmp,-120,120,147.bmp,120,120,10542.09999999404,248026.5,7248,yes,SM,A,147.bmp,120,120,239723,233696,241739,235708,,,,,8
4,0,0,0,1,1,test,1,1,m,Tue Nov 18 2025 18:31:47 GMT-0600 (Central Standard Time),281597.09999999404,O,m,1232,1,1,148.bmp,-120,-120,149.bmp,120,-120,150.bmp,-120,120,143.bmp,120,120,9279.0,272318.09999999404,7248,no,SM,A,150.bmp,120,120,239723,233696,241739,235708,264014.0,257987.0,266030.0,259999.0,1
2,0,1,0,0,2,test,1,1,m,Tue Nov 18 2025 18:31:47 GMT-0600 (Central Standard Time),290907.6999999881,O,m,1255,2,1,101.bmp,-120,-120,102.bmp,120,-120,103.bmp,-120,120,104.bmp,120,120,9306.299999982119,281601.40000000596,7248,no,SM,A,103.bmp,120,-120,239723,233696,241739,235708,273295.0,267271.0,275311.0,269280.0,2
1,1,0,0,0,3,test,1,1,z,Tue Nov 18 2025 18:31:47 GMT-0600 (Central Standard Time),300539.1999999881,O,z,1581,3,1,105.bmp,-120,-120,106.bmp,120,-120,107.bmp,-120,120,108.bmp,120,120,9627.299999982119,290911.90000000596,7248,yes,SM,A,105.bmp,-120,-120,239723,233696,241739,235708,282610.0,276581.0,284625.0,278593.0,3
3,0,0,1,0,4,test,1,1,m,Tue Nov 18 2025 18:31:47 GMT-0600 (Central Standard Time),309751.90000000596,O,m,1159,4,1,109.bmp,-120,-120,110.bmp,120,-120,111.bmp,-120,120,112.bmp,120,120,9208.90000000596,300543.0,7248,no,SM,A,109.bmp,-120,120,239723,233696,241739,235708,292239.0,286212.0,294255.0,288225.0,4
2,0,1,0,0,4,test,1,0,z,Tue Nov 18 2025 18:31:47 GMT-0600 (Central Standard Time),319616.5,O,m,1801,5,1,113.bmp,-120,-120,114.bmp,120,-120,115.bmp,-120,120,116.bmp,120,120,9860.59999999404,309755.90000000596,7248,yes,SM,A,114.bmp,120,-120,239723,233696,241739,235708,301455.0,295425.0,303468.0,297439.0,5
3,0,0,1,0,5,test,1,1,z,Tue Nov 18 2025 18:31:47 GMT-0600 (Central Standard Time),329430.1999999881,O,z,1753,6,1,117.bmp,-120,-120,118.bmp,120,-120,119.bmp,-120,120,120.bmp,120,120,9810.299999982119,319619.90000000596,7248,yes,SM,A,119.bmp,-120,120,239723,233696,241739,235708,311316.0,305289.0,313333.0,307302.0,6
4,0,0,0,1,5,test,1,0,z,Tue Nov 18 2025 18:31:47 GMT-0600 (Central Standard Time),339293.09999999404,O,m,1810,7,1,121.bmp,-120,-120,122.bmp,120,-120,123.bmp,-120,120,124.bmp,120,120,9859.199999988079,329433.90000000596,7248,yes,SM,A,124.bmp,120,120,239723,233696,241739,235708,321131.0,315103.0,323147.0,317115.0,7
2,0,1,0,0,5,test,1,0,m,Tue Nov 18 2025 18:31:47 GMT-0600 (Central Standard Time),349357.40000000596,O,None,2017,8,1,125.bmp,-120,-120,126.bmp,120,-120,127.bmp,-120,120,128.bmp,120,120,10061.90000000596,339295.5,7248,no,SM,A,125.bmp,120,-120,239723,233696,241739,235708,330993.0,324965.0,333009.0,326978.0,8
3,0,0,1,0,6,test,1,1,m,Tue Nov 18 2025 18:31:47 GMT-0600 (Central Standard Time),359087.6999999881,O,m,1677,9,1,129.bmp,-120,-120,130.bmp,120,-120,131.bmp,-120,120,132.bmp,120,120,9726.899999976158,349360.8000000119,7248,no,SM,A,130.bmp,-120,120,239723,233696,241739,235708,341057.0,335030.0,343073.0,337042.0,9
4,0,0,0,1,6,test,1,0,z,Tue Nov 18 2025 18:31:47 GMT-0600 (Central Standard Time),369149.5,O,None,2014,10,1,137.bmp,-120,-120,138.bmp,120,-120,139.bmp,-120,120,140.bmp,120,120,10059.199999988079,359090.3000000119,7248,yes,SM,A,140.bmp,120,120,239723,233696,241739,235708,350788.0,344760.0,352804.0,346773.0,10
3,0,0,1,0,7,test,1,1,z,Tue Nov 18 2025 18:31:47 GMT-0600 (Central Standard Time),378330.6999999881,O,z,1133,11,1,133.bmp,-120,-120,134.bmp,120,-120,135.bmp,-120,120,136.bmp,120,120,9178.0,369152.6999999881,7248,yes,SM,A,135.bmp,-120,120,239723,233696,241739,235708,360851.0,354822.0,362867.0,356834.0,11
2,0,1,0,0,8,test,1,1,m,Tue Nov 18 2025 18:31:47 GMT-0600 (Central Standard Time),387676.8000000119,O,m,1302,12,1,141.bmp,-120,-120,142.bmp,120,-120,143.bmp,-120,120,144.bmp,120,120,9344.0,378332.8000000119,7248,no,SM,A,141.bmp,120,-120,239723,233696,241739,235708,370031.0,364002.0,372032.0,366016.0,12
3,0,0,1,0,9,test,1,1,m,Tue Nov 18 2025 18:31:47 GMT-0600 (Central Standard Time),397624.0,O,m,1888,13,1,145.bmp,-120,-120,146.bmp,120,-120,147.bmp,-120,120,148.bmp,120,120,9942.59999999404,387681.40000000596,7248,no,SM,A,146.bmp,-120,120,239723,233696,241739,235708,379378.0,373351.0,381397.0,375363.0,13
1,1,0,0,0,10,test,1,1,z,Tue Nov 18 2025 18:31:47 GMT-0600 (Central Standard Time),407404.5,O,z,1718,14,1,149.bmp,-120,-120,150.bmp,120,-120,104.bmp,-120,120,101.bmp,120,120,9776.199999988079,397628.3000000119,7248,yes,SM,A,149.bmp,-120,-120,239723,233696,241739,235708,389326.0,383297.0,391343.0,385311.0,14
4,0,0,0,1,10,test,1,0,m,Tue Nov 18 2025 18:31:47 GMT-0600 (Central Standard Time),417386.90000000596,O,z,1917,15,1,110.bmp,-120,-120,111.bmp,120,-120,112.bmp,-120,120,113.bmp,120,120,9978.5,407408.40000000596,7248,no,SM,A,111.bmp,120,120,239723,233696,241739,235708,399105.0,393078.0,401121.0,395090.0,15
1,1,0,0,0,11,test,1,1,m,Tue Nov 18 2025 18:31:47 GMT-0600 (Central Standard Time),426581.1999999881,O,m,1146,16,1,102.bmp,-120,-120,103.bmp,120,-120,104.bmp,-120,120,105.bmp,120,120,9189.399999976158,417391.8000000119,7248,no,SM,A,105.bmp,-120,-120,239723,233696,241739,235708,409085.0,403061.0,411101.0,405076.0,16
3,0,0,1,0,12,test,1,1,m,Tue Nov 18 2025 18:31:47 GMT-0600 (Central Standard Time),436195.0,O,m,1553,17,1,122.bmp,-120,-120,123.bmp,120,-120,124.bmp,-120,120,125.bmp,120,120,9611.0,426584.0,7248,no,SM,A,122.bmp,-120,120,239723,233696,241739,235708,418282.0,412253.0,420301.0,414268.0,17
1,1,0,0,0,13,test,1,1,z,Tue Nov 18 2025 18:31:47 GMT-0600 (Central Standard Time),445843.6999999881,O,z,1597,18,1,106.bmp,-120,-120,107.bmp,120,-120,108.bmp,-120,120,109.bmp,120,120,9645.59999999404,436198.09999999404,7248,yes,SM,A,106.bmp,-120,-120,239723,233696,241739,235708,427896.0,421867.0,429914.0,423883.0,18
2,0,1,0,0,13,test,1,0,z,Tue Nov 18 2025 18:31:47 GMT-0600 (Central Standard Time),455906.1999999881,O,None,2014,19,1,126.bmp,-120,-120,127.bmp,120,-120,128.bmp,-120,120,129.bmp,120,120,10059.899999976158,445846.3000000119,7248,yes,SM,A,127.bmp,120,-120,239723,233696,241739,235708,437544.0,431516.0,439561.0,433529.0,19
3,0,0,1,0,14,test,1,1,z,Tue Nov 18 2025 18:31:47 GMT-0600 (Central Standard Time),465085.09999999404,O,z,1135,20,1,130.bmp,-120,-120,131.bmp,120,-120,132.bmp,-120,120,133.bmp,120,120,9175.59999999404,455909.5,7248,yes,SM,A,132.bmp,-120,120,239723,233696,241739,235708,447591.0,441579.0,449607.0,443590.0,20
1,1,0,0,0,15,test,1,1,m,Tue Nov 18 2025 18:31:47 GMT-0600 (Central Standard Time),474400.6999999881,O,m,1249,21,1,114.bmp,-120,-120,115.bmp,120,-120,116.bmp,-120,120,117.bmp,120,120,9311.199999988079,465089.5,7248,no,SM,A,116.bmp,-120,-120,239723,233696,241739,235708,456788.0,450759.0,458804.0,452771.0,21
4,0,0,0,1,16,test,1,1,z,Tue Nov 18 2025 18:31:47 GMT-0600 (Central Standard Time),483963.40000000596,O,z,1530,22,1,118.bmp,-120,-120,119.bmp,120,-120,120.bmp,-120,120,121.bmp,120,120,9559.5,474403.90000000596,7248,yes,SM,A,121.bmp,120,120,239723,233696,241739,235708,466100.0,460073.0,468102.0,462086.0,22
1,1,0,0,0,17,test,1,1,m,Tue Nov 18 2025 18:31:47 GMT-0600 (Central Standard Time),493827.0,O,m,1817,23,1,134.bmp,-120,-120,135.bmp,120,-120,136.bmp,-120,120,137.bmp,120,120,9859.90000000596,483967.09999999404,7248,no,SM,A,137.bmp,-120,-120,239723,233696,241739,235708,475664.0,469636.0,477679.0,471649.0,23
2,0,1,0,0,18,test,1,1,z,Tue Nov 18 2025 18:31:47 GMT-0600 (Central Standard Time),503241.3000000119,O,z,1366,24,1,142.bmp,-120,-120,143.bmp,120,-120,144.bmp,-120,120,145.bmp,120,120,9410.5,493830.8000000119,7248,yes,SM,A,143.bmp,120,-120,239723,233696,241739,235708,485528.0,479500.0,487544.0,481512.0,24
4,0,0,0,1,19,test,1,1,m,Tue Nov 18 2025 18:31:47 GMT-0600 (Central Standard Time),512453.8000000119,O,m,1159,25,1,146.bmp,-120,-120,147.bmp,120,-120,148.bmp,-120,120,149.bmp,120,120,9209.800000011921,503244.0,7248,no,SM,A,148.bmp,120,120,239723,233696,241739,235708,494943.0,488913.0,496957.0,490926.0,25
1,1,0,0,0,20,test,1,1,z,Tue Nov 18 2025 18:31:47 GMT-0600 (Central Standard Time),522385.3000000119,O,z,1882,26,1,138.bmp,-120,-120,139.bmp,120,-120,140.bmp,-120,120,141.bmp,120,120,9929.0,512456.3000000119,7248,yes,SM,A,138.bmp,-120,-120,239723,233696,241739,235708,504156.0,498126.0,506171.0,500141.0,26
4,0,0,0,1,20,test,1,0,z,Tue Nov 18 2025 18:31:47 GMT-0600 (Central Standard Time),532447.400000006,O,None,2013,27,1,150.bmp,-120,-120,111.bmp,120,-120,101.bmp,-120,120,102.bmp,120,120,10058.200000017881,522389.1999999881,7248,yes,SM,A,102.bmp,120,120,239723,233696,241739,235708,514085.0,508058.0,516102.0,510071.0,27
3,0,0,1,0,21,test,1,1,m,Tue Nov 18 2025 18:31:47 GMT-0600 (Central Standard Time),541511.6999999881,O,m,1001,28,1,103.bmp,-120,-120,104.bmp,120,-120,105.bmp,-120,120,106.bmp,120,120,9060.899999976158,532450.8000000119,7248,no,SM,A,103.bmp,-120,120,239723,233696,241739,235708,524151.0,518120.0,526165.0,520135.0,28
2,0,1,0,0,22,test,1,1,z,Tue Nov 18 2025 18:31:47 GMT-0600 (Central Standard Time),550975.900000006,O,z,1409,29,1,107.bmp,-120,-120,108.bmp,120,-120,109.bmp,-120,120,110.bmp,120,120,9459.700000017881,541516.1999999881,7248,yes,SM,A,108.bmp,120,-120,239723,233696,241739,235708,533213.0,527185.0,535229.0,529197.0,29
3,0,0,1,0,22,test,1,0,z,Tue Nov 18 2025 18:31:47 GMT-0600 (Central Standard Time),560406.900000006,O,m,1369,30,1,111.bmp,-120,-120,112.bmp,120,-120,113.bmp,-120,120,114.bmp,120,120,9427.0,550979.900000006,7248,yes,SM,A,113.bmp,-120,120,239723,233696,241739,235708,542677.0,536649.0,544693.0,538660.0,30
1,1,0,0,0,23,test,1,1,z,Tue Nov 18 2025 18:31:47 GMT-0600 (Central Standard Time),569670.0,O,z,1219,31,1,115.bmp,-120,-120,116.bmp,120,-120,117.bmp,-120,120,118.bmp,120,120,9260.09999999404,560409.900000006,7248,yes,SM,A,115.bmp,-120,-120,239723,233696,241739,235708,552106.0,546079.0,554107.0,548092.0,31
2,0,1,0,0,24,test,1,1,m,Tue Nov 18 2025 18:31:47 GMT-0600 (Central Standard Time),578899.8000000119,O,m,1169,32,1,119.bmp,-120,-120,120.bmp,120,-120,121.bmp,-120,120,122.bmp,120,120,9226.5,569673.3000000119,7248,no,SM,A,119.bmp,120,-120,239723,233696,241739,235708,561371.0,555343.0,563388.0,557356.0,32
4,0,0,0,1,24,test,1,0,z,Tue Nov 18 2025 18:31:47 GMT-0600 (Central Standard Time),588963.8000000119,O,None,2017,33,1,131.bmp,-120,-120,132.bmp,120,-120,133.bmp,-120,120,134.bmp,120,120,10061.800000011921,578902.0,7248,yes,SM,A,134.bmp,120,120,239723,233696,241739,235708,570600.0,564571.0,572616.0,566584.0,33
2,0,1,0,0,25,test,1,1,z,Tue Nov 18 2025 18:31:47 GMT-0600 (Central Standard Time),598426.599999994,O,z,1416,34,1,123.bmp,-120,-120,124.bmp,120,-120,125.bmp,-120,120,126.bmp,120,120,9458.59999999404,588968.0,7248,yes,SM,A,124.bmp,120,-120,239723,233696,241739,235708,580664.0,574637.0,582680.0,576649.0,34
4,0,0,0,1,26,test,1,1,m,Tue Nov 18 2025 18:31:47 GMT-0600 (Central Standard Time),607825.0,O,m,1335,35,1,127.bmp,-120,-120,128.bmp,120,-120,129.bmp,-120,120,130.bmp,120,120,9395.40000000596,598429.599999994,7248,no,SM,A,129.bmp,120,120,239723,233696,241739,235708,590128.0,584099.0,592143.0,586112.0,35
3,0,0,1,0,27,test,1,1,m,Tue Nov 18 2025 18:31:47 GMT-0600 (Central Standard Time),617571.400000006,O,m,1687,36,1,135.bmp,-120,-120,136.bmp,120,-120,137.bmp,-120,120,138.bmp,120,120,9742.700000017881,607828.6999999881,7248,no,SM,A,135.bmp,-120,120,239723,233696,241739,235708,599525.0,593498.0,601544.0,595508.0,36
1,1,0,0,0,28,test,1,1,m,Tue Nov 18 2025 18:31:47 GMT-0600 (Central Standard Time),627084.3000000119,O,m,1454,37,1,139.bmp,-120,-120,140.bmp,120,-120,141.bmp,-120,120,142.bmp,120,120,9510.700000017881,617573.599999994,7248,no,SM,A,140.bmp,-120,-120,239723,233696,241739,235708,609272.0,603243.0,611288.0,605257.0,37
2,0,1,0,0,28,test,1,0,m,Tue Nov 18 2025 18:31:47 GMT-0600 (Central Standard Time),636581.1999999881,O,z,1435,38,1,143.bmp,-120,-120,144.bmp,120,-120,145.bmp,-120,120,146.bmp,120,120,9492.199999988079,627089.0,7248,no,SM,A,145.bmp,120,-120,239723,233696,241739,235708,618785.0,612758.0,620803.0,614771.0,38
4,0,0,0,1,28,test,1,0,z,Tue Nov 18 2025 18:31:47 GMT-0600 (Central Standard Time),646629.8000000119,O,None,2001,39,1,147.bmp,-120,-120,148.bmp,120,-120,149.bmp,-120,120,150.bmp,120,120,10044.300000011921,636585.5,7248,yes,SM,A,150.bmp,120,120,239723,233696,241739,235708,628282.0,622255.0,630298.0,624270.0,39
3,0,0,1,0,29,test,1,1,m,Tue Nov 18 2025 18:31:47 GMT-0600 (Central Standard Time),655708.599999994,O,m,1029,40,1,104.bmp,-120,-120,105.bmp,120,-120,106.bmp,-120,120,107.bmp,120,120,9074.299999982119,646634.3000000119,7248,no,SM,A,105.bmp,-120,120,239723,233696,241739,235708,638329.0,632304.0,640345.0,634315.0,40
1,1,0,0,0,30,test,1,1,z,Tue Nov 18 2025 18:31:47 GMT-0600 (Central Standard Time),665339.1999999881,O,z,1581,41,1,108.bmp,-120,-120,109.bmp,120,-120,110.bmp,-120,120,111.bmp,120,120,9626.09999999404,655713.099999994,7248,yes,SM,A,108.bmp,-120,-120,239723,233696,241739,235708,647410.0,641382.0,649427.0,643394.0,41
4,0,0,0,1,30,test,1,0,z,Tue Nov 18 2025 18:31:47 GMT-0600 (Central Standard Time),675035.8000000119,O,m,1649,42,1,112.bmp,-120,-120,113.bmp,120,-120,114.bmp,-120,120,115.bmp,120,120,9691.300000011921,665344.5,7248,yes,SM,A,115.bmp,120,120,239723,233696,241739,235708,657040.0,651014.0,659055.0,653023.0,42
1,1,0,0,0,31,test,1,1,z,Tue Nov 18 2025 18:31:47 GMT-0600 (Central Standard Time),684350.099999994,O,z,1262,43,1,116.bmp,-120,-120,117.bmp,120,-120,118.bmp,-120,120,119.bmp,120,120,9311.699999988079,675038.400000006,7248,yes,SM,A,116.bmp,-120,-120,239723,233696,241739,235708,666737.0,660708.0,668752.0,662721.0,43
4,0,0,0,1,32,test,1,1,m,Tue Nov 18 2025 18:31:47 GMT-0600 (Central Standard Time),693663.400000006,O,m,1259,44,1,104.bmp,-120,-120,101.bmp,120,-120,102.bmp,-120,120,103.bmp,120,120,9310.09999999404,684353.3000000119,7248,no,SM,A,104.bmp,120,120,239723,233696,241739,235708,676053.0,670022.0,678066.0,672036.0,44
1,1,0,0,0,33,test,1,1,m,Tue Nov 18 2025 18:31:47 GMT-0600 (Central Standard Time),703544.6999999881,O,m,1817,45,1,128.bmp,-120,-120,129.bmp,120,-120,130.bmp,-120,120,131.bmp,120,120,9878.699999988079,693666.0,7248,no,SM,A,131.bmp,-120,-120,239723,233696,241739,235708,685366.0,679335.0,687382.0,681349.0,45
1,1,0,0,0,33,test,1,0,m,Tue Nov 18 2025 18:31:47 GMT-0600 (Central Standard Time),713323.599999994,O,z,1729,46,1,120.bmp,-120,-120,121.bmp,120,-120,122.bmp,-120,120,123.bmp,120,120,9775.90000000596,703547.6999999881,7248,no,SM,A,121.bmp,-120,-120,239723,233696,241739,235708,695244.0,689217.0,697261.0,691229.0,46
3,0,0,1,0,34,test,1,1,z,Tue Nov 18 2025 18:31:47 GMT-0600 (Central Standard Time),722553.900000006,O,z,1172,47,1,124.bmp,-120,-120,125.bmp,120,-120,126.bmp,-120,120,127.bmp,120,120,9227.40000000596,713326.5,7248,yes,SM,A,126.bmp,-120,120,239723,233696,241739,235708,705025.0,698996.0,707042.0,701010.0,47
3,0,0,1,0,35,test,1,1,z,Tue Nov 18 2025 18:31:47 GMT-0600 (Central Standard Time),732101.6999999881,O,z,1492,48,1,140.bmp,-120,-120,141.bmp,120,-120,142.bmp,-120,120,143.bmp,120,120,9545.199999988079,722556.5,7248,yes,SM,A,142.bmp,-120,120,239723,233696,241739,235708,714256.0,708226.0,716273.0,710240.0,48
2,0,1,0,0,36,test,1,1,z,Tue Nov 18 2025 18:31:47 GMT-0600 (Central Standard Time),741664.6999999881,O,z,1532,49,1,136.bmp,-120,-120,137.bmp,120,-120,138.bmp,-120,120,139.bmp,120,120,9560.399999976158,732104.3000000119,7248,yes,SM,A,137.bmp,120,-120,239723,233696,241739,235708,723786.0,717773.0,725802.0,719785.0,49
3,0,0,1,0,36,test,1,0,m,Tue Nov 18 2025 18:31:47 GMT-0600 (Central Standard Time),751194.900000006,O,z,1471,50,1,132.bmp,-120,-120,133.bmp,120,-120,134.bmp,-120,120,135.bmp,120,120,9527.800000011921,741667.099999994,7248,no,SM,A,132.bmp,-120,120,239723,233696,241739,235708,733368.0,727336.0,735383.0,729350.0,50
2,0,1,0,0,36,test,1,0,z,Tue Nov 18 2025 18:31:47 GMT-0600 (Central Standard Time),760877.5,O,m,1618,51,1,144.bmp,-120,-120,145.bmp,120,-120,146.bmp,-120,120,147.bmp,120,120,9677.0,751200.5,7248,yes,SM,A,145.bmp,120,-120,239723,233696,241739,235708,742899.0,736870.0,744910.0,738882.0,51
4,0,0,0,1,36,test,1,0,m,Tue Nov 18 2025 18:31:47 GMT-0600 (Central Standard Time),770672.6999999881,O,z,1741,52,1,148.bmp,-120,-120,149.bmp,120,-120,150.bmp,-120,120,131.bmp,120,120,9790.59999999404,760882.099999994,7248,no,SM,A,148.bmp,120,120,239723,233696,241739,235708,752576.0,746551.0,754593.0,748560.0,52
3,0,0,1,0,37,test,1,1,z,Tue Nov 18 2025 18:31:47 GMT-0600 (Central Standard Time),779586.1999999881,O,z,881,53,1,101.bmp,-120,-120,102.bmp,120,-120,103.bmp,-120,120,104.bmp,120,120,8910.699999988079,770675.5,7248,yes,SM,A,103.bmp,-120,120,239723,233696,241739,235708,762373.0,756345.0,764374.0,758357.0,53
1,1,0,0,0,38,test,1,1,m,Tue Nov 18 2025 18:31:47 GMT-0600 (Central Standard Time),789417.3000000119,O,m,1782,54,1,105.bmp,-120,-120,106.bmp,120,-120,107.bmp,-120,120,108.bmp,120,120,9825.600000023842,779591.6999999881,7248,no,SM,A,107.bmp,-120,-120,239723,233696,241739,235708,771287.0,765261.0,773288.0,767271.0,54
4,0,0,0,1,39,test,1,1,z,Tue Nov 18 2025 18:31:47 GMT-0600 (Central Standard Time),799029.900000006,O,z,1554,55,1,109.bmp,-120,-120,110.bmp,120,-120,111.bmp,-120,120,112.bmp,120,120,9609.0,789420.900000006,7248,yes,SM,A,112.bmp,120,120,239723,233696,241739,235708,781117.0,775090.0,783132.0,777103.0,55
2,0,1,0,0,40,test,1,1,m,Tue Nov 18 2025 18:31:47 GMT-0600 (Central Standard Time),808676.8000000119,O,m,1594,56,1,113.bmp,-120,-120,114.bmp,120,-120,115.bmp,-120,120,116.bmp,120,120,9643.300000011921,799033.5,7248,no,SM,A,113.bmp,120,-120,239723,233696,241739,235708,790730.0,784703.0,792748.0,786716.0,56
4,0,0,0,1,40,test,1,0,m,Tue Nov 18 2025 18:31:47 GMT-0600 (Central Standard Time),818725.8000000119,O,None,2001,57,1,117.bmp,-120,-120,118.bmp,120,-120,119.bmp,-120,120,120.bmp,120,120,10045.600000023842,808680.1999999881,7248,no,SM,A,118.bmp,120,120,239723,233696,241739,235708,800380.0,794349.0,802394.0,796365.0,57
3,0,0,1,0,41,test,1,1,z,Tue Nov 18 2025 18:31:47 GMT-0600 (Central Standard Time),828071.0,O,z,1293,58,1,121.bmp,-120,-120,122.bmp,120,-120,123.bmp,-120,120,124.bmp,120,120,9341.59999999404,818729.400000006,7248,yes,SM,A,123.bmp,-120,120,239723,233696,241739,235708,810424.0,804399.0,812441.0,806410.0,58
2,0,1,0,0,41,test,1,0,m,Tue Nov 18 2025 18:31:47 GMT-0600 (Central Standard Time),838134.599999994,O,None,2015,59,1,125.bmp,-120,-120,126.bmp,120,-120,127.bmp,-120,120,128.bmp,120,120,10060.09999999404,828074.5,7248,no,SM,A,128.bmp,120,-120,239723,233696,241739,235708,819771.0,813744.0,821788.0,815757.0,59
1,1,0,0,0,42,test,1,1,z,Tue Nov 18 2025 18:31:47 GMT-0600 (Central Standard Time),847348.400000006,O,z,1165,60,1,129.bmp,-120,-120,130.bmp,120,-120,131.bmp,-120,120,132.bmp,120,120,9210.0,838138.400000006,7248,yes,SM,A,129.bmp,-120,-120,239723,233696,241739,235708,829836.0,823808.0,831851.0,825820.0,60
2,0,1,0,0,43,test,1,1,z,Tue Nov 18 2025 18:31:47 GMT-0600 (Central Standard Time),856728.099999994,O,z,1316,61,1,133.bmp,-120,-120,134.bmp,120,-120,135.bmp,-120,120,136.bmp,120,120,9376.699999988079,847351.400000006,7248,yes,SM,A,134.bmp,120,-120,239723,233696,241739,235708,839047.0,833021.0,841066.0,835035.0,61
4,0,0,0,1,44,test,1,1,z,Tue Nov 18 2025 18:31:47 GMT-0600 (Central Standard Time),866158.400000006,O,z,1368,62,1,141.bmp,-120,-120,142.bmp,120,-120,143.bmp,-120,120,144.bmp,120,120,9426.5,856731.900000006,7248,yes,SM,A,144.bmp,120,120,239723,233696,241739,235708,848430.0,842401.0,850446.0,844414.0,62
1,1,0,0,0,45,test,1,1,m,Tue Nov 18 2025 18:31:47 GMT-0600 (Central Standard Time),875238.8000000119,O,m,1019,63,1,145.bmp,-120,-120,146.bmp,120,-120,147.bmp,-120,120,148.bmp,120,120,9074.5,866164.3000000119,7248,no,SM,A,145.bmp,-120,120,239723,233696,241739,235708,857859.0,851833.0,859875.0,853844.0,63
2,0,1,0,0,46,test,1,1,z,Tue Nov 18 2025 18:31:47 GMT-0600 (Central Standard Time),884635.900000006,O,z,1346,64,1,149.bmp,-120,-120,150.bmp,120,-120,112.bmp,-120,120,101.bmp,120,120,9390.09999999404,875245.8000000119,7248,yes,SM,A,150.bmp,120,-120,239723,233696,241739,235708,866939.0,860915.0,868956.0,862924.0,64
4,0,0,0,1,47,test,1,1,m,Tue Nov 18 2025 18:31:47 GMT-0600 (Central Standard Time),894099.400000006,O,m,1413,65,1,102.bmp,-120,-120,103.bmp,120,-120,104.bmp,-120,120,105.bmp,120,120,9457.90000000596,884641.5,7248,no,SM,A,104.bmp,120,120,239723,233696,241739,235708,876337.0,870311.0,878353.0,872322.0,65
3,0,0,1,0,47,test,1,0,m,Tue Nov 18 2025 18:31:47 GMT-0600 (Central Standard Time),904164.1999999881,O,None,2017,66,1,106.bmp,-120,-120,107.bmp,120,-120,108.bmp,-120,120,109.bmp,120,120,10059.899999976158,894104.3000000119,7248,no,SM,A,109.bmp,-120,120,239723,233696,241739,235708,885800.0,879774.0,887816.0,881784.0,66
2,0,1,0,0,47,test,1,0,m,Tue Nov 18 2025 18:31:47 GMT-0600 (Central Standard Time),913243.5,O,z,1016,67,1,137.bmp,-120,-120,138.bmp,120,-120,139.bmp,-120,120,140.bmp,120,120,9075.699999988079,904167.8000000119,7248,no,SM,A,139.bmp,120,-120,239723,233696,241739,235708,895865.0,889837.0,897880.0,891848.0,67
3,0,0,1,0,47,test,1,0,z,Tue Nov 18 2025 18:31:47 GMT-0600 (Central Standard Time),923075.5,O,m,1772,68,1,110.bmp,-120,-120,111.bmp,120,-120,112.bmp,-120,120,113.bmp,120,120,9828.199999988079,913247.3000000119,7248,yes,SM,A,112.bmp,-120,120,239723,233696,241739,235708,904944.0,898917.0,906962.0,900929.0,68
1,1,0,0,0,48,test,1,1,m,Tue Nov 18 2025 18:31:47 GMT-0600 (Central Standard Time),933087.3000000119,O,m,1959,69,1,114.bmp,-120,-120,115.bmp,120,-120,116.bmp,-120,120,117.bmp,120,120,10007.600000023842,923079.6999999881,7248,no,SM,A,115.bmp,-120,-120,239723,233696,241739,235708,914775.0,908749.0,916791.0,910759.0,69
2,0,1,0,0,48,test,1,0,m,Tue Nov 18 2025 18:31:47 GMT-0600 (Central Standard Time),942518.099999994,O,z,1369,70,1,118.bmp,-120,-120,119.bmp,120,-120,120.bmp,-120,120,121.bmp,120,120,9427.299999982119,933090.8000000119,7248,no,SM,A,120.bmp,120,-120,239723,233696,241739,235708,924789.0,918760.0,926805.0,920773.0,70
4,0,0,0,1,49,test,1,1,z,Tue Nov 18 2025 18:31:47 GMT-0600 (Central Standard Time),952198.3000000119,O,z,1627,71,1,122.bmp,-120,-120,123.bmp,120,-120,124.bmp,-120,120,125.bmp,120,120,9677.40000000596,942520.900000006,7248,yes,SM,A,125.bmp,120,120,239723,233696,241739,235708,934218.0,928190.0,936235.0,930203.0,71
1,1,0,0,0,50,test,1,1,z,Tue Nov 18 2025 18:31:47 GMT-0600 (Central Standard Time),961545.6999999881,O,z,1299,72,1,126.bmp,-120,-120,127.bmp,120,-120,128.bmp,-120,120,129.bmp,120,120,9344.5,952201.1999999881,7248,yes,SM,A,126.bmp,-120,-120,239723,233696,241739,235708,943900.0,937870.0,945916.0,939884.0,72
2,0,1,0,0,51,test,1,1,z,Tue Nov 18 2025 18:31:47 GMT-0600 (Central Standard Time),971242.0,O,z,1650,73,1,130.bmp,-120,-120,131.bmp,120,-120,132.bmp,-120,120,133.bmp,120,120,9693.40000000596,961548.599999994,7248,yes,SM,A,131.bmp,120,-120,239723,233696,241739,235708,953246.0,947218.0,955261.0,949231.0,73
4,0,0,0,1,51,test,1,0,m,Tue Nov 18 2025 18:31:47 GMT-0600 (Central Standard Time),980756.8000000119,O,z,1463,74,1,134.bmp,-120,-120,135.bmp,120,-120,136.bmp,-120,120,137.bmp,120,120,9511.0,971245.8000000119,7248,no,SM,A,136.bmp,120,120,239723,233696,241739,235708,962944.0,956915.0,964959.0,958927.0,74
2,0,1,0,0,52,test,1,1,m,Tue Nov 18 2025 18:31:47 GMT-0600 (Central Standard Time),990369.900000006,O,m,1552,75,1,138.bmp,-120,-120,139.bmp,120,-120,140.bmp,-120,120,141.bmp,120,120,9609.09999999404,980760.8000000119,7248,no,SM,A,141.bmp,120,-120,239723,233696,241739,235708,972456.0,966430.0,974470.0,968442.0,75
1,1,0,0,0,53,test,1,1,z,Tue Nov 18 2025 18:31:47 GMT-0600 (Central Standard Time),999749.8000000119,O,z,1326,76,1,142.bmp,-120,-120,143.bmp,120,-120,144.bmp,-120,120,145.bmp,120,120,9375.700000017881,990374.099999994,7248,yes,SM,A,142.bmp,-120,-120,239723,233696,241739,235708,982071.0,976043.0,984088.0,978054.0,76
3,0,0,1,0,54,test,1,1,z,Tue Nov 18 2025 18:31:47 GMT-0600 (Central Standard Time),1009004.900000006,O,z,1187,77,1,150.bmp,-120,-120,111.bmp,120,-120,101.bmp,-120,120,102.bmp,120,120,9252.09999999404,999752.8000000119,7248,yes,SM,A,101.bmp,-120,120,239723,233696,241739,235708,991450.0,985422.0,993466.0,987436.0,77
1,1,0,0,0,55,test,1,1,m,Tue Nov 18 2025 18:31:47 GMT-0600 (Central Standard Time),1018443.1999999881,O,m,1397,78,1,146.bmp,-120,-120,147.bmp,120,-120,148.bmp,-120,120,149.bmp,120,120,9436.299999982119,1009006.900000006,7248,no,SM,A,147.bmp,-120,-120,239723,233696,241739,235708,1000697.0,994676.0,1002713.0,996681.0,78
4,0,0,0,1,55,test,1,0,m,Tue Nov 18 2025 18:31:47 GMT-0600 (Central Standard Time),1028057.6999999881,O,z,1565,79,1,107.bmp,-120,-120,108.bmp,120,-120,109.bmp,-120,120,110.bmp,120,120,9609.099999964237,1018448.6000000238,7248,no,SM,A,107.bmp,120,120,239723,233696,241739,235708,1010145.0,1004118.0,1012161.0,1006130.0,79
3,0,0,1,0,56,test,1,1,m,Tue Nov 18 2025 18:31:47 GMT-0600 (Central Standard Time),1037720.8999999762,O,m,1618,80,1,103.bmp,-120,-120,104.bmp,120,-120,105.bmp,-120,120,106.bmp,120,120,9658.899999976158,1028062.0,7248,no,SM,A,106.bmp,-120,120,239723,233696,241739,235708,1019756.0,1013731.0,1021772.0,1015741.0,80
