Q,Q1,Q2,Q3,Q4,acc_sum,block,block_c,correct,correct_response,datetime,endtime,project,response,response_time,row_sel,session_number,squiggle1,squiggle1x,squiggle1y,squiggle2,squiggle2x,squiggle2y,squiggle3,squiggle3x,squiggle3y,squiggle4,squiggle4x,squiggle4y,start_end,starttime,subject_id,target_congruent,task,task_vers,testsquiggle,testsquigglex,testsquiggley,time_practice_delay,time_practice_fixation,time_practice_stimuli,time_practice_study,time_test_delay,time_test_fixation,time_test_stimuli,time_test_study,trial
1,1,0,0,0,1,prac,1,1,z,Mon Oct 06 2025 16:33:29 GMT-0400 (Eastern Daylight Time),145484.59999999776,I,z,1241,1,1,66.bmp,-120,-120,67.bmp,120,-120,68.bmp,-120,120,69.bmp,120,120,10060.099999997765,135424.5,9028,yes,SM,C,66.bmp,-120,-120,139836,133810,141853,135820,,,,,1
3,0,0,1,0,1,prac,1,0,m,Mon Oct 06 2025 16:33:29 GMT-0400 (Eastern Daylight Time),156317.5,I,None,2016,2,1,70.bmp,-120,-120,71.bmp,120,-120,72.bmp,-120,120,73.bmp,120,120,10825.0,145492.5,9028,no,SM,C,73.bmp,-120,120,149903,143878,151920,145886,,,,,2
4,0,0,0,1,2,prac,1,1,m,Mon Oct 06 2025 16:33:29 GMT-0400 (Eastern Daylight Time),166500.8999999985,I,m,1365,3,1,74.bmp,-120,-120,75.bmp,120,-120,76.bmp,-120,120,77.bmp,120,120,10174.39999999851,156326.5,9028,no,SM,C,74.bmp,120,120,160736,154712,162753,156720,,,,,3
2,0,1,0,0,3,prac,1,1,z,Mon Oct 06 2025 16:33:29 GMT-0400 (Eastern Daylight Time),176567.5,I,z,1247,4,1,78.bmp,-120,-120,79.bmp,120,-120,80.bmp,-120,120,81.bmp,120,120,10058.70000000298,166508.79999999702,9028,yes,SM,C,79.bmp,120,-120,170919,164894,172936,166903,,,,,4
3,0,0,1,0,4,prac,1,1,z,Mon Oct 06 2025 16:33:29 GMT-0400 (Eastern Daylight Time),186834.29999999702,I,z,1435,5,1,82.bmp,-120,-120,83.bmp,120,-120,84.bmp,-120,120,85.bmp,120,120,10259.5,176574.79999999702,9028,yes,SM,C,84.bmp,-120,120,180986,174960,183003,176970,,,,,5
1,1,0,0,0,4,prac,1,0,m,Mon Oct 06 2025 16:33:29 GMT-0400 (Eastern Daylight Time),196800.79999999702,I,z,1137,6,1,86.bmp,-120,-120,87.bmp,120,-120,88.bmp,-120,120,89.bmp,120,120,9956.199999999255,186844.59999999776,9028,no,SM,C,89.bmp,-120,-120,191252,185230,193269,187235,,,,,6
2,0,1,0,0,5,prac,1,1,m,Mon Oct 06 2025 16:33:29 GMT-0400 (Eastern Daylight Time),207067.3999999985,I,m,1442,7,1,90.bmp,-120,-120,91.bmp,120,-120,92.bmp,-120,120,93.bmp,120,120,10254.89999999851,196812.5,9028,no,SM,C,90.bmp,120,-120,201219,195198,203236,197203,,,,,7
4,0,0,0,1,6,prac,1,1,z,Mon Oct 06 2025 16:33:29 GMT-0400 (Eastern Daylight Time),217250.8999999985,I,z,1351,8,1,94.bmp,-120,-120,95.bmp,120,-120,96.bmp,-120,120,97.bmp,120,120,10173.300000000745,207077.59999999776,9028,yes,SM,C,97.bmp,120,120,211486,205463,213503,207470,,,,,8
4,0,0,0,1,0,test,1,0,m,Mon Oct 06 2025 16:33:29 GMT-0400 (Eastern Daylight Time),246183.69999999925,I,None,2016,1,1,98.bmp,-120,-120,99.bmp,120,-120,100.bmp,-120,120,93.bmp,120,120,10060.10000000149,236123.59999999776,9028,yes,SM,C,100.bmp,120,120,211486,205463,213503,207470,240536.0,234509.0,242552.0,236520.0,1
2,0,1,0,0,1,test,1,1,m,Mon Oct 06 2025 16:33:29 GMT-0400 (Eastern Daylight Time),255934.5,I,m,1689,2,1,51.bmp,-120,-120,52.bmp,120,-120,53.bmp,-120,120,54.bmp,120,120,9741.300000000745,246193.19999999925,9028,yes,SM,C,53.bmp,120,-120,211486,205463,213503,207470,250602.0,244579.0,252620.0,246586.0,2
1,1,0,0,0,2,test,1,1,z,Mon Oct 06 2025 16:33:29 GMT-0400 (Eastern Daylight Time),265000.5,I,z,1012,3,1,55.bmp,-120,-120,56.bmp,120,-120,57.bmp,-120,120,58.bmp,120,120,9060.60000000149,255939.8999999985,9028,yes,SM,C,55.bmp,-120,-120,211486,205463,213503,207470,260352.0,254325.0,262369.0,256336.0,3
3,0,0,1,0,3,test,1,1,m,Mon Oct 06 2025 16:33:29 GMT-0400 (Eastern Daylight Time),274867.299999997,I,m,1802,4,1,59.bmp,-120,-120,60.bmp,120,-120,61.bmp,-120,120,62.bmp,120,120,9859.29999999702,265008.0,9028,yes,SM,C,59.bmp,-120,120,211486,205463,213503,207470,269419.0,263393.0,271436.0,265403.0,4
2,0,1,0,0,4,test,1,1,z,Mon Oct 06 2025 16:33:29 GMT-0400 (Eastern Daylight Time),284217.09999999776,I,z,1295,5,1,63.bmp,-120,-120,64.bmp,120,-120,65.bmp,-120,120,66.bmp,120,120,9339.699999999255,274877.3999999985,9028,yes,SM,C,64.bmp,120,-120,211486,205463,213503,207470,279286.0,273263.0,281303.0,275269.0,5
3,0,0,1,0,5,test,1,1,z,Mon Oct 06 2025 16:33:29 GMT-0400 (Eastern Daylight Time),293617.09999999776,I,z,1337,6,1,67.bmp,-120,-120,68.bmp,120,-120,69.bmp,-120,120,70.bmp,120,120,9389.300000000745,284227.799999997,9028,yes,SM,C,69.bmp,-120,120,211486,205463,213503,207470,288636.0,282613.0,290653.0,284619.0,6
4,0,0,0,1,6,test,1,1,z,Mon Oct 06 2025 16:33:29 GMT-0400 (Eastern Daylight Time),303117.19999999925,I,z,1441,7,1,71.bmp,-120,-120,72.bmp,120,-120,73.bmp,-120,120,74.bmp,120,120,9490.199999999255,293627.0,9028,yes,SM,C,74.bmp,120,120,211486,205463,213503,207470,298036.0,292012.0,300053.0,294020.0,7
2,0,1,0,0,6,test,1,0,m,Mon Oct 06 2025 16:33:29 GMT-0400 (Eastern Daylight Time),313183.8999999985,I,None,2016,8,1,75.bmp,-120,-120,76.bmp,120,-120,77.bmp,-120,120,78.bmp,120,120,10059.89999999851,303124.0,9028,yes,SM,C,75.bmp,120,-120,211486,205463,213503,207470,307536.0,301509.0,309553.0,303519.0,8
3,0,0,1,0,7,test,1,1,m,Mon Oct 06 2025 16:33:29 GMT-0400 (Eastern Daylight Time),322583.69999999925,I,m,1347,9,1,79.bmp,-120,-120,80.bmp,120,-120,81.bmp,-120,120,82.bmp,120,120,9389.0,313194.69999999925,9028,yes,SM,C,80.bmp,-120,120,211486,205463,213503,207470,317602.0,311580.0,319619.0,313586.0,9
4,0,0,0,1,8,test,1,1,z,Mon Oct 06 2025 16:33:29 GMT-0400 (Eastern Daylight Time),332250.5,I,z,1611,10,1,87.bmp,-120,-120,88.bmp,120,-120,89.bmp,-120,120,90.bmp,120,120,9660.0,322590.5,9028,yes,SM,C,90.bmp,120,120,211486,205463,213503,207470,327003.0,320976.0,329019.0,322986.0,10
3,0,0,1,0,9,test,1,1,z,Mon Oct 06 2025 16:33:29 GMT-0400 (Eastern Daylight Time),341800.5,I,z,1496,11,1,83.bmp,-120,-120,84.bmp,120,-120,85.bmp,-120,120,86.bmp,120,120,9543.0,332257.5,9028,yes,SM,C,85.bmp,-120,120,211486,205463,213503,207470,336669.0,330643.0,338686.0,332653.0,11
2,0,1,0,0,10,test,1,1,m,Mon Oct 06 2025 16:33:29 GMT-0400 (Eastern Daylight Time),351500.5,I,m,1642,12,1,91.bmp,-120,-120,92.bmp,120,-120,93.bmp,-120,120,94.bmp,120,120,9692.10000000149,341808.3999999985,9028,yes,SM,C,91.bmp,120,-120,211486,205463,213503,207470,346219.0,340194.0,348236.0,342203.0,12
3,0,0,1,0,11,test,1,1,m,Mon Oct 06 2025 16:33:29 GMT-0400 (Eastern Daylight Time),361050.5,I,m,1494,13,1,95.bmp,-120,-120,96.bmp,120,-120,97.bmp,-120,120,98.bmp,120,120,9541.70000000298,351508.799999997,9028,yes,SM,C,96.bmp,-120,120,211486,205463,213503,207470,355919.0,349894.0,357936.0,351903.0,13
1,1,0,0,0,12,test,1,1,z,Mon Oct 06 2025 16:33:29 GMT-0400 (Eastern Daylight Time),370217.09999999776,I,z,1112,14,1,99.bmp,-120,-120,100.bmp,120,-120,54.bmp,-120,120,51.bmp,120,120,9156.800000000745,361060.299999997,9028,yes,SM,C,99.bmp,-120,-120,211486,205463,213503,207470,365469.0,359446.0,367486.0,361453.0,14
4,0,0,0,1,12,test,1,0,m,Mon Oct 06 2025 16:33:29 GMT-0400 (Eastern Daylight Time),380283.8999999985,I,None,2017,15,1,60.bmp,-120,-120,61.bmp,120,-120,62.bmp,-120,120,63.bmp,120,120,10056.300000000745,370227.59999999776,9028,yes,SM,C,61.bmp,120,120,211486,205463,213503,207470,374636.0,368613.0,376652.0,370619.0,15
1,1,0,0,0,13,test,1,1,m,Mon Oct 06 2025 16:33:29 GMT-0400 (Eastern Daylight Time),389467.09999999776,I,m,1127,16,1,52.bmp,-120,-120,53.bmp,120,-120,54.bmp,-120,120,55.bmp,120,120,9175.39999999851,380291.69999999925,9028,yes,SM,C,55.bmp,-120,-120,211486,205463,213503,207470,384702.0,378677.0,386719.0,380686.0,16
3,0,0,1,0,14,test,1,1,m,Mon Oct 06 2025 16:33:29 GMT-0400 (Eastern Daylight Time),398833.8999999985,I,m,1303,17,1,72.bmp,-120,-120,73.bmp,120,-120,74.bmp,-120,120,75.bmp,120,120,9358.60000000149,389475.299999997,9028,yes,SM,C,72.bmp,-120,120,211486,205463,213503,207470,393886.0,387860.0,395903.0,389869.0,17
1,1,0,0,0,15,test,1,1,z,Mon Oct 06 2025 16:33:29 GMT-0400 (Eastern Daylight Time),408800.3999999985,I,z,1905,18,1,56.bmp,-120,-120,57.bmp,120,-120,58.bmp,-120,120,59.bmp,120,120,9960.10000000149,398840.299999997,9028,yes,SM,C,56.bmp,-120,-120,211486,205463,213503,207470,403252.0,397225.0,405269.0,399236.0,18
2,0,1,0,0,16,test,1,1,z,Mon Oct 06 2025 16:33:29 GMT-0400 (Eastern Daylight Time),418550.0,I,z,1698,19,1,76.bmp,-120,-120,77.bmp,120,-120,78.bmp,-120,120,79.bmp,120,120,9741.800000000745,408808.19999999925,9028,yes,SM,C,77.bmp,120,-120,211486,205463,213503,207470,413219.0,407193.0,415236.0,409203.0,19
3,0,0,1,0,17,test,1,1,z,Mon Oct 06 2025 16:33:29 GMT-0400 (Eastern Daylight Time),427933.69999999925,I,z,1324,20,1,80.bmp,-120,-120,81.bmp,120,-120,82.bmp,-120,120,83.bmp,120,120,9376.800000000745,418556.8999999985,9028,yes,SM,C,82.bmp,-120,120,211486,205463,213503,207470,422969.0,416942.0,424986.0,418953.0,20
1,1,0,0,0,17,test,1,0,m,Mon Oct 06 2025 16:33:29 GMT-0400 (Eastern Daylight Time),437633.69999999925,I,z,1637,21,1,64.bmp,-120,-120,65.bmp,120,-120,66.bmp,-120,120,67.bmp,120,120,9690.60000000149,427943.09999999776,9028,yes,SM,C,66.bmp,-120,-120,211486,205463,213503,207470,432352.0,426328.0,434369.0,428336.0,21
4,0,0,0,1,17,test,1,0,z,Mon Oct 06 2025 16:33:29 GMT-0400 (Eastern Daylight Time),447700.299999997,I,None,2016,22,1,68.bmp,-120,-120,69.bmp,120,-120,70.bmp,-120,120,71.bmp,120,120,10057.099999997765,437643.19999999925,9028,yes,SM,C,71.bmp,120,120,211486,205463,213503,207470,442052.0,436028.0,444069.0,438036.0,22
1,1,0,0,0,18,test,1,1,m,Mon Oct 06 2025 16:33:29 GMT-0400 (Eastern Daylight Time),457550.3999999985,I,m,1790,23,1,84.bmp,-120,-120,85.bmp,120,-120,86.bmp,-120,120,87.bmp,120,120,9840.199999999255,447710.19999999925,9028,yes,SM,C,87.bmp,-120,-120,211486,205463,213503,207470,452119.0,446096.0,454136.0,448102.0,23
2,0,1,0,0,19,test,1,1,z,Mon Oct 06 2025 16:33:29 GMT-0400 (Eastern Daylight Time),466933.69999999925,I,z,1332,24,1,92.bmp,-120,-120,93.bmp,120,-120,94.bmp,-120,120,95.bmp,120,120,9374.900000002235,457558.799999997,9028,yes,SM,C,93.bmp,120,-120,211486,205463,213503,207470,461969.0,455944.0,463986.0,457953.0,24
4,0,0,0,1,20,test,1,1,m,Mon Oct 06 2025 16:33:29 GMT-0400 (Eastern Daylight Time),476350.09999999776,I,m,1356,25,1,96.bmp,-120,-120,97.bmp,120,-120,98.bmp,-120,120,99.bmp,120,120,9406.199999999255,466943.8999999985,9028,yes,SM,C,98.bmp,120,120,211486,205463,213503,207470,471352.0,465329.0,473369.0,467336.0,25
1,1,0,0,0,21,test,1,1,z,Mon Oct 06 2025 16:33:29 GMT-0400 (Eastern Daylight Time),485700.3999999985,I,z,1284,26,1,88.bmp,-120,-120,89.bmp,120,-120,90.bmp,-120,120,91.bmp,120,120,9343.10000000149,476357.299999997,9028,yes,SM,C,88.bmp,-120,-120,211486,205463,213503,207470,480769.0,474742.0,482786.0,476753.0,26
4,0,0,0,1,21,test,1,0,z,Mon Oct 06 2025 16:33:29 GMT-0400 (Eastern Daylight Time),495767.0,I,None,2017,27,1,100.bmp,-120,-120,61.bmp,120,-120,51.bmp,-120,120,52.bmp,120,120,10058.70000000298,485708.299999997,9028,yes,SM,C,52.bmp,120,120,211486,205463,213503,207470,490119.0,484094.0,492135.0,486102.0,27
3,0,0,1,0,21,test,1,0,m,Mon Oct 06 2025 16:33:29 GMT-0400 (Eastern Daylight Time),505083.59999999776,I,z,1259,28,1,53.bmp,-120,-120,54.bmp,120,-120,55.bmp,-120,120,56.bmp,120,120,9307.5,495776.09999999776,9028,yes,SM,C,53.bmp,-120,120,211486,205463,213503,207470,500185.0,494161.0,502203.0,496169.0,28
2,0,1,0,0,22,test,1,1,z,Mon Oct 06 2025 16:33:29 GMT-0400 (Eastern Daylight Time),514300.0,I,z,1158,29,1,57.bmp,-120,-120,58.bmp,120,-120,59.bmp,-120,120,60.bmp,120,120,9209.5,505090.5,9028,yes,SM,C,58.bmp,120,-120,211486,205463,213503,207470,509502.0,503476.0,511519.0,505486.0,29
3,0,0,1,0,23,test,1,1,z,Mon Oct 06 2025 16:33:29 GMT-0400 (Eastern Daylight Time),523366.799999997,I,z,1014,30,1,61.bmp,-120,-120,62.bmp,120,-120,63.bmp,-120,120,64.bmp,120,120,9062.699999999255,514304.09999999776,9028,yes,SM,C,63.bmp,-120,120,211486,205463,213503,207470,518719.0,512689.0,520736.0,514702.0,30
1,1,0,0,0,24,test,1,1,z,Mon Oct 06 2025 16:33:29 GMT-0400 (Eastern Daylight Time),533183.5999999978,I,z,1755,31,1,65.bmp,-120,-120,66.bmp,120,-120,67.bmp,-120,120,68.bmp,120,120,9808.800000000745,523374.799999997,9028,yes,SM,C,65.bmp,-120,-120,211486,205463,213503,207470,527785.0,521760.0,529803.0,523769.0,31
2,0,1,0,0,25,test,1,1,m,Mon Oct 06 2025 16:33:29 GMT-0400 (Eastern Daylight Time),542800.299999997,I,m,1555,32,1,69.bmp,-120,-120,70.bmp,120,-120,71.bmp,-120,120,72.bmp,120,120,9608.29999999702,533192.0,9028,yes,SM,C,69.bmp,120,-120,211486,205463,213503,207470,537602.0,531577.0,539619.0,533586.0,32
4,0,0,0,1,26,test,1,1,z,Mon Oct 06 2025 16:33:29 GMT-0400 (Eastern Daylight Time),552100.299999997,I,z,1234,33,1,81.bmp,-120,-120,82.bmp,120,-120,83.bmp,-120,120,84.bmp,120,120,9290.79999999702,542809.5,9028,yes,SM,C,84.bmp,120,120,211486,205463,213503,207470,547219.0,541195.0,549236.0,543202.0,33
2,0,1,0,0,27,test,1,1,z,Mon Oct 06 2025 16:33:29 GMT-0400 (Eastern Daylight Time),562133.5999999978,I,z,1966,34,1,73.bmp,-120,-120,74.bmp,120,-120,75.bmp,-120,120,76.bmp,120,120,10026.300000000745,552107.299999997,9028,yes,SM,C,74.bmp,120,-120,211486,205463,213503,207470,556519.0,550492.0,558536.0,552502.0,34
4,0,0,0,1,28,test,1,1,m,Mon Oct 06 2025 16:33:29 GMT-0400 (Eastern Daylight Time),572183.5,I,m,1997,35,1,77.bmp,-120,-120,78.bmp,120,-120,79.bmp,-120,120,80.bmp,120,120,10041.70000000298,562141.799999997,9028,yes,SM,C,79.bmp,120,120,211486,205463,213503,207470,566552.0,560527.0,568569.0,562536.0,35
3,0,0,1,0,29,test,1,1,m,Mon Oct 06 2025 16:33:29 GMT-0400 (Eastern Daylight Time),581666.8999999985,I,m,1419,36,1,85.bmp,-120,-120,86.bmp,120,-120,87.bmp,-120,120,88.bmp,120,120,9475.60000000149,572191.299999997,9028,yes,SM,C,85.bmp,-120,120,211486,205463,213503,207470,576602.0,570577.0,578619.0,572586.0,36
1,1,0,0,0,30,test,1,1,m,Mon Oct 06 2025 16:33:29 GMT-0400 (Eastern Daylight Time),591100.299999997,I,m,1376,37,1,89.bmp,-120,-120,90.bmp,120,-120,91.bmp,-120,120,92.bmp,120,120,9426.699999999255,581673.5999999978,9028,yes,SM,C,90.bmp,-120,-120,211486,205463,213503,207470,586085.0,580059.0,588102.0,582069.0,37
2,0,1,0,0,30,test,1,0,m,Mon Oct 06 2025 16:33:29 GMT-0400 (Eastern Daylight Time),601166.8999999985,I,None,2016,38,1,93.bmp,-120,-120,94.bmp,120,-120,95.bmp,-120,120,96.bmp,120,120,10056.60000000149,591110.299999997,9028,yes,SM,C,95.bmp,120,-120,211486,205463,213503,207470,595519.0,589496.0,597536.0,591502.0,38
4,0,0,0,1,31,test,1,1,z,Mon Oct 06 2025 16:33:29 GMT-0400 (Eastern Daylight Time),610950.0,I,z,1732,39,1,97.bmp,-120,-120,98.bmp,120,-120,99.bmp,-120,120,100.bmp,120,120,9773.5,601176.5,9028,yes,SM,C,100.bmp,120,120,211486,205463,213503,207470,605585.0,599563.0,607602.0,601569.0,39
3,0,0,1,0,32,test,1,1,m,Mon Oct 06 2025 16:33:29 GMT-0400 (Eastern Daylight Time),620933.5,I,m,1916,40,1,54.bmp,-120,-120,55.bmp,120,-120,56.bmp,-120,120,57.bmp,120,120,9975.5,610958.0,9028,yes,SM,C,55.bmp,-120,120,211486,205463,213503,207470,615369.0,609343.0,617386.0,611352.0,40
1,1,0,0,0,33,test,1,1,z,Mon Oct 06 2025 16:33:29 GMT-0400 (Eastern Daylight Time),630833.5,I,z,1837,41,1,58.bmp,-120,-120,59.bmp,120,-120,60.bmp,-120,120,61.bmp,120,120,9893.20000000298,620940.299999997,9028,yes,SM,C,58.bmp,-120,-120,211486,205463,213503,207470,625352.0,619326.0,627369.0,621336.0,41
4,0,0,0,1,34,test,1,1,z,Mon Oct 06 2025 16:33:29 GMT-0400 (Eastern Daylight Time),640416.8999999985,I,z,1521,42,1,62.bmp,-120,-120,63.bmp,120,-120,64.bmp,-120,120,65.bmp,120,120,9577.10000000149,630839.799999997,9028,yes,SM,C,65.bmp,120,120,211486,205463,213503,207470,635252.0,629225.0,637269.0,631236.0,42
1,1,0,0,0,34,test,1,0,z,Mon Oct 06 2025 16:33:29 GMT-0400 (Eastern Daylight Time),650483.3999999985,I,None,2016,43,1,66.bmp,-120,-120,67.bmp,120,-120,68.bmp,-120,120,69.bmp,120,120,10060.10000000149,640423.299999997,9028,yes,SM,C,66.bmp,-120,-120,211486,205463,213503,207470,644835.0,638809.0,646852.0,640819.0,43
4,0,0,0,1,35,test,1,1,m,Mon Oct 06 2025 16:33:29 GMT-0400 (Eastern Daylight Time),659816.6999999993,I,m,1279,44,1,54.bmp,-120,-120,51.bmp,120,-120,52.bmp,-120,120,53.bmp,120,120,9325.800000000745,650490.8999999985,9028,yes,SM,C,54.bmp,120,120,211486,205463,213503,207470,654902.0,648876.0,656919.0,650886.0,44
1,1,0,0,0,36,test,1,1,m,Mon Oct 06 2025 16:33:29 GMT-0400 (Eastern Daylight Time),669333.3999999985,I,m,1450,45,1,78.bmp,-120,-120,79.bmp,120,-120,80.bmp,-120,120,81.bmp,120,120,9510.39999999851,659823.0,9028,yes,SM,C,81.bmp,-120,-120,211486,205463,213503,207470,664235.0,658208.0,666252.0,660219.0,45
1,1,0,0,0,37,test,1,1,m,Mon Oct 06 2025 16:33:29 GMT-0400 (Eastern Daylight Time),679300.0999999978,I,m,1900,46,1,70.bmp,-120,-120,71.bmp,120,-120,72.bmp,-120,120,73.bmp,120,120,9960.099999997765,669340.0,9028,yes,SM,C,71.bmp,-120,-120,211486,205463,213503,207470,673752.0,667725.0,675769.0,669736.0,46
3,0,0,1,0,38,test,1,1,z,Mon Oct 06 2025 16:33:29 GMT-0400 (Eastern Daylight Time),688983.3999999985,I,z,1630,47,1,74.bmp,-120,-120,75.bmp,120,-120,76.bmp,-120,120,77.bmp,120,120,9676.5,679306.8999999985,9028,yes,SM,C,76.bmp,-120,120,211486,205463,213503,207470,683719.0,677692.0,685736.0,679702.0,47
3,0,0,1,0,39,test,1,1,z,Mon Oct 06 2025 16:33:29 GMT-0400 (Eastern Daylight Time),697966.6999999993,I,z,923,48,1,90.bmp,-120,-120,91.bmp,120,-120,92.bmp,-120,120,93.bmp,120,120,8975.199999999255,688991.5,9028,yes,SM,C,92.bmp,-120,120,211486,205463,213503,207470,693402.0,687377.0,695419.0,689385.0,48
2,0,1,0,0,40,test,1,1,z,Mon Oct 06 2025 16:33:29 GMT-0400 (Eastern Daylight Time),707766.6999999993,I,z,1748,49,1,86.bmp,-120,-120,87.bmp,120,-120,88.bmp,-120,120,89.bmp,120,120,9793.199999999255,697973.5,9028,yes,SM,C,87.bmp,120,-120,211486,205463,213503,207470,702385.0,696359.0,704402.0,698369.0,49
3,0,0,1,0,41,test,1,1,m,Mon Oct 06 2025 16:33:29 GMT-0400 (Eastern Daylight Time),717150.0999999978,I,m,1324,50,1,82.bmp,-120,-120,83.bmp,120,-120,84.bmp,-120,120,85.bmp,120,120,9376.800000000745,707773.299999997,9028,yes,SM,C,82.bmp,-120,120,211486,205463,213503,207470,712185.0,706159.0,714202.0,708169.0,50
2,0,1,0,0,42,test,1,1,z,Mon Oct 06 2025 16:33:29 GMT-0400 (Eastern Daylight Time),726316.6999999993,I,z,1108,51,1,94.bmp,-120,-120,95.bmp,120,-120,96.bmp,-120,120,97.bmp,120,120,9158.400000002235,717158.299999997,9028,yes,SM,C,95.bmp,120,-120,211486,205463,213503,207470,721569.0,715544.0,723586.0,717552.0,51
4,0,0,0,1,43,test,1,1,m,Mon Oct 06 2025 16:33:29 GMT-0400 (Eastern Daylight Time),735732.8999999985,I,m,1365,52,1,98.bmp,-120,-120,99.bmp,120,-120,100.bmp,-120,120,81.bmp,120,120,9408.0,726324.8999999985,9028,yes,SM,C,98.bmp,120,120,211486,205463,213503,207470,730735.0,724710.0,732752.0,726719.0,52
3,0,0,1,0,43,test,1,0,z,Mon Oct 06 2025 16:33:29 GMT-0400 (Eastern Daylight Time),745799.8999999985,I,None,2016,53,1,51.bmp,-120,-120,52.bmp,120,-120,53.bmp,-120,120,54.bmp,120,120,10061.10000000149,735738.799999997,9028,yes,SM,C,53.bmp,-120,120,211486,205463,213503,207470,740152.0,734124.0,742169.0,736135.0,53
1,1,0,0,0,43,test,1,0,m,Mon Oct 06 2025 16:33:29 GMT-0400 (Eastern Daylight Time),755349.6999999993,I,z,1498,54,1,55.bmp,-120,-120,56.bmp,120,-120,57.bmp,-120,120,58.bmp,120,120,9543.199999999255,745806.5,9028,yes,SM,C,57.bmp,-120,-120,211486,205463,213503,207470,750219.0,744192.0,752235.0,746202.0,54
4,0,0,0,1,43,test,1,0,z,Mon Oct 06 2025 16:33:29 GMT-0400 (Eastern Daylight Time),765416.799999997,I,None,2016,55,1,59.bmp,-120,-120,60.bmp,120,-120,61.bmp,-120,120,62.bmp,120,120,10062.79999999702,755354.0,9028,yes,SM,C,62.bmp,120,120,211486,205463,213503,207470,759769.0,753739.0,761786.0,755752.0,55
2,0,1,0,0,44,test,1,1,m,Mon Oct 06 2025 16:33:29 GMT-0400 (Eastern Daylight Time),774966.6999999993,I,m,1498,56,1,63.bmp,-120,-120,64.bmp,120,-120,65.bmp,-120,120,66.bmp,120,120,9542.199999999255,765424.5,9028,yes,SM,C,63.bmp,120,-120,211486,205463,213503,207470,769835.0,763810.0,771852.0,765819.0,56
4,0,0,0,1,44,test,1,0,m,Mon Oct 06 2025 16:33:29 GMT-0400 (Eastern Daylight Time),784900.0,I,z,1868,57,1,67.bmp,-120,-120,68.bmp,120,-120,69.bmp,-120,120,70.bmp,120,120,9924.400000002235,774975.5999999978,9028,yes,SM,C,68.bmp,120,120,211486,205463,213503,207470,779385.0,773361.0,781402.0,775369.0,57
3,0,0,1,0,45,test,1,1,z,Mon Oct 06 2025 16:33:29 GMT-0400 (Eastern Daylight Time),793899.799999997,I,z,943,58,1,71.bmp,-120,-120,72.bmp,120,-120,73.bmp,-120,120,74.bmp,120,120,8991.89999999851,784907.8999999985,9028,yes,SM,C,73.bmp,-120,120,211486,205463,213503,207470,789318.0,783293.0,791335.0,785302.0,58
2,0,1,0,0,46,test,1,1,m,Mon Oct 06 2025 16:33:29 GMT-0400 (Eastern Daylight Time),803716.6999999993,I,m,1751,59,1,75.bmp,-120,-120,76.bmp,120,-120,77.bmp,-120,120,78.bmp,120,120,9810.10000000149,793906.5999999978,9028,yes,SM,C,78.bmp,120,-120,211486,205463,213503,207470,798319.0,792292.0,800335.0,794302.0,59
1,1,0,0,0,47,test,1,1,z,Mon Oct 06 2025 16:33:29 GMT-0400 (Eastern Daylight Time),813383.0999999978,I,z,1614,60,1,79.bmp,-120,-120,80.bmp,120,-120,81.bmp,-120,120,82.bmp,120,120,9658.300000000745,803724.799999997,9028,yes,SM,C,79.bmp,-120,-120,211486,205463,213503,207470,808135.0,802110.0,810152.0,804119.0,60
2,0,1,0,0,48,test,1,1,z,Mon Oct 06 2025 16:33:29 GMT-0400 (Eastern Daylight Time),822733.299999997,I,z,1291,61,1,83.bmp,-120,-120,84.bmp,120,-120,85.bmp,-120,120,86.bmp,120,120,9342.79999999702,813390.5,9028,yes,SM,C,84.bmp,120,-120,211486,205463,213503,207470,817802.0,811776.0,819819.0,813785.0,61
4,0,0,0,1,48,test,1,0,z,Mon Oct 06 2025 16:33:29 GMT-0400 (Eastern Daylight Time),832799.5999999978,I,None,2017,62,1,91.bmp,-120,-120,92.bmp,120,-120,93.bmp,-120,120,94.bmp,120,120,10059.099999997765,822740.5,9028,yes,SM,C,94.bmp,120,120,211486,205463,213503,207470,827152.0,821126.0,829168.0,823135.0,62
1,1,0,0,0,48,test,1,0,m,Mon Oct 06 2025 16:33:29 GMT-0400 (Eastern Daylight Time),841949.8999999985,I,z,1090,63,1,95.bmp,-120,-120,96.bmp,120,-120,97.bmp,-120,120,98.bmp,120,120,9144.39999999851,832805.5,9028,yes,SM,C,95.bmp,-120,120,211486,205463,213503,207470,837218.0,831191.0,839235.0,833202.0,63
2,0,1,0,0,49,test,1,1,z,Mon Oct 06 2025 16:33:29 GMT-0400 (Eastern Daylight Time),851466.5,I,z,1461,64,1,99.bmp,-120,-120,100.bmp,120,-120,62.bmp,-120,120,51.bmp,120,120,9506.20000000298,841960.299999997,9028,yes,SM,C,100.bmp,120,-120,211486,205463,213503,207470,846368.0,840346.0,848385.0,842352.0,64
4,0,0,0,1,50,test,1,1,m,Mon Oct 06 2025 16:33:29 GMT-0400 (Eastern Daylight Time),860966.5,I,m,1448,65,1,52.bmp,-120,-120,53.bmp,120,-120,54.bmp,-120,120,55.bmp,120,120,9491.0,851475.5,9028,yes,SM,C,54.bmp,120,120,211486,205463,213503,207470,855885.0,849861.0,857902.0,851869.0,65
3,0,0,1,0,51,test,1,1,m,Mon Oct 06 2025 16:33:29 GMT-0400 (Eastern Daylight Time),870566.5,I,m,1548,66,1,56.bmp,-120,-120,57.bmp,120,-120,58.bmp,-120,120,59.bmp,120,120,9592.5,860974.0,9028,yes,SM,C,59.bmp,-120,120,211486,205463,213503,207470,865385.0,859359.0,867402.0,861369.0,66
2,0,1,0,0,52,test,1,1,m,Mon Oct 06 2025 16:33:29 GMT-0400 (Eastern Daylight Time),880116.8999999985,I,m,1499,67,1,87.bmp,-120,-120,88.bmp,120,-120,89.bmp,-120,120,90.bmp,120,120,9539.89999999851,870577.0,9028,yes,SM,C,89.bmp,120,-120,211486,205463,213503,207470,874985.0,868963.0,877002.0,870968.0,67
3,0,0,1,0,52,test,1,0,z,Mon Oct 06 2025 16:33:29 GMT-0400 (Eastern Daylight Time),889833.1999999993,I,m,1662,68,1,60.bmp,-120,-120,61.bmp,120,-120,62.bmp,-120,120,63.bmp,120,120,9709.900000002235,880123.299999997,9028,yes,SM,C,62.bmp,-120,120,211486,205463,213503,207470,884535.0,878509.0,886552.0,880519.0,68
1,1,0,0,0,53,test,1,1,m,Mon Oct 06 2025 16:33:29 GMT-0400 (Eastern Daylight Time),899066.5,I,m,1176,69,1,64.bmp,-120,-120,65.bmp,120,-120,66.bmp,-120,120,67.bmp,120,120,9226.10000000149,889840.3999999985,9028,yes,SM,C,65.bmp,-120,-120,211486,205463,213503,207470,894252.0,888226.0,896269.0,890235.0,69
2,0,1,0,0,54,test,1,1,m,Mon Oct 06 2025 16:33:29 GMT-0400 (Eastern Daylight Time),908099.799999997,I,m,968,70,1,68.bmp,-120,-120,69.bmp,120,-120,70.bmp,-120,120,71.bmp,120,120,9024.5,899075.299999997,9028,yes,SM,C,70.bmp,120,-120,211486,205463,213503,207470,903485.0,897461.0,905502.0,899469.0,70
4,0,0,0,1,54,test,1,0,z,Mon Oct 06 2025 16:33:29 GMT-0400 (Eastern Daylight Time),918166.5999999978,I,None,2016,71,1,72.bmp,-120,-120,73.bmp,120,-120,74.bmp,-120,120,75.bmp,120,120,10059.800000000745,908106.799999997,9028,yes,SM,C,75.bmp,120,120,211486,205463,213503,207470,912518.0,906492.0,914535.0,908502.0,71
1,1,0,0,0,55,test,1,1,z,Mon Oct 06 2025 16:33:29 GMT-0400 (Eastern Daylight Time),927449.6999999993,I,z,1227,72,1,76.bmp,-120,-120,77.bmp,120,-120,78.bmp,-120,120,79.bmp,120,120,9276.199999999255,918173.5,9028,yes,SM,C,76.bmp,-120,-120,211486,205463,213503,207470,922585.0,916559.0,924602.0,918569.0,72
2,0,1,0,0,56,test,1,1,z,Mon Oct 06 2025 16:33:29 GMT-0400 (Eastern Daylight Time),936616.3999999985,I,z,1113,73,1,80.bmp,-120,-120,81.bmp,120,-120,82.bmp,-120,120,83.bmp,120,120,9158.60000000149,927457.799999997,9028,yes,SM,C,81.bmp,120,-120,211486,205463,213503,207470,931868.0,925843.0,933885.0,927852.0,73
4,0,0,0,1,56,test,1,0,m,Mon Oct 06 2025 16:33:29 GMT-0400 (Eastern Daylight Time),946683.0999999978,I,None,2016,74,1,84.bmp,-120,-120,85.bmp,120,-120,86.bmp,-120,120,87.bmp,120,120,10059.199999999255,936623.8999999985,9028,yes,SM,C,86.bmp,120,120,211486,205463,213503,207470,941035.0,935009.0,943052.0,937019.0,74
2,0,1,0,0,57,test,1,1,m,Mon Oct 06 2025 16:33:29 GMT-0400 (Eastern Daylight Time),956483.0999999978,I,m,1734,75,1,88.bmp,-120,-120,89.bmp,120,-120,90.bmp,-120,120,91.bmp,120,120,9790.699999999255,946692.3999999985,9028,yes,SM,C,91.bmp,120,-120,211486,205463,213503,207470,951101.0,945078.0,953118.0,947085.0,75
1,1,0,0,0,58,test,1,1,z,Mon Oct 06 2025 16:33:29 GMT-0400 (Eastern Daylight Time),965749.5,I,z,1215,76,1,92.bmp,-120,-120,93.bmp,120,-120,94.bmp,-120,120,95.bmp,120,120,9256.5,956493.0,9028,yes,SM,C,92.bmp,-120,-120,211486,205463,213503,207470,960902.0,954879.0,962919.0,956885.0,76
3,0,0,1,0,59,test,1,1,z,Mon Oct 06 2025 16:33:29 GMT-0400 (Eastern Daylight Time),974649.6999999993,I,z,844,77,1,100.bmp,-120,-120,61.bmp,120,-120,51.bmp,-120,120,52.bmp,120,120,8894.10000000149,965755.5999999978,9028,yes,SM,C,51.bmp,-120,120,211486,205463,213503,207470,970168.0,964141.0,972185.0,966152.0,77
1,1,0,0,0,60,test,1,1,m,Mon Oct 06 2025 16:33:29 GMT-0400 (Eastern Daylight Time),984333.0999999978,I,m,1625,78,1,96.bmp,-120,-120,97.bmp,120,-120,98.bmp,-120,120,99.bmp,120,120,9676.5,974656.5999999978,9028,yes,SM,C,97.bmp,-120,-120,211486,205463,213503,207470,979068.0,973042.0,981085.0,975052.0,78
4,0,0,0,1,61,test,1,1,m,Mon Oct 06 2025 16:33:29 GMT-0400 (Eastern Daylight Time),993566.3999999985,I,m,1173,79,1,57.bmp,-120,-120,58.bmp,120,-120,59.bmp,-120,120,60.bmp,120,120,9224.800000000745,984341.5999999978,9028,yes,SM,C,57.bmp,120,120,211486,205463,213503,207470,988752.0,982727.0,990768.0,984736.0,79
3,0,0,1,0,62,test,1,1,m,Mon Oct 06 2025 16:33:29 GMT-0400 (Eastern Daylight Time),1002682.3999999985,I,m,1061,80,1,53.bmp,-120,-120,54.bmp,120,-120,55.bmp,-120,120,56.bmp,120,120,9108.10000000149,993574.299999997,9028,yes,SM,C,56.bmp,-120,120,211486,205463,213503,207470,997985.0,991960.0,1000001.0,993968.0,80
