block_c,block_dur,condition,countdown,datetime,endtime,list,multichar_response,project,response,response_time,session_number,start_end,starttime,subject_id,task,task_vers,trial
,,,,Fri Aug 08 2025 14:07:46 GMT-0500 (Central Daylight Time),,,,O,space,298,1,,,7183,WL,B,
prac,,0,,Fri Aug 08 2025 14:07:46 GMT-0500 (Central Daylight Time),,NA,b,O,b,1634,1,,,7183,WL,B,1.0
prac,,0,,Fri Aug 08 2025 14:07:46 GMT-0500 (Central Daylight Time),,NA,bo,O,o,438,1,,,7183,WL,B,1.0
prac,,0,,Fri Aug 08 2025 14:07:46 GMT-0500 (Central Daylight Time),,NA,boo,O,o,145,1,,,7183,WL,B,1.0
prac,,0,,Fri Aug 08 2025 14:07:46 GMT-0500 (Central Daylight Time),,NA,boos,O,s,120,1,,,7183,WL,B,1.0
prac,,0,,Fri Aug 08 2025 14:07:46 GMT-0500 (Central Daylight Time),,NA,boost,O,t,195,1,,,7183,WL,B,1.0
prac,,0,,Fri Aug 08 2025 14:07:46 GMT-0500 (Central Daylight Time),,NA,boostenter,O,enter,3862,1,,,7183,WL,B,1.0
1,1.7329998016357422,learn,58267.00019836426,Fri Aug 08 2025 14:07:46 GMT-0500 (Central Daylight Time),176062.20000004768,A,s,O,s,1724,1,1732.4000000953674,174329.79999995232,7183,WL,B,1.0
1,1.9839999675750732,learn,58016.00003242493,Fri Aug 08 2025 14:07:46 GMT-0500 (Central Daylight Time),176312.90000009537,A,st,O,t,240,1,1983.1000001430511,174329.79999995232,7183,WL,B,1.0
1,2.1659998893737793,learn,57834.00011062622,Fri Aug 08 2025 14:07:46 GMT-0500 (Central Daylight Time),176495.5,A,str,O,r,171,1,2165.7000000476837,174329.79999995232,7183,WL,B,1.0
1,2.2819998264312744,learn,57718.000173568726,Fri Aug 08 2025 14:07:46 GMT-0500 (Central Daylight Time),176611.20000004768,A,stre,O,e,100,1,2281.4000000953674,174329.79999995232,7183,WL,B,1.0
1,2.3989999294281006,learn,57601.0000705719,Fri Aug 08 2025 14:07:46 GMT-0500 (Central Daylight Time),176728.0,A,stree,O,e,94,1,2398.2000000476837,174329.79999995232,7183,WL,B,1.0
1,2.6669998168945312,learn,57333.00018310547,Fri Aug 08 2025 14:07:46 GMT-0500 (Central Daylight Time),176996.29999995232,A,streee,O,e,243,1,2666.5,174329.79999995232,7183,WL,B,1.0
1,3.299999952316284,learn,56700.000047683716,Fri Aug 08 2025 14:07:46 GMT-0500 (Central Daylight Time),177629.40000009537,A,stree,O,backspace,616,1,3299.600000143051,174329.79999995232,7183,WL,B,1.0
1,3.748999834060669,learn,56251.00016593933,Fri Aug 08 2025 14:07:46 GMT-0500 (Central Daylight Time),178078.40000009537,A,street,O,t,425,1,3748.600000143051,174329.79999995232,7183,WL,B,1.0
1,4.598999977111816,learn,55401.00002288818,Fri Aug 08 2025 14:07:46 GMT-0500 (Central Daylight Time),178928.79999995232,A,streetenter,O,enter,837,1,4599.0,174329.79999995232,7183,WL,B,1.0
1,5.065999984741211,learn,54934.00001525879,Fri Aug 08 2025 14:07:46 GMT-0500 (Central Daylight Time),179396.20000004768,A,g,O,g,445,1,466.90000009536743,178929.29999995232,7183,WL,B,2.0
1,5.381999969482422,learn,54618.00003051758,Fri Aug 08 2025 14:07:46 GMT-0500 (Central Daylight Time),179711.59999990463,A,gr,O,r,296,1,782.2999999523163,178929.29999995232,7183,WL,B,2.0
1,5.447999954223633,learn,54552.00004577637,Fri Aug 08 2025 14:07:46 GMT-0500 (Central Daylight Time),179777.59999990463,A,gra,O,a,45,1,848.2999999523163,178929.29999995232,7183,WL,B,2.0
1,5.796999931335449,learn,54203.00006866455,Fri Aug 08 2025 14:07:46 GMT-0500 (Central Daylight Time),180126.79999995232,A,grad,O,d,339,1,1197.5,178929.29999995232,7183,WL,B,2.0
1,5.96399998664856,learn,54036.00001335144,Fri Aug 08 2025 14:07:46 GMT-0500 (Central Daylight Time),180293.5,A,gradd,O,d,160,1,1364.2000000476837,178929.29999995232,7183,WL,B,2.0
1,6.396999835968018,learn,53603.00016403198,Fri Aug 08 2025 14:07:46 GMT-0500 (Central Daylight Time),180726.59999990463,A,grad,O,backspace,414,1,1797.2999999523163,178929.29999995232,7183,WL,B,2.0
1,6.531999826431274,learn,53468.000173568726,Fri Aug 08 2025 14:07:46 GMT-0500 (Central Daylight Time),180861.90000009537,A,gra,O,backspace,120,1,1932.6000001430511,178929.29999995232,7183,WL,B,2.0
1,6.747999906539917,learn,53252.00009346008,Fri Aug 08 2025 14:07:46 GMT-0500 (Central Daylight Time),181077.59999990463,A,gras,O,s,196,1,2148.2999999523163,178929.29999995232,7183,WL,B,2.0
1,7.229999780654907,learn,52770.00021934509,Fri Aug 08 2025 14:07:46 GMT-0500 (Central Daylight Time),181559.79999995232,A,grass,O,s,471,1,2630.5,178929.29999995232,7183,WL,B,2.0
1,7.946999788284302,learn,52053.0002117157,Fri Aug 08 2025 14:07:46 GMT-0500 (Central Daylight Time),182276.70000004768,A,grassenter,O,enter,695,1,3347.4000000953674,178929.29999995232,7183,WL,B,2.0
1,8.464999914169312,learn,51535.00008583069,Fri Aug 08 2025 14:07:46 GMT-0500 (Central Daylight Time),182794.59999990463,A,d,O,d,504,1,517.5999999046326,182277.0,7183,WL,B,3.0
1,8.88099980354309,learn,51119.00019645691,Fri Aug 08 2025 14:07:46 GMT-0500 (Central Daylight Time),183211.0,A,do,O,o,403,1,934.0,182277.0,7183,WL,B,3.0
1,9.01199984550476,learn,50988.00015449524,Fri Aug 08 2025 14:07:46 GMT-0500 (Central Daylight Time),183342.0,A,doo,O,o,122,1,1065.0,182277.0,7183,WL,B,3.0
1,9.245999813079834,learn,50754.000186920166,Fri Aug 08 2025 14:07:46 GMT-0500 (Central Daylight Time),183575.70000004768,A,door,O,r,216,1,1298.7000000476837,182277.0,7183,WL,B,3.0
1,9.763000011444092,learn,50236.99998855591,Fri Aug 08 2025 14:07:46 GMT-0500 (Central Daylight Time),184092.59999990463,A,doorenter,O,enter,512,1,1815.5999999046326,182277.0,7183,WL,B,3.0
1,10.115999937057495,learn,49884.000062942505,Fri Aug 08 2025 14:07:46 GMT-0500 (Central Daylight Time),184445.20000004768,A,a,O,a,338,1,352.2000000476837,184093.0,7183,WL,B,4.0
1,10.245999813079834,learn,49754.000186920166,Fri Aug 08 2025 14:07:46 GMT-0500 (Central Daylight Time),184576.0,A,ar,O,r,110,1,483.0,184093.0,7183,WL,B,4.0
1,10.629999876022339,learn,49370.00012397766,Fri Aug 08 2025 14:07:46 GMT-0500 (Central Daylight Time),184959.29999995232,A,arm,O,m,365,1,866.2999999523163,184093.0,7183,WL,B,4.0
1,11.328999996185303,learn,48671.0000038147,Fri Aug 08 2025 14:07:46 GMT-0500 (Central Daylight Time),185659.09999990463,A,armenter,O,enter,685,1,1566.0999999046326,184093.0,7183,WL,B,4.0
1,11.729999780654907,learn,48270.00021934509,Fri Aug 08 2025 14:07:46 GMT-0500 (Central Daylight Time),186060.20000004768,A,w,O,w,388,1,400.7999999523163,185659.40000009537,7183,WL,B,5.0
1,11.827999830245972,learn,48172.00016975403,Fri Aug 08 2025 14:07:46 GMT-0500 (Central Daylight Time),186157.70000004768,A,wi,O,i,89,1,498.2999999523163,185659.40000009537,7183,WL,B,5.0
1,11.962999820709229,learn,48037.00017929077,Fri Aug 08 2025 14:07:46 GMT-0500 (Central Daylight Time),186292.29999995232,A,win,O,n,121,1,632.8999998569489,185659.40000009537,7183,WL,B,5.0
1,12.212999820709229,learn,47787.00017929077,Fri Aug 08 2025 14:07:46 GMT-0500 (Central Daylight Time),186542.5,A,wind,O,d,234,1,883.0999999046326,185659.40000009537,7183,WL,B,5.0
1,12.513000011444092,learn,47486.99998855591,Fri Aug 08 2025 14:07:46 GMT-0500 (Central Daylight Time),186842.40000009537,A,windo,O,o,286,1,1183.0,185659.40000009537,7183,WL,B,5.0
1,12.728999853134155,learn,47271.000146865845,Fri Aug 08 2025 14:07:46 GMT-0500 (Central Daylight Time),187058.90000009537,A,window,O,w,203,1,1399.5,185659.40000009537,7183,WL,B,5.0
1,13.179999828338623,learn,46820.00017166138,Fri Aug 08 2025 14:07:46 GMT-0500 (Central Daylight Time),187509.40000009537,A,windowenter,O,enter,445,1,1850.0,185659.40000009537,7183,WL,B,5.0
1,13.59499979019165,learn,46405.00020980835,Fri Aug 08 2025 14:07:46 GMT-0500 (Central Daylight Time),187925.0,A,p,O,p,410,1,415.2999999523163,187509.70000004768,7183,WL,B,6.0
1,13.77999997138977,learn,46220.00002861023,Fri Aug 08 2025 14:07:46 GMT-0500 (Central Daylight Time),188109.29999995232,A,pu,O,u,176,1,599.5999999046326,187509.70000004768,7183,WL,B,6.0
1,14.42799997329712,learn,45572.00002670288,Fri Aug 08 2025 14:07:46 GMT-0500 (Central Daylight Time),188758.09999990463,A,pup,O,p,641,1,1248.3999998569489,187509.70000004768,7183,WL,B,6.0
1,14.643999814987183,learn,45356.00018501282,Fri Aug 08 2025 14:07:46 GMT-0500 (Central Daylight Time),188974.0,A,pupi,O,i,207,1,1464.2999999523163,187509.70000004768,7183,WL,B,6.0
1,15.111999988555908,learn,44888.00001144409,Fri Aug 08 2025 14:07:46 GMT-0500 (Central Daylight Time),189441.70000004768,A,pupil,O,l,447,1,1932.0,187509.70000004768,7183,WL,B,6.0
1,15.860999822616577,learn,44139.00017738342,Fri Aug 08 2025 14:07:46 GMT-0500 (Central Daylight Time),190190.5,A,pupilenter,O,enter,730,1,2680.7999999523163,187509.70000004768,7183,WL,B,6.0
1,18.59499979019165,learn,41405.00020980835,Fri Aug 08 2025 14:07:46 GMT-0500 (Central Daylight Time),192924.70000004768,A,d,O,d,2721,1,2733.7999999523163,190190.90000009537,7183,WL,B,7.0
1,18.793999910354614,learn,41206.000089645386,Fri Aug 08 2025 14:07:46 GMT-0500 (Central Daylight Time),193123.29999995232,A,dp,O,p,184,1,2932.399999856949,190190.90000009537,7183,WL,B,7.0
1,18.90999984741211,learn,41090.00015258789,Fri Aug 08 2025 14:07:46 GMT-0500 (Central Daylight Time),193240.09999990463,A,dpp,O,p,108,1,3049.199999809265,190190.90000009537,7183,WL,B,7.0
1,19.05999994277954,learn,40940.00005722046,Fri Aug 08 2025 14:07:46 GMT-0500 (Central Daylight Time),193389.70000004768,A,dppr,O,r,145,1,3198.7999999523163,190190.90000009537,7183,WL,B,7.0
1,19.525999784469604,learn,40474.000215530396,Fri Aug 08 2025 14:07:46 GMT-0500 (Central Daylight Time),193855.79999995232,A,dpp,O,backspace,456,1,3664.899999856949,190190.90000009537,7183,WL,B,7.0
1,19.727999925613403,learn,40272.0000743866,Fri Aug 08 2025 14:07:46 GMT-0500 (Central Daylight Time),194057.20000004768,A,dp,O,backspace,192,1,3866.2999999523163,190190.90000009537,7183,WL,B,7.0
1,19.89299988746643,learn,40107.00011253357,Fri Aug 08 2025 14:07:46 GMT-0500 (Central Daylight Time),194222.29999995232,A,d,O,backspace,149,1,4031.399999856949,190190.90000009537,7183,WL,B,7.0
1,20.55899977684021,learn,39441.00022315979,Fri Aug 08 2025 14:07:46 GMT-0500 (Central Daylight Time),194889.09999990463,A,do,O,o,654,1,4698.199999809265,190190.90000009537,7183,WL,B,7.0
1,20.691999912261963,learn,39308.00008773804,Fri Aug 08 2025 14:07:46 GMT-0500 (Central Daylight Time),195021.59999990463,A,doo,O,o,123,1,4830.699999809265,190190.90000009537,7183,WL,B,7.0
1,20.90999984741211,learn,39090.00015258789,Fri Aug 08 2025 14:07:46 GMT-0500 (Central Daylight Time),195240.0,A,door,O,r,200,1,5049.099999904633,190190.90000009537,7183,WL,B,7.0
1,21.526999950408936,learn,38473.000049591064,Fri Aug 08 2025 14:07:46 GMT-0500 (Central Daylight Time),195856.29999995232,A,doorenter,O,enter,596,1,5665.399999856949,190190.90000009537,7183,WL,B,7.0
1,25.407999992370605,learn,34592.000007629395,Fri Aug 08 2025 14:07:46 GMT-0500 (Central Daylight Time),199737.29999995232,A,enter,O,enter,3869,1,3880.7000000476837,195856.59999990463,7183,WL,B,8.0
1,26.306999921798706,learn,33693.000078201294,Fri Aug 08 2025 14:07:46 GMT-0500 (Central Daylight Time),200636.40000009537,A,enter,O,enter,892,1,898.8000001907349,199737.59999990463,7183,WL,B,9.0
1,27.039999961853027,learn,32960.00003814697,Fri Aug 08 2025 14:07:46 GMT-0500 (Central Daylight Time),201370.09999990463,A,enter,O,enter,713,1,733.2999999523163,200636.79999995232,7183,WL,B,10.0
1,30.990000009536743,learn,29009.999990463257,Fri Aug 08 2025 14:07:46 GMT-0500 (Central Daylight Time),205320.0,A,enter,O,enter,3940,1,3949.5999999046326,201370.40000009537,7183,WL,B,11.0
1,31.688999891281128,learn,28311.000108718872,Fri Aug 08 2025 14:07:46 GMT-0500 (Central Daylight Time),206018.40000009537,A,enter,O,enter,686,1,698.0,205320.40000009537,7183,WL,B,12.0
1,32.18999981880188,learn,27810.00018119812,Fri Aug 08 2025 14:07:46 GMT-0500 (Central Daylight Time),206519.40000009537,A,enter,O,enter,482,1,500.7000000476837,206018.70000004768,7183,WL,B,13.0
1,32.620999813079834,learn,27379.000186920166,Fri Aug 08 2025 14:07:46 GMT-0500 (Central Daylight Time),206951.0,A,enter,O,enter,413,1,431.2000000476837,206519.79999995232,7183,WL,B,14.0
1,33.60599994659424,learn,26394.00005340576,Fri Aug 08 2025 14:07:46 GMT-0500 (Central Daylight Time),207935.59999990463,A,enter,O,enter,967,1,984.1999998092651,206951.40000009537,7183,WL,B,15.0
2,1.4829998016357422,learn,58517.00019836426,Fri Aug 08 2025 14:07:46 GMT-0500 (Central Daylight Time),276981.2999999523,A,s,O,s,1477,1,1481.3999998569489,275499.90000009537,7183,WL,B,1.0
2,1.6659998893737793,learn,58334.00011062622,Fri Aug 08 2025 14:07:46 GMT-0500 (Central Daylight Time),277163.7999999523,A,sk,O,k,161,1,1663.8999998569489,275499.90000009537,7183,WL,B,1.0
2,1.9649999141693115,learn,58035.00008583069,Fri Aug 08 2025 14:07:46 GMT-0500 (Central Daylight Time),277462.90000009537,A,ski,O,i,289,1,1963.0,275499.90000009537,7183,WL,B,1.0
2,2.1480000019073486,learn,57851.99999809265,Fri Aug 08 2025 14:07:46 GMT-0500 (Central Daylight Time),277646.59999990463,A,skin,O,n,173,1,2146.699999809265,275499.90000009537,7183,WL,B,1.0
2,2.6489999294281006,learn,57351.0000705719,Fri Aug 08 2025 14:07:46 GMT-0500 (Central Daylight Time),278147.40000009537,A,skinenter,O,enter,492,1,2647.5,275499.90000009537,7183,WL,B,1.0
2,3.132999897003174,learn,56867.000102996826,Fri Aug 08 2025 14:07:46 GMT-0500 (Central Daylight Time),278630.7000000477,A,f,O,f,478,1,483.0,278147.7000000477,7183,WL,B,2.0
2,3.299999952316284,learn,56700.000047683716,Fri Aug 08 2025 14:07:46 GMT-0500 (Central Daylight Time),278798.0,A,fi,O,i,158,1,650.2999999523163,278147.7000000477,7183,WL,B,2.0
2,3.56499981880188,learn,56435.00018119812,Fri Aug 08 2025 14:07:46 GMT-0500 (Central Daylight Time),279063.2999999523,A,fir,O,r,256,1,915.5999999046326,278147.7000000477,7183,WL,B,2.0
2,3.6989998817443848,learn,56301.000118255615,Fri Aug 08 2025 14:07:46 GMT-0500 (Central Daylight Time),279197.2999999523,A,fire,O,e,106,1,1049.5999999046326,278147.7000000477,7183,WL,B,2.0
2,3.9809999465942383,learn,56019.00005340576,Fri Aug 08 2025 14:07:46 GMT-0500 (Central Daylight Time),279478.7999999523,A,fireenter,O,enter,271,1,1331.0999999046326,278147.7000000477,7183,WL,B,2.0
2,4.313999891281128,learn,55686.00010871887,Fri Aug 08 2025 14:07:46 GMT-0500 (Central Daylight Time),279812.40000009537,A,c,O,c,319,1,333.2000000476837,279479.2000000477,7183,WL,B,3.0
2,4.414999961853027,learn,55585.00003814697,Fri Aug 08 2025 14:07:46 GMT-0500 (Central Daylight Time),279912.59999990463,A,cl,O,l,77,1,433.39999985694885,279479.2000000477,7183,WL,B,3.0
2,4.613999843597412,learn,55386.00015640259,Fri Aug 08 2025 14:07:46 GMT-0500 (Central Daylight Time),280112.2999999523,A,clo,O,o,180,1,633.0999999046326,279479.2000000477,7183,WL,B,3.0
2,5.0309998989105225,learn,54969.00010108948,Fri Aug 08 2025 14:07:46 GMT-0500 (Central Daylight Time),280529.2000000477,A,cloc,O,c,398,1,1050.0,279479.2000000477,7183,WL,B,3.0
2,5.113999843597412,learn,54886.00015640259,Fri Aug 08 2025 14:07:46 GMT-0500 (Central Daylight Time),280612.0,A,clock,O,k,68,1,1132.7999999523163,279479.2000000477,7183,WL,B,3.0
2,6.062999963760376,learn,53937.000036239624,Fri Aug 08 2025 14:07:46 GMT-0500 (Central Daylight Time),281561.09999990463,A,clockenter,O,enter,936,1,2081.899999856949,279479.2000000477,7183,WL,B,3.0
2,9.245999813079834,learn,50754.000186920166,Fri Aug 08 2025 14:07:46 GMT-0500 (Central Daylight Time),284744.2999999523,A,s,O,s,3165,1,3182.7000000476837,281561.59999990463,7183,WL,B,4.0
2,9.428999900817871,learn,50571.00009918213,Fri Aug 08 2025 14:07:46 GMT-0500 (Central Daylight Time),284927.40000009537,A,st,O,t,164,1,3365.800000190735,281561.59999990463,7183,WL,B,4.0
2,9.562999963760376,learn,50437.000036239624,Fri Aug 08 2025 14:07:46 GMT-0500 (Central Daylight Time),285061.40000009537,A,sta,O,a,111,1,3499.800000190735,281561.59999990463,7183,WL,B,4.0
2,9.69599986076355,learn,50304.00013923645,Fri Aug 08 2025 14:07:46 GMT-0500 (Central Daylight Time),285194.2999999523,A,star,O,r,121,1,3632.7000000476837,281561.59999990463,7183,WL,B,4.0
2,10.095999956130981,learn,49904.00004386902,Fri Aug 08 2025 14:07:46 GMT-0500 (Central Daylight Time),285594.40000009537,A,starenter,O,enter,388,1,4032.800000190735,281561.59999990463,7183,WL,B,4.0
2,10.44599986076355,learn,49554.00013923645,Fri Aug 08 2025 14:07:46 GMT-0500 (Central Daylight Time),285944.0,A,g,O,g,332,1,349.40000009536743,285594.59999990463,7183,WL,B,5.0
2,10.645999908447266,learn,49354.000091552734,Fri Aug 08 2025 14:07:46 GMT-0500 (Central Daylight Time),286144.2999999523,A,gr,O,r,180,1,549.7000000476837,285594.59999990463,7183,WL,B,5.0
2,10.728999853134155,learn,49271.000146865845,Fri Aug 08 2025 14:07:46 GMT-0500 (Central Daylight Time),286227.5,A,gra,O,a,68,1,632.9000000953674,285594.59999990463,7183,WL,B,5.0
2,11.111999988555908,learn,48888.00001144409,Fri Aug 08 2025 14:07:46 GMT-0500 (Central Daylight Time),286610.40000009537,A,gras,O,s,361,1,1015.8000001907349,285594.59999990463,7183,WL,B,5.0
2,11.277999877929688,learn,48722.00012207031,Fri Aug 08 2025 14:07:46 GMT-0500 (Central Daylight Time),286776.59999990463,A,grass,O,s,146,1,1182.0,285594.59999990463,7183,WL,B,5.0
2,12.393999814987183,learn,47606.00018501282,Fri Aug 08 2025 14:07:46 GMT-0500 (Central Daylight Time),287892.40000009537,A,grassenter,O,enter,1100,1,2297.800000190735,285594.59999990463,7183,WL,B,5.0
2,12.994999885559082,learn,47005.00011444092,Fri Aug 08 2025 14:07:46 GMT-0500 (Central Daylight Time),288493.2000000477,A,w,O,w,586,1,600.5,287892.7000000477,7183,WL,B,6.0
2,13.111999988555908,learn,46888.00001144409,Fri Aug 08 2025 14:07:46 GMT-0500 (Central Daylight Time),288609.90000009537,A,wi,O,i,95,1,717.2000000476837,287892.7000000477,7183,WL,B,6.0
2,13.17799997329712,learn,46822.00002670288,Fri Aug 08 2025 14:07:46 GMT-0500 (Central Daylight Time),288675.59999990463,A,win,O,n,42,1,782.8999998569489,287892.7000000477,7183,WL,B,6.0
2,13.312999963760376,learn,46687.000036239624,Fri Aug 08 2025 14:07:46 GMT-0500 (Central Daylight Time),288810.7000000477,A,wind,O,d,120,1,918.0,287892.7000000477,7183,WL,B,6.0
2,13.444000005722046,learn,46555.999994277954,Fri Aug 08 2025 14:07:46 GMT-0500 (Central Daylight Time),288942.59999990463,A,windo,O,o,124,1,1049.8999998569489,287892.7000000477,7183,WL,B,6.0
2,13.644999980926514,learn,46355.000019073486,Fri Aug 08 2025 14:07:46 GMT-0500 (Central Daylight Time),289142.90000009537,A,window,O,w,191,1,1250.2000000476837,287892.7000000477,7183,WL,B,6.0
2,13.977999925613403,learn,46022.0000743866,Fri Aug 08 2025 14:07:46 GMT-0500 (Central Daylight Time),289475.90000009537,A,windowenter,O,enter,328,1,1583.2000000476837,287892.7000000477,7183,WL,B,6.0
2,14.310999870300293,learn,45689.00012969971,Fri Aug 08 2025 14:07:46 GMT-0500 (Central Daylight Time),289809.2000000477,A,d,O,d,322,1,333.0,289476.2000000477,7183,WL,B,7.0
2,14.477999925613403,learn,45522.0000743866,Fri Aug 08 2025 14:07:46 GMT-0500 (Central Daylight Time),289975.7999999523,A,do,O,o,148,1,499.59999990463257,289476.2000000477,7183,WL,B,7.0
2,14.610999822616577,learn,45389.00017738342,Fri Aug 08 2025 14:07:46 GMT-0500 (Central Daylight Time),290109.2999999523,A,doo,O,o,117,1,633.0999999046326,289476.2000000477,7183,WL,B,7.0
2,14.744999885559082,learn,45255.00011444092,Fri Aug 08 2025 14:07:46 GMT-0500 (Central Daylight Time),290243.2999999523,A,door,O,r,127,1,767.0999999046326,289476.2000000477,7183,WL,B,7.0
2,14.977999925613403,learn,45022.0000743866,Fri Aug 08 2025 14:07:46 GMT-0500 (Central Daylight Time),290476.2999999523,A,doorenter,O,enter,227,1,1000.0999999046326,289476.2000000477,7183,WL,B,7.0
2,15.760999917984009,learn,44239.00008201599,Fri Aug 08 2025 14:07:46 GMT-0500 (Central Daylight Time),291259.40000009537,A,p,O,p,762,1,782.8000001907349,290476.59999990463,7183,WL,B,8.0
2,15.91100001335144,learn,44088.99998664856,Fri Aug 08 2025 14:07:46 GMT-0500 (Central Daylight Time),291408.59999990463,A,pu,O,u,137,1,932.0,290476.59999990463,7183,WL,B,8.0
2,16.360999822616577,learn,43639.00017738342,Fri Aug 08 2025 14:07:46 GMT-0500 (Central Daylight Time),291859.5,A,pup,O,p,437,1,1382.9000000953674,290476.59999990463,7183,WL,B,8.0
2,16.55999994277954,learn,43440.00005722046,Fri Aug 08 2025 14:07:46 GMT-0500 (Central Daylight Time),292058.09999990463,A,pupi,O,i,186,1,1581.5,290476.59999990463,7183,WL,B,8.0
2,16.82799983024597,learn,43172.00016975403,Fri Aug 08 2025 14:07:46 GMT-0500 (Central Daylight Time),292325.7000000477,A,pupil,O,l,250,1,1849.1000001430511,290476.59999990463,7183,WL,B,8.0
2,17.710999965667725,learn,42289.000034332275,Fri Aug 08 2025 14:07:46 GMT-0500 (Central Daylight Time),293209.0,A,pupilenter,O,enter,863,1,2732.4000000953674,290476.59999990463,7183,WL,B,8.0
2,19.39199995994568,learn,40608.00004005432,Fri Aug 08 2025 14:07:46 GMT-0500 (Central Daylight Time),294890.40000009537,A,s,O,s,1669,1,1681.1000001430511,293209.2999999523,7183,WL,B,9.0
2,19.609999895095825,learn,40390.000104904175,Fri Aug 08 2025 14:07:46 GMT-0500 (Central Daylight Time),295108.09999990463,A,st,O,t,202,1,1898.7999999523163,293209.2999999523,7183,WL,B,9.0
2,19.80999994277954,learn,40190.00005722046,Fri Aug 08 2025 14:07:46 GMT-0500 (Central Daylight Time),295307.7999999523,A,str,O,r,186,1,2098.5,293209.2999999523,7183,WL,B,9.0
2,19.99399995803833,learn,40006.00004196167,Fri Aug 08 2025 14:07:46 GMT-0500 (Central Daylight Time),295492.2000000477,A,stre,O,e,177,1,2282.9000000953674,293209.2999999523,7183,WL,B,9.0
2,20.54199981689453,learn,39458.00018310547,Fri Aug 08 2025 14:07:46 GMT-0500 (Central Daylight Time),296040.7000000477,A,stree,O,e,538,1,2831.4000000953674,293209.2999999523,7183,WL,B,9.0
2,20.72599983215332,learn,39274.00016784668,Fri Aug 08 2025 14:07:46 GMT-0500 (Central Daylight Time),296223.7000000477,A,street,O,t,173,1,3014.4000000953674,293209.2999999523,7183,WL,B,9.0
2,20.97499990463257,learn,39025.00009536743,Fri Aug 08 2025 14:07:46 GMT-0500 (Central Daylight Time),296473.40000009537,A,streetenter,O,enter,229,1,3264.100000143051,293209.2999999523,7183,WL,B,9.0
2,27.872999906539917,learn,32127.000093460083,Fri Aug 08 2025 14:07:46 GMT-0500 (Central Daylight Time),303371.5,A,a,O,a,6886,1,6897.799999952316,296473.7000000477,7183,WL,B,10.0
2,28.090999841690063,learn,31909.000158309937,Fri Aug 08 2025 14:07:46 GMT-0500 (Central Daylight Time),303590.0,A,ar,O,r,202,1,7116.299999952316,296473.7000000477,7183,WL,B,10.0
2,28.241999864578247,learn,31758.000135421753,Fri Aug 08 2025 14:07:46 GMT-0500 (Central Daylight Time),303740.2999999523,A,arm,O,m,140,1,7266.599999904633,296473.7000000477,7183,WL,B,10.0
2,28.60599994659424,learn,31394.00005340576,Fri Aug 08 2025 14:07:46 GMT-0500 (Central Daylight Time),304104.2000000477,A,armenter,O,enter,345,1,7630.5,296473.7000000477,7183,WL,B,10.0
2,28.705999851226807,learn,31294.000148773193,Fri Aug 08 2025 14:07:46 GMT-0500 (Central Daylight Time),304204.7000000477,A,enter,O,enter,93,1,100.29999995231628,304104.40000009537,7183,WL,B,11.0
2,29.68999981880188,learn,30310.00018119812,Fri Aug 08 2025 14:07:46 GMT-0500 (Central Daylight Time),305188.2999999523,A,enter,O,enter,970,1,983.2999999523163,304205.0,7183,WL,B,12.0
2,30.139999866485596,learn,29860.000133514404,Fri Aug 08 2025 14:07:46 GMT-0500 (Central Daylight Time),305638.59999990463,A,enter,O,enter,445,1,450.09999990463257,305188.5,7183,WL,B,13.0
2,30.638999938964844,learn,29361.000061035156,Fri Aug 08 2025 14:07:46 GMT-0500 (Central Daylight Time),306137.5,A,enter,O,enter,480,1,498.59999990463257,305638.90000009537,7183,WL,B,14.0
2,32.07099986076355,learn,27929.00013923645,Fri Aug 08 2025 14:07:46 GMT-0500 (Central Daylight Time),307569.90000009537,A,enter,O,enter,1420,1,1432.1000001430511,306137.7999999523,7183,WL,B,15.0
3,0.751000165939331,learn,59248.99983406067,Fri Aug 08 2025 14:07:46 GMT-0500 (Central Daylight Time),377416.90000009537,A,c,O,c,738,1,750.2000000476837,376666.7000000477,7183,WL,B,1.0
3,0.9320001602172852,learn,59067.999839782715,Fri Aug 08 2025 14:07:46 GMT-0500 (Central Daylight Time),377598.2999999523,A,ca,O,a,175,1,931.5999999046326,376666.7000000477,7183,WL,B,1.0
3,2.0490000247955322,learn,57950.99997520447,Fri Aug 08 2025 14:07:46 GMT-0500 (Central Daylight Time),378715.0,A,cab,O,b,1108,1,2048.2999999523163,376666.7000000477,7183,WL,B,1.0
3,2.2320001125335693,learn,57767.99988746643,Fri Aug 08 2025 14:07:46 GMT-0500 (Central Daylight Time),378898.0,A,cabi,O,i,163,1,2231.2999999523163,376666.7000000477,7183,WL,B,1.0
3,2.2990000247955322,learn,57700.99997520447,Fri Aug 08 2025 14:07:46 GMT-0500 (Central Daylight Time),378964.7000000477,A,cabin,O,n,51,1,2298.0,376666.7000000477,7183,WL,B,1.0
3,3.5480000972747803,learn,56451.99990272522,Fri Aug 08 2025 14:07:46 GMT-0500 (Central Daylight Time),380213.59999990463,A,cabinenter,O,enter,1239,1,3546.899999856949,376666.7000000477,7183,WL,B,1.0
3,3.948000192642212,learn,56051.99980735779,Fri Aug 08 2025 14:07:46 GMT-0500 (Central Daylight Time),380613.7999999523,A,l,O,l,385,1,399.89999985694885,380213.90000009537,7183,WL,B,2.0
3,4.13100004196167,learn,55868.99995803833,Fri Aug 08 2025 14:07:46 GMT-0500 (Central Daylight Time),380796.7999999523,A,la,O,a,176,1,582.8999998569489,380213.90000009537,7183,WL,B,2.0
3,4.315999984741211,learn,55684.00001525879,Fri Aug 08 2025 14:07:46 GMT-0500 (Central Daylight Time),380981.59999990463,A,lak,O,k,168,1,767.6999998092651,380213.90000009537,7183,WL,B,2.0
3,4.465000152587891,learn,55534.99984741211,Fri Aug 08 2025 14:07:46 GMT-0500 (Central Daylight Time),381130.90000009537,A,lake,O,e,132,1,917.0,380213.90000009537,7183,WL,B,2.0
3,4.898000001907349,learn,55101.99999809265,Fri Aug 08 2025 14:07:46 GMT-0500 (Central Daylight Time),381563.59999990463,A,lakeenter,O,enter,409,1,1349.6999998092651,380213.90000009537,7183,WL,B,2.0
3,5.248000144958496,learn,54751.999855041504,Fri Aug 08 2025 14:07:46 GMT-0500 (Central Daylight Time),381913.7000000477,A,s,O,s,330,1,349.90000009536743,381563.7999999523,7183,WL,B,3.0
3,5.3480000495910645,learn,54651.999950408936,Fri Aug 08 2025 14:07:46 GMT-0500 (Central Daylight Time),382013.40000009537,A,sk,O,k,84,1,449.60000014305115,381563.7999999523,7183,WL,B,3.0
3,5.531000137329102,learn,54468.9998626709,Fri Aug 08 2025 14:07:46 GMT-0500 (Central Daylight Time),382197.2000000477,A,ski,O,i,167,1,633.4000000953674,381563.7999999523,7183,WL,B,3.0
3,5.682000160217285,learn,54317.999839782715,Fri Aug 08 2025 14:07:46 GMT-0500 (Central Daylight Time),382347.5,A,skin,O,n,129,1,783.7000000476837,381563.7999999523,7183,WL,B,3.0
3,5.946000099182129,learn,54053.99990081787,Fri Aug 08 2025 14:07:46 GMT-0500 (Central Daylight Time),382611.59999990463,A,skinenter,O,enter,258,1,1047.7999999523163,381563.7999999523,7183,WL,B,3.0
3,6.71399998664856,learn,53286.00001335144,Fri Aug 08 2025 14:07:46 GMT-0500 (Central Daylight Time),383380.09999990463,A,f,O,f,754,1,768.1999998092651,382611.90000009537,7183,WL,B,4.0
3,6.814000129699707,learn,53185.99987030029,Fri Aug 08 2025 14:07:46 GMT-0500 (Central Daylight Time),383479.90000009537,A,fi,O,i,90,1,868.0,382611.90000009537,7183,WL,B,4.0
3,6.948000192642212,learn,53051.99980735779,Fri Aug 08 2025 14:07:46 GMT-0500 (Central Daylight Time),383613.5,A,fir,O,r,118,1,1001.5999999046326,382611.90000009537,7183,WL,B,4.0
3,7.0970001220703125,learn,52902.99987792969,Fri Aug 08 2025 14:07:46 GMT-0500 (Central Daylight Time),383762.90000009537,A,fire,O,e,134,1,1151.0,382611.90000009537,7183,WL,B,4.0
3,8.080000162124634,learn,51919.999837875366,Fri Aug 08 2025 14:07:46 GMT-0500 (Central Daylight Time),384746.09999990463,A,fireenter,O,enter,960,1,2134.199999809265,382611.90000009537,7183,WL,B,4.0
3,9.11300015449524,learn,50886.99984550476,Fri Aug 08 2025 14:07:46 GMT-0500 (Central Daylight Time),385779.0,A,s,O,s,1020,1,1032.7999999523163,384746.2000000477,7183,WL,B,5.0
3,9.28000020980835,learn,50719.99979019165,Fri Aug 08 2025 14:07:46 GMT-0500 (Central Daylight Time),385945.90000009537,A,st,O,t,145,1,1199.7000000476837,384746.2000000477,7183,WL,B,5.0
3,9.446000099182129,learn,50553.99990081787,Fri Aug 08 2025 14:07:46 GMT-0500 (Central Daylight Time),386112.40000009537,A,sta,O,a,154,1,1366.2000000476837,384746.2000000477,7183,WL,B,5.0
3,9.580000162124634,learn,50419.999837875366,Fri Aug 08 2025 14:07:46 GMT-0500 (Central Daylight Time),386246.2999999523,A,star,O,r,116,1,1500.0999999046326,384746.2000000477,7183,WL,B,5.0
3,10.146000146865845,learn,49853.999853134155,Fri Aug 08 2025 14:07:46 GMT-0500 (Central Daylight Time),386811.90000009537,A,starenter,O,enter,551,1,2065.7000000476837,384746.2000000477,7183,WL,B,5.0
3,10.480000019073486,learn,49519.999980926514,Fri Aug 08 2025 14:07:46 GMT-0500 (Central Daylight Time),387145.59999990463,A,c,O,c,322,1,333.39999985694885,386812.2000000477,7183,WL,B,6.0
3,10.611999988555908,learn,49388.00001144409,Fri Aug 08 2025 14:07:46 GMT-0500 (Central Daylight Time),387277.7999999523,A,cl,O,l,116,1,465.59999990463257,386812.2000000477,7183,WL,B,6.0
3,10.779000043869019,learn,49220.99995613098,Fri Aug 08 2025 14:07:46 GMT-0500 (Central Daylight Time),387445.0,A,clo,O,o,144,1,632.7999999523163,386812.2000000477,7183,WL,B,6.0
3,10.980000019073486,learn,49019.999980926514,Fri Aug 08 2025 14:07:46 GMT-0500 (Central Daylight Time),387645.40000009537,A,cloc,O,c,184,1,833.2000000476837,386812.2000000477,7183,WL,B,6.0
3,11.078999996185303,learn,48921.0000038147,Fri Aug 08 2025 14:07:46 GMT-0500 (Central Daylight Time),387745.0,A,clock,O,k,80,1,932.7999999523163,386812.2000000477,7183,WL,B,6.0
3,11.361999988555908,learn,48638.00001144409,Fri Aug 08 2025 14:07:46 GMT-0500 (Central Daylight Time),388028.2000000477,A,clockenter,O,enter,276,1,1216.0,386812.2000000477,7183,WL,B,6.0
3,13.562000036239624,learn,46437.999963760376,Fri Aug 08 2025 14:07:46 GMT-0500 (Central Daylight Time),390227.40000009537,A,s,O,s,2186,1,2198.9000000953674,388028.5,7183,WL,B,7.0
3,13.74400019645691,learn,46255.99980354309,Fri Aug 08 2025 14:07:46 GMT-0500 (Central Daylight Time),390410.09999990463,A,st,O,t,170,1,2381.5999999046326,388028.5,7183,WL,B,7.0
3,13.930999994277954,learn,46069.000005722046,Fri Aug 08 2025 14:07:46 GMT-0500 (Central Daylight Time),390597.0,A,str,O,r,181,1,2568.5,388028.5,7183,WL,B,7.0
3,14.17900013923645,learn,45820.99986076355,Fri Aug 08 2025 14:07:46 GMT-0500 (Central Daylight Time),390844.59999990463,A,stre,O,e,234,1,2816.0999999046326,388028.5,7183,WL,B,7.0
3,14.311000108718872,learn,45688.99989128113,Fri Aug 08 2025 14:07:46 GMT-0500 (Central Daylight Time),390977.5,A,stree,O,e,112,1,2949.0,388028.5,7183,WL,B,7.0
3,14.644999980926514,learn,45355.000019073486,Fri Aug 08 2025 14:07:46 GMT-0500 (Central Daylight Time),391310.59999990463,A,street,O,t,317,1,3282.0999999046326,388028.5,7183,WL,B,7.0
3,14.878000020980835,learn,45121.999979019165,Fri Aug 08 2025 14:07:46 GMT-0500 (Central Daylight Time),391543.7999999523,A,streetenter,O,enter,222,1,3515.2999999523163,388028.5,7183,WL,B,7.0
3,15.946000099182129,learn,44053.99990081787,Fri Aug 08 2025 14:07:46 GMT-0500 (Central Daylight Time),392612.0,A,g,O,g,1064,1,1067.9000000953674,391544.09999990463,7183,WL,B,8.0
3,16.177000045776367,learn,43822.99995422363,Fri Aug 08 2025 14:07:46 GMT-0500 (Central Daylight Time),392843.09999990463,A,gr,O,r,225,1,1299.0,391544.09999990463,7183,WL,B,8.0
3,16.62600016593933,learn,43373.99983406067,Fri Aug 08 2025 14:07:46 GMT-0500 (Central Daylight Time),393291.5,A,gra,O,a,434,1,1747.4000000953674,391544.09999990463,7183,WL,B,8.0
3,16.91000008583069,learn,43089.99991416931,Fri Aug 08 2025 14:07:46 GMT-0500 (Central Daylight Time),393575.59999990463,A,gras,O,s,268,1,2031.5,391544.09999990463,7183,WL,B,8.0
3,17.07800006866455,learn,42921.99993133545,Fri Aug 08 2025 14:07:46 GMT-0500 (Central Daylight Time),393743.59999990463,A,grass,O,s,149,1,2199.5,391544.09999990463,7183,WL,B,8.0
3,18.47699999809265,learn,41523.00000190735,Fri Aug 08 2025 14:07:46 GMT-0500 (Central Daylight Time),395142.59999990463,A,grassenter,O,enter,1380,1,3598.5,391544.09999990463,7183,WL,B,8.0
3,20.360000133514404,learn,39639.999866485596,Fri Aug 08 2025 14:07:46 GMT-0500 (Central Daylight Time),397025.7000000477,A,c,O,c,1872,1,1882.9000000953674,395142.7999999523,7183,WL,B,9.0
3,20.493000030517578,learn,39506.99996948242,Fri Aug 08 2025 14:07:46 GMT-0500 (Central Daylight Time),397159.2000000477,A,ci,O,i,109,1,2016.4000000953674,395142.7999999523,7183,WL,B,9.0
3,20.611000061035156,learn,39388.999938964844,Fri Aug 08 2025 14:07:46 GMT-0500 (Central Daylight Time),397277.2000000477,A,cit,O,t,102,1,2134.4000000953674,395142.7999999523,7183,WL,B,9.0
3,20.70800018310547,learn,39291.99981689453,Fri Aug 08 2025 14:07:46 GMT-0500 (Central Daylight Time),397374.40000009537,A,city,O,y,84,1,2231.600000143051,395142.7999999523,7183,WL,B,9.0
3,20.975000143051147,learn,39024.99985694885,Fri Aug 08 2025 14:07:46 GMT-0500 (Central Daylight Time),397640.7999999523,A,cityenter,O,enter,246,1,2498.0,395142.7999999523,7183,WL,B,9.0
3,21.259999990463257,learn,38740.00000953674,Fri Aug 08 2025 14:07:46 GMT-0500 (Central Daylight Time),397926.2999999523,A,a,O,a,263,1,285.09999990463257,397641.2000000477,7183,WL,B,10.0
3,21.342000007629395,learn,38657.999992370605,Fri Aug 08 2025 14:07:46 GMT-0500 (Central Daylight Time),398008.09999990463,A,ar,O,r,64,1,366.89999985694885,397641.2000000477,7183,WL,B,10.0
3,21.425000190734863,learn,38574.99980926514,Fri Aug 08 2025 14:07:46 GMT-0500 (Central Daylight Time),398091.2999999523,A,are,O,e,65,1,450.09999990463257,397641.2000000477,7183,WL,B,10.0
3,21.54200005531311,learn,38457.99994468689,Fri Aug 08 2025 14:07:46 GMT-0500 (Central Daylight Time),398208.2000000477,A,arem,O,m,105,1,567.0,397641.2000000477,7183,WL,B,10.0
3,22.30900001525879,learn,37690.99998474121,Fri Aug 08 2025 14:07:46 GMT-0500 (Central Daylight Time),398975.09999990463,A,are,O,backspace,755,1,1333.8999998569489,397641.2000000477,7183,WL,B,10.0
3,22.460000038146973,learn,37539.99996185303,Fri Aug 08 2025 14:07:46 GMT-0500 (Central Daylight Time),399125.5,A,ar,O,backspace,134,1,1484.2999999523163,397641.2000000477,7183,WL,B,10.0
3,22.707000017166138,learn,37292.99998283386,Fri Aug 08 2025 14:07:46 GMT-0500 (Central Daylight Time),399373.2999999523,A,arm,O,m,231,1,1732.0999999046326,397641.2000000477,7183,WL,B,10.0
3,22.975000143051147,learn,37024.99985694885,Fri Aug 08 2025 14:07:46 GMT-0500 (Central Daylight Time),399640.2999999523,A,armenter,O,enter,257,1,1999.0999999046326,397641.2000000477,7183,WL,B,10.0
3,26.642000198364258,learn,33357.99980163574,Fri Aug 08 2025 14:07:46 GMT-0500 (Central Daylight Time),403307.7999999523,A,w,O,w,3654,1,3667.2000000476837,399640.59999990463,7183,WL,B,11.0
3,26.741000175476074,learn,33258.999824523926,Fri Aug 08 2025 14:07:46 GMT-0500 (Central Daylight Time),403406.7000000477,A,wi,O,i,82,1,3766.100000143051,399640.59999990463,7183,WL,B,11.0
3,26.92300009727478,learn,33076.99990272522,Fri Aug 08 2025 14:07:46 GMT-0500 (Central Daylight Time),403588.5,A,wif,O,f,167,1,3947.9000000953674,399640.59999990463,7183,WL,B,11.0
3,27.04100012779236,learn,32958.99987220764,Fri Aug 08 2025 14:07:46 GMT-0500 (Central Daylight Time),403707.40000009537,A,wife,O,e,97,1,4066.800000190735,399640.59999990463,7183,WL,B,11.0
3,27.34000015258789,learn,32659.99984741211,Fri Aug 08 2025 14:07:46 GMT-0500 (Central Daylight Time),404005.59999990463,A,wifeenter,O,enter,293,1,4365.0,399640.59999990463,7183,WL,B,11.0
3,28.491000175476074,learn,31508.999824523926,Fri Aug 08 2025 14:07:46 GMT-0500 (Central Daylight Time),405156.59999990463,A,c,O,c,1145,1,1150.7999999523163,404005.7999999523,7183,WL,B,12.0
3,28.59000015258789,learn,31409.99984741211,Fri Aug 08 2025 14:07:46 GMT-0500 (Central Daylight Time),405256.2999999523,A,ci,O,i,90,1,1250.5,404005.7999999523,7183,WL,B,12.0
3,28.75600004196167,learn,31243.99995803833,Fri Aug 08 2025 14:07:46 GMT-0500 (Central Daylight Time),405422.09999990463,A,cit,O,t,148,1,1416.2999999523163,404005.7999999523,7183,WL,B,12.0
3,28.84000015258789,learn,31159.99984741211,Fri Aug 08 2025 14:07:46 GMT-0500 (Central Daylight Time),405505.90000009537,A,city,O,y,72,1,1500.1000001430511,404005.7999999523,7183,WL,B,12.0
3,29.106000185012817,learn,30893.999814987183,Fri Aug 08 2025 14:07:46 GMT-0500 (Central Daylight Time),405771.90000009537,A,cityenter,O,enter,250,1,1766.1000001430511,404005.7999999523,7183,WL,B,12.0
3,32.98800015449524,learn,27011.99984550476,Fri Aug 08 2025 14:07:46 GMT-0500 (Central Daylight Time),409653.5,A,enter,O,enter,3868,1,3881.4000000953674,405772.09999990463,7183,WL,B,13.0
3,33.38800001144409,learn,26611.99998855591,Fri Aug 08 2025 14:07:46 GMT-0500 (Central Daylight Time),410053.40000009537,A,enter,O,enter,384,1,399.5,409653.90000009537,7183,WL,B,14.0
3,34.2039999961853,learn,25796.000003814697,Fri Aug 08 2025 14:07:46 GMT-0500 (Central Daylight Time),410870.0,A,enter,O,enter,800,1,816.2999999523163,410053.7000000477,7183,WL,B,15.0
4,1.6340000629425049,learn,58365.999937057495,Fri Aug 08 2025 14:07:46 GMT-0500 (Central Daylight Time),478300.40000009537,A,c,O,c,1611,1,1633.3000001907349,476667.09999990463,7183,WL,B,1.0
4,1.698000192642212,learn,58301.99980735779,Fri Aug 08 2025 14:07:46 GMT-0500 (Central Daylight Time),478364.90000009537,A,cl,O,l,56,1,1697.8000001907349,476667.09999990463,7183,WL,B,1.0
4,2.117000102996826,learn,57882.999897003174,Fri Aug 08 2025 14:07:46 GMT-0500 (Central Daylight Time),478783.2000000477,A,clo,O,o,399,1,2116.100000143051,476667.09999990463,7183,WL,B,1.0
4,3.4660000801086426,learn,56533.99991989136,Fri Aug 08 2025 14:07:46 GMT-0500 (Central Daylight Time),480133.0,A,cloc,O,c,1343,1,3465.9000000953674,476667.09999990463,7183,WL,B,1.0
4,3.565999984741211,learn,56434.00001525879,Fri Aug 08 2025 14:07:46 GMT-0500 (Central Daylight Time),480232.2999999523,A,clock,O,k,78,1,3565.2000000476837,476667.09999990463,7183,WL,B,1.0
4,3.8340001106262207,learn,56165.99988937378,Fri Aug 08 2025 14:07:46 GMT-0500 (Central Daylight Time),480500.2999999523,A,clockenter,O,enter,261,1,3833.2000000476837,476667.09999990463,7183,WL,B,1.0
4,4.0980000495910645,learn,55901.999950408936,Fri Aug 08 2025 14:07:46 GMT-0500 (Central Daylight Time),480764.40000009537,A,f,O,f,251,1,263.90000009536743,480500.5,7183,WL,B,2.0
4,4.199000120162964,learn,55800.999879837036,Fri Aug 08 2025 14:07:46 GMT-0500 (Central Daylight Time),480865.7000000477,A,fi,O,i,79,1,365.2000000476837,480500.5,7183,WL,B,2.0
4,4.38100004196167,learn,55618.99995803833,Fri Aug 08 2025 14:07:46 GMT-0500 (Central Daylight Time),481047.40000009537,A,fir,O,r,170,1,546.9000000953674,480500.5,7183,WL,B,2.0
4,4.465000152587891,learn,55534.99984741211,Fri Aug 08 2025 14:07:46 GMT-0500 (Central Daylight Time),481131.90000009537,A,fire,O,e,69,1,631.4000000953674,480500.5,7183,WL,B,2.0
4,4.815000057220459,learn,55184.99994277954,Fri Aug 08 2025 14:07:46 GMT-0500 (Central Daylight Time),481481.7999999523,A,fireenter,O,enter,329,1,981.2999999523163,480500.5,7183,WL,B,2.0
4,5.1650002002716064,learn,54834.99979972839,Fri Aug 08 2025 14:07:46 GMT-0500 (Central Daylight Time),481831.7999999523,A,l,O,l,332,1,349.7000000476837,481482.09999990463,7183,WL,B,3.0
4,5.315000057220459,learn,54684.99994277954,Fri Aug 08 2025 14:07:46 GMT-0500 (Central Daylight Time),481981.5,A,la,O,a,133,1,499.40000009536743,481482.09999990463,7183,WL,B,3.0
4,5.5980000495910645,learn,54401.999950408936,Fri Aug 08 2025 14:07:46 GMT-0500 (Central Daylight Time),482264.7999999523,A,lak,O,k,264,1,782.7000000476837,481482.09999990463,7183,WL,B,3.0
4,5.781000137329102,learn,54218.9998626709,Fri Aug 08 2025 14:07:46 GMT-0500 (Central Daylight Time),482447.2999999523,A,lake,O,e,171,1,965.2000000476837,481482.09999990463,7183,WL,B,3.0
4,6.098999977111816,learn,53901.00002288818,Fri Aug 08 2025 14:07:46 GMT-0500 (Central Daylight Time),482765.59999990463,A,lakeenter,O,enter,312,1,1283.5,481482.09999990463,7183,WL,B,3.0
4,6.433000087738037,learn,53566.99991226196,Fri Aug 08 2025 14:07:46 GMT-0500 (Central Daylight Time),483099.40000009537,A,w,O,w,329,1,333.60000014305115,482765.7999999523,7183,WL,B,4.0
4,6.580000162124634,learn,53419.999837875366,Fri Aug 08 2025 14:07:46 GMT-0500 (Central Daylight Time),483246.90000009537,A,wi,O,i,139,1,481.10000014305115,482765.7999999523,7183,WL,B,4.0
4,6.698000192642212,learn,53301.99980735779,Fri Aug 08 2025 14:07:46 GMT-0500 (Central Daylight Time),483364.7000000477,A,wif,O,f,112,1,598.9000000953674,482765.7999999523,7183,WL,B,4.0
4,6.832000017166138,learn,53167.99998283386,Fri Aug 08 2025 14:07:46 GMT-0500 (Central Daylight Time),483498.90000009537,A,wife,O,e,127,1,733.1000001430511,482765.7999999523,7183,WL,B,4.0
4,7.063000202178955,learn,52936.999797821045,Fri Aug 08 2025 14:07:46 GMT-0500 (Central Daylight Time),483729.90000009537,A,wifeenter,O,enter,220,1,964.1000001430511,482765.7999999523,7183,WL,B,4.0
4,8.76200008392334,learn,51237.99991607666,Fri Aug 08 2025 14:07:46 GMT-0500 (Central Daylight Time),485429.09999990463,A,s,O,s,1683,1,1698.8999998569489,483730.2000000477,7183,WL,B,5.0
4,8.92900013923645,learn,51070.99986076355,Fri Aug 08 2025 14:07:46 GMT-0500 (Central Daylight Time),485595.2000000477,A,st,O,t,147,1,1865.0,483730.2000000477,7183,WL,B,5.0
4,9.111000061035156,learn,50888.999938964844,Fri Aug 08 2025 14:07:46 GMT-0500 (Central Daylight Time),485777.7000000477,A,str,O,r,172,1,2047.5,483730.2000000477,7183,WL,B,5.0
4,9.445000171661377,learn,50554.99982833862,Fri Aug 08 2025 14:07:46 GMT-0500 (Central Daylight Time),486112.0,A,stre,O,e,317,1,2381.7999999523163,483730.2000000477,7183,WL,B,5.0
4,9.59500002861023,learn,50404.99997138977,Fri Aug 08 2025 14:07:46 GMT-0500 (Central Daylight Time),486261.7000000477,A,stree,O,e,135,1,2531.5,483730.2000000477,7183,WL,B,5.0
4,9.71399998664856,learn,50286.00001335144,Fri Aug 08 2025 14:07:46 GMT-0500 (Central Daylight Time),486380.7000000477,A,street,O,t,115,1,2650.5,483730.2000000477,7183,WL,B,5.0
4,9.896000146865845,learn,50103.999853134155,Fri Aug 08 2025 14:07:46 GMT-0500 (Central Daylight Time),486562.7999999523,A,streetenter,O,enter,169,1,2832.5999999046326,483730.2000000477,7183,WL,B,5.0
4,10.163000106811523,learn,49836.99989318848,Fri Aug 08 2025 14:07:46 GMT-0500 (Central Daylight Time),486829.40000009537,A,g,O,g,252,1,266.30000019073486,486563.09999990463,7183,WL,B,6.0
4,10.361999988555908,learn,49638.00001144409,Fri Aug 08 2025 14:07:46 GMT-0500 (Central Daylight Time),487029.09999990463,A,gr,O,r,184,1,466.0,486563.09999990463,7183,WL,B,6.0
4,10.44700002670288,learn,49552.99997329712,Fri Aug 08 2025 14:07:46 GMT-0500 (Central Daylight Time),487113.7000000477,A,gra,O,a,62,1,550.6000001430511,486563.09999990463,7183,WL,B,6.0
4,10.813000202178955,learn,49186.999797821045,Fri Aug 08 2025 14:07:46 GMT-0500 (Central Daylight Time),487479.5,A,gras,O,s,346,1,916.4000000953674,486563.09999990463,7183,WL,B,6.0
4,10.979000091552734,learn,49020.999908447266,Fri Aug 08 2025 14:07:46 GMT-0500 (Central Daylight Time),487645.7999999523,A,grass,O,s,150,1,1082.7000000476837,486563.09999990463,7183,WL,B,6.0
4,12.246000051498413,learn,47753.99994850159,Fri Aug 08 2025 14:07:46 GMT-0500 (Central Daylight Time),488912.59999990463,A,grassenter,O,enter,1255,1,2349.5,486563.09999990463,7183,WL,B,6.0
4,13.045000076293945,learn,46954.999923706055,Fri Aug 08 2025 14:07:46 GMT-0500 (Central Daylight Time),489712.2000000477,A,d,O,d,790,1,799.2000000476837,488913.0,7183,WL,B,7.0
4,13.212000131607056,learn,46787.999868392944,Fri Aug 08 2025 14:07:46 GMT-0500 (Central Daylight Time),489878.2999999523,A,do,O,o,162,1,965.2999999523163,488913.0,7183,WL,B,7.0
4,13.330000162124634,learn,46669.999837875366,Fri Aug 08 2025 14:07:46 GMT-0500 (Central Daylight Time),489996.7000000477,A,doo,O,o,113,1,1083.7000000476837,488913.0,7183,WL,B,7.0
4,13.546000003814697,learn,46453.9999961853,Fri Aug 08 2025 14:07:46 GMT-0500 (Central Daylight Time),490212.2999999523,A,door,O,r,207,1,1299.2999999523163,488913.0,7183,WL,B,7.0
4,13.778000116348267,learn,46221.99988365173,Fri Aug 08 2025 14:07:46 GMT-0500 (Central Daylight Time),490444.5,A,doorenter,O,enter,223,1,1531.5,488913.0,7183,WL,B,7.0
4,14.26200008392334,learn,45737.99991607666,Fri Aug 08 2025 14:07:46 GMT-0500 (Central Daylight Time),490929.0,A,a,O,a,466,1,484.09999990463257,490444.90000009537,7183,WL,B,8.0
4,14.36300015449524,learn,45636.99984550476,Fri Aug 08 2025 14:07:46 GMT-0500 (Central Daylight Time),491029.40000009537,A,ar,O,r,93,1,584.5,490444.90000009537,7183,WL,B,8.0
4,14.495000123977661,learn,45504.99987602234,Fri Aug 08 2025 14:07:46 GMT-0500 (Central Daylight Time),491162.0,A,arm,O,m,119,1,717.0999999046326,490444.90000009537,7183,WL,B,8.0
4,14.89300012588501,learn,45106.99987411499,Fri Aug 08 2025 14:07:46 GMT-0500 (Central Daylight Time),491560.0,A,armenter,O,enter,376,1,1115.0999999046326,490444.90000009537,7183,WL,B,8.0
4,17.06000018119812,learn,42939.99981880188,Fri Aug 08 2025 14:07:46 GMT-0500 (Central Daylight Time),493726.59999990463,A,w,O,w,2158,1,2166.399999856949,491560.2000000477,7183,WL,B,9.0
4,17.14300012588501,learn,42856.99987411499,Fri Aug 08 2025 14:07:46 GMT-0500 (Central Daylight Time),493809.5,A,wi,O,i,64,1,2249.2999999523163,491560.2000000477,7183,WL,B,9.0
4,17.22699999809265,learn,42773.00000190735,Fri Aug 08 2025 14:07:46 GMT-0500 (Central Daylight Time),493893.2000000477,A,win,O,n,69,1,2333.0,491560.2000000477,7183,WL,B,9.0
4,17.360000133514404,learn,42639.999866485596,Fri Aug 08 2025 14:07:46 GMT-0500 (Central Daylight Time),494026.2000000477,A,wind,O,d,122,1,2466.0,491560.2000000477,7183,WL,B,9.0
4,17.479000091552734,learn,42520.999908447266,Fri Aug 08 2025 14:07:46 GMT-0500 (Central Daylight Time),494145.2999999523,A,windo,O,o,100,1,2585.0999999046326,491560.2000000477,7183,WL,B,9.0
4,17.627000093460083,learn,42372.99990653992,Fri Aug 08 2025 14:07:46 GMT-0500 (Central Daylight Time),494294.0,A,window,O,w,142,1,2733.7999999523163,491560.2000000477,7183,WL,B,9.0
4,17.794000148773193,learn,42205.99985122681,Fri Aug 08 2025 14:07:46 GMT-0500 (Central Daylight Time),494460.2999999523,A,windowenter,O,enter,151,1,2900.0999999046326,491560.2000000477,7183,WL,B,9.0
4,18.110000133514404,learn,41889.999866485596,Fri Aug 08 2025 14:07:46 GMT-0500 (Central Daylight Time),494776.7000000477,A,f,O,f,298,1,316.0,494460.7000000477,7183,WL,B,10.0
4,18.194000005722046,learn,41805.999994277954,Fri Aug 08 2025 14:07:46 GMT-0500 (Central Daylight Time),494860.7000000477,A,fi,O,i,69,1,400.0,494460.7000000477,7183,WL,B,10.0
4,18.32800006866455,learn,41671.99993133545,Fri Aug 08 2025 14:07:46 GMT-0500 (Central Daylight Time),494994.59999990463,A,fir,O,r,111,1,533.8999998569489,494460.7000000477,7183,WL,B,10.0
4,18.443000078201294,learn,41556.999921798706,Fri Aug 08 2025 14:07:46 GMT-0500 (Central Daylight Time),495109.90000009537,A,fire,O,e,94,1,649.2000000476837,494460.7000000477,7183,WL,B,10.0
4,18.627000093460083,learn,41372.99990653992,Fri Aug 08 2025 14:07:46 GMT-0500 (Central Daylight Time),495293.7999999523,A,fireenter,O,enter,159,1,833.0999999046326,494460.7000000477,7183,WL,B,10.0
4,20.794000148773193,learn,39205.99985122681,Fri Aug 08 2025 14:07:46 GMT-0500 (Central Daylight Time),497460.7000000477,A,c,O,c,2147,1,2166.7000000476837,495294.0,7183,WL,B,11.0
4,20.89300012588501,learn,39106.99987411499,Fri Aug 08 2025 14:07:46 GMT-0500 (Central Daylight Time),497559.2999999523,A,ci,O,i,80,1,2265.2999999523163,495294.0,7183,WL,B,11.0
4,21.042999982833862,learn,38957.00001716614,Fri Aug 08 2025 14:07:46 GMT-0500 (Central Daylight Time),497709.7999999523,A,cit,O,t,136,1,2415.7999999523163,495294.0,7183,WL,B,11.0
4,21.111000061035156,learn,38888.999938964844,Fri Aug 08 2025 14:07:46 GMT-0500 (Central Daylight Time),497778.09999990463,A,city,O,y,46,1,2484.0999999046326,495294.0,7183,WL,B,11.0
4,21.34500002861023,learn,38654.99997138977,Fri Aug 08 2025 14:07:46 GMT-0500 (Central Daylight Time),498011.40000009537,A,cityenter,O,enter,227,1,2717.4000000953674,495294.0,7183,WL,B,11.0
4,22.710000038146973,learn,37289.99996185303,Fri Aug 08 2025 14:07:46 GMT-0500 (Central Daylight Time),499376.5,A,p,O,p,1348,1,1364.7000000476837,498011.7999999523,7183,WL,B,12.0
4,22.860000133514404,learn,37139.999866485596,Fri Aug 08 2025 14:07:46 GMT-0500 (Central Daylight Time),499526.7000000477,A,pu,O,u,133,1,1514.9000000953674,498011.7999999523,7183,WL,B,12.0
4,24.05900001525879,learn,35940.99998474121,Fri Aug 08 2025 14:07:46 GMT-0500 (Central Daylight Time),500725.7000000477,A,pup,O,p,1181,1,2713.9000000953674,498011.7999999523,7183,WL,B,12.0
4,24.359000205993652,learn,35640.99979400635,Fri Aug 08 2025 14:07:46 GMT-0500 (Central Daylight Time),501025.5,A,pupi,O,i,280,1,3013.7000000476837,498011.7999999523,7183,WL,B,12.0
4,24.52500009536743,learn,35474.99990463257,Fri Aug 08 2025 14:07:46 GMT-0500 (Central Daylight Time),501191.59999990463,A,pupil,O,l,156,1,3179.7999999523163,498011.7999999523,7183,WL,B,12.0
4,25.05900001525879,learn,34940.99998474121,Fri Aug 08 2025 14:07:46 GMT-0500 (Central Daylight Time),501725.40000009537,A,pupilenter,O,enter,518,1,3713.600000143051,498011.7999999523,7183,WL,B,12.0
4,33.290000200271606,learn,26709.999799728394,Fri Aug 08 2025 14:07:46 GMT-0500 (Central Daylight Time),509956.7000000477,A,enter,O,enter,8227,1,8231.100000143051,501725.59999990463,7183,WL,B,13.0
4,34.10600018501282,learn,25893.999814987183,Fri Aug 08 2025 14:07:46 GMT-0500 (Central Daylight Time),510772.90000009537,A,enter,O,enter,810,1,815.9000000953674,509957.0,7183,WL,B,14.0
4,34.555999994277954,learn,25444.000005722046,Fri Aug 08 2025 14:07:46 GMT-0500 (Central Daylight Time),511222.2000000477,A,enter,O,enter,433,1,449.0,510773.2000000477,7183,WL,B,15.0
5,1.0500001907348633,learn,60000.0,Fri Aug 08 2025 14:07:46 GMT-0500 (Central Daylight Time),579250.0,A,c,O,c,1031,1,1049.7000000476837,578200.2999999523,7183,WL,B,1.0
5,1.383000135421753,learn,60000.0,Fri Aug 08 2025 14:07:46 GMT-0500 (Central Daylight Time),579583.5,A,ca,O,a,323,1,1383.2000000476837,578200.2999999523,7183,WL,B,1.0
5,1.6679999828338623,learn,60000.0,Fri Aug 08 2025 14:07:46 GMT-0500 (Central Daylight Time),579867.7000000477,A,cab,O,b,270,1,1667.4000000953674,578200.2999999523,7183,WL,B,1.0
5,1.7660000324249268,learn,60000.0,Fri Aug 08 2025 14:07:46 GMT-0500 (Central Daylight Time),579966.2999999523,A,cabi,O,i,90,1,1766.0,578200.2999999523,7183,WL,B,1.0
5,1.8490002155303955,learn,60000.0,Fri Aug 08 2025 14:07:46 GMT-0500 (Central Daylight Time),580048.5999999046,A,cabin,O,n,72,1,1848.2999999523163,578200.2999999523,7183,WL,B,1.0
5,2.2170000076293945,learn,60000.0,Fri Aug 08 2025 14:07:46 GMT-0500 (Central Daylight Time),580417.4000000954,A,cabinenter,O,enter,349,1,2217.100000143051,578200.2999999523,7183,WL,B,1.0
5,2.6500000953674316,learn,60000.0,Fri Aug 08 2025 14:07:46 GMT-0500 (Central Daylight Time),580850.5999999046,A,l,O,l,412,1,433.0,580417.5999999046,7183,WL,B,2.0
5,2.7990000247955322,learn,60000.0,Fri Aug 08 2025 14:07:46 GMT-0500 (Central Daylight Time),580999.2999999523,A,la,O,a,138,1,581.7000000476837,580417.5999999046,7183,WL,B,2.0
5,2.93500018119812,learn,60000.0,Fri Aug 08 2025 14:07:46 GMT-0500 (Central Daylight Time),581135.0,A,lak,O,k,131,1,717.4000000953674,580417.5999999046,7183,WL,B,2.0
5,3.1490001678466797,learn,60000.0,Fri Aug 08 2025 14:07:46 GMT-0500 (Central Daylight Time),581348.9000000954,A,lake,O,e,199,1,931.3000001907349,580417.5999999046,7183,WL,B,2.0
5,3.4160001277923584,learn,60000.0,Fri Aug 08 2025 14:07:46 GMT-0500 (Central Daylight Time),581616.0999999046,A,lakeenter,O,enter,249,1,1198.5,580417.5999999046,7183,WL,B,2.0
5,4.583000183105469,learn,60000.0,Fri Aug 08 2025 14:07:46 GMT-0500 (Central Daylight Time),582783.5,A,f,O,f,1158,1,1167.2000000476837,581616.2999999523,7183,WL,B,3.0
5,4.701000213623047,learn,60000.0,Fri Aug 08 2025 14:07:46 GMT-0500 (Central Daylight Time),582901.2999999523,A,fi,O,i,98,1,1285.0,581616.2999999523,7183,WL,B,3.0
5,4.832000017166138,learn,60000.0,Fri Aug 08 2025 14:07:46 GMT-0500 (Central Daylight Time),583032.5,A,fir,O,r,111,1,1416.2000000476837,581616.2999999523,7183,WL,B,3.0
5,4.932000160217285,learn,60000.0,Fri Aug 08 2025 14:07:46 GMT-0500 (Central Daylight Time),583132.5999999046,A,fire,O,e,93,1,1516.2999999523163,581616.2999999523,7183,WL,B,3.0
5,5.216000080108643,learn,60000.0,Fri Aug 08 2025 14:07:46 GMT-0500 (Central Daylight Time),583415.7000000477,A,fireenter,O,enter,272,1,1799.4000000953674,581616.2999999523,7183,WL,B,3.0
5,5.632000207901001,learn,60000.0,Fri Aug 08 2025 14:07:46 GMT-0500 (Central Daylight Time),583832.0999999046,A,s,O,s,407,1,416.09999990463257,583416.0,7183,WL,B,4.0
5,5.732000112533569,learn,60000.0,Fri Aug 08 2025 14:07:46 GMT-0500 (Central Daylight Time),583932.2000000477,A,sk,O,k,86,1,516.2000000476837,583416.0,7183,WL,B,4.0
5,5.948000192642212,learn,60000.0,Fri Aug 08 2025 14:07:46 GMT-0500 (Central Daylight Time),584148.2999999523,A,ski,O,i,202,1,732.2999999523163,583416.0,7183,WL,B,4.0
5,6.133000135421753,learn,60000.0,Fri Aug 08 2025 14:07:46 GMT-0500 (Central Daylight Time),584332.7000000477,A,skin,O,n,179,1,916.7000000476837,583416.0,7183,WL,B,4.0
5,6.416000127792358,learn,60000.0,Fri Aug 08 2025 14:07:46 GMT-0500 (Central Daylight Time),584615.7000000477,A,skinenter,O,enter,265,1,1199.7000000476837,583416.0,7183,WL,B,4.0
5,7.265000104904175,learn,60000.0,Fri Aug 08 2025 14:07:46 GMT-0500 (Central Daylight Time),585465.5,A,p,O,p,830,1,849.5999999046326,584615.9000000954,7183,WL,B,5.0
5,7.516000032424927,learn,60000.0,Fri Aug 08 2025 14:07:46 GMT-0500 (Central Daylight Time),585716.0,A,pi,O,i,242,1,1100.0999999046326,584615.9000000954,7183,WL,B,5.0
5,7.732000112533569,learn,60000.0,Fri Aug 08 2025 14:07:46 GMT-0500 (Central Daylight Time),585932.4000000954,A,pip,O,p,211,1,1316.5,584615.9000000954,7183,WL,B,5.0
5,8.665000200271606,learn,60000.0,Fri Aug 08 2025 14:07:46 GMT-0500 (Central Daylight Time),586864.9000000954,A,pipe,O,e,920,1,2249.0,584615.9000000954,7183,WL,B,5.0
5,8.997000217437744,learn,60000.0,Fri Aug 08 2025 14:07:46 GMT-0500 (Central Daylight Time),587197.2000000477,A,pipeenter,O,enter,317,1,2581.2999999523163,584615.9000000954,7183,WL,B,5.0
5,9.365000009536743,learn,60000.0,Fri Aug 08 2025 14:07:46 GMT-0500 (Central Daylight Time),587564.9000000954,A,c,O,c,363,1,367.5,587197.4000000954,7183,WL,B,6.0
5,9.480000019073486,learn,60000.0,Fri Aug 08 2025 14:07:46 GMT-0500 (Central Daylight Time),587680.0999999046,A,cl,O,l,94,1,482.69999980926514,587197.4000000954,7183,WL,B,6.0
5,9.796000003814697,learn,60000.0,Fri Aug 08 2025 14:07:46 GMT-0500 (Central Daylight Time),587996.2000000477,A,clo,O,o,299,1,798.7999999523163,587197.4000000954,7183,WL,B,6.0
5,10.133000135421753,learn,60000.0,Fri Aug 08 2025 14:07:46 GMT-0500 (Central Daylight Time),588333.0999999046,A,cloc,O,c,314,1,1135.6999998092651,587197.4000000954,7183,WL,B,6.0
5,10.19700002670288,learn,60000.0,Fri Aug 08 2025 14:07:46 GMT-0500 (Central Daylight Time),588396.9000000954,A,clock,O,k,58,1,1199.5,587197.4000000954,7183,WL,B,6.0
5,10.513000011444092,learn,60000.0,Fri Aug 08 2025 14:07:46 GMT-0500 (Central Daylight Time),588712.9000000954,A,clockenter,O,enter,294,1,1515.5,587197.4000000954,7183,WL,B,6.0
5,12.696000099182129,learn,60000.0,Fri Aug 08 2025 14:07:46 GMT-0500 (Central Daylight Time),590896.2000000477,A,s,O,s,2173,1,2183.0,588713.2000000477,7183,WL,B,7.0
5,12.913000106811523,learn,60000.0,Fri Aug 08 2025 14:07:46 GMT-0500 (Central Daylight Time),591113.5,A,st,O,t,207,1,2400.2999999523163,588713.2000000477,7183,WL,B,7.0
5,13.11300015449524,learn,60000.0,Fri Aug 08 2025 14:07:46 GMT-0500 (Central Daylight Time),591313.0999999046,A,str,O,r,182,1,2599.899999856949,588713.2000000477,7183,WL,B,7.0
5,13.348000049591064,learn,60000.0,Fri Aug 08 2025 14:07:46 GMT-0500 (Central Daylight Time),591547.7000000477,A,stre,O,e,228,1,2834.5,588713.2000000477,7183,WL,B,7.0
5,13.51200008392334,learn,60000.0,Fri Aug 08 2025 14:07:46 GMT-0500 (Central Daylight Time),591712.4000000954,A,stree,O,e,145,1,2999.2000000476837,588713.2000000477,7183,WL,B,7.0
5,13.695000171661377,learn,60000.0,Fri Aug 08 2025 14:07:46 GMT-0500 (Central Daylight Time),591895.2999999523,A,street,O,t,164,1,3182.0999999046326,588713.2000000477,7183,WL,B,7.0
5,13.946000099182129,learn,60000.0,Fri Aug 08 2025 14:07:46 GMT-0500 (Central Daylight Time),592146.4000000954,A,streetenter,O,enter,231,1,3433.2000000476837,588713.2000000477,7183,WL,B,7.0
5,14.813000202178955,learn,60000.0,Fri Aug 08 2025 14:07:46 GMT-0500 (Central Daylight Time),593013.0,A,g,O,g,862,1,866.4000000953674,592146.5999999046,7183,WL,B,8.0
5,15.029000043869019,learn,60000.0,Fri Aug 08 2025 14:07:46 GMT-0500 (Central Daylight Time),593229.5,A,gr,O,r,209,1,1082.9000000953674,592146.5999999046,7183,WL,B,8.0
5,15.497000217437744,learn,60000.0,Fri Aug 08 2025 14:07:46 GMT-0500 (Central Daylight Time),593696.9000000954,A,gra,O,a,456,1,1550.3000001907349,592146.5999999046,7183,WL,B,8.0
5,15.763000011444092,learn,60000.0,Fri Aug 08 2025 14:07:46 GMT-0500 (Central Daylight Time),593962.7000000477,A,gras,O,s,254,1,1816.1000001430511,592146.5999999046,7183,WL,B,8.0
5,15.912000179290771,learn,60000.0,Fri Aug 08 2025 14:07:46 GMT-0500 (Central Daylight Time),594112.5,A,grass,O,s,131,1,1965.9000000953674,592146.5999999046,7183,WL,B,8.0
5,16.263000011444092,learn,60000.0,Fri Aug 08 2025 14:07:46 GMT-0500 (Central Daylight Time),594463.0,A,grassa,O,a,328,1,2316.4000000953674,592146.5999999046,7183,WL,B,8.0
5,16.361999988555908,learn,60000.0,Fri Aug 08 2025 14:07:46 GMT-0500 (Central Daylight Time),594562.2999999523,A,grassar,O,r,78,1,2415.7000000476837,592146.5999999046,7183,WL,B,8.0
5,16.49400019645691,learn,60000.0,Fri Aug 08 2025 14:07:46 GMT-0500 (Central Daylight Time),594694.4000000954,A,grassare,O,e,123,1,2547.800000190735,592146.5999999046,7183,WL,B,8.0
5,16.9280002117157,learn,60000.0,Fri Aug 08 2025 14:07:46 GMT-0500 (Central Daylight Time),595128.0999999046,A,grassar,O,backspace,422,1,2981.5,592146.5999999046,7183,WL,B,8.0
5,17.07800006866455,learn,60000.0,Fri Aug 08 2025 14:07:46 GMT-0500 (Central Daylight Time),595278.0999999046,A,grassa,O,backspace,146,1,3131.5,592146.5999999046,7183,WL,B,8.0
5,17.213000059127808,learn,60000.0,Fri Aug 08 2025 14:07:46 GMT-0500 (Central Daylight Time),595413.2000000477,A,grass,O,backspace,130,1,3266.600000143051,592146.5999999046,7183,WL,B,8.0
5,17.36300015449524,learn,60000.0,Fri Aug 08 2025 14:07:46 GMT-0500 (Central Daylight Time),595563.2999999523,A,gras,O,backspace,144,1,3416.7000000476837,592146.5999999046,7183,WL,B,8.0
5,18.061000108718872,learn,60000.0,Fri Aug 08 2025 14:07:46 GMT-0500 (Central Daylight Time),596261.5,A,grass,O,s,690,1,4114.900000095367,592146.5999999046,7183,WL,B,8.0
5,18.378000020980835,learn,60000.0,Fri Aug 08 2025 14:07:46 GMT-0500 (Central Daylight Time),596577.7999999523,A,grassenter,O,enter,303,1,4431.200000047684,592146.5999999046,7183,WL,B,8.0
5,22.576000213623047,learn,60000.0,Fri Aug 08 2025 14:07:46 GMT-0500 (Central Daylight Time),600776.4000000954,A,a,O,a,4180,1,4198.400000095367,596578.0,7183,WL,B,9.0
5,22.77900004386902,learn,60000.0,Fri Aug 08 2025 14:07:46 GMT-0500 (Central Daylight Time),600979.4000000954,A,ar,O,r,198,1,4401.400000095367,596578.0,7183,WL,B,9.0
5,23.31000018119812,learn,60000.0,Fri Aug 08 2025 14:07:46 GMT-0500 (Central Daylight Time),601510.9000000954,A,arm,O,m,514,1,4932.900000095367,596578.0,7183,WL,B,9.0
5,23.81000018119812,learn,60000.0,Fri Aug 08 2025 14:07:46 GMT-0500 (Central Daylight Time),602010.2999999523,A,armenter,O,enter,477,1,5432.299999952316,596578.0,7183,WL,B,9.0
5,24.076000213623047,learn,60000.0,Fri Aug 08 2025 14:07:46 GMT-0500 (Central Daylight Time),602276.2000000477,A,w,O,w,252,1,265.60000014305115,602010.5999999046,7183,WL,B,10.0
5,24.141000032424927,learn,60000.0,Fri Aug 08 2025 14:07:46 GMT-0500 (Central Daylight Time),602341.5999999046,A,wi,O,i,57,1,331.0,602010.5999999046,7183,WL,B,10.0
5,24.259000062942505,learn,60000.0,Fri Aug 08 2025 14:07:46 GMT-0500 (Central Daylight Time),602459.4000000954,A,win,O,n,106,1,448.80000019073486,602010.5999999046,7183,WL,B,10.0
5,24.427000045776367,learn,60000.0,Fri Aug 08 2025 14:07:46 GMT-0500 (Central Daylight Time),602627.7000000477,A,wind,O,d,163,1,617.1000001430511,602010.5999999046,7183,WL,B,10.0
5,24.575000047683716,learn,60000.0,Fri Aug 08 2025 14:07:46 GMT-0500 (Central Daylight Time),602775.5,A,windo,O,o,139,1,764.9000000953674,602010.5999999046,7183,WL,B,10.0
5,24.776000022888184,learn,60000.0,Fri Aug 08 2025 14:07:46 GMT-0500 (Central Daylight Time),602976.0999999046,A,window,O,w,183,1,965.5,602010.5999999046,7183,WL,B,10.0
5,24.943000078201294,learn,60000.0,Fri Aug 08 2025 14:07:46 GMT-0500 (Central Daylight Time),603143.0999999046,A,windowenter,O,enter,158,1,1132.5,602010.5999999046,7183,WL,B,10.0
5,25.4760000705719,learn,60000.0,Fri Aug 08 2025 14:07:46 GMT-0500 (Central Daylight Time),603676.0999999046,A,w,O,w,519,1,532.7999999523163,603143.2999999523,7183,WL,B,11.0
5,25.591000080108643,learn,60000.0,Fri Aug 08 2025 14:07:46 GMT-0500 (Central Daylight Time),603791.7999999523,A,wi,O,i,98,1,648.5,603143.2999999523,7183,WL,B,11.0
5,25.725000143051147,learn,60000.0,Fri Aug 08 2025 14:07:46 GMT-0500 (Central Daylight Time),603925.4000000954,A,wif,O,f,125,1,782.1000001430511,603143.2999999523,7183,WL,B,11.0
5,25.843000173568726,learn,60000.0,Fri Aug 08 2025 14:07:46 GMT-0500 (Central Daylight Time),604043.4000000954,A,wife,O,e,94,1,900.1000001430511,603143.2999999523,7183,WL,B,11.0
5,26.092000007629395,learn,60000.0,Fri Aug 08 2025 14:07:46 GMT-0500 (Central Daylight Time),604292.5999999046,A,wifeenter,O,enter,234,1,1149.2999999523163,603143.2999999523,7183,WL,B,11.0
5,26.625,learn,60000.0,Fri Aug 08 2025 14:07:46 GMT-0500 (Central Daylight Time),604825.5,A,c,O,c,521,1,532.5999999046326,604292.9000000954,7183,WL,B,12.0
5,26.70900011062622,learn,60000.0,Fri Aug 08 2025 14:07:46 GMT-0500 (Central Daylight Time),604909.4000000954,A,ci,O,i,78,1,616.5,604292.9000000954,7183,WL,B,12.0
5,26.892000198364258,learn,60000.0,Fri Aug 08 2025 14:07:46 GMT-0500 (Central Daylight Time),605092.9000000954,A,cit,O,t,167,1,800.0,604292.9000000954,7183,WL,B,12.0
5,26.974000215530396,learn,60000.0,Fri Aug 08 2025 14:07:46 GMT-0500 (Central Daylight Time),605174.5999999046,A,city,O,y,65,1,881.6999998092651,604292.9000000954,7183,WL,B,12.0
5,27.391000032424927,learn,60000.0,Fri Aug 08 2025 14:07:46 GMT-0500 (Central Daylight Time),605591.7999999523,A,cityenter,O,enter,398,1,1298.8999998569489,604292.9000000954,7183,WL,B,12.0
5,29.757000207901,learn,60000.0,Fri Aug 08 2025 14:07:46 GMT-0500 (Central Daylight Time),607957.5,A,f,O,f,2352,1,2365.5,605592.0,7183,WL,B,13.0
5,29.85800004005432,learn,60000.0,Fri Aug 08 2025 14:07:46 GMT-0500 (Central Daylight Time),608058.5999999046,A,fi,O,i,80,1,2466.5999999046326,605592.0,7183,WL,B,13.0
5,30.057000160217285,learn,60000.0,Fri Aug 08 2025 14:07:46 GMT-0500 (Central Daylight Time),608257.7999999523,A,fir,O,r,188,1,2665.7999999523163,605592.0,7183,WL,B,13.0
5,30.290000200271606,learn,60000.0,Fri Aug 08 2025 14:07:46 GMT-0500 (Central Daylight Time),608490.5999999046,A,fire,O,e,220,1,2898.5999999046326,605592.0,7183,WL,B,13.0
5,31.29200005531311,learn,60000.0,Fri Aug 08 2025 14:07:46 GMT-0500 (Central Daylight Time),609492.0,A,fireenter,O,enter,996,1,3900.0,605592.0,7183,WL,B,13.0
5,32.723000049591064,learn,60000.0,Fri Aug 08 2025 14:07:46 GMT-0500 (Central Daylight Time),610923.5,A,enter,O,enter,1411,1,1431.2000000476837,609492.2999999523,7183,WL,B,14.0
5,33.25600004196167,learn,60000.0,Fri Aug 08 2025 14:07:46 GMT-0500 (Central Daylight Time),611456.2999999523,A,enter,O,enter,523,1,532.5,610923.7999999523,7183,WL,B,15.0
6,1.5829999446868896,distr,58417.00005531311,Fri Aug 08 2025 14:07:46 GMT-0500 (Central Daylight Time),684949.5999999046,B,v,O,v,1566,1,1582.2999999523163,683367.2999999523,7183,WL,B,1.0
6,1.7829999923706055,distr,58217.000007629395,Fri Aug 08 2025 14:07:46 GMT-0500 (Central Daylight Time),685149.9000000954,B,vi,O,i,180,1,1782.6000001430511,683367.2999999523,7183,WL,B,1.0
6,2.3510000705718994,distr,57648.9999294281,Fri Aug 08 2025 14:07:46 GMT-0500 (Central Daylight Time),685718.0,B,vil,O,l,562,1,2350.7000000476837,683367.2999999523,7183,WL,B,1.0
6,2.5160000324249268,distr,57483.99996757507,Fri Aug 08 2025 14:07:46 GMT-0500 (Central Daylight Time),685883.2000000477,B,vill,O,l,159,1,2515.9000000953674,683367.2999999523,7183,WL,B,1.0
6,2.615999937057495,distr,57384.000062942505,Fri Aug 08 2025 14:07:46 GMT-0500 (Central Daylight Time),685983.2000000477,B,villa,O,a,83,1,2615.9000000953674,683367.2999999523,7183,WL,B,1.0
6,2.7990000247955322,distr,57200.99997520447,Fri Aug 08 2025 14:07:46 GMT-0500 (Central Daylight Time),686166.0999999046,B,villag,O,g,166,1,2798.7999999523163,683367.2999999523,7183,WL,B,1.0
6,2.999000072479248,distr,57000.99992752075,Fri Aug 08 2025 14:07:46 GMT-0500 (Central Daylight Time),686365.7000000477,B,village,O,e,193,1,2998.4000000953674,683367.2999999523,7183,WL,B,1.0
6,3.6640000343322754,distr,56335.999965667725,Fri Aug 08 2025 14:07:46 GMT-0500 (Central Daylight Time),687031.4000000954,B,villageenter,O,enter,646,1,3664.100000143051,683367.2999999523,7183,WL,B,1.0
6,6.047999858856201,distr,53952.0001411438,Fri Aug 08 2025 14:07:46 GMT-0500 (Central Daylight Time),689414.5,B,b,O,b,2375,1,2382.9000000953674,687031.5999999046,7183,WL,B,2.0
6,6.148999929428101,distr,53851.0000705719,Fri Aug 08 2025 14:07:46 GMT-0500 (Central Daylight Time),689516.0999999046,B,ba,O,a,97,1,2484.5,687031.5999999046,7183,WL,B,2.0
6,6.2809998989105225,distr,53719.00010108948,Fri Aug 08 2025 14:07:46 GMT-0500 (Central Daylight Time),689648.4000000954,B,bab,O,b,113,1,2616.800000190735,687031.5999999046,7183,WL,B,2.0
6,6.48199987411499,distr,53518.00012588501,Fri Aug 08 2025 14:07:46 GMT-0500 (Central Daylight Time),689849.0,B,baby,O,y,180,1,2817.4000000953674,687031.5999999046,7183,WL,B,2.0
6,7.0299999713897705,distr,52970.00002861023,Fri Aug 08 2025 14:07:46 GMT-0500 (Central Daylight Time),690396.9000000954,B,babyenter,O,enter,541,1,3365.300000190735,687031.5999999046,7183,WL,B,2.0
6,7.448999881744385,distr,52551.000118255615,Fri Aug 08 2025 14:07:46 GMT-0500 (Central Daylight Time),690815.5999999046,B,o,O,o,413,1,418.5,690397.0999999046,7183,WL,B,3.0
6,7.63100004196167,distr,52368.99995803833,Fri Aug 08 2025 14:07:46 GMT-0500 (Central Daylight Time),690997.7999999523,B,oc,O,c,167,1,600.7000000476837,690397.0999999046,7183,WL,B,3.0
6,7.933000087738037,distr,52066.99991226196,Fri Aug 08 2025 14:07:46 GMT-0500 (Central Daylight Time),691299.7000000477,B,oce,O,e,296,1,902.6000001430511,690397.0999999046,7183,WL,B,3.0
6,8.381999969482422,distr,51618.00003051758,Fri Aug 08 2025 14:07:46 GMT-0500 (Central Daylight Time),691749.0999999046,B,ocea,O,a,435,1,1352.0,690397.0999999046,7183,WL,B,3.0
6,8.496999979019165,distr,51503.000020980835,Fri Aug 08 2025 14:07:46 GMT-0500 (Central Daylight Time),691864.5,B,ocean,O,n,104,1,1467.4000000953674,690397.0999999046,7183,WL,B,3.0
6,10.111999988555908,distr,49888.00001144409,Fri Aug 08 2025 14:07:46 GMT-0500 (Central Daylight Time),693478.7999999523,B,oceanenter,O,enter,1595,1,3081.7000000476837,690397.0999999046,7183,WL,B,3.0
6,11.329999923706055,distr,48670.000076293945,Fri Aug 08 2025 14:07:46 GMT-0500 (Central Daylight Time),694696.5,B,l,O,l,1199,1,1217.4000000953674,693479.0999999046,7183,WL,B,4.0
6,11.562000036239624,distr,48437.999963760376,Fri Aug 08 2025 14:07:46 GMT-0500 (Central Daylight Time),694928.7000000477,B,li,O,i,212,1,1449.6000001430511,693479.0999999046,7183,WL,B,4.0
6,11.777999877929688,distr,48222.00012207031,Fri Aug 08 2025 14:07:46 GMT-0500 (Central Daylight Time),695145.2000000477,B,lip,O,p,198,1,1666.1000001430511,693479.0999999046,7183,WL,B,4.0
6,12.062000036239624,distr,47937.999963760376,Fri Aug 08 2025 14:07:46 GMT-0500 (Central Daylight Time),695429.0999999046,B,lipenter,O,enter,271,1,1950.0,693479.0999999046,7183,WL,B,4.0
6,16.812999963760376,distr,43187.000036239624,Fri Aug 08 2025 14:07:46 GMT-0500 (Central Daylight Time),700179.7000000477,B,enter,O,enter,4745,1,4750.400000095367,695429.2999999523,7183,WL,B,5.0
6,17.292999982833862,distr,42707.00001716614,Fri Aug 08 2025 14:07:46 GMT-0500 (Central Daylight Time),700659.5999999046,B,enter,O,enter,466,1,479.59999990463257,700180.0,7183,WL,B,6.0
6,17.560999870300293,distr,42439.00012969971,Fri Aug 08 2025 14:07:46 GMT-0500 (Central Daylight Time),700927.5999999046,B,enter,O,enter,260,1,267.69999980926514,700659.9000000954,7183,WL,B,7.0
6,17.80999994277954,distr,42190.00005722046,Fri Aug 08 2025 14:07:46 GMT-0500 (Central Daylight Time),701177.0999999046,B,enter,O,enter,231,1,249.09999990463257,700928.0,7183,WL,B,8.0
6,17.944000005722046,distr,42055.999994277954,Fri Aug 08 2025 14:07:46 GMT-0500 (Central Daylight Time),701310.5999999046,B,enter,O,enter,125,1,133.19999980926514,701177.4000000954,7183,WL,B,9.0
6,18.276999950408936,distr,41723.000049591064,Fri Aug 08 2025 14:07:46 GMT-0500 (Central Daylight Time),701644.2999999523,B,enter,O,enter,328,1,333.2999999523163,701311.0,7183,WL,B,10.0
6,18.542999982833862,distr,41457.00001716614,Fri Aug 08 2025 14:07:46 GMT-0500 (Central Daylight Time),701910.2999999523,B,enter,O,enter,258,1,265.7999999523163,701644.5,7183,WL,B,11.0
6,18.710999965667725,distr,41289.000034332275,Fri Aug 08 2025 14:07:46 GMT-0500 (Central Daylight Time),702077.7000000477,B,enter,O,enter,163,1,167.10000014305115,701910.5999999046,7183,WL,B,12.0
6,18.925999879837036,distr,41074.000120162964,Fri Aug 08 2025 14:07:46 GMT-0500 (Central Daylight Time),702293.0,B,enter,O,enter,209,1,215.0,702078.0,7183,WL,B,13.0
6,19.376999855041504,distr,40623.000144958496,Fri Aug 08 2025 14:07:46 GMT-0500 (Central Daylight Time),702743.7999999523,B,enter,O,enter,433,1,450.5,702293.2999999523,7183,WL,B,14.0
6,19.84599995613098,distr,40154.00004386902,Fri Aug 08 2025 14:07:46 GMT-0500 (Central Daylight Time),703213.0999999046,B,enter,O,enter,461,1,469.0,702744.0999999046,7183,WL,B,15.0
7,19.62600016593933,immed,40373.99983406067,Fri Aug 08 2025 14:07:46 GMT-0500 (Central Daylight Time),723787.4000000954,A,b,O,b,19606,1,19626.700000047684,704160.7000000477,7183,WL,B,1.0
7,20.159000158309937,immed,39840.99984169006,Fri Aug 08 2025 14:07:46 GMT-0500 (Central Daylight Time),724319.9000000954,A,ba,O,a,522,1,20159.200000047684,704160.7000000477,7183,WL,B,1.0
7,20.325999975204468,immed,39674.00002479553,Fri Aug 08 2025 14:07:46 GMT-0500 (Central Daylight Time),724486.7999999523,A,bab,O,b,149,1,20326.099999904633,704160.7000000477,7183,WL,B,1.0
7,20.62600016593933,immed,39373.99983406067,Fri Aug 08 2025 14:07:46 GMT-0500 (Central Daylight Time),724787.7999999523,A,baby,O,y,278,1,20627.099999904633,704160.7000000477,7183,WL,B,1.0
7,24.35800004005432,immed,35641.99995994568,Fri Aug 08 2025 14:07:46 GMT-0500 (Central Daylight Time),728519.0,A,babyenter,O,enter,3722,1,24358.299999952316,704160.7000000477,7183,WL,B,1.0
7,24.70900011062622,immed,35290.99988937378,Fri Aug 08 2025 14:07:46 GMT-0500 (Central Daylight Time),728870.4000000954,A,o,O,o,346,1,351.2000000476837,728519.2000000477,7183,WL,B,2.0
7,24.891000032424927,immed,35108.99996757507,Fri Aug 08 2025 14:07:46 GMT-0500 (Central Daylight Time),729052.7000000477,A,oc,O,c,161,1,533.5,728519.2000000477,7183,WL,B,2.0
7,25.124000072479248,immed,34875.99992752075,Fri Aug 08 2025 14:07:46 GMT-0500 (Central Daylight Time),729285.2000000477,A,oce,O,e,211,1,766.0,728519.2000000477,7183,WL,B,2.0
7,25.256999969482422,immed,34743.00003051758,Fri Aug 08 2025 14:07:46 GMT-0500 (Central Daylight Time),729418.2999999523,A,ocea,O,a,121,1,899.0999999046326,728519.2000000477,7183,WL,B,2.0
7,25.424999952316284,immed,34575.000047683716,Fri Aug 08 2025 14:07:46 GMT-0500 (Central Daylight Time),729585.9000000954,A,ocean,O,n,147,1,1066.7000000476837,728519.2000000477,7183,WL,B,2.0
7,25.858999967575073,immed,34141.00003242493,Fri Aug 08 2025 14:07:46 GMT-0500 (Central Daylight Time),730020.5999999046,A,oceanenter,O,enter,429,1,1501.3999998569489,728519.2000000477,7183,WL,B,2.0
7,29.325000047683716,immed,30674.999952316284,Fri Aug 08 2025 14:07:46 GMT-0500 (Central Daylight Time),733486.7000000477,A,v,O,v,3451,1,3465.9000000953674,730020.7999999523,7183,WL,B,3.0
7,29.47099995613098,immed,30529.00004386902,Fri Aug 08 2025 14:07:46 GMT-0500 (Central Daylight Time),733632.2999999523,A,vi,O,i,122,1,3611.5,730020.7999999523,7183,WL,B,3.0
7,29.65400004386902,immed,30345.99995613098,Fri Aug 08 2025 14:07:46 GMT-0500 (Central Daylight Time),733815.2000000477,A,vil,O,l,166,1,3794.4000000953674,730020.7999999523,7183,WL,B,3.0
7,29.788000106811523,immed,30211.999893188477,Fri Aug 08 2025 14:07:46 GMT-0500 (Central Daylight Time),733949.5999999046,A,vill,O,l,120,1,3928.7999999523163,730020.7999999523,7183,WL,B,3.0
7,29.955000162124634,immed,30044.999837875366,Fri Aug 08 2025 14:07:46 GMT-0500 (Central Daylight Time),734115.7999999523,A,villa,O,a,162,1,4095.0,730020.7999999523,7183,WL,B,3.0
7,30.08899998664856,immed,29911.00001335144,Fri Aug 08 2025 14:07:46 GMT-0500 (Central Daylight Time),734250.2000000477,A,villag,O,g,125,1,4229.400000095367,730020.7999999523,7183,WL,B,3.0
7,30.223999977111816,immed,29776.000022888184,Fri Aug 08 2025 14:07:46 GMT-0500 (Central Daylight Time),734385.0999999046,A,village,O,e,116,1,4364.299999952316,730020.7999999523,7183,WL,B,3.0
7,30.442000150680542,immed,29557.999849319458,Fri Aug 08 2025 14:07:46 GMT-0500 (Central Daylight Time),734603.4000000954,A,villageenter,O,enter,212,1,4582.600000143051,730020.7999999523,7183,WL,B,3.0
7,30.84000015258789,immed,29159.99984741211,Fri Aug 08 2025 14:07:46 GMT-0500 (Central Daylight Time),735000.9000000954,A,f,O,f,387,1,397.2000000476837,734603.7000000477,7183,WL,B,4.0
7,30.942000150680542,immed,29057.999849319458,Fri Aug 08 2025 14:07:46 GMT-0500 (Central Daylight Time),735103.0,A,fi,O,i,96,1,499.2999999523163,734603.7000000477,7183,WL,B,4.0
7,31.9060001373291,immed,28093.9998626709,Fri Aug 08 2025 14:07:46 GMT-0500 (Central Daylight Time),736067.2000000477,A,fir,O,r,951,1,1463.5,734603.7000000477,7183,WL,B,4.0
7,32.055999994277954,immed,27944.000005722046,Fri Aug 08 2025 14:07:46 GMT-0500 (Central Daylight Time),736217.5999999046,A,fire,O,e,130,1,1613.8999998569489,734603.7000000477,7183,WL,B,4.0
7,32.555999994277954,immed,27444.000005722046,Fri Aug 08 2025 14:07:46 GMT-0500 (Central Daylight Time),736716.9000000954,A,fireenter,O,enter,492,1,2113.2000000476837,734603.7000000477,7183,WL,B,4.0
7,35.7039999961853,immed,24296.000003814697,Fri Aug 08 2025 14:07:46 GMT-0500 (Central Daylight Time),739864.9000000954,A,s,O,s,3130,1,3147.800000190735,736717.0999999046,7183,WL,B,5.0
7,36.00399994850159,immed,23996.000051498413,Fri Aug 08 2025 14:07:46 GMT-0500 (Central Daylight Time),740165.2000000477,A,st,O,t,293,1,3448.100000143051,736717.0999999046,7183,WL,B,5.0
7,36.13900017738342,immed,23860.999822616577,Fri Aug 08 2025 14:07:46 GMT-0500 (Central Daylight Time),740300.5,A,sto,O,o,131,1,3583.4000000953674,736717.0999999046,7183,WL,B,5.0
7,36.687999963760376,immed,23312.000036239624,Fri Aug 08 2025 14:07:46 GMT-0500 (Central Daylight Time),740849.7000000477,A,stor,O,r,536,1,4132.600000143051,736717.0999999046,7183,WL,B,5.0
7,36.871999979019165,immed,23128.000020980835,Fri Aug 08 2025 14:07:46 GMT-0500 (Central Daylight Time),741033.0999999046,A,storm,O,m,165,1,4316.0,736717.0999999046,7183,WL,B,5.0
7,37.40400004386902,immed,22595.99995613098,Fri Aug 08 2025 14:07:46 GMT-0500 (Central Daylight Time),741565.4000000954,A,stormenter,O,enter,516,1,4848.300000190735,736717.0999999046,7183,WL,B,5.0
7,39.18600010871887,immed,20813.999891281128,Fri Aug 08 2025 14:07:46 GMT-0500 (Central Daylight Time),743347.7000000477,A,l,O,l,1774,1,1782.1000001430511,741565.5999999046,7183,WL,B,6.0
7,39.47000002861023,immed,20529.99997138977,Fri Aug 08 2025 14:07:46 GMT-0500 (Central Daylight Time),743630.9000000954,A,li,O,i,266,1,2065.300000190735,741565.5999999046,7183,WL,B,6.0
7,40.80400013923645,immed,19195.99986076355,Fri Aug 08 2025 14:07:46 GMT-0500 (Central Daylight Time),744964.9000000954,A,lip,O,p,1322,1,3399.300000190735,741565.5999999046,7183,WL,B,6.0
7,41.335999965667725,immed,18664.000034332275,Fri Aug 08 2025 14:07:46 GMT-0500 (Central Daylight Time),745497.7000000477,A,lipenter,O,enter,521,1,3932.100000143051,741565.5999999046,7183,WL,B,6.0
7,47.78400015830994,immed,12215.999841690063,Fri Aug 08 2025 14:07:46 GMT-0500 (Central Daylight Time),751945.0,A,enter,O,enter,6437,1,6446.900000095367,745498.0999999046,7183,WL,B,7.0
7,48.235000133514404,immed,11764.999866485596,Fri Aug 08 2025 14:07:46 GMT-0500 (Central Daylight Time),752396.0999999046,A,enter,O,enter,437,1,450.7999999523163,751945.2999999523,7183,WL,B,8.0
7,48.651000022888184,immed,11348.999977111816,Fri Aug 08 2025 14:07:46 GMT-0500 (Central Daylight Time),752812.0999999046,A,enter,O,enter,402,1,415.7999999523163,752396.2999999523,7183,WL,B,9.0
7,49.16600012779236,immed,10833.999872207642,Fri Aug 08 2025 14:07:46 GMT-0500 (Central Daylight Time),753327.4000000954,A,enter,O,enter,506,1,515.0,752812.4000000954,7183,WL,B,10.0
7,49.54900002479553,immed,10450.999975204468,Fri Aug 08 2025 14:07:46 GMT-0500 (Central Daylight Time),753710.5999999046,A,enter,O,enter,375,1,382.7999999523163,753327.7999999523,7183,WL,B,11.0
7,50.01600003242493,immed,9983.999967575073,Fri Aug 08 2025 14:07:46 GMT-0500 (Central Daylight Time),754177.7999999523,A,enter,O,enter,447,1,467.0,753710.7999999523,7183,WL,B,12.0
7,50.56700015068054,immed,9432.999849319458,Fri Aug 08 2025 14:07:46 GMT-0500 (Central Daylight Time),754728.5999999046,A,enter,O,enter,533,1,550.5,754178.0999999046,7183,WL,B,13.0
7,51.13199996948242,immed,8868.000030517578,Fri Aug 08 2025 14:07:46 GMT-0500 (Central Daylight Time),755293.0999999046,A,enter,O,enter,558,1,564.2999999523163,754728.7999999523,7183,WL,B,14.0
7,51.98300004005432,immed,8016.999959945679,Fri Aug 08 2025 14:07:46 GMT-0500 (Central Daylight Time),756144.0999999046,A,enter,O,enter,843,1,850.7999999523163,755293.2999999523,7183,WL,B,15.0
