acc_sum,block,block_c,condition,correct,correct_response,datetime,endtime,flanker,jitter,project,response,response_test_buffer_response,response_test_target_response,response_time,response_time_test_buffer_response,response_time_test_target_response,row_sel,session_number,start_end,starttime,subject_id,target,task,task_vers,time_test_buffer,time_test_buffer_response,time_test_constants,time_test_flanker,time_test_jitter,time_test_logger,time_test_target,time_test_target_response,time_test_variables,trial
1,prac,1,con,1,m,Tue Nov 25 2025 13:21:57 GMT-0600 (Central Standard Time),77710.80000001192,step,800,O,m,,,808,,,1,1,2907.7000000178814,74803.09999999404,7252,step,AF,C,,,,,,,,,,1
2,prac,1,con,1,m,Tue Nov 25 2025 13:21:57 GMT-0600 (Central Standard Time),80661.40000000596,bell,1000,O,m,,,631,,,3,1,2940.800000011921,77720.59999999404,7252,bell,AF,C,,,,,,,,,,2
3,prac,1,con,1,m,Tue Nov 25 2025 13:21:57 GMT-0600 (Central Standard Time),83574.90000000596,remote,1000,O,m,,,599,,,7,1,2906.800000011921,80668.09999999404,7252,remote,AF,C,,,,,,,,,,3
4,prac,1,con,1,z,Tue Nov 25 2025 13:21:57 GMT-0600 (Central Standard Time),86490.40000000596,rage,1000,O,z,,,614,,,15,1,2911.5,83578.90000000596,7252,rage,AF,C,,,,,,,,,,4
5,prac,1,con,1,z,Tue Nov 25 2025 13:21:57 GMT-0600 (Central Standard Time),89274.30000001192,love,1000,O,z,,,468,,,11,1,2776.800000011921,86497.5,7252,love,AF,C,,,,,,,,,,5
6,prac,1,inc,1,z,Tue Nov 25 2025 13:21:57 GMT-0600 (Central Standard Time),92172.90000000596,napkin,1100,O,z,,,488,,,12,1,2893.4000000059605,89279.5,7252,friend,AF,C,,,,,,,,,,6
7,prac,1,inc,1,z,Tue Nov 25 2025 13:21:57 GMT-0600 (Central Standard Time),95155.70000001788,film,900,O,z,,,783,,,14,1,2975.600000023842,92180.09999999404,7252,hate,AF,C,,,,,,,,,,7
8,prac,1,inc,1,z,Tue Nov 25 2025 13:21:57 GMT-0600 (Central Standard Time),98120.59999999404,window,1100,O,z,,,551,,,16,1,2958.0999999940395,95162.5,7252,temper,AF,C,,,,,,,,,,8
9,prac,1,inc,1,z,Tue Nov 25 2025 13:21:57 GMT-0600 (Central Standard Time),101055.20000001788,rock,900,O,z,,,728,,,10,1,2929.7000000178814,98125.5,7252,kind,AF,C,,,,,,,,,,9
10,prac,1,con,1,z,Tue Nov 25 2025 13:21:57 GMT-0600 (Central Standard Time),103719.80000001192,brutal,800,O,z,,,559,,,13,1,2657.4000000059605,101062.40000000596,7252,brutal,AF,C,,,,,,,,,,10
11,prac,1,inc,1,m,Tue Nov 25 2025 13:21:57 GMT-0600 (Central Standard Time),106434.20000001788,kind,900,O,m,,,531,,,2,1,2707.600000023842,103726.59999999404,7252,rock,AF,C,,,,,,,,,,11
12,prac,1,inc,1,m,Tue Nov 25 2025 13:21:57 GMT-0600 (Central Standard Time),109183.40000000596,elated,900,O,m,,,544,,,6,1,2743.199999988079,106440.20000001788,7252,napkin,AF,C,,,,,,,,,,12
13,prac,1,con,1,z,Tue Nov 25 2025 13:21:57 GMT-0600 (Central Standard Time),111982.40000000596,elated,800,O,z,,,692,,,9,1,2794.0,109188.40000000596,7252,elated,AF,C,,,,,,,,,,13
14,prac,1,inc,1,m,Tue Nov 25 2025 13:21:57 GMT-0600 (Central Standard Time),115150.59999999404,brutal,1100,O,m,,,763,,,8,1,3160.699999988079,111989.90000000596,7252,window,AF,C,,,,,,,,,,14
15,prac,1,con,1,m,Tue Nov 25 2025 13:21:57 GMT-0600 (Central Standard Time),117731.80000001192,jacket,800,O,m,,,483,,,5,1,2575.300000011921,115156.5,7252,jacket,AF,C,,,,,,,,,,15
16,prac,1,inc,1,m,Tue Nov 25 2025 13:21:57 GMT-0600 (Central Standard Time),120727.80000001192,hate,1100,O,m,,,586,,,4,1,2990.5999999940395,117737.20000001788,7252,film,AF,C,,,,,,,,,,16
1,test,1,inc,1,m,Tue Nov 25 2025 13:21:57 GMT-0600 (Central Standard Time),129343.59999999404,temper,1000,O,m,m,None,626,411.0,215.0,103,1,2162.5,127181.09999999404,7252,jacket,AF,C,126475,126475,124729,125743,124729,126892,126259,126260,126892,1
2,test,1,con,1,m,Tue Nov 25 2025 13:21:57 GMT-0600 (Central Standard Time),131426.30000001192,jacket,1100,O,m,m,None,442,242.0,200.0,100,1,2078.0999999940395,129348.20000001788,7252,jacket,AF,C,128726,128726,126896,128009,126896,128974,128525,128525,128974,2
3,test,1,con,1,m,Tue Nov 25 2025 13:21:57 GMT-0600 (Central Standard Time),133509.09999999404,window,1100,O,m,m,None,447,247.0,200.0,124,1,2077.5999999940395,131431.5,7252,window,AF,C,130808,130808,128980,130092,128980,131057,130607,130607,131057,3
4,test,1,inc,1,z,Tue Nov 25 2025 13:21:57 GMT-0600 (Central Standard Time),135575.5,napkin,900,O,z,z,None,626,426.0,200.0,30,1,2060.0999999940395,133515.40000000596,7252,friend,AF,C,132692,132692,131063,131974,131064,133124,132491,132491,133124,4
5,test,1,inc,1,m,Tue Nov 25 2025 13:21:57 GMT-0600 (Central Standard Time),137724.5,friend,1100,O,m,m,None,516,316.0,200.0,128,1,2145.5,135579.0,7252,window,AF,C,134956,134956,133127,134241,133127,135273,134756,134756,135272,5
6,test,1,con,1,z,Tue Nov 25 2025 13:21:57 GMT-0600 (Central Standard Time),139725.70000001788,hate,900,O,z,z,None,572,373.0,199.0,42,1,1995.5,137730.20000001788,7252,hate,AF,C,136890,136890,135278,136189,135279,137274,136690,136690,137274,6
7,test,1,con,1,z,Tue Nov 25 2025 13:21:57 GMT-0600 (Central Standard Time),141606.20000001788,elated,800,O,z,z,None,537,338.0,199.0,1,1,1876.300000011921,139729.90000000596,7252,elated,AF,C,138804,138804,137278,138090,137278,139154,138605,138605,139154,7
8,test,1,inc,1,z,Tue Nov 25 2025 13:21:57 GMT-0600 (Central Standard Time),143655.90000000596,rock,900,O,z,z,None,602,403.0,199.0,14,1,2044.9000000059605,141611.0,7252,kind,AF,C,140787,140787,139159,140071,139159,141204,140587,140587,141204,8
9,test,1,con,1,m,Tue Nov 25 2025 13:21:57 GMT-0600 (Central Standard Time),145872.0,film,1000,O,m,m,None,669,469.0,200.0,91,1,2208.7999999821186,143663.20000001788,7252,film,AF,C,142937,142937,141211,142222,141211,143420,142737,142737,143420,9
10,test,1,con,1,z,Tue Nov 25 2025 13:21:57 GMT-0600 (Central Standard Time),147956.40000000596,friend,900,O,z,z,None,652,451.0,201.0,26,1,2078.0999999940395,145878.30000001192,7252,friend,AF,C,145053,145053,143426,144337,143427,145504,144851,144851,145504,10
11,test,1,con,1,z,Tue Nov 25 2025 13:21:57 GMT-0600 (Central Standard Time),149936.90000000596,love,1000,O,z,z,None,433,233.0,200.0,19,1,1975.0,147961.90000000596,7252,love,AF,C,147237,147237,145510,146520,145510,147485,147036,147036,147485,11
12,test,1,inc,1,m,Tue Nov 25 2025 13:21:57 GMT-0600 (Central Standard Time),151938.30000001192,brutal,900,O,m,m,None,568,368.0,200.0,126,1,1997.300000011921,149941.0,7252,window,AF,C,149118,149118,147489,148402,147489,149486,148918,148918,149486,12
13,test,1,inc,1,m,Tue Nov 25 2025 13:21:57 GMT-0600 (Central Standard Time),153868.30000001192,rage,800,O,m,m,None,612,413.0,199.0,77,1,1926.300000011921,151942.0,7252,rock,AF,C,151001,151001,149490,150300,149490,151416,150801,150801,151416,13
14,test,1,inc,1,m,Tue Nov 25 2025 13:21:57 GMT-0600 (Central Standard Time),155717.90000000596,elated,800,O,m,m,None,511,310.0,201.0,109,1,1846.699999988079,153871.20000001788,7252,napkin,AF,C,152953,152953,151419,152235,151419,153266,152751,152751,153266,14
15,test,1,inc,1,m,Tue Nov 25 2025 13:21:57 GMT-0600 (Central Standard Time),157734.09999999404,brutal,900,O,m,m,None,569,354.0,215.0,118,1,2010.699999988079,155723.40000000596,7252,remote,AF,C,154917,154917,153271,154184,153272,155282,154701,154701,155282,15
16,test,1,con,1,m,Tue Nov 25 2025 13:21:57 GMT-0600 (Central Standard Time),159900.70000001788,napkin,1000,O,m,m,None,622,407.0,215.0,107,1,2162.600000023842,157738.09999999404,7252,napkin,AF,C,157032,157032,155286,156300,155286,157449,156817,156817,157449,16
17,test,1,con,1,m,Tue Nov 25 2025 13:21:57 GMT-0600 (Central Standard Time),161733.90000000596,film,800,O,m,m,None,499,300.0,199.0,89,1,1827.5999999940395,159906.30000001192,7252,film,AF,C,158966,158966,157454,158265,157455,159282,158766,158766,159282,17
18,test,1,con,1,m,Tue Nov 25 2025 13:21:57 GMT-0600 (Central Standard Time),163669.80000001192,napkin,900,O,m,m,None,502,301.0,201.0,106,1,1931.0999999940395,161738.70000001788,7252,napkin,AF,C,160916,160916,159287,160198,159287,161218,160714,160714,161218,18
19,test,1,inc,1,z,Tue Nov 25 2025 13:21:57 GMT-0600 (Central Standard Time),165797.80000001192,remote,1000,O,z,z,None,586,386.0,200.0,31,1,2122.0999999940395,163675.70000001788,7252,friend,AF,C,162948,162948,161224,162233,161224,163346,162747,162747,163346,19
20,test,1,con,1,z,Tue Nov 25 2025 13:21:57 GMT-0600 (Central Standard Time),167764.5,brutal,800,O,z,z,None,630,431.0,199.0,33,1,1963.199999988079,165801.30000001192,7252,brutal,AF,C,164881,164881,163349,164164,163350,165313,164681,164681,165313,20
21,test,1,inc,1,m,Tue Nov 25 2025 13:21:57 GMT-0600 (Central Standard Time),169879.5,love,1000,O,m,m,None,575,375.0,200.0,71,1,2111.0,167768.5,7252,step,AF,C,167047,167047,165317,166332,165317,167428,166846,166847,167428,21
22,test,1,con,1,z,Tue Nov 25 2025 13:21:57 GMT-0600 (Central Standard Time),172079.30000001192,love,1100,O,z,z,None,553,351.0,202.0,20,1,2196.2000000178814,169883.09999999404,7252,love,AF,C,169264,169264,167431,168548,167431,169627,169062,169062,169627,22
23,test,1,inc,1,z,Tue Nov 25 2025 13:21:57 GMT-0600 (Central Standard Time),173862.90000000596,rock,900,O,z,z,None,359,146.0,213.0,22,1,1779.5,172083.40000000596,7252,love,AF,C,171260,171260,169631,170544,169632,171411,171046,171046,171411,23
24,test,1,con,1,z,Tue Nov 25 2025 13:21:57 GMT-0600 (Central Standard Time),175679.40000000596,temper,800,O,z,z,None,469,270.0,199.0,57,1,1813.300000011921,173866.09999999404,7252,temper,AF,C,172944,172944,171414,172228,171414,173227,172744,172744,173227,24
25,test,1,con,1,z,Tue Nov 25 2025 13:21:57 GMT-0600 (Central Standard Time),177579.30000001192,love,900,O,z,z,None,458,258.0,200.0,18,1,1896.0,175683.30000001192,7252,love,AF,C,174860,174861,173231,174144,173231,175127,174660,174660,175127,25
26,test,1,inc,1,m,Tue Nov 25 2025 13:21:57 GMT-0600 (Central Standard Time),179578.90000000596,temper,1000,O,m,m,None,474,258.0,216.0,127,1,1996.0,177582.90000000596,7252,window,AF,C,176860,176860,175131,176142,175131,177127,176644,176644,177127,26
26,test,1,con,0,z,Tue Nov 25 2025 13:21:57 GMT-0600 (Central Standard Time),181915.0,brutal,1000,O,m,m,None,791,578.0,213.0,35,1,2332.199999988079,179582.80000001192,7252,brutal,AF,C,178876,178876,177131,178142,177131,179463,178662,178662,179463,27
27,test,1,con,1,m,Tue Nov 25 2025 13:21:57 GMT-0600 (Central Standard Time),184175.90000000596,step,1100,O,m,m,None,619,419.0,200.0,68,1,2258.199999988079,181917.70000001788,7252,step,AF,C,181292,181292,179466,180577,179466,181724,181091,181091,181724,28
28,test,1,inc,1,z,Tue Nov 25 2025 13:21:57 GMT-0600 (Central Standard Time),186309.0,window,1100,O,z,z,None,495,296.0,199.0,40,1,2129.7999999821186,184179.20000001788,7252,brutal,AF,C,183558,183558,181727,182841,181727,183857,183359,183359,183857,29
29,test,1,con,1,m,Tue Nov 25 2025 13:21:57 GMT-0600 (Central Standard Time),188193.20000001788,rock,800,O,m,m,None,536,335.0,201.0,73,1,1880.7000000178814,186312.5,7252,rock,AF,C,185391,185391,183861,184675,183861,185741,185190,185190,185741,30
30,test,1,con,1,z,Tue Nov 25 2025 13:21:57 GMT-0600 (Central Standard Time),190306.90000000596,temper,1100,O,z,z,None,466,266.0,200.0,60,1,2110.4000000059605,188196.5,7252,temper,AF,C,187572,187572,185744,186856,185745,187855,187372,187372,187855,31
31,test,1,inc,1,z,Tue Nov 25 2025 13:21:57 GMT-0600 (Central Standard Time),192174.0,jacket,800,O,z,z,None,515,315.0,200.0,29,1,1864.0999999940395,190309.90000000596,7252,friend,AF,C,189389,189390,187858,188674,187858,189722,189189,189189,189722,32
32,test,1,inc,1,m,Tue Nov 25 2025 13:21:57 GMT-0600 (Central Standard Time),193989.80000001192,elated,800,O,m,m,None,481,279.0,202.0,125,1,1811.9000000059605,192177.90000000596,7252,window,AF,C,191258,191258,189726,190539,189726,191538,191055,191055,191538,33
33,test,1,inc,1,z,Tue Nov 25 2025 13:21:57 GMT-0600 (Central Standard Time),195872.30000001192,jacket,800,O,z,z,None,535,336.0,199.0,37,1,1879.2000000178814,193993.09999999404,7252,brutal,AF,C,193071,193071,191541,192355,191541,193420,192871,192871,193420,34
34,test,1,inc,1,z,Tue Nov 25 2025 13:21:57 GMT-0600 (Central Standard Time),198071.40000000596,window,1100,O,z,z,None,551,352.0,199.0,8,1,2192.9000000059605,195878.5,7252,elated,AF,C,195254,195254,193427,194537,193427,195619,195054,195054,195619,35
35,test,1,inc,1,m,Tue Nov 25 2025 13:21:57 GMT-0600 (Central Standard Time),200120.80000001192,kind,900,O,m,m,None,617,402.0,215.0,78,1,2042.800000011921,198078.0,7252,rock,AF,C,197253,197253,195626,196536,195627,197669,197037,197037,197669,36
36,test,1,inc,1,z,Tue Nov 25 2025 13:21:57 GMT-0600 (Central Standard Time),202353.70000001788,window,1100,O,z,z,None,584,385.0,199.0,32,1,2225.9000000059605,200127.80000001192,7252,friend,AF,C,199502,199502,197676,198785,197676,199902,199302,199302,199902,37
37,test,1,con,1,m,Tue Nov 25 2025 13:21:57 GMT-0600 (Central Standard Time),204519.30000001192,window,1000,O,m,m,None,619,420.0,199.0,123,1,2159.0,202360.30000001192,7252,window,AF,C,201635,201635,199908,200919,199909,202067,201435,201435,202067,38
38,test,1,inc,1,z,Tue Nov 25 2025 13:21:57 GMT-0600 (Central Standard Time),206602.09999999404,bell,1000,O,z,z,None,543,344.0,199.0,47,1,2074.399999976158,204527.70000001788,7252,hate,AF,C,203800,203800,202076,203086,202076,204150,203601,203601,204150,39
39,test,1,con,1,z,Tue Nov 25 2025 13:21:57 GMT-0600 (Central Standard Time),208735.90000000596,elated,1100,O,z,z,None,494,294.0,200.0,4,1,2127.4000000059605,206608.5,7252,elated,AF,C,205984,205984,204157,205268,204157,206284,205783,205783,206284,40
40,test,1,con,1,z,Tue Nov 25 2025 13:21:57 GMT-0600 (Central Standard Time),210786.09999999404,kind,1000,O,z,z,None,502,302.0,200.0,11,1,2045.699999988079,208740.40000000596,7252,kind,AF,C,208016,208016,206288,207300,206289,208334,207816,207816,208334,41
41,test,1,con,1,z,Tue Nov 25 2025 13:21:57 GMT-0600 (Central Standard Time),212983.40000000596,rage,1000,O,z,z,None,659,460.0,199.0,51,1,2192.4000000059605,210791.0,7252,rage,AF,C,210067,210067,208339,209349,208339,210532,209867,209867,210531,42
42,test,1,inc,1,m,Tue Nov 25 2025 13:21:57 GMT-0600 (Central Standard Time),214999.5,love,1000,O,m,m,None,477,278.0,199.0,79,1,2004.699999988079,212994.80000001192,7252,rock,AF,C,212264,212264,210543,211548,210543,212548,212065,212065,212548,43
43,test,1,con,1,z,Tue Nov 25 2025 13:21:57 GMT-0600 (Central Standard Time),216865.90000000596,friend,800,O,z,z,None,526,327.0,199.0,25,1,1863.0,215002.90000000596,7252,friend,AF,C,214079,214079,212551,213363,212551,214414,213880,213880,214414,44
44,test,1,inc,1,m,Tue Nov 25 2025 13:21:57 GMT-0600 (Central Standard Time),218665.09999999404,rage,800,O,m,m,None,451,251.0,200.0,85,1,1795.5999999940395,216869.5,7252,bell,AF,C,215947,215947,214418,215230,214418,216213,215746,215746,216213,45
45,test,1,con,1,m,Tue Nov 25 2025 13:21:57 GMT-0600 (Central Standard Time),220664.70000001788,remote,900,O,m,m,None,561,361.0,200.0,114,1,1995.0,218669.70000001788,7252,remote,AF,C,217845,217845,216218,217129,216218,218213,217645,217645,218213,46
46,test,1,inc,1,m,Tue Nov 25 2025 13:21:57 GMT-0600 (Central Standard Time),222780.20000001788,friend,1100,O,m,m,None,480,280.0,200.0,104,1,2112.100000023842,220668.09999999404,7252,jacket,AF,C,220045,220046,218216,219329,218216,220328,219845,219845,220328,47
47,test,1,inc,1,m,Tue Nov 25 2025 13:21:57 GMT-0600 (Central Standard Time),224913.20000001788,friend,1100,O,m,m,None,509,310.0,199.0,112,1,2130.2000000178814,222783.0,7252,napkin,AF,C,222144,222144,220331,221443,220331,222461,221945,221945,222461,48
48,test,1,inc,1,z,Tue Nov 25 2025 13:21:57 GMT-0600 (Central Standard Time),226828.30000001192,jacket,800,O,z,z,None,572,373.0,199.0,5,1,1912.5,224915.80000001192,7252,elated,AF,C,223993,223993,222464,223278,222464,224376,223794,223794,224376,49
48,test,1,con,0,z,Tue Nov 25 2025 13:21:57 GMT-0600 (Central Standard Time),228795.09999999404,rage,900,O,m,m,None,524,324.0,200.0,50,1,1963.7999999821186,226831.30000001192,7252,rage,AF,C,226010,226010,224379,225294,224380,226343,225810,225810,226343,50
49,test,1,inc,1,m,Tue Nov 25 2025 13:21:57 GMT-0600 (Central Standard Time),230960.30000001192,love,1000,O,m,m,None,626,426.0,200.0,95,1,2162.5999999940395,228797.70000001788,7252,film,AF,C,228076,228076,226346,227359,226346,228508,227876,227876,228508,51
50,test,1,con,1,m,Tue Nov 25 2025 13:21:57 GMT-0600 (Central Standard Time),232827.59999999404,step,800,O,m,m,None,532,332.0,200.0,65,1,1864.3999999761581,230963.20000001788,7252,step,AF,C,230042,230042,228511,229325,228511,230376,229842,229842,230376,52
51,test,1,inc,1,m,Tue Nov 25 2025 13:21:57 GMT-0600 (Central Standard Time),235058.59999999404,temper,1000,O,m,m,None,690,490.0,200.0,119,1,2228.0,232830.59999999404,7252,remote,AF,C,232108,232108,230379,231391,230379,232607,231908,231908,232607,53
52,test,1,con,1,z,Tue Nov 25 2025 13:21:57 GMT-0600 (Central Standard Time),237242.5,kind,1100,O,z,z,None,542,342.0,200.0,12,1,2181.199999988079,235061.30000001192,7252,kind,AF,C,234440,234440,232609,233724,232610,234791,234240,234240,234791,54
53,test,1,con,1,z,Tue Nov 25 2025 13:21:57 GMT-0600 (Central Standard Time),239174.70000001788,brutal,900,O,z,z,None,497,296.0,201.0,34,1,1929.2000000178814,237245.5,7252,brutal,AF,C,236423,236423,234794,235706,234794,236723,236222,236222,236723,55
54,test,1,inc,1,m,Tue Nov 25 2025 13:21:57 GMT-0600 (Central Standard Time),241274.40000000596,love,1000,O,m,m,None,582,381.0,201.0,87,1,2096.300000011921,239178.09999999404,7252,bell,AF,C,238441,238441,236726,237739,236726,238822,238240,238240,238822,56
55,test,1,con,1,z,Tue Nov 25 2025 13:21:57 GMT-0600 (Central Standard Time),243223.09999999404,hate,800,O,z,z,None,603,403.0,200.0,41,1,1946.199999988079,241276.90000000596,7252,hate,AF,C,240355,240355,238825,239639,238825,240771,240155,240155,240771,57
56,test,1,inc,1,m,Tue Nov 25 2025 13:21:57 GMT-0600 (Central Standard Time),245356.30000001192,hate,1100,O,m,m,None,489,290.0,199.0,80,1,2129.300000011921,243227.0,7252,rock,AF,C,242604,242604,240775,241888,240775,242904,242405,242405,242904,58
57,test,1,con,1,m,Tue Nov 25 2025 13:21:57 GMT-0600 (Central Standard Time),247604.30000001192,bell,1000,O,m,m,None,704,505.0,199.0,83,1,2245.4000000059605,245358.90000000596,7252,bell,AF,C,244636,244636,242907,243921,242907,245152,244437,244437,245152,59
57,test,1,con,0,z,Tue Nov 25 2025 13:21:57 GMT-0600 (Central Standard Time),249671.80000001192,elated,900,O,m,m,None,628,427.0,201.0,2,1,2065.0,247606.80000001192,7252,elated,AF,C,246787,246787,245155,246070,245155,247220,246586,246586,247220,60
58,test,1,con,1,m,Tue Nov 25 2025 13:21:57 GMT-0600 (Central Standard Time),251788.0,bell,1100,O,m,m,None,473,273.0,200.0,84,1,2113.4000000059605,249674.59999999404,7252,bell,AF,C,249053,249053,247223,248335,247223,249336,248853,248853,249336,61
59,test,1,inc,1,m,Tue Nov 25 2025 13:21:57 GMT-0600 (Central Standard Time),253686.30000001192,elated,800,O,m,m,None,552,353.0,199.0,101,1,1895.800000011921,251790.5,7252,jacket,AF,C,250868,250868,249339,250152,249339,251234,250669,250669,251234,62
60,test,1,inc,1,m,Tue Nov 25 2025 13:21:57 GMT-0600 (Central Standard Time),255770.40000000596,temper,1000,O,m,m,None,550,349.0,201.0,111,1,2081.300000011921,253689.09999999404,7252,napkin,AF,C,252969,252969,251237,252252,251237,253318,252768,252768,253318,63
60,test,1,con,0,m,Tue Nov 25 2025 13:21:57 GMT-0600 (Central Standard Time),257668.59999999404,remote,800,O,z,z,None,569,355.0,214.0,113,1,1895.5999999940395,255773.0,7252,remote,AF,C,254851,254851,253321,254134,253321,255217,254636,254636,255217,64
61,test,1,inc,1,z,Tue Nov 25 2025 13:21:57 GMT-0600 (Central Standard Time),259985.59999999404,film,1100,O,z,z,None,676,477.0,199.0,56,1,2314.0999999940395,257671.5,7252,rage,AF,C,257050,257050,255220,256334,255220,257534,256851,256851,257534,65
62,test,1,inc,1,m,Tue Nov 25 2025 13:21:57 GMT-0600 (Central Standard Time),262117.80000001192,hate,1100,O,m,m,None,513,314.0,199.0,96,1,2128.0999999940395,259989.70000001788,7252,film,AF,C,259349,259349,257538,258649,257538,259666,259150,259150,259666,66
63,test,1,inc,1,m,Tue Nov 25 2025 13:21:57 GMT-0600 (Central Standard Time),264035.2000000179,kind,900,O,m,m,None,483,284.0,199.0,86,1,1914.300000011921,262120.90000000596,7252,bell,AF,C,261283,261283,259669,260583,259669,261583,261084,261084,261583,67
64,test,1,inc,1,z,Tue Nov 25 2025 13:21:57 GMT-0600 (Central Standard Time),266050.5,bell,1000,O,z,z,None,490,291.0,199.0,55,1,2011.699999988079,264038.8000000119,7252,rage,AF,C,263299,263299,261587,262599,261587,263599,263100,263100,263599,68
65,test,1,con,1,m,Tue Nov 25 2025 13:21:57 GMT-0600 (Central Standard Time),268000.09999999404,window,900,O,m,m,None,503,302.0,201.0,122,1,1946.5,266053.59999999404,7252,window,AF,C,265233,265233,263602,264517,263602,265548,265032,265032,265548,69
66,test,1,con,1,z,Tue Nov 25 2025 13:21:57 GMT-0600 (Central Standard Time),270050.2000000179,friend,1000,O,z,z,None,502,300.0,202.0,27,1,2046.300000011921,268003.90000000596,7252,friend,AF,C,267283,267283,265552,266566,265552,267598,267080,267080,267598,70
67,test,1,inc,1,m,Tue Nov 25 2025 13:21:57 GMT-0600 (Central Standard Time),271982.7000000179,brutal,900,O,m,m,None,499,298.0,201.0,110,1,1927.0,270055.7000000179,7252,napkin,AF,C,269232,269232,267604,268516,267604,269531,269031,269031,269531,71
68,test,1,con,1,z,Tue Nov 25 2025 13:21:57 GMT-0600 (Central Standard Time),273948.2000000179,kind,900,O,z,z,None,532,331.0,201.0,10,1,1961.5,271986.7000000179,7252,kind,AF,C,271165,271165,269535,270448,269535,271496,270963,270963,271496,72
69,test,1,con,1,z,Tue Nov 25 2025 13:21:57 GMT-0600 (Central Standard Time),276186.8000000119,hate,1100,O,z,z,None,602,402.0,200.0,44,1,2235.4000000059605,273951.40000000596,7252,hate,AF,C,273329,273329,271499,272612,271500,273735,273129,273129,273731,73
70,test,1,inc,1,z,Tue Nov 25 2025 13:21:57 GMT-0600 (Central Standard Time),278264.3000000119,window,1100,O,z,z,None,460,245.0,215.0,64,1,2074.0999999940395,276190.2000000179,7252,temper,AF,C,275562,275562,273738,274845,273738,275812,275346,275347,275812,74
71,test,1,con,1,m,Tue Nov 25 2025 13:21:57 GMT-0600 (Central Standard Time),280428.8000000119,remote,1100,O,m,m,None,532,332.0,200.0,116,1,2160.5,278268.3000000119,7252,remote,AF,C,277645,277645,275816,276929,275817,277977,277445,277445,277977,75
72,test,1,inc,1,z,Tue Nov 25 2025 13:21:57 GMT-0600 (Central Standard Time),282495.09999999404,rock,900,O,z,z,None,642,428.0,214.0,54,1,2062.699999988079,280432.40000000596,7252,rage,AF,C,279610,279610,277980,278893,277981,280043,279396,279396,280043,76
73,test,1,con,1,m,Tue Nov 25 2025 13:21:57 GMT-0600 (Central Standard Time),284361.7000000179,jacket,800,O,m,m,None,518,317.0,201.0,97,1,1863.800000011921,282497.90000000596,7252,jacket,AF,C,281577,281577,280046,280860,280046,281910,281376,281376,281910,77
74,test,1,inc,1,z,Tue Nov 25 2025 13:21:57 GMT-0600 (Central Standard Time),286260.59999999404,rock,900,O,z,z,None,467,266.0,201.0,46,1,1894.2999999821186,284366.3000000119,7252,hate,AF,C,283543,283543,281914,282827,281915,283809,283342,283342,283809,78
75,test,1,inc,1,z,Tue Nov 25 2025 13:21:57 GMT-0600 (Central Standard Time),288243.8000000119,napkin,900,O,z,z,None,549,350.0,199.0,38,1,1980.0,286263.8000000119,7252,brutal,AF,C,285442,285442,283812,284726,283812,285792,285243,285243,285792,79
76,test,1,inc,1,m,Tue Nov 25 2025 13:21:57 GMT-0600 (Central Standard Time),290093.2000000179,rage,800,O,m,m,None,516,316.0,200.0,69,1,1845.0,288248.2000000179,7252,step,AF,C,287325,287325,285796,286608,285796,287641,287125,287125,287641,80
77,test,1,inc,1,z,Tue Nov 25 2025 13:21:57 GMT-0600 (Central Standard Time),292060.2000000179,step,800,O,z,z,None,617,417.0,200.0,13,1,1963.300000011921,290096.90000000596,7252,kind,AF,C,289174,289174,287645,288458,287645,289608,288974,288974,289608,81
78,test,1,inc,1,z,Tue Nov 25 2025 13:21:57 GMT-0600 (Central Standard Time),294041.2000000179,napkin,900,O,z,z,None,534,319.0,215.0,62,1,1976.0,292065.2000000179,7252,temper,AF,C,291255,291255,289613,290523,289613,291589,291040,291040,291589,82
79,test,1,con,1,z,Tue Nov 25 2025 13:21:57 GMT-0600 (Central Standard Time),296423.09999999404,elated,1000,O,z,z,None,832,619.0,213.0,3,1,2379.2999999821186,294043.8000000119,7252,elated,AF,C,293339,293339,291592,292609,291592,293971,293125,293125,293971,83
79,test,1,inc,0,z,Tue Nov 25 2025 13:21:57 GMT-0600 (Central Standard Time),298873.59999999404,bell,1000,O,m,m,None,910,711.0,199.0,23,1,2446.899999976158,296426.7000000179,7252,love,AF,C,295704,295704,293975,294989,293975,296422,295505,295505,296422,84
80,test,1,con,1,m,Tue Nov 25 2025 13:21:57 GMT-0600 (Central Standard Time),301072.90000000596,rock,1100,O,m,m,None,577,378.0,199.0,76,1,2194.699999988079,298878.2000000179,7252,rock,AF,C,298237,298237,296426,297529,296426,298621,298037,298037,298621,85
81,test,1,con,1,z,Tue Nov 25 2025 13:21:57 GMT-0600 (Central Standard Time),302955.09999999404,rage,800,O,z,z,None,541,341.0,200.0,49,1,1877.2999999821186,301077.8000000119,7252,rage,AF,C,300153,300153,298626,299439,298626,300503,299953,299953,300503,86
82,test,1,inc,1,z,Tue Nov 25 2025 13:21:57 GMT-0600 (Central Standard Time),305020.59999999404,bell,1000,O,z,z,None,532,332.0,200.0,15,1,2062.899999976158,302957.7000000179,7252,kind,AF,C,302220,302220,300506,301519,300506,302569,302020,302020,302569,87
83,test,1,con,1,m,Tue Nov 25 2025 13:21:57 GMT-0600 (Central Standard Time),307020.3000000119,bell,900,O,m,m,None,556,356.0,200.0,82,1,1995.0,305025.3000000119,7252,bell,AF,C,304202,304202,302573,303486,302574,304568,304002,304002,304568,88
84,test,1,inc,1,m,Tue Nov 25 2025 13:21:57 GMT-0600 (Central Standard Time),309020.3000000119,kind,900,O,m,m,None,580,381.0,199.0,94,1,1996.0,307024.3000000119,7252,film,AF,C,306186,306186,304572,305485,304572,306568,305987,305987,306568,89
85,test,1,inc,1,m,Tue Nov 25 2025 13:21:57 GMT-0600 (Central Standard Time),311252.5,hate,1100,O,m,m,None,590,389.0,201.0,88,1,2228.0999999940395,309024.40000000596,7252,bell,AF,C,308401,308401,306572,307685,306573,308801,308200,308200,308801,90
86,test,1,con,1,m,Tue Nov 25 2025 13:21:57 GMT-0600 (Central Standard Time),313452.5,step,900,O,m,m,None,765,566.0,199.0,66,1,2196.0,311256.5,7252,step,AF,C,310433,310433,308805,309719,308805,311001,310234,310234,311001,91
87,test,1,inc,1,m,Tue Nov 25 2025 13:21:57 GMT-0600 (Central Standard Time),315417.5,brutal,900,O,m,m,None,516,317.0,199.0,102,1,1961.7999999821186,313455.7000000179,7252,jacket,AF,C,312633,312633,311004,311917,311004,312966,312433,312433,312965,92
88,test,1,con,1,z,Tue Nov 25 2025 13:21:57 GMT-0600 (Central Standard Time),317484.40000000596,kind,800,O,z,z,None,723,524.0,199.0,9,1,2062.300000011921,315422.09999999404,7252,kind,AF,C,314499,314499,312970,313783,312970,315032,314299,314299,315032,93
89,test,1,con,1,z,Tue Nov 25 2025 13:21:57 GMT-0600 (Central Standard Time),319482.90000000596,love,800,O,z,z,None,666,467.0,199.0,17,1,1991.699999988079,317491.2000000179,7252,love,AF,C,316548,316548,315039,315848,315039,317031,316349,316349,317031,94
90,test,1,con,1,m,Tue Nov 25 2025 13:21:57 GMT-0600 (Central Standard Time),321465.8000000119,rock,900,O,m,m,None,534,335.0,199.0,74,1,1976.9000000059605,319488.90000000596,7252,rock,AF,C,318664,318664,317037,317950,317037,319014,318465,318465,319014,95
91,test,1,con,1,m,Tue Nov 25 2025 13:21:57 GMT-0600 (Central Standard Time),323437.40000000596,rock,1000,O,m,m,None,444,245.0,199.0,75,1,1963.300000011921,321474.09999999404,7252,rock,AF,C,320730,320730,319022,320030,319022,320985,320531,320531,320985,96
92,test,1,inc,1,z,Tue Nov 25 2025 13:21:57 GMT-0600 (Central Standard Time),325447.5,remote,1000,O,z,z,None,477,277.0,200.0,63,1,2006.199999988079,323441.3000000119,7252,temper,AF,C,322714,322714,320989,321998,320990,322996,322513,322513,322996,97
93,test,1,inc,1,m,Tue Nov 25 2025 13:21:57 GMT-0600 (Central Standard Time),327647.2000000179,friend,1100,O,m,m,None,560,361.0,199.0,120,1,2193.9000000059605,325453.3000000119,7252,remote,AF,C,324829,324829,323001,324113,323002,325195,324629,324629,325195,98
94,test,1,con,1,m,Tue Nov 25 2025 13:21:57 GMT-0600 (Central Standard Time),329879.59999999404,film,1100,O,m,m,None,584,384.0,200.0,92,1,2228.199999988079,327651.40000000596,7252,film,AF,C,327030,327030,325199,326313,325200,327428,326828,326829,327428,99
95,test,1,con,1,z,Tue Nov 25 2025 13:21:57 GMT-0600 (Central Standard Time),332028.90000000596,hate,1000,O,z,z,None,614,414.0,200.0,43,1,2143.5,329885.40000000596,7252,hate,AF,C,329161,329161,327433,328444,327434,329577,328961,328961,329577,100
96,test,1,inc,1,m,Tue Nov 25 2025 13:21:57 GMT-0600 (Central Standard Time),334079.3000000119,kind,900,O,m,m,None,603,401.0,202.0,70,1,2043.2000000178814,332036.09999999404,7252,step,AF,C,331213,331213,329584,330494,329584,331627,331010,331010,331627,101
97,test,1,inc,1,z,Tue Nov 25 2025 13:21:57 GMT-0600 (Central Standard Time),336078.3000000119,remote,1000,O,z,z,None,460,246.0,214.0,39,1,1992.9000000059605,334085.40000000596,7252,brutal,AF,C,333377,333377,331633,332645,331634,333626,333162,333162,333626,102
98,test,1,con,1,m,Tue Nov 25 2025 13:21:57 GMT-0600 (Central Standard Time),338193.59999999404,jacket,1000,O,m,m,None,575,376.0,199.0,99,1,2108.199999988079,336085.40000000596,7252,jacket,AF,C,335359,335359,333633,334644,333634,335742,335159,335159,335742,103
99,test,1,con,1,m,Tue Nov 25 2025 13:21:57 GMT-0600 (Central Standard Time),340376.59999999404,napkin,1100,O,m,m,None,552,353.0,199.0,108,1,2176.0999999940395,338200.5,7252,napkin,AF,C,337558,337558,335749,336858,335749,337925,337359,337359,337925,104
100,test,1,inc,1,z,Tue Nov 25 2025 13:21:57 GMT-0600 (Central Standard Time),342426.90000000596,napkin,900,O,z,z,None,608,408.0,200.0,6,1,2042.699999988079,340384.2000000179,7252,elated,AF,C,339559,339559,337932,338842,337933,339975,339358,339358,339975,105
101,test,1,con,1,z,Tue Nov 25 2025 13:21:57 GMT-0600 (Central Standard Time),344807.90000000596,brutal,1100,O,z,z,None,735,536.0,199.0,36,1,2376.699999988079,342431.2000000179,7252,brutal,AF,C,341806,341806,339979,341090,339980,342356,341607,341607,342356,106
102,test,1,inc,1,m,Tue Nov 25 2025 13:21:57 GMT-0600 (Central Standard Time),347024.7000000179,hate,1100,O,m,m,None,577,376.0,201.0,72,1,2213.100000023842,344811.59999999404,7252,step,AF,C,344190,344190,342360,343473,342360,344573,343989,343989,344573,107
103,test,1,con,1,z,Tue Nov 25 2025 13:21:57 GMT-0600 (Central Standard Time),349657.40000000596,temper,900,O,z,z,None,1192,977.0,215.0,58,1,2625.0999999940395,347032.3000000119,7252,temper,AF,C,346222,346222,344580,345489,344581,347205,346007,346007,347205,108
104,test,1,inc,1,z,Tue Nov 25 2025 13:21:57 GMT-0600 (Central Standard Time),351789.0,film,1100,O,z,z,None,499,299.0,200.0,48,1,2126.2999999821186,349662.7000000179,7252,hate,AF,C,349038,349038,347211,348322,347211,349337,348838,348838,349337,109
105,test,1,con,1,m,Tue Nov 25 2025 13:21:57 GMT-0600 (Central Standard Time),353721.59999999404,window,800,O,m,m,None,583,383.0,200.0,121,1,1926.5,351795.09999999404,7252,window,AF,C,350871,350871,349343,350154,349343,351270,350671,350671,351270,110
105,test,1,con,0,m,Tue Nov 25 2025 13:21:57 GMT-0600 (Central Standard Time),355838.5,remote,1000,O,z,z,None,576,377.0,199.0,115,1,2114.0999999940395,353724.40000000596,7252,remote,AF,C,353005,353005,351272,352289,351273,353387,352805,352805,353387,111
106,test,1,con,1,m,Tue Nov 25 2025 13:21:57 GMT-0600 (Central Standard Time),357754.0,napkin,800,O,m,m,None,590,375.0,215.0,105,1,1911.699999988079,355842.3000000119,7252,napkin,AF,C,354919,354919,353390,354203,353390,355302,354704,354704,355302,112
107,test,1,con,1,z,Tue Nov 25 2025 13:21:57 GMT-0600 (Central Standard Time),359953.90000000596,rage,1100,O,z,z,None,559,359.0,200.0,52,1,2197.0999999940395,357756.8000000119,7252,rage,AF,C,357136,357136,355305,356420,355305,357502,356935,356935,357502,113
108,test,1,con,1,z,Tue Nov 25 2025 13:21:57 GMT-0600 (Central Standard Time),362503.3000000119,friend,1100,O,z,z,None,903,703.0,200.0,28,1,2545.300000011921,359958.0,7252,friend,AF,C,359335,359335,357506,358618,357506,360051,359135,359135,360051,114
109,test,1,con,1,m,Tue Nov 25 2025 13:21:57 GMT-0600 (Central Standard Time),364618.7000000179,step,1000,O,m,m,None,572,373.0,199.0,67,1,2112.0,362506.7000000179,7252,step,AF,C,361785,361785,360055,361068,360055,362167,361586,361586,362167,115
110,test,1,inc,1,m,Tue Nov 25 2025 13:21:57 GMT-0600 (Central Standard Time),366801.8000000119,rage,800,O,m,m,None,842,643.0,199.0,93,1,2177.4000000059605,364624.40000000596,7252,film,AF,C,363700,363700,362172,362985,362173,364350,363501,363501,364350,116
111,test,1,inc,1,z,Tue Nov 25 2025 13:21:57 GMT-0600 (Central Standard Time),368967.3000000119,film,1100,O,z,z,None,520,320.0,200.0,16,1,2160.800000011921,366806.5,7252,kind,AF,C,366184,366184,364355,365466,364355,366515,365983,365983,366515,117
112,test,1,inc,1,z,Tue Nov 25 2025 13:21:57 GMT-0600 (Central Standard Time),370834.2000000179,step,800,O,z,z,None,516,316.0,200.0,53,1,1862.300000011921,368971.90000000596,7252,rage,AF,C,368050,368050,366520,367332,366520,368382,367850,367850,368382,118
113,test,1,con,1,m,Tue Nov 25 2025 13:21:57 GMT-0600 (Central Standard Time),372667.8000000119,bell,800,O,m,m,None,484,284.0,200.0,81,1,1829.4000000059605,370838.40000000596,7252,bell,AF,C,369915,369915,368386,369198,368387,370216,369715,369715,370216,119
114,test,1,inc,1,m,Tue Nov 25 2025 13:21:57 GMT-0600 (Central Standard Time),374648.59999999404,elated,800,O,m,m,None,633,416.0,217.0,117,1,1974.5999999940395,372674.0,7252,remote,AF,C,371766,371766,370222,371031,370222,372197,371548,371548,372197,120
115,test,1,inc,1,z,Tue Nov 25 2025 13:21:57 GMT-0600 (Central Standard Time),376516.90000000596,step,800,O,z,z,None,523,323.0,200.0,45,1,1864.9000000059605,374652.0,7252,hate,AF,C,373732,373732,372200,373014,372200,374065,373530,373530,374065,121
116,test,1,inc,1,z,Tue Nov 25 2025 13:21:57 GMT-0600 (Central Standard Time),378767.7000000179,jacket,800,O,z,z,None,905,689.0,216.0,61,1,2247.2000000178814,376520.5,7252,temper,AF,C,375613,375613,374069,374881,374069,376316,375397,375397,376316,122
117,test,1,inc,1,z,Tue Nov 25 2025 13:21:57 GMT-0600 (Central Standard Time),380830.2000000179,film,1100,O,z,z,None,427,211.0,216.0,24,1,2057.4000000059605,378772.8000000119,7252,love,AF,C,378164,378164,376321,377429,376321,378378,377947,377947,378378,123
118,test,1,inc,1,z,Tue Nov 25 2025 13:21:57 GMT-0600 (Central Standard Time),382531.3000000119,step,800,O,z,z,None,368,167.0,201.0,21,1,1698.5,380832.8000000119,7252,love,AF,C,379912,379912,378381,379197,378381,380079,379711,379711,380079,124
119,test,1,con,1,m,Tue Nov 25 2025 13:21:57 GMT-0600 (Central Standard Time),384478.90000000596,jacket,900,O,m,m,None,504,303.0,201.0,98,1,1943.300000011921,382535.59999999404,7252,jacket,AF,C,381712,381712,380084,380997,380084,382027,381511,381511,382027,125
120,test,1,inc,1,z,Tue Nov 25 2025 13:21:57 GMT-0600 (Central Standard Time),386646.09999999404,remote,1000,O,z,z,None,631,430.0,201.0,7,1,2164.5999999940395,384481.5,7252,elated,AF,C,383760,383760,382030,383045,382030,384194,383559,383559,384194,126
121,test,1,con,1,m,Tue Nov 25 2025 13:21:57 GMT-0600 (Central Standard Time),388629.09999999404,film,900,O,m,m,None,550,351.0,199.0,90,1,1979.0999999940395,386650.0,7252,film,AF,C,385826,385826,384198,385111,384198,386177,385626,385626,386177,127
122,test,1,con,1,z,Tue Nov 25 2025 13:21:57 GMT-0600 (Central Standard Time),390810.5,temper,1000,O,z,z,None,648,432.0,216.0,59,1,2176.7999999821186,388633.7000000179,7252,temper,AF,C,387910,387910,386182,387192,386182,388359,387693,387694,388359,128
