Number,acc_sum,block,block_c,block_cond,con_img,correct,correct_response,datetime,endtime,jitter,project,response,response_time,row_sel,session_number,start_end,starttime,subject_id,task,task_vers,trial
4,1,prac,1,A,circle.png,1,z,Mon Mar 30 2026 09:10:37 GMT-0400 (Eastern Daylight Time),73458.60000002384,1400,I,z,1032,4,1,3222.399999976158,70236.20000004768,9071,NTS,C,1
1,2,prac,1,A,circle.png,1,z,Mon Mar 30 2026 09:10:37 GMT-0400 (Eastern Daylight Time),75991.70000004768,1000,I,z,745,1,1,2522.2999999523163,73469.40000009537,9071,NTS,C,2
7,3,prac,1,A,circle.png,1,m,Mon Mar 30 2026 09:10:37 GMT-0400 (Eastern Daylight Time),79241.60000002384,1700,I,m,760,6,1,3238.7999999523163,76002.80000007153,9071,NTS,C,3
2,4,prac,1,A,circle.png,1,z,Mon Mar 30 2026 09:10:37 GMT-0400 (Eastern Daylight Time),82641.70000004768,2000,I,z,602,2,1,3388.899999976158,79252.80000007153,9071,NTS,C,4
8,5,prac,1,A,circle.png,1,m,Mon Mar 30 2026 09:10:37 GMT-0400 (Eastern Daylight Time),85941.60000002384,1600,I,m,913,7,1,3289.1999999284744,82652.40000009537,9071,NTS,C,5
3,6,prac,1,A,circle.png,1,z,Mon Mar 30 2026 09:10:37 GMT-0400 (Eastern Daylight Time),88674.90000009537,1200,I,z,734,3,1,2721.5,85953.40000009537,9071,NTS,C,6
9,7,prac,1,A,circle.png,1,m,Mon Mar 30 2026 09:10:37 GMT-0400 (Eastern Daylight Time),91641.60000002384,1500,I,m,677,8,1,2955.5,88686.10000002384,9071,NTS,C,7
2,8,prac,1,A,circle.png,1,z,Mon Mar 30 2026 09:10:37 GMT-0400 (Eastern Daylight Time),94991.5,2000,I,z,555,2,1,3336.399999976158,91655.10000002384,9071,NTS,C,8
4,9,prac,1,A,circle.png,1,z,Mon Mar 30 2026 09:10:37 GMT-0400 (Eastern Daylight Time),98474.80000007153,1400,I,z,1293,4,1,3473.7000000476837,95001.10000002384,9071,NTS,C,9
6,10,prac,1,A,circle.png,1,m,Mon Mar 30 2026 09:10:37 GMT-0400 (Eastern Daylight Time),101841.5,1900,I,m,669,5,1,3356.1999999284744,98485.30000007153,9071,NTS,C,10
7,11,prac,1,A,circle.png,1,m,Mon Mar 30 2026 09:10:37 GMT-0400 (Eastern Daylight Time),105108.60000002384,1700,I,m,783,6,1,3256.899999976158,101851.70000004768,9071,NTS,C,11
3,12,prac,1,A,circle.png,1,z,Mon Mar 30 2026 09:10:37 GMT-0400 (Eastern Daylight Time),107791.5,1200,I,z,688,3,1,2675.399999976158,105116.10000002384,9071,NTS,C,12
8,1,prac,1,B,triangle.png,1,m,Mon Mar 30 2026 09:10:37 GMT-0400 (Eastern Daylight Time),144974.80000007153,1200,I,m,1189,7,1,3173.7000000476837,141801.10000002384,9071,NTS,C,1
9,2,prac,1,B,triangle.png,1,z,Mon Mar 30 2026 09:10:37 GMT-0400 (Eastern Daylight Time),147841.40000009537,1400,I,z,670,8,1,2855.8000000715256,144985.60000002384,9071,NTS,C,2
1,2,prac,1,B,triangle.png,0,z,Mon Mar 30 2026 09:10:37 GMT-0400 (Eastern Daylight Time),152041.20000004768,1900,I,None,1516,1,1,4187.299999952316,147853.90000009537,9071,NTS,C,3
9,2,prac,1,B,triangle.png,0,z,Mon Mar 30 2026 09:10:37 GMT-0400 (Eastern Daylight Time),155741.40000009537,1400,I,None,1515,8,1,3689.9000000953674,152051.5,9071,NTS,C,4
4,3,prac,1,B,triangle.png,1,m,Mon Mar 30 2026 09:10:37 GMT-0400 (Eastern Daylight Time),159308.0,1500,I,m,1275,4,1,3554.7999999523163,155753.20000004768,9071,NTS,C,5
6,4,prac,1,B,triangle.png,1,m,Mon Mar 30 2026 09:10:37 GMT-0400 (Eastern Daylight Time),162024.70000004768,1000,I,m,929,5,1,2703.600000023842,159321.10000002384,9071,NTS,C,6
2,5,prac,1,B,triangle.png,1,m,Mon Mar 30 2026 09:10:37 GMT-0400 (Eastern Daylight Time),165308.0,1700,I,m,791,2,1,3272.0,162036.0,9071,NTS,C,7
3,6,prac,1,B,triangle.png,1,z,Mon Mar 30 2026 09:10:37 GMT-0400 (Eastern Daylight Time),168374.80000007153,1600,I,z,681,3,1,3056.600000023842,165318.20000004768,9071,NTS,C,8
4,7,prac,1,B,triangle.png,1,m,Mon Mar 30 2026 09:10:37 GMT-0400 (Eastern Daylight Time),171374.70000004768,1500,I,m,706,4,1,2989.7999999523163,168384.90000009537,9071,NTS,C,9
8,8,prac,1,B,triangle.png,1,m,Mon Mar 30 2026 09:10:37 GMT-0400 (Eastern Daylight Time),174141.40000009537,1200,I,m,774,7,1,2756.9000000953674,171384.5,9071,NTS,C,10
7,9,prac,1,B,triangle.png,1,z,Mon Mar 30 2026 09:10:37 GMT-0400 (Eastern Daylight Time),177808.10000002384,2000,I,z,871,6,1,3656.5,174151.60000002384,9071,NTS,C,11
1,10,prac,1,B,triangle.png,1,z,Mon Mar 30 2026 09:10:37 GMT-0400 (Eastern Daylight Time),181108.20000004768,1900,I,z,600,1,1,3290.2000000476837,177818.0,9071,NTS,C,12
9,1,test,1,A,circle.png,1,m,Mon Mar 30 2026 09:10:37 GMT-0400 (Eastern Daylight Time),216658.0,1500,I,m,734,8,1,2256.1999999284744,214401.80000007153,9071,NTS,C,1
8,2,test,1,A,circle.png,1,m,Mon Mar 30 2026 09:10:37 GMT-0400 (Eastern Daylight Time),219374.40000009537,1600,I,m,1090,7,1,2706.8000000715256,216667.60000002384,9071,NTS,C,2
2,3,test,1,A,circle.png,1,z,Mon Mar 30 2026 09:10:37 GMT-0400 (Eastern Daylight Time),221974.40000009537,2000,I,z,581,2,1,2591.0,219383.40000009537,9071,NTS,C,3
7,4,test,1,A,circle.png,1,m,Mon Mar 30 2026 09:10:37 GMT-0400 (Eastern Daylight Time),224407.70000004768,1700,I,m,713,6,1,2423.2999999523163,221984.40000009537,9071,NTS,C,4
1,5,test,1,A,circle.png,1,z,Mon Mar 30 2026 09:10:37 GMT-0400 (Eastern Daylight Time),226224.30000007153,1000,I,z,788,1,1,1806.3000000715256,224418.0,9071,NTS,C,5
6,6,test,1,A,circle.png,1,m,Mon Mar 30 2026 09:10:37 GMT-0400 (Eastern Daylight Time),228891.10000002384,1900,I,m,742,5,1,2657.2999999523163,226233.80000007153,9071,NTS,C,6
8,7,test,1,A,circle.png,1,m,Mon Mar 30 2026 09:10:37 GMT-0400 (Eastern Daylight Time),231424.5,1600,I,m,904,7,1,2522.399999976158,228902.10000002384,9071,NTS,C,7
3,8,test,1,A,circle.png,1,z,Mon Mar 30 2026 09:10:37 GMT-0400 (Eastern Daylight Time),233291.10000002384,1200,I,z,643,3,1,1857.7999999523163,231433.30000007153,9071,NTS,C,8
2,9,test,1,A,circle.png,1,z,Mon Mar 30 2026 09:10:37 GMT-0400 (Eastern Daylight Time),235957.70000004768,2000,I,z,633,2,1,2659.100000023842,233298.60000002384,9071,NTS,C,9
3,10,test,1,A,circle.png,1,z,Mon Mar 30 2026 09:10:37 GMT-0400 (Eastern Daylight Time),237841.20000004768,1200,I,z,654,3,1,1872.2999999523163,235968.90000009537,9071,NTS,C,10
9,11,test,1,A,circle.png,1,m,Mon Mar 30 2026 09:10:37 GMT-0400 (Eastern Daylight Time),239857.90000009537,1500,I,m,486,8,1,2007.9000000953674,237850.0,9071,NTS,C,11
2,12,test,1,A,circle.png,1,z,Mon Mar 30 2026 09:10:37 GMT-0400 (Eastern Daylight Time),242424.40000009537,2000,I,z,546,2,1,2558.100000023842,239866.30000007153,9071,NTS,C,12
9,13,test,1,A,circle.png,1,m,Mon Mar 30 2026 09:10:37 GMT-0400 (Eastern Daylight Time),244457.70000004768,1500,I,m,512,8,1,2024.1000000238419,242433.60000002384,9071,NTS,C,13
1,14,test,1,A,circle.png,1,z,Mon Mar 30 2026 09:10:37 GMT-0400 (Eastern Daylight Time),246041.20000004768,1000,I,z,562,1,1,1575.7000000476837,244465.5,9071,NTS,C,14
4,15,test,1,A,circle.png,1,z,Mon Mar 30 2026 09:10:37 GMT-0400 (Eastern Daylight Time),248474.5,1400,I,z,1011,4,1,2422.0999999046326,246052.40000009537,9071,NTS,C,15
4,16,test,1,A,circle.png,1,z,Mon Mar 30 2026 09:10:37 GMT-0400 (Eastern Daylight Time),250358.0,1400,I,z,465,4,1,1874.2999999523163,248483.70000004768,9071,NTS,C,16
1,17,test,1,A,circle.png,1,z,Mon Mar 30 2026 09:10:37 GMT-0400 (Eastern Daylight Time),251941.20000004768,1000,I,z,549,1,1,1572.7999999523163,250368.40000009537,9071,NTS,C,17
7,18,test,1,A,circle.png,1,m,Mon Mar 30 2026 09:10:37 GMT-0400 (Eastern Daylight Time),254207.90000009537,1700,I,m,539,6,1,2257.9000000953674,251950.0,9071,NTS,C,18
7,19,test,1,A,circle.png,1,m,Mon Mar 30 2026 09:10:37 GMT-0400 (Eastern Daylight Time),256574.60000002384,1700,I,m,640,6,1,2356.100000023842,254218.5,9071,NTS,C,19
8,20,test,1,A,circle.png,1,m,Mon Mar 30 2026 09:10:37 GMT-0400 (Eastern Daylight Time),258741.20000004768,1600,I,m,532,7,1,2157.7999999523163,256583.40000009537,9071,NTS,C,20
6,21,test,1,A,circle.png,1,m,Mon Mar 30 2026 09:10:37 GMT-0400 (Eastern Daylight Time),261557.60000002384,1900,I,m,883,5,1,2806.100000023842,258751.5,9071,NTS,C,21
3,22,test,1,A,circle.png,1,z,Mon Mar 30 2026 09:10:37 GMT-0400 (Eastern Daylight Time),263441.10000002384,1200,I,z,654,3,1,1874.3999999761581,261566.70000004768,9071,NTS,C,22
7,23,test,1,A,circle.png,1,m,Mon Mar 30 2026 09:10:37 GMT-0400 (Eastern Daylight Time),265857.8000000715,1700,I,m,687,6,1,2406.8000000715256,263451.0,9071,NTS,C,23
3,24,test,1,A,circle.png,1,z,Mon Mar 30 2026 09:10:37 GMT-0400 (Eastern Daylight Time),267757.7000000477,1200,I,z,673,3,1,1891.2999999523163,265866.40000009537,9071,NTS,C,24
1,1,test,1,B,triangle.png,1,z,Mon Mar 30 2026 09:10:37 GMT-0400 (Eastern Daylight Time),287957.8000000715,1400,I,z,784,9,1,2209.5,285748.3000000715,9071,NTS,C,1
7,2,test,1,B,triangle.png,1,z,Mon Mar 30 2026 09:10:37 GMT-0400 (Eastern Daylight Time),290357.7000000477,1600,I,z,767,14,1,2388.7999999523163,287968.90000009537,9071,NTS,C,2
4,3,test,1,B,triangle.png,1,m,Mon Mar 30 2026 09:10:37 GMT-0400 (Eastern Daylight Time),292591.2000000477,1500,I,m,707,4,1,2224.7000000476837,290366.5,9071,NTS,C,3
8,4,test,1,B,triangle.png,1,m,Mon Mar 30 2026 09:10:37 GMT-0400 (Eastern Daylight Time),295141.2000000477,1700,I,m,816,15,1,2541.899999976158,292599.3000000715,9071,NTS,C,4
2,4,test,1,B,triangle.png,0,m,Mon Mar 30 2026 09:10:37 GMT-0400 (Eastern Daylight Time),297507.8000000715,1700,I,z,636,2,1,2357.7000000476837,295150.10000002384,9071,NTS,C,5
7,5,test,1,B,triangle.png,1,z,Mon Mar 30 2026 09:10:37 GMT-0400 (Eastern Daylight Time),300390.90000009537,2000,I,z,865,6,1,2873.7000000476837,297517.2000000477,9071,NTS,C,6
9,6,test,1,B,triangle.png,1,z,Mon Mar 30 2026 09:10:37 GMT-0400 (Eastern Daylight Time),302624.40000009537,1400,I,z,806,8,1,2223.9000000953674,300400.5,9071,NTS,C,7
8,7,test,1,B,triangle.png,1,m,Mon Mar 30 2026 09:10:37 GMT-0400 (Eastern Daylight Time),305091.10000002384,1700,I,m,736,15,1,2453.899999976158,302637.2000000477,9071,NTS,C,8
6,8,test,1,B,triangle.png,1,m,Mon Mar 30 2026 09:10:37 GMT-0400 (Eastern Daylight Time),306907.7000000477,1000,I,m,793,5,1,1807.6000000238419,305100.10000002384,9071,NTS,C,9
4,9,test,1,B,triangle.png,1,m,Mon Mar 30 2026 09:10:37 GMT-0400 (Eastern Daylight Time),308574.40000009537,1000,I,m,641,12,1,1658.8000000715256,306915.60000002384,9071,NTS,C,10
1,10,test,1,B,triangle.png,1,z,Mon Mar 30 2026 09:10:37 GMT-0400 (Eastern Daylight Time),311107.7000000477,1900,I,z,602,1,1,2525.399999976158,308582.3000000715,9071,NTS,C,11
1,11,test,1,B,triangle.png,1,z,Mon Mar 30 2026 09:10:37 GMT-0400 (Eastern Daylight Time),313724.40000009537,1900,I,z,693,1,1,2607.8000000715256,311116.60000002384,9071,NTS,C,12
6,12,test,1,B,triangle.png,1,m,Mon Mar 30 2026 09:10:37 GMT-0400 (Eastern Daylight Time),316091.10000002384,1500,I,m,844,13,1,2358.1999999284744,313732.90000009537,9071,NTS,C,13
2,13,test,1,B,triangle.png,1,m,Mon Mar 30 2026 09:10:37 GMT-0400 (Eastern Daylight Time),318341.0,1200,I,m,1017,10,1,2241.7999999523163,316099.2000000477,9071,NTS,C,14
9,14,test,1,B,triangle.png,1,z,Mon Mar 30 2026 09:10:37 GMT-0400 (Eastern Daylight Time),321107.7000000477,1900,I,z,836,16,1,2758.399999976158,318349.3000000715,9071,NTS,C,15
2,15,test,1,B,triangle.png,1,m,Mon Mar 30 2026 09:10:37 GMT-0400 (Eastern Daylight Time),323257.7000000477,1200,I,m,928,10,1,2141.600000023842,321116.10000002384,9071,NTS,C,16
6,16,test,1,B,triangle.png,1,m,Mon Mar 30 2026 09:10:37 GMT-0400 (Eastern Daylight Time),325657.60000002384,1500,I,m,879,13,1,2389.1999999284744,323268.40000009537,9071,NTS,C,17
7,17,test,1,B,triangle.png,1,z,Mon Mar 30 2026 09:10:37 GMT-0400 (Eastern Daylight Time),328357.60000002384,2000,I,z,667,6,1,2690.7999999523163,325666.8000000715,9071,NTS,C,18
7,18,test,1,B,triangle.png,1,z,Mon Mar 30 2026 09:10:37 GMT-0400 (Eastern Daylight Time),331190.8000000715,1600,I,z,1214,14,1,2824.899999976158,328365.90000009537,9071,NTS,C,19
3,19,test,1,B,triangle.png,1,z,Mon Mar 30 2026 09:10:37 GMT-0400 (Eastern Daylight Time),333474.2000000477,1600,I,z,653,3,1,2275.7000000476837,331198.5,9071,NTS,C,20
8,20,test,1,B,triangle.png,1,m,Mon Mar 30 2026 09:10:37 GMT-0400 (Eastern Daylight Time),335357.7000000477,1200,I,m,658,7,1,1874.5,333483.2000000477,9071,NTS,C,21
4,21,test,1,B,triangle.png,1,m,Mon Mar 30 2026 09:10:37 GMT-0400 (Eastern Daylight Time),337291.0,1000,I,m,911,12,1,1922.8999999761581,335368.10000002384,9071,NTS,C,22
3,22,test,1,B,triangle.png,1,z,Mon Mar 30 2026 09:10:37 GMT-0400 (Eastern Daylight Time),339957.8000000715,2000,I,z,650,11,1,2658.100000023842,337299.7000000477,9071,NTS,C,23
3,23,test,1,B,triangle.png,1,z,Mon Mar 30 2026 09:10:37 GMT-0400 (Eastern Daylight Time),342524.3000000715,2000,I,z,543,11,1,2559.0,339965.3000000715,9071,NTS,C,24
4,0,prac,1,C,circle.png,0,z,Mon Mar 30 2026 09:10:37 GMT-0400 (Eastern Daylight Time),452191.0,1000,I,None,1515,4,1,3290.5,448900.5,9071,NTS,C,1
4,0,prac,1,C,circle.png,0,z,Mon Mar 30 2026 09:10:37 GMT-0400 (Eastern Daylight Time),455490.90000009537,1000,I,None,1516,4,1,3286.100000023842,452204.8000000715,9071,NTS,C,2
2,0,prac,1,C,triangle.png,0,m,Mon Mar 30 2026 09:10:37 GMT-0400 (Eastern Daylight Time),459390.90000009537,1600,I,None,1516,2,1,3889.600000023842,455501.3000000715,9071,NTS,C,3
1,0,prac,1,C,circle.png,0,z,Mon Mar 30 2026 09:10:37 GMT-0400 (Eastern Daylight Time),463390.7000000477,1700,I,None,1516,1,1,3989.899999976158,459400.8000000715,9071,NTS,C,4
3,0,prac,1,C,triangle.png,0,z,Mon Mar 30 2026 09:10:37 GMT-0400 (Eastern Daylight Time),467190.8000000715,1500,I,None,1516,3,1,3787.2000000476837,463403.60000002384,9071,NTS,C,5
9,0,prac,1,C,circle.png,0,m,Mon Mar 30 2026 09:10:37 GMT-0400 (Eastern Daylight Time),471390.8000000715,1900,I,None,1516,8,1,4190.600000023842,467200.2000000477,9071,NTS,C,6
9,0,prac,1,C,circle.png,0,m,Mon Mar 30 2026 09:10:37 GMT-0400 (Eastern Daylight Time),475590.7000000477,1900,I,None,1516,8,1,4189.700000047684,471401.0,9071,NTS,C,7
6,1,prac,1,C,circle.png,1,m,Mon Mar 30 2026 09:10:37 GMT-0400 (Eastern Daylight Time),479790.90000009537,2000,I,m,1406,5,1,4190.600000023842,475600.3000000715,9071,NTS,C,8
8,1,prac,1,C,triangle.png,0,m,Mon Mar 30 2026 09:10:37 GMT-0400 (Eastern Daylight Time),483490.8000000715,1400,I,None,1516,7,1,3689.2000000476837,479801.60000002384,9071,NTS,C,9
2,2,prac,1,C,triangle.png,1,m,Mon Mar 30 2026 09:10:37 GMT-0400 (Eastern Daylight Time),486574.3000000715,1600,I,m,689,2,1,3073.7000000476837,483500.60000002384,9071,NTS,C,10
7,3,prac,1,C,triangle.png,1,z,Mon Mar 30 2026 09:10:37 GMT-0400 (Eastern Daylight Time),489457.60000002384,1200,I,z,886,6,1,2871.0,486586.60000002384,9071,NTS,C,11
7,4,prac,1,C,triangle.png,1,z,Mon Mar 30 2026 09:10:37 GMT-0400 (Eastern Daylight Time),492574.10000002384,1200,I,z,1122,6,1,3104.600000023842,489469.5,9071,NTS,C,12
3,1,prac,2,C,triangle.png,1,z,Mon Mar 30 2026 09:10:37 GMT-0400 (Eastern Daylight Time),504490.90000009537,1500,I,z,1477,3,1,3756.7000000476837,500734.2000000477,9071,NTS,C,1
1,1,prac,2,C,circle.png,0,z,Mon Mar 30 2026 09:10:37 GMT-0400 (Eastern Daylight Time),508490.7000000477,1700,I,None,1516,1,1,3990.2999999523163,504500.40000009537,9071,NTS,C,2
9,2,prac,2,C,circle.png,1,m,Mon Mar 30 2026 09:10:37 GMT-0400 (Eastern Daylight Time),512340.8000000715,1900,I,m,1165,8,1,3837.899999976158,508502.90000009537,9071,NTS,C,3
2,3,prac,2,C,triangle.png,1,m,Mon Mar 30 2026 09:10:37 GMT-0400 (Eastern Daylight Time),515924.2000000477,1600,I,m,1184,2,1,3574.2999999523163,512349.90000009537,9071,NTS,C,4
7,4,prac,2,C,triangle.png,1,z,Mon Mar 30 2026 09:10:37 GMT-0400 (Eastern Daylight Time),518890.2000000477,1200,I,z,976,6,1,2955.7999999523163,515934.40000009537,9071,NTS,C,5
9,5,prac,2,C,circle.png,1,m,Mon Mar 30 2026 09:10:37 GMT-0400 (Eastern Daylight Time),522774.10000002384,1900,I,m,1197,8,1,3877.100000023842,518897.0,9071,NTS,C,6
2,5,prac,2,C,triangle.png,0,m,Mon Mar 30 2026 09:10:37 GMT-0400 (Eastern Daylight Time),526407.5,1600,I,z,1247,2,1,3623.399999976158,522784.10000002384,9071,NTS,C,7
3,6,prac,2,C,triangle.png,1,z,Mon Mar 30 2026 09:10:37 GMT-0400 (Eastern Daylight Time),529957.6000000238,1500,I,z,1265,3,1,3540.5,526417.1000000238,9071,NTS,C,8
6,7,prac,2,C,circle.png,1,m,Mon Mar 30 2026 09:10:37 GMT-0400 (Eastern Daylight Time),533924.2000000477,2000,I,m,1166,5,1,3956.7999999523163,529967.4000000954,9071,NTS,C,9
8,8,prac,2,C,triangle.png,1,m,Mon Mar 30 2026 09:10:37 GMT-0400 (Eastern Daylight Time),537074.2000000477,1400,I,m,953,7,1,3140.2000000476837,533934.0,9071,NTS,C,10
6,9,prac,2,C,circle.png,1,m,Mon Mar 30 2026 09:10:37 GMT-0400 (Eastern Daylight Time),540557.5,2000,I,m,690,5,1,3473.1999999284744,537084.3000000715,9071,NTS,C,11
4,9,prac,2,C,circle.png,0,z,Mon Mar 30 2026 09:10:37 GMT-0400 (Eastern Daylight Time),543324.1000000238,1000,I,m,974,4,1,2756.5,540567.6000000238,9071,NTS,C,12
2,1,test,1,C,circle.png,1,z,Mon Mar 30 2026 09:10:37 GMT-0400 (Eastern Daylight Time),577057.4000000954,1700,I,z,1120,10,1,2842.3000000715256,574215.1000000238,9071,NTS,C,1
8,1,test,1,C,triangle.png,0,m,Mon Mar 30 2026 09:10:37 GMT-0400 (Eastern Daylight Time),580190.8000000715,1600,I,None,1516,7,1,3121.5,577069.3000000715,9071,NTS,C,2
1,2,test,1,C,triangle.png,1,z,Mon Mar 30 2026 09:10:37 GMT-0400 (Eastern Daylight Time),583223.9000000954,1900,I,z,1113,9,1,3025.0,580198.9000000954,9071,NTS,C,3
3,3,test,1,C,circle.png,1,z,Mon Mar 30 2026 09:10:37 GMT-0400 (Eastern Daylight Time),586274.0,1600,I,z,1420,11,1,3039.399999976158,583234.6000000238,9071,NTS,C,4
9,4,test,1,C,circle.png,1,m,Mon Mar 30 2026 09:10:37 GMT-0400 (Eastern Daylight Time),588890.6000000238,1500,I,m,1094,24,1,2605.6999999284744,586284.9000000954,9071,NTS,C,5
9,5,test,1,C,triangle.png,1,z,Mon Mar 30 2026 09:10:37 GMT-0400 (Eastern Daylight Time),591807.2000000477,1400,I,z,1489,16,1,2905.899999976158,588901.3000000715,9071,NTS,C,6
3,6,test,1,C,circle.png,1,z,Mon Mar 30 2026 09:10:37 GMT-0400 (Eastern Daylight Time),594740.6000000238,1600,I,z,1300,19,1,2923.2999999523163,591817.3000000715,9071,NTS,C,7
4,6,test,1,C,circle.png,0,z,Mon Mar 30 2026 09:10:37 GMT-0400 (Eastern Daylight Time),597674.0,1400,I,None,1516,4,1,2922.899999976158,594751.1000000238,9071,NTS,C,8
2,7,test,1,C,circle.png,1,z,Mon Mar 30 2026 09:10:37 GMT-0400 (Eastern Daylight Time),600090.5,1700,I,z,694,18,1,2407.7999999523163,597682.7000000477,9071,NTS,C,9
1,8,test,1,C,triangle.png,1,z,Mon Mar 30 2026 09:10:37 GMT-0400 (Eastern Daylight Time),603124.0,1900,I,z,1101,17,1,3022.5,600101.5,9071,NTS,C,10
6,9,test,1,C,circle.png,1,m,Mon Mar 30 2026 09:10:37 GMT-0400 (Eastern Daylight Time),606090.7000000477,1900,I,m,1044,5,1,2957.899999976158,603132.8000000715,9071,NTS,C,11
4,9,test,1,C,triangle.png,0,m,Mon Mar 30 2026 09:10:37 GMT-0400 (Eastern Daylight Time),608990.6000000238,1500,I,z,1373,12,1,2888.2999999523163,606102.3000000715,9071,NTS,C,12
9,10,test,1,C,circle.png,1,m,Mon Mar 30 2026 09:10:37 GMT-0400 (Eastern Daylight Time),611591.6000000238,1500,I,m,1081,8,1,2591.899999976158,608999.7000000477,9071,NTS,C,13
7,10,test,1,C,triangle.png,0,z,Mon Mar 30 2026 09:10:37 GMT-0400 (Eastern Daylight Time),614824.1000000238,1700,I,None,1516,22,1,3220.6999999284744,611603.4000000954,9071,NTS,C,14
6,11,test,1,C,triangle.png,1,m,Mon Mar 30 2026 09:10:37 GMT-0400 (Eastern Daylight Time),617007.1000000238,1000,I,m,1156,13,1,2175.0,614832.1000000238,9071,NTS,C,15
8,12,test,1,C,triangle.png,1,m,Mon Mar 30 2026 09:10:37 GMT-0400 (Eastern Daylight Time),619640.4000000954,1600,I,m,1012,23,1,2623.2000000476837,617017.2000000477,9071,NTS,C,16
7,13,test,1,C,circle.png,1,m,Mon Mar 30 2026 09:10:37 GMT-0400 (Eastern Daylight Time),622890.5,2000,I,m,1228,14,1,3239.7999999523163,619650.7000000477,9071,NTS,C,17
8,14,test,1,C,circle.png,1,m,Mon Mar 30 2026 09:10:37 GMT-0400 (Eastern Daylight Time),625290.4000000954,1200,I,m,1177,15,1,2391.2000000476837,622899.2000000477,9071,NTS,C,18
1,15,test,1,C,circle.png,1,z,Mon Mar 30 2026 09:10:37 GMT-0400 (Eastern Daylight Time),627107.2000000477,1000,I,z,785,1,1,1805.0,625302.2000000477,9071,NTS,C,19
6,16,test,1,C,circle.png,1,m,Mon Mar 30 2026 09:10:37 GMT-0400 (Eastern Daylight Time),630023.8000000715,1900,I,m,997,21,1,2903.2000000476837,627120.6000000238,9071,NTS,C,20
4,17,test,1,C,triangle.png,1,m,Mon Mar 30 2026 09:10:37 GMT-0400 (Eastern Daylight Time),632573.9000000954,1500,I,m,1024,20,1,2541.5,630032.4000000954,9071,NTS,C,21
2,18,test,1,C,triangle.png,1,m,Mon Mar 30 2026 09:10:37 GMT-0400 (Eastern Daylight Time),635657.2000000477,2000,I,m,1062,2,1,3074.7000000476837,632582.5,9071,NTS,C,22
7,19,test,1,C,triangle.png,1,z,Mon Mar 30 2026 09:10:37 GMT-0400 (Eastern Daylight Time),638357.1000000238,1700,I,z,967,6,1,2692.100000023842,635665.0,9071,NTS,C,23
3,20,test,1,C,triangle.png,1,z,Mon Mar 30 2026 09:10:37 GMT-0400 (Eastern Daylight Time),640290.6000000238,1200,I,z,702,3,1,1924.5,638366.1000000238,9071,NTS,C,24
8,1,test,2,C,circle.png,1,m,Mon Mar 30 2026 09:10:37 GMT-0400 (Eastern Daylight Time),649424.1000000238,1200,I,m,1005,15,1,2226.100000023842,647198.0,9071,NTS,C,1
8,2,test,2,C,circle.png,1,m,Mon Mar 30 2026 09:10:37 GMT-0400 (Eastern Daylight Time),651323.9000000954,1200,I,m,676,23,1,1888.9000000953674,649435.0,9071,NTS,C,2
6,2,test,2,C,triangle.png,0,m,Mon Mar 30 2026 09:10:37 GMT-0400 (Eastern Daylight Time),653857.1000000238,1000,I,None,1516,13,1,2524.399999976158,651332.7000000477,9071,NTS,C,3
2,3,test,2,C,triangle.png,1,m,Mon Mar 30 2026 09:10:37 GMT-0400 (Eastern Daylight Time),656607.2000000477,2000,I,m,723,2,1,2741.5,653865.7000000477,9071,NTS,C,4
1,4,test,2,C,triangle.png,1,z,Mon Mar 30 2026 09:10:37 GMT-0400 (Eastern Daylight Time),659240.5,1900,I,z,713,17,1,2622.7999999523163,656617.7000000477,9071,NTS,C,5
8,5,test,2,C,triangle.png,1,m,Mon Mar 30 2026 09:10:37 GMT-0400 (Eastern Daylight Time),661523.9000000954,1600,I,m,651,7,1,2274.3000000715256,659249.6000000238,9071,NTS,C,6
9,6,test,2,C,triangle.png,1,z,Mon Mar 30 2026 09:10:37 GMT-0400 (Eastern Daylight Time),664057.2000000477,1400,I,z,1112,24,1,2522.899999976158,661534.3000000715,9071,NTS,C,7
2,7,test,2,C,circle.png,1,z,Mon Mar 30 2026 09:10:37 GMT-0400 (Eastern Daylight Time),666740.5,1700,I,z,951,18,1,2671.5999999046326,664068.9000000954,9071,NTS,C,8
2,8,test,2,C,circle.png,1,z,Mon Mar 30 2026 09:10:37 GMT-0400 (Eastern Daylight Time),669373.8000000715,1700,I,z,907,10,1,2623.3000000715256,666750.5,9071,NTS,C,9
7,9,test,2,C,circle.png,1,m,Mon Mar 30 2026 09:10:37 GMT-0400 (Eastern Daylight Time),672823.8000000715,2000,I,m,1430,14,1,3438.2000000476837,669385.6000000238,9071,NTS,C,10
4,10,test,2,C,circle.png,1,z,Mon Mar 30 2026 09:10:37 GMT-0400 (Eastern Daylight Time),675107.2000000477,1400,I,z,852,4,1,2274.100000023842,672833.1000000238,9071,NTS,C,11
3,11,test,2,C,circle.png,1,z,Mon Mar 30 2026 09:10:37 GMT-0400 (Eastern Daylight Time),677640.5,1600,I,z,913,11,1,2525.0999999046326,675115.4000000954,9071,NTS,C,12
6,12,test,2,C,triangle.png,1,m,Mon Mar 30 2026 09:10:37 GMT-0400 (Eastern Daylight Time),679606.9000000954,1000,I,m,947,21,1,1956.6000000238419,677650.3000000715,9071,NTS,C,13
1,13,test,2,C,triangle.png,1,z,Mon Mar 30 2026 09:10:37 GMT-0400 (Eastern Daylight Time),682623.8000000715,1900,I,z,1089,9,1,3010.5,679613.3000000715,9071,NTS,C,14
9,14,test,2,C,triangle.png,1,z,Mon Mar 30 2026 09:10:37 GMT-0400 (Eastern Daylight Time),685357.2000000477,1400,I,z,1308,16,1,2724.5,682632.7000000477,9071,NTS,C,15
3,15,test,2,C,circle.png,1,z,Mon Mar 30 2026 09:10:37 GMT-0400 (Eastern Daylight Time),688190.5,1600,I,z,1207,19,1,2822.7999999523163,685367.7000000477,9071,NTS,C,16
7,15,test,2,C,triangle.png,0,z,Mon Mar 30 2026 09:10:37 GMT-0400 (Eastern Daylight Time),690907.1000000238,1700,I,m,993,6,1,2708.6999999284744,688198.4000000954,9071,NTS,C,17
1,15,test,2,C,circle.png,0,z,Mon Mar 30 2026 09:10:37 GMT-0400 (Eastern Daylight Time),693440.6000000238,1000,I,None,1517,1,1,2523.0,690917.6000000238,9071,NTS,C,18
9,16,test,2,C,circle.png,1,m,Mon Mar 30 2026 09:10:37 GMT-0400 (Eastern Daylight Time),696190.4000000954,1500,I,m,1223,8,1,2742.2000000476837,693448.2000000477,9071,NTS,C,19
3,17,test,2,C,triangle.png,1,z,Mon Mar 30 2026 09:10:37 GMT-0400 (Eastern Daylight Time),698590.5,1200,I,z,1173,3,1,2388.5999999046326,696201.9000000954,9071,NTS,C,20
4,18,test,2,C,triangle.png,1,m,Mon Mar 30 2026 09:10:37 GMT-0400 (Eastern Daylight Time),701007.1000000238,1500,I,m,889,20,1,2404.899999976158,698602.2000000477,9071,NTS,C,21
4,19,test,2,C,triangle.png,1,m,Mon Mar 30 2026 09:10:37 GMT-0400 (Eastern Daylight Time),703907.1000000238,1500,I,m,1369,12,1,2891.2999999523163,701015.8000000715,9071,NTS,C,22
7,19,test,2,C,circle.png,0,m,Mon Mar 30 2026 09:10:37 GMT-0400 (Eastern Daylight Time),707407.1000000238,2000,I,z,1473,22,1,3489.7999999523163,703917.3000000715,9071,NTS,C,23
6,20,test,2,C,circle.png,1,m,Mon Mar 30 2026 09:10:37 GMT-0400 (Eastern Daylight Time),710207.1000000238,1900,I,m,873,5,1,2791.2999999523163,707415.8000000715,9071,NTS,C,24
1,1,test,3,C,circle.png,1,z,Mon Mar 30 2026 09:10:37 GMT-0400 (Eastern Daylight Time),717423.9000000954,1000,I,z,1255,1,1,2275.3000000715256,715148.6000000238,9071,NTS,C,1
3,2,test,3,C,triangle.png,1,z,Mon Mar 30 2026 09:10:37 GMT-0400 (Eastern Daylight Time),720157.1000000238,1200,I,z,1491,19,1,2716.5,717440.6000000238,9071,NTS,C,2
4,2,test,3,C,circle.png,0,z,Mon Mar 30 2026 09:10:37 GMT-0400 (Eastern Daylight Time),723090.5,1400,I,None,1516,4,1,2922.899999976158,720167.6000000238,9071,NTS,C,3
4,3,test,3,C,triangle.png,1,m,Mon Mar 30 2026 09:10:37 GMT-0400 (Eastern Daylight Time),725806.8000000715,1500,I,m,1188,12,1,2707.600000023842,723099.2000000477,9071,NTS,C,4
7,3,test,3,C,triangle.png,0,z,Mon Mar 30 2026 09:10:37 GMT-0400 (Eastern Daylight Time),729040.4000000954,1700,I,None,1516,6,1,3226.0,725814.4000000954,9071,NTS,C,5
8,4,test,3,C,triangle.png,1,m,Mon Mar 30 2026 09:10:37 GMT-0400 (Eastern Daylight Time),731390.4000000954,1600,I,m,724,23,1,2339.600000023842,729050.8000000715,9071,NTS,C,6
1,5,test,3,C,circle.png,1,z,Mon Mar 30 2026 09:10:37 GMT-0400 (Eastern Daylight Time),733173.8000000715,1000,I,z,765,17,1,1772.0,731401.8000000715,9071,NTS,C,7
8,5,test,3,C,triangle.png,0,m,Mon Mar 30 2026 09:10:37 GMT-0400 (Eastern Daylight Time),736307.0,1600,I,None,1516,7,1,3124.0999999046326,733182.9000000954,9071,NTS,C,8
1,6,test,3,C,triangle.png,1,z,Mon Mar 30 2026 09:10:37 GMT-0400 (Eastern Daylight Time),739057.1000000238,1900,I,z,821,9,1,2741.7999999523163,736315.3000000715,9071,NTS,C,9
4,6,test,3,C,circle.png,0,z,Mon Mar 30 2026 09:10:37 GMT-0400 (Eastern Daylight Time),741890.3000000715,1400,I,m,1403,20,1,2818.7000000476837,739071.6000000238,9071,NTS,C,10
8,7,test,3,C,circle.png,1,m,Mon Mar 30 2026 09:10:37 GMT-0400 (Eastern Daylight Time),744207.0,1200,I,m,1089,15,1,2305.899999976158,741901.1000000238,9071,NTS,C,11
7,8,test,3,C,circle.png,1,m,Mon Mar 30 2026 09:10:37 GMT-0400 (Eastern Daylight Time),747573.7000000477,2000,I,m,1333,14,1,3355.100000023842,744218.6000000238,9071,NTS,C,12
6,9,test,3,C,circle.png,1,m,Mon Mar 30 2026 09:10:37 GMT-0400 (Eastern Daylight Time),750207.1000000238,1900,I,m,706,21,1,2620.0,747587.1000000238,9071,NTS,C,13
2,10,test,3,C,circle.png,1,z,Mon Mar 30 2026 09:10:37 GMT-0400 (Eastern Daylight Time),752673.6000000238,1700,I,z,737,10,1,2456.899999976158,750216.7000000477,9071,NTS,C,14
3,11,test,3,C,triangle.png,1,z,Mon Mar 30 2026 09:10:37 GMT-0400 (Eastern Daylight Time),754890.4000000954,1200,I,z,994,3,1,2208.0,752682.4000000954,9071,NTS,C,15
3,11,test,3,C,circle.png,0,z,Mon Mar 30 2026 09:10:37 GMT-0400 (Eastern Daylight Time),757673.6000000238,1600,I,m,1161,11,1,2773.899999976158,754899.7000000477,9071,NTS,C,16
7,12,test,3,C,triangle.png,1,z,Mon Mar 30 2026 09:10:37 GMT-0400 (Eastern Daylight Time),760740.4000000954,1700,I,z,1334,22,1,3057.2000000476837,757683.2000000477,9071,NTS,C,17
9,13,test,3,C,triangle.png,1,z,Mon Mar 30 2026 09:10:37 GMT-0400 (Eastern Daylight Time),763057.0,1400,I,z,887,16,1,2307.5,760749.5,9071,NTS,C,18
2,14,test,3,C,triangle.png,1,m,Mon Mar 30 2026 09:10:37 GMT-0400 (Eastern Daylight Time),766057.0,2000,I,m,979,2,1,2991.6999999284744,763065.3000000715,9071,NTS,C,19
6,15,test,3,C,circle.png,1,m,Mon Mar 30 2026 09:10:37 GMT-0400 (Eastern Daylight Time),768940.4000000954,1900,I,m,959,5,1,2872.7000000476837,766067.7000000477,9071,NTS,C,20
6,15,test,3,C,triangle.png,0,m,Mon Mar 30 2026 09:10:37 GMT-0400 (Eastern Daylight Time),771473.8000000715,1000,I,None,1516,13,1,2522.100000023842,768951.7000000477,9071,NTS,C,21
9,15,test,3,C,circle.png,0,m,Mon Mar 30 2026 09:10:37 GMT-0400 (Eastern Daylight Time),774507.1000000238,1500,I,None,1516,24,1,3025.2999999523163,771481.8000000715,9071,NTS,C,22
2,15,test,3,C,triangle.png,0,m,Mon Mar 30 2026 09:10:37 GMT-0400 (Eastern Daylight Time),777992.3000000715,2000,I,z,1465,18,1,3477.399999976158,774514.9000000954,9071,NTS,C,23
9,16,test,3,C,circle.png,1,m,Mon Mar 30 2026 09:10:37 GMT-0400 (Eastern Daylight Time),780790.0,1500,I,m,1281,8,1,2789.399999976158,778000.6000000238,9071,NTS,C,24
7,0,test,4,C,triangle.png,0,z,Mon Mar 30 2026 09:10:37 GMT-0400 (Eastern Daylight Time),788657.2000000477,1700,I,None,1516,22,1,3225.5,785431.7000000477,9071,NTS,C,1
2,0,test,4,C,triangle.png,0,m,Mon Mar 30 2026 09:10:37 GMT-0400 (Eastern Daylight Time),792190.2000000477,2000,I,None,1516,2,1,3524.100000023842,788666.1000000238,9071,NTS,C,2
6,1,test,4,C,circle.png,1,m,Mon Mar 30 2026 09:10:37 GMT-0400 (Eastern Daylight Time),795006.8000000715,1900,I,m,890,21,1,2808.2000000476837,792198.6000000238,9071,NTS,C,3
4,2,test,4,C,circle.png,1,z,Mon Mar 30 2026 09:10:37 GMT-0400 (Eastern Daylight Time),797490.3000000715,1400,I,z,1053,20,1,2472.8000000715256,795017.5,9071,NTS,C,4
1,3,test,4,C,circle.png,1,z,Mon Mar 30 2026 09:10:37 GMT-0400 (Eastern Daylight Time),799390.3000000715,1000,I,z,873,1,1,1889.3000000715256,797501.0,9071,NTS,C,5
1,4,test,4,C,circle.png,1,z,Mon Mar 30 2026 09:10:37 GMT-0400 (Eastern Daylight Time),801107.0,1000,I,z,685,17,1,1705.2999999523163,799401.7000000477,9071,NTS,C,6
4,5,test,4,C,circle.png,1,z,Mon Mar 30 2026 09:10:37 GMT-0400 (Eastern Daylight Time),803573.7000000477,1400,I,z,1049,4,1,2455.100000023842,801118.6000000238,9071,NTS,C,7
3,5,test,4,C,triangle.png,0,z,Mon Mar 30 2026 09:10:37 GMT-0400 (Eastern Daylight Time),806307.0,1200,I,None,1516,19,1,2725.2999999523163,803581.7000000477,9071,NTS,C,8
8,6,test,4,C,triangle.png,1,m,Mon Mar 30 2026 09:10:37 GMT-0400 (Eastern Daylight Time),808973.7000000477,1600,I,m,1041,23,1,2658.600000023842,806315.1000000238,9071,NTS,C,9
2,7,test,4,C,triangle.png,1,m,Mon Mar 30 2026 09:10:37 GMT-0400 (Eastern Daylight Time),812290.3000000715,2000,I,m,1286,18,1,3306.5,808983.8000000715,9071,NTS,C,10
9,8,test,4,C,triangle.png,1,z,Mon Mar 30 2026 09:10:37 GMT-0400 (Eastern Daylight Time),814923.5,1400,I,z,1210,16,1,2622.899999976158,812300.6000000238,9071,NTS,C,11
2,9,test,4,C,circle.png,1,z,Mon Mar 30 2026 09:10:37 GMT-0400 (Eastern Daylight Time),818006.6000000238,1700,I,z,1364,10,1,3073.899999976158,814932.7000000477,9071,NTS,C,12
9,10,test,4,C,circle.png,1,m,Mon Mar 30 2026 09:10:37 GMT-0400 (Eastern Daylight Time),820389.9000000954,1500,I,m,865,24,1,2373.7000000476837,818016.2000000477,9071,NTS,C,13
6,10,test,4,C,triangle.png,0,m,Mon Mar 30 2026 09:10:37 GMT-0400 (Eastern Daylight Time),822890.3000000715,1000,I,z,1477,13,1,2493.3000000715256,820397.0,9071,NTS,C,14
3,10,test,4,C,circle.png,0,z,Mon Mar 30 2026 09:10:37 GMT-0400 (Eastern Daylight Time),826023.7000000477,1600,I,None,1517,11,1,3122.0,822901.7000000477,9071,NTS,C,15
4,10,test,4,C,triangle.png,0,m,Mon Mar 30 2026 09:10:37 GMT-0400 (Eastern Daylight Time),829056.9000000954,1500,I,None,1516,12,1,3024.7000000476837,826032.2000000477,9071,NTS,C,16
9,11,test,4,C,circle.png,1,m,Mon Mar 30 2026 09:10:37 GMT-0400 (Eastern Daylight Time),831506.9000000954,1500,I,m,919,8,1,2437.7000000476837,829069.2000000477,9071,NTS,C,17
6,11,test,4,C,circle.png,0,m,Mon Mar 30 2026 09:10:37 GMT-0400 (Eastern Daylight Time),834940.4000000954,1900,I,None,1516,5,1,3422.9000000953674,831517.5,9071,NTS,C,18
7,11,test,4,C,triangle.png,0,z,Mon Mar 30 2026 09:10:37 GMT-0400 (Eastern Daylight Time),837773.6000000238,1700,I,m,1107,6,1,2825.399999976158,834948.2000000477,9071,NTS,C,19
1,12,test,4,C,triangle.png,1,z,Mon Mar 30 2026 09:10:37 GMT-0400 (Eastern Daylight Time),840523.5,1900,I,z,826,9,1,2739.6999999284744,837783.8000000715,9071,NTS,C,20
3,13,test,4,C,triangle.png,1,z,Mon Mar 30 2026 09:10:37 GMT-0400 (Eastern Daylight Time),842456.9000000954,1200,I,z,712,3,1,1923.5,840533.4000000954,9071,NTS,C,21
8,14,test,4,C,circle.png,1,m,Mon Mar 30 2026 09:10:37 GMT-0400 (Eastern Daylight Time),844490.2000000477,1200,I,m,811,15,1,2024.2999999523163,842465.9000000954,9071,NTS,C,22
7,14,test,4,C,circle.png,0,m,Mon Mar 30 2026 09:10:37 GMT-0400 (Eastern Daylight Time),848023.6000000238,2000,I,None,1517,14,1,3522.600000023842,844501.0,9071,NTS,C,23
8,15,test,4,C,triangle.png,1,m,Mon Mar 30 2026 09:10:37 GMT-0400 (Eastern Daylight Time),850806.6000000238,1600,I,m,1164,7,1,2774.600000023842,848032.0,9071,NTS,C,24
