acc_sum,block,block_c,condition,correct,correct_response,datetime,endtime,flanker,jitter,project,response,response_test_buffer_response,response_test_target_response,response_time,response_time_test_buffer_response,response_time_test_target_response,row_sel,session_number,start_end,starttime,subject_id,target,task,task_vers,time_test_buffer,time_test_buffer_response,time_test_constants,time_test_flanker,time_test_jitter,time_test_logger,time_test_target,time_test_target_response,time_test_variables,trial
1,prac,1,inc,1,m,Fri Feb 06 2026 13:09:27 GMT-0500 (Eastern Standard Time),102512.5,kind,900,I,m,,,642,,,2,2,2840.800000190735,99671.69999980927,9034,rock,AF,B,,,,,,,,,,1
2,prac,1,con,1,z,Fri Feb 06 2026 13:09:27 GMT-0500 (Eastern Standard Time),105445.5,love,1000,I,z,,,621,,,11,2,2921.9000005722046,102523.5999994278,9034,love,AF,B,,,,,,,,,,2
3,prac,1,inc,1,m,Fri Feb 06 2026 13:09:27 GMT-0500 (Eastern Standard Time),108428.79999923706,brutal,1100,I,m,,,581,,,8,2,2971.7999992370605,105457.0,9034,window,AF,B,,,,,,,,,,3
4,prac,1,inc,1,m,Fri Feb 06 2026 13:09:27 GMT-0500 (Eastern Standard Time),111278.89999961853,elated,900,I,m,,,644,,,6,2,2838.199999809265,108440.69999980927,9034,napkin,AF,B,,,,,,,,,,4
5,prac,1,con,1,m,Fri Feb 06 2026 13:09:27 GMT-0500 (Eastern Standard Time),113879.0,step,800,I,m,,,486,,,1,2,2590.1000003814697,111288.89999961853,9034,step,AF,B,,,,,,,,,,5
6,prac,1,con,1,m,Fri Feb 06 2026 13:09:27 GMT-0500 (Eastern Standard Time),116645.5,bell,1000,I,m,,,454,,,3,2,2755.0,113890.5,9034,bell,AF,B,,,,,,,,,,6
6,prac,1,con,0,z,Fri Feb 06 2026 13:09:27 GMT-0500 (Eastern Standard Time),119195.5,brutal,800,I,m,,,433,,,13,2,2540.0,116655.5,9034,brutal,AF,B,,,,,,,,,,7
7,prac,1,con,1,m,Fri Feb 06 2026 13:09:27 GMT-0500 (Eastern Standard Time),121878.89999961853,remote,1000,I,m,,,371,,,7,2,2670.699999809265,119208.19999980927,9034,remote,AF,B,,,,,,,,,,8
8,prac,1,inc,1,z,Fri Feb 06 2026 13:09:27 GMT-0500 (Eastern Standard Time),124928.69999980927,napkin,1100,I,z,,,642,,,12,2,3039.9000005722046,121888.79999923706,9034,friend,AF,B,,,,,,,,,,9
9,prac,1,inc,1,z,Fri Feb 06 2026 13:09:27 GMT-0500 (Eastern Standard Time),127728.89999961853,rock,900,I,z,,,592,,,10,2,2789.5,124939.39999961853,9034,kind,AF,B,,,,,,,,,,10
10,prac,1,con,1,z,Fri Feb 06 2026 13:09:27 GMT-0500 (Eastern Standard Time),130712.19999980927,rage,1000,I,z,,,668,,,15,2,2972.6000003814697,127739.5999994278,9034,rage,AF,B,,,,,,,,,,11
11,prac,1,inc,1,z,Fri Feb 06 2026 13:09:27 GMT-0500 (Eastern Standard Time),133745.0999994278,window,1100,I,z,,,626,,,16,2,3023.199999809265,130721.89999961853,9034,temper,AF,B,,,,,,,,,,12
12,prac,1,inc,1,m,Fri Feb 06 2026 13:09:27 GMT-0500 (Eastern Standard Time),137062.0999994278,hate,1100,I,m,,,904,,,4,2,3310.699999809265,133751.39999961853,9034,film,AF,B,,,,,,,,,,13
13,prac,1,con,1,z,Fri Feb 06 2026 13:09:27 GMT-0500 (Eastern Standard Time),139662.0999994278,elated,800,I,z,,,495,,,9,2,2589.300000190735,137072.79999923706,9034,elated,AF,B,,,,,,,,,,14
14,prac,1,inc,1,z,Fri Feb 06 2026 13:09:27 GMT-0500 (Eastern Standard Time),142578.79999923706,film,900,I,z,,,707,,,14,2,2907.3999996185303,139671.39999961853,9034,hate,AF,B,,,,,,,,,,15
15,prac,1,con,1,m,Fri Feb 06 2026 13:09:27 GMT-0500 (Eastern Standard Time),145745.39999961853,jacket,800,I,m,,,1059,,,5,2,3157.6000003814697,142587.79999923706,9034,jacket,AF,B,,,,,,,,,,16
1,test,1,inc,1,m,Fri Feb 06 2026 13:09:27 GMT-0500 (Eastern Standard Time),167312.0999994278,brutal,900,I,m,m,None,644,445.0,199.0,102,2,2075.8999996185303,165236.19999980927,9034,jacket,AF,B,162706,162706,161079,161989,161080,163155,162506,162506,163155,1
2,test,1,con,1,z,Fri Feb 06 2026 13:09:27 GMT-0500 (Eastern Standard Time),169178.5,hate,900,I,z,z,None,417,218.0,199.0,42,2,1855.3000001907349,167323.19999980927,9034,hate,AF,B,164789,164789,163166,164072,163167,165022,164589,164589,165022,2
3,test,1,inc,1,z,Fri Feb 06 2026 13:09:27 GMT-0500 (Eastern Standard Time),171811.89999961853,window,1100,I,z,z,None,990,791.0,199.0,8,2,2621.699999809265,169190.19999980927,9034,elated,AF,B,166855,166856,165033,166139,165034,167655,166655,166656,167655,3
4,test,1,inc,1,m,Fri Feb 06 2026 13:09:27 GMT-0500 (Eastern Standard Time),174211.89999961853,friend,1100,I,m,m,None,757,558.0,199.0,112,2,2391.800000190735,171820.0999994278,9034,napkin,AF,B,169489,169489,167663,168772,167664,170055,169289,169289,170055,4
5,test,1,inc,1,z,Fri Feb 06 2026 13:09:27 GMT-0500 (Eastern Standard Time),176112.0,jacket,800,I,z,z,None,561,362.0,199.0,61,2,1891.6000003814697,174220.39999961853,9034,temper,AF,B,171589,171589,170063,170872,170064,171955,171389,171389,171955,5
6,test,1,con,1,z,Fri Feb 06 2026 13:09:27 GMT-0500 (Eastern Standard Time),178295.39999961853,elated,1100,I,z,z,None,537,338.0,199.0,4,2,2173.699999809265,176121.69999980927,9034,elated,AF,B,173789,173789,171965,173072,171965,174138,173589,173589,174138,6
7,test,1,inc,1,z,Fri Feb 06 2026 13:09:27 GMT-0500 (Eastern Standard Time),180395.29999923706,remote,1000,I,z,z,None,551,351.0,200.0,7,2,2090.7999992370605,178304.5,9034,elated,AF,B,175872,175872,174148,175156,174148,176238,175672,175672,176238,7
8,test,1,inc,1,m,Fri Feb 06 2026 13:09:27 GMT-0500 (Eastern Standard Time),182678.69999980927,hate,1100,I,m,m,None,639,439.0,200.0,96,2,2273.1000003814697,180405.5999994278,9034,film,AF,B,178072,178072,176249,177355,176249,178522,177872,177872,178522,8
9,test,1,inc,1,z,Fri Feb 06 2026 13:09:27 GMT-0500 (Eastern Standard Time),185078.5999994278,bell,1000,I,z,z,None,854,655.0,199.0,23,2,2387.699999809265,182690.89999961853,9034,love,AF,B,180256,180256,178534,179539,178534,180922,180056,180056,180922,9
10,test,1,inc,1,z,Fri Feb 06 2026 13:09:27 GMT-0500 (Eastern Standard Time),187895.29999923706,step,800,I,z,z,None,1470,1271.0,199.0,45,2,2805.199999809265,185090.0999994278,9034,hate,AF,B,182456,182456,180933,181739,180933,183738,182256,182256,183738,10
11,test,1,con,1,m,Fri Feb 06 2026 13:09:27 GMT-0500 (Eastern Standard Time),190361.89999961853,film,1100,I,m,m,None,818,619.0,199.0,92,2,2457.1000003814697,187904.79999923706,9034,film,AF,B,185572,185572,183748,184855,183748,186205,185372,185372,186205,11
12,test,1,con,1,m,Fri Feb 06 2026 13:09:27 GMT-0500 (Eastern Standard Time),192745.29999923706,jacket,900,I,m,m,None,935,736.0,199.0,98,2,2374.7999992370605,190370.5,9034,jacket,AF,B,187839,187839,186213,187122,186214,188588,187639,187639,188588,12
13,test,1,inc,1,z,Fri Feb 06 2026 13:09:27 GMT-0500 (Eastern Standard Time),194828.69999980927,step,800,I,z,z,None,733,533.0,200.0,21,2,2072.699999809265,192756.0,9034,love,AF,B,190122,190122,188599,189405,188599,190672,189922,189922,190672,13
14,test,1,inc,1,z,Fri Feb 06 2026 13:09:27 GMT-0500 (Eastern Standard Time),196961.89999961853,rock,900,I,z,z,None,693,493.0,200.0,14,2,2124.8999996185303,194837.0,9034,kind,AF,B,192305,192306,190680,191589,190680,192805,192105,192105,192805,14
15,test,1,con,1,z,Fri Feb 06 2026 13:09:27 GMT-0500 (Eastern Standard Time),199311.89999961853,friend,800,I,z,z,None,1011,812.0,199.0,25,2,2341.8999996185303,196970.0,9034,friend,AF,B,194339,194339,192813,193622,192814,195155,194139,194139,195155,15
16,test,1,con,1,z,Fri Feb 06 2026 13:09:27 GMT-0500 (Eastern Standard Time),202095.19999980927,rage,1000,I,z,z,None,1245,1046.0,199.0,51,2,2774.6000003814697,199320.5999994278,9034,rage,AF,B,196889,196889,195164,196172,195164,197938,196689,196689,197938,16
17,test,1,con,1,z,Fri Feb 06 2026 13:09:27 GMT-0500 (Eastern Standard Time),205228.5999994278,kind,900,I,z,z,None,1698,1499.0,199.0,10,2,3123.3999996185303,202105.19999980927,9034,kind,AF,B,199572,199572,197948,198856,197949,201072,199372,199372,201072,17
18,test,1,con,1,m,Fri Feb 06 2026 13:09:27 GMT-0500 (Eastern Standard Time),208028.5999994278,bell,1100,I,m,m,None,1149,949.0,200.0,84,2,2789.0999994277954,205239.5,9034,bell,AF,B,202905,202906,201083,202189,201083,203872,202705,202705,203872,18
18,test,1,inc,0,z,Fri Feb 06 2026 13:09:27 GMT-0500 (Eastern Standard Time),211362.0,step,800,I,None,None,None,1800,1800.0,200.0,53,2,3325.0,208037.0,9034,rage,AF,B,205405,205405,203880,204689,203880,207205,205205,205205,207205,19
19,test,1,inc,1,z,Fri Feb 06 2026 13:09:27 GMT-0500 (Eastern Standard Time),213461.89999961853,napkin,900,I,z,z,None,655,456.0,199.0,6,2,2089.1000003814697,211372.79999923706,9034,elated,AF,B,208839,208839,207216,208122,207216,209305,208639,208639,209305,20
19,test,1,inc,0,z,Fri Feb 06 2026 13:09:27 GMT-0500 (Eastern Standard Time),215628.5999994278,window,1100,I,m,m,None,531,332.0,199.0,40,2,2158.3999996185303,213470.19999980927,9034,brutal,AF,B,211139,211139,209313,210422,209313,211472,210939,210939,211472,21
20,test,1,inc,1,m,Fri Feb 06 2026 13:09:27 GMT-0500 (Eastern Standard Time),217745.19999980927,love,1000,I,m,m,None,577,377.0,200.0,95,2,2106.800000190735,215638.39999961853,9034,film,AF,B,213205,213206,211481,212489,211482,213588,213005,213005,213588,22
21,test,1,con,1,m,Fri Feb 06 2026 13:09:27 GMT-0500 (Eastern Standard Time),219595.29999923706,film,800,I,m,m,None,501,301.0,200.0,89,2,1840.2999992370605,217755.0,9034,film,AF,B,215122,215122,213598,214405,213598,215438,214922,214922,215438,23
22,test,1,con,1,z,Fri Feb 06 2026 13:09:27 GMT-0500 (Eastern Standard Time),221661.69999980927,brutal,1100,I,z,z,None,430,231.0,199.0,36,2,2057.1000003814697,219604.5999994278,9034,brutal,AF,B,217272,217272,215448,216555,215448,217505,217072,217072,217505,24
23,test,1,con,1,m,Fri Feb 06 2026 13:09:27 GMT-0500 (Eastern Standard Time),223961.79999923706,remote,900,I,m,m,None,851,652.0,199.0,114,2,2291.0,221670.79999923706,9034,remote,AF,B,219139,219139,217514,218422,217514,219805,218939,218939,219805,25
24,test,1,con,1,m,Fri Feb 06 2026 13:09:27 GMT-0500 (Eastern Standard Time),226211.69999980927,window,1100,I,m,m,None,607,408.0,199.0,124,2,2240.6000003814697,223971.0999994278,9034,window,AF,B,221639,221639,219814,220922,219814,222055,221439,221439,222055,26
25,test,1,con,1,m,Fri Feb 06 2026 13:09:27 GMT-0500 (Eastern Standard Time),228428.69999980927,remote,1000,I,m,m,None,665,466.0,199.0,115,2,2207.6000003814697,226221.0999994278,9034,remote,AF,B,223789,223789,222064,223072,222064,224272,223589,223589,224272,27
26,test,1,con,1,m,Fri Feb 06 2026 13:09:27 GMT-0500 (Eastern Standard Time),230411.89999961853,bell,1000,I,m,m,None,433,233.0,200.0,83,2,1974.8999996185303,228437.0,9034,bell,AF,B,226005,226006,224280,225289,224280,226255,225805,225805,226255,28
27,test,1,inc,1,z,Fri Feb 06 2026 13:09:27 GMT-0500 (Eastern Standard Time),232611.89999961853,remote,1000,I,z,z,None,657,458.0,199.0,63,2,2188.800000190735,230423.0999994278,9034,temper,AF,B,227989,227989,226266,227272,226266,228455,227789,227789,228455,29
28,test,1,inc,1,m,Fri Feb 06 2026 13:09:27 GMT-0500 (Eastern Standard Time),234678.5999994278,rage,800,I,m,m,None,721,522.0,199.0,93,2,2057.0999994277954,232621.5,9034,film,AF,B,229989,229989,228465,229272,228465,230522,229789,229789,230522,30
29,test,1,inc,1,z,Fri Feb 06 2026 13:09:27 GMT-0500 (Eastern Standard Time),237078.5,jacket,800,I,z,z,None,1056,856.0,200.0,29,2,2389.5,234689.0,9034,friend,AF,B,232055,232055,230532,231339,230532,232922,231855,231855,232922,31
30,test,1,inc,1,z,Fri Feb 06 2026 13:09:27 GMT-0500 (Eastern Standard Time),239278.29999923706,film,1100,I,z,z,None,564,364.0,200.0,56,2,2191.199999809265,237087.0999994278,9034,rage,AF,B,234755,234755,232930,234039,232931,235121,234555,234555,235121,32
31,test,1,con,1,m,Fri Feb 06 2026 13:09:27 GMT-0500 (Eastern Standard Time),241246.0,remote,800,I,m,m,None,632,432.0,200.0,113,2,1958.9000005722046,239287.0999994278,9034,remote,AF,B,236655,236655,235130,235939,235130,237089,236455,236455,237089,33
32,test,1,inc,1,m,Fri Feb 06 2026 13:09:27 GMT-0500 (Eastern Standard Time),243461.89999961853,love,1000,I,m,m,None,672,473.0,199.0,71,2,2206.6000003814697,241255.29999923706,9034,step,AF,B,238822,238822,237098,238105,237099,239305,238622,238622,239305,34
33,test,1,con,1,z,Fri Feb 06 2026 13:09:27 GMT-0500 (Eastern Standard Time),245478.5999994278,elated,1000,I,z,z,None,471,272.0,199.0,3,2,2005.8000001907349,243472.79999923706,9034,elated,AF,B,241039,241039,239316,240322,239316,241322,240839,240839,241322,35
34,test,1,con,1,z,Fri Feb 06 2026 13:09:27 GMT-0500 (Eastern Standard Time),247745.29999923706,hate,1000,I,z,z,None,727,527.0,200.0,43,2,2257.8999996185303,245487.39999961853,9034,hate,AF,B,243055,243056,241330,242339,241331,243588,242855,242855,243588,36
35,test,1,inc,1,z,Fri Feb 06 2026 13:09:27 GMT-0500 (Eastern Standard Time),250195.19999980927,window,1100,I,z,z,None,808,609.0,199.0,32,2,2440.9000005722046,247754.29999923706,9034,friend,AF,B,245422,245422,243597,244705,243598,246038,245222,245222,246038,37
36,test,1,con,1,z,Fri Feb 06 2026 13:09:27 GMT-0500 (Eastern Standard Time),252278.5999994278,temper,800,I,z,z,None,738,539.0,199.0,57,2,2074.0999994277954,250204.5,9034,temper,AF,B,247572,247572,246048,246855,246048,248122,247372,247372,248122,38
37,test,1,inc,1,z,Fri Feb 06 2026 13:09:27 GMT-0500 (Eastern Standard Time),254395.19999980927,step,800,I,z,z,None,768,568.0,200.0,13,2,2105.800000190735,252289.39999961853,9034,kind,AF,B,249655,249655,248132,248939,248133,250238,249455,249455,250238,39
38,test,1,con,1,m,Fri Feb 06 2026 13:09:27 GMT-0500 (Eastern Standard Time),256361.79999923706,bell,800,I,m,m,None,618,419.0,199.0,81,2,1957.5999994277954,254404.19999980927,9034,bell,AF,B,251772,251772,250247,251055,250247,252205,251572,251572,252205,40
39,test,1,inc,1,m,Fri Feb 06 2026 13:09:27 GMT-0500 (Eastern Standard Time),258345.0,elated,800,I,m,m,None,635,436.0,199.0,125,2,1971.8000001907349,256373.19999980927,9034,window,AF,B,253739,253739,252216,253022,252217,254188,253539,253539,254188,41
40,test,1,inc,1,m,Fri Feb 06 2026 13:09:27 GMT-0500 (Eastern Standard Time),260428.5,temper,1000,I,m,m,None,532,333.0,199.0,111,2,2074.1000003814697,258354.39999961853,9034,napkin,AF,B,255922,255922,254197,255205,254198,256272,255722,255722,256272,42
41,test,1,inc,1,m,Fri Feb 06 2026 13:09:27 GMT-0500 (Eastern Standard Time),262595.19999980927,hate,1100,I,m,m,None,526,326.0,200.0,72,2,2155.0,260440.19999980927,9034,step,AF,B,258105,258105,256283,257389,256284,258438,257905,257905,258438,43
42,test,1,inc,1,m,Fri Feb 06 2026 13:09:27 GMT-0500 (Eastern Standard Time),264428.5,elated,800,I,m,m,None,483,283.0,200.0,109,2,1824.3000001907349,262604.19999980927,9034,napkin,AF,B,259972,259972,258447,259255,258448,260272,259772,259772,260272,44
43,test,1,con,1,m,Fri Feb 06 2026 13:09:27 GMT-0500 (Eastern Standard Time),266345.19999980927,film,1000,I,m,m,None,370,170.0,200.0,91,2,1903.1999998092651,264442.0,9034,film,AF,B,262005,262005,260285,261288,260285,262188,261805,261805,262188,45
44,test,1,con,1,m,Fri Feb 06 2026 13:09:27 GMT-0500 (Eastern Standard Time),268195.19999980927,step,900,I,m,m,None,408,209.0,199.0,66,2,1841.1999998092651,266354.0,9034,step,AF,B,263822,263822,262197,263105,262197,264038,263622,263622,264038,46
45,test,1,inc,1,m,Fri Feb 06 2026 13:09:27 GMT-0500 (Eastern Standard Time),270261.79999923706,rage,800,I,m,m,None,722,523.0,199.0,69,2,2057.7999992370605,268204.0,9034,step,AF,B,265572,265572,264047,264855,264047,266105,265372,265372,266105,47
46,test,1,con,1,z,Fri Feb 06 2026 13:09:27 GMT-0500 (Eastern Standard Time),272345.19999980927,hate,1100,I,z,z,None,435,236.0,199.0,44,2,2072.0,270273.19999980927,9034,hate,AF,B,267939,267939,266116,267221,266117,268188,267739,267739,268188,48
47,test,1,inc,1,z,Fri Feb 06 2026 13:09:27 GMT-0500 (Eastern Standard Time),274461.5999994278,film,1100,I,z,z,None,480,281.0,199.0,48,2,2106.0999994277954,272355.5,9034,hate,AF,B,270022,270022,268199,269305,268199,270305,269822,269822,270305,49
48,test,1,inc,1,m,Fri Feb 06 2026 13:09:27 GMT-0500 (Eastern Standard Time),276695.19999980927,love,1000,I,m,m,None,687,488.0,199.0,79,2,2222.1000003814697,274473.0999994278,9034,rock,AF,B,272039,272039,270316,271322,270316,272538,271839,271839,272538,50
49,test,1,inc,1,z,Fri Feb 06 2026 13:09:27 GMT-0500 (Eastern Standard Time),278778.5,jacket,800,I,z,z,None,734,535.0,199.0,37,2,2072.6000003814697,276705.89999961853,9034,brutal,AF,B,274072,274072,272549,273355,272549,274622,273872,273872,274622,51
50,test,1,con,1,m,Fri Feb 06 2026 13:09:27 GMT-0500 (Eastern Standard Time),281145.19999980927,window,900,I,m,m,None,920,720.0,200.0,122,2,2355.699999809265,278789.5,9034,window,AF,B,276255,276255,274633,275538,274633,276988,276055,276055,276988,52
51,test,1,inc,1,m,Fri Feb 06 2026 13:09:27 GMT-0500 (Eastern Standard Time),283295.0999994278,temper,1000,I,m,m,None,613,413.0,200.0,127,2,2138.0999994277954,281157.0,9034,window,AF,B,278722,278722,277000,278005,277000,279138,278522,278522,279138,53
52,test,1,con,1,z,Fri Feb 06 2026 13:09:27 GMT-0500 (Eastern Standard Time),285361.79999923706,elated,900,I,z,z,None,626,427.0,199.0,2,2,2054.5,283307.29999923706,9034,elated,AF,B,280772,280772,279150,280055,279151,281205,280572,280572,281205,54
52,test,1,con,0,z,Fri Feb 06 2026 13:09:27 GMT-0500 (Eastern Standard Time),287545.19999980927,brutal,900,I,m,m,None,735,536.0,199.0,34,2,2174.800000190735,285370.39999961853,9034,brutal,AF,B,282839,282839,281213,282122,281214,283388,282639,282639,283388,55
53,test,1,con,1,z,Fri Feb 06 2026 13:09:27 GMT-0500 (Eastern Standard Time),289561.89999961853,hate,800,I,z,z,None,669,469.0,200.0,41,2,2008.6000003814697,287553.29999923706,9034,hate,AF,B,284922,284922,283396,284205,283397,285405,284722,284722,285405,56
54,test,1,inc,1,z,Fri Feb 06 2026 13:09:27 GMT-0500 (Eastern Standard Time),291628.5,rock,900,I,z,z,None,615,416.0,199.0,22,2,2055.5,289573.0,9034,love,AF,B,287039,287039,285416,286322,285416,287472,286838,286839,287471,57
54,test,1,inc,0,m,Fri Feb 06 2026 13:09:27 GMT-0500 (Eastern Standard Time),293611.79999923706,kind,900,I,z,z,None,534,334.0,200.0,78,2,1972.8999996185303,291638.89999961853,9034,rock,AF,B,289105,289105,287482,288389,287482,289455,288905,288905,289455,58
54,test,1,con,0,m,Fri Feb 06 2026 13:09:27 GMT-0500 (Eastern Standard Time),295595.0999994278,rock,800,I,z,z,None,633,434.0,199.0,73,2,1972.8999996185303,293622.19999980927,9034,rock,AF,B,290989,290989,289465,290272,289466,291438,290789,290789,291438,59
55,test,1,con,1,z,Fri Feb 06 2026 13:09:27 GMT-0500 (Eastern Standard Time),297461.79999923706,brutal,800,I,z,z,None,522,323.0,199.0,33,2,1856.0999994277954,295605.69999980927,9034,brutal,AF,B,292972,292972,291449,292255,291449,293305,292772,292772,293305,60
56,test,1,con,1,z,Fri Feb 06 2026 13:09:27 GMT-0500 (Eastern Standard Time),299361.79999923706,temper,900,I,z,z,None,459,260.0,199.0,58,2,1890.5,297471.29999923706,9034,temper,AF,B,294939,294939,293314,294222,293315,295205,294739,294739,295205,61
57,test,1,con,1,z,Fri Feb 06 2026 13:09:27 GMT-0500 (Eastern Standard Time),301328.39999961853,friend,1000,I,z,z,None,428,228.0,200.0,27,2,1955.6999998092651,299372.69999980927,9034,friend,AF,B,296939,296939,295216,296222,295216,297172,296739,296739,297171,62
58,test,1,inc,1,m,Fri Feb 06 2026 13:09:27 GMT-0500 (Eastern Standard Time),303495.19999980927,friend,1100,I,m,m,None,522,322.0,200.0,120,2,2157.9000005722046,301337.29999923706,9034,remote,AF,B,299005,299005,297180,298289,297181,299338,298805,298805,299338,63
59,test,1,con,1,z,Fri Feb 06 2026 13:09:27 GMT-0500 (Eastern Standard Time),305361.69999980927,love,900,I,z,z,None,426,227.0,199.0,18,2,1856.1000003814697,303505.5999994278,9034,love,AF,B,300972,300972,299349,300255,299349,301205,300772,300772,301205,64
60,test,1,con,1,m,Fri Feb 06 2026 13:09:27 GMT-0500 (Eastern Standard Time),307461.79999923706,bell,900,I,m,m,None,655,456.0,199.0,82,2,2088.699999809265,305373.0999994278,9034,bell,AF,B,302839,302839,301216,302122,301216,303305,302639,302639,303305,65
61,test,1,con,1,m,Fri Feb 06 2026 13:09:27 GMT-0500 (Eastern Standard Time),309861.89999961853,window,1000,I,m,m,None,855,656.0,199.0,123,2,2391.300000190735,307470.5999994278,9034,window,AF,B,305039,305039,303314,304322,303314,305705,304838,304839,305705,66
62,test,1,con,1,z,Fri Feb 06 2026 13:09:27 GMT-0500 (Eastern Standard Time),312061.5999994278,temper,1100,I,z,z,None,563,364.0,199.0,60,2,2189.800000190735,309871.79999923706,9034,temper,AF,B,307539,307539,305715,306822,305715,307905,307339,307339,307905,67
63,test,1,con,1,z,Fri Feb 06 2026 13:09:27 GMT-0500 (Eastern Standard Time),314378.5,brutal,1000,I,z,z,None,767,568.0,199.0,35,2,2306.7000007629395,312071.79999923706,9034,brutal,AF,B,309639,309639,307915,308922,307915,310222,309439,309439,310221,68
64,test,1,con,1,z,Fri Feb 06 2026 13:09:27 GMT-0500 (Eastern Standard Time),316878.19999980927,rage,800,I,z,z,None,1164,964.0,200.0,49,2,2491.1000003814697,314387.0999994278,9034,rage,AF,B,311755,311755,310230,311039,310230,312721,311555,311555,312721,69
65,test,1,con,1,m,Fri Feb 06 2026 13:09:27 GMT-0500 (Eastern Standard Time),319028.5,napkin,1000,I,m,m,None,608,408.0,200.0,107,2,2139.9000005722046,316888.5999994278,9034,napkin,AF,B,314455,314455,312732,313739,312732,314872,314255,314255,314872,70
66,test,1,con,1,z,Fri Feb 06 2026 13:09:27 GMT-0500 (Eastern Standard Time),321661.5,rage,900,I,z,z,None,1198,998.0,200.0,50,2,2622.7000007629395,319038.79999923706,9034,rage,AF,B,316505,316505,314882,315788,314882,317505,316305,316305,317505,71
67,test,1,inc,1,z,Fri Feb 06 2026 13:09:27 GMT-0500 (Eastern Standard Time),323895.0999994278,napkin,900,I,z,z,None,787,588.0,199.0,62,2,2222.5999994277954,321672.5,9034,temper,AF,B,319139,319139,317516,318422,317516,319738,318939,318939,319738,72
68,test,1,inc,1,z,Fri Feb 06 2026 13:09:27 GMT-0500 (Eastern Standard Time),326428.29999923706,film,1100,I,z,z,None,882,683.0,199.0,16,2,2523.699999809265,323904.5999994278,9034,kind,AF,B,321572,321572,319748,320855,319748,322271,321372,321372,322271,73
69,test,1,con,1,m,Fri Feb 06 2026 13:09:27 GMT-0500 (Eastern Standard Time),328328.5,rock,900,I,m,m,None,454,254.0,200.0,74,2,1895.0,326433.5,9034,rock,AF,B,323905,323905,322277,323189,322277,324172,323705,323705,324171,74
70,test,1,inc,1,m,Fri Feb 06 2026 13:09:27 GMT-0500 (Eastern Standard Time),330278.5,rage,800,I,m,m,None,606,406.0,200.0,85,2,1939.2000007629395,328339.29999923706,9034,bell,AF,B,325705,325705,324182,324988,324183,326122,325505,325505,326121,75
71,test,1,con,1,m,Fri Feb 06 2026 13:09:27 GMT-0500 (Eastern Standard Time),332278.5,rock,1000,I,m,m,None,456,256.0,200.0,75,2,1991.3000001907349,330287.19999980927,9034,rock,AF,B,327855,327855,326130,327139,326130,328122,327655,327655,328122,76
72,test,1,inc,1,m,Fri Feb 06 2026 13:09:27 GMT-0500 (Eastern Standard Time),334261.79999923706,kind,900,I,m,m,None,540,340.0,200.0,94,2,1975.0999994277954,332286.69999980927,9034,film,AF,B,329755,329755,328130,329039,328130,330105,329555,329555,330105,77
73,test,1,con,1,z,Fri Feb 06 2026 13:09:27 GMT-0500 (Eastern Standard Time),336478.19999980927,love,1100,I,z,z,None,580,380.0,200.0,20,2,2207.199999809265,334271.0,9034,love,AF,B,331939,331939,330114,331222,330114,332321,331738,331738,332321,78
74,test,1,con,1,z,Fri Feb 06 2026 13:09:27 GMT-0500 (Eastern Standard Time),338728.29999923706,temper,1000,I,z,z,None,704,504.0,200.0,59,2,2241.5,336486.79999923706,9034,temper,AF,B,334055,334055,332330,333339,332330,334571,333855,333855,334571,79
75,test,1,con,1,z,Fri Feb 06 2026 13:09:27 GMT-0500 (Eastern Standard Time),340828.39999961853,kind,1000,I,z,z,None,550,350.0,200.0,11,2,2091.199999809265,338737.19999980927,9034,kind,AF,B,336305,336305,334580,335589,334580,336671,336105,336105,336671,80
76,test,1,inc,1,z,Fri Feb 06 2026 13:09:27 GMT-0500 (Eastern Standard Time),343095.0999994278,bell,1000,I,z,z,None,722,522.0,200.0,55,2,2256.5999994277954,340838.5,9034,rage,AF,B,338405,338405,336682,337689,336682,338938,338205,338205,338938,81
76,test,1,inc,0,z,Fri Feb 06 2026 13:09:27 GMT-0500 (Eastern Standard Time),345911.79999923706,remote,1000,I,m,m,None,1270,1071.0,199.0,31,2,2806.0999994277954,343105.69999980927,9034,friend,AF,B,340672,340672,338949,339955,338949,341755,340472,340472,341755,82
77,test,1,inc,1,z,Fri Feb 06 2026 13:09:27 GMT-0500 (Eastern Standard Time),348078.19999980927,bell,1000,I,z,z,None,629,430.0,199.0,47,2,2156.1000003814697,345922.0999994278,9034,hate,AF,B,343489,343489,341765,342772,341765,343921,343289,343289,343921,83
78,test,1,inc,1,m,Fri Feb 06 2026 13:09:27 GMT-0500 (Eastern Standard Time),350111.5999994278,kind,900,I,m,m,None,596,396.0,200.0,70,2,2024.3000001907349,348087.29999923706,9034,step,AF,B,345555,345555,343930,344839,343931,345955,345355,345355,345955,84
79,test,1,inc,1,m,Fri Feb 06 2026 13:09:27 GMT-0500 (Eastern Standard Time),352178.5,brutal,900,I,m,m,None,626,426.0,200.0,126,2,2055.2000007629395,350123.29999923706,9034,window,AF,B,347589,347589,345966,346872,345967,348022,347388,347388,348022,85
80,test,1,con,1,z,Fri Feb 06 2026 13:09:27 GMT-0500 (Eastern Standard Time),353978.5,elated,800,I,z,z,None,452,252.0,200.0,1,2,1790.9000005722046,352187.5999994278,9034,elated,AF,B,349555,349555,348031,348838,348031,349822,349355,349355,349821,86
81,test,1,con,1,m,Fri Feb 06 2026 13:09:27 GMT-0500 (Eastern Standard Time),356078.19999980927,step,800,I,m,m,None,764,564.0,200.0,65,2,2088.9000005722046,353989.29999923706,9034,step,AF,B,351355,351355,349832,350638,349833,351921,351155,351155,351921,87
82,test,1,con,1,m,Fri Feb 06 2026 13:09:27 GMT-0500 (Eastern Standard Time),358261.69999980927,step,1000,I,m,m,None,640,440.0,200.0,67,2,2175.300000190735,356086.39999961853,9034,step,AF,B,353655,353655,351929,352939,351930,354105,353455,353455,354105,88
83,test,1,inc,1,m,Fri Feb 06 2026 13:09:27 GMT-0500 (Eastern Standard Time),360761.79999923706,elated,800,I,m,m,None,1151,952.0,199.0,117,2,2491.199999809265,358270.5999994278,9034,remote,AF,B,355639,355639,354114,354922,354114,356605,355439,355439,356605,89
84,test,1,inc,1,m,Fri Feb 06 2026 13:09:27 GMT-0500 (Eastern Standard Time),363411.69999980927,elated,800,I,m,m,None,1307,1108.0,199.0,101,2,2641.1000003814697,360770.5999994278,9034,jacket,AF,B,358139,358139,356614,357422,356614,359255,357939,357939,359255,90
85,test,1,inc,1,m,Fri Feb 06 2026 13:09:27 GMT-0500 (Eastern Standard Time),366378.39999961853,temper,1000,I,m,m,None,1418,1218.0,200.0,119,2,2958.1000003814697,363420.29999923706,9034,remote,AF,B,360989,360989,359263,360272,359264,362222,360788,360788,362221,91
86,test,1,con,1,m,Fri Feb 06 2026 13:09:27 GMT-0500 (Eastern Standard Time),368461.5,napkin,900,I,m,m,None,648,448.0,200.0,106,2,2073.0,366388.5,9034,napkin,AF,B,363855,363855,362232,363138,362232,364305,363655,363655,364305,92
87,test,1,inc,1,m,Fri Feb 06 2026 13:09:27 GMT-0500 (Eastern Standard Time),371661.5,kind,900,I,m,m,None,1764,1564.0,200.0,86,2,3190.9000005722046,368470.5999994278,9034,bell,AF,B,365939,365939,364314,365222,364314,367505,365738,365738,367505,93
88,test,1,inc,1,m,Fri Feb 06 2026 13:09:27 GMT-0500 (Eastern Standard Time),373711.5999994278,brutal,900,I,m,m,None,611,412.0,199.0,110,2,2039.3000001907349,371672.29999923706,9034,napkin,AF,B,369139,369139,367515,368422,367516,369555,368939,368939,369555,94
89,test,1,con,1,z,Fri Feb 06 2026 13:09:27 GMT-0500 (Eastern Standard Time),376178.39999961853,friend,1100,I,z,z,None,826,627.0,199.0,28,2,2456.6000003814697,373721.79999923706,9034,friend,AF,B,371388,371388,369565,370672,369565,372021,371189,371189,372021,95
90,test,1,con,1,m,Fri Feb 06 2026 13:09:27 GMT-0500 (Eastern Standard Time),377911.5999994278,jacket,800,I,m,m,None,388,188.0,200.0,97,2,1722.3999996185303,376189.19999980927,9034,jacket,AF,B,373555,373555,372032,372838,372033,373755,373355,373355,373755,96
91,test,1,inc,1,z,Fri Feb 06 2026 13:09:27 GMT-0500 (Eastern Standard Time),379945.0999994278,napkin,900,I,z,z,None,585,386.0,199.0,30,2,2023.0999994277954,377922.0,9034,friend,AF,B,375388,375389,373765,374672,373765,375788,375188,375189,375788,97
92,test,1,con,1,m,Fri Feb 06 2026 13:09:27 GMT-0500 (Eastern Standard Time),381678.0999994278,napkin,800,I,m,m,None,396,197.0,199.0,105,2,1723.5,379954.5999994278,9034,napkin,AF,B,377322,377322,375798,376605,375798,377521,377122,377122,377521,98
93,test,1,inc,1,m,Fri Feb 06 2026 13:09:27 GMT-0500 (Eastern Standard Time),383795.0999994278,friend,1100,I,m,m,None,475,275.0,200.0,128,2,2107.8999996185303,381687.19999980927,9034,window,AF,B,379356,379356,377530,378639,377531,379638,379155,379155,379638,99
94,test,1,con,1,z,Fri Feb 06 2026 13:09:27 GMT-0500 (Eastern Standard Time),385545.0,kind,800,I,z,z,None,402,203.0,199.0,9,2,1739.4000005722046,383805.5999994278,9034,kind,AF,B,381172,381172,379649,380455,379649,381388,380972,380972,381388,100
95,test,1,inc,1,m,Fri Feb 06 2026 13:09:27 GMT-0500 (Eastern Standard Time),387711.69999980927,hate,1100,I,m,m,None,528,329.0,199.0,88,2,2156.199999809265,385555.5,9034,bell,AF,B,383222,383222,381399,382505,381399,383555,383022,383022,383555,101
95,test,1,inc,0,z,Fri Feb 06 2026 13:09:27 GMT-0500 (Eastern Standard Time),389811.69999980927,rock,900,I,m,m,None,658,458.0,200.0,46,2,2091.300000190735,387720.39999961853,9034,hate,AF,B,385189,385189,383563,384472,383564,385655,384988,384988,385655,102
96,test,1,inc,1,m,Fri Feb 06 2026 13:09:27 GMT-0500 (Eastern Standard Time),392011.69999980927,hate,1100,I,m,m,None,550,350.0,200.0,80,2,2189.6000003814697,389822.0999994278,9034,rock,AF,B,387488,387489,385665,386772,385665,387855,387288,387288,387855,103
97,test,1,con,1,m,Fri Feb 06 2026 13:09:27 GMT-0500 (Eastern Standard Time),394195.0,step,1100,I,m,m,None,543,343.0,200.0,68,2,2172.300000190735,392022.69999980927,9034,step,AF,B,389688,389688,387866,388972,387866,390038,389488,389488,390038,104
98,test,1,inc,1,m,Fri Feb 06 2026 13:09:27 GMT-0500 (Eastern Standard Time),396295.0,temper,1000,I,m,m,None,554,355.0,199.0,103,2,2089.2000007629395,394205.79999923706,9034,jacket,AF,B,391772,391772,390049,391055,390049,392138,391572,391572,392138,105
99,test,1,con,1,m,Fri Feb 06 2026 13:09:27 GMT-0500 (Eastern Standard Time),398411.79999923706,jacket,1000,I,m,m,None,566,367.0,199.0,99,2,2105.699999809265,396306.0999994278,9034,jacket,AF,B,393872,393872,392149,393155,392149,394255,393672,393672,394255,106
100,test,1,con,1,m,Fri Feb 06 2026 13:09:27 GMT-0500 (Eastern Standard Time),400628.39999961853,rock,1100,I,m,m,None,575,375.0,200.0,76,2,2208.0,398420.39999961853,9034,rock,AF,B,396088,396088,394263,395372,394264,396471,395888,395888,396471,107
101,test,1,inc,1,m,Fri Feb 06 2026 13:09:27 GMT-0500 (Eastern Standard Time),402811.69999980927,brutal,900,I,m,m,None,734,534.0,200.0,118,2,2175.0,400636.69999980927,9034,remote,AF,B,398105,398105,396480,397388,396480,398655,397905,397905,398655,108
102,test,1,con,1,m,Fri Feb 06 2026 13:09:27 GMT-0500 (Eastern Standard Time),404861.5,film,900,I,m,m,None,614,414.0,200.0,90,2,2038.2000007629395,402823.29999923706,9034,film,AF,B,400289,400289,398666,399572,398667,400705,400088,400088,400704,109
103,test,1,inc,1,z,Fri Feb 06 2026 13:09:27 GMT-0500 (Eastern Standard Time),406911.5999994278,bell,1000,I,z,z,None,513,313.0,200.0,15,2,2041.3000001907349,404870.29999923706,9034,kind,AF,B,402438,402438,400713,401722,400714,402755,402238,402238,402755,110
103,test,1,con,0,z,Fri Feb 06 2026 13:09:27 GMT-0500 (Eastern Standard Time),410111.5999994278,rage,1100,I,m,m,None,1563,1363.0,200.0,52,2,3191.0,406920.5999994278,9034,rage,AF,B,404588,404588,402764,403872,402764,405955,404388,404388,405955,111
104,test,1,inc,1,z,Fri Feb 06 2026 13:09:27 GMT-0500 (Eastern Standard Time),412045.69999980927,jacket,800,I,z,z,None,598,398.0,200.0,5,2,1924.8000001907349,410120.89999961853,9034,elated,AF,B,407488,407489,405964,406772,405964,407889,407288,407288,407889,112
105,test,1,con,1,z,Fri Feb 06 2026 13:09:27 GMT-0500 (Eastern Standard Time),414078.19999980927,friend,900,I,z,z,None,596,397.0,199.0,26,2,2022.3000001907349,412055.89999961853,9034,friend,AF,B,409522,409522,407899,408805,407899,409921,409322,409322,409921,113
106,test,1,con,1,m,Fri Feb 06 2026 13:09:27 GMT-0500 (Eastern Standard Time),416028.5999994278,window,800,I,m,m,None,616,416.0,200.0,121,2,1940.5999994277954,414088.0,9034,window,AF,B,411455,411455,409931,410738,409931,411872,411255,411255,411872,114
107,test,1,con,1,z,Fri Feb 06 2026 13:09:27 GMT-0500 (Eastern Standard Time),417811.69999980927,love,800,I,z,z,None,442,242.0,200.0,17,2,1772.9000005722046,416038.79999923706,9034,love,AF,B,413405,413405,411882,412688,411882,413655,413205,413205,413655,115
108,test,1,inc,1,z,Fri Feb 06 2026 13:09:27 GMT-0500 (Eastern Standard Time),419911.5999994278,napkin,900,I,z,z,None,655,455.0,200.0,38,2,2090.800000190735,417820.79999923706,9034,brutal,AF,B,415288,415288,413664,414572,413664,415755,415088,415088,415755,116
109,test,1,con,1,m,Fri Feb 06 2026 13:09:27 GMT-0500 (Eastern Standard Time),422195.0,napkin,1100,I,m,m,None,643,443.0,200.0,108,2,2274.5,419920.5,9034,napkin,AF,B,417588,417588,415764,416872,415764,418038,417388,417388,418038,117
110,test,1,inc,1,z,Fri Feb 06 2026 13:09:27 GMT-0500 (Eastern Standard Time),425378.5,rock,900,I,z,z,None,1742,1543.0,199.0,54,2,3173.300000190735,422205.19999980927,9034,rage,AF,B,419672,419672,418048,418955,418048,421222,419472,419472,421221,118
111,test,1,inc,1,m,Fri Feb 06 2026 13:09:27 GMT-0500 (Eastern Standard Time),427545.0,love,1000,I,m,m,None,620,420.0,200.0,87,2,2156.4000005722046,425388.5999994278,9034,bell,AF,B,422955,422955,421232,422238,421232,423388,422755,422755,423388,119
112,test,1,inc,1,z,Fri Feb 06 2026 13:09:27 GMT-0500 (Eastern Standard Time),429661.39999961853,film,1100,I,z,z,None,480,281.0,199.0,24,2,2108.1000003814697,427553.29999923706,9034,love,AF,B,425222,425222,423396,424505,423397,425504,425022,425022,425504,120
112,test,1,inc,0,z,Fri Feb 06 2026 13:09:27 GMT-0500 (Eastern Standard Time),432028.19999980927,window,1100,I,m,m,None,717,517.0,200.0,64,2,2358.9000005722046,429669.29999923706,9034,temper,AF,B,427338,427338,425512,426622,425513,427871,427138,427138,427871,121
113,test,1,inc,1,m,Fri Feb 06 2026 13:09:27 GMT-0500 (Eastern Standard Time),433994.89999961853,rage,800,I,m,m,None,619,418.0,201.0,77,2,1957.8999996185303,432037.0,9034,rock,AF,B,429405,429405,427880,428689,427880,429838,429204,429204,429838,122
114,test,1,con,1,m,Fri Feb 06 2026 13:09:27 GMT-0500 (Eastern Standard Time),436294.79999923706,remote,1100,I,m,m,None,654,455.0,199.0,116,2,2291.3999996185303,434003.39999961853,9034,remote,AF,B,431671,431671,429846,430955,429847,432138,431472,431472,432138,123
115,test,1,con,1,z,Fri Feb 06 2026 13:09:27 GMT-0500 (Eastern Standard Time),438511.5999994278,love,1000,I,z,z,None,678,479.0,199.0,19,2,2206.800000190735,436304.79999923706,9034,love,AF,B,433872,433872,432148,433155,432148,434355,433672,433672,434355,124
116,test,1,inc,1,z,Fri Feb 06 2026 13:09:27 GMT-0500 (Eastern Standard Time),440844.79999923706,remote,1000,I,z,z,None,798,598.0,200.0,39,2,2318.5999994277954,438526.19999980927,9034,brutal,AF,B,436089,436089,434369,435372,434370,436688,435888,435888,436688,125
117,test,1,inc,1,m,Fri Feb 06 2026 13:09:27 GMT-0500 (Eastern Standard Time),443095.0,friend,1100,I,m,m,None,604,405.0,199.0,104,2,2242.1000003814697,440852.89999961853,9034,jacket,AF,B,438522,438522,436696,437805,436696,438938,438322,438322,438938,126
118,test,1,con,1,m,Fri Feb 06 2026 13:09:27 GMT-0500 (Eastern Standard Time),445161.5999994278,jacket,1100,I,m,m,None,418,219.0,199.0,100,2,2055.8999996185303,443105.69999980927,9034,jacket,AF,B,440772,440772,438949,440055,438949,441005,440571,440572,441005,127
119,test,1,con,1,z,Fri Feb 06 2026 13:09:27 GMT-0500 (Eastern Standard Time),447228.39999961853,kind,1100,I,z,z,None,433,233.0,200.0,12,2,2057.6000003814697,445170.79999923706,9034,kind,AF,B,442838,442838,441014,442122,441014,443071,442638,442638,443071,128
