acc_sum,block,block_c,condition,correct,correct_response,datetime,endtime,flanker,jitter,project,response,response_test_buffer_response,response_test_target_response,response_time,response_time_test_buffer_response,response_time_test_target_response,row_sel,session_number,start_end,starttime,subject_id,target,task,task_vers,time_test_buffer,time_test_buffer_response,time_test_constants,time_test_flanker,time_test_jitter,time_test_logger,time_test_target,time_test_target_response,time_test_variables,trial
1,prac,1,con,1,m,Wed Oct 22 2025 16:15:29 GMT-0400 (Eastern Daylight Time),115629.19999992847,step,800,I,m,,,849,,,1,1,2939.0,112690.19999992847,9034,step,AF,C,,,,,,,,,,1
2,prac,1,inc,1,z,Wed Oct 22 2025 16:15:29 GMT-0400 (Eastern Daylight Time),118562.79999995232,film,900,I,z,,,725,,,14,1,2925.899999976158,115636.89999997616,9034,hate,AF,C,,,,,,,,,,2
3,prac,1,con,1,z,Wed Oct 22 2025 16:15:29 GMT-0400 (Eastern Daylight Time),121329.5,elated,800,I,z,,,644,,,9,1,2749.8000000715256,118579.69999992847,9034,elated,AF,C,,,,,,,,,,3
4,prac,1,inc,1,m,Wed Oct 22 2025 16:15:29 GMT-0400 (Eastern Daylight Time),124096.0,kind,900,I,m,,,563,,,2,1,2753.7000000476837,121342.29999995232,9034,rock,AF,C,,,,,,,,,,4
5,prac,1,con,1,z,Wed Oct 22 2025 16:15:29 GMT-0400 (Eastern Daylight Time),127062.69999992847,rage,1000,I,z,,,656,,,15,1,2957.2999999523163,124105.39999997616,9034,rage,AF,C,,,,,,,,,,5
5,prac,1,con,0,m,Wed Oct 22 2025 16:15:29 GMT-0400 (Eastern Daylight Time),129862.5,jacket,800,I,z,,,689,,,5,1,2791.600000023842,127070.89999997616,9034,jacket,AF,C,,,,,,,,,,6
6,prac,1,inc,1,m,Wed Oct 22 2025 16:15:29 GMT-0400 (Eastern Daylight Time),132912.29999995232,brutal,1100,I,m,,,644,,,8,1,3042.899999976158,129869.39999997616,9034,window,AF,C,,,,,,,,,,7
7,prac,1,inc,1,m,Wed Oct 22 2025 16:15:29 GMT-0400 (Eastern Daylight Time),135929.0,hate,1100,I,m,,,604,,,4,1,3009.3000000715256,132919.69999992847,9034,film,AF,C,,,,,,,,,,8
8,prac,1,inc,1,z,Wed Oct 22 2025 16:15:29 GMT-0400 (Eastern Daylight Time),139112.79999995232,window,1100,I,z,,,770,,,16,1,3178.2999999523163,135934.5,9034,temper,AF,C,,,,,,,,,,9
9,prac,1,con,1,z,Wed Oct 22 2025 16:15:29 GMT-0400 (Eastern Daylight Time),142029.0,love,1000,I,z,,,599,,,11,1,2905.100000023842,139123.89999997616,9034,love,AF,C,,,,,,,,,,10
10,prac,1,con,1,m,Wed Oct 22 2025 16:15:29 GMT-0400 (Eastern Daylight Time),145229.39999997616,bell,1000,I,m,,,898,,,3,1,3191.100000023842,142038.29999995232,9034,bell,AF,C,,,,,,,,,,11
11,prac,1,con,1,z,Wed Oct 22 2025 16:15:29 GMT-0400 (Eastern Daylight Time),147996.10000002384,brutal,800,I,z,,,651,,,13,1,2756.100000023842,145240.0,9034,brutal,AF,C,,,,,,,,,,12
12,prac,1,con,1,m,Wed Oct 22 2025 16:15:29 GMT-0400 (Eastern Daylight Time),150796.0,remote,1000,I,m,,,469,,,7,1,2783.399999976158,148012.60000002384,9034,remote,AF,C,,,,,,,,,,13
13,prac,1,inc,1,m,Wed Oct 22 2025 16:15:29 GMT-0400 (Eastern Daylight Time),153762.79999995232,elated,900,I,m,,,759,,,6,1,2958.100000023842,150804.69999992847,9034,napkin,AF,C,,,,,,,,,,14
13,prac,1,inc,0,z,Wed Oct 22 2025 16:15:29 GMT-0400 (Eastern Daylight Time),157095.60000002384,napkin,1100,I,m,,,920,,,12,1,3323.600000023842,153772.0,9034,friend,AF,C,,,,,,,,,,15
14,prac,1,inc,1,z,Wed Oct 22 2025 16:15:29 GMT-0400 (Eastern Daylight Time),160046.0,rock,900,I,z,,,748,,,10,1,2944.600000023842,157101.39999997616,9034,kind,AF,C,,,,,,,,,,16
1,test,1,inc,1,m,Wed Oct 22 2025 16:15:29 GMT-0400 (Eastern Daylight Time),180679.60000002384,friend,1100,I,m,m,None,723,524.0,199.0,128,1,2358.7000000476837,178320.89999997616,9034,window,AF,C,174103,174103,172278,173386,172278,174637,173904,173904,174636,1
2,test,1,con,1,m,Wed Oct 22 2025 16:15:29 GMT-0400 (Eastern Daylight Time),183012.79999995232,bell,1100,I,m,m,None,692,493.0,199.0,84,1,2323.7999999523163,180689.0,9034,bell,AF,C,176470,176470,174646,175753,174646,176970,176270,176270,176970,2
3,test,1,con,1,m,Wed Oct 22 2025 16:15:29 GMT-0400 (Eastern Daylight Time),185112.69999992847,bell,800,I,m,m,None,739,539.0,200.0,81,1,2079.5,183033.19999992847,9034,bell,AF,C,178520,178520,176990,177803,176991,179070,178320,178320,179070,3
4,test,1,con,1,m,Wed Oct 22 2025 16:15:29 GMT-0400 (Eastern Daylight Time),187528.79999995232,step,800,I,m,m,None,1072,872.0,200.0,65,1,2407.0,185121.79999995232,9034,step,AF,C,180603,180603,179079,179887,179079,181486,180403,180403,181486,4
5,test,1,con,1,z,Wed Oct 22 2025 16:15:29 GMT-0400 (Eastern Daylight Time),189962.39999997616,rage,1100,I,z,z,None,786,587.0,199.0,52,1,2427.7999999523163,187534.60000002384,9034,rage,AF,C,183320,183320,181492,182604,181492,183919,183120,183120,183919,5
6,test,1,con,1,m,Wed Oct 22 2025 16:15:29 GMT-0400 (Eastern Daylight Time),192212.29999995232,remote,1000,I,m,m,None,709,510.0,199.0,115,1,2242.899999976158,189969.39999997616,9034,remote,AF,C,185653,185653,183926,184937,183927,186169,185453,185454,186169,6
7,test,1,inc,1,m,Wed Oct 22 2025 16:15:29 GMT-0400 (Eastern Daylight Time),194379.19999992847,rage,800,I,m,m,None,819,619.0,200.0,77,1,2156.7999999523163,192222.39999997616,9034,rock,AF,C,187703,187704,186179,186987,186180,188336,187503,187503,188336,7
8,test,1,con,1,m,Wed Oct 22 2025 16:15:29 GMT-0400 (Eastern Daylight Time),196695.89999997616,window,800,I,m,m,None,972,773.0,199.0,121,1,2304.7000000476837,194391.19999992847,9034,window,AF,C,189870,189870,188348,189153,188349,190653,189670,189670,190653,8
9,test,1,inc,1,z,Wed Oct 22 2025 16:15:29 GMT-0400 (Eastern Daylight Time),198745.79999995232,rock,900,I,z,z,None,587,387.0,200.0,54,1,2034.3999999761581,196711.39999997616,9034,rage,AF,C,192304,192304,190668,191587,190670,192703,192103,192103,192703,9
10,test,1,con,1,z,Wed Oct 22 2025 16:15:29 GMT-0400 (Eastern Daylight Time),200912.29999995232,elated,1000,I,z,z,None,629,430.0,199.0,3,1,2151.6999999284744,198760.60000002384,9034,elated,AF,C,194437,194437,192718,193720,192718,194869,194237,194237,194869,10
11,test,1,con,1,z,Wed Oct 22 2025 16:15:29 GMT-0400 (Eastern Daylight Time),202979.39999997616,friend,900,I,z,z,None,627,427.0,200.0,26,1,2060.399999976158,200919.0,9034,friend,AF,C,196503,196504,194876,195787,194877,196936,196303,196303,196936,11
12,test,1,con,1,m,Wed Oct 22 2025 16:15:29 GMT-0400 (Eastern Daylight Time),205262.79999995232,jacket,1100,I,m,m,None,632,433.0,199.0,100,1,2274.0,202988.79999995232,9034,jacket,AF,C,198770,198770,196946,198053,196946,199220,198570,198570,199220,12
13,test,1,con,1,z,Wed Oct 22 2025 16:15:29 GMT-0400 (Eastern Daylight Time),207745.69999992847,brutal,1100,I,z,z,None,846,646.0,200.0,36,1,2474.0,205271.69999992847,9034,brutal,AF,C,201053,201053,199229,200337,199229,201703,200853,200853,201703,13
14,test,1,inc,1,z,Wed Oct 22 2025 16:15:29 GMT-0400 (Eastern Daylight Time),209895.89999997616,step,800,I,z,z,None,805,606.0,199.0,21,1,2141.2000000476837,207754.69999992847,9034,love,AF,C,203237,203237,201712,202520,201712,203853,203037,203037,203853,14
15,test,1,con,1,m,Wed Oct 22 2025 16:15:29 GMT-0400 (Eastern Daylight Time),212162.5,rock,1000,I,m,m,None,728,529.0,199.0,75,1,2257.5,209905.0,9034,rock,AF,C,205587,205587,203862,204870,203862,206120,205387,205387,206120,15
16,test,1,inc,1,z,Wed Oct 22 2025 16:15:29 GMT-0400 (Eastern Daylight Time),214145.79999995232,step,800,I,z,z,None,645,445.0,200.0,53,1,1974.1999999284744,212171.60000002384,9034,rage,AF,C,207654,207654,206129,206937,206129,208103,207453,207453,208103,16
17,test,1,con,1,m,Wed Oct 22 2025 16:15:29 GMT-0400 (Eastern Daylight Time),216312.5,napkin,1000,I,m,m,None,606,406.0,200.0,107,1,2150.0,214162.5,9034,napkin,AF,C,209854,209854,208120,209137,208121,210270,209653,209653,210269,17
18,test,1,con,1,z,Wed Oct 22 2025 16:15:29 GMT-0400 (Eastern Daylight Time),218912.29999995232,rage,1000,I,z,z,None,1062,863.0,199.0,51,1,2589.6999999284744,216322.60000002384,9034,rage,AF,C,212003,212004,210280,211286,210280,212869,211804,211804,212869,18
19,test,1,inc,1,m,Wed Oct 22 2025 16:15:29 GMT-0400 (Eastern Daylight Time),221062.5,kind,900,I,m,m,None,707,492.0,215.0,94,1,2135.100000023842,218927.39999997616,9034,film,AF,C,214519,214519,212884,213786,212885,215020,214303,214304,215020,19
20,test,1,inc,1,m,Wed Oct 22 2025 16:15:29 GMT-0400 (Eastern Daylight Time),223345.39999997616,hate,1100,I,m,m,None,645,445.0,200.0,96,1,2273.399999976158,221072.0,9034,film,AF,C,216853,216854,215029,216137,215029,217302,216653,216653,217302,20
21,test,1,con,1,z,Wed Oct 22 2025 16:15:29 GMT-0400 (Eastern Daylight Time),225329.0,kind,1000,I,z,z,None,446,246.0,200.0,11,1,1977.8999999761581,223351.10000002384,9034,kind,AF,C,219037,219037,217308,218320,217308,219286,218836,218836,219286,21
22,test,1,con,1,m,Wed Oct 22 2025 16:15:29 GMT-0400 (Eastern Daylight Time),227246.10000002384,jacket,800,I,m,m,None,582,383.0,199.0,97,1,1907.3000000715256,225338.79999995232,9034,jacket,AF,C,220820,220820,219296,220103,219296,221203,220620,220620,221203,22
23,test,1,con,1,m,Wed Oct 22 2025 16:15:29 GMT-0400 (Eastern Daylight Time),229495.69999992847,bell,1000,I,m,m,None,705,506.0,199.0,83,1,2242.0999999046326,227253.60000002384,9034,bell,AF,C,222937,222937,221211,222220,221211,223453,222737,222737,223453,23
24,test,1,inc,1,z,Wed Oct 22 2025 16:15:29 GMT-0400 (Eastern Daylight Time),231512.5,rock,900,I,z,z,None,588,389.0,199.0,22,1,2008.5,229504.0,9034,love,AF,C,225070,225070,223461,224369,223462,225470,224870,224870,225469,24
25,test,1,inc,1,z,Wed Oct 22 2025 16:15:29 GMT-0400 (Eastern Daylight Time),233762.5,film,1100,I,z,z,None,613,413.0,200.0,48,1,2240.7000000476837,231521.79999995232,9034,hate,AF,C,227303,227303,225479,226587,225479,227720,227103,227103,227720,25
26,test,1,con,1,z,Wed Oct 22 2025 16:15:29 GMT-0400 (Eastern Daylight Time),235678.89999997616,love,800,I,z,z,None,582,382.0,200.0,17,1,1901.7000000476837,233777.19999992847,9034,love,AF,C,229253,229253,227734,228537,227735,229636,229053,229053,229636,26
27,test,1,con,1,m,Wed Oct 22 2025 16:15:29 GMT-0400 (Eastern Daylight Time),237679.29999995232,window,1000,I,m,m,None,464,265.0,199.0,123,1,1992.3999999761581,235686.89999997616,9034,window,AF,C,231370,231370,229644,230653,229644,231636,231170,231170,231636,27
28,test,1,con,1,m,Wed Oct 22 2025 16:15:29 GMT-0400 (Eastern Daylight Time),239945.89999997616,film,900,I,m,m,None,820,621.0,199.0,90,1,2258.899999976158,237687.0,9034,film,AF,C,233270,233270,231644,232553,231644,233903,233070,233070,233903,28
29,test,1,con,1,z,Wed Oct 22 2025 16:15:29 GMT-0400 (Eastern Daylight Time),241862.69999992847,elated,800,I,z,z,None,573,374.0,199.0,1,1,1902.0,239960.69999992847,9034,elated,AF,C,235437,235437,233918,234720,233919,235820,235237,235237,235820,29
30,test,1,con,1,z,Wed Oct 22 2025 16:15:29 GMT-0400 (Eastern Daylight Time),243812.60000002384,friend,800,I,z,z,None,610,410.0,200.0,25,1,1940.3000000715256,241872.29999995232,9034,friend,AF,C,237353,237354,235829,236637,235830,237770,237153,237153,237770,30
31,test,1,inc,1,m,Wed Oct 22 2025 16:15:29 GMT-0400 (Eastern Daylight Time),245962.5,temper,1000,I,m,m,None,603,404.0,199.0,103,1,2140.7000000476837,243821.79999995232,9034,jacket,AF,C,239503,239503,237779,238786,237779,239920,239304,239304,239920,31
32,test,1,inc,1,m,Wed Oct 22 2025 16:15:29 GMT-0400 (Eastern Daylight Time),247946.0,elated,800,I,m,m,None,636,421.0,215.0,101,1,1974.1000000238419,245971.89999997616,9034,jacket,AF,C,241470,241470,239929,240736,239929,241903,241253,241254,241903,32
33,test,1,con,1,z,Wed Oct 22 2025 16:15:29 GMT-0400 (Eastern Daylight Time),250178.89999997616,elated,1100,I,z,z,None,595,395.0,200.0,4,1,2224.899999976158,247954.0,9034,elated,AF,C,243736,243736,241911,243020,241911,244136,243536,243536,244136,33
34,test,1,con,1,z,Wed Oct 22 2025 16:15:29 GMT-0400 (Eastern Daylight Time),252112.29999995232,elated,900,I,z,z,None,497,296.0,201.0,2,1,1922.1000000238419,250190.19999992847,9034,elated,AF,C,245771,245771,244147,245053,244148,246069,245570,245570,246069,34
35,test,1,inc,1,m,Wed Oct 22 2025 16:15:29 GMT-0400 (Eastern Daylight Time),254262.5,love,1000,I,m,m,None,607,408.0,199.0,87,1,2142.100000023842,252120.39999997616,9034,bell,AF,C,247804,247804,246077,247086,246078,248220,247604,247604,248219,35
36,test,1,inc,1,z,Wed Oct 22 2025 16:15:29 GMT-0400 (Eastern Daylight Time),256412.60000002384,napkin,900,I,z,z,None,701,502.0,199.0,62,1,2135.9000000953674,254276.69999992847,9034,temper,AF,C,249853,249853,248234,249137,248235,250370,249653,249654,250370,36
37,test,1,inc,1,z,Wed Oct 22 2025 16:15:29 GMT-0400 (Eastern Daylight Time),258529.10000002384,remote,1000,I,z,z,None,579,379.0,200.0,7,1,2101.4000000953674,256427.69999992847,9034,elated,AF,C,252104,252104,250385,251387,250385,252486,251903,251903,252486,37
38,test,1,inc,1,z,Wed Oct 22 2025 16:15:29 GMT-0400 (Eastern Daylight Time),260778.89999997616,window,1100,I,z,z,None,602,403.0,199.0,8,1,2236.7000000476837,258542.19999992847,9034,elated,AF,C,254320,254320,252499,253603,252500,254736,254120,254120,254736,38
39,test,1,inc,1,m,Wed Oct 22 2025 16:15:29 GMT-0400 (Eastern Daylight Time),263028.89999997616,temper,1000,I,m,m,None,708,509.0,199.0,127,1,2244.899999976158,260784.0,9034,window,AF,C,256470,256470,254741,255753,254741,256986,256270,256270,256986,39
40,test,1,con,1,m,Wed Oct 22 2025 16:15:29 GMT-0400 (Eastern Daylight Time),265062.39999997616,bell,900,I,m,m,None,592,392.0,200.0,82,1,2028.2999999523163,263034.10000002384,9034,bell,AF,C,258620,258620,256991,257903,256991,259020,258420,258420,259019,40
41,test,1,con,1,m,Wed Oct 22 2025 16:15:29 GMT-0400 (Eastern Daylight Time),267162.2999999523,remote,900,I,m,m,None,653,453.0,200.0,114,1,2090.899999976158,265071.39999997616,9034,remote,AF,C,260653,260654,259028,259936,259029,261119,260453,260453,261119,41
42,test,1,con,1,z,Wed Oct 22 2025 16:15:29 GMT-0400 (Eastern Daylight Time),269129.1999999285,brutal,1000,I,z,z,None,421,221.0,200.0,35,1,1952.0,267177.1999999285,9034,brutal,AF,C,262854,262854,261134,262137,261135,263086,262653,262653,263086,42
42,test,1,con,0,z,Wed Oct 22 2025 16:15:29 GMT-0400 (Eastern Daylight Time),271278.89999997616,temper,900,I,m,m,None,714,515.0,199.0,58,1,2138.0,269140.89999997616,9034,temper,AF,C,264720,264720,263098,264003,263098,265236,264520,264520,265236,43
43,test,1,inc,1,z,Wed Oct 22 2025 16:15:29 GMT-0400 (Eastern Daylight Time),273279.39999997616,jacket,800,I,z,z,None,664,465.0,199.0,5,1,1995.6000000238419,271283.7999999523,9034,elated,AF,C,266770,266770,265241,266053,265241,267236,266570,266570,267236,44
44,test,1,con,1,m,Wed Oct 22 2025 16:15:29 GMT-0400 (Eastern Daylight Time),275545.7999999523,jacket,1000,I,m,m,None,722,522.0,200.0,99,1,2259.0,273286.7999999523,9034,jacket,AF,C,268970,268970,267244,268253,267244,269503,268770,268770,269503,45
45,test,1,inc,1,z,Wed Oct 22 2025 16:15:29 GMT-0400 (Eastern Daylight Time),277812.39999997616,film,1100,I,z,z,None,625,426.0,199.0,16,1,2251.899999976158,275560.5,9034,kind,AF,C,271337,271337,269518,270620,269518,271770,271137,271137,271769,46
46,test,1,inc,1,m,Wed Oct 22 2025 16:15:29 GMT-0400 (Eastern Daylight Time),280062.1999999285,friend,1100,I,m,m,None,616,416.0,200.0,120,1,2240.2999999523163,277821.89999997616,9034,remote,AF,C,273603,273603,271779,272886,271779,274019,273403,273403,274019,47
47,test,1,inc,1,z,Wed Oct 22 2025 16:15:29 GMT-0400 (Eastern Daylight Time),282328.7999999523,remote,1000,I,z,z,None,721,521.0,200.0,63,1,2258.600000023842,280070.1999999285,9034,temper,AF,C,275753,275754,274027,275037,274028,276286,275553,275553,276286,48
48,test,1,con,1,m,Wed Oct 22 2025 16:15:29 GMT-0400 (Eastern Daylight Time),284428.7999999523,napkin,900,I,m,m,None,650,451.0,199.0,106,1,2092.100000023842,282336.6999999285,9034,napkin,AF,C,277920,277920,276294,277203,276294,278386,277720,277720,278386,49
49,test,1,inc,1,m,Wed Oct 22 2025 16:15:29 GMT-0400 (Eastern Daylight Time),286562.5,love,1000,I,m,m,None,595,396.0,199.0,95,1,2128.3000000715256,284434.1999999285,9034,film,AF,C,280120,280120,278391,279403,278392,280520,279920,279920,280519,50
50,test,1,inc,1,m,Wed Oct 22 2025 16:15:29 GMT-0400 (Eastern Daylight Time),288812.60000002384,friend,1100,I,m,m,None,602,402.0,200.0,112,1,2240.9000000953674,286571.6999999285,9034,napkin,AF,C,282353,282353,280529,281636,280529,282770,282153,282153,282770,51
51,test,1,con,1,z,Wed Oct 22 2025 16:15:29 GMT-0400 (Eastern Daylight Time),291112.2999999523,friend,1000,I,z,z,None,756,556.0,200.0,27,1,2290.600000023842,288821.6999999285,9034,friend,AF,C,284503,284503,282779,283786,282779,285069,284303,284303,285069,52
52,test,1,con,1,m,Wed Oct 22 2025 16:15:29 GMT-0400 (Eastern Daylight Time),293112.60000002384,film,800,I,m,m,None,656,456.0,200.0,89,1,1994.3000000715256,291118.2999999523,9034,film,AF,C,286603,286603,285075,285887,285076,287070,286403,286403,287070,53
53,test,1,con,1,m,Wed Oct 22 2025 16:15:29 GMT-0400 (Eastern Daylight Time),295112.5,napkin,800,I,m,m,None,656,456.0,200.0,105,1,1989.8999999761581,293122.60000002384,9034,napkin,AF,C,288603,288603,287080,287887,287080,289070,288403,288403,289070,54
54,test,1,con,1,m,Wed Oct 22 2025 16:15:29 GMT-0400 (Eastern Daylight Time),297262.5,napkin,1100,I,m,m,None,501,301.0,200.0,108,1,2134.899999976158,295127.60000002384,9034,napkin,AF,C,290903,290903,289084,290187,289085,291220,290703,290703,291219,55
55,test,1,con,1,z,Wed Oct 22 2025 16:15:29 GMT-0400 (Eastern Daylight Time),299362.39999997616,kind,1100,I,z,z,None,461,262.0,199.0,12,1,2086.100000023842,297276.2999999523,9034,kind,AF,C,293053,293053,291233,292337,291234,293320,292853,292853,293319,56
56,test,1,con,1,m,Wed Oct 22 2025 16:15:29 GMT-0400 (Eastern Daylight Time),301479.7999999523,film,1100,I,m,m,None,475,275.0,200.0,92,1,2108.100000023842,299371.6999999285,9034,film,AF,C,295153,295154,293329,294437,293329,295437,294953,294953,295437,57
57,test,1,inc,1,z,Wed Oct 22 2025 16:15:29 GMT-0400 (Eastern Daylight Time),303479.10000002384,jacket,800,I,z,z,None,657,457.0,200.0,29,1,1993.9000000953674,301485.1999999285,9034,friend,AF,C,296970,296970,295442,296253,295443,297436,296770,296770,297436,58
58,test,1,con,1,m,Wed Oct 22 2025 16:15:29 GMT-0400 (Eastern Daylight Time),305512.5,window,900,I,m,m,None,590,390.0,200.0,122,1,2025.3999999761581,303487.10000002384,9034,window,AF,C,299069,299069,297444,298353,297444,299470,298869,298869,299469,59
59,test,1,inc,1,z,Wed Oct 22 2025 16:15:29 GMT-0400 (Eastern Daylight Time),307562.5,rock,900,I,z,z,None,605,405.0,200.0,46,1,2038.8999999761581,305523.60000002384,9034,hate,AF,C,301103,301103,299481,300386,299481,301520,300903,300903,301519,60
60,test,1,inc,1,z,Wed Oct 22 2025 16:15:29 GMT-0400 (Eastern Daylight Time),309479.10000002384,step,800,I,z,z,None,574,374.0,200.0,45,1,1905.9000000953674,307573.1999999285,9034,hate,AF,C,303053,303053,301530,302336,301530,303436,302853,302853,303436,61
60,test,1,inc,0,z,Wed Oct 22 2025 16:15:29 GMT-0400 (Eastern Daylight Time),311545.7999999523,film,1100,I,m,m,None,421,221.0,200.0,56,1,2057.6999999284744,309488.10000002384,9034,rage,AF,C,305270,305270,303445,304553,303445,305503,305070,305070,305503,62
61,test,1,con,1,m,Wed Oct 22 2025 16:15:29 GMT-0400 (Eastern Daylight Time),313729.1999999285,step,900,I,m,m,None,746,545.0,201.0,66,1,2174.6999999284744,311554.5,9034,step,AF,C,307138,307138,305512,306420,305512,307686,306937,306937,307686,63
62,test,1,con,1,z,Wed Oct 22 2025 16:15:29 GMT-0400 (Eastern Daylight Time),315945.6999999285,rage,800,I,z,z,None,853,653.0,200.0,49,1,2200.899999976158,313744.7999999523,9034,rage,AF,C,309237,309237,307702,308520,307703,309903,309036,309036,309903,64
63,test,1,inc,1,m,Wed Oct 22 2025 16:15:29 GMT-0400 (Eastern Daylight Time),318045.6999999285,kind,900,I,m,m,None,650,451.0,199.0,86,1,2093.0999999046326,315952.60000002384,9034,bell,AF,C,311536,311537,309910,310819,309910,312003,311337,311337,312003,65
64,test,1,con,1,z,Wed Oct 22 2025 16:15:29 GMT-0400 (Eastern Daylight Time),319928.7999999523,rage,900,I,z,z,None,438,239.0,199.0,50,1,1874.5,318054.2999999523,9034,rage,AF,C,313636,313636,312011,312920,312012,313886,313437,313437,313886,66
65,test,1,con,1,z,Wed Oct 22 2025 16:15:29 GMT-0400 (Eastern Daylight Time),321912.39999997616,hate,1000,I,z,z,None,438,239.0,199.0,43,1,1978.7000000476837,319933.6999999285,9034,hate,AF,C,315620,315620,313891,314903,313891,315869,315420,315420,315869,67
66,test,1,con,1,m,Wed Oct 22 2025 16:15:29 GMT-0400 (Eastern Daylight Time),323679.1999999285,remote,800,I,m,m,None,432,232.0,200.0,113,1,1758.1999999284744,321921.0,9034,remote,AF,C,317403,317403,315878,316687,315878,317636,317203,317203,317636,68
67,test,1,inc,1,m,Wed Oct 22 2025 16:15:29 GMT-0400 (Eastern Daylight Time),325895.7999999523,hate,1100,I,m,m,None,573,373.0,200.0,80,1,2209.100000023842,323686.6999999285,9034,rock,AF,C,319470,319470,317644,318753,317644,319853,319269,319269,319853,69
68,test,1,inc,1,m,Wed Oct 22 2025 16:15:29 GMT-0400 (Eastern Daylight Time),328045.7999999523,love,1000,I,m,m,None,600,401.0,199.0,79,1,2141.5,325904.2999999523,9034,rock,AF,C,321586,321586,319861,320869,319862,322003,321387,321387,322003,70
69,test,1,inc,1,z,Wed Oct 22 2025 16:15:29 GMT-0400 (Eastern Daylight Time),330079.5,napkin,900,I,z,z,None,598,399.0,199.0,38,1,2024.8999999761581,328054.60000002384,9034,brutal,AF,C,323637,323637,322012,322919,322012,324037,323437,323437,324036,71
70,test,1,con,1,z,Wed Oct 22 2025 16:15:29 GMT-0400 (Eastern Daylight Time),332330.39999997616,love,1100,I,z,z,None,604,405.0,199.0,20,1,2240.899999976158,330089.5,9034,love,AF,C,325870,325870,324047,325153,324047,326287,325670,325670,326287,72
71,test,1,con,1,z,Wed Oct 22 2025 16:15:29 GMT-0400 (Eastern Daylight Time),334245.5,love,900,I,z,z,None,474,275.0,199.0,18,1,1908.3999999761581,332337.10000002384,9034,love,AF,C,327919,327920,326294,327203,326295,328203,327720,327720,328203,73
72,test,1,inc,1,z,Wed Oct 22 2025 16:15:29 GMT-0400 (Eastern Daylight Time),336345.89999997616,rock,900,I,z,z,None,655,455.0,200.0,14,1,2095.600000023842,334250.2999999523,9034,kind,AF,C,329836,329836,328207,329120,328208,330303,329636,329636,330303,74
73,test,1,inc,1,z,Wed Oct 22 2025 16:15:29 GMT-0400 (Eastern Daylight Time),338495.6999999285,film,1100,I,z,z,None,513,314.0,199.0,24,1,2141.0999999046326,336354.60000002384,9034,love,AF,C,332137,332137,330312,331420,330312,332453,331937,331937,332453,75
74,test,1,con,1,m,Wed Oct 22 2025 16:15:29 GMT-0400 (Eastern Daylight Time),340379.1999999285,rock,900,I,m,m,None,435,236.0,199.0,74,1,1875.2999999523163,338503.89999997616,9034,rock,AF,C,334087,334087,332461,333370,332461,334336,333886,333887,334336,76
75,test,1,inc,1,m,Wed Oct 22 2025 16:15:29 GMT-0400 (Eastern Daylight Time),342862.7999999523,hate,1100,I,m,m,None,831,632.0,199.0,72,1,2468.100000023842,340394.6999999285,9034,step,AF,C,336187,336187,334352,335470,334353,336820,335987,335987,336820,77
76,test,1,con,1,z,Wed Oct 22 2025 16:15:29 GMT-0400 (Eastern Daylight Time),345145.5,temper,1000,I,z,z,None,738,538.0,200.0,59,1,2275.600000023842,342869.89999997616,9034,temper,AF,C,338553,338553,336827,337837,336827,339103,338353,338353,339103,78
77,test,1,con,1,z,Wed Oct 22 2025 16:15:29 GMT-0400 (Eastern Daylight Time),347129.5,brutal,900,I,z,z,None,538,339.0,199.0,34,1,1979.1000000238419,345150.39999997616,9034,brutal,AF,C,340736,340736,339107,340020,339108,341087,340537,340537,341087,79
78,test,1,inc,1,m,Wed Oct 22 2025 16:15:29 GMT-0400 (Eastern Daylight Time),349062.5,elated,800,I,m,m,None,590,391.0,199.0,109,1,1924.1000000238419,347138.39999997616,9034,napkin,AF,C,342620,342620,341095,341903,341096,343020,342420,342420,343019,80
79,test,1,inc,1,z,Wed Oct 22 2025 16:15:29 GMT-0400 (Eastern Daylight Time),351062.5,step,800,I,z,z,None,659,459.0,200.0,13,1,1990.6000000238419,349071.89999997616,9034,kind,AF,C,344553,344553,343029,343837,343029,345020,344353,344353,345019,81
80,test,1,con,1,z,Wed Oct 22 2025 16:15:29 GMT-0400 (Eastern Daylight Time),353095.89999997616,hate,800,I,z,z,None,689,490.0,199.0,41,1,2019.7000000476837,351076.1999999285,9034,hate,AF,C,346553,346553,345033,345837,345034,347053,346353,346353,347053,82
81,test,1,inc,1,m,Wed Oct 22 2025 16:15:29 GMT-0400 (Eastern Daylight Time),355229.0,hate,1100,I,m,m,None,484,285.0,199.0,88,1,2119.3000000715256,353109.6999999285,9034,bell,AF,C,348886,348886,347067,348170,347068,349186,348687,348687,349186,83
82,test,1,inc,1,z,Wed Oct 22 2025 16:15:29 GMT-0400 (Eastern Daylight Time),357412.10000002384,window,1100,I,z,z,None,542,343.0,199.0,40,1,2175.4000000953674,355236.6999999285,9034,brutal,AF,C,351020,351020,349194,350303,349194,351369,350820,350820,351369,84
83,test,1,inc,1,z,Wed Oct 22 2025 16:15:29 GMT-0400 (Eastern Daylight Time),359595.39999997616,bell,1000,I,z,z,None,636,436.0,200.0,15,1,2174.100000023842,357421.2999999523,9034,kind,AF,C,353103,353103,351378,352387,351379,353553,352903,352903,353552,85
84,test,1,con,1,m,Wed Oct 22 2025 16:15:29 GMT-0400 (Eastern Daylight Time),361612.5,rock,800,I,m,m,None,668,468.0,200.0,73,1,2011.5,359601.0,9034,rock,AF,C,355087,355087,353558,354370,353558,355570,354886,354886,355570,86
85,test,1,inc,1,z,Wed Oct 22 2025 16:15:29 GMT-0400 (Eastern Daylight Time),363729.10000002384,remote,1000,I,z,z,None,580,380.0,200.0,31,1,2107.100000023842,361622.0,9034,friend,AF,C,357303,357303,355579,356586,355579,357686,357103,357103,357686,87
86,test,1,inc,1,m,Wed Oct 22 2025 16:15:29 GMT-0400 (Eastern Daylight Time),365679.10000002384,brutal,900,I,m,m,None,515,316.0,199.0,102,1,1941.6000000238419,363737.5,9034,jacket,AF,C,359319,359319,357695,358603,357695,359636,359120,359120,359636,88
87,test,1,inc,1,m,Wed Oct 22 2025 16:15:29 GMT-0400 (Eastern Daylight Time),367545.6999999285,elated,800,I,m,m,None,520,321.0,199.0,125,1,1859.2999999523163,365686.39999997616,9034,window,AF,C,361170,361170,359643,360453,359644,361503,360970,360970,361503,89
88,test,1,con,1,z,Wed Oct 22 2025 16:15:29 GMT-0400 (Eastern Daylight Time),369612.5,love,1000,I,z,z,None,518,319.0,199.0,19,1,2057.7000000476837,367554.7999999523,9034,love,AF,C,363237,363237,361512,362519,361512,363570,363037,363037,363569,90
89,test,1,inc,1,m,Wed Oct 22 2025 16:15:29 GMT-0400 (Eastern Daylight Time),371845.7999999523,brutal,900,I,m,m,None,793,593.0,200.0,126,1,2218.5,369627.2999999523,9034,window,AF,C,365203,365203,363584,364486,363585,365803,365003,365003,365803,91
90,test,1,inc,1,z,Wed Oct 22 2025 16:15:29 GMT-0400 (Eastern Daylight Time),374395.6999999285,window,1100,I,z,z,None,902,703.0,199.0,64,1,2540.1999999284744,371855.5,9034,temper,AF,C,367636,367636,365813,366919,365813,368353,367436,367437,368353,92
91,test,1,inc,1,z,Wed Oct 22 2025 16:15:29 GMT-0400 (Eastern Daylight Time),376312.0,jacket,800,I,z,z,None,573,374.0,199.0,37,1,1907.5,374404.5,9034,brutal,AF,C,369886,369886,368362,369170,368362,370269,369687,369687,370269,93
92,test,1,inc,1,m,Wed Oct 22 2025 16:15:29 GMT-0400 (Eastern Daylight Time),378329.0,kind,900,I,m,m,None,572,372.0,200.0,70,1,2012.1000000238419,376316.89999997616,9034,step,AF,C,371903,371903,370274,371186,370274,372286,371703,371703,372286,94
93,test,1,inc,1,z,Wed Oct 22 2025 16:15:29 GMT-0400 (Eastern Daylight Time),380545.6999999285,window,1100,I,z,z,None,579,379.0,200.0,32,1,2206.5,378339.1999999285,9034,friend,AF,C,374120,374120,372296,373403,372297,374503,373920,373920,374503,95
94,test,1,con,1,z,Wed Oct 22 2025 16:15:29 GMT-0400 (Eastern Daylight Time),382779.10000002384,brutal,800,I,z,z,None,903,704.0,199.0,33,1,2223.9000000953674,380555.1999999285,9034,brutal,AF,C,376020,376020,374512,375319,374513,376736,375820,375820,376736,96
95,test,1,con,1,m,Wed Oct 22 2025 16:15:29 GMT-0400 (Eastern Daylight Time),384762.2999999523,film,1000,I,m,m,None,436,237.0,199.0,91,1,1973.2999999523163,382789.0,9034,film,AF,C,378470,378470,376746,377753,376746,378720,378269,378270,378719,97
96,test,1,con,1,z,Wed Oct 22 2025 16:15:29 GMT-0400 (Eastern Daylight Time),386662.39999997616,kind,900,I,z,z,None,459,258.0,201.0,10,1,1885.6000000238419,384776.7999999523,9034,kind,AF,C,380353,380353,378734,379637,378734,380619,380152,380152,380619,98
97,test,1,con,1,m,Wed Oct 22 2025 16:15:29 GMT-0400 (Eastern Daylight Time),388879.10000002384,window,1100,I,m,m,None,581,381.0,200.0,124,1,2203.9000000953674,386675.1999999285,9034,window,AF,C,382454,382454,380632,381737,380633,382836,382253,382253,382836,99
98,test,1,con,1,m,Wed Oct 22 2025 16:15:29 GMT-0400 (Eastern Daylight Time),390962.39999997616,step,1000,I,m,m,None,545,346.0,199.0,67,1,2074.5,388887.89999997616,9034,step,AF,C,384570,384570,382845,383853,382845,384919,384370,384370,384919,100
99,test,1,inc,1,m,Wed Oct 22 2025 16:15:29 GMT-0400 (Eastern Daylight Time),392812.2999999523,rage,800,I,m,m,None,503,303.0,200.0,93,1,1842.1999999284744,390970.10000002384,9034,film,AF,C,386453,386453,384927,385736,384927,386769,386253,386253,386769,101
100,test,1,inc,1,z,Wed Oct 22 2025 16:15:29 GMT-0400 (Eastern Daylight Time),394879.10000002384,napkin,900,I,z,z,None,631,431.0,200.0,30,1,2052.2000000476837,392826.89999997616,9034,friend,AF,C,388404,388404,386784,387686,386785,388836,388203,388203,388836,102
101,test,1,inc,1,m,Wed Oct 22 2025 16:15:29 GMT-0400 (Eastern Daylight Time),397062.10000002384,friend,1100,I,m,m,None,541,341.0,200.0,104,1,2168.8000000715256,394893.2999999523,9034,jacket,AF,C,390670,390670,388850,389953,388851,391019,390469,390469,391019,103
102,test,1,con,1,z,Wed Oct 22 2025 16:15:29 GMT-0400 (Eastern Daylight Time),398845.7999999523,kind,800,I,z,z,None,434,234.0,200.0,9,1,1778.3999999761581,397067.39999997616,9034,kind,AF,C,392553,392553,391024,391836,391025,392803,392353,392353,392803,104
103,test,1,con,1,m,Wed Oct 22 2025 16:15:29 GMT-0400 (Eastern Daylight Time),400829.0,rock,1100,I,m,m,None,335,135.0,200.0,76,1,1972.0,398857.0,9034,rock,AF,C,394636,394636,392814,393920,392814,394786,394436,394436,394786,105
104,test,1,con,1,z,Wed Oct 22 2025 16:15:29 GMT-0400 (Eastern Daylight Time),402895.2999999523,friend,1100,I,z,z,None,430,231.0,199.0,28,1,2058.0,400837.2999999523,9034,friend,AF,C,396620,396620,394794,395903,394795,396852,396420,396420,396852,106
105,test,1,inc,1,m,Wed Oct 22 2025 16:15:29 GMT-0400 (Eastern Daylight Time),405012.39999997616,brutal,900,I,m,m,None,675,476.0,199.0,110,1,2110.2999999523163,402902.10000002384,9034,napkin,AF,C,398487,398487,396859,397769,396860,398969,398287,398287,398969,107
106,test,1,inc,1,m,Wed Oct 22 2025 16:15:29 GMT-0400 (Eastern Daylight Time),407162.5,temper,1000,I,m,m,None,604,404.0,200.0,119,1,2136.399999976158,405026.10000002384,9034,remote,AF,C,400703,400703,398983,399986,398984,401120,400503,400503,401120,108
107,test,1,inc,1,m,Wed Oct 22 2025 16:15:29 GMT-0400 (Eastern Daylight Time),409345.6999999285,rage,800,I,m,m,None,846,646.0,200.0,69,1,2174.2999999523163,407171.39999997616,9034,step,AF,C,402653,402653,401128,401936,401129,403303,402453,402453,403303,109
108,test,1,con,1,m,Wed Oct 22 2025 16:15:29 GMT-0400 (Eastern Daylight Time),411479.0,step,1100,I,m,m,None,490,290.0,200.0,68,1,2123.8000000715256,409355.1999999285,9034,step,AF,C,405136,405137,403312,404420,403313,405436,404936,404936,405436,110
109,test,1,inc,1,z,Wed Oct 22 2025 16:15:29 GMT-0400 (Eastern Daylight Time),413645.7999999523,bell,1000,I,z,z,None,617,418.0,199.0,23,1,2158.2999999523163,411487.5,9034,love,AF,C,407170,407170,405445,406453,405445,407603,406970,406970,407603,111
109,test,1,inc,0,z,Wed Oct 22 2025 16:15:29 GMT-0400 (Eastern Daylight Time),415662.7999999523,bell,1000,I,m,m,None,483,283.0,200.0,47,1,2003.5,413659.2999999523,9034,hate,AF,C,409336,409336,407616,408620,407617,409620,409136,409136,409620,112
110,test,1,inc,1,m,Wed Oct 22 2025 16:15:29 GMT-0400 (Eastern Daylight Time),417795.89999997616,love,1000,I,m,m,None,594,394.0,200.0,71,1,2125.7000000476837,415670.1999999285,9034,step,AF,C,411353,411353,409627,410636,409628,411753,411153,411153,411753,113
111,test,1,inc,1,m,Wed Oct 22 2025 16:15:29 GMT-0400 (Eastern Daylight Time),419795.7999999523,kind,900,I,m,m,None,560,360.0,200.0,78,1,1989.3999999761581,417806.39999997616,9034,rock,AF,C,413387,413387,411763,412670,411764,413753,413186,413186,413753,114
112,test,1,inc,1,m,Wed Oct 22 2025 16:15:29 GMT-0400 (Eastern Daylight Time),421928.89999997616,temper,1000,I,m,m,None,589,389.0,200.0,111,1,2123.5,419805.39999997616,9034,napkin,AF,C,415486,415486,413762,414770,413763,415886,415286,415286,415886,115
113,test,1,inc,1,z,Wed Oct 22 2025 16:15:29 GMT-0400 (Eastern Daylight Time),424062.2999999523,bell,1000,I,z,z,None,583,384.0,199.0,55,1,2122.399999976158,421939.89999997616,9034,rage,AF,C,417620,417620,415897,416903,415897,418019,417420,417420,418019,116
114,test,1,con,1,z,Wed Oct 22 2025 16:15:29 GMT-0400 (Eastern Daylight Time),425862.39999997616,temper,800,I,z,z,None,458,258.0,200.0,57,1,1786.2000000476837,424076.1999999285,9034,temper,AF,C,419553,419553,418033,418837,418034,419820,419353,419353,419819,117
115,test,1,inc,1,m,Wed Oct 22 2025 16:15:29 GMT-0400 (Eastern Daylight Time),427978.89999997616,brutal,900,I,m,m,None,670,470.0,200.0,118,1,2108.100000023842,425870.7999999523,9034,remote,AF,C,421453,421453,419828,420736,419828,421936,421253,421253,421936,118
116,test,1,inc,1,z,Wed Oct 22 2025 16:15:29 GMT-0400 (Eastern Daylight Time),429979.0,napkin,900,I,z,z,None,552,353.0,199.0,6,1,1986.3000000715256,427992.6999999285,9034,elated,AF,C,423570,423570,421950,422853,421950,423936,423370,423370,423936,119
117,test,1,inc,1,m,Wed Oct 22 2025 16:15:29 GMT-0400 (Eastern Daylight Time),431812.10000002384,elated,800,I,m,m,None,492,293.0,199.0,117,1,1823.9000000953674,429988.1999999285,9034,remote,AF,C,425470,425470,423945,424753,423946,425769,425270,425270,425769,120
118,test,1,inc,1,z,Wed Oct 22 2025 16:15:29 GMT-0400 (Eastern Daylight Time),433878.89999997616,remote,1000,I,z,z,None,524,324.0,200.0,39,1,2056.899999976158,431822.0,9034,brutal,AF,C,427503,427503,425779,426786,425779,427836,427303,427303,427836,121
119,test,1,con,1,z,Wed Oct 22 2025 16:15:29 GMT-0400 (Eastern Daylight Time),435712.2999999523,hate,900,I,z,z,None,396,197.0,199.0,42,1,1823.7999999523163,433888.5,9034,hate,AF,C,429470,429470,427846,428754,427846,429669,429270,429270,429669,122
119,test,1,con,0,z,Wed Oct 22 2025 16:15:29 GMT-0400 (Eastern Daylight Time),437829.0,temper,1100,I,m,m,None,476,276.0,200.0,60,1,2106.399999976158,435722.60000002384,9034,temper,AF,C,431503,431503,429680,430786,429680,431786,431303,431303,431786,123
120,test,1,con,1,m,Wed Oct 22 2025 16:15:29 GMT-0400 (Eastern Daylight Time),439879.0,remote,1100,I,m,m,None,406,207.0,199.0,116,1,2038.3000000715256,437840.6999999285,9034,remote,AF,C,433620,433620,431798,432903,431798,433836,433420,433420,433836,124
121,test,1,con,1,z,Wed Oct 22 2025 16:15:29 GMT-0400 (Eastern Daylight Time),441895.7999999523,hate,1100,I,z,z,None,372,173.0,199.0,44,1,2006.2999999523163,439889.5,9034,hate,AF,C,435670,435670,433847,434953,433847,435853,435470,435470,435853,125
122,test,1,inc,1,z,Wed Oct 22 2025 16:15:29 GMT-0400 (Eastern Daylight Time),443812.39999997616,jacket,800,I,z,z,None,575,376.0,199.0,61,1,1908.0,441904.39999997616,9034,temper,AF,C,437387,437387,435861,436669,435862,437770,437187,437187,437769,126
123,test,1,inc,1,m,Wed Oct 22 2025 16:15:29 GMT-0400 (Eastern Daylight Time),445695.39999997616,rage,800,I,m,m,None,548,348.0,200.0,85,1,1873.2999999523163,443822.10000002384,9034,bell,AF,C,439303,439303,437779,438586,437779,439653,439103,439103,439652,127
124,test,1,con,1,m,Wed Oct 22 2025 16:15:29 GMT-0400 (Eastern Daylight Time),447628.7999999523,jacket,900,I,m,m,None,486,286.0,200.0,98,1,1925.1999999284744,445703.60000002384,9034,jacket,AF,C,441286,441286,439661,440570,439661,441586,441086,441086,441586,128
