acc_sum,block,block_c,change,condition,correct,correct_response,datetime,endtime,face,project,response,response_time,row_sel,session_number,start_end,starttime,subject_id,task,task_vers,trial
0,prac,1,,1-Back,,,Tue Apr 07 2026 10:27:17 GMT-0500 (Central Daylight Time),,124_o_f_d_a.png,I,space,3912,1,1,,,8102,VNB,A,0
1,prac,1,0.0,1-Back,1.0,m,Tue Apr 07 2026 10:27:17 GMT-0500 (Central Daylight Time),109076.79999995232,071_y_f_n_a.png,I,m,1409,2,1,2207.5,106869.29999995232,8102,VNB,A,1
1,prac,1,0.0,1-Back,0.0,m,Tue Apr 07 2026 10:27:17 GMT-0500 (Central Daylight Time),111392.79999995232,165_m_m_h_a.png,I,z,1509,3,1,2309.5,109083.29999995232,8102,VNB,A,2
2,prac,1,0.0,1-Back,1.0,m,Tue Apr 07 2026 10:27:17 GMT-0500 (Central Daylight Time),113842.10000002384,109_y_m_d_a.png,I,m,1644,4,1,2442.899999976158,111399.20000004768,8102,VNB,A,3
2,prac,1,0.0,1-Back,0.0,m,Tue Apr 07 2026 10:27:17 GMT-0500 (Central Daylight Time),116607.70000004768,124_o_f_n_a.png,I,z,1931,5,1,2758.8000000715256,113848.89999997616,8102,VNB,A,4
3,prac,1,1.0,1-Back,1.0,z,Tue Apr 07 2026 10:27:17 GMT-0500 (Central Daylight Time),118723.60000002384,109_y_m_n_a.png,I,z,1299,6,1,2109.899999976158,116613.70000004768,8102,VNB,A,5
4,prac,1,0.0,1-Back,1.0,m,Tue Apr 07 2026 10:27:17 GMT-0500 (Central Daylight Time),120673.0,039_o_m_h_a.png,I,m,1143,7,1,1943.0,118730.0,8102,VNB,A,6
5,prac,1,0.0,1-Back,1.0,m,Tue Apr 07 2026 10:27:17 GMT-0500 (Central Daylight Time),122589.0,139_m_f_d_a.png,I,m,1113,8,1,1909.5,120679.5,8102,VNB,A,7
6,prac,1,1.0,1-Back,1.0,z,Tue Apr 07 2026 10:27:17 GMT-0500 (Central Daylight Time),124473.10000002384,071_y_f_d_a.png,I,z,1085,9,1,1877.3000000715256,122595.79999995232,8102,VNB,A,8
6,prac,1,0.0,1-Back,0.0,m,Tue Apr 07 2026 10:27:17 GMT-0500 (Central Daylight Time),126554.20000004768,165_m_m_n_a.png,I,z,1281,10,1,2074.7000000476837,124479.5,8102,VNB,A,9
7,prac,1,0.0,1-Back,1.0,m,Tue Apr 07 2026 10:27:17 GMT-0500 (Central Daylight Time),128504.10000002384,124_o_f_h_a.png,I,m,1125,11,1,1943.1000000238419,126561.0,8102,VNB,A,10
8,prac,1,0.0,1-Back,1.0,m,Tue Apr 07 2026 10:27:17 GMT-0500 (Central Daylight Time),130420.10000002384,109_y_m_d_a.png,I,m,1140,12,1,1910.5,128509.60000002384,8102,VNB,A,11
0,prac,2,0.0,1-Back,,,Tue Apr 07 2026 10:27:17 GMT-0500 (Central Daylight Time),130420.10000002384,124_o_f_d_a.png,I,a,2490,1,1,1910.5,128509.60000002384,8102,VNB,A,0
1,prac,2,0.0,1-Back,1.0,m,Tue Apr 07 2026 10:27:17 GMT-0500 (Central Daylight Time),137801.0,071_y_f_n_a.png,I,m,1047,2,1,1841.7000000476837,135959.29999995232,8102,VNB,A,1
2,prac,2,0.0,1-Back,1.0,m,Tue Apr 07 2026 10:27:17 GMT-0500 (Central Daylight Time),139883.79999995232,165_m_m_h_a.png,I,m,1280,3,1,2076.6999999284744,137807.10000002384,8102,VNB,A,2
3,prac,2,0.0,1-Back,1.0,m,Tue Apr 07 2026 10:27:17 GMT-0500 (Central Daylight Time),141766.5,109_y_m_d_a.png,I,m,1104,4,1,1876.6000000238419,139889.89999997616,8102,VNB,A,3
3,prac,2,0.0,1-Back,0.0,m,Tue Apr 07 2026 10:27:17 GMT-0500 (Central Daylight Time),143566.10000002384,124_o_f_n_a.png,I,z,966,5,1,1793.0,141773.10000002384,8102,VNB,A,4
4,prac,2,1.0,1-Back,1.0,z,Tue Apr 07 2026 10:27:17 GMT-0500 (Central Daylight Time),145931.70000004768,109_y_m_n_a.png,I,z,1558,6,1,2359.3000000715256,143572.39999997616,8102,VNB,A,5
5,prac,2,0.0,1-Back,1.0,m,Tue Apr 07 2026 10:27:17 GMT-0500 (Central Daylight Time),147747.89999997616,039_o_m_h_a.png,I,m,1008,7,1,1810.1999999284744,145937.70000004768,8102,VNB,A,6
6,prac,2,0.0,1-Back,1.0,m,Tue Apr 07 2026 10:27:17 GMT-0500 (Central Daylight Time),149547.39999997616,139_m_f_d_a.png,I,m,991,8,1,1793.3999999761581,147754.0,8102,VNB,A,7
7,prac,2,1.0,1-Back,1.0,z,Tue Apr 07 2026 10:27:17 GMT-0500 (Central Daylight Time),151563.29999995232,071_y_f_d_a.png,I,z,1207,9,1,2009.2999999523163,149554.0,8102,VNB,A,8
8,prac,2,0.0,1-Back,1.0,m,Tue Apr 07 2026 10:27:17 GMT-0500 (Central Daylight Time),153346.39999997616,165_m_m_n_a.png,I,m,983,10,1,1776.8999999761581,151569.5,8102,VNB,A,9
9,prac,2,0.0,1-Back,1.0,m,Tue Apr 07 2026 10:27:17 GMT-0500 (Central Daylight Time),155245.5,124_o_f_h_a.png,I,m,1071,11,1,1893.5,153352.0,8102,VNB,A,10
10,prac,2,0.0,1-Back,1.0,m,Tue Apr 07 2026 10:27:17 GMT-0500 (Central Daylight Time),157045.10000002384,109_y_m_d_a.png,I,m,1013,12,1,1793.3000000715256,155251.79999995232,8102,VNB,A,11
0,test,1,0.0,1-Back,,,Tue Apr 07 2026 10:27:17 GMT-0500 (Central Daylight Time),157045.10000002384,071_y_f_d_a.png,I,space,4343,1,1,1793.3000000715256,155251.79999995232,8102,VNB,A,0
1,test,1,0.0,1-Back,1.0,m,Tue Apr 07 2026 10:27:17 GMT-0500 (Central Daylight Time),173323.39999997616,139_m_f_n_a.png,I,m,890,2,1,1911.2999999523163,171412.10000002384,8102,VNB,A,1
2,test,1,0.0,1-Back,1.0,m,Tue Apr 07 2026 10:27:17 GMT-0500 (Central Daylight Time),175255.89999997616,039_o_m_h_a.png,I,m,902,3,1,1927.6000000238419,173328.29999995232,8102,VNB,A,2
3,test,1,1.0,1-Back,1.0,z,Tue Apr 07 2026 10:27:17 GMT-0500 (Central Daylight Time),177238.70000004768,165_m_m_h_a.png,I,z,953,4,1,1978.6000000238419,175260.10000002384,8102,VNB,A,3
4,test,1,0.0,1-Back,1.0,m,Tue Apr 07 2026 10:27:17 GMT-0500 (Central Daylight Time),179138.29999995232,124_o_f_n_a.png,I,m,874,5,1,1895.1999999284744,177243.10000002384,8102,VNB,A,4
5,test,1,0.0,1-Back,1.0,m,Tue Apr 07 2026 10:27:17 GMT-0500 (Central Daylight Time),181171.79999995232,109_y_m_d_a.png,I,m,1015,6,1,2029.6999999284744,179142.10000002384,8102,VNB,A,5
6,test,1,1.0,1-Back,1.0,z,Tue Apr 07 2026 10:27:17 GMT-0500 (Central Daylight Time),183270.29999995232,139_m_f_d_a.png,I,z,1070,7,1,2094.0999999046326,181176.20000004768,8102,VNB,A,6
7,test,1,0.0,1-Back,1.0,m,Tue Apr 07 2026 10:27:17 GMT-0500 (Central Daylight Time),185253.0,071_y_f_h_a.png,I,m,956,8,1,1978.2000000476837,183274.79999995232,8102,VNB,A,7
8,test,1,0.0,1-Back,1.0,m,Tue Apr 07 2026 10:27:17 GMT-0500 (Central Daylight Time),187335.70000004768,039_o_m_n_a.png,I,m,1060,9,1,2078.600000023842,185257.10000002384,8102,VNB,A,8
9,test,1,0.0,1-Back,1.0,m,Tue Apr 07 2026 10:27:17 GMT-0500 (Central Daylight Time),189284.79999995232,109_y_m_h_a.png,I,m,922,10,1,1944.8999999761581,187339.89999997616,8102,VNB,A,9
10,test,1,0.0,1-Back,1.0,m,Tue Apr 07 2026 10:27:17 GMT-0500 (Central Daylight Time),191417.5,039_o_m_d_a.png,I,m,1100,11,1,2129.2999999523163,189288.20000004768,8102,VNB,A,10
11,test,1,1.0,1-Back,1.0,z,Tue Apr 07 2026 10:27:17 GMT-0500 (Central Daylight Time),193400.0,124_o_f_d_a.png,I,z,960,12,1,1978.0,191422.0,8102,VNB,A,11
12,test,1,0.0,1-Back,1.0,m,Tue Apr 07 2026 10:27:17 GMT-0500 (Central Daylight Time),195466.29999995232,165_m_m_n_a.png,I,m,1033,13,1,2062.0999999046326,193404.20000004768,8102,VNB,A,12
13,test,1,1.0,1-Back,1.0,z,Tue Apr 07 2026 10:27:17 GMT-0500 (Central Daylight Time),197532.10000002384,071_y_f_n_a.png,I,z,1047,14,1,2061.399999976158,195470.70000004768,8102,VNB,A,13
14,test,1,0.0,1-Back,1.0,m,Tue Apr 07 2026 10:27:17 GMT-0500 (Central Daylight Time),199481.70000004768,139_m_f_h_a.png,I,m,917,15,1,1945.3000000715256,197536.39999997616,8102,VNB,A,14
15,test,1,0.0,1-Back,1.0,m,Tue Apr 07 2026 10:27:17 GMT-0500 (Central Daylight Time),201447.70000004768,165_m_m_d_a.png,I,m,944,16,1,1961.8000000715256,199485.89999997616,8102,VNB,A,15
16,test,1,0.0,1-Back,1.0,m,Tue Apr 07 2026 10:27:17 GMT-0500 (Central Daylight Time),203563.70000004768,109_y_m_n_a.png,I,m,1089,17,1,2112.2000000476837,201451.5,8102,VNB,A,16
17,test,1,0.0,1-Back,1.0,m,Tue Apr 07 2026 10:27:17 GMT-0500 (Central Daylight Time),205564.20000004768,124_o_f_h_a.png,I,m,982,18,1,1996.1000000238419,203568.10000002384,8102,VNB,A,17
0,test,2,0.0,1-Back,,,Tue Apr 07 2026 10:27:17 GMT-0500 (Central Daylight Time),205564.20000004768,109_y_m_n_a.png,I,space,1349,1,1,1996.1000000238419,203568.10000002384,8102,VNB,A,0
1,test,2,0.0,1-Back,1.0,m,Tue Apr 07 2026 10:27:17 GMT-0500 (Central Daylight Time),210811.5,071_y_f_h_a.png,I,m,848,2,1,1861.7000000476837,208949.79999995232,8102,VNB,A,1
2,test,2,1.0,1-Back,1.0,m,Tue Apr 07 2026 10:27:17 GMT-0500 (Central Daylight Time),212710.89999997616,039_o_m_n_a.png,I,m,870,3,1,1895.1000000238419,210815.79999995232,8102,VNB,A,2
2,test,2,0.0,1-Back,0.0,m,Tue Apr 07 2026 10:27:17 GMT-0500 (Central Daylight Time),214693.60000002384,139_m_f_d_a.png,I,z,963,4,1,1978.0,212715.60000002384,8102,VNB,A,3
3,test,2,0.0,1-Back,1.0,z,Tue Apr 07 2026 10:27:17 GMT-0500 (Central Daylight Time),216794.20000004768,165_m_m_d_a.png,I,z,1076,5,1,2096.5,214697.70000004768,8102,VNB,A,4
4,test,2,0.0,1-Back,1.0,m,Tue Apr 07 2026 10:27:17 GMT-0500 (Central Daylight Time),218675.70000004768,109_y_m_h_a.png,I,m,856,6,1,1877.2000000476837,216798.5,8102,VNB,A,5
5,test,2,1.0,1-Back,1.0,z,Tue Apr 07 2026 10:27:17 GMT-0500 (Central Daylight Time),220391.79999995232,124_o_f_h_a.png,I,z,693,7,1,1711.1999999284744,218680.60000002384,8102,VNB,A,6
6,test,2,0.0,1-Back,1.0,m,Tue Apr 07 2026 10:27:17 GMT-0500 (Central Daylight Time),222108.10000002384,139_m_f_n_a.png,I,m,697,8,1,1712.1000000238419,220396.0,8102,VNB,A,7
7,test,2,0.0,1-Back,1.0,m,Tue Apr 07 2026 10:27:17 GMT-0500 (Central Daylight Time),224990.39999997616,071_y_f_d_a.png,I,m,1861,9,1,2878.600000023842,222111.79999995232,8102,VNB,A,8
8,test,2,0.0,1-Back,1.0,m,Tue Apr 07 2026 10:27:17 GMT-0500 (Central Daylight Time),227007.60000002384,165_m_m_n_a.png,I,m,995,10,1,2012.8999999761581,224994.70000004768,8102,VNB,A,9
9,test,2,1.0,1-Back,1.0,m,Tue Apr 07 2026 10:27:17 GMT-0500 (Central Daylight Time),228972.70000004768,139_m_f_h_a.png,I,m,947,11,1,1961.2000000476837,227011.5,8102,VNB,A,10
10,test,2,0.0,1-Back,1.0,z,Tue Apr 07 2026 10:27:17 GMT-0500 (Central Daylight Time),230871.89999997616,039_o_m_h_a.png,I,z,869,12,1,1895.3999999761581,228976.5,8102,VNB,A,11
11,test,2,0.0,1-Back,1.0,m,Tue Apr 07 2026 10:27:17 GMT-0500 (Central Daylight Time),232737.89999997616,109_y_m_d_a.png,I,m,842,13,1,1862.0,230875.89999997616,8102,VNB,A,12
12,test,2,0.0,1-Back,1.0,m,Tue Apr 07 2026 10:27:17 GMT-0500 (Central Daylight Time),234820.70000004768,124_o_f_n_a.png,I,m,1063,14,1,2078.100000023842,232742.60000002384,8102,VNB,A,13
13,test,2,0.0,1-Back,1.0,z,Tue Apr 07 2026 10:27:17 GMT-0500 (Central Daylight Time),236853.5,071_y_f_n_a.png,I,z,1005,15,1,2027.7999999523163,234825.70000004768,8102,VNB,A,14
14,test,2,1.0,1-Back,1.0,m,Tue Apr 07 2026 10:27:17 GMT-0500 (Central Daylight Time),238702.89999997616,165_m_m_h_a.png,I,m,828,16,1,1845.6000000238419,236857.29999995232,8102,VNB,A,15
15,test,2,0.0,1-Back,1.0,m,Tue Apr 07 2026 10:27:17 GMT-0500 (Central Daylight Time),240652.20000004768,124_o_f_d_a.png,I,m,931,17,1,1945.1000000238419,238707.10000002384,8102,VNB,A,16
16,test,2,1.0,1-Back,1.0,z,Tue Apr 07 2026 10:27:17 GMT-0500 (Central Daylight Time),242668.10000002384,039_o_m_d_a.png,I,z,989,18,1,2011.7000000476837,240656.39999997616,8102,VNB,A,17
0,test,3,1.0,1-Back,,,Tue Apr 07 2026 10:27:17 GMT-0500 (Central Daylight Time),242668.10000002384,124_o_f_h_a.png,I,space,1541,1,1,2011.7000000476837,240656.39999997616,8102,VNB,A,0
1,test,3,0.0,1-Back,1.0,m,Tue Apr 07 2026 10:27:17 GMT-0500 (Central Daylight Time),248199.79999995232,139_m_f_d_a.png,I,m,803,2,1,1929.0,246270.79999995232,8102,VNB,A,1
2,test,3,1.0,1-Back,1.0,m,Tue Apr 07 2026 10:27:17 GMT-0500 (Central Daylight Time),250115.60000002384,165_m_m_n_a.png,I,m,898,3,1,1911.5,248204.10000002384,8102,VNB,A,2
3,test,3,0.0,1-Back,1.0,z,Tue Apr 07 2026 10:27:17 GMT-0500 (Central Daylight Time),252048.70000004768,124_o_f_n_a.png,I,z,910,4,1,1928.5,250120.20000004768,8102,VNB,A,3
4,test,3,1.0,1-Back,1.0,m,Tue Apr 07 2026 10:27:17 GMT-0500 (Central Daylight Time),253964.70000004768,039_o_m_d_a.png,I,m,889,5,1,1911.8000000715256,252052.89999997616,8102,VNB,A,4
5,test,3,0.0,1-Back,1.0,m,Tue Apr 07 2026 10:27:17 GMT-0500 (Central Daylight Time),255948.5,071_y_f_h_a.png,I,m,965,6,1,1978.7000000476837,253969.79999995232,8102,VNB,A,5
6,test,3,0.0,1-Back,1.0,z,Tue Apr 07 2026 10:27:17 GMT-0500 (Central Daylight Time),257581.5,109_y_m_h_a.png,I,z,614,7,1,1628.8999999761581,255952.60000002384,8102,VNB,A,6
7,test,3,0.0,1-Back,1.0,m,Tue Apr 07 2026 10:27:17 GMT-0500 (Central Daylight Time),259313.29999995232,139_m_f_n_a.png,I,m,700,8,1,1727.6999999284744,257585.60000002384,8102,VNB,A,7
8,test,3,0.0,1-Back,1.0,m,Tue Apr 07 2026 10:27:17 GMT-0500 (Central Daylight Time),261478.89999997616,071_y_f_d_a.png,I,m,1136,9,1,2161.100000023842,259317.79999995232,8102,VNB,A,8
9,test,3,1.0,1-Back,1.0,m,Tue Apr 07 2026 10:27:17 GMT-0500 (Central Daylight Time),263944.89999997616,039_o_m_n_a.png,I,m,1443,10,1,2461.600000023842,261483.29999995232,8102,VNB,A,9
10,test,3,0.0,1-Back,1.0,m,Tue Apr 07 2026 10:27:17 GMT-0500 (Central Daylight Time),265877.60000002384,165_m_m_h_a.png,I,m,904,11,1,1928.5,263949.10000002384,8102,VNB,A,10
11,test,3,0.0,1-Back,1.0,z,Tue Apr 07 2026 10:27:17 GMT-0500 (Central Daylight Time),268143.60000002384,139_m_f_h_a.png,I,z,1244,12,1,2261.899999976158,265881.7000000477,8102,VNB,A,11
12,test,3,1.0,1-Back,1.0,m,Tue Apr 07 2026 10:27:17 GMT-0500 (Central Daylight Time),270059.60000002384,124_o_f_d_a.png,I,m,891,13,1,1911.8999999761581,268147.7000000477,8102,VNB,A,12
13,test,3,0.0,1-Back,1.0,z,Tue Apr 07 2026 10:27:17 GMT-0500 (Central Daylight Time),272225.7000000477,165_m_m_d_a.png,I,z,1088,14,1,2161.100000023842,270064.60000002384,8102,VNB,A,13
14,test,3,0.0,1-Back,1.0,m,Tue Apr 07 2026 10:27:17 GMT-0500 (Central Daylight Time),274141.7000000477,109_y_m_n_a.png,I,m,888,15,1,1911.8000000715256,272229.89999997616,8102,VNB,A,14
15,test,3,1.0,1-Back,1.0,m,Tue Apr 07 2026 10:27:17 GMT-0500 (Central Daylight Time),276207.5,039_o_m_h_a.png,I,m,1044,16,1,2061.600000023842,274145.89999997616,8102,VNB,A,15
16,test,3,0.0,1-Back,1.0,m,Tue Apr 07 2026 10:27:17 GMT-0500 (Central Daylight Time),278157.2000000477,109_y_m_d_a.png,I,m,930,17,1,1945.6000000238419,276211.60000002384,8102,VNB,A,16
17,test,3,1.0,1-Back,1.0,m,Tue Apr 07 2026 10:27:17 GMT-0500 (Central Daylight Time),280389.7999999523,071_y_f_n_a.png,I,m,1204,18,1,2228.6999999284744,278161.10000002384,8102,VNB,A,17
0,test,4,1.0,1-Back,,,Tue Apr 07 2026 10:27:17 GMT-0500 (Central Daylight Time),280389.7999999523,165_m_m_d_a.png,I,space,1283,1,1,2228.6999999284744,278161.10000002384,8102,VNB,A,0
1,test,4,0.0,1-Back,1.0,z,Tue Apr 07 2026 10:27:17 GMT-0500 (Central Daylight Time),285955.7999999523,039_o_m_d_a.png,I,z,1231,2,1,2246.899999976158,283708.89999997616,8102,VNB,A,1
2,test,4,0.0,1-Back,1.0,m,Tue Apr 07 2026 10:27:17 GMT-0500 (Central Daylight Time),287720.7000000477,109_y_m_h_a.png,I,m,743,3,1,1760.5,285960.2000000477,8102,VNB,A,2
3,test,4,0.0,1-Back,1.0,m,Tue Apr 07 2026 10:27:17 GMT-0500 (Central Daylight Time),289603.60000002384,139_m_f_n_a.png,I,m,857,4,1,1879.3000000715256,287724.2999999523,8102,VNB,A,3
4,test,4,1.0,1-Back,1.0,m,Tue Apr 07 2026 10:27:17 GMT-0500 (Central Daylight Time),291752.7000000477,124_o_f_h_a.png,I,m,1118,5,1,2145.100000023842,289607.60000002384,8102,VNB,A,4
5,test,4,0.0,1-Back,1.0,m,Tue Apr 07 2026 10:27:17 GMT-0500 (Central Daylight Time),294768.7000000477,165_m_m_n_a.png,I,m,1993,6,1,3012.3000000715256,291756.39999997616,8102,VNB,A,5
6,test,4,0.0,1-Back,1.0,m,Tue Apr 07 2026 10:27:17 GMT-0500 (Central Daylight Time),296734.60000002384,109_y_m_d_a.png,I,m,937,7,1,1961.8999999761581,294772.7000000477,8102,VNB,A,6
7,test,4,1.0,1-Back,1.0,z,Tue Apr 07 2026 10:27:17 GMT-0500 (Central Daylight Time),298900.39999997616,071_y_f_d_a.png,I,z,1139,8,1,2161.7999999523163,296738.60000002384,8102,VNB,A,7
8,test,4,0.0,1-Back,1.0,m,Tue Apr 07 2026 10:27:17 GMT-0500 (Central Daylight Time),300966.7999999523,139_m_f_h_a.png,I,m,1037,9,1,2062.399999976158,298904.39999997616,8102,VNB,A,8
9,test,4,0.0,1-Back,1.0,z,Tue Apr 07 2026 10:27:17 GMT-0500 (Central Daylight Time),302799.39999997616,039_o_m_h_a.png,I,z,811,10,1,1828.6999999284744,300970.7000000477,8102,VNB,A,9
10,test,4,1.0,1-Back,1.0,m,Tue Apr 07 2026 10:27:17 GMT-0500 (Central Daylight Time),304682.10000002384,124_o_f_n_a.png,I,m,866,11,1,1877.3999999761581,302804.7000000477,8102,VNB,A,10
11,test,4,0.0,1-Back,1.0,m,Tue Apr 07 2026 10:27:17 GMT-0500 (Central Daylight Time),307297.7999999523,139_m_f_d_a.png,I,m,1599,12,1,2611.899999976158,304685.89999997616,8102,VNB,A,11
11,test,4,0.0,1-Back,0.0,m,Tue Apr 07 2026 10:27:17 GMT-0500 (Central Daylight Time),310330.60000002384,071_y_f_n_a.png,I,None,2015,13,1,3028.8000000715256,307301.7999999523,8102,VNB,A,12
12,test,4,0.0,1-Back,1.0,m,Tue Apr 07 2026 10:27:17 GMT-0500 (Central Daylight Time),312413.0,124_o_f_d_a.png,I,m,1063,14,1,2078.2999999523163,310334.7000000477,8102,VNB,A,13
13,test,4,0.0,1-Back,1.0,m,Tue Apr 07 2026 10:27:17 GMT-0500 (Central Daylight Time),314545.60000002384,071_y_f_h_a.png,I,m,1108,15,1,2128.5,312417.10000002384,8102,VNB,A,14
14,test,4,1.0,1-Back,1.0,z,Tue Apr 07 2026 10:27:17 GMT-0500 (Central Daylight Time),316461.7000000477,165_m_m_h_a.png,I,z,888,16,1,1911.9000000953674,314549.7999999523,8102,VNB,A,15
15,test,4,0.0,1-Back,1.0,m,Tue Apr 07 2026 10:27:17 GMT-0500 (Central Daylight Time),318344.2999999523,039_o_m_n_a.png,I,m,860,17,1,1878.1999999284744,316466.10000002384,8102,VNB,A,16
16,test,4,1.0,1-Back,1.0,z,Tue Apr 07 2026 10:27:17 GMT-0500 (Central Daylight Time),320377.2000000477,109_y_m_n_a.png,I,z,1009,18,1,2028.4000000953674,318348.7999999523,8102,VNB,A,17
0,test,5,1.0,1-Back,,,Tue Apr 07 2026 10:27:17 GMT-0500 (Central Daylight Time),320377.2000000477,039_o_m_n_a.png,I,space,1504,1,1,2028.4000000953674,318348.7999999523,8102,VNB,A,0
1,test,5,1.0,1-Back,1.0,m,Tue Apr 07 2026 10:27:17 GMT-0500 (Central Daylight Time),325809.2000000477,124_o_f_h_a.png,I,m,875,2,1,1896.0,323913.2000000477,8102,VNB,A,1
2,test,5,0.0,1-Back,1.0,m,Tue Apr 07 2026 10:27:17 GMT-0500 (Central Daylight Time),327808.2000000477,109_y_m_d_a.png,I,m,968,3,1,1994.7000000476837,325813.5,8102,VNB,A,2
3,test,5,0.0,1-Back,1.0,z,Tue Apr 07 2026 10:27:17 GMT-0500 (Central Daylight Time),329657.7999999523,039_o_m_d_a.png,I,z,824,4,1,1845.5999999046326,327812.2000000477,8102,VNB,A,3
4,test,5,0.0,1-Back,1.0,m,Tue Apr 07 2026 10:27:17 GMT-0500 (Central Daylight Time),331507.0,139_m_f_h_a.png,I,m,824,5,1,1844.8999999761581,329662.10000002384,8102,VNB,A,4
5,test,5,0.0,1-Back,1.0,m,Tue Apr 07 2026 10:27:17 GMT-0500 (Central Daylight Time),333540.0,071_y_f_n_a.png,I,m,1006,6,1,2028.2999999523163,331511.7000000477,8102,VNB,A,5
6,test,5,1.0,1-Back,1.0,z,Tue Apr 07 2026 10:27:17 GMT-0500 (Central Daylight Time),335422.7000000477,124_o_f_n_a.png,I,z,862,7,1,1878.9000000953674,333543.7999999523,8102,VNB,A,6
7,test,5,0.0,1-Back,1.0,m,Tue Apr 07 2026 10:27:17 GMT-0500 (Central Daylight Time),338005.10000002384,139_m_f_d_a.png,I,m,1555,8,1,2578.899999976158,335426.2000000477,8102,VNB,A,7
8,test,5,0.0,1-Back,1.0,m,Tue Apr 07 2026 10:27:17 GMT-0500 (Central Daylight Time),339970.89999997616,109_y_m_h_a.png,I,m,948,9,1,1962.1999999284744,338008.7000000477,8102,VNB,A,8
8,test,5,0.0,1-Back,0.0,m,Tue Apr 07 2026 10:27:17 GMT-0500 (Central Daylight Time),341903.60000002384,071_y_f_d_a.png,I,z,909,10,1,1929.3000000715256,339974.2999999523,8102,VNB,A,9
9,test,5,0.0,1-Back,1.0,m,Tue Apr 07 2026 10:27:17 GMT-0500 (Central Daylight Time),344187.2000000477,165_m_m_n_a.png,I,m,1265,11,1,2280.600000023842,341906.60000002384,8102,VNB,A,10
10,test,5,1.0,1-Back,1.0,z,Tue Apr 07 2026 10:27:17 GMT-0500 (Central Daylight Time),346269.39999997616,139_m_f_n_a.png,I,z,1055,12,1,2078.2999999523163,344191.10000002384,8102,VNB,A,11
11,test,5,0.0,1-Back,1.0,m,Tue Apr 07 2026 10:27:17 GMT-0500 (Central Daylight Time),348169.60000002384,039_o_m_h_a.png,I,m,875,13,1,1896.3999999761581,346273.2000000477,8102,VNB,A,12
12,test,5,0.0,1-Back,1.0,z,Tue Apr 07 2026 10:27:17 GMT-0500 (Central Daylight Time),349984.60000002384,165_m_m_h_a.png,I,z,793,14,1,1811.1000000238419,348173.5,8102,VNB,A,13
13,test,5,1.0,1-Back,1.0,m,Tue Apr 07 2026 10:27:17 GMT-0500 (Central Daylight Time),352367.2999999523,124_o_f_d_a.png,I,m,1360,15,1,2378.399999976158,349988.89999997616,8102,VNB,A,14
14,test,5,0.0,1-Back,1.0,m,Tue Apr 07 2026 10:27:17 GMT-0500 (Central Daylight Time),354483.10000002384,109_y_m_n_a.png,I,m,1090,16,1,2111.7000000476837,352371.39999997616,8102,VNB,A,15
15,test,5,0.0,1-Back,1.0,m,Tue Apr 07 2026 10:27:17 GMT-0500 (Central Daylight Time),356865.7999999523,071_y_f_h_a.png,I,m,1350,17,1,2378.1999999284744,354487.60000002384,8102,VNB,A,16
16,test,5,0.0,1-Back,1.0,m,Tue Apr 07 2026 10:27:17 GMT-0500 (Central Daylight Time),359181.7999999523,165_m_m_d_a.png,I,m,1295,18,1,2311.2999999523163,356870.5,8102,VNB,A,17
0,prac,1,0.0,2-Back,,,Tue Apr 07 2026 10:27:17 GMT-0500 (Central Daylight Time),359181.7999999523,139_m_f_n_a.png,I,space,4673,1,1,2311.2999999523163,356870.5,8102,VNB,A,0
0,prac,1,0.0,2-Back,,,Tue Apr 07 2026 10:27:17 GMT-0500 (Central Daylight Time),359181.7999999523,124_o_f_h_a.png,I,space,4673,2,1,2311.2999999523163,356870.5,8102,VNB,A,0
1,prac,1,0.0,2-Back,1.0,m,Tue Apr 07 2026 10:27:17 GMT-0500 (Central Daylight Time),453037.0,039_o_m_d_a.png,I,m,1397,3,1,2177.0,450860.0,8102,VNB,A,1
1,prac,1,1.0,2-Back,0.0,z,Tue Apr 07 2026 10:27:17 GMT-0500 (Central Daylight Time),455851.2999999523,165_m_m_h_a.png,I,None,2015,4,1,2808.5,453042.7999999523,8102,VNB,A,2
1,prac,1,0.0,2-Back,0.0,m,Tue Apr 07 2026 10:27:17 GMT-0500 (Central Daylight Time),457934.2999999523,071_y_f_n_a.png,I,z,1268,5,1,2076.1999999284744,455858.10000002384,8102,VNB,A,3
1,prac,1,1.0,2-Back,0.0,z,Tue Apr 07 2026 10:27:17 GMT-0500 (Central Daylight Time),460466.89999997616,039_o_m_h_a.png,I,m,1756,6,1,2526.2999999523163,457940.60000002384,8102,VNB,A,4
1,prac,1,1.0,2-Back,0.0,z,Tue Apr 07 2026 10:27:17 GMT-0500 (Central Daylight Time),462715.89999997616,109_y_m_n_a.png,I,m,1433,7,1,2242.5,460473.39999997616,8102,VNB,A,5
1,prac,1,0.0,2-Back,0.0,m,Tue Apr 07 2026 10:27:17 GMT-0500 (Central Daylight Time),465531.7999999523,139_m_f_d_a.png,I,None,2010,8,1,2809.0999999046326,462722.7000000477,8102,VNB,A,6
1,prac,1,0.0,2-Back,0.0,m,Tue Apr 07 2026 10:27:17 GMT-0500 (Central Daylight Time),467414.5,124_o_f_d_a.png,I,z,1038,9,1,1875.7999999523163,465538.7000000477,8102,VNB,A,7
2,prac,1,0.0,2-Back,1.0,m,Tue Apr 07 2026 10:27:17 GMT-0500 (Central Daylight Time),469530.5,165_m_m_h_a.png,I,m,1333,10,1,2109.7999999523163,467420.7000000477,8102,VNB,A,8
2,prac,1,1.0,2-Back,0.0,z,Tue Apr 07 2026 10:27:17 GMT-0500 (Central Daylight Time),472196.2999999523,071_y_f_d_a.png,I,m,1856,11,1,2659.0999999046326,469537.2000000477,8102,VNB,A,9
2,prac,1,0.0,2-Back,0.0,m,Tue Apr 07 2026 10:27:17 GMT-0500 (Central Daylight Time),475012.2999999523,039_o_m_n_a.png,I,None,2017,12,1,2808.5,472203.7999999523,8102,VNB,A,10
0,prac,2,0.0,2-Back,,,Tue Apr 07 2026 10:27:17 GMT-0500 (Central Daylight Time),475012.2999999523,139_m_f_n_a.png,I,a,4818,1,1,2808.5,472203.7999999523,8102,VNB,A,0
0,prac,2,0.0,2-Back,,,Tue Apr 07 2026 10:27:17 GMT-0500 (Central Daylight Time),475012.2999999523,124_o_f_h_a.png,I,a,4818,2,1,2808.5,472203.7999999523,8102,VNB,A,0
1,prac,2,0.0,2-Back,1.0,m,Tue Apr 07 2026 10:27:17 GMT-0500 (Central Daylight Time),486991.7999999523,039_o_m_d_a.png,I,m,1226,3,1,2024.7999999523163,484967.0,8102,VNB,A,1
2,prac,2,1.0,2-Back,1.0,z,Tue Apr 07 2026 10:27:17 GMT-0500 (Central Daylight Time),488691.39999997616,165_m_m_h_a.png,I,z,925,4,1,1694.1000000238419,486997.2999999523,8102,VNB,A,2
2,prac,2,0.0,2-Back,0.0,m,Tue Apr 07 2026 10:27:17 GMT-0500 (Central Daylight Time),490773.89999997616,071_y_f_n_a.png,I,z,1277,5,1,2075.6999999284744,488698.2000000477,8102,VNB,A,3
2,prac,2,1.0,2-Back,0.0,z,Tue Apr 07 2026 10:27:17 GMT-0500 (Central Daylight Time),492806.89999997616,039_o_m_h_a.png,I,m,1221,6,1,2025.7999999523163,490781.10000002384,8102,VNB,A,4
3,prac,2,1.0,2-Back,1.0,z,Tue Apr 07 2026 10:27:17 GMT-0500 (Central Daylight Time),494672.89999997616,109_y_m_n_a.png,I,z,1053,7,1,1859.6999999284744,492813.2000000477,8102,VNB,A,5
3,prac,2,0.0,2-Back,0.0,m,Tue Apr 07 2026 10:27:17 GMT-0500 (Central Daylight Time),496821.7000000477,139_m_f_d_a.png,I,z,1343,8,1,2142.0,494679.7000000477,8102,VNB,A,6
3,prac,2,0.0,2-Back,0.0,m,Tue Apr 07 2026 10:27:17 GMT-0500 (Central Daylight Time),499171.10000002384,124_o_f_d_a.png,I,z,1517,9,1,2343.899999976158,496827.2000000477,8102,VNB,A,7
4,prac,2,0.0,2-Back,1.0,m,Tue Apr 07 2026 10:27:17 GMT-0500 (Central Daylight Time),500804.2999999523,165_m_m_h_a.png,I,m,847,10,1,1625.5,499178.7999999523,8102,VNB,A,8
4,prac,2,1.0,2-Back,0.0,z,Tue Apr 07 2026 10:27:17 GMT-0500 (Central Daylight Time),502686.89999997616,071_y_f_d_a.png,I,m,1081,11,1,1877.1999999284744,500809.7000000477,8102,VNB,A,9
4,prac,2,0.0,2-Back,0.0,m,Tue Apr 07 2026 10:27:17 GMT-0500 (Central Daylight Time),505486.2000000477,039_o_m_n_a.png,I,None,2002,12,1,2792.8000000715256,502693.39999997616,8102,VNB,A,10
0,prac,3,0.0,2-Back,,,Tue Apr 07 2026 10:27:17 GMT-0500 (Central Daylight Time),505486.2000000477,139_m_f_n_a.png,I,a,6009,1,1,2792.8000000715256,502693.39999997616,8102,VNB,A,0
0,prac,3,0.0,2-Back,,,Tue Apr 07 2026 10:27:17 GMT-0500 (Central Daylight Time),505486.2000000477,124_o_f_h_a.png,I,a,6009,2,1,2792.8000000715256,502693.39999997616,8102,VNB,A,0
1,prac,3,0.0,2-Back,1.0,m,Tue Apr 07 2026 10:27:17 GMT-0500 (Central Daylight Time),518448.60000002384,039_o_m_d_a.png,I,m,1026,3,1,1825.5,516623.10000002384,8102,VNB,A,1
1,prac,3,1.0,2-Back,0.0,z,Tue Apr 07 2026 10:27:17 GMT-0500 (Central Daylight Time),521081.2000000477,165_m_m_h_a.png,I,m,1850,4,1,2625.9000000953674,518455.2999999523,8102,VNB,A,2
1,prac,3,0.0,2-Back,0.0,m,Tue Apr 07 2026 10:27:17 GMT-0500 (Central Daylight Time),523698.5,071_y_f_n_a.png,I,z,1800,5,1,2610.600000023842,521087.89999997616,8102,VNB,A,3
1,prac,3,1.0,2-Back,0.0,z,Tue Apr 07 2026 10:27:17 GMT-0500 (Central Daylight Time),526512.7000000477,039_o_m_h_a.png,I,None,2017,6,1,2808.3000000715256,523704.39999997616,8102,VNB,A,4
2,prac,3,1.0,2-Back,1.0,z,Tue Apr 07 2026 10:27:17 GMT-0500 (Central Daylight Time),528761.8999999762,109_y_m_n_a.png,I,z,1435,7,1,2243.0,526518.8999999762,8102,VNB,A,5
3,prac,3,0.0,2-Back,1.0,m,Tue Apr 07 2026 10:27:17 GMT-0500 (Central Daylight Time),530711.6000000238,139_m_f_d_a.png,I,m,1144,8,1,1943.6000000238419,528768.0,8102,VNB,A,6
4,prac,3,0.0,2-Back,1.0,m,Tue Apr 07 2026 10:27:17 GMT-0500 (Central Daylight Time),532611.8999999762,124_o_f_d_a.png,I,m,1060,9,1,1894.1000000238419,530717.7999999523,8102,VNB,A,7
5,prac,3,0.0,2-Back,1.0,m,Tue Apr 07 2026 10:27:17 GMT-0500 (Central Daylight Time),534577.1000000238,165_m_m_h_a.png,I,m,1184,10,1,1958.8999999761581,532618.2000000477,8102,VNB,A,8
6,prac,3,1.0,2-Back,1.0,z,Tue Apr 07 2026 10:27:17 GMT-0500 (Central Daylight Time),536526.3999999762,071_y_f_d_a.png,I,z,1146,11,1,1943.0,534583.3999999762,8102,VNB,A,9
7,prac,3,0.0,2-Back,1.0,m,Tue Apr 07 2026 10:27:17 GMT-0500 (Central Daylight Time),538392.3999999762,039_o_m_n_a.png,I,m,1053,12,1,1859.6999999284744,536532.7000000477,8102,VNB,A,10
0,test,1,0.0,2-Back,,,Tue Apr 07 2026 10:27:17 GMT-0500 (Central Daylight Time),538392.3999999762,109_y_m_h_a.png,I,space,3155,1,1,1859.6999999284744,536532.7000000477,8102,VNB,A,0
0,test,1,0.0,2-Back,,,Tue Apr 07 2026 10:27:17 GMT-0500 (Central Daylight Time),538392.3999999762,124_o_f_n_a.png,I,space,3155,2,1,1859.6999999284744,536532.7000000477,8102,VNB,A,0
1,test,1,0.0,2-Back,1.0,z,Tue Apr 07 2026 10:27:17 GMT-0500 (Central Daylight Time),556453.3999999762,039_o_m_h_a.png,I,z,912,3,1,1929.5,554523.8999999762,8102,VNB,A,1
2,test,1,0.0,2-Back,1.0,m,Tue Apr 07 2026 10:27:17 GMT-0500 (Central Daylight Time),558469.3999999762,139_m_f_d_a.png,I,m,996,4,1,2012.2999999523163,556457.1000000238,8102,VNB,A,2
3,test,1,1.0,2-Back,1.0,m,Tue Apr 07 2026 10:27:17 GMT-0500 (Central Daylight Time),560885.2000000477,109_y_m_n_a.png,I,m,1396,5,1,2411.8000000715256,558473.3999999762,8102,VNB,A,3
4,test,1,0.0,2-Back,1.0,z,Tue Apr 07 2026 10:27:17 GMT-0500 (Central Daylight Time),563167.8999999762,071_y_f_d_a.png,I,z,1260,6,1,2278.600000023842,560889.2999999523,8102,VNB,A,4
5,test,1,0.0,2-Back,1.0,m,Tue Apr 07 2026 10:27:17 GMT-0500 (Central Daylight Time),565483.7000000477,165_m_m_h_a.png,I,m,1297,7,1,2312.0,563171.7000000477,8102,VNB,A,5
5,test,1,1.0,2-Back,0.0,m,Tue Apr 07 2026 10:27:17 GMT-0500 (Central Daylight Time),567716.3999999762,071_y_f_n_a.png,I,z,1206,8,1,2228.1999999284744,565488.2000000477,8102,VNB,A,6
6,test,1,0.0,2-Back,1.0,z,Tue Apr 07 2026 10:27:17 GMT-0500 (Central Daylight Time),570399.2999999523,124_o_f_h_a.png,I,z,1653,9,1,2678.899999976158,567720.3999999762,8102,VNB,A,7
7,test,1,0.0,2-Back,1.0,m,Tue Apr 07 2026 10:27:17 GMT-0500 (Central Daylight Time),572515.1000000238,039_o_m_d_a.png,I,m,1090,10,1,2111.399999976158,570403.7000000477,8102,VNB,A,8
7,test,1,1.0,2-Back,0.0,m,Tue Apr 07 2026 10:27:17 GMT-0500 (Central Daylight Time),574697.7000000477,165_m_m_d_a.png,I,z,1158,11,1,2178.3000000715256,572519.3999999762,8102,VNB,A,9
7,test,1,0.0,2-Back,0.0,m,Tue Apr 07 2026 10:27:17 GMT-0500 (Central Daylight Time),577395.7999999523,139_m_f_n_a.png,I,z,1536,12,1,2693.399999976158,574702.3999999762,8102,VNB,A,10
7,test,1,0.0,2-Back,0.0,m,Tue Apr 07 2026 10:27:17 GMT-0500 (Central Daylight Time),579745.7000000477,071_y_f_h_a.png,I,z,1325,13,1,2345.9000000953674,577399.7999999523,8102,VNB,A,11
8,test,1,0.0,2-Back,1.0,z,Tue Apr 07 2026 10:27:17 GMT-0500 (Central Daylight Time),581945.5,165_m_m_n_a.png,I,z,1175,14,1,2196.5,579749.0,8102,VNB,A,12
9,test,1,0.0,2-Back,1.0,m,Tue Apr 07 2026 10:27:17 GMT-0500 (Central Daylight Time),584361.2999999523,109_y_m_d_a.png,I,m,1384,15,1,2411.6999999284744,581949.6000000238,8102,VNB,A,13
10,test,1,1.0,2-Back,1.0,m,Tue Apr 07 2026 10:27:17 GMT-0500 (Central Daylight Time),587211.5,139_m_f_h_a.png,I,m,1831,16,1,2846.399999976158,584365.1000000238,8102,VNB,A,14
11,test,1,0.0,2-Back,1.0,z,Tue Apr 07 2026 10:27:17 GMT-0500 (Central Daylight Time),589443.0,124_o_f_d_a.png,I,z,1216,17,1,2227.2000000476837,587215.7999999523,8102,VNB,A,15
12,test,1,0.0,2-Back,1.0,m,Tue Apr 07 2026 10:27:17 GMT-0500 (Central Daylight Time),591958.8999999762,039_o_m_n_a.png,I,m,1487,18,1,2512.6999999284744,589446.2000000477,8102,VNB,A,16
0,test,2,0.0,2-Back,,,Tue Apr 07 2026 10:27:17 GMT-0500 (Central Daylight Time),591958.8999999762,165_m_m_h_a.png,I,space,1699,1,1,2512.6999999284744,589446.2000000477,8102,VNB,A,0
0,test,2,0.0,2-Back,,,Tue Apr 07 2026 10:27:17 GMT-0500 (Central Daylight Time),591958.8999999762,071_y_f_n_a.png,I,space,1699,2,1,2512.6999999284744,589446.2000000477,8102,VNB,A,0
1,test,2,1.0,2-Back,1.0,z,Tue Apr 07 2026 10:27:17 GMT-0500 (Central Daylight Time),600672.7999999523,124_o_f_h_a.png,I,z,901,3,1,1928.5,598744.2999999523,8102,VNB,A,1
2,test,2,0.0,2-Back,1.0,m,Tue Apr 07 2026 10:27:17 GMT-0500 (Central Daylight Time),602922.2000000477,039_o_m_d_a.png,I,m,1231,4,1,2246.0,600676.2000000477,8102,VNB,A,2
3,test,2,0.0,2-Back,1.0,m,Tue Apr 07 2026 10:27:17 GMT-0500 (Central Daylight Time),605904.3999999762,139_m_f_d_a.png,I,m,1951,5,1,2978.5,602925.8999999762,8102,VNB,A,3
4,test,2,0.0,2-Back,1.0,m,Tue Apr 07 2026 10:27:17 GMT-0500 (Central Daylight Time),608803.7999999523,109_y_m_h_a.png,I,m,1881,6,1,2895.1999999284744,605908.6000000238,8102,VNB,A,4
5,test,2,0.0,2-Back,1.0,m,Tue Apr 07 2026 10:27:17 GMT-0500 (Central Daylight Time),611603.2999999523,124_o_f_n_a.png,I,m,1766,7,1,2795.1999999284744,608808.1000000238,8102,VNB,A,5
6,test,2,1.0,2-Back,1.0,z,Tue Apr 07 2026 10:27:17 GMT-0500 (Central Daylight Time),613952.2999999523,039_o_m_h_a.png,I,z,1319,8,1,2345.1999999284744,611607.1000000238,8102,VNB,A,6
6,test,2,0.0,2-Back,0.0,m,Tue Apr 07 2026 10:27:17 GMT-0500 (Central Daylight Time),616268.1000000238,071_y_f_d_a.png,I,z,1289,9,1,2312.2000000476837,613955.8999999762,8102,VNB,A,7
7,test,2,0.0,2-Back,1.0,m,Tue Apr 07 2026 10:27:17 GMT-0500 (Central Daylight Time),618933.8999999762,109_y_m_d_a.png,I,m,1646,10,1,2662.1999999284744,616271.7000000477,8102,VNB,A,8
7,test,2,0.0,2-Back,0.0,m,Tue Apr 07 2026 10:27:17 GMT-0500 (Central Daylight Time),621884.0,165_m_m_n_a.png,I,z,1932,11,1,2945.899999976158,618938.1000000238,8102,VNB,A,9
8,test,2,0.0,2-Back,1.0,m,Tue Apr 07 2026 10:27:17 GMT-0500 (Central Daylight Time),624149.0,139_m_f_h_a.png,I,m,1246,12,1,2260.899999976158,621888.1000000238,8102,VNB,A,10
8,test,2,1.0,2-Back,0.0,z,Tue Apr 07 2026 10:27:17 GMT-0500 (Central Daylight Time),627181.2000000477,039_o_m_n_a.png,I,None,2016,13,1,3028.8000000715256,624152.3999999762,8102,VNB,A,11
9,test,2,0.0,2-Back,1.0,m,Tue Apr 07 2026 10:27:17 GMT-0500 (Central Daylight Time),630013.7000000477,124_o_f_d_a.png,I,m,1812,14,1,2828.4000000953674,627185.2999999523,8102,VNB,A,12
9,test,2,0.0,2-Back,0.0,m,Tue Apr 07 2026 10:27:17 GMT-0500 (Central Daylight Time),633030.6000000238,071_y_f_h_a.png,I,None,2001,15,1,3013.3000000715256,630017.2999999523,8102,VNB,A,13
9,test,2,0.0,2-Back,0.0,z,Tue Apr 07 2026 10:27:17 GMT-0500 (Central Daylight Time),635661.7000000477,165_m_m_d_a.png,I,m,1612,16,1,2627.0,633034.7000000477,8102,VNB,A,14
9,test,2,0.0,2-Back,0.0,m,Tue Apr 07 2026 10:27:17 GMT-0500 (Central Daylight Time),637811.1000000238,109_y_m_n_a.png,I,z,1133,17,1,2145.100000023842,635666.0,8102,VNB,A,15
10,test,2,1.0,2-Back,1.0,m,Tue Apr 07 2026 10:27:17 GMT-0500 (Central Daylight Time),640610.8999999762,139_m_f_n_a.png,I,m,1766,18,1,2795.399999976158,637815.5,8102,VNB,A,16
0,test,3,1.0,2-Back,,,Tue Apr 07 2026 10:27:17 GMT-0500 (Central Daylight Time),640610.8999999762,039_o_m_n_a.png,I,space,1527,1,1,2795.399999976158,637815.5,8102,VNB,A,0
0,test,3,1.0,2-Back,,,Tue Apr 07 2026 10:27:17 GMT-0500 (Central Daylight Time),640610.8999999762,124_o_f_d_a.png,I,space,1527,2,1,2795.399999976158,637815.5,8102,VNB,A,0
1,test,3,0.0,2-Back,1.0,m,Tue Apr 07 2026 10:27:17 GMT-0500 (Central Daylight Time),649307.6000000238,071_y_f_h_a.png,I,m,1029,3,1,2111.2000000476837,647196.3999999762,8102,VNB,A,1
2,test,3,0.0,2-Back,1.0,z,Tue Apr 07 2026 10:27:17 GMT-0500 (Central Daylight Time),651440.6000000238,139_m_f_d_a.png,I,z,1102,4,1,2129.3000000715256,649311.2999999523,8102,VNB,A,2
3,test,3,1.0,2-Back,1.0,m,Tue Apr 07 2026 10:27:17 GMT-0500 (Central Daylight Time),653822.7999999523,109_y_m_n_a.png,I,m,1361,5,1,2377.5999999046326,651445.2000000477,8102,VNB,A,3
3,test,3,0.0,2-Back,0.0,m,Tue Apr 07 2026 10:27:17 GMT-0500 (Central Daylight Time),656238.8999999762,039_o_m_h_a.png,I,z,1394,6,1,2412.1999999284744,653826.7000000477,8102,VNB,A,4
4,test,3,0.0,2-Back,1.0,z,Tue Apr 07 2026 10:27:17 GMT-0500 (Central Daylight Time),658904.7000000477,071_y_f_n_a.png,I,z,1642,7,1,2661.8000000715256,656242.8999999762,8102,VNB,A,5
5,test,3,1.0,2-Back,1.0,m,Tue Apr 07 2026 10:27:17 GMT-0500 (Central Daylight Time),661337.3999999762,165_m_m_d_a.png,I,m,1409,8,1,2429.100000023842,658908.2999999523,8102,VNB,A,6
6,test,3,0.0,2-Back,1.0,m,Tue Apr 07 2026 10:27:17 GMT-0500 (Central Daylight Time),663554.0,109_y_m_d_a.png,I,m,1200,9,1,2212.899999976158,661341.1000000238,8102,VNB,A,7
7,test,3,0.0,2-Back,1.0,m,Tue Apr 07 2026 10:27:17 GMT-0500 (Central Daylight Time),665685.7000000477,124_o_f_h_a.png,I,m,1104,10,1,2127.5,663558.2000000477,8102,VNB,A,8
7,test,3,1.0,2-Back,0.0,m,Tue Apr 07 2026 10:27:17 GMT-0500 (Central Daylight Time),667835.3999999762,139_m_f_n_a.png,I,z,1123,11,1,2145.600000023842,665689.7999999523,8102,VNB,A,9
8,test,3,1.0,2-Back,1.0,z,Tue Apr 07 2026 10:27:17 GMT-0500 (Central Daylight Time),670551.2000000477,165_m_m_h_a.png,I,z,1686,12,1,2711.600000023842,667839.6000000238,8102,VNB,A,10
9,test,3,0.0,2-Back,1.0,m,Tue Apr 07 2026 10:27:17 GMT-0500 (Central Daylight Time),673218.0,071_y_f_d_a.png,I,m,1635,13,1,2662.7999999523163,670555.2000000477,8102,VNB,A,11
10,test,3,0.0,2-Back,1.0,m,Tue Apr 07 2026 10:27:17 GMT-0500 (Central Daylight Time),675849.8999999762,124_o_f_n_a.png,I,m,1608,14,1,2627.6999999284744,673222.2000000477,8102,VNB,A,12
11,test,3,0.0,2-Back,1.0,z,Tue Apr 07 2026 10:27:17 GMT-0500 (Central Daylight Time),677965.6000000238,039_o_m_d_a.png,I,z,1096,15,1,2111.899999976158,675853.7000000477,8102,VNB,A,13
11,test,3,1.0,2-Back,0.0,m,Tue Apr 07 2026 10:27:17 GMT-0500 (Central Daylight Time),680997.8999999762,139_m_f_h_a.png,I,None,2016,16,1,3028.899999976158,677969.0,8102,VNB,A,14
11,test,3,0.0,2-Back,0.0,m,Tue Apr 07 2026 10:27:17 GMT-0500 (Central Daylight Time),683947.8999999762,165_m_m_n_a.png,I,z,1932,17,1,2946.100000023842,681001.7999999523,8102,VNB,A,15
12,test,3,0.0,2-Back,1.0,z,Tue Apr 07 2026 10:27:17 GMT-0500 (Central Daylight Time),686447.2000000477,109_y_m_h_a.png,I,z,1479,18,1,2495.3000000715256,683951.8999999762,8102,VNB,A,16
0,test,4,0.0,2-Back,,,Tue Apr 07 2026 10:27:17 GMT-0500 (Central Daylight Time),686447.2000000477,139_m_f_n_a.png,I,space,1618,1,1,2495.3000000715256,683951.8999999762,8102,VNB,A,0
0,test,4,0.0,2-Back,,,Tue Apr 07 2026 10:27:17 GMT-0500 (Central Daylight Time),686447.2000000477,039_o_m_n_a.png,I,space,1618,2,1,2495.3000000715256,683951.8999999762,8102,VNB,A,0
1,test,4,1.0,2-Back,1.0,m,Tue Apr 07 2026 10:27:17 GMT-0500 (Central Daylight Time),695475.6000000238,109_y_m_h_a.png,I,m,1313,3,1,2327.899999976158,693147.7000000477,8102,VNB,A,1
2,test,4,1.0,2-Back,1.0,m,Tue Apr 07 2026 10:27:17 GMT-0500 (Central Daylight Time),698325.8999999762,124_o_f_d_a.png,I,m,1821,4,1,2846.100000023842,695479.7999999523,8102,VNB,A,2
3,test,4,0.0,2-Back,1.0,z,Tue Apr 07 2026 10:27:17 GMT-0500 (Central Daylight Time),700658.2999999523,039_o_m_h_a.png,I,z,1300,5,1,2328.7999999523163,698329.5,8102,VNB,A,3
3,test,4,0.0,2-Back,0.0,m,Tue Apr 07 2026 10:27:17 GMT-0500 (Central Daylight Time),703357.2999999523,165_m_m_n_a.png,I,z,1671,6,1,2694.7999999523163,700662.5,8102,VNB,A,4
4,test,4,0.0,2-Back,1.0,m,Tue Apr 07 2026 10:27:17 GMT-0500 (Central Daylight Time),705706.6000000238,139_m_f_d_a.png,I,m,1325,7,1,2345.7000000476837,703360.8999999762,8102,VNB,A,5
5,test,4,0.0,2-Back,1.0,z,Tue Apr 07 2026 10:27:17 GMT-0500 (Central Daylight Time),707789.5,071_y_f_n_a.png,I,z,1056,8,1,2078.7999999523163,705710.7000000477,8102,VNB,A,6
6,test,4,1.0,2-Back,1.0,m,Tue Apr 07 2026 10:27:17 GMT-0500 (Central Daylight Time),710448.5,124_o_f_h_a.png,I,m,1636,9,1,2655.0,707793.5,8102,VNB,A,7
6,test,4,0.0,2-Back,0.0,m,Tue Apr 07 2026 10:27:17 GMT-0500 (Central Daylight Time),713471.2000000477,165_m_m_h_a.png,I,None,2016,10,1,3019.0,710452.2000000477,8102,VNB,A,8
7,test,4,0.0,2-Back,1.0,m,Tue Apr 07 2026 10:27:17 GMT-0500 (Central Daylight Time),715820.2999999523,071_y_f_d_a.png,I,m,1323,11,1,2345.1999999284744,713475.1000000238,8102,VNB,A,9
7,test,4,0.0,2-Back,0.0,m,Tue Apr 07 2026 10:27:17 GMT-0500 (Central Daylight Time),717786.2000000477,109_y_m_n_a.png,I,z,949,12,1,1961.8000000715256,715824.3999999762,8102,VNB,A,10
8,test,4,0.0,2-Back,1.0,z,Tue Apr 07 2026 10:27:17 GMT-0500 (Central Daylight Time),720801.7999999523,039_o_m_d_a.png,I,z,1906,13,1,3012.399999976158,717789.3999999762,8102,VNB,A,11
8,test,4,1.0,2-Back,0.0,m,Tue Apr 07 2026 10:27:17 GMT-0500 (Central Daylight Time),723434.2999999523,139_m_f_h_a.png,I,z,1607,14,1,2628.6999999284744,720805.6000000238,8102,VNB,A,12
9,test,4,1.0,2-Back,1.0,m,Tue Apr 07 2026 10:27:17 GMT-0500 (Central Daylight Time),725700.5,071_y_f_h_a.png,I,m,1247,15,1,2262.7000000476837,723437.7999999523,8102,VNB,A,13
10,test,4,0.0,2-Back,1.0,m,Tue Apr 07 2026 10:27:17 GMT-0500 (Central Daylight Time),728116.3999999762,124_o_f_n_a.png,I,m,1390,16,1,2412.2999999523163,725704.1000000238,8102,VNB,A,14
11,test,4,0.0,2-Back,1.0,m,Tue Apr 07 2026 10:27:17 GMT-0500 (Central Daylight Time),730482.5,109_y_m_d_a.png,I,m,1333,17,1,2362.600000023842,728119.8999999762,8102,VNB,A,15
12,test,4,1.0,2-Back,1.0,m,Tue Apr 07 2026 10:27:17 GMT-0500 (Central Daylight Time),733164.6000000238,165_m_m_d_a.png,I,m,1664,18,1,2678.5,730486.1000000238,8102,VNB,A,16
0,test,5,1.0,2-Back,,,Tue Apr 07 2026 10:27:17 GMT-0500 (Central Daylight Time),733164.6000000238,071_y_f_d_a.png,I,space,1069,1,1,2678.5,730486.1000000238,8102,VNB,A,0
0,test,5,1.0,2-Back,,,Tue Apr 07 2026 10:27:17 GMT-0500 (Central Daylight Time),733164.6000000238,124_o_f_h_a.png,I,space,1069,2,1,2678.5,730486.1000000238,8102,VNB,A,0
1,test,5,1.0,2-Back,1.0,z,Tue Apr 07 2026 10:27:17 GMT-0500 (Central Daylight Time),741378.6000000238,039_o_m_d_a.png,I,z,1032,3,1,2045.1000000238419,739333.5,8102,VNB,A,1
2,test,5,1.0,2-Back,1.0,m,Tue Apr 07 2026 10:27:17 GMT-0500 (Central Daylight Time),743361.6000000238,139_m_f_n_a.png,I,m,925,4,1,1979.7000000476837,741381.8999999762,8102,VNB,A,2
3,test,5,0.0,2-Back,1.0,m,Tue Apr 07 2026 10:27:17 GMT-0500 (Central Daylight Time),745527.5,165_m_m_h_a.png,I,m,1144,5,1,2161.5,743366.0,8102,VNB,A,3
4,test,5,0.0,2-Back,1.0,z,Tue Apr 07 2026 10:27:17 GMT-0500 (Central Daylight Time),747610.1000000238,071_y_f_n_a.png,I,z,1066,6,1,2079.100000023842,745531.0,8102,VNB,A,4
4,test,5,0.0,2-Back,0.0,m,Tue Apr 07 2026 10:27:17 GMT-0500 (Central Daylight Time),750342.7999999523,124_o_f_d_a.png,I,z,1712,7,1,2728.5,747614.2999999523,8102,VNB,A,5
5,test,5,0.0,2-Back,1.0,m,Tue Apr 07 2026 10:27:17 GMT-0500 (Central Daylight Time),753125.2000000477,039_o_m_h_a.png,I,m,1763,8,1,2778.3000000715256,750346.8999999762,8102,VNB,A,6
5,test,5,1.0,2-Back,0.0,z,Tue Apr 07 2026 10:27:17 GMT-0500 (Central Daylight Time),755524.5,139_m_f_d_a.png,I,m,1380,9,1,2395.7999999523163,753128.7000000477,8102,VNB,A,7
5,test,5,0.0,2-Back,0.0,m,Tue Apr 07 2026 10:27:17 GMT-0500 (Central Daylight Time),758040.2999999523,109_y_m_n_a.png,I,z,1493,10,1,2511.5999999046326,755528.7000000477,8102,VNB,A,8
6,test,5,0.0,2-Back,1.0,m,Tue Apr 07 2026 10:27:17 GMT-0500 (Central Daylight Time),760523.0,165_m_m_n_a.png,I,m,1457,11,1,2478.600000023842,758044.3999999762,8102,VNB,A,9
6,test,5,0.0,2-Back,0.0,m,Tue Apr 07 2026 10:27:17 GMT-0500 (Central Daylight Time),762672.3999999762,071_y_f_h_a.png,I,z,1119,12,1,2143.2999999523163,760529.1000000238,8102,VNB,A,10
6,test,5,0.0,2-Back,0.0,m,Tue Apr 07 2026 10:27:17 GMT-0500 (Central Daylight Time),764988.2000000477,109_y_m_d_a.png,I,z,1289,13,1,2311.8000000715256,762676.3999999762,8102,VNB,A,11
7,test,5,1.0,2-Back,1.0,z,Tue Apr 07 2026 10:27:17 GMT-0500 (Central Daylight Time),767437.3999999762,139_m_f_h_a.png,I,z,1430,14,1,2445.399999976158,764992.0,8102,VNB,A,12
8,test,5,0.0,2-Back,1.0,m,Tue Apr 07 2026 10:27:17 GMT-0500 (Central Daylight Time),769536.6000000238,039_o_m_n_a.png,I,m,1076,15,1,2095.3000000715256,767441.2999999523,8102,VNB,A,13
9,test,5,0.0,2-Back,1.0,m,Tue Apr 07 2026 10:27:17 GMT-0500 (Central Daylight Time),772086.0,165_m_m_d_a.png,I,m,1528,16,1,2545.600000023842,769540.3999999762,8102,VNB,A,14
10,test,5,0.0,2-Back,1.0,z,Tue Apr 07 2026 10:27:17 GMT-0500 (Central Daylight Time),774385.2000000477,124_o_f_n_a.png,I,z,1267,17,1,2294.8000000715256,772090.3999999762,8102,VNB,A,15
10,test,5,1.0,2-Back,0.0,m,Tue Apr 07 2026 10:27:17 GMT-0500 (Central Daylight Time),776734.2999999523,109_y_m_h_a.png,I,z,1320,18,1,2345.399999976158,774388.8999999762,8102,VNB,A,16
