acc_sum,block,block_c,block_cond,con_img,correct,correct_response,datetime,endtime,face,jitter,line,project,response,response_time,row_sel,session_number,start_end,starttime,subject_id,task,task_vers,trial
1,prac,1,A,haborder.png,1,z,Thu May 07 2026 09:30:16 GMT-0500 (Central Daylight Time),67392.20000000298,CFD-WF-037-016-A.jpg,1600,solid,O,z,1101,10,1,3498.7000000029802,63893.5,7805,ATS,C,1
2,prac,1,A,haborder.png,1,m,Thu May 07 2026 09:30:16 GMT-0500 (Central Daylight Time),70658.0,CFD-BM-034-035-HC.jpg,1700,solid,O,m,751,1,1,6764.5,63893.5,7805,ATS,C,2
3,prac,1,A,haborder.png,1,m,Thu May 07 2026 09:30:16 GMT-0500 (Central Daylight Time),74522.20000000298,CFD-BF-019-004-HC.jpg,2000,solid,O,m,1077,5,1,10628.70000000298,63893.5,7805,ATS,C,3
4,prac,1,A,haborder.png,1,m,Thu May 07 2026 09:30:16 GMT-0500 (Central Daylight Time),77505.70000000298,CFD-WF-013-009-HC.jpg,1500,solid,O,m,697,11,1,13612.20000000298,63893.5,7805,ATS,C,4
5,prac,1,A,haborder.png,1,m,Thu May 07 2026 09:30:16 GMT-0500 (Central Daylight Time),80420.70000000298,CFD-BM-022-004-HC.jpg,1500,solid,O,m,626,3,1,16527.20000000298,63893.5,7805,ATS,C,5
6,prac,1,A,haborder.png,1,z,Thu May 07 2026 09:30:16 GMT-0500 (Central Daylight Time),82720.59999999404,CFD-WF-023-013-A.jpg,1000,solid,O,z,508,12,1,18827.09999999404,63893.5,7805,ATS,C,6
7,prac,1,A,haborder.png,1,m,Thu May 07 2026 09:30:16 GMT-0500 (Central Daylight Time),85554.09999999404,CFD-WM-028-005-HC.jpg,1400,solid,O,m,664,7,1,21660.59999999404,63893.5,7805,ATS,C,7
8,prac,1,A,haborder.png,1,z,Thu May 07 2026 09:30:16 GMT-0500 (Central Daylight Time),89086.59999999404,CFD-WM-036-018-A.jpg,1900,solid,O,z,849,8,1,25193.09999999404,63893.5,7805,ATS,C,8
9,prac,1,A,haborder.png,1,z,Thu May 07 2026 09:30:16 GMT-0500 (Central Daylight Time),91752.59999999404,CFD-BF-002-018-A.jpg,1200,solid,O,z,667,6,1,27859.09999999404,63893.5,7805,ATS,C,9
10,prac,1,A,haborder.png,1,m,Thu May 07 2026 09:30:16 GMT-0500 (Central Daylight Time),94950.40000000596,CFD-WM-035-036-HC.jpg,1700,solid,O,m,715,9,1,31056.90000000596,63893.5,7805,ATS,C,10
11,prac,1,A,haborder.png,1,z,Thu May 07 2026 09:30:16 GMT-0500 (Central Daylight Time),97431.59999999404,CFD-BF-031-020-A.jpg,1000,solid,O,z,691,4,1,33538.09999999404,63893.5,7805,ATS,C,11
12,prac,1,A,haborder.png,1,z,Thu May 07 2026 09:30:16 GMT-0500 (Central Daylight Time),100448.20000000298,CFD-BM-043-014-A.jpg,1600,solid,O,z,632,2,1,36554.70000000298,63893.5,7805,ATS,C,12
1,prac,1,B,mfborder.png,1,m,Thu May 07 2026 09:30:16 GMT-0500 (Central Daylight Time),133305.09999999404,CFD-BM-022-004-HC.jpg,1700,1,O,m,649,dash,1,3133.2999999970198,130171.79999999702,7805,ATS,C,1
2,prac,1,B,mfborder.png,1,z,Thu May 07 2026 09:30:16 GMT-0500 (Central Daylight Time),136470.59999999404,CFD-BF-042-031-HC.jpg,1500,3,O,z,867,dash,1,6298.79999999702,130171.79999999702,7805,ATS,C,2
3,prac,1,B,mfborder.png,1,m,Thu May 07 2026 09:30:16 GMT-0500 (Central Daylight Time),139535.59999999404,CFD-WM-035-036-HC.jpg,1600,10,O,m,672,dash,1,9363.79999999702,130171.79999999702,7805,ATS,C,3
4,prac,1,B,mfborder.png,1,m,Thu May 07 2026 09:30:16 GMT-0500 (Central Daylight Time),142269.59999999404,CFD-WM-034-040-A.jpg,1200,6,O,m,745,dash,1,12097.79999999702,130171.79999999702,7805,ATS,C,4
5,prac,1,B,mfborder.png,1,z,Thu May 07 2026 09:30:16 GMT-0500 (Central Daylight Time),145084.0,CFD-BF-019-004-HC.jpg,1400,7,O,z,625,dash,1,14912.20000000298,130171.79999999702,7805,ATS,C,5
6,prac,1,B,mfborder.png,1,z,Thu May 07 2026 09:30:16 GMT-0500 (Central Daylight Time),148750.70000000298,CFD-WF-037-016-A.jpg,1500,11,O,z,1368,dash,1,18578.90000000596,130171.79999999702,7805,ATS,C,6
7,prac,1,B,mfborder.png,1,m,Thu May 07 2026 09:30:16 GMT-0500 (Central Daylight Time),152232.0,CFD-WM-036-018-A.jpg,1700,9,O,m,991,dash,1,22060.20000000298,130171.79999999702,7805,ATS,C,7
8,prac,1,B,mfborder.png,1,m,Thu May 07 2026 09:30:16 GMT-0500 (Central Daylight Time),156196.09999999404,CFD-BM-043-014-A.jpg,2000,5,O,m,1167,dash,1,26024.29999999702,130171.79999999702,7805,ATS,C,8
9,prac,1,B,mfborder.png,1,m,Thu May 07 2026 09:30:16 GMT-0500 (Central Daylight Time),159495.5,CFD-BM-021-026-A.jpg,1600,2,O,m,901,dash,1,29323.70000000298,130171.79999999702,7805,ATS,C,9
10,prac,1,B,mfborder.png,1,z,Thu May 07 2026 09:30:16 GMT-0500 (Central Daylight Time),161794.59999999404,CFD-BF-031-020-A.jpg,1000,4,O,z,512,dash,1,31622.79999999702,130171.79999999702,7805,ATS,C,10
11,prac,1,B,mfborder.png,1,z,Thu May 07 2026 09:30:16 GMT-0500 (Central Daylight Time),165645.0,CFD-WF-001-010-HC.jpg,1900,8,O,z,1152,dash,1,35473.20000000298,130171.79999999702,7805,ATS,C,11
12,prac,1,B,mfborder.png,1,z,Thu May 07 2026 09:30:16 GMT-0500 (Central Daylight Time),168042.5,CFD-WF-013-009-HC.jpg,1000,12,O,z,611,dash,1,37870.70000000298,130171.79999999702,7805,ATS,C,12
1,test,1,A,haborder.png,1,z,Thu May 07 2026 09:30:16 GMT-0500 (Central Daylight Time),191502.0,CFD-WM-036-018-A.jpg,1900,solid,O,z,784,8,1,2715.7999999970198,188786.20000000298,7805,ATS,C,1
2,test,1,A,haborder.png,1,m,Thu May 07 2026 09:30:16 GMT-0500 (Central Daylight Time),193734.90000000596,CFD-BM-022-004-HC.jpg,1500,solid,O,m,710,3,1,4948.70000000298,188786.20000000298,7805,ATS,C,2
3,test,1,A,haborder.png,1,z,Thu May 07 2026 09:30:16 GMT-0500 (Central Daylight Time),196050.59999999404,CFD-WF-037-016-A.jpg,1600,solid,O,z,690,10,1,7264.399999991059,188786.20000000298,7805,ATS,C,3
4,test,1,A,haborder.png,1,z,Thu May 07 2026 09:30:16 GMT-0500 (Central Daylight Time),197783.59999999404,CFD-BF-031-020-A.jpg,1000,solid,O,z,709,4,1,8997.39999999106,188786.20000000298,7805,ATS,C,4
5,test,1,A,haborder.png,1,m,Thu May 07 2026 09:30:16 GMT-0500 (Central Daylight Time),200600.29999999702,CFD-BF-019-004-HC.jpg,2000,solid,O,m,783,5,1,11814.09999999404,188786.20000000298,7805,ATS,C,5
6,test,1,A,haborder.png,1,z,Thu May 07 2026 09:30:16 GMT-0500 (Central Daylight Time),203230.70000000298,CFD-WM-036-018-A.jpg,1900,solid,O,z,707,8,1,14444.5,188786.20000000298,7805,ATS,C,6
7,test,1,A,haborder.png,1,m,Thu May 07 2026 09:30:16 GMT-0500 (Central Daylight Time),205630.90000000596,CFD-WF-013-009-HC.jpg,1500,solid,O,m,877,11,1,16844.70000000298,188786.20000000298,7805,ATS,C,7
8,test,1,A,haborder.png,1,z,Thu May 07 2026 09:30:16 GMT-0500 (Central Daylight Time),208081.0,CFD-BM-043-014-A.jpg,1600,solid,O,z,826,2,1,19294.79999999702,188786.20000000298,7805,ATS,C,8
9,test,1,A,haborder.png,1,m,Thu May 07 2026 09:30:16 GMT-0500 (Central Daylight Time),210396.29999999702,CFD-WF-013-009-HC.jpg,1500,solid,O,m,786,11,1,21610.09999999404,188786.20000000298,7805,ATS,C,9
10,test,1,A,haborder.png,1,z,Thu May 07 2026 09:30:16 GMT-0500 (Central Daylight Time),212794.79999999702,CFD-BM-043-014-A.jpg,1600,solid,O,z,779,2,1,24008.59999999404,188786.20000000298,7805,ATS,C,10
11,test,1,A,haborder.png,1,m,Thu May 07 2026 09:30:16 GMT-0500 (Central Daylight Time),214810.90000000596,CFD-WM-028-005-HC.jpg,1400,solid,O,m,586,7,1,26024.70000000298,188786.20000000298,7805,ATS,C,11
12,test,1,A,haborder.png,1,z,Thu May 07 2026 09:30:16 GMT-0500 (Central Daylight Time),216612.5,CFD-BF-002-018-A.jpg,1200,solid,O,z,579,6,1,27826.29999999702,188786.20000000298,7805,ATS,C,12
13,test,1,A,haborder.png,1,m,Thu May 07 2026 09:30:16 GMT-0500 (Central Daylight Time),218826.59999999404,CFD-WM-035-036-HC.jpg,1700,solid,O,m,488,9,1,30040.39999999106,188786.20000000298,7805,ATS,C,13
14,test,1,A,haborder.png,1,z,Thu May 07 2026 09:30:16 GMT-0500 (Central Daylight Time),220428.09999999404,CFD-BF-031-020-A.jpg,1000,solid,O,z,569,4,1,31641.89999999106,188786.20000000298,7805,ATS,C,14
15,test,1,A,haborder.png,1,z,Thu May 07 2026 09:30:16 GMT-0500 (Central Daylight Time),222142.09999999404,CFD-BF-002-018-A.jpg,1200,solid,O,z,494,6,1,33355.89999999106,188786.20000000298,7805,ATS,C,15
16,test,1,A,haborder.png,1,m,Thu May 07 2026 09:30:16 GMT-0500 (Central Daylight Time),224258.59999999404,CFD-BM-022-004-HC.jpg,1500,solid,O,m,583,3,1,35472.39999999106,188786.20000000298,7805,ATS,C,16
17,test,1,A,haborder.png,1,m,Thu May 07 2026 09:30:16 GMT-0500 (Central Daylight Time),226857.29999999702,CFD-BF-019-004-HC.jpg,2000,solid,O,m,572,5,1,38071.09999999404,188786.20000000298,7805,ATS,C,17
18,test,1,A,haborder.png,1,m,Thu May 07 2026 09:30:16 GMT-0500 (Central Daylight Time),229240.90000000596,CFD-BM-034-035-HC.jpg,1700,solid,O,m,650,1,1,40454.70000000298,188786.20000000298,7805,ATS,C,18
19,test,1,A,haborder.png,1,z,Thu May 07 2026 09:30:16 GMT-0500 (Central Daylight Time),230888.0,CFD-WF-023-013-A.jpg,1000,solid,O,z,622,12,1,42101.79999999702,188786.20000000298,7805,ATS,C,19
20,test,1,A,haborder.png,1,z,Thu May 07 2026 09:30:16 GMT-0500 (Central Daylight Time),233122.5,CFD-WF-037-016-A.jpg,1600,solid,O,z,600,10,1,44336.29999999702,188786.20000000298,7805,ATS,C,20
21,test,1,A,haborder.png,1,m,Thu May 07 2026 09:30:16 GMT-0500 (Central Daylight Time),235137.40000000596,CFD-WM-028-005-HC.jpg,1400,solid,O,m,589,7,1,46351.20000000298,188786.20000000298,7805,ATS,C,21
22,test,1,A,haborder.png,1,m,Thu May 07 2026 09:30:16 GMT-0500 (Central Daylight Time),237654.70000000298,CFD-WM-035-036-HC.jpg,1700,solid,O,m,792,9,1,48868.5,188786.20000000298,7805,ATS,C,22
23,test,1,A,haborder.png,1,m,Thu May 07 2026 09:30:16 GMT-0500 (Central Daylight Time),239953.59999999404,CFD-BM-034-035-HC.jpg,1700,solid,O,m,574,1,1,51167.39999999106,188786.20000000298,7805,ATS,C,23
24,test,1,A,haborder.png,1,z,Thu May 07 2026 09:30:16 GMT-0500 (Central Daylight Time),241654.29999999702,CFD-WF-023-013-A.jpg,1000,solid,O,z,677,12,1,52868.09999999404,188786.20000000298,7805,ATS,C,24
1,test,1,B,mfborder.png,1,m,Thu May 07 2026 09:30:16 GMT-0500 (Central Daylight Time),256814.09999999404,CFD-BM-021-026-A.jpg,1600,dash,O,m,592,2,1,2214.8999999910593,254599.20000000298,7805,ATS,C,1
2,test,1,B,mfborder.png,1,z,Thu May 07 2026 09:30:16 GMT-0500 (Central Daylight Time),259146.40000000596,CFD-BF-042-031-HC.jpg,1500,dash,O,z,805,3,1,4547.20000000298,254599.20000000298,7805,ATS,C,2
3,test,1,B,mfborder.png,1,z,Thu May 07 2026 09:30:16 GMT-0500 (Central Daylight Time),260812.70000000298,CFD-WF-013-009-HC.jpg,1000,dash,O,z,635,12,1,6213.5,254599.20000000298,7805,ATS,C,3
4,test,1,B,mfborder.png,1,z,Thu May 07 2026 09:30:16 GMT-0500 (Central Daylight Time),262395.700000003,CFD-BF-031-020-A.jpg,1000,dash,O,z,553,4,1,7796.5,254599.20000000298,7805,ATS,C,4
5,test,1,B,mfborder.png,1,z,Thu May 07 2026 09:30:16 GMT-0500 (Central Daylight Time),265062.09999999404,CFD-WF-001-010-HC.jpg,1900,dash,O,z,735,8,1,10462.89999999106,254599.20000000298,7805,ATS,C,5
6,test,1,B,mfborder.png,1,m,Thu May 07 2026 09:30:16 GMT-0500 (Central Daylight Time),268060.700000003,CFD-BM-043-014-A.jpg,2000,dash,O,m,976,5,1,13461.5,254599.20000000298,7805,ATS,C,6
7,test,1,B,mfborder.png,1,m,Thu May 07 2026 09:30:16 GMT-0500 (Central Daylight Time),269993.200000003,CFD-WM-034-040-A.jpg,1200,dash,O,m,713,6,1,15394.0,254599.20000000298,7805,ATS,C,7
8,test,1,B,mfborder.png,1,m,Thu May 07 2026 09:30:16 GMT-0500 (Central Daylight Time),272543.09999999404,CFD-WM-036-018-A.jpg,1700,dash,O,m,819,9,1,17943.89999999106,254599.20000000298,7805,ATS,C,8
9,test,1,B,mfborder.png,1,z,Thu May 07 2026 09:30:16 GMT-0500 (Central Daylight Time),274908.200000003,CFD-BF-042-031-HC.jpg,1500,dash,O,z,845,3,1,20309.0,254599.20000000298,7805,ATS,C,9
10,test,1,B,mfborder.png,1,z,Thu May 07 2026 09:30:16 GMT-0500 (Central Daylight Time),276541.40000000596,CFD-BF-031-020-A.jpg,1000,dash,O,z,611,4,1,21942.20000000298,254599.20000000298,7805,ATS,C,10
11,test,1,B,mfborder.png,1,m,Thu May 07 2026 09:30:16 GMT-0500 (Central Daylight Time),278805.700000003,CFD-BM-022-004-HC.jpg,1700,dash,O,m,542,1,1,24206.5,254599.20000000298,7805,ATS,C,11
12,test,1,B,mfborder.png,1,m,Thu May 07 2026 09:30:16 GMT-0500 (Central Daylight Time),280740.700000003,CFD-WM-034-040-A.jpg,1200,dash,O,m,711,6,1,26141.5,254599.20000000298,7805,ATS,C,12
13,test,1,B,mfborder.png,1,z,Thu May 07 2026 09:30:16 GMT-0500 (Central Daylight Time),283105.59999999404,CFD-WF-037-016-A.jpg,1500,dash,O,z,849,11,1,28506.39999999106,254599.20000000298,7805,ATS,C,13
14,test,1,B,mfborder.png,1,m,Thu May 07 2026 09:30:16 GMT-0500 (Central Daylight Time),285822.09999999404,CFD-WM-036-018-A.jpg,1700,dash,O,m,984,9,1,31222.89999999106,254599.20000000298,7805,ATS,C,14
15,test,1,B,mfborder.png,1,z,Thu May 07 2026 09:30:16 GMT-0500 (Central Daylight Time),288538.09999999404,CFD-WF-001-010-HC.jpg,1900,dash,O,z,785,8,1,33938.89999999106,254599.20000000298,7805,ATS,C,15
16,test,1,B,mfborder.png,1,z,Thu May 07 2026 09:30:16 GMT-0500 (Central Daylight Time),290970.700000003,CFD-WF-037-016-A.jpg,1500,dash,O,z,904,11,1,36371.5,254599.20000000298,7805,ATS,C,16
17,test,1,B,mfborder.png,1,z,Thu May 07 2026 09:30:16 GMT-0500 (Central Daylight Time),292586.59999999404,CFD-WF-013-009-HC.jpg,1000,dash,O,z,591,12,1,37987.39999999106,254599.20000000298,7805,ATS,C,17
18,test,1,B,mfborder.png,1,z,Thu May 07 2026 09:30:16 GMT-0500 (Central Daylight Time),294619.0,CFD-BF-019-004-HC.jpg,1400,dash,O,z,605,7,1,40019.79999999702,254599.20000000298,7805,ATS,C,18
19,test,1,B,mfborder.png,1,m,Thu May 07 2026 09:30:16 GMT-0500 (Central Daylight Time),296718.59999999404,CFD-WM-035-036-HC.jpg,1600,dash,O,m,468,10,1,42119.39999999106,254599.20000000298,7805,ATS,C,19
20,test,1,B,mfborder.png,1,m,Thu May 07 2026 09:30:16 GMT-0500 (Central Daylight Time),299435.700000003,CFD-BM-043-014-A.jpg,2000,dash,O,m,689,5,1,44836.5,254599.20000000298,7805,ATS,C,20
21,test,1,B,mfborder.png,1,m,Thu May 07 2026 09:30:16 GMT-0500 (Central Daylight Time),301983.90000000596,CFD-BM-022-004-HC.jpg,1700,dash,O,m,823,1,1,47384.70000000298,254599.20000000298,7805,ATS,C,21
22,test,1,B,mfborder.png,1,z,Thu May 07 2026 09:30:16 GMT-0500 (Central Daylight Time),304398.90000000596,CFD-BF-019-004-HC.jpg,1400,dash,O,z,992,7,1,49799.70000000298,254599.20000000298,7805,ATS,C,22
23,test,1,B,mfborder.png,1,m,Thu May 07 2026 09:30:16 GMT-0500 (Central Daylight Time),306747.700000003,CFD-WM-035-036-HC.jpg,1600,dash,O,m,718,10,1,52148.5,254599.20000000298,7805,ATS,C,23
24,test,1,B,mfborder.png,1,m,Thu May 07 2026 09:30:16 GMT-0500 (Central Daylight Time),309430.5,CFD-BM-021-026-A.jpg,1600,dash,O,m,1058,2,1,54831.29999999702,254599.20000000298,7805,ATS,C,24
1,prac,1,C,mfborder.png,1,m,Thu May 07 2026 09:30:16 GMT-0500 (Central Daylight Time),353483.5,CFD-BM-034-035-HC.jpg,2000,solid,O,m,1117,2,1,3915.5999999940395,349567.90000000596,7805,ATS,C,1
2,prac,1,C,mfborder.png,1,z,Thu May 07 2026 09:30:16 GMT-0500 (Central Daylight Time),356634.5,CFD-BF-019-004-HC.jpg,1000,dash,O,z,1379,2,1,7066.5999999940395,349567.90000000596,7805,ATS,C,2
3,prac,1,C,haborder.png,1,m,Thu May 07 2026 09:30:16 GMT-0500 (Central Daylight Time),359930.299999997,CFD-WM-028-005-HC.jpg,1400,solid,O,m,1108,2,1,10362.39999999106,349567.90000000596,7805,ATS,C,3
4,prac,1,C,mfborder.png,1,z,Thu May 07 2026 09:30:16 GMT-0500 (Central Daylight Time),363632.200000003,CFD-WF-013-009-HC.jpg,1600,dash,O,z,1309,2,1,14064.29999999702,349567.90000000596,7805,ATS,C,4
4,prac,1,C,mfborder.png,0,m,Thu May 07 2026 09:30:16 GMT-0500 (Central Daylight Time),367130.5,CFD-BM-043-014-A.jpg,1200,dash,O,None,1515,2,1,17562.59999999404,349567.90000000596,7805,ATS,C,5
4,prac,1,C,mfborder.png,0,m,Thu May 07 2026 09:30:16 GMT-0500 (Central Daylight Time),370496.0,CFD-WM-036-018-A.jpg,1700,solid,O,z,874,2,1,20928.09999999404,349567.90000000596,7805,ATS,C,6
4,prac,1,C,haborder.png,0,m,Thu May 07 2026 09:30:16 GMT-0500 (Central Daylight Time),373794.299999997,CFD-WM-028-005-HC.jpg,1000,dash,O,None,1516,2,1,24226.39999999106,349567.90000000596,7805,ATS,C,7
5,prac,1,C,haborder.png,1,z,Thu May 07 2026 09:30:16 GMT-0500 (Central Daylight Time),377675.40000000596,CFD-WF-037-016-A.jpg,1600,dash,O,z,1484,2,1,28107.5,349567.90000000596,7805,ATS,C,8
6,prac,1,C,haborder.png,1,m,Thu May 07 2026 09:30:16 GMT-0500 (Central Daylight Time),380941.200000003,CFD-BM-022-004-HC.jpg,1500,solid,O,m,967,2,1,31373.29999999702,349567.90000000596,7805,ATS,C,9
7,prac,1,C,haborder.png,1,z,Thu May 07 2026 09:30:16 GMT-0500 (Central Daylight Time),384308.0,CFD-BF-002-018-A.jpg,1700,solid,O,z,867,2,1,34740.09999999404,349567.90000000596,7805,ATS,C,10
7,prac,1,C,haborder.png,0,z,Thu May 07 2026 09:30:16 GMT-0500 (Central Daylight Time),388505.700000003,CFD-BF-031-020-A.jpg,1900,dash,O,None,1515,2,1,38937.79999999702,349567.90000000596,7805,ATS,C,11
7,prac,1,C,mfborder.png,0,z,Thu May 07 2026 09:30:16 GMT-0500 (Central Daylight Time),392304.40000000596,CFD-WF-023-013-A.jpg,1500,solid,O,None,1515,2,1,42736.5,349567.90000000596,7805,ATS,C,12
0,prac,2,C,mfborder.png,0,m,Thu May 07 2026 09:30:16 GMT-0500 (Central Daylight Time),423730.0,CFD-BM-034-035-HC.jpg,2000,solid,O,None,1515,2,1,74162.09999999404,349567.90000000596,7805,ATS,C,1
1,prac,2,C,mfborder.png,1,z,Thu May 07 2026 09:30:16 GMT-0500 (Central Daylight Time),427244.200000003,CFD-WF-023-013-A.jpg,1500,solid,O,z,1219,2,1,77676.29999999702,349567.90000000596,7805,ATS,C,2
2,prac,2,C,mfborder.png,1,z,Thu May 07 2026 09:30:16 GMT-0500 (Central Daylight Time),429976.09999999404,CFD-BF-019-004-HC.jpg,1000,dash,O,z,933,2,1,80408.19999998808,349567.90000000596,7805,ATS,C,3
3,prac,2,C,haborder.png,1,m,Thu May 07 2026 09:30:16 GMT-0500 (Central Daylight Time),433008.799999997,CFD-WM-028-005-HC.jpg,1400,solid,O,m,847,2,1,83440.89999999106,349567.90000000596,7805,ATS,C,4
4,prac,2,C,haborder.png,1,z,Thu May 07 2026 09:30:16 GMT-0500 (Central Daylight Time),436273.700000003,CFD-BF-002-018-A.jpg,1700,solid,O,z,779,2,1,86705.79999999702,349567.90000000596,7805,ATS,C,5
5,prac,2,C,haborder.png,1,m,Thu May 07 2026 09:30:16 GMT-0500 (Central Daylight Time),439441.799999997,CFD-BM-022-004-HC.jpg,1500,solid,O,m,883,2,1,89873.89999999106,349567.90000000596,7805,ATS,C,6
6,prac,2,C,haborder.png,1,z,Thu May 07 2026 09:30:16 GMT-0500 (Central Daylight Time),443572.09999999404,CFD-BF-031-020-A.jpg,1900,dash,O,z,1436,2,1,94004.19999998808,349567.90000000596,7805,ATS,C,7
7,prac,2,C,haborder.png,1,z,Thu May 07 2026 09:30:16 GMT-0500 (Central Daylight Time),446671.90000000596,CFD-WF-037-016-A.jpg,1600,dash,O,z,708,2,1,97104.0,349567.90000000596,7805,ATS,C,8
8,prac,2,C,haborder.png,1,m,Thu May 07 2026 09:30:16 GMT-0500 (Central Daylight Time),449187.0,CFD-WM-028-005-HC.jpg,1000,dash,O,m,743,2,1,99619.09999999404,349567.90000000596,7805,ATS,C,9
8,prac,2,C,mfborder.png,0,m,Thu May 07 2026 09:30:16 GMT-0500 (Central Daylight Time),452685.299999997,CFD-BM-043-014-A.jpg,1200,dash,O,None,1517,2,1,103117.39999999106,349567.90000000596,7805,ATS,C,10
8,prac,2,C,mfborder.png,0,m,Thu May 07 2026 09:30:16 GMT-0500 (Central Daylight Time),456034.0,CFD-WM-036-018-A.jpg,1700,solid,O,z,862,2,1,106466.09999999404,349567.90000000596,7805,ATS,C,11
9,prac,2,C,mfborder.png,1,z,Thu May 07 2026 09:30:16 GMT-0500 (Central Daylight Time),459350.799999997,CFD-WF-013-009-HC.jpg,1600,dash,O,z,932,2,1,109782.89999999106,349567.90000000596,7805,ATS,C,12
1,test,1,C,mfborder.png,1,z,Thu May 07 2026 09:30:16 GMT-0500 (Central Daylight Time),479610.799999997,CFD-BF-031-020-A.jpg,1600,dash,O,z,1216,2,1,2849.7999999970198,476761.0,7805,ATS,C,1
1,test,1,C,haborder.png,0,z,Thu May 07 2026 09:30:16 GMT-0500 (Central Daylight Time),482842.59999999404,CFD-BM-043-014-A.jpg,1900,solid,O,m,1313,8,1,6081.5999999940395,476761.0,7805,ATS,C,2
1,test,1,C,haborder.png,0,m,Thu May 07 2026 09:30:16 GMT-0500 (Central Daylight Time),485258.90000000596,CFD-WF-001-010-HC.jpg,1500,solid,O,z,889,11,1,8497.90000000596,476761.0,7805,ATS,C,3
1,test,1,C,haborder.png,0,z,Thu May 07 2026 09:30:16 GMT-0500 (Central Daylight Time),488240.90000000596,CFD-BM-043-014-A.jpg,1900,solid,O,m,1049,8,1,11479.90000000596,476761.0,7805,ATS,C,4
1,test,1,C,haborder.png,0,m,Thu May 07 2026 09:30:16 GMT-0500 (Central Daylight Time),490589.799999997,CFD-BF-019-004-HC.jpg,1600,solid,O,z,716,10,1,13828.79999999702,476761.0,7805,ATS,C,5
2,test,1,C,mfborder.png,1,z,Thu May 07 2026 09:30:16 GMT-0500 (Central Daylight Time),493121.700000003,CFD-WF-037-016-A.jpg,1500,dash,O,z,1005,3,1,16360.70000000298,476761.0,7805,ATS,C,6
2,test,1,C,haborder.png,0,m,Thu May 07 2026 09:30:16 GMT-0500 (Central Daylight Time),495571.0,CFD-WF-001-010-HC.jpg,1500,solid,O,z,927,11,1,18810.0,476761.0,7805,ATS,C,7
2,test,1,C,mfborder.png,0,m,Thu May 07 2026 09:30:16 GMT-0500 (Central Daylight Time),499105.700000003,CFD-WM-034-040-A.jpg,2000,dash,O,None,1515,5,1,22344.70000000298,476761.0,7805,ATS,C,8
3,test,1,C,haborder.png,1,z,Thu May 07 2026 09:30:16 GMT-0500 (Central Daylight Time),501836.700000003,CFD-BM-021-026-A.jpg,1700,solid,O,z,1008,9,1,25075.70000000298,476761.0,7805,ATS,C,9
3,test,1,C,haborder.png,0,z,Thu May 07 2026 09:30:16 GMT-0500 (Central Daylight Time),504268.5,CFD-BM-021-026-A.jpg,1700,solid,O,m,709,9,1,27507.5,476761.0,7805,ATS,C,10
4,test,1,C,mfborder.png,1,z,Thu May 07 2026 09:30:16 GMT-0500 (Central Daylight Time),507350.700000003,CFD-BF-031-020-A.jpg,1600,dash,O,z,1450,2,1,30589.70000000298,476761.0,7805,ATS,C,11
4,test,1,C,haborder.png,0,z,Thu May 07 2026 09:30:16 GMT-0500 (Central Daylight Time),510283.5,CFD-WM-036-018-A.jpg,1400,solid,O,None,1515,7,1,33522.5,476761.0,7805,ATS,C,12
4,test,1,C,mfborder.png,0,z,Thu May 07 2026 09:30:16 GMT-0500 (Central Daylight Time),513517.700000003,CFD-BF-042-031-HC.jpg,1700,dash,O,None,1517,1,1,36756.70000000298,476761.0,7805,ATS,C,13
5,test,1,C,mfborder.png,1,z,Thu May 07 2026 09:30:16 GMT-0500 (Central Daylight Time),516282.799999997,CFD-WF-037-016-A.jpg,1500,dash,O,z,1234,3,1,39521.79999999702,476761.0,7805,ATS,C,14
5,test,1,C,haborder.png,0,m,Thu May 07 2026 09:30:16 GMT-0500 (Central Daylight Time),518513.40000000596,CFD-WF-013-009-HC.jpg,1000,solid,O,z,1206,12,1,41752.40000000596,476761.0,7805,ATS,C,15
5,test,1,C,mfborder.png,0,m,Thu May 07 2026 09:30:16 GMT-0500 (Central Daylight Time),521246.59999999404,CFD-BM-022-004-HC.jpg,1200,dash,O,None,1514,6,1,44485.59999999404,476761.0,7805,ATS,C,16
6,test,1,C,mfborder.png,1,m,Thu May 07 2026 09:30:16 GMT-0500 (Central Daylight Time),523195.799999997,CFD-WM-035-036-HC.jpg,1000,dash,O,m,927,4,1,46434.79999999702,476761.0,7805,ATS,C,17
6,test,1,C,haborder.png,0,m,Thu May 07 2026 09:30:16 GMT-0500 (Central Daylight Time),525529.299999997,CFD-WF-013-009-HC.jpg,1000,solid,O,z,1307,12,1,48768.29999999702,476761.0,7805,ATS,C,18
6,test,1,C,haborder.png,0,z,Thu May 07 2026 09:30:16 GMT-0500 (Central Daylight Time),528176.400000006,CFD-WM-036-018-A.jpg,1400,solid,O,m,1221,7,1,51415.40000000596,476761.0,7805,ATS,C,19
6,test,1,C,mfborder.png,0,m,Thu May 07 2026 09:30:16 GMT-0500 (Central Daylight Time),531710.099999994,CFD-WM-034-040-A.jpg,2000,dash,O,None,1515,5,1,54949.09999999404,476761.0,7805,ATS,C,20
7,test,1,C,mfborder.png,1,m,Thu May 07 2026 09:30:16 GMT-0500 (Central Daylight Time),533892.599999994,CFD-BM-022-004-HC.jpg,1200,dash,O,m,963,6,1,57131.59999999404,476761.0,7805,ATS,C,21
8,test,1,C,mfborder.png,1,m,Thu May 07 2026 09:30:16 GMT-0500 (Central Daylight Time),535758.799999997,CFD-WM-035-036-HC.jpg,1000,dash,O,m,842,4,1,58997.79999999702,476761.0,7805,ATS,C,22
8,test,1,C,haborder.png,0,m,Thu May 07 2026 09:30:16 GMT-0500 (Central Daylight Time),538124.400000006,CFD-BF-019-004-HC.jpg,1600,solid,O,z,735,10,1,61363.40000000596,476761.0,7805,ATS,C,23
9,test,1,C,mfborder.png,1,z,Thu May 07 2026 09:30:16 GMT-0500 (Central Daylight Time),541274.700000003,CFD-BF-042-031-HC.jpg,1700,dash,O,z,1424,1,1,64513.70000000298,476761.0,7805,ATS,C,24
0,test,2,C,haborder.png,0,z,Thu May 07 2026 09:30:16 GMT-0500 (Central Daylight Time),548305.0,CFD-BF-031-020-A.jpg,1400,solid,O,None,1516,7,1,2931.9000000059605,545373.099999994,7805,ATS,C,1
0,test,2,C,mfborder.png,0,m,Thu May 07 2026 09:30:16 GMT-0500 (Central Daylight Time),551838.5,CFD-BM-043-014-A.jpg,2000,dash,O,None,1516,5,1,6465.4000000059605,545373.099999994,7805,ATS,C,2
0,test,2,C,mfborder.png,0,z,Thu May 07 2026 09:30:16 GMT-0500 (Central Daylight Time),555002.900000006,CFD-WF-013-009-HC.jpg,1700,dash,O,m,1434,1,1,9629.800000011921,545373.099999994,7805,ATS,C,3
1,test,2,C,mfborder.png,1,z,Thu May 07 2026 09:30:16 GMT-0500 (Central Daylight Time),557453.400000006,CFD-WF-023-013-A.jpg,1600,dash,O,z,828,2,1,12080.300000011921,545373.099999994,7805,ATS,C,4
2,test,2,C,haborder.png,1,m,Thu May 07 2026 09:30:16 GMT-0500 (Central Daylight Time),559818.400000006,CFD-WM-028-005-HC.jpg,1000,solid,O,m,1336,12,1,14445.300000011921,545373.099999994,7805,ATS,C,5
3,test,2,C,haborder.png,1,z,Thu May 07 2026 09:30:16 GMT-0500 (Central Daylight Time),562533.799999997,CFD-WF-037-016-A.jpg,1700,solid,O,z,992,9,1,17160.70000000298,545373.099999994,7805,ATS,C,6
4,test,2,C,haborder.png,1,z,Thu May 07 2026 09:30:16 GMT-0500 (Central Daylight Time),565383.700000003,CFD-BF-002-018-A.jpg,1900,solid,O,z,925,8,1,20010.60000000894,545373.099999994,7805,ATS,C,7
5,test,2,C,mfborder.png,1,m,Thu May 07 2026 09:30:16 GMT-0500 (Central Daylight Time),567849.5,CFD-WM-036-018-A.jpg,1200,dash,O,m,1240,6,1,22476.40000000596,545373.099999994,7805,ATS,C,8
5,test,2,C,haborder.png,0,z,Thu May 07 2026 09:30:16 GMT-0500 (Central Daylight Time),571282.5,CFD-BF-002-018-A.jpg,1900,solid,O,None,1516,8,1,25909.40000000596,545373.099999994,7805,ATS,C,9
6,test,2,C,haborder.png,1,m,Thu May 07 2026 09:30:16 GMT-0500 (Central Daylight Time),574080.700000003,CFD-BM-022-004-HC.jpg,1600,solid,O,m,1184,10,1,28707.60000000894,545373.099999994,7805,ATS,C,10
6,test,2,C,mfborder.png,0,m,Thu May 07 2026 09:30:16 GMT-0500 (Central Daylight Time),577477.5,CFD-BM-043-014-A.jpg,2000,dash,O,z,1364,5,1,32104.40000000596,545373.099999994,7805,ATS,C,11
7,test,2,C,haborder.png,1,m,Thu May 07 2026 09:30:16 GMT-0500 (Central Daylight Time),580412.0,CFD-WM-028-005-HC.jpg,1500,solid,O,m,1403,11,1,35038.90000000596,545373.099999994,7805,ATS,C,12
8,test,2,C,mfborder.png,1,z,Thu May 07 2026 09:30:16 GMT-0500 (Central Daylight Time),583609.900000006,CFD-WF-013-009-HC.jpg,1700,dash,O,z,1472,1,1,38236.80000001192,545373.099999994,7805,ATS,C,13
9,test,2,C,mfborder.png,1,z,Thu May 07 2026 09:30:16 GMT-0500 (Central Daylight Time),586560.799999997,CFD-BF-019-004-HC.jpg,1500,dash,O,z,1417,3,1,41187.70000000298,545373.099999994,7805,ATS,C,14
10,test,2,C,haborder.png,1,m,Thu May 07 2026 09:30:16 GMT-0500 (Central Daylight Time),588692.400000006,CFD-WM-028-005-HC.jpg,1000,solid,O,m,1102,12,1,43319.30000001192,545373.099999994,7805,ATS,C,15
11,test,2,C,haborder.png,1,m,Thu May 07 2026 09:30:16 GMT-0500 (Central Daylight Time),591240.099999994,CFD-BM-022-004-HC.jpg,1600,solid,O,m,923,10,1,45867.0,545373.099999994,7805,ATS,C,16
12,test,2,C,mfborder.png,1,z,Thu May 07 2026 09:30:16 GMT-0500 (Central Daylight Time),594106.799999997,CFD-WF-023-013-A.jpg,1600,dash,O,z,1237,2,1,48733.70000000298,545373.099999994,7805,ATS,C,17
12,test,2,C,mfborder.png,0,z,Thu May 07 2026 09:30:16 GMT-0500 (Central Daylight Time),596406.599999994,CFD-BF-019-004-HC.jpg,1500,dash,O,m,768,3,1,51033.5,545373.099999994,7805,ATS,C,18
13,test,2,C,haborder.png,1,z,Thu May 07 2026 09:30:16 GMT-0500 (Central Daylight Time),598874.099999994,CFD-BF-031-020-A.jpg,1400,solid,O,z,1033,7,1,53501.0,545373.099999994,7805,ATS,C,19
14,test,2,C,haborder.png,1,m,Thu May 07 2026 09:30:16 GMT-0500 (Central Daylight Time),601304.5,CFD-WM-028-005-HC.jpg,1500,solid,O,m,901,11,1,55931.40000000596,545373.099999994,7805,ATS,C,20
14,test,2,C,mfborder.png,0,m,Thu May 07 2026 09:30:16 GMT-0500 (Central Daylight Time),603820.599999994,CFD-BM-034-035-HC.jpg,1000,dash,O,z,1486,4,1,58447.5,545373.099999994,7805,ATS,C,21
15,test,2,C,haborder.png,1,z,Thu May 07 2026 09:30:16 GMT-0500 (Central Daylight Time),606871.799999997,CFD-WF-037-016-A.jpg,1700,solid,O,z,1325,9,1,61498.70000000298,545373.099999994,7805,ATS,C,22
16,test,2,C,mfborder.png,1,m,Thu May 07 2026 09:30:16 GMT-0500 (Central Daylight Time),609337.099999994,CFD-BM-034-035-HC.jpg,1000,dash,O,m,1442,4,1,63964.0,545373.099999994,7805,ATS,C,23
16,test,2,C,mfborder.png,0,m,Thu May 07 2026 09:30:16 GMT-0500 (Central Daylight Time),611318.099999994,CFD-WM-036-018-A.jpg,1200,dash,O,z,750,6,1,65945.0,545373.099999994,7805,ATS,C,24
0,test,3,C,haborder.png,0,m,Thu May 07 2026 09:30:16 GMT-0500 (Central Daylight Time),617915.5,CFD-BF-019-004-HC.jpg,1600,solid,O,z,853,10,1,2480.4000000059605,615435.099999994,7805,ATS,C,1
1,test,3,C,mfborder.png,1,m,Thu May 07 2026 09:30:16 GMT-0500 (Central Daylight Time),620381.700000003,CFD-WM-035-036-HC.jpg,1000,dash,O,m,1435,4,1,4946.600000008941,615435.099999994,7805,ATS,C,2
1,test,3,C,haborder.png,0,z,Thu May 07 2026 09:30:16 GMT-0500 (Central Daylight Time),623614.900000006,CFD-BM-021-026-A.jpg,1700,solid,O,None,1516,9,1,8179.800000011921,615435.099999994,7805,ATS,C,3
2,test,3,C,mfborder.png,1,z,Thu May 07 2026 09:30:16 GMT-0500 (Central Daylight Time),626829.299999997,CFD-BF-042-031-HC.jpg,1700,dash,O,z,1492,1,1,11394.20000000298,615435.099999994,7805,ATS,C,4
3,test,3,C,mfborder.png,1,z,Thu May 07 2026 09:30:16 GMT-0500 (Central Daylight Time),629563.299999997,CFD-WF-037-016-A.jpg,1500,dash,O,z,1207,3,1,14128.20000000298,615435.099999994,7805,ATS,C,5
4,test,3,C,mfborder.png,1,m,Thu May 07 2026 09:30:16 GMT-0500 (Central Daylight Time),631827.700000003,CFD-BM-022-004-HC.jpg,1200,dash,O,m,1045,6,1,16392.60000000894,615435.099999994,7805,ATS,C,6
4,test,3,C,mfborder.png,0,m,Thu May 07 2026 09:30:16 GMT-0500 (Central Daylight Time),634760.099999994,CFD-WM-034-040-A.jpg,2000,dash,O,z,906,5,1,19325.0,615435.099999994,7805,ATS,C,7
4,test,3,C,haborder.png,0,m,Thu May 07 2026 09:30:16 GMT-0500 (Central Daylight Time),637791.599999994,CFD-BF-019-004-HC.jpg,1600,solid,O,z,1398,10,1,22356.5,615435.099999994,7805,ATS,C,8
4,test,3,C,haborder.png,0,m,Thu May 07 2026 09:30:16 GMT-0500 (Central Daylight Time),639992.299999997,CFD-WF-001-010-HC.jpg,1500,solid,O,z,666,11,1,24557.20000000298,615435.099999994,7805,ATS,C,9
5,test,3,C,mfborder.png,1,z,Thu May 07 2026 09:30:16 GMT-0500 (Central Daylight Time),642874.0,CFD-BF-031-020-A.jpg,1600,dash,O,z,1261,2,1,27438.90000000596,615435.099999994,7805,ATS,C,10
5,test,3,C,mfborder.png,0,z,Thu May 07 2026 09:30:16 GMT-0500 (Central Daylight Time),645373.5,CFD-BF-042-031-HC.jpg,1700,dash,O,m,777,1,1,29938.40000000596,615435.099999994,7805,ATS,C,11
5,test,3,C,haborder.png,0,z,Thu May 07 2026 09:30:16 GMT-0500 (Central Daylight Time),648539.299999997,CFD-BM-043-014-A.jpg,1900,solid,O,m,1236,8,1,33104.20000000298,615435.099999994,7805,ATS,C,12
5,test,3,C,haborder.png,0,z,Thu May 07 2026 09:30:16 GMT-0500 (Central Daylight Time),651006.200000003,CFD-BM-021-026-A.jpg,1700,solid,O,m,743,9,1,35571.10000000894,615435.099999994,7805,ATS,C,13
5,test,3,C,mfborder.png,0,z,Thu May 07 2026 09:30:16 GMT-0500 (Central Daylight Time),653637.5,CFD-WF-037-016-A.jpg,1500,dash,O,m,1100,3,1,38202.40000000596,615435.099999994,7805,ATS,C,14
6,test,3,C,haborder.png,1,m,Thu May 07 2026 09:30:16 GMT-0500 (Central Daylight Time),655902.5,CFD-WF-013-009-HC.jpg,1000,solid,O,m,1239,12,1,40467.40000000596,615435.099999994,7805,ATS,C,15
6,test,3,C,haborder.png,0,z,Thu May 07 2026 09:30:16 GMT-0500 (Central Daylight Time),658786.5,CFD-BM-043-014-A.jpg,1900,solid,O,m,955,8,1,43351.40000000596,615435.099999994,7805,ATS,C,16
6,test,3,C,haborder.png,0,z,Thu May 07 2026 09:30:16 GMT-0500 (Central Daylight Time),661218.299999997,CFD-WM-036-018-A.jpg,1400,solid,O,m,1005,7,1,45783.20000000298,615435.099999994,7805,ATS,C,17
7,test,3,C,mfborder.png,1,m,Thu May 07 2026 09:30:16 GMT-0500 (Central Daylight Time),663883.799999997,CFD-BM-022-004-HC.jpg,1200,dash,O,m,1443,6,1,48448.70000000298,615435.099999994,7805,ATS,C,18
7,test,3,C,mfborder.png,0,m,Thu May 07 2026 09:30:16 GMT-0500 (Central Daylight Time),666784.0,CFD-WM-034-040-A.jpg,2000,dash,O,z,869,5,1,51348.90000000596,615435.099999994,7805,ATS,C,19
8,test,3,C,mfborder.png,1,z,Thu May 07 2026 09:30:16 GMT-0500 (Central Daylight Time),669116.900000006,CFD-BF-031-020-A.jpg,1600,dash,O,z,712,2,1,53681.80000001192,615435.099999994,7805,ATS,C,20
9,test,3,C,mfborder.png,1,m,Thu May 07 2026 09:30:16 GMT-0500 (Central Daylight Time),671265.799999997,CFD-WM-035-036-HC.jpg,1000,dash,O,m,1118,4,1,55830.70000000298,615435.099999994,7805,ATS,C,21
9,test,3,C,haborder.png,0,m,Thu May 07 2026 09:30:16 GMT-0500 (Central Daylight Time),673497.900000006,CFD-WF-013-009-HC.jpg,1000,solid,O,z,1201,12,1,58062.80000001192,615435.099999994,7805,ATS,C,22
9,test,3,C,haborder.png,0,z,Thu May 07 2026 09:30:16 GMT-0500 (Central Daylight Time),675648.099999994,CFD-WM-036-018-A.jpg,1400,solid,O,m,719,7,1,60213.0,615435.099999994,7805,ATS,C,23
9,test,3,C,haborder.png,0,m,Thu May 07 2026 09:30:16 GMT-0500 (Central Daylight Time),677881.900000006,CFD-WF-001-010-HC.jpg,1500,solid,O,z,716,11,1,62446.80000001192,615435.099999994,7805,ATS,C,24
1,test,4,C,mfborder.png,1,z,Thu May 07 2026 09:30:16 GMT-0500 (Central Daylight Time),684012.900000006,CFD-WF-023-013-A.jpg,1600,dash,O,z,1021,2,1,2649.1000000089407,681363.799999997,7805,ATS,C,1
2,test,4,C,haborder.png,1,m,Thu May 07 2026 09:30:16 GMT-0500 (Central Daylight Time),686494.0,CFD-BM-022-004-HC.jpg,1600,solid,O,m,850,10,1,5130.20000000298,681363.799999997,7805,ATS,C,2
2,test,4,C,mfborder.png,0,m,Thu May 07 2026 09:30:16 GMT-0500 (Central Daylight Time),689510.799999997,CFD-BM-043-014-A.jpg,2000,dash,O,z,984,5,1,8147.0,681363.799999997,7805,ATS,C,3
3,test,4,C,haborder.png,1,z,Thu May 07 2026 09:30:16 GMT-0500 (Central Daylight Time),692009.099999994,CFD-WF-037-016-A.jpg,1700,solid,O,z,766,9,1,10645.29999999702,681363.799999997,7805,ATS,C,4
3,test,4,C,mfborder.png,0,m,Thu May 07 2026 09:30:16 GMT-0500 (Central Daylight Time),694541.700000003,CFD-BM-034-035-HC.jpg,1000,dash,O,None,1516,4,1,13177.90000000596,681363.799999997,7805,ATS,C,5
3,test,4,C,mfborder.png,0,m,Thu May 07 2026 09:30:16 GMT-0500 (Central Daylight Time),697724.200000003,CFD-BM-043-014-A.jpg,2000,dash,O,z,1161,5,1,16360.40000000596,681363.799999997,7805,ATS,C,6
4,test,4,C,mfborder.png,1,m,Thu May 07 2026 09:30:16 GMT-0500 (Central Daylight Time),699540.5,CFD-BM-034-035-HC.jpg,1000,dash,O,m,793,4,1,18176.70000000298,681363.799999997,7805,ATS,C,7
5,test,4,C,haborder.png,1,m,Thu May 07 2026 09:30:16 GMT-0500 (Central Daylight Time),701756.5,CFD-WM-028-005-HC.jpg,1000,solid,O,m,1184,12,1,20392.70000000298,681363.799999997,7805,ATS,C,8
6,test,4,C,haborder.png,1,z,Thu May 07 2026 09:30:16 GMT-0500 (Central Daylight Time),703971.599999994,CFD-BF-031-020-A.jpg,1400,solid,O,z,794,7,1,22607.79999999702,681363.799999997,7805,ATS,C,9
7,test,4,C,haborder.png,1,z,Thu May 07 2026 09:30:16 GMT-0500 (Central Daylight Time),706721.5,CFD-BF-002-018-A.jpg,1900,solid,O,z,823,8,1,25357.70000000298,681363.799999997,7805,ATS,C,10
8,test,4,C,mfborder.png,1,m,Thu May 07 2026 09:30:16 GMT-0500 (Central Daylight Time),709070.299999997,CFD-WM-036-018-A.jpg,1200,dash,O,m,1125,6,1,27706.5,681363.799999997,7805,ATS,C,11
9,test,4,C,mfborder.png,1,z,Thu May 07 2026 09:30:16 GMT-0500 (Central Daylight Time),711569.400000006,CFD-WF-023-013-A.jpg,1600,dash,O,z,871,2,1,30205.60000000894,681363.799999997,7805,ATS,C,12
9,test,4,C,mfborder.png,0,m,Thu May 07 2026 09:30:16 GMT-0500 (Central Daylight Time),713569.0,CFD-WM-036-018-A.jpg,1200,dash,O,z,764,6,1,32205.20000000298,681363.799999997,7805,ATS,C,13
10,test,4,C,haborder.png,1,m,Thu May 07 2026 09:30:16 GMT-0500 (Central Daylight Time),716184.200000003,CFD-BM-022-004-HC.jpg,1600,solid,O,m,989,10,1,34820.40000000596,681363.799999997,7805,ATS,C,14
11,test,4,C,haborder.png,1,z,Thu May 07 2026 09:30:16 GMT-0500 (Central Daylight Time),718500.400000006,CFD-BF-031-020-A.jpg,1400,solid,O,z,894,7,1,37136.60000000894,681363.799999997,7805,ATS,C,15
12,test,4,C,haborder.png,1,z,Thu May 07 2026 09:30:16 GMT-0500 (Central Daylight Time),721051.200000003,CFD-BF-002-018-A.jpg,1900,solid,O,z,622,8,1,39687.40000000596,681363.799999997,7805,ATS,C,16
13,test,4,C,haborder.png,1,m,Thu May 07 2026 09:30:16 GMT-0500 (Central Daylight Time),722832.0,CFD-WM-028-005-HC.jpg,1000,solid,O,m,758,12,1,41468.20000000298,681363.799999997,7805,ATS,C,17
14,test,4,C,haborder.png,1,z,Thu May 07 2026 09:30:16 GMT-0500 (Central Daylight Time),725632.599999994,CFD-WF-037-016-A.jpg,1700,solid,O,z,1068,9,1,44268.79999999702,681363.799999997,7805,ATS,C,18
15,test,4,C,mfborder.png,1,z,Thu May 07 2026 09:30:16 GMT-0500 (Central Daylight Time),728363.599999994,CFD-BF-019-004-HC.jpg,1500,dash,O,z,1209,3,1,46999.79999999702,681363.799999997,7805,ATS,C,19
15,test,4,C,mfborder.png,0,z,Thu May 07 2026 09:30:16 GMT-0500 (Central Daylight Time),731429.5,CFD-WF-013-009-HC.jpg,1700,dash,O,m,1333,1,1,50065.70000000298,681363.799999997,7805,ATS,C,20
16,test,4,C,haborder.png,1,m,Thu May 07 2026 09:30:16 GMT-0500 (Central Daylight Time),733896.799999997,CFD-WM-028-005-HC.jpg,1500,solid,O,m,934,11,1,52533.0,681363.799999997,7805,ATS,C,21
16,test,4,C,mfborder.png,0,z,Thu May 07 2026 09:30:16 GMT-0500 (Central Daylight Time),736644.299999997,CFD-WF-013-009-HC.jpg,1700,dash,O,m,1019,1,1,55280.5,681363.799999997,7805,ATS,C,22
16,test,4,C,mfborder.png,0,z,Thu May 07 2026 09:30:16 GMT-0500 (Central Daylight Time),739094.0,CFD-BF-019-004-HC.jpg,1500,dash,O,m,918,3,1,57730.20000000298,681363.799999997,7805,ATS,C,23
17,test,4,C,haborder.png,1,m,Thu May 07 2026 09:30:16 GMT-0500 (Central Daylight Time),741676.200000003,CFD-WM-028-005-HC.jpg,1500,solid,O,m,1052,11,1,60312.40000000596,681363.799999997,7805,ATS,C,24
