acc_sum,block,block_c,block_cond,con_img,correct,correct_response,datetime,endtime,face,jitter,line,project,response,response_time,row_sel,session_number,start_end,starttime,subject_id,task,task_vers,trial
1,prac,1,A,haborder.png,1,z,Wed May 06 2026 13:56:21 GMT-0400 (Eastern Daylight Time),53913.39999999991,CFD-BF-031-020-A.jpg,1000,solid,I,z,1103,4,2,2899.7999999998137,51013.60000000009,9054,ATS,C,1
2,prac,1,A,haborder.png,1,z,Wed May 06 2026 13:56:21 GMT-0400 (Eastern Daylight Time),57063.60000000009,CFD-WF-037-016-A.jpg,1600,solid,I,z,755,10,2,6050.0,51013.60000000009,9054,ATS,C,2
3,prac,1,A,haborder.png,1,z,Wed May 06 2026 13:56:21 GMT-0400 (Eastern Daylight Time),59780.10000000009,CFD-BF-002-018-A.jpg,1200,solid,I,z,718,6,2,8766.5,51013.60000000009,9054,ATS,C,3
4,prac,1,A,haborder.png,1,z,Wed May 06 2026 13:56:21 GMT-0400 (Eastern Daylight Time),62980.0,CFD-BM-043-014-A.jpg,1600,solid,I,z,809,2,2,11966.399999999907,51013.60000000009,9054,ATS,C,4
5,prac,1,A,haborder.png,1,m,Wed May 06 2026 13:56:21 GMT-0400 (Eastern Daylight Time),66046.80000000028,CFD-WF-013-009-HC.jpg,1500,solid,I,m,773,11,2,15033.200000000186,51013.60000000009,9054,ATS,C,5
6,prac,1,A,haborder.png,1,m,Wed May 06 2026 13:56:21 GMT-0400 (Eastern Daylight Time),69196.70000000019,CFD-WM-035-036-HC.jpg,1700,solid,I,m,658,9,2,18183.100000000093,51013.60000000009,9054,ATS,C,6
7,prac,1,A,haborder.png,1,m,Wed May 06 2026 13:56:21 GMT-0400 (Eastern Daylight Time),72530.30000000028,CFD-BM-034-035-HC.jpg,1700,solid,I,m,836,1,2,21516.700000000186,51013.60000000009,9054,ATS,C,7
8,prac,1,A,haborder.png,1,z,Wed May 06 2026 13:56:21 GMT-0400 (Eastern Daylight Time),76197.0,CFD-WM-036-018-A.jpg,1900,solid,I,z,967,8,2,25183.399999999907,51013.60000000009,9054,ATS,C,8
9,prac,1,A,haborder.png,1,m,Wed May 06 2026 13:56:21 GMT-0400 (Eastern Daylight Time),80330.0,CFD-BF-019-004-HC.jpg,2000,solid,I,m,1344,5,2,29316.399999999907,51013.60000000009,9054,ATS,C,9
10,prac,1,A,haborder.png,1,m,Wed May 06 2026 13:56:21 GMT-0400 (Eastern Daylight Time),83496.70000000019,CFD-BM-022-004-HC.jpg,1500,solid,I,m,871,3,2,32483.100000000093,51013.60000000009,9054,ATS,C,10
11,prac,1,A,haborder.png,1,m,Wed May 06 2026 13:56:21 GMT-0400 (Eastern Daylight Time),86380.0,CFD-WM-028-005-HC.jpg,1400,solid,I,m,692,7,2,35366.39999999991,51013.60000000009,9054,ATS,C,11
12,prac,1,A,haborder.png,1,z,Wed May 06 2026 13:56:21 GMT-0400 (Eastern Daylight Time),89230.0,CFD-WF-023-013-A.jpg,1000,solid,I,z,1057,12,2,38216.39999999991,51013.60000000009,9054,ATS,C,12
0,prac,1,B,mfborder.png,0,m,Wed May 06 2026 13:56:21 GMT-0400 (Eastern Daylight Time),120163.30000000028,CFD-BM-022-004-HC.jpg,1700,1,I,z,1476,dash,2,3966.600000000093,116196.70000000019,9054,ATS,C,1
1,prac,1,B,mfborder.png,1,m,Wed May 06 2026 13:56:21 GMT-0400 (Eastern Daylight Time),122913.20000000019,CFD-WM-034-040-A.jpg,1200,6,I,m,753,dash,2,6716.5,116196.70000000019,9054,ATS,C,2
2,prac,1,B,mfborder.png,1,m,Wed May 06 2026 13:56:21 GMT-0400 (Eastern Daylight Time),125963.3999999999,CFD-BM-021-026-A.jpg,1600,2,I,m,659,dash,2,9766.69999999972,116196.70000000019,9054,ATS,C,3
3,prac,1,B,mfborder.png,1,z,Wed May 06 2026 13:56:21 GMT-0400 (Eastern Daylight Time),128513.30000000028,CFD-WF-013-009-HC.jpg,1000,12,I,z,761,dash,2,12316.600000000093,116196.70000000019,9054,ATS,C,4
4,prac,1,B,mfborder.png,1,z,Wed May 06 2026 13:56:21 GMT-0400 (Eastern Daylight Time),131846.8999999999,CFD-WF-001-010-HC.jpg,1900,8,I,z,647,dash,2,15650.19999999972,116196.70000000019,9054,ATS,C,5
5,prac,1,B,mfborder.png,1,z,Wed May 06 2026 13:56:21 GMT-0400 (Eastern Daylight Time),134913.6000000001,CFD-BF-019-004-HC.jpg,1400,7,I,z,878,dash,2,18716.899999999907,116196.70000000019,9054,ATS,C,6
6,prac,1,B,mfborder.png,1,m,Wed May 06 2026 13:56:21 GMT-0400 (Eastern Daylight Time),138447.8999999999,CFD-WM-036-018-A.jpg,1700,9,I,m,1064,dash,2,22251.19999999972,116196.70000000019,9054,ATS,C,7
7,prac,1,B,mfborder.png,1,z,Wed May 06 2026 13:56:21 GMT-0400 (Eastern Daylight Time),141531.8999999999,CFD-WF-037-016-A.jpg,1500,11,I,z,785,dash,2,25335.19999999972,116196.70000000019,9054,ATS,C,8
8,prac,1,B,mfborder.png,1,z,Wed May 06 2026 13:56:21 GMT-0400 (Eastern Daylight Time),144464.1000000001,CFD-BF-031-020-A.jpg,1000,4,I,z,1149,dash,2,28267.399999999907,116196.70000000019,9054,ATS,C,9
9,prac,1,B,mfborder.png,1,m,Wed May 06 2026 13:56:21 GMT-0400 (Eastern Daylight Time),147647.6000000001,CFD-WM-035-036-HC.jpg,1600,10,I,m,797,dash,2,31450.899999999907,116196.70000000019,9054,ATS,C,10
10,prac,1,B,mfborder.png,1,m,Wed May 06 2026 13:56:21 GMT-0400 (Eastern Daylight Time),151164.30000000028,CFD-BM-043-014-A.jpg,2000,5,I,m,717,dash,2,34967.60000000009,116196.70000000019,9054,ATS,C,11
11,prac,1,B,mfborder.png,1,z,Wed May 06 2026 13:56:21 GMT-0400 (Eastern Daylight Time),154380.6000000001,CFD-BF-042-031-HC.jpg,1500,3,I,z,926,dash,2,38183.89999999991,116196.70000000019,9054,ATS,C,12
1,test,1,A,haborder.png,1,z,Wed May 06 2026 13:56:21 GMT-0400 (Eastern Daylight Time),176148.0,CFD-WM-036-018-A.jpg,1900,solid,I,z,879,8,2,2800.2999999998137,173347.7000000002,9054,ATS,C,1
2,test,1,A,haborder.png,1,m,Wed May 06 2026 13:56:21 GMT-0400 (Eastern Daylight Time),178315.6000000001,CFD-WM-028-005-HC.jpg,1400,solid,I,m,738,7,2,4967.899999999907,173347.7000000002,9054,ATS,C,2
3,test,1,A,haborder.png,1,m,Wed May 06 2026 13:56:21 GMT-0400 (Eastern Daylight Time),180281.0,CFD-WM-028-005-HC.jpg,1400,solid,I,m,548,7,2,6933.299999999814,173347.7000000002,9054,ATS,C,3
4,test,1,A,haborder.png,1,m,Wed May 06 2026 13:56:21 GMT-0400 (Eastern Daylight Time),182397.8999999999,CFD-BM-022-004-HC.jpg,1500,solid,I,m,584,3,2,9050.19999999972,173347.7000000002,9054,ATS,C,4
5,test,1,A,haborder.png,1,m,Wed May 06 2026 13:56:21 GMT-0400 (Eastern Daylight Time),184614.30000000028,CFD-WF-013-009-HC.jpg,1500,solid,I,m,694,11,2,11266.600000000093,173347.7000000002,9054,ATS,C,5
6,test,1,A,haborder.png,1,z,Wed May 06 2026 13:56:21 GMT-0400 (Eastern Daylight Time),187065.30000000028,CFD-WF-037-016-A.jpg,1600,solid,I,z,824,10,2,13717.600000000093,173347.7000000002,9054,ATS,C,6
7,test,1,A,haborder.png,1,m,Wed May 06 2026 13:56:21 GMT-0400 (Eastern Daylight Time),189231.80000000028,CFD-BM-022-004-HC.jpg,1500,solid,I,m,635,3,2,15884.100000000093,173347.7000000002,9054,ATS,C,7
8,test,1,A,haborder.png,1,z,Wed May 06 2026 13:56:21 GMT-0400 (Eastern Daylight Time),191481.30000000028,CFD-WF-037-016-A.jpg,1600,solid,I,z,633,10,2,18133.600000000093,173347.7000000002,9054,ATS,C,8
9,test,1,A,haborder.png,1,m,Wed May 06 2026 13:56:21 GMT-0400 (Eastern Daylight Time),194048.5,CFD-WM-035-036-HC.jpg,1700,solid,I,m,835,9,2,20700.799999999814,173347.7000000002,9054,ATS,C,9
10,test,1,A,haborder.png,1,z,Wed May 06 2026 13:56:21 GMT-0400 (Eastern Daylight Time),196147.5,CFD-BF-002-018-A.jpg,1200,solid,I,z,880,6,2,22799.799999999814,173347.7000000002,9054,ATS,C,10
11,test,1,A,haborder.png,1,z,Wed May 06 2026 13:56:21 GMT-0400 (Eastern Daylight Time),198098.6000000001,CFD-BF-002-018-A.jpg,1200,solid,I,z,730,6,2,24750.899999999907,173347.7000000002,9054,ATS,C,11
12,test,1,A,haborder.png,1,m,Wed May 06 2026 13:56:21 GMT-0400 (Eastern Daylight Time),200630.30000000028,CFD-BM-034-035-HC.jpg,1700,solid,I,m,815,1,2,27282.600000000093,173347.7000000002,9054,ATS,C,12
13,test,1,A,haborder.png,1,z,Wed May 06 2026 13:56:21 GMT-0400 (Eastern Daylight Time),203815.1000000001,CFD-WM-036-018-A.jpg,1900,solid,I,z,1251,8,2,30467.399999999907,173347.7000000002,9054,ATS,C,13
14,test,1,A,haborder.png,1,z,Wed May 06 2026 13:56:21 GMT-0400 (Eastern Daylight Time),206364.1000000001,CFD-BM-043-014-A.jpg,1600,solid,I,z,921,2,2,33016.39999999991,173347.7000000002,9054,ATS,C,14
15,test,1,A,haborder.png,1,m,Wed May 06 2026 13:56:21 GMT-0400 (Eastern Daylight Time),208647.80000000028,CFD-WF-013-009-HC.jpg,1500,solid,I,m,758,11,2,35300.10000000009,173347.7000000002,9054,ATS,C,15
16,test,1,A,haborder.png,1,m,Wed May 06 2026 13:56:21 GMT-0400 (Eastern Daylight Time),211130.7000000002,CFD-BM-034-035-HC.jpg,1700,solid,I,m,762,1,2,37783.0,173347.7000000002,9054,ATS,C,16
17,test,1,A,haborder.png,1,m,Wed May 06 2026 13:56:21 GMT-0400 (Eastern Daylight Time),213581.1000000001,CFD-WM-035-036-HC.jpg,1700,solid,I,m,719,9,2,40233.39999999991,173347.7000000002,9054,ATS,C,17
18,test,1,A,haborder.png,1,z,Wed May 06 2026 13:56:21 GMT-0400 (Eastern Daylight Time),215297.5,CFD-WF-023-013-A.jpg,1000,solid,I,z,689,12,2,41949.799999999814,173347.7000000002,9054,ATS,C,18
19,test,1,A,haborder.png,1,z,Wed May 06 2026 13:56:21 GMT-0400 (Eastern Daylight Time),217015.3999999999,CFD-BF-031-020-A.jpg,1000,solid,I,z,684,4,2,43667.69999999972,173347.7000000002,9054,ATS,C,19
20,test,1,A,haborder.png,1,m,Wed May 06 2026 13:56:21 GMT-0400 (Eastern Daylight Time),219948.2000000002,CFD-BF-019-004-HC.jpg,2000,solid,I,m,911,5,2,46600.5,173347.7000000002,9054,ATS,C,20
21,test,1,A,haborder.png,1,z,Wed May 06 2026 13:56:21 GMT-0400 (Eastern Daylight Time),221814.5,CFD-BF-031-020-A.jpg,1000,solid,I,z,843,4,2,48466.799999999814,173347.7000000002,9054,ATS,C,21
22,test,1,A,haborder.png,1,m,Wed May 06 2026 13:56:21 GMT-0400 (Eastern Daylight Time),225080.3999999999,CFD-BF-019-004-HC.jpg,2000,solid,I,m,1239,5,2,51732.69999999972,173347.7000000002,9054,ATS,C,22
23,test,1,A,haborder.png,1,z,Wed May 06 2026 13:56:21 GMT-0400 (Eastern Daylight Time),226831.30000000028,CFD-WF-023-013-A.jpg,1000,solid,I,z,726,12,2,53483.60000000009,173347.7000000002,9054,ATS,C,23
24,test,1,A,haborder.png,1,z,Wed May 06 2026 13:56:21 GMT-0400 (Eastern Daylight Time),229365.2000000002,CFD-BM-043-014-A.jpg,1600,solid,I,z,904,2,2,56017.5,173347.7000000002,9054,ATS,C,24
1,test,1,B,mfborder.png,1,z,Wed May 06 2026 13:56:21 GMT-0400 (Eastern Daylight Time),250314.8999999999,CFD-WF-037-016-A.jpg,1500,dash,I,z,897,11,2,2416.7999999998137,247898.1000000001,9054,ATS,C,1
2,test,1,B,mfborder.png,1,m,Wed May 06 2026 13:56:21 GMT-0400 (Eastern Daylight Time),252297.5,CFD-WM-034-040-A.jpg,1200,dash,I,m,755,6,2,4399.399999999907,247898.1000000001,9054,ATS,C,2
3,test,1,B,mfborder.png,1,m,Wed May 06 2026 13:56:21 GMT-0400 (Eastern Daylight Time),254530.8999999999,CFD-BM-021-026-A.jpg,1600,dash,I,m,611,2,2,6632.799999999814,247898.1000000001,9054,ATS,C,3
4,test,1,B,mfborder.png,1,m,Wed May 06 2026 13:56:21 GMT-0400 (Eastern Daylight Time),256481.30000000028,CFD-WM-034-040-A.jpg,1200,dash,I,m,725,6,2,8583.200000000186,247898.1000000001,9054,ATS,C,4
5,test,1,B,mfborder.png,1,m,Wed May 06 2026 13:56:21 GMT-0400 (Eastern Daylight Time),258681.5,CFD-BM-021-026-A.jpg,1600,dash,I,m,583,2,2,10783.399999999907,247898.1000000001,9054,ATS,C,5
6,test,1,B,mfborder.png,1,z,Wed May 06 2026 13:56:21 GMT-0400 (Eastern Daylight Time),261547.7000000002,CFD-WF-001-010-HC.jpg,1900,dash,I,z,936,8,2,13649.600000000093,247898.1000000001,9054,ATS,C,6
7,test,1,B,mfborder.png,1,z,Wed May 06 2026 13:56:21 GMT-0400 (Eastern Daylight Time),263615.1000000001,CFD-BF-019-004-HC.jpg,1400,dash,I,z,644,7,2,15717.0,247898.1000000001,9054,ATS,C,7
8,test,1,B,mfborder.png,1,m,Wed May 06 2026 13:56:21 GMT-0400 (Eastern Daylight Time),265930.8999999999,CFD-WM-036-018-A.jpg,1700,dash,I,m,596,9,2,18032.799999999814,247898.1000000001,9054,ATS,C,8
9,test,1,B,mfborder.png,1,z,Wed May 06 2026 13:56:21 GMT-0400 (Eastern Daylight Time),267897.7000000002,CFD-WF-013-009-HC.jpg,1000,dash,I,z,939,12,2,19999.600000000093,247898.1000000001,9054,ATS,C,9
10,test,1,B,mfborder.png,1,z,Wed May 06 2026 13:56:21 GMT-0400 (Eastern Daylight Time),270513.8999999999,CFD-WF-001-010-HC.jpg,1900,dash,I,z,688,8,2,22615.799999999814,247898.1000000001,9054,ATS,C,10
11,test,1,B,mfborder.png,1,z,Wed May 06 2026 13:56:21 GMT-0400 (Eastern Daylight Time),272380.8999999999,CFD-WF-013-009-HC.jpg,1000,dash,I,z,835,12,2,24482.799999999814,247898.1000000001,9054,ATS,C,11
12,test,1,B,mfborder.png,1,m,Wed May 06 2026 13:56:21 GMT-0400 (Eastern Daylight Time),274781.0,CFD-WM-035-036-HC.jpg,1600,dash,I,m,777,10,2,26882.899999999907,247898.1000000001,9054,ATS,C,12
13,test,1,B,mfborder.png,1,z,Wed May 06 2026 13:56:21 GMT-0400 (Eastern Daylight Time),277048.2000000002,CFD-WF-037-016-A.jpg,1500,dash,I,z,741,11,2,29150.100000000093,247898.1000000001,9054,ATS,C,13
14,test,1,B,mfborder.png,1,m,Wed May 06 2026 13:56:21 GMT-0400 (Eastern Daylight Time),279898.8999999999,CFD-BM-043-014-A.jpg,2000,dash,I,m,831,5,2,32000.799999999814,247898.1000000001,9054,ATS,C,14
15,test,1,B,mfborder.png,1,m,Wed May 06 2026 13:56:21 GMT-0400 (Eastern Daylight Time),282381.50000000047,CFD-BM-022-004-HC.jpg,1700,dash,I,m,751,1,2,34483.40000000037,247898.1000000001,9054,ATS,C,15
16,test,1,B,mfborder.png,1,z,Wed May 06 2026 13:56:21 GMT-0400 (Eastern Daylight Time),284214.3999999999,CFD-BF-031-020-A.jpg,1000,dash,I,z,802,4,2,36316.299999999814,247898.1000000001,9054,ATS,C,16
17,test,1,B,mfborder.png,1,z,Wed May 06 2026 13:56:21 GMT-0400 (Eastern Daylight Time),286364.50000000047,CFD-BF-042-031-HC.jpg,1500,dash,I,z,628,3,2,38466.40000000037,247898.1000000001,9054,ATS,C,17
18,test,1,B,mfborder.png,1,z,Wed May 06 2026 13:56:21 GMT-0400 (Eastern Daylight Time),288447.50000000047,CFD-BF-019-004-HC.jpg,1400,dash,I,z,649,7,2,40549.40000000037,247898.1000000001,9054,ATS,C,18
19,test,1,B,mfborder.png,1,m,Wed May 06 2026 13:56:21 GMT-0400 (Eastern Daylight Time),291231.3000000003,CFD-BM-043-014-A.jpg,2000,dash,I,m,758,5,2,43333.200000000186,247898.1000000001,9054,ATS,C,19
20,test,1,B,mfborder.png,1,m,Wed May 06 2026 13:56:21 GMT-0400 (Eastern Daylight Time),293897.6999999997,CFD-BM-022-004-HC.jpg,1700,dash,I,m,939,1,2,45999.59999999963,247898.1000000001,9054,ATS,C,20
21,test,1,B,mfborder.png,1,m,Wed May 06 2026 13:56:21 GMT-0400 (Eastern Daylight Time),296248.1000000001,CFD-WM-035-036-HC.jpg,1600,dash,I,m,716,10,2,48350.0,247898.1000000001,9054,ATS,C,21
22,test,1,B,mfborder.png,1,z,Wed May 06 2026 13:56:21 GMT-0400 (Eastern Daylight Time),298881.3999999999,CFD-BF-042-031-HC.jpg,1500,dash,I,z,1107,3,2,50983.299999999814,247898.1000000001,9054,ATS,C,22
23,test,1,B,mfborder.png,1,m,Wed May 06 2026 13:56:21 GMT-0400 (Eastern Daylight Time),301214.50000000047,CFD-WM-036-018-A.jpg,1700,dash,I,m,610,9,2,53316.40000000037,247898.1000000001,9054,ATS,C,23
24,test,1,B,mfborder.png,1,z,Wed May 06 2026 13:56:21 GMT-0400 (Eastern Daylight Time),303182.3999999999,CFD-BF-031-020-A.jpg,1000,dash,I,z,935,4,2,55284.299999999814,247898.1000000001,9054,ATS,C,24
1,prac,1,C,haborder.png,1,z,Wed May 06 2026 13:56:21 GMT-0400 (Eastern Daylight Time),345764.1000000001,CFD-WF-037-016-A.jpg,1600,dash,I,z,884,4,2,3283.0999999996275,342481.00000000047,9054,ATS,C,1
2,prac,1,C,mfborder.png,1,z,Wed May 06 2026 13:56:21 GMT-0400 (Eastern Daylight Time),349015.00000000047,CFD-WF-013-009-HC.jpg,1600,dash,I,z,858,4,2,6534.0,342481.00000000047,9054,ATS,C,2
3,prac,1,C,haborder.png,1,m,Wed May 06 2026 13:56:21 GMT-0400 (Eastern Daylight Time),351865.8000000003,CFD-WM-028-005-HC.jpg,1400,solid,I,m,656,4,2,9384.799999999814,342481.00000000047,9054,ATS,C,3
4,prac,1,C,mfborder.png,1,z,Wed May 06 2026 13:56:21 GMT-0400 (Eastern Daylight Time),355632.6999999997,CFD-WF-023-013-A.jpg,1500,solid,I,z,1491,4,2,13151.699999999255,342481.00000000047,9054,ATS,C,4
5,prac,1,C,mfborder.png,1,z,Wed May 06 2026 13:56:21 GMT-0400 (Eastern Daylight Time),358082.1000000001,CFD-BF-019-004-HC.jpg,1000,dash,I,z,665,4,2,15601.099999999627,342481.00000000047,9054,ATS,C,5
6,prac,1,C,haborder.png,1,z,Wed May 06 2026 13:56:21 GMT-0400 (Eastern Daylight Time),362265.1000000001,CFD-BF-031-020-A.jpg,1900,dash,I,z,1489,4,2,19784.099999999627,342481.00000000047,9054,ATS,C,6
7,prac,1,C,mfborder.png,1,m,Wed May 06 2026 13:56:21 GMT-0400 (Eastern Daylight Time),365431.3000000003,CFD-WM-036-018-A.jpg,1700,solid,I,m,682,4,2,22950.299999999814,342481.00000000047,9054,ATS,C,7
8,prac,1,C,haborder.png,1,z,Wed May 06 2026 13:56:21 GMT-0400 (Eastern Daylight Time),369014.1000000001,CFD-BF-002-018-A.jpg,1700,solid,I,z,1092,4,2,26533.099999999627,342481.00000000047,9054,ATS,C,8
9,prac,1,C,mfborder.png,1,m,Wed May 06 2026 13:56:21 GMT-0400 (Eastern Daylight Time),372715.1000000001,CFD-BM-034-035-HC.jpg,2000,solid,I,m,903,4,2,30234.099999999627,342481.00000000047,9054,ATS,C,9
10,prac,1,C,haborder.png,1,m,Wed May 06 2026 13:56:21 GMT-0400 (Eastern Daylight Time),376248.1999999997,CFD-BM-022-004-HC.jpg,1500,solid,I,m,1247,4,2,33767.199999999255,342481.00000000047,9054,ATS,C,10
11,prac,1,C,haborder.png,1,m,Wed May 06 2026 13:56:21 GMT-0400 (Eastern Daylight Time),378881.3000000003,CFD-WM-028-005-HC.jpg,1000,dash,I,m,845,4,2,36400.299999999814,342481.00000000047,9054,ATS,C,11
12,prac,1,C,mfborder.png,1,m,Wed May 06 2026 13:56:21 GMT-0400 (Eastern Daylight Time),382064.8999999999,CFD-BM-043-014-A.jpg,1200,dash,I,m,1198,4,2,39583.89999999944,342481.00000000047,9054,ATS,C,12
0,test,1,C,haborder.png,0,m,Wed May 06 2026 13:56:21 GMT-0400 (Eastern Daylight Time),403381.1000000001,CFD-BF-019-004-HC.jpg,1600,solid,I,z,1102,10,2,2733.2000000001863,400647.8999999999,9054,ATS,C,1
1,test,1,C,mfborder.png,1,m,Wed May 06 2026 13:56:21 GMT-0400 (Eastern Daylight Time),405681.1999999997,CFD-WM-035-036-HC.jpg,1000,dash,I,m,1283,4,2,5033.299999999814,400647.8999999999,9054,ATS,C,2
1,test,1,C,haborder.png,0,z,Wed May 06 2026 13:56:21 GMT-0400 (Eastern Daylight Time),408914.8000000003,CFD-BM-021-026-A.jpg,1700,solid,I,None,1515,9,2,8266.900000000373,400647.8999999999,9054,ATS,C,3
2,test,1,C,mfborder.png,1,z,Wed May 06 2026 13:56:21 GMT-0400 (Eastern Daylight Time),411565.3000000003,CFD-BF-031-020-A.jpg,1600,dash,I,z,1021,2,2,10917.400000000373,400647.8999999999,9054,ATS,C,4
3,test,1,C,mfborder.png,1,z,Wed May 06 2026 13:56:21 GMT-0400 (Eastern Daylight Time),413814.00000000047,CFD-WF-037-016-A.jpg,1500,dash,I,z,726,3,2,13166.100000000559,400647.8999999999,9054,ATS,C,5
3,test,1,C,haborder.png,0,z,Wed May 06 2026 13:56:21 GMT-0400 (Eastern Daylight Time),416697.3999999999,CFD-WM-036-018-A.jpg,1400,solid,I,m,1456,7,2,16049.5,400647.8999999999,9054,ATS,C,6
4,test,1,C,haborder.png,1,z,Wed May 06 2026 13:56:21 GMT-0400 (Eastern Daylight Time),419897.1000000001,CFD-BM-043-014-A.jpg,1900,solid,I,z,1282,8,2,19249.200000000186,400647.8999999999,9054,ATS,C,7
4,test,1,C,haborder.png,0,m,Wed May 06 2026 13:56:21 GMT-0400 (Eastern Daylight Time),422614.6000000001,CFD-WF-001-010-HC.jpg,1500,solid,I,z,1193,11,2,21966.700000000186,400647.8999999999,9054,ATS,C,8
5,test,1,C,mfborder.png,1,z,Wed May 06 2026 13:56:21 GMT-0400 (Eastern Daylight Time),425366.00000000047,CFD-WF-037-016-A.jpg,1500,dash,I,z,1219,3,2,24718.10000000056,400647.8999999999,9054,ATS,C,9
6,test,1,C,haborder.png,1,m,Wed May 06 2026 13:56:21 GMT-0400 (Eastern Daylight Time),428164.6000000001,CFD-BF-019-004-HC.jpg,1600,solid,I,m,1170,10,2,27516.700000000186,400647.8999999999,9054,ATS,C,10
7,test,1,C,haborder.png,1,m,Wed May 06 2026 13:56:21 GMT-0400 (Eastern Daylight Time),429932.1000000001,CFD-WF-013-009-HC.jpg,1000,solid,I,m,737,12,2,29284.200000000186,400647.8999999999,9054,ATS,C,11
8,test,1,C,mfborder.png,1,m,Wed May 06 2026 13:56:21 GMT-0400 (Eastern Daylight Time),432681.1000000001,CFD-WM-034-040-A.jpg,2000,dash,I,m,721,5,2,32033.200000000186,400647.8999999999,9054,ATS,C,12
9,test,1,C,mfborder.png,1,z,Wed May 06 2026 13:56:21 GMT-0400 (Eastern Daylight Time),435148.1999999997,CFD-BF-042-031-HC.jpg,1700,dash,I,z,747,1,2,34500.299999999814,400647.8999999999,9054,ATS,C,13
10,test,1,C,mfborder.png,1,m,Wed May 06 2026 13:56:21 GMT-0400 (Eastern Daylight Time),437831.1999999997,CFD-WM-034-040-A.jpg,2000,dash,I,m,659,5,2,37183.299999999814,400647.8999999999,9054,ATS,C,14
11,test,1,C,haborder.png,1,m,Wed May 06 2026 13:56:21 GMT-0400 (Eastern Daylight Time),440081.50000000047,CFD-WF-013-009-HC.jpg,1000,solid,I,m,1231,12,2,39433.60000000056,400647.8999999999,9054,ATS,C,15
12,test,1,C,haborder.png,1,z,Wed May 06 2026 13:56:21 GMT-0400 (Eastern Daylight Time),442581.00000000047,CFD-WM-036-018-A.jpg,1400,solid,I,z,1068,7,2,41933.10000000056,400647.8999999999,9054,ATS,C,16
12,test,1,C,mfborder.png,0,m,Wed May 06 2026 13:56:21 GMT-0400 (Eastern Daylight Time),445316.00000000047,CFD-BM-022-004-HC.jpg,1200,dash,I,None,1517,6,2,44668.10000000056,400647.8999999999,9054,ATS,C,17
13,test,1,C,mfborder.png,1,z,Wed May 06 2026 13:56:21 GMT-0400 (Eastern Daylight Time),447880.1999999997,CFD-BF-031-020-A.jpg,1600,dash,I,z,938,2,2,47232.299999999814,400647.8999999999,9054,ATS,C,18
14,test,1,C,haborder.png,1,z,Wed May 06 2026 13:56:21 GMT-0400 (Eastern Daylight Time),450898.8000000003,CFD-BM-021-026-A.jpg,1700,solid,I,z,1289,9,2,50250.90000000037,400647.8999999999,9054,ATS,C,19
15,test,1,C,mfborder.png,1,m,Wed May 06 2026 13:56:21 GMT-0400 (Eastern Daylight Time),452831.1999999997,CFD-WM-035-036-HC.jpg,1000,dash,I,m,908,4,2,52183.299999999814,400647.8999999999,9054,ATS,C,20
16,test,1,C,mfborder.png,1,z,Wed May 06 2026 13:56:21 GMT-0400 (Eastern Daylight Time),455431.00000000047,CFD-BF-042-031-HC.jpg,1700,dash,I,z,868,1,2,54783.10000000056,400647.8999999999,9054,ATS,C,21
16,test,1,C,haborder.png,0,m,Wed May 06 2026 13:56:21 GMT-0400 (Eastern Daylight Time),458032.3999999999,CFD-WF-001-010-HC.jpg,1500,solid,I,z,1068,11,2,57384.5,400647.8999999999,9054,ATS,C,22
16,test,1,C,haborder.png,0,z,Wed May 06 2026 13:56:21 GMT-0400 (Eastern Daylight Time),461464.3999999999,CFD-BM-043-014-A.jpg,1900,solid,I,None,1516,8,2,60816.5,400647.8999999999,9054,ATS,C,23
17,test,1,C,mfborder.png,1,m,Wed May 06 2026 13:56:21 GMT-0400 (Eastern Daylight Time),463764.3999999999,CFD-BM-022-004-HC.jpg,1200,dash,I,m,1068,6,2,63116.5,400647.8999999999,9054,ATS,C,24
1,test,2,C,mfborder.png,1,m,Wed May 06 2026 13:56:21 GMT-0400 (Eastern Daylight Time),470131.1999999997,CFD-BM-043-014-A.jpg,2000,dash,I,m,913,5,2,2933.5999999996275,467197.6000000001,9054,ATS,C,1
2,test,2,C,mfborder.png,1,m,Wed May 06 2026 13:56:21 GMT-0400 (Eastern Daylight Time),471931.50000000047,CFD-BM-034-035-HC.jpg,1000,dash,I,m,779,4,2,4733.9000000003725,467197.6000000001,9054,ATS,C,2
3,test,2,C,mfborder.png,1,z,Wed May 06 2026 13:56:21 GMT-0400 (Eastern Daylight Time),474198.00000000047,CFD-BF-019-004-HC.jpg,1500,dash,I,z,734,3,2,7000.4000000003725,467197.6000000001,9054,ATS,C,3
4,test,2,C,mfborder.png,1,z,Wed May 06 2026 13:56:21 GMT-0400 (Eastern Daylight Time),476431.1999999997,CFD-BF-019-004-HC.jpg,1500,dash,I,z,700,3,2,9233.599999999627,467197.6000000001,9054,ATS,C,4
5,test,2,C,haborder.png,1,z,Wed May 06 2026 13:56:21 GMT-0400 (Eastern Daylight Time),479048.3999999999,CFD-BF-031-020-A.jpg,1400,solid,I,z,1191,7,2,11850.799999999814,467197.6000000001,9054,ATS,C,5
6,test,2,C,mfborder.png,1,m,Wed May 06 2026 13:56:21 GMT-0400 (Eastern Daylight Time),481214.8999999999,CFD-WM-036-018-A.jpg,1200,dash,I,m,942,6,2,14017.299999999814,467197.6000000001,9054,ATS,C,6
7,test,2,C,haborder.png,1,m,Wed May 06 2026 13:56:21 GMT-0400 (Eastern Daylight Time),484081.1999999997,CFD-WM-028-005-HC.jpg,1500,solid,I,m,1332,11,2,16883.599999999627,467197.6000000001,9054,ATS,C,7
8,test,2,C,haborder.png,1,m,Wed May 06 2026 13:56:21 GMT-0400 (Eastern Daylight Time),486765.00000000047,CFD-BM-022-004-HC.jpg,1600,solid,I,m,1053,10,2,19567.400000000373,467197.6000000001,9054,ATS,C,8
9,test,2,C,haborder.png,1,z,Wed May 06 2026 13:56:21 GMT-0400 (Eastern Daylight Time),489713.6999999997,CFD-BF-002-018-A.jpg,1900,solid,I,z,1022,8,2,22516.099999999627,467197.6000000001,9054,ATS,C,9
10,test,2,C,mfborder.png,1,m,Wed May 06 2026 13:56:21 GMT-0400 (Eastern Daylight Time),492914.8000000003,CFD-BM-043-014-A.jpg,2000,dash,I,m,1173,5,2,25717.200000000186,467197.6000000001,9054,ATS,C,10
11,test,2,C,mfborder.png,1,z,Wed May 06 2026 13:56:21 GMT-0400 (Eastern Daylight Time),495332.50000000047,CFD-WF-023-013-A.jpg,1600,dash,I,z,795,2,2,28134.900000000373,467197.6000000001,9054,ATS,C,11
12,test,2,C,haborder.png,1,z,Wed May 06 2026 13:56:21 GMT-0400 (Eastern Daylight Time),498248.6999999997,CFD-WF-037-016-A.jpg,1700,solid,I,z,1200,9,2,31051.099999999627,467197.6000000001,9054,ATS,C,12
13,test,2,C,mfborder.png,1,z,Wed May 06 2026 13:56:21 GMT-0400 (Eastern Daylight Time),500631.3999999999,CFD-WF-023-013-A.jpg,1600,dash,I,z,751,2,2,33433.799999999814,467197.6000000001,9054,ATS,C,13
14,test,2,C,haborder.png,1,z,Wed May 06 2026 13:56:21 GMT-0400 (Eastern Daylight Time),503631.1999999997,CFD-BF-002-018-A.jpg,1900,solid,I,z,1076,8,2,36433.59999999963,467197.6000000001,9054,ATS,C,14
15,test,2,C,mfborder.png,1,m,Wed May 06 2026 13:56:21 GMT-0400 (Eastern Daylight Time),505414.6000000001,CFD-BM-034-035-HC.jpg,1000,dash,I,m,759,4,2,38217.0,467197.6000000001,9054,ATS,C,15
16,test,2,C,haborder.png,1,z,Wed May 06 2026 13:56:21 GMT-0400 (Eastern Daylight Time),507849.1000000001,CFD-BF-031-020-A.jpg,1400,solid,I,z,1015,7,2,40651.5,467197.6000000001,9054,ATS,C,16
17,test,2,C,haborder.png,1,m,Wed May 06 2026 13:56:21 GMT-0400 (Eastern Daylight Time),509665.1000000001,CFD-WM-028-005-HC.jpg,1000,solid,I,m,799,12,2,42467.5,467197.6000000001,9054,ATS,C,17
18,test,2,C,mfborder.png,1,z,Wed May 06 2026 13:56:21 GMT-0400 (Eastern Daylight Time),512547.8999999999,CFD-WF-013-009-HC.jpg,1700,dash,I,z,1161,1,2,45350.299999999814,467197.6000000001,9054,ATS,C,18
19,test,2,C,haborder.png,1,z,Wed May 06 2026 13:56:21 GMT-0400 (Eastern Daylight Time),515497.50000000047,CFD-WF-037-016-A.jpg,1700,solid,I,z,1230,9,2,48299.90000000037,467197.6000000001,9054,ATS,C,19
20,test,2,C,mfborder.png,1,z,Wed May 06 2026 13:56:21 GMT-0400 (Eastern Daylight Time),517997.3999999999,CFD-WF-013-009-HC.jpg,1700,dash,I,z,775,1,2,50799.799999999814,467197.6000000001,9054,ATS,C,20
21,test,2,C,haborder.png,1,m,Wed May 06 2026 13:56:21 GMT-0400 (Eastern Daylight Time),520315.6000000001,CFD-WM-028-005-HC.jpg,1500,solid,I,m,798,11,2,53118.0,467197.6000000001,9054,ATS,C,21
22,test,2,C,mfborder.png,1,m,Wed May 06 2026 13:56:21 GMT-0400 (Eastern Daylight Time),522563.8999999999,CFD-WM-036-018-A.jpg,1200,dash,I,m,1025,6,2,55366.299999999814,467197.6000000001,9054,ATS,C,22
23,test,2,C,haborder.png,1,m,Wed May 06 2026 13:56:21 GMT-0400 (Eastern Daylight Time),524447.8999999999,CFD-WM-028-005-HC.jpg,1000,solid,I,m,849,12,2,57250.299999999814,467197.6000000001,9054,ATS,C,23
24,test,2,C,haborder.png,1,m,Wed May 06 2026 13:56:21 GMT-0400 (Eastern Daylight Time),527098.0000000005,CFD-BM-022-004-HC.jpg,1600,solid,I,m,1022,10,2,59900.40000000037,467197.6000000001,9054,ATS,C,24
1,test,3,C,mfborder.png,1,z,Wed May 06 2026 13:56:21 GMT-0400 (Eastern Daylight Time),531031.3999999999,CFD-WF-037-016-A.jpg,1500,dash,I,z,584,3,2,2115.5,528915.8999999999,9054,ATS,C,1
1,test,3,C,haborder.png,0,m,Wed May 06 2026 13:56:21 GMT-0400 (Eastern Daylight Time),533647.6999999997,CFD-BF-019-004-HC.jpg,1600,solid,I,z,984,10,2,4731.799999999814,528915.8999999999,9054,ATS,C,2
2,test,3,C,mfborder.png,1,m,Wed May 06 2026 13:56:21 GMT-0400 (Eastern Daylight Time),535514.1000000001,CFD-WM-035-036-HC.jpg,1000,dash,I,m,845,4,2,6598.200000000186,528915.8999999999,9054,ATS,C,3
3,test,3,C,mfborder.png,1,m,Wed May 06 2026 13:56:21 GMT-0400 (Eastern Daylight Time),538315.6999999997,CFD-WM-034-040-A.jpg,2000,dash,I,m,781,5,2,9399.799999999814,528915.8999999999,9054,ATS,C,4
4,test,3,C,mfborder.png,1,z,Wed May 06 2026 13:56:21 GMT-0400 (Eastern Daylight Time),540998.1999999997,CFD-WF-037-016-A.jpg,1500,dash,I,z,1159,3,2,12082.299999999814,528915.8999999999,9054,ATS,C,5
5,test,3,C,haborder.png,1,z,Wed May 06 2026 13:56:21 GMT-0400 (Eastern Daylight Time),544214.6999999997,CFD-BM-043-014-A.jpg,1900,solid,I,z,1293,8,2,15298.799999999814,528915.8999999999,9054,ATS,C,6
6,test,3,C,mfborder.png,1,m,Wed May 06 2026 13:56:21 GMT-0400 (Eastern Daylight Time),546131.0000000005,CFD-BM-022-004-HC.jpg,1200,dash,I,m,689,6,2,17215.10000000056,528915.8999999999,9054,ATS,C,7
6,test,3,C,haborder.png,0,m,Wed May 06 2026 13:56:21 GMT-0400 (Eastern Daylight Time),548832.6000000001,CFD-WF-001-010-HC.jpg,1500,solid,I,z,1183,11,2,19916.700000000186,528915.8999999999,9054,ATS,C,8
7,test,3,C,haborder.png,1,z,Wed May 06 2026 13:56:21 GMT-0400 (Eastern Daylight Time),551631.3999999999,CFD-BM-021-026-A.jpg,1700,solid,I,z,1077,9,2,22715.5,528915.8999999999,9054,ATS,C,9
8,test,3,C,haborder.png,1,m,Wed May 06 2026 13:56:21 GMT-0400 (Eastern Daylight Time),553915.8000000003,CFD-WF-013-009-HC.jpg,1000,solid,I,m,1263,12,2,24999.900000000373,528915.8999999999,9054,ATS,C,10
9,test,3,C,haborder.png,1,m,Wed May 06 2026 13:56:21 GMT-0400 (Eastern Daylight Time),556447.6999999997,CFD-BF-019-004-HC.jpg,1600,solid,I,m,900,10,2,27531.799999999814,528915.8999999999,9054,ATS,C,11
10,test,3,C,mfborder.png,1,m,Wed May 06 2026 13:56:21 GMT-0400 (Eastern Daylight Time),558448.0000000005,CFD-BM-022-004-HC.jpg,1200,dash,I,m,775,6,2,29532.10000000056,528915.8999999999,9054,ATS,C,12
11,test,3,C,haborder.png,1,z,Wed May 06 2026 13:56:21 GMT-0400 (Eastern Daylight Time),561097.3999999999,CFD-BM-021-026-A.jpg,1700,solid,I,z,929,9,2,32181.5,528915.8999999999,9054,ATS,C,13
12,test,3,C,haborder.png,1,z,Wed May 06 2026 13:56:21 GMT-0400 (Eastern Daylight Time),563531.3000000003,CFD-WM-036-018-A.jpg,1400,solid,I,z,1004,7,2,34615.40000000037,528915.8999999999,9054,ATS,C,14
13,test,3,C,haborder.png,1,z,Wed May 06 2026 13:56:21 GMT-0400 (Eastern Daylight Time),566448.1000000001,CFD-BM-043-014-A.jpg,1900,solid,I,z,983,8,2,37532.200000000186,528915.8999999999,9054,ATS,C,15
14,test,3,C,mfborder.png,1,z,Wed May 06 2026 13:56:21 GMT-0400 (Eastern Daylight Time),569099.1000000001,CFD-BF-042-031-HC.jpg,1700,dash,I,z,923,1,2,40183.200000000186,528915.8999999999,9054,ATS,C,16
15,test,3,C,mfborder.png,1,m,Wed May 06 2026 13:56:21 GMT-0400 (Eastern Daylight Time),571831.5000000005,CFD-WM-034-040-A.jpg,2000,dash,I,m,711,5,2,42915.60000000056,528915.8999999999,9054,ATS,C,17
16,test,3,C,mfborder.png,1,z,Wed May 06 2026 13:56:21 GMT-0400 (Eastern Daylight Time),574398.3000000003,CFD-BF-031-020-A.jpg,1600,dash,I,z,942,2,2,45482.40000000037,528915.8999999999,9054,ATS,C,18
17,test,3,C,mfborder.png,1,m,Wed May 06 2026 13:56:21 GMT-0400 (Eastern Daylight Time),576365.6999999997,CFD-WM-035-036-HC.jpg,1000,dash,I,m,941,4,2,47449.799999999814,528915.8999999999,9054,ATS,C,19
18,test,3,C,mfborder.png,1,z,Wed May 06 2026 13:56:21 GMT-0400 (Eastern Daylight Time),579031.3999999999,CFD-BF-042-031-HC.jpg,1700,dash,I,z,934,1,2,50115.5,528915.8999999999,9054,ATS,C,20
18,test,3,C,haborder.png,0,m,Wed May 06 2026 13:56:21 GMT-0400 (Eastern Daylight Time),581364.6999999997,CFD-WF-013-009-HC.jpg,1000,solid,I,z,1311,12,2,52448.799999999814,528915.8999999999,9054,ATS,C,21
18,test,3,C,mfborder.png,0,z,Wed May 06 2026 13:56:21 GMT-0400 (Eastern Daylight Time),584498.6000000001,CFD-BF-031-020-A.jpg,1600,dash,I,None,1516,2,2,55582.700000000186,528915.8999999999,9054,ATS,C,22
19,test,3,C,haborder.png,1,m,Wed May 06 2026 13:56:21 GMT-0400 (Eastern Daylight Time),587015.1000000001,CFD-WF-001-010-HC.jpg,1500,solid,I,m,984,11,2,58099.200000000186,528915.8999999999,9054,ATS,C,23
20,test,3,C,haborder.png,1,z,Wed May 06 2026 13:56:21 GMT-0400 (Eastern Daylight Time),589547.1000000001,CFD-WM-036-018-A.jpg,1400,solid,I,z,1110,7,2,60631.200000000186,528915.8999999999,9054,ATS,C,24
1,test,4,C,haborder.png,1,z,Wed May 06 2026 13:56:21 GMT-0400 (Eastern Daylight Time),593664.3000000003,CFD-BF-002-018-A.jpg,1900,solid,I,z,857,8,2,2783.9000000003725,590880.3999999999,9054,ATS,C,1
2,test,4,C,haborder.png,1,z,Wed May 06 2026 13:56:21 GMT-0400 (Eastern Daylight Time),596414.6999999997,CFD-BF-002-018-A.jpg,1900,solid,I,z,818,8,2,5534.299999999814,590880.3999999999,9054,ATS,C,2
3,test,4,C,mfborder.png,1,m,Wed May 06 2026 13:56:21 GMT-0400 (Eastern Daylight Time),599214.6999999997,CFD-BM-043-014-A.jpg,2000,dash,I,m,776,5,2,8334.299999999814,590880.3999999999,9054,ATS,C,3
4,test,4,C,mfborder.png,1,m,Wed May 06 2026 13:56:21 GMT-0400 (Eastern Daylight Time),600897.8000000003,CFD-BM-034-035-HC.jpg,1000,dash,I,m,655,4,2,10017.400000000373,590880.3999999999,9054,ATS,C,4
5,test,4,C,mfborder.png,1,z,Wed May 06 2026 13:56:21 GMT-0400 (Eastern Daylight Time),603281.3999999999,CFD-WF-023-013-A.jpg,1600,dash,I,z,758,2,2,12401.0,590880.3999999999,9054,ATS,C,5
6,test,4,C,mfborder.png,1,z,Wed May 06 2026 13:56:21 GMT-0400 (Eastern Daylight Time),605731.0000000005,CFD-WF-013-009-HC.jpg,1700,dash,I,z,728,1,2,14850.600000000559,590880.3999999999,9054,ATS,C,6
7,test,4,C,mfborder.png,1,m,Wed May 06 2026 13:56:21 GMT-0400 (Eastern Daylight Time),607632.8000000003,CFD-BM-034-035-HC.jpg,1000,dash,I,m,876,4,2,16752.400000000373,590880.3999999999,9054,ATS,C,7
8,test,4,C,haborder.png,1,m,Wed May 06 2026 13:56:21 GMT-0400 (Eastern Daylight Time),609499.5000000005,CFD-WM-028-005-HC.jpg,1000,solid,I,m,841,12,2,18619.10000000056,590880.3999999999,9054,ATS,C,8
9,test,4,C,haborder.png,1,m,Wed May 06 2026 13:56:21 GMT-0400 (Eastern Daylight Time),611731.5000000005,CFD-WM-028-005-HC.jpg,1500,solid,I,m,712,11,2,20851.10000000056,590880.3999999999,9054,ATS,C,9
9,test,4,C,haborder.png,0,z,Wed May 06 2026 13:56:21 GMT-0400 (Eastern Daylight Time),614265.3000000003,CFD-WF-037-016-A.jpg,1700,solid,I,m,814,9,2,23384.900000000373,590880.3999999999,9054,ATS,C,10
10,test,4,C,haborder.png,1,m,Wed May 06 2026 13:56:21 GMT-0400 (Eastern Daylight Time),615998.1999999997,CFD-WM-028-005-HC.jpg,1000,solid,I,m,701,12,2,25117.799999999814,590880.3999999999,9054,ATS,C,11
11,test,4,C,mfborder.png,1,m,Wed May 06 2026 13:56:21 GMT-0400 (Eastern Daylight Time),618415.8999999999,CFD-WM-036-018-A.jpg,1200,dash,I,m,1184,6,2,27535.5,590880.3999999999,9054,ATS,C,12
12,test,4,C,mfborder.png,1,z,Wed May 06 2026 13:56:21 GMT-0400 (Eastern Daylight Time),621115.8999999999,CFD-BF-019-004-HC.jpg,1500,dash,I,z,1180,3,2,30235.5,590880.3999999999,9054,ATS,C,13
13,test,4,C,mfborder.png,1,m,Wed May 06 2026 13:56:21 GMT-0400 (Eastern Daylight Time),623381.1999999997,CFD-WM-036-018-A.jpg,1200,dash,I,m,1044,6,2,32500.799999999814,590880.3999999999,9054,ATS,C,14
14,test,4,C,haborder.png,1,m,Wed May 06 2026 13:56:21 GMT-0400 (Eastern Daylight Time),626364.5000000005,CFD-BM-022-004-HC.jpg,1600,solid,I,m,1353,10,2,35484.10000000056,590880.3999999999,9054,ATS,C,15
15,test,4,C,mfborder.png,1,z,Wed May 06 2026 13:56:21 GMT-0400 (Eastern Daylight Time),629183.3000000003,CFD-WF-013-009-HC.jpg,1700,dash,I,z,1093,1,2,38302.90000000037,590880.3999999999,9054,ATS,C,16
16,test,4,C,mfborder.png,1,z,Wed May 06 2026 13:56:21 GMT-0400 (Eastern Daylight Time),631597.8000000003,CFD-WF-023-013-A.jpg,1600,dash,I,z,794,2,2,40717.40000000037,590880.3999999999,9054,ATS,C,17
17,test,4,C,haborder.png,1,z,Wed May 06 2026 13:56:21 GMT-0400 (Eastern Daylight Time),634330.6000000001,CFD-WF-037-016-A.jpg,1700,solid,I,z,1010,9,2,43450.200000000186,590880.3999999999,9054,ATS,C,18
18,test,4,C,haborder.png,1,m,Wed May 06 2026 13:56:21 GMT-0400 (Eastern Daylight Time),636532.6999999997,CFD-WM-028-005-HC.jpg,1500,solid,I,m,680,11,2,45652.299999999814,590880.3999999999,9054,ATS,C,19
19,test,4,C,haborder.png,1,m,Wed May 06 2026 13:56:21 GMT-0400 (Eastern Daylight Time),638781.3000000003,CFD-BM-022-004-HC.jpg,1600,solid,I,m,627,10,2,47900.90000000037,590880.3999999999,9054,ATS,C,20
19,test,4,C,mfborder.png,0,m,Wed May 06 2026 13:56:21 GMT-0400 (Eastern Daylight Time),641581.6999999997,CFD-BM-043-014-A.jpg,2000,dash,I,z,770,5,2,50701.299999999814,590880.3999999999,9054,ATS,C,21
20,test,4,C,haborder.png,1,z,Wed May 06 2026 13:56:21 GMT-0400 (Eastern Daylight Time),644398.5000000005,CFD-BF-031-020-A.jpg,1400,solid,I,z,1393,7,2,53518.10000000056,590880.3999999999,9054,ATS,C,22
21,test,4,C,mfborder.png,1,z,Wed May 06 2026 13:56:21 GMT-0400 (Eastern Daylight Time),646847.6000000001,CFD-BF-019-004-HC.jpg,1500,dash,I,z,923,3,2,55967.200000000186,590880.3999999999,9054,ATS,C,23
22,test,4,C,haborder.png,1,z,Wed May 06 2026 13:56:21 GMT-0400 (Eastern Daylight Time),649147.8000000003,CFD-BF-031-020-A.jpg,1400,solid,I,z,869,7,2,58267.40000000037,590880.3999999999,9054,ATS,C,24
