Number,acc_sum,block,block_c,block_cond,con_img,correct,correct_response,datetime,endtime,jitter,project,response,response_time,row_sel,session_number,start_end,starttime,subject_id,task,task_vers,trial
1,1,prac,1,A,circle.png,1,z,Mon Dec 08 2025 08:20:27 GMT-0600 (Central Standard Time),52663.200000047684,1000,I,z,1108,1,2,2893.899999976158,49769.300000071526,8064,NTS,B,1
3,2,prac,1,A,circle.png,1,z,Mon Dec 08 2025 08:20:27 GMT-0600 (Central Standard Time),55295.700000047684,1200,I,z,641,3,2,2624.100000023842,52671.60000002384,8064,NTS,B,2
4,3,prac,1,A,circle.png,1,z,Mon Dec 08 2025 08:20:27 GMT-0600 (Central Standard Time),58144.800000071526,1400,I,z,649,4,2,2844.0,55300.800000071526,8064,NTS,B,3
9,4,prac,1,A,circle.png,1,m,Mon Dec 08 2025 08:20:27 GMT-0600 (Central Standard Time),61077.200000047684,1500,I,m,645,8,2,2927.0,58150.200000047684,8064,NTS,B,4
4,5,prac,1,A,circle.png,1,z,Mon Dec 08 2025 08:20:27 GMT-0600 (Central Standard Time),64026.300000071526,1400,I,z,755,4,2,2942.0,61084.300000071526,8064,NTS,B,5
1,6,prac,1,A,circle.png,1,z,Mon Dec 08 2025 08:20:27 GMT-0600 (Central Standard Time),66492.10000002384,1000,I,z,679,1,2,2460.100000023842,64032.0,8064,NTS,B,6
2,7,prac,1,A,circle.png,1,z,Mon Dec 08 2025 08:20:27 GMT-0600 (Central Standard Time),69907.80000007153,2000,I,z,630,2,2,3410.2000000476837,66497.60000002384,8064,NTS,B,7
7,8,prac,1,A,circle.png,1,m,Mon Dec 08 2025 08:20:27 GMT-0600 (Central Standard Time),73023.10000002384,1700,I,m,616,6,2,3110.100000023842,69913.0,8064,NTS,B,8
2,9,prac,1,A,circle.png,1,z,Mon Dec 08 2025 08:20:27 GMT-0600 (Central Standard Time),76455.70000004768,2000,I,z,633,2,2,3427.5,73028.20000004768,8064,NTS,B,9
6,10,prac,1,A,circle.png,1,m,Mon Dec 08 2025 08:20:27 GMT-0600 (Central Standard Time),79871.0,1900,I,m,726,5,2,3409.7999999523163,76461.20000004768,8064,NTS,B,10
6,11,prac,1,A,circle.png,1,m,Mon Dec 08 2025 08:20:27 GMT-0600 (Central Standard Time),83220.20000004768,1900,I,m,653,5,2,3344.2000000476837,79876.0,8064,NTS,B,11
8,12,prac,1,A,circle.png,1,m,Mon Dec 08 2025 08:20:27 GMT-0600 (Central Standard Time),86236.20000004768,1600,I,m,629,7,2,3010.5,83225.70000004768,8064,NTS,B,12
3,1,prac,1,B,triangle.png,1,z,Mon Dec 08 2025 08:20:27 GMT-0600 (Central Standard Time),117575.70000004768,1600,I,z,832,3,2,3211.0,114364.70000004768,8064,NTS,B,1
8,2,prac,1,B,triangle.png,1,m,Mon Dec 08 2025 08:20:27 GMT-0600 (Central Standard Time),120241.89999997616,1200,I,m,672,7,2,2659.5999999046326,117582.30000007153,8064,NTS,B,2
2,3,prac,1,B,triangle.png,1,m,Mon Dec 08 2025 08:20:27 GMT-0600 (Central Standard Time),123890.80000007153,1700,I,m,1094,2,2,3643.600000023842,120247.20000004768,8064,NTS,B,3
1,4,prac,1,B,triangle.png,1,z,Mon Dec 08 2025 08:20:27 GMT-0600 (Central Standard Time),127556.5,1900,I,z,969,1,2,3659.600000023842,123896.89999997616,8064,NTS,B,4
1,5,prac,1,B,triangle.png,1,z,Mon Dec 08 2025 08:20:27 GMT-0600 (Central Standard Time),131005.10000002384,1900,I,z,752,1,2,3443.600000023842,127561.5,8064,NTS,B,5
6,6,prac,1,B,triangle.png,1,m,Mon Dec 08 2025 08:20:27 GMT-0600 (Central Standard Time),133404.39999997616,1000,I,m,612,5,2,2393.399999976158,131011.0,8064,NTS,B,6
2,7,prac,1,B,triangle.png,1,m,Mon Dec 08 2025 08:20:27 GMT-0600 (Central Standard Time),137070.20000004768,1700,I,m,1177,2,2,3660.8000000715256,133409.39999997616,8064,NTS,B,7
9,8,prac,1,B,triangle.png,1,z,Mon Dec 08 2025 08:20:27 GMT-0600 (Central Standard Time),140352.20000004768,1400,I,z,1083,8,2,3277.0,137075.20000004768,8064,NTS,B,8
3,9,prac,1,B,triangle.png,1,z,Mon Dec 08 2025 08:20:27 GMT-0600 (Central Standard Time),143501.30000007153,1600,I,z,752,3,2,3144.0,140357.30000007153,8064,NTS,B,9
4,10,prac,1,B,triangle.png,1,m,Mon Dec 08 2025 08:20:27 GMT-0600 (Central Standard Time),146833.70000004768,1500,I,m,1048,4,2,3327.2000000476837,143506.5,8064,NTS,B,10
7,11,prac,1,B,triangle.png,1,z,Mon Dec 08 2025 08:20:27 GMT-0600 (Central Standard Time),150465.89999997616,2000,I,z,847,6,2,3627.0999999046326,146838.80000007153,8064,NTS,B,11
6,12,prac,1,B,triangle.png,1,m,Mon Dec 08 2025 08:20:27 GMT-0600 (Central Standard Time),152914.80000007153,1000,I,m,663,5,2,2444.0,150470.80000007153,8064,NTS,B,12
4,1,test,1,A,circle.png,1,z,Mon Dec 08 2025 08:20:27 GMT-0600 (Central Standard Time),169643.20000004768,1400,I,z,1290,4,2,2711.5,166931.70000004768,8064,NTS,B,1
6,2,test,1,A,circle.png,1,m,Mon Dec 08 2025 08:20:27 GMT-0600 (Central Standard Time),172375.30000007153,1900,I,m,810,5,2,2728.0,169647.30000007153,8064,NTS,B,2
2,3,test,1,A,circle.png,1,z,Mon Dec 08 2025 08:20:27 GMT-0600 (Central Standard Time),175041.30000007153,2000,I,z,633,2,2,2662.3000000715256,172379.0,8064,NTS,B,3
7,4,test,1,A,circle.png,1,m,Mon Dec 08 2025 08:20:27 GMT-0600 (Central Standard Time),177357.20000004768,1700,I,m,596,6,2,2311.8000000715256,175045.39999997616,8064,NTS,B,4
8,5,test,1,A,circle.png,1,m,Mon Dec 08 2025 08:20:27 GMT-0600 (Central Standard Time),179723.60000002384,1600,I,m,739,7,2,2362.2999999523163,177361.30000007153,8064,NTS,B,5
4,6,test,1,A,circle.png,1,z,Mon Dec 08 2025 08:20:27 GMT-0600 (Central Standard Time),181889.10000002384,1400,I,z,733,4,2,2161.899999976158,179727.20000004768,8064,NTS,B,6
2,7,test,1,A,circle.png,1,z,Mon Dec 08 2025 08:20:27 GMT-0600 (Central Standard Time),184505.0,2000,I,z,592,2,2,2612.399999976158,181892.60000002384,8064,NTS,B,7
3,8,test,1,A,circle.png,1,z,Mon Dec 08 2025 08:20:27 GMT-0600 (Central Standard Time),186470.80000007153,1200,I,z,743,3,2,1961.4000000953674,184509.39999997616,8064,NTS,B,8
4,9,test,1,A,circle.png,1,z,Mon Dec 08 2025 08:20:27 GMT-0600 (Central Standard Time),188486.70000004768,1400,I,z,594,4,2,2012.1000000238419,186474.60000002384,8064,NTS,B,9
9,10,test,1,A,circle.png,1,m,Mon Dec 08 2025 08:20:27 GMT-0600 (Central Standard Time),190686.39999997616,1500,I,m,678,8,2,2196.0999999046326,188490.30000007153,8064,NTS,B,10
3,11,test,1,A,circle.png,1,z,Mon Dec 08 2025 08:20:27 GMT-0600 (Central Standard Time),192796.30000007153,1200,I,z,893,3,2,2106.3000000715256,190690.0,8064,NTS,B,11
7,12,test,1,A,circle.png,1,m,Mon Dec 08 2025 08:20:27 GMT-0600 (Central Standard Time),195118.0,1700,I,m,611,6,2,2317.7999999523163,192800.20000004768,8064,NTS,B,12
9,13,test,1,A,circle.png,1,m,Mon Dec 08 2025 08:20:27 GMT-0600 (Central Standard Time),197370.60000002384,1500,I,m,719,8,2,2249.0,195121.60000002384,8064,NTS,B,13
1,14,test,1,A,circle.png,1,z,Mon Dec 08 2025 08:20:27 GMT-0600 (Central Standard Time),199350.30000007153,1000,I,z,962,1,2,1975.9000000953674,197374.39999997616,8064,NTS,B,14
8,15,test,1,A,circle.png,1,m,Mon Dec 08 2025 08:20:27 GMT-0600 (Central Standard Time),201916.20000004768,1600,I,m,939,7,2,2562.100000023842,199354.10000002384,8064,NTS,B,15
7,15,test,1,A,circle.png,0,m,Mon Dec 08 2025 08:20:27 GMT-0600 (Central Standard Time),204881.89999997616,1700,I,z,1249,6,2,2961.899999976158,201920.0,8064,NTS,B,16
6,16,test,1,A,circle.png,1,m,Mon Dec 08 2025 08:20:27 GMT-0600 (Central Standard Time),207597.60000002384,1900,I,m,796,5,2,2712.2000000476837,204885.39999997616,8064,NTS,B,17
3,17,test,1,A,circle.png,1,z,Mon Dec 08 2025 08:20:27 GMT-0600 (Central Standard Time),209597.10000002384,1200,I,z,771,3,2,1996.0,207601.10000002384,8064,NTS,B,18
2,18,test,1,A,circle.png,1,z,Mon Dec 08 2025 08:20:27 GMT-0600 (Central Standard Time),212313.10000002384,2000,I,z,684,2,2,2712.2999999523163,209600.80000007153,8064,NTS,B,19
6,19,test,1,A,circle.png,1,m,Mon Dec 08 2025 08:20:27 GMT-0600 (Central Standard Time),215078.60000002384,1900,I,m,844,5,2,2761.600000023842,212317.0,8064,NTS,B,20
8,20,test,1,A,circle.png,1,m,Mon Dec 08 2025 08:20:27 GMT-0600 (Central Standard Time),217311.20000004768,1600,I,m,610,7,2,2228.5,215082.70000004768,8064,NTS,B,21
9,21,test,1,A,circle.png,1,m,Mon Dec 08 2025 08:20:27 GMT-0600 (Central Standard Time),219477.39999997616,1500,I,m,637,8,2,2162.2999999523163,217315.10000002384,8064,NTS,B,22
1,22,test,1,A,circle.png,1,z,Mon Dec 08 2025 08:20:27 GMT-0600 (Central Standard Time),221260.20000004768,1000,I,z,763,1,2,1779.3000000715256,219480.89999997616,8064,NTS,B,23
1,23,test,1,A,circle.png,1,z,Mon Dec 08 2025 08:20:27 GMT-0600 (Central Standard Time),222926.20000004768,1000,I,z,645,1,2,1662.3999999761581,221263.80000007153,8064,NTS,B,24
4,1,test,1,B,triangle.png,1,m,Mon Dec 08 2025 08:20:27 GMT-0600 (Central Standard Time),236205.30000007153,1500,I,m,988,4,2,2512.5,233692.80000007153,8064,NTS,B,1
4,2,test,1,B,triangle.png,1,m,Mon Dec 08 2025 08:20:27 GMT-0600 (Central Standard Time),237971.30000007153,1000,I,m,748,12,2,1762.0,236209.30000007153,8064,NTS,B,2
3,3,test,1,B,triangle.png,1,z,Mon Dec 08 2025 08:20:27 GMT-0600 (Central Standard Time),240770.70000004768,2000,I,z,778,11,2,2796.0,237974.70000004768,8064,NTS,B,3
8,4,test,1,B,triangle.png,1,m,Mon Dec 08 2025 08:20:27 GMT-0600 (Central Standard Time),243553.30000007153,1700,I,m,1059,15,2,2778.7000000476837,240774.60000002384,8064,NTS,B,4
2,5,test,1,B,triangle.png,1,m,Mon Dec 08 2025 08:20:27 GMT-0600 (Central Standard Time),246419.89999997616,1700,I,m,1149,2,2,2862.6999999284744,243557.20000004768,8064,NTS,B,5
1,6,test,1,B,triangle.png,1,z,Mon Dec 08 2025 08:20:27 GMT-0600 (Central Standard Time),249018.20000004768,1900,I,z,667,1,2,2593.7000000476837,246424.5,8064,NTS,B,6
6,7,test,1,B,triangle.png,1,m,Mon Dec 08 2025 08:20:27 GMT-0600 (Central Standard Time),250734.10000002384,1000,I,m,687,5,2,1712.3999999761581,249021.70000004768,8064,NTS,B,7
2,8,test,1,B,triangle.png,1,m,Mon Dec 08 2025 08:20:27 GMT-0600 (Central Standard Time),252600.0,1200,I,m,643,10,2,1862.2999999523163,250737.70000004768,8064,NTS,B,8
7,9,test,1,B,triangle.png,1,z,Mon Dec 08 2025 08:20:27 GMT-0600 (Central Standard Time),255532.5,2000,I,z,905,6,2,2928.7999999523163,252603.70000004768,8064,NTS,B,9
7,10,test,1,B,triangle.png,1,z,Mon Dec 08 2025 08:20:27 GMT-0600 (Central Standard Time),258248.5,2000,I,z,684,6,2,2712.100000023842,255536.39999997616,8064,NTS,B,10
3,11,test,1,B,triangle.png,1,z,Mon Dec 08 2025 08:20:27 GMT-0600 (Central Standard Time),261064.10000002384,2000,I,z,793,11,2,2811.7999999523163,258252.30000007153,8064,NTS,B,11
9,12,test,1,B,triangle.png,1,z,Mon Dec 08 2025 08:20:27 GMT-0600 (Central Standard Time),263426.89999997616,1400,I,z,809,8,2,2358.0999999046326,261068.80000007153,8064,NTS,B,12
8,13,test,1,B,triangle.png,1,m,Mon Dec 08 2025 08:20:27 GMT-0600 (Central Standard Time),265846.2000000477,1700,I,m,696,15,2,2415.600000023842,263430.60000002384,8064,NTS,B,13
8,14,test,1,B,triangle.png,1,m,Mon Dec 08 2025 08:20:27 GMT-0600 (Central Standard Time),267628.89999997616,1200,I,m,555,7,2,1779.0999999046326,265849.8000000715,8064,NTS,B,14
7,15,test,1,B,triangle.png,1,z,Mon Dec 08 2025 08:20:27 GMT-0600 (Central Standard Time),270028.10000002384,1600,I,z,773,14,2,2395.399999976158,267632.7000000477,8064,NTS,B,15
8,16,test,1,B,triangle.png,1,m,Mon Dec 08 2025 08:20:27 GMT-0600 (Central Standard Time),271877.39999997616,1200,I,m,620,7,2,1845.3999999761581,270032.0,8064,NTS,B,16
4,17,test,1,B,triangle.png,1,m,Mon Dec 08 2025 08:20:27 GMT-0600 (Central Standard Time),274293.5,1500,I,m,896,4,2,2412.6999999284744,271880.8000000715,8064,NTS,B,17
6,18,test,1,B,triangle.png,1,m,Mon Dec 08 2025 08:20:27 GMT-0600 (Central Standard Time),277109.3000000715,1500,I,m,1296,13,2,2812.3000000715256,274297.0,8064,NTS,B,18
3,19,test,1,B,triangle.png,1,z,Mon Dec 08 2025 08:20:27 GMT-0600 (Central Standard Time),279608.3000000715,1600,I,z,867,3,2,2495.3000000715256,277113.0,8064,NTS,B,19
3,20,test,1,B,triangle.png,1,z,Mon Dec 08 2025 08:20:27 GMT-0600 (Central Standard Time),282041.0,1600,I,z,809,3,2,2429.0,279612.0,8064,NTS,B,20
9,21,test,1,B,triangle.png,1,z,Mon Dec 08 2025 08:20:27 GMT-0600 (Central Standard Time),285039.89999997616,1900,I,z,1077,16,2,2994.6999999284744,282045.2000000477,8064,NTS,B,21
1,22,test,1,B,triangle.png,1,z,Mon Dec 08 2025 08:20:27 GMT-0600 (Central Standard Time),287239.2000000477,1400,I,z,769,9,2,2195.5,285043.7000000477,8064,NTS,B,22
1,23,test,1,B,triangle.png,1,z,Mon Dec 08 2025 08:20:27 GMT-0600 (Central Standard Time),289439.0,1400,I,z,770,9,2,2193.1999999284744,287245.8000000715,8064,NTS,B,23
9,24,test,1,B,triangle.png,1,z,Mon Dec 08 2025 08:20:27 GMT-0600 (Central Standard Time),292420.89999997616,1900,I,z,1054,16,2,2978.2999999523163,289442.60000002384,8064,NTS,B,24
3,1,prac,1,C,triangle.png,1,z,Mon Dec 08 2025 08:20:27 GMT-0600 (Central Standard Time),312964.7000000477,1500,I,z,1203,3,2,3494.600000023842,309470.10000002384,8064,NTS,B,1
1,2,prac,1,C,circle.png,1,z,Mon Dec 08 2025 08:20:27 GMT-0600 (Central Standard Time),316397.0,1700,I,z,945,1,2,3426.6999999284744,312970.3000000715,8064,NTS,B,2
8,3,prac,1,C,triangle.png,1,m,Mon Dec 08 2025 08:20:27 GMT-0600 (Central Standard Time),319779.3000000715,1400,I,m,1197,7,2,3377.8000000715256,316401.5,8064,NTS,B,3
9,4,prac,1,C,circle.png,1,m,Mon Dec 08 2025 08:20:27 GMT-0600 (Central Standard Time),323329.3000000715,1900,I,m,858,8,2,3543.8000000715256,319785.5,8064,NTS,B,4
8,5,prac,1,C,triangle.png,1,m,Mon Dec 08 2025 08:20:27 GMT-0600 (Central Standard Time),327010.3000000715,1400,I,m,1498,7,2,3675.8000000715256,323334.5,8064,NTS,B,5
9,6,prac,1,C,circle.png,1,m,Mon Dec 08 2025 08:20:27 GMT-0600 (Central Standard Time),330542.3000000715,1900,I,m,844,8,2,3526.7000000476837,327015.60000002384,8064,NTS,B,6
2,7,prac,1,C,triangle.png,1,m,Mon Dec 08 2025 08:20:27 GMT-0600 (Central Standard Time),334377.2000000477,1600,I,m,1450,2,2,3829.8000000715256,330547.39999997616,8064,NTS,B,7
4,8,prac,1,C,circle.png,1,z,Mon Dec 08 2025 08:20:27 GMT-0600 (Central Standard Time),337257.0,1000,I,z,1099,4,2,2874.600000023842,334382.39999997616,8064,NTS,B,8
4,9,prac,1,C,circle.png,1,z,Mon Dec 08 2025 08:20:27 GMT-0600 (Central Standard Time),340456.2000000477,1000,I,z,1407,4,2,3194.399999976158,337261.8000000715,8064,NTS,B,9
7,10,prac,1,C,triangle.png,1,z,Mon Dec 08 2025 08:20:27 GMT-0600 (Central Standard Time),343538.2000000477,1200,I,z,1098,6,2,3077.0,340461.2000000477,8064,NTS,B,10
1,11,prac,1,C,circle.png,1,z,Mon Dec 08 2025 08:20:27 GMT-0600 (Central Standard Time),346920.39999997616,1700,I,z,890,1,2,3377.399999976158,343543.0,8064,NTS,B,11
6,12,prac,1,C,circle.png,1,m,Mon Dec 08 2025 08:20:27 GMT-0600 (Central Standard Time),350669.5,2000,I,m,951,5,2,3744.1999999284744,346925.3000000715,8064,NTS,B,12
3,0,test,1,C,triangle.png,0,z,Mon Dec 08 2025 08:20:27 GMT-0600 (Central Standard Time),361049.60000002384,1200,I,None,1515,3,2,2729.2000000476837,358320.39999997616,8064,NTS,B,1
2,0,test,1,C,triangle.png,0,m,Mon Dec 08 2025 08:20:27 GMT-0600 (Central Standard Time),364581.7000000477,2000,I,None,1516,2,2,3528.3000000715256,361053.39999997616,8064,NTS,B,2
9,0,test,1,C,triangle.png,0,z,Mon Dec 08 2025 08:20:27 GMT-0600 (Central Standard Time),367514.3000000715,1400,I,None,1516,16,2,2928.5,364585.8000000715,8064,NTS,B,3
8,1,test,1,C,triangle.png,1,m,Mon Dec 08 2025 08:20:27 GMT-0600 (Central Standard Time),369979.7000000477,1600,I,m,847,7,2,2461.399999976158,367518.3000000715,8064,NTS,B,4
6,2,test,1,C,triangle.png,1,m,Mon Dec 08 2025 08:20:27 GMT-0600 (Central Standard Time),371879.39999997616,1000,I,m,870,13,2,1895.6999999284744,369983.7000000477,8064,NTS,B,5
1,3,test,1,C,circle.png,1,z,Mon Dec 08 2025 08:20:27 GMT-0600 (Central Standard Time),373811.89999997616,1000,I,z,914,1,2,1928.6999999284744,371883.2000000477,8064,NTS,B,6
7,4,test,1,C,circle.png,1,m,Mon Dec 08 2025 08:20:27 GMT-0600 (Central Standard Time),376727.8000000715,2000,I,m,894,14,2,2911.100000023842,373816.7000000477,8064,NTS,B,7
7,5,test,1,C,triangle.png,1,z,Mon Dec 08 2025 08:20:27 GMT-0600 (Central Standard Time),379410.39999997616,1700,I,z,957,22,2,2678.899999976158,376731.5,8064,NTS,B,8
9,6,test,1,C,circle.png,1,m,Mon Dec 08 2025 08:20:27 GMT-0600 (Central Standard Time),381976.10000002384,1500,I,m,1043,8,2,2561.5,379414.60000002384,8064,NTS,B,9
4,7,test,1,C,triangle.png,1,m,Mon Dec 08 2025 08:20:27 GMT-0600 (Central Standard Time),384408.89999997616,1500,I,m,909,12,2,2428.7999999523163,381980.10000002384,8064,NTS,B,10
2,8,test,1,C,circle.png,1,z,Mon Dec 08 2025 08:20:27 GMT-0600 (Central Standard Time),387091.3000000715,1700,I,z,957,10,2,2678.4000000953674,384412.89999997616,8064,NTS,B,11
8,9,test,1,C,circle.png,1,m,Mon Dec 08 2025 08:20:27 GMT-0600 (Central Standard Time),389207.3000000715,1200,I,m,893,15,2,2112.5,387094.8000000715,8064,NTS,B,12
8,10,test,1,C,triangle.png,1,m,Mon Dec 08 2025 08:20:27 GMT-0600 (Central Standard Time),391723.10000002384,1600,I,m,898,23,2,2511.899999976158,389211.2000000477,8064,NTS,B,13
6,11,test,1,C,circle.png,1,m,Mon Dec 08 2025 08:20:27 GMT-0600 (Central Standard Time),394521.89999997616,1900,I,m,882,21,2,2795.399999976158,391726.5,8064,NTS,B,14
1,12,test,1,C,triangle.png,1,z,Mon Dec 08 2025 08:20:27 GMT-0600 (Central Standard Time),397288.39999997616,1900,I,z,835,9,2,2762.6999999284744,394525.7000000477,8064,NTS,B,15
7,13,test,1,C,triangle.png,1,z,Mon Dec 08 2025 08:20:27 GMT-0600 (Central Standard Time),399887.2000000477,1700,I,z,869,6,2,2595.100000023842,397292.10000002384,8064,NTS,B,16
4,14,test,1,C,circle.png,1,z,Mon Dec 08 2025 08:20:27 GMT-0600 (Central Standard Time),402403.2000000477,1400,I,z,1090,4,2,2512.100000023842,399891.10000002384,8064,NTS,B,17
1,15,test,1,C,triangle.png,1,z,Mon Dec 08 2025 08:20:27 GMT-0600 (Central Standard Time),405535.39999997616,1900,I,z,1201,17,2,3128.5999999046326,402406.8000000715,8064,NTS,B,18
6,16,test,1,C,circle.png,1,m,Mon Dec 08 2025 08:20:27 GMT-0600 (Central Standard Time),408351.3000000715,1900,I,m,893,5,2,2811.7000000476837,405539.60000002384,8064,NTS,B,19
3,17,test,1,C,circle.png,1,z,Mon Dec 08 2025 08:20:27 GMT-0600 (Central Standard Time),410750.39999997616,1600,I,z,769,11,2,2395.0,408355.39999997616,8064,NTS,B,20
3,18,test,1,C,circle.png,1,z,Mon Dec 08 2025 08:20:27 GMT-0600 (Central Standard Time),413433.10000002384,1600,I,z,1050,19,2,2679.0,410754.10000002384,8064,NTS,B,21
4,19,test,1,C,triangle.png,1,m,Mon Dec 08 2025 08:20:27 GMT-0600 (Central Standard Time),416049.10000002384,1500,I,m,1084,20,2,2611.899999976158,413437.2000000477,8064,NTS,B,22
9,20,test,1,C,circle.png,1,m,Mon Dec 08 2025 08:20:27 GMT-0600 (Central Standard Time),418448.0,1500,I,m,868,24,2,2395.100000023842,416052.89999997616,8064,NTS,B,23
2,21,test,1,C,circle.png,1,z,Mon Dec 08 2025 08:20:27 GMT-0600 (Central Standard Time),421380.39999997616,1700,I,z,1205,18,2,2928.2999999523163,418452.10000002384,8064,NTS,B,24
9,1,test,2,C,triangle.png,1,z,Mon Dec 08 2025 08:20:27 GMT-0600 (Central Standard Time),427179.3000000715,1400,I,z,1007,24,2,2428.5,424750.8000000715,8064,NTS,B,1
1,2,test,2,C,triangle.png,1,z,Mon Dec 08 2025 08:20:27 GMT-0600 (Central Standard Time),430011.3000000715,1900,I,z,907,17,2,2824.600000023842,427186.7000000477,8064,NTS,B,2
1,3,test,2,C,triangle.png,1,z,Mon Dec 08 2025 08:20:27 GMT-0600 (Central Standard Time),432660.39999997616,1900,I,z,731,9,2,2645.2999999523163,430015.10000002384,8064,NTS,B,3
4,4,test,2,C,circle.png,1,z,Mon Dec 08 2025 08:20:27 GMT-0600 (Central Standard Time),435026.2000000477,1400,I,z,940,4,2,2361.2000000476837,432665.0,8064,NTS,B,4
7,5,test,2,C,circle.png,1,m,Mon Dec 08 2025 08:20:27 GMT-0600 (Central Standard Time),437875.3000000715,2000,I,m,830,14,2,2844.3000000715256,435031.0,8064,NTS,B,5
1,6,test,2,C,circle.png,1,z,Mon Dec 08 2025 08:20:27 GMT-0600 (Central Standard Time),439758.2000000477,1000,I,z,854,1,2,1878.8999999761581,437879.3000000715,8064,NTS,B,6
8,7,test,2,C,circle.png,1,m,Mon Dec 08 2025 08:20:27 GMT-0600 (Central Standard Time),441790.8000000715,1200,I,m,811,23,2,2028.5,439762.3000000715,8064,NTS,B,7
3,8,test,2,C,circle.png,1,z,Mon Dec 08 2025 08:20:27 GMT-0600 (Central Standard Time),444223.60000002384,1600,I,z,803,19,2,2428.7999999523163,441794.8000000715,8064,NTS,B,8
6,9,test,2,C,triangle.png,1,m,Mon Dec 08 2025 08:20:27 GMT-0600 (Central Standard Time),446156.10000002384,1000,I,m,914,21,2,1928.7999999523163,444227.3000000715,8064,NTS,B,9
3,10,test,2,C,triangle.png,1,z,Mon Dec 08 2025 08:20:27 GMT-0600 (Central Standard Time),448155.10000002384,1200,I,z,782,3,2,1995.2000000476837,446159.89999997616,8064,NTS,B,10
7,11,test,2,C,circle.png,1,m,Mon Dec 08 2025 08:20:27 GMT-0600 (Central Standard Time),451204.5,2000,I,m,1022,22,2,3045.5,448159.0,8064,NTS,B,11
2,12,test,2,C,circle.png,1,z,Mon Dec 08 2025 08:20:27 GMT-0600 (Central Standard Time),453770.5,1700,I,z,849,10,2,2562.100000023842,451208.39999997616,8064,NTS,B,12
6,13,test,2,C,circle.png,1,m,Mon Dec 08 2025 08:20:27 GMT-0600 (Central Standard Time),456536.3000000715,1900,I,m,842,5,2,2761.9000000953674,453774.39999997616,8064,NTS,B,13
3,14,test,2,C,circle.png,1,z,Mon Dec 08 2025 08:20:27 GMT-0600 (Central Standard Time),458852.0,1600,I,z,689,11,2,2312.100000023842,456539.89999997616,8064,NTS,B,14
8,15,test,2,C,triangle.png,1,m,Mon Dec 08 2025 08:20:27 GMT-0600 (Central Standard Time),461435.60000002384,1600,I,m,965,7,2,2579.5,458856.10000002384,8064,NTS,B,15
6,16,test,2,C,triangle.png,1,m,Mon Dec 08 2025 08:20:27 GMT-0600 (Central Standard Time),463250.5,1000,I,m,799,13,2,1811.1999999284744,461439.3000000715,8064,NTS,B,16
9,17,test,2,C,circle.png,1,m,Mon Dec 08 2025 08:20:27 GMT-0600 (Central Standard Time),465716.60000002384,1500,I,m,939,8,2,2462.7000000476837,463253.89999997616,8064,NTS,B,17
4,18,test,2,C,triangle.png,1,m,Mon Dec 08 2025 08:20:27 GMT-0600 (Central Standard Time),468232.39999997616,1500,I,m,984,12,2,2512.0,465720.39999997616,8064,NTS,B,18
4,19,test,2,C,triangle.png,1,m,Mon Dec 08 2025 08:20:27 GMT-0600 (Central Standard Time),470481.89999997616,1500,I,m,716,20,2,2245.5,468236.39999997616,8064,NTS,B,19
9,20,test,2,C,triangle.png,1,z,Mon Dec 08 2025 08:20:27 GMT-0600 (Central Standard Time),472814.7000000477,1400,I,z,901,16,2,2329.100000023842,470485.60000002384,8064,NTS,B,20
7,21,test,2,C,triangle.png,1,z,Mon Dec 08 2025 08:20:27 GMT-0600 (Central Standard Time),475313.7000000477,1700,I,z,766,6,2,2495.3000000715256,472818.39999997616,8064,NTS,B,21
2,22,test,2,C,circle.png,1,z,Mon Dec 08 2025 08:20:27 GMT-0600 (Central Standard Time),477962.5,1700,I,z,932,18,2,2644.7999999523163,475317.7000000477,8064,NTS,B,22
8,23,test,2,C,circle.png,1,m,Mon Dec 08 2025 08:20:27 GMT-0600 (Central Standard Time),479995.2000000477,1200,I,m,815,15,2,2028.7000000476837,477966.5,8064,NTS,B,23
2,23,test,2,C,triangle.png,0,m,Mon Dec 08 2025 08:20:27 GMT-0600 (Central Standard Time),483410.8000000715,2000,I,z,1398,2,2,3412.100000023842,479998.7000000477,8064,NTS,B,24
6,0,test,3,C,triangle.png,0,m,Mon Dec 08 2025 08:20:27 GMT-0600 (Central Standard Time),489342.60000002384,1000,I,z,1220,13,2,2246.100000023842,487096.5,8064,NTS,B,1
7,1,test,3,C,circle.png,1,m,Mon Dec 08 2025 08:20:27 GMT-0600 (Central Standard Time),492291.7000000477,2000,I,m,923,14,2,2945.0,489346.7000000477,8064,NTS,B,2
7,2,test,3,C,triangle.png,1,z,Mon Dec 08 2025 08:20:27 GMT-0600 (Central Standard Time),494974.2000000477,1700,I,z,962,22,2,2678.5,492295.7000000477,8064,NTS,B,3
4,3,test,3,C,circle.png,1,z,Mon Dec 08 2025 08:20:27 GMT-0600 (Central Standard Time),497440.10000002384,1400,I,z,1034,4,2,2461.7999999523163,494978.3000000715,8064,NTS,B,4
8,4,test,3,C,triangle.png,1,m,Mon Dec 08 2025 08:20:27 GMT-0600 (Central Standard Time),500589.2000000477,1600,I,m,1408,23,2,3144.7000000476837,497444.5,8064,NTS,B,5
2,5,test,3,C,circle.png,1,z,Mon Dec 08 2025 08:20:27 GMT-0600 (Central Standard Time),503304.8000000715,1700,I,z,993,10,2,2711.8000000715256,500593.0,8064,NTS,B,6
1,6,test,3,C,triangle.png,1,z,Mon Dec 08 2025 08:20:27 GMT-0600 (Central Standard Time),506287.2000000477,1900,I,z,1052,9,2,2978.399999976158,503308.8000000715,8064,NTS,B,7
2,7,test,3,C,triangle.png,1,m,Mon Dec 08 2025 08:20:27 GMT-0600 (Central Standard Time),509219.89999997616,2000,I,m,905,18,2,2928.7999999523163,506291.10000002384,8064,NTS,B,8
4,8,test,3,C,triangle.png,1,m,Mon Dec 08 2025 08:20:27 GMT-0600 (Central Standard Time),511502.3000000715,1500,I,m,761,12,2,2278.600000023842,509223.7000000477,8064,NTS,B,9
3,9,test,3,C,triangle.png,1,z,Mon Dec 08 2025 08:20:27 GMT-0600 (Central Standard Time),513518.3000000715,1200,I,z,795,19,2,2012.3000000715256,511506.0,8064,NTS,B,10
6,10,test,3,C,circle.png,1,m,Mon Dec 08 2025 08:20:27 GMT-0600 (Central Standard Time),516367.5,1900,I,m,919,21,2,2845.100000023842,513522.39999997616,8064,NTS,B,11
3,11,test,3,C,circle.png,1,z,Mon Dec 08 2025 08:20:27 GMT-0600 (Central Standard Time),518683.0,1600,I,z,698,11,2,2311.7999999523163,516371.2000000477,8064,NTS,B,12
9,12,test,3,C,circle.png,1,m,Mon Dec 08 2025 08:20:27 GMT-0600 (Central Standard Time),520965.89999997616,1500,I,m,753,8,2,2279.399999976158,518686.5,8064,NTS,B,13
4,13,test,3,C,circle.png,1,z,Mon Dec 08 2025 08:20:27 GMT-0600 (Central Standard Time),523281.89999997616,1400,I,z,900,20,2,2312.2999999523163,520969.60000002384,8064,NTS,B,14
8,14,test,3,C,triangle.png,1,m,Mon Dec 08 2025 08:20:27 GMT-0600 (Central Standard Time),525764.5,1600,I,m,864,7,2,2478.6999999284744,523285.8000000715,8064,NTS,B,15
7,15,test,3,C,triangle.png,1,z,Mon Dec 08 2025 08:20:27 GMT-0600 (Central Standard Time),528246.8999999762,1700,I,z,761,6,2,2478.6999999284744,525768.2000000477,8064,NTS,B,16
9,16,test,3,C,triangle.png,1,z,Mon Dec 08 2025 08:20:27 GMT-0600 (Central Standard Time),530479.6000000238,1400,I,z,810,16,2,2229.100000023842,528250.5,8064,NTS,B,17
3,17,test,3,C,triangle.png,1,z,Mon Dec 08 2025 08:20:27 GMT-0600 (Central Standard Time),532445.5,1200,I,z,738,3,2,1962.1999999284744,530483.3000000715,8064,NTS,B,18
9,18,test,3,C,circle.png,1,m,Mon Dec 08 2025 08:20:27 GMT-0600 (Central Standard Time),534894.8999999762,1500,I,m,928,24,2,2444.399999976158,532450.5,8064,NTS,B,19
2,19,test,3,C,triangle.png,1,m,Mon Dec 08 2025 08:20:27 GMT-0600 (Central Standard Time),537844.0,2000,I,m,923,2,2,2945.2999999523163,534898.7000000477,8064,NTS,B,20
1,20,test,3,C,circle.png,1,z,Mon Dec 08 2025 08:20:27 GMT-0600 (Central Standard Time),539693.3999999762,1000,I,z,830,17,2,1845.5,537847.8999999762,8064,NTS,B,21
1,20,test,3,C,circle.png,0,z,Mon Dec 08 2025 08:20:27 GMT-0600 (Central Standard Time),542225.8999999762,1000,I,None,1516,1,2,2528.399999976158,539697.5,8064,NTS,B,22
8,21,test,3,C,circle.png,1,m,Mon Dec 08 2025 08:20:27 GMT-0600 (Central Standard Time),544508.3999999762,1200,I,m,1063,15,2,2278.7999999523163,542229.6000000238,8064,NTS,B,23
6,22,test,3,C,circle.png,1,m,Mon Dec 08 2025 08:20:27 GMT-0600 (Central Standard Time),547307.8000000715,1900,I,m,828,5,2,2795.4000000953674,544512.3999999762,8064,NTS,B,24
6,1,test,4,C,triangle.png,1,m,Mon Dec 08 2025 08:20:27 GMT-0600 (Central Standard Time),552389.5,1000,I,m,1113,13,2,2129.399999976158,550260.1000000238,8064,NTS,B,1
4,2,test,4,C,triangle.png,1,m,Mon Dec 08 2025 08:20:27 GMT-0600 (Central Standard Time),554688.7000000477,1500,I,m,776,12,2,2294.899999976158,552393.8000000715,8064,NTS,B,2
3,3,test,4,C,circle.png,1,z,Mon Dec 08 2025 08:20:27 GMT-0600 (Central Standard Time),557321.3999999762,1600,I,z,1000,11,2,2628.899999976158,554692.5,8064,NTS,B,3
1,4,test,4,C,circle.png,1,z,Mon Dec 08 2025 08:20:27 GMT-0600 (Central Standard Time),559105.1000000238,1000,I,z,751,1,2,1776.8999999761581,557328.2000000477,8064,NTS,B,4
6,5,test,4,C,circle.png,1,m,Mon Dec 08 2025 08:20:27 GMT-0600 (Central Standard Time),561836.3999999762,1900,I,m,806,5,2,2726.7999999523163,559109.6000000238,8064,NTS,B,5
6,6,test,4,C,circle.png,1,m,Mon Dec 08 2025 08:20:27 GMT-0600 (Central Standard Time),564418.8999999762,1900,I,m,657,21,2,2578.399999976158,561840.5,8064,NTS,B,6
3,7,test,4,C,triangle.png,1,z,Mon Dec 08 2025 08:20:27 GMT-0600 (Central Standard Time),566718.3000000715,1200,I,z,1077,3,2,2295.600000023842,564422.7000000477,8064,NTS,B,7
2,8,test,4,C,circle.png,1,z,Mon Dec 08 2025 08:20:27 GMT-0600 (Central Standard Time),569250.5,1700,I,z,815,10,2,2528.399999976158,566722.1000000238,8064,NTS,B,8
9,9,test,4,C,circle.png,1,m,Mon Dec 08 2025 08:20:27 GMT-0600 (Central Standard Time),571517.8999999762,1500,I,m,738,24,2,2263.5999999046326,569254.3000000715,8064,NTS,B,9
8,10,test,4,C,triangle.png,1,m,Mon Dec 08 2025 08:20:27 GMT-0600 (Central Standard Time),573782.6000000238,1600,I,m,637,7,2,2260.5,571522.1000000238,8064,NTS,B,10
7,11,test,4,C,triangle.png,1,z,Mon Dec 08 2025 08:20:27 GMT-0600 (Central Standard Time),576265.3000000715,1700,I,z,766,22,2,2478.8000000715256,573786.5,8064,NTS,B,11
3,12,test,4,C,triangle.png,1,z,Mon Dec 08 2025 08:20:27 GMT-0600 (Central Standard Time),578265.0,1200,I,z,767,19,2,1995.7999999523163,576269.2000000477,8064,NTS,B,12
2,13,test,4,C,triangle.png,1,m,Mon Dec 08 2025 08:20:27 GMT-0600 (Central Standard Time),581213.7000000477,2000,I,m,921,2,2,2945.0,578268.7000000477,8064,NTS,B,13
7,14,test,4,C,circle.png,1,m,Mon Dec 08 2025 08:20:27 GMT-0600 (Central Standard Time),583996.5,2000,I,m,764,14,2,2778.6999999284744,581217.8000000715,8064,NTS,B,14
1,15,test,4,C,triangle.png,1,z,Mon Dec 08 2025 08:20:27 GMT-0600 (Central Standard Time),586612.0,1900,I,z,698,9,2,2611.399999976158,584000.6000000238,8064,NTS,B,15
8,16,test,4,C,triangle.png,1,m,Mon Dec 08 2025 08:20:27 GMT-0600 (Central Standard Time),589044.6000000238,1600,I,m,805,23,2,2428.2000000476837,586616.3999999762,8064,NTS,B,16
7,17,test,4,C,triangle.png,1,z,Mon Dec 08 2025 08:20:27 GMT-0600 (Central Standard Time),591743.7000000477,1700,I,z,969,6,2,2695.3000000715256,589048.3999999762,8064,NTS,B,17
9,18,test,4,C,triangle.png,1,z,Mon Dec 08 2025 08:20:27 GMT-0600 (Central Standard Time),593926.5,1400,I,z,754,16,2,2179.0,591747.5,8064,NTS,B,18
4,19,test,4,C,circle.png,1,z,Mon Dec 08 2025 08:20:27 GMT-0600 (Central Standard Time),596275.3999999762,1400,I,z,930,20,2,2345.2999999523163,593930.1000000238,8064,NTS,B,19
1,20,test,4,C,circle.png,1,z,Mon Dec 08 2025 08:20:27 GMT-0600 (Central Standard Time),598175.1000000238,1000,I,z,870,17,2,1896.0,596279.1000000238,8064,NTS,B,20
2,21,test,4,C,triangle.png,1,m,Mon Dec 08 2025 08:20:27 GMT-0600 (Central Standard Time),601224.2000000477,2000,I,m,1026,18,2,3045.5,598178.7000000477,8064,NTS,B,21
4,22,test,4,C,circle.png,1,z,Mon Dec 08 2025 08:20:27 GMT-0600 (Central Standard Time),603573.1000000238,1400,I,z,921,4,2,2345.0,601228.1000000238,8064,NTS,B,22
9,23,test,4,C,circle.png,1,m,Mon Dec 08 2025 08:20:27 GMT-0600 (Central Standard Time),605739.3000000715,1500,I,m,648,8,2,2162.3000000715256,603577.0,8064,NTS,B,23
8,24,test,4,C,circle.png,1,m,Mon Dec 08 2025 08:20:27 GMT-0600 (Central Standard Time),607871.8000000715,1200,I,m,910,15,2,2128.8000000715256,605743.0,8064,NTS,B,24
