block_c,block_dur,condition,countdown,datetime,endtime,list,multichar_response,project,response,response_time,session_number,start_end,starttime,subject_id,task,task_vers,trial
,,,,Fri May 09 2025 14:30:46 GMT-0400 (Eastern Daylight Time),,,,I,space,197,3,,,9003,WL,B,
prac,,0,,Fri May 09 2025 14:30:46 GMT-0400 (Eastern Daylight Time),,NA,b,I,b,5628,3,,,9003,WL,B,1.0
prac,,0,,Fri May 09 2025 14:30:46 GMT-0400 (Eastern Daylight Time),,NA,bo,I,o,214,3,,,9003,WL,B,1.0
prac,,0,,Fri May 09 2025 14:30:46 GMT-0400 (Eastern Daylight Time),,NA,boo,I,o,180,3,,,9003,WL,B,1.0
prac,,0,,Fri May 09 2025 14:30:46 GMT-0400 (Eastern Daylight Time),,NA,boos,I,s,201,3,,,9003,WL,B,1.0
prac,,0,,Fri May 09 2025 14:30:46 GMT-0400 (Eastern Daylight Time),,NA,boost,I,t,345,3,,,9003,WL,B,1.0
prac,,0,,Fri May 09 2025 14:30:46 GMT-0400 (Eastern Daylight Time),,NA,boostenter,I,enter,1966,3,,,9003,WL,B,1.0
1,0.8340001106262207,learn,59165.99988937378,Fri May 09 2025 14:30:46 GMT-0400 (Eastern Daylight Time),127859.89999961853,A,s,I,s,816,3,833.1999998092651,127026.69999980927,9003,WL,B,1.0
1,1.2170000076293945,learn,58782.999992370605,Fri May 09 2025 14:30:46 GMT-0400 (Eastern Daylight Time),128243.0999994278,A,st,I,t,375,3,1216.3999996185303,127026.69999980927,9003,WL,B,1.0
1,1.5840001106262207,learn,58415.99988937378,Fri May 09 2025 14:30:46 GMT-0400 (Eastern Daylight Time),128609.69999980927,A,str,I,r,352,3,1583.0,127026.69999980927,9003,WL,B,1.0
1,1.9670000076293945,learn,58032.999992370605,Fri May 09 2025 14:30:46 GMT-0400 (Eastern Daylight Time),128993.19999980927,A,stre,I,e,361,3,1966.5,127026.69999980927,9003,WL,B,1.0
1,2.1510000228881836,learn,57848.99997711182,Fri May 09 2025 14:30:46 GMT-0400 (Eastern Daylight Time),129176.5999994278,A,stree,I,e,170,3,2149.8999996185303,127026.69999980927,9003,WL,B,1.0
1,2.367000102996826,learn,57632.999897003174,Fri May 09 2025 14:30:46 GMT-0400 (Eastern Daylight Time),129393.0,A,street,I,t,194,3,2366.300000190735,127026.69999980927,9003,WL,B,1.0
1,3.316999912261963,learn,56683.00008773804,Fri May 09 2025 14:30:46 GMT-0400 (Eastern Daylight Time),130343.0,A,streetenter,I,enter,930,3,3316.300000190735,127026.69999980927,9003,WL,B,1.0
1,5.200999975204468,learn,54799.00002479553,Fri May 09 2025 14:30:46 GMT-0400 (Eastern Daylight Time),132226.30000019073,A,g,I,g,1860,3,1882.7000007629395,130343.5999994278,9003,WL,B,2.0
1,5.41700005531311,learn,54582.99994468689,Fri May 09 2025 14:30:46 GMT-0400 (Eastern Daylight Time),132442.89999961853,A,gr,I,r,209,3,2099.300000190735,130343.5999994278,9003,WL,B,2.0
1,5.667999982833862,learn,54332.00001716614,Fri May 09 2025 14:30:46 GMT-0400 (Eastern Daylight Time),132693.5999994278,A,gra,I,a,239,3,2350.0,130343.5999994278,9003,WL,B,2.0
1,5.950999975204468,learn,54049.00002479553,Fri May 09 2025 14:30:46 GMT-0400 (Eastern Daylight Time),132976.5,A,gras,I,s,258,3,2632.9000005722046,130343.5999994278,9003,WL,B,2.0
1,6.151000022888184,learn,53848.99997711182,Fri May 09 2025 14:30:46 GMT-0400 (Eastern Daylight Time),133176.80000019073,A,grass,I,s,178,3,2833.2000007629395,130343.5999994278,9003,WL,B,2.0
1,6.533999919891357,learn,53466.00008010864,Fri May 09 2025 14:30:46 GMT-0400 (Eastern Daylight Time),133559.80000019073,A,grassenter,I,enter,356,3,3216.2000007629395,130343.5999994278,9003,WL,B,2.0
1,8.634000062942505,learn,51365.999937057495,Fri May 09 2025 14:30:46 GMT-0400 (Eastern Daylight Time),135660.0999994278,A,w,I,w,2076,3,2099.5999994277954,133560.5,9003,WL,B,3.0
1,8.8510000705719,learn,51148.9999294281,Fri May 09 2025 14:30:46 GMT-0400 (Eastern Daylight Time),135876.69999980927,A,wi,I,i,192,3,2316.199999809265,133560.5,9003,WL,B,3.0
1,9.01800012588501,learn,50981.99987411499,Fri May 09 2025 14:30:46 GMT-0400 (Eastern Daylight Time),136044.30000019073,A,wif,I,f,152,3,2483.800000190735,133560.5,9003,WL,B,3.0
1,9.217999935150146,learn,50782.00006484985,Fri May 09 2025 14:30:46 GMT-0400 (Eastern Daylight Time),136243.69999980927,A,wife,I,e,171,3,2683.199999809265,133560.5,9003,WL,B,3.0
1,9.467000007629395,learn,50532.999992370605,Fri May 09 2025 14:30:46 GMT-0400 (Eastern Daylight Time),136493.19999980927,A,wifeenter,I,enter,237,3,2932.699999809265,133560.5,9003,WL,B,3.0
1,10.549999952316284,learn,49450.000047683716,Fri May 09 2025 14:30:46 GMT-0400 (Eastern Daylight Time),137576.19999980927,A,p,I,p,1070,3,1082.6999998092651,136493.5,9003,WL,B,4.0
1,10.91700005531311,learn,49082.99994468689,Fri May 09 2025 14:30:46 GMT-0400 (Eastern Daylight Time),137942.89999961853,A,pu,I,u,348,3,1449.3999996185303,136493.5,9003,WL,B,4.0
1,11.184000015258789,learn,48815.99998474121,Fri May 09 2025 14:30:46 GMT-0400 (Eastern Daylight Time),138209.5,A,pup,I,p,253,3,1716.0,136493.5,9003,WL,B,4.0
1,12.349999904632568,learn,47650.00009536743,Fri May 09 2025 14:30:46 GMT-0400 (Eastern Daylight Time),139376.19999980927,A,pupi,I,i,1145,3,2882.699999809265,136493.5,9003,WL,B,4.0
1,13.884000062942505,learn,46115.999937057495,Fri May 09 2025 14:30:46 GMT-0400 (Eastern Daylight Time),140909.5999994278,A,pupil,I,l,1515,3,4416.099999427795,136493.5,9003,WL,B,4.0
1,14.283999919891357,learn,45716.00008010864,Fri May 09 2025 14:30:46 GMT-0400 (Eastern Daylight Time),141309.69999980927,A,pupilenter,I,enter,382,3,4816.199999809265,136493.5,9003,WL,B,4.0
1,14.801000118255615,learn,45198.999881744385,Fri May 09 2025 14:30:46 GMT-0400 (Eastern Daylight Time),141826.39999961853,A,s,I,s,494,3,516.3000001907349,141310.0999994278,9003,WL,B,5.0
1,15.08400011062622,learn,44915.99988937378,Fri May 09 2025 14:30:46 GMT-0400 (Eastern Daylight Time),142109.5999994278,A,st,I,t,273,3,799.5,141310.0999994278,9003,WL,B,5.0
1,15.25,learn,44750.0,Fri May 09 2025 14:30:46 GMT-0400 (Eastern Daylight Time),142276.30000019073,A,sta,I,a,158,3,966.2000007629395,141310.0999994278,9003,WL,B,5.0
1,15.41700005531311,learn,44582.99994468689,Fri May 09 2025 14:30:46 GMT-0400 (Eastern Daylight Time),142442.89999961853,A,star,I,r,151,3,1132.8000001907349,141310.0999994278,9003,WL,B,5.0
1,15.849999904632568,learn,44150.00009536743,Fri May 09 2025 14:30:46 GMT-0400 (Eastern Daylight Time),142876.30000019073,A,starenter,I,enter,423,3,1566.2000007629395,141310.0999994278,9003,WL,B,5.0
1,16.233999967575073,learn,43766.00003242493,Fri May 09 2025 14:30:46 GMT-0400 (Eastern Daylight Time),143260.19999980927,A,a,I,a,368,3,383.6000003814697,142876.5999994278,9003,WL,B,6.0
1,16.533999919891357,learn,43466.00008010864,Fri May 09 2025 14:30:46 GMT-0400 (Eastern Daylight Time),143559.69999980927,A,ar,I,r,278,3,683.1000003814697,142876.5999994278,9003,WL,B,6.0
1,16.8510000705719,learn,43148.9999294281,Fri May 09 2025 14:30:46 GMT-0400 (Eastern Daylight Time),143876.5999994278,A,are,I,e,300,3,1000.0,142876.5999994278,9003,WL,B,6.0
1,17.217000007629395,learn,42782.999992370605,Fri May 09 2025 14:30:46 GMT-0400 (Eastern Daylight Time),144243.19999980927,A,ar,I,backspace,343,3,1366.6000003814697,142876.5999994278,9003,WL,B,6.0
1,17.5,learn,42500.0,Fri May 09 2025 14:30:46 GMT-0400 (Eastern Daylight Time),144526.30000019073,A,arm,I,m,273,3,1649.7000007629395,142876.5999994278,9003,WL,B,6.0
1,17.83400011062622,learn,42165.99988937378,Fri May 09 2025 14:30:46 GMT-0400 (Eastern Daylight Time),144859.5999994278,A,armenter,I,enter,322,3,1983.0,142876.5999994278,9003,WL,B,6.0
1,19.967000007629395,learn,40032.999992370605,Fri May 09 2025 14:30:46 GMT-0400 (Eastern Daylight Time),146993.0,A,c,I,c,2120,3,2133.0,144860.0,9003,WL,B,7.0
1,20.250999927520752,learn,39749.00007247925,Fri May 09 2025 14:30:46 GMT-0400 (Eastern Daylight Time),147276.69999980927,A,ci,I,i,275,3,2416.699999809265,144860.0,9003,WL,B,7.0
1,20.450999975204468,learn,39549.00002479553,Fri May 09 2025 14:30:46 GMT-0400 (Eastern Daylight Time),147476.69999980927,A,cit,I,t,180,3,2616.699999809265,144860.0,9003,WL,B,7.0
1,20.58400011062622,learn,39415.99988937378,Fri May 09 2025 14:30:46 GMT-0400 (Eastern Daylight Time),147610.39999961853,A,city,I,y,117,3,2750.3999996185303,144860.0,9003,WL,B,7.0
1,20.967000007629395,learn,39032.999992370605,Fri May 09 2025 14:30:46 GMT-0400 (Eastern Daylight Time),147993.19999980927,A,cityenter,I,enter,353,3,3133.199999809265,144860.0,9003,WL,B,7.0
1,40.58400011062622,learn,19415.99988937378,Fri May 09 2025 14:30:46 GMT-0400 (Eastern Daylight Time),167610.0,A,c,I,c,19595,3,19616.300000190735,147993.69999980927,9003,WL,B,8.0
1,40.801000118255615,learn,19198.999881744385,Fri May 09 2025 14:30:46 GMT-0400 (Eastern Daylight Time),167827.0999994278,A,ca,I,a,191,3,19833.39999961853,147993.69999980927,9003,WL,B,8.0
1,41.01800012588501,learn,18981.99987411499,Fri May 09 2025 14:30:46 GMT-0400 (Eastern Daylight Time),168043.69999980927,A,cab,I,b,188,3,20050.0,147993.69999980927,9003,WL,B,8.0
1,41.21799993515015,learn,18782.000064849854,Fri May 09 2025 14:30:46 GMT-0400 (Eastern Daylight Time),168243.69999980927,A,cabi,I,i,175,3,20250.0,147993.69999980927,9003,WL,B,8.0
1,41.43499994277954,learn,18565.00005722046,Fri May 09 2025 14:30:46 GMT-0400 (Eastern Daylight Time),168460.5999994278,A,cabin,I,n,197,3,20466.89999961853,147993.69999980927,9003,WL,B,8.0
1,41.75099992752075,learn,18249.000072479248,Fri May 09 2025 14:30:46 GMT-0400 (Eastern Daylight Time),168776.5,A,cabinenter,I,enter,292,3,20782.800000190735,147993.69999980927,9003,WL,B,8.0
1,60.01800012588501,learn,-18.000125885009766,Fri May 09 2025 14:30:46 GMT-0400 (Eastern Daylight Time),187043.89999961853,A,None,I,None,18259,3,18266.89999961853,168777.0,9003,WL,B,9.0
2,0.9500000476837158,learn,59049.999952316284,Fri May 09 2025 14:30:46 GMT-0400 (Eastern Daylight Time),266343.69999980927,A,s,I,s,936,3,949.5,265394.19999980927,9003,WL,B,1.0
2,1.2669999599456787,learn,58733.00004005432,Fri May 09 2025 14:30:46 GMT-0400 (Eastern Daylight Time),266660.5,A,st,I,t,297,3,1266.3000001907349,265394.19999980927,9003,WL,B,1.0
2,1.5339999198913574,learn,58466.00008010864,Fri May 09 2025 14:30:46 GMT-0400 (Eastern Daylight Time),266927.39999961853,A,str,I,r,251,3,1533.1999998092651,265394.19999980927,9003,WL,B,1.0
2,1.866999864578247,learn,58133.00013542175,Fri May 09 2025 14:30:46 GMT-0400 (Eastern Daylight Time),267260.5,A,stre,I,e,325,3,1866.3000001907349,265394.19999980927,9003,WL,B,1.0
2,2.049999952316284,learn,57950.000047683716,Fri May 09 2025 14:30:46 GMT-0400 (Eastern Daylight Time),267443.69999980927,A,stree,I,e,156,3,2049.5,265394.19999980927,9003,WL,B,1.0
2,2.2990000247955322,learn,57700.99997520447,Fri May 09 2025 14:30:46 GMT-0400 (Eastern Daylight Time),267693.19999980927,A,street,I,t,230,3,2299.0,265394.19999980927,9003,WL,B,1.0
2,2.8489999771118164,learn,57151.00002288818,Fri May 09 2025 14:30:46 GMT-0400 (Eastern Daylight Time),268243.30000019073,A,streetenter,I,enter,544,3,2849.1000003814697,265394.19999980927,9003,WL,B,1.0
2,4.650000095367432,learn,55349.99990463257,Fri May 09 2025 14:30:46 GMT-0400 (Eastern Daylight Time),270043.80000019073,A,f,I,f,1786,3,1800.2000007629395,268243.5999994278,9003,WL,B,2.0
2,4.83299994468689,learn,55167.00005531311,Fri May 09 2025 14:30:46 GMT-0400 (Eastern Daylight Time),270227.0999994278,A,fi,I,i,167,3,1983.5,268243.5999994278,9003,WL,B,2.0
2,5.016999959945679,learn,54983.00004005432,Fri May 09 2025 14:30:46 GMT-0400 (Eastern Daylight Time),270410.39999961853,A,fir,I,r,157,3,2166.800000190735,268243.5999994278,9003,WL,B,2.0
2,5.200000047683716,learn,54799.999952316284,Fri May 09 2025 14:30:46 GMT-0400 (Eastern Daylight Time),270593.5999994278,A,fire,I,e,159,3,2350.0,268243.5999994278,9003,WL,B,2.0
2,5.549000024795532,learn,54450.99997520447,Fri May 09 2025 14:30:46 GMT-0400 (Eastern Daylight Time),270943.19999980927,A,fireenter,I,enter,335,3,2699.6000003814697,268243.5999994278,9003,WL,B,2.0
2,6.433000087738037,learn,53566.99991226196,Fri May 09 2025 14:30:46 GMT-0400 (Eastern Daylight Time),271827.0999994278,A,a,I,a,861,3,883.5,270943.5999994278,9003,WL,B,3.0
2,6.650000095367432,learn,53349.99990463257,Fri May 09 2025 14:30:46 GMT-0400 (Eastern Daylight Time),272043.69999980927,A,ar,I,r,199,3,1100.1000003814697,270943.5999994278,9003,WL,B,3.0
2,6.983000040054321,learn,53016.99995994568,Fri May 09 2025 14:30:46 GMT-0400 (Eastern Daylight Time),272377.0999994278,A,arm,I,m,302,3,1433.5,270943.5999994278,9003,WL,B,3.0
2,7.398999929428101,learn,52601.0000705719,Fri May 09 2025 14:30:46 GMT-0400 (Eastern Daylight Time),272793.19999980927,A,armenter,I,enter,400,3,1849.6000003814697,270943.5999994278,9003,WL,B,3.0
2,7.815999984741211,learn,52184.00001525879,Fri May 09 2025 14:30:46 GMT-0400 (Eastern Daylight Time),273210.30000019073,A,d,I,d,394,3,416.70000076293945,272793.5999994278,9003,WL,B,4.0
2,8.032999992370605,learn,51967.000007629395,Fri May 09 2025 14:30:46 GMT-0400 (Eastern Daylight Time),273427.19999980927,A,do,I,o,197,3,633.6000003814697,272793.5999994278,9003,WL,B,4.0
2,8.233000040054321,learn,51766.99995994568,Fri May 09 2025 14:30:46 GMT-0400 (Eastern Daylight Time),273627.0999994278,A,doo,I,o,174,3,833.5,272793.5999994278,9003,WL,B,4.0
2,8.41700005531311,learn,51582.99994468689,Fri May 09 2025 14:30:46 GMT-0400 (Eastern Daylight Time),273810.39999961853,A,door,I,r,150,3,1016.8000001907349,272793.5999994278,9003,WL,B,4.0
2,8.683000087738037,learn,51316.99991226196,Fri May 09 2025 14:30:46 GMT-0400 (Eastern Daylight Time),274076.39999961853,A,doorenter,I,enter,254,3,1282.8000001907349,272793.5999994278,9003,WL,B,4.0
2,10.233000040054321,learn,49766.99995994568,Fri May 09 2025 14:30:46 GMT-0400 (Eastern Daylight Time),275627.0999994278,A,s,I,s,1529,3,1550.1999998092651,274076.89999961853,9003,WL,B,5.0
2,10.467000007629395,learn,49532.999992370605,Fri May 09 2025 14:30:46 GMT-0400 (Eastern Daylight Time),275860.5999994278,A,st,I,t,215,3,1783.6999998092651,274076.89999961853,9003,WL,B,5.0
2,10.766999959945679,learn,49233.00004005432,Fri May 09 2025 14:30:46 GMT-0400 (Eastern Daylight Time),276160.39999961853,A,sta,I,a,267,3,2083.5,274076.89999961853,9003,WL,B,5.0
2,11.282999992370605,learn,48717.000007629395,Fri May 09 2025 14:30:46 GMT-0400 (Eastern Daylight Time),276676.69999980927,A,star,I,r,506,3,2599.800000190735,274076.89999961853,9003,WL,B,5.0
2,11.6489999294281,learn,48351.0000705719,Fri May 09 2025 14:30:46 GMT-0400 (Eastern Daylight Time),277043.19999980927,A,starenter,I,enter,350,3,2966.300000190735,274076.89999961853,9003,WL,B,5.0
2,12.049999952316284,learn,47950.000047683716,Fri May 09 2025 14:30:46 GMT-0400 (Eastern Daylight Time),277443.5999994278,A,w,I,w,386,3,400.0,277043.5999994278,9003,WL,B,6.0
2,12.33299994468689,learn,47667.00005531311,Fri May 09 2025 14:30:46 GMT-0400 (Eastern Daylight Time),277727.0999994278,A,wi,I,i,270,3,683.5,277043.5999994278,9003,WL,B,6.0
2,12.532999992370605,learn,47467.000007629395,Fri May 09 2025 14:30:46 GMT-0400 (Eastern Daylight Time),277927.0,A,wif,I,f,179,3,883.4000005722046,277043.5999994278,9003,WL,B,6.0
2,12.733000040054321,learn,47266.99995994568,Fri May 09 2025 14:30:46 GMT-0400 (Eastern Daylight Time),278127.0999994278,A,wife,I,e,178,3,1083.5,277043.5999994278,9003,WL,B,6.0
2,13.183000087738037,learn,46816.99991226196,Fri May 09 2025 14:30:46 GMT-0400 (Eastern Daylight Time),278576.5,A,wifeenter,I,enter,424,3,1532.9000005722046,277043.5999994278,9003,WL,B,6.0
2,15.266999959945679,learn,44733.00004005432,Fri May 09 2025 14:30:46 GMT-0400 (Eastern Daylight Time),280660.39999961853,A,c,I,c,2060,3,2083.5,278576.89999961853,9003,WL,B,7.0
2,15.448999881744385,learn,44551.000118255615,Fri May 09 2025 14:30:46 GMT-0400 (Eastern Daylight Time),280843.19999980927,A,ca,I,a,162,3,2266.300000190735,278576.89999961853,9003,WL,B,7.0
2,15.683000087738037,learn,44316.99991226196,Fri May 09 2025 14:30:46 GMT-0400 (Eastern Daylight Time),281076.5999994278,A,cab,I,b,226,3,2499.699999809265,278576.89999961853,9003,WL,B,7.0
2,15.882999897003174,learn,44117.000102996826,Fri May 09 2025 14:30:46 GMT-0400 (Eastern Daylight Time),281277.0,A,cabi,I,i,178,3,2700.1000003814697,278576.89999961853,9003,WL,B,7.0
2,16.115999937057495,learn,43884.000062942505,Fri May 09 2025 14:30:46 GMT-0400 (Eastern Daylight Time),281510.30000019073,A,cabin,I,n,211,3,2933.4000005722046,278576.89999961853,9003,WL,B,7.0
2,16.433000087738037,learn,43566.99991226196,Fri May 09 2025 14:30:46 GMT-0400 (Eastern Daylight Time),281826.5,A,cabinenter,I,enter,298,3,3249.6000003814697,278576.89999961853,9003,WL,B,7.0
2,18.98300004005432,learn,41016.99995994568,Fri May 09 2025 14:30:46 GMT-0400 (Eastern Daylight Time),284377.0,A,w,I,w,2530,3,2550.1000003814697,281826.89999961853,9003,WL,B,8.0
2,19.15000009536743,learn,40849.99990463257,Fri May 09 2025 14:30:46 GMT-0400 (Eastern Daylight Time),284543.5999994278,A,wi,I,i,153,3,2716.699999809265,281826.89999961853,9003,WL,B,8.0
2,19.366999864578247,learn,40633.00013542175,Fri May 09 2025 14:30:46 GMT-0400 (Eastern Daylight Time),284760.30000019073,A,win,I,n,194,3,2933.4000005722046,281826.89999961853,9003,WL,B,8.0
2,19.499000072479248,learn,40500.99992752075,Fri May 09 2025 14:30:46 GMT-0400 (Eastern Daylight Time),284893.0999994278,A,wind,I,d,112,3,3066.199999809265,281826.89999961853,9003,WL,B,8.0
2,19.683000087738037,learn,40316.99991226196,Fri May 09 2025 14:30:46 GMT-0400 (Eastern Daylight Time),285077.0,A,windo,I,o,168,3,3250.1000003814697,281826.89999961853,9003,WL,B,8.0
2,20.23300004005432,learn,39766.99995994568,Fri May 09 2025 14:30:46 GMT-0400 (Eastern Daylight Time),285626.89999961853,A,window,I,w,533,3,3800.0,281826.89999961853,9003,WL,B,8.0
2,20.56599998474121,learn,39434.00001525879,Fri May 09 2025 14:30:46 GMT-0400 (Eastern Daylight Time),285960.0,A,windowenter,I,enter,308,3,4133.10000038147,281826.89999961853,9003,WL,B,8.0
2,23.816999912261963,learn,36183.00008773804,Fri May 09 2025 14:30:46 GMT-0400 (Eastern Daylight Time),289210.39999961853,A,a,I,a,3228,3,3250.0999994277954,285960.30000019073,9003,WL,B,9.0
2,24.06599998474121,learn,35934.00001525879,Fri May 09 2025 14:30:46 GMT-0400 (Eastern Daylight Time),289460.19999980927,A,ar,I,r,238,3,3499.8999996185303,285960.30000019073,9003,WL,B,9.0
2,24.282999992370605,learn,35717.000007629395,Fri May 09 2025 14:30:46 GMT-0400 (Eastern Daylight Time),289677.19999980927,A,arm,I,m,198,3,3716.8999996185303,285960.30000019073,9003,WL,B,9.0
2,24.66700005531311,learn,35332.99994468689,Fri May 09 2025 14:30:46 GMT-0400 (Eastern Daylight Time),290060.89999961853,A,armenter,I,enter,357,3,4100.599999427795,285960.30000019073,9003,WL,B,9.0
2,37.61699986457825,learn,22383.000135421753,Fri May 09 2025 14:30:46 GMT-0400 (Eastern Daylight Time),303010.39999961853,A,l,I,l,12936,3,12949.099999427795,290061.30000019073,9003,WL,B,10.0
2,37.81599998474121,learn,22184.00001525879,Fri May 09 2025 14:30:46 GMT-0400 (Eastern Daylight Time),303210.39999961853,A,la,I,a,174,3,13149.099999427795,290061.30000019073,9003,WL,B,10.0
2,37.98300004005432,learn,22016.99995994568,Fri May 09 2025 14:30:46 GMT-0400 (Eastern Daylight Time),303376.39999961853,A,lak,I,k,133,3,13315.099999427795,290061.30000019073,9003,WL,B,10.0
2,38.16700005531311,learn,21832.99994468689,Fri May 09 2025 14:30:46 GMT-0400 (Eastern Daylight Time),303560.39999961853,A,lake,I,e,166,3,13499.099999427795,290061.30000019073,9003,WL,B,10.0
2,38.3989999294281,learn,21601.0000705719,Fri May 09 2025 14:30:46 GMT-0400 (Eastern Daylight Time),303793.30000019073,A,lakeenter,I,enter,208,3,13732.0,290061.30000019073,9003,WL,B,10.0
2,40.632999897003174,learn,19367.000102996826,Fri May 09 2025 14:30:46 GMT-0400 (Eastern Daylight Time),306027.30000019073,A,p,I,p,2211,3,2233.7000007629395,303793.5999994278,9003,WL,B,11.0
2,40.91700005531311,learn,19082.99994468689,Fri May 09 2025 14:30:46 GMT-0400 (Eastern Daylight Time),306310.39999961853,A,pi,I,i,265,3,2516.800000190735,303793.5999994278,9003,WL,B,11.0
2,41.132999897003174,learn,18867.000102996826,Fri May 09 2025 14:30:46 GMT-0400 (Eastern Daylight Time),306527.0,A,pip,I,p,204,3,2733.4000005722046,303793.5999994278,9003,WL,B,11.0
2,41.31599998474121,learn,18684.00001525879,Fri May 09 2025 14:30:46 GMT-0400 (Eastern Daylight Time),306710.30000019073,A,pipe,I,e,163,3,2916.7000007629395,303793.5999994278,9003,WL,B,11.0
2,41.532999992370605,learn,18467.000007629395,Fri May 09 2025 14:30:46 GMT-0400 (Eastern Daylight Time),306926.5,A,pipeenter,I,enter,204,3,3132.9000005722046,303793.5999994278,9003,WL,B,11.0
2,46.68300008773804,learn,13316.999912261963,Fri May 09 2025 14:30:46 GMT-0400 (Eastern Daylight Time),312077.0999994278,A,f,I,f,5135,3,5150.199999809265,306926.89999961853,9003,WL,B,12.0
2,46.93300008773804,learn,13066.999912261963,Fri May 09 2025 14:30:46 GMT-0400 (Eastern Daylight Time),312327.0,A,fi,I,i,226,3,5400.10000038147,306926.89999961853,9003,WL,B,12.0
2,47.08399987220764,learn,12916.000127792358,Fri May 09 2025 14:30:46 GMT-0400 (Eastern Daylight Time),312478.0,A,fir,I,r,137,3,5551.10000038147,306926.89999961853,9003,WL,B,12.0
2,47.26699995994568,learn,12733.000040054321,Fri May 09 2025 14:30:46 GMT-0400 (Eastern Daylight Time),312660.5,A,fire,I,e,164,3,5733.60000038147,306926.89999961853,9003,WL,B,12.0
2,47.43300008773804,learn,12566.999912261963,Fri May 09 2025 14:30:46 GMT-0400 (Eastern Daylight Time),312826.5999994278,A,fireenter,I,enter,140,3,5899.699999809265,306926.89999961853,9003,WL,B,12.0
2,60.01699995994568,learn,-16.99995994567871,Fri May 09 2025 14:30:46 GMT-0400 (Eastern Daylight Time),325410.39999961853,A,None,I,None,12577,3,12583.5,312826.89999961853,9003,WL,B,13.0
3,0.6999998092651367,learn,59300.00019073486,Fri May 09 2025 14:30:46 GMT-0400 (Eastern Daylight Time),398027.0999994278,A,s,I,s,683,3,699.6999998092651,397327.39999961853,9003,WL,B,1.0
3,1.0499999523162842,learn,58950.000047683716,Fri May 09 2025 14:30:46 GMT-0400 (Eastern Daylight Time),398377.0999994278,A,st,I,t,326,3,1049.6999998092651,397327.39999961853,9003,WL,B,1.0
3,1.3339998722076416,learn,58666.00012779236,Fri May 09 2025 14:30:46 GMT-0400 (Eastern Daylight Time),398660.5,A,str,I,r,273,3,1333.1000003814697,397327.39999961853,9003,WL,B,1.0
3,1.6669998168945312,learn,58333.00018310547,Fri May 09 2025 14:30:46 GMT-0400 (Eastern Daylight Time),398993.69999980927,A,stre,I,e,317,3,1666.3000001907349,397327.39999961853,9003,WL,B,1.0
3,1.8499999046325684,learn,58150.00009536743,Fri May 09 2025 14:30:46 GMT-0400 (Eastern Daylight Time),399177.0999994278,A,stree,I,e,161,3,1849.6999998092651,397327.39999961853,9003,WL,B,1.0
3,2.066999912261963,learn,57933.00008773804,Fri May 09 2025 14:30:46 GMT-0400 (Eastern Daylight Time),399393.5999994278,A,street,I,t,191,3,2066.199999809265,397327.39999961853,9003,WL,B,1.0
3,2.4499998092651367,learn,57550.00019073486,Fri May 09 2025 14:30:46 GMT-0400 (Eastern Daylight Time),399776.5,A,streetenter,I,enter,367,3,2449.1000003814697,397327.39999961853,9003,WL,B,1.0
3,2.866999864578247,learn,57133.00013542175,Fri May 09 2025 14:30:46 GMT-0400 (Eastern Daylight Time),400193.69999980927,A,g,I,g,395,3,416.80000019073486,399776.89999961853,9003,WL,B,2.0
3,3.066999912261963,learn,56933.00008773804,Fri May 09 2025 14:30:46 GMT-0400 (Eastern Daylight Time),400393.69999980927,A,gr,I,r,176,3,616.8000001907349,399776.89999961853,9003,WL,B,2.0
3,3.366999864578247,learn,56633.00013542175,Fri May 09 2025 14:30:46 GMT-0400 (Eastern Daylight Time),400693.5999994278,A,gra,I,a,287,3,916.6999998092651,399776.89999961853,9003,WL,B,2.0
3,3.633999824523926,learn,56366.000175476074,Fri May 09 2025 14:30:46 GMT-0400 (Eastern Daylight Time),400960.39999961853,A,gras,I,s,253,3,1183.5,399776.89999961853,9003,WL,B,2.0
3,3.8499999046325684,learn,56150.00009536743,Fri May 09 2025 14:30:46 GMT-0400 (Eastern Daylight Time),401176.5999994278,A,grass,I,s,192,3,1399.6999998092651,399776.89999961853,9003,WL,B,2.0
3,4.1499998569488525,learn,55850.00014305115,Fri May 09 2025 14:30:46 GMT-0400 (Eastern Daylight Time),401476.5,A,grassenter,I,enter,289,3,1699.6000003814697,399776.89999961853,9003,WL,B,2.0
3,8.699999809265137,learn,51300.00019073486,Fri May 09 2025 14:30:46 GMT-0400 (Eastern Daylight Time),406027.0999994278,A,d,I,d,4527,3,4550.099999427795,401477.0,9003,WL,B,3.0
3,8.916999816894531,learn,51083.00018310547,Fri May 09 2025 14:30:46 GMT-0400 (Eastern Daylight Time),406243.80000019073,A,do,I,o,191,3,4766.800000190735,401477.0,9003,WL,B,3.0
3,9.116999864578247,learn,50883.00013542175,Fri May 09 2025 14:30:46 GMT-0400 (Eastern Daylight Time),406443.69999980927,A,doo,I,o,165,3,4966.699999809265,401477.0,9003,WL,B,3.0
3,9.266999959945679,learn,50733.00004005432,Fri May 09 2025 14:30:46 GMT-0400 (Eastern Daylight Time),406593.69999980927,A,door,I,r,135,3,5116.699999809265,401477.0,9003,WL,B,3.0
3,9.549999952316284,learn,50450.000047683716,Fri May 09 2025 14:30:46 GMT-0400 (Eastern Daylight Time),406876.5,A,doorenter,I,enter,269,3,5399.5,401477.0,9003,WL,B,3.0
3,9.983999967575073,learn,50016.00003242493,Fri May 09 2025 14:30:46 GMT-0400 (Eastern Daylight Time),407310.39999961853,A,a,I,a,417,3,433.5999994277954,406876.80000019073,9003,WL,B,4.0
3,10.217000007629395,learn,49782.999992370605,Fri May 09 2025 14:30:46 GMT-0400 (Eastern Daylight Time),407543.80000019073,A,ar,I,r,203,3,667.0,406876.80000019073,9003,WL,B,4.0
3,10.599999904632568,learn,49400.00009536743,Fri May 09 2025 14:30:46 GMT-0400 (Eastern Daylight Time),407927.0999994278,A,arm,I,m,371,3,1050.2999992370605,406876.80000019073,9003,WL,B,4.0
3,11.0,learn,49000.0,Fri May 09 2025 14:30:46 GMT-0400 (Eastern Daylight Time),408326.39999961853,A,armenter,I,enter,385,3,1449.5999994277954,406876.80000019073,9003,WL,B,4.0
3,11.616999864578247,learn,48383.00013542175,Fri May 09 2025 14:30:46 GMT-0400 (Eastern Daylight Time),408943.69999980927,A,s,I,s,598,3,616.8999996185303,408326.80000019073,9003,WL,B,5.0
3,11.849999904632568,learn,48150.00009536743,Fri May 09 2025 14:30:46 GMT-0400 (Eastern Daylight Time),409177.0999994278,A,st,I,t,218,3,850.2999992370605,408326.80000019073,9003,WL,B,5.0
3,12.033999919891357,learn,47966.00008010864,Fri May 09 2025 14:30:46 GMT-0400 (Eastern Daylight Time),409360.39999961853,A,sta,I,a,159,3,1033.5999994277954,408326.80000019073,9003,WL,B,5.0
3,12.149999856948853,learn,47850.00014305115,Fri May 09 2025 14:30:46 GMT-0400 (Eastern Daylight Time),409476.69999980927,A,star,I,r,98,3,1149.8999996185303,408326.80000019073,9003,WL,B,5.0
3,12.416999816894531,learn,47583.00018310547,Fri May 09 2025 14:30:46 GMT-0400 (Eastern Daylight Time),409743.80000019073,A,start,I,t,246,3,1417.0,408326.80000019073,9003,WL,B,5.0
3,12.833999872207642,learn,47166.00012779236,Fri May 09 2025 14:30:46 GMT-0400 (Eastern Daylight Time),410160.30000019073,A,star,I,backspace,395,3,1833.5,408326.80000019073,9003,WL,B,5.0
3,13.25,learn,46750.0,Fri May 09 2025 14:30:46 GMT-0400 (Eastern Daylight Time),410576.5,A,starenter,I,enter,400,3,2249.699999809265,408326.80000019073,9003,WL,B,5.0
3,13.932999849319458,learn,46067.00015068054,Fri May 09 2025 14:30:46 GMT-0400 (Eastern Daylight Time),411259.80000019073,A,w,I,w,668,3,682.9000005722046,410576.89999961853,9003,WL,B,6.0
3,14.166999816894531,learn,45833.00018310547,Fri May 09 2025 14:30:46 GMT-0400 (Eastern Daylight Time),411493.5,A,wi,I,i,225,3,916.6000003814697,410576.89999961853,9003,WL,B,6.0
3,14.333999872207642,learn,45666.00012779236,Fri May 09 2025 14:30:46 GMT-0400 (Eastern Daylight Time),411660.39999961853,A,wif,I,f,156,3,1083.5,410576.89999961853,9003,WL,B,6.0
3,14.616999864578247,learn,45383.00013542175,Fri May 09 2025 14:30:46 GMT-0400 (Eastern Daylight Time),411943.69999980927,A,wife,I,e,264,3,1366.8000001907349,410576.89999961853,9003,WL,B,6.0
3,14.899999856948853,learn,45100.00014305115,Fri May 09 2025 14:30:46 GMT-0400 (Eastern Daylight Time),412226.5,A,wifeenter,I,enter,258,3,1649.6000003814697,410576.89999961853,9003,WL,B,6.0
3,15.366999864578247,learn,44633.00013542175,Fri May 09 2025 14:30:46 GMT-0400 (Eastern Daylight Time),412693.69999980927,A,w,I,w,459,3,466.80000019073486,412226.89999961853,9003,WL,B,7.0
3,15.649999856948853,learn,44350.00014305115,Fri May 09 2025 14:30:46 GMT-0400 (Eastern Daylight Time),412977.19999980927,A,wi,I,i,260,3,750.3000001907349,412226.89999961853,9003,WL,B,7.0
3,15.866999864578247,learn,44133.00013542175,Fri May 09 2025 14:30:46 GMT-0400 (Eastern Daylight Time),413193.69999980927,A,win,I,n,190,3,966.8000001907349,412226.89999961853,9003,WL,B,7.0
3,16.01699995994568,learn,43983.00004005432,Fri May 09 2025 14:30:46 GMT-0400 (Eastern Daylight Time),413343.69999980927,A,wind,I,d,127,3,1116.8000001907349,412226.89999961853,9003,WL,B,7.0
3,16.199999809265137,learn,43800.00019073486,Fri May 09 2025 14:30:46 GMT-0400 (Eastern Daylight Time),413527.0999994278,A,windo,I,o,161,3,1300.1999998092651,412226.89999961853,9003,WL,B,7.0
3,16.432999849319458,learn,43567.00015068054,Fri May 09 2025 14:30:46 GMT-0400 (Eastern Daylight Time),413760.0,A,window,I,w,218,3,1533.1000003814697,412226.89999961853,9003,WL,B,7.0
3,16.882999897003174,learn,43117.000102996826,Fri May 09 2025 14:30:46 GMT-0400 (Eastern Daylight Time),414209.89999961853,A,windowenter,I,enter,433,3,1983.0,412226.89999961853,9003,WL,B,7.0
3,17.549999952316284,learn,42450.000047683716,Fri May 09 2025 14:30:46 GMT-0400 (Eastern Daylight Time),414876.69999980927,A,c,I,c,659,3,666.3999996185303,414210.30000019073,9003,WL,B,8.0
3,17.699999809265137,learn,42300.00019073486,Fri May 09 2025 14:30:46 GMT-0400 (Eastern Daylight Time),415027.0999994278,A,ci,I,i,134,3,816.7999992370605,414210.30000019073,9003,WL,B,8.0
3,17.93399977684021,learn,42066.00022315979,Fri May 09 2025 14:30:46 GMT-0400 (Eastern Daylight Time),415260.69999980927,A,cit,I,t,221,3,1050.3999996185303,414210.30000019073,9003,WL,B,8.0
3,18.066999912261963,learn,41933.00008773804,Fri May 09 2025 14:30:46 GMT-0400 (Eastern Daylight Time),415393.69999980927,A,city,I,y,119,3,1183.3999996185303,414210.30000019073,9003,WL,B,8.0
3,18.41599988937378,learn,41584.00011062622,Fri May 09 2025 14:30:46 GMT-0400 (Eastern Daylight Time),415743.19999980927,A,cityenter,I,enter,328,3,1532.8999996185303,414210.30000019073,9003,WL,B,8.0
3,20.08299994468689,learn,39917.00005531311,Fri May 09 2025 14:30:46 GMT-0400 (Eastern Daylight Time),417410.0999994278,A,d,I,d,1654,3,1666.5999994277954,415743.5,9003,WL,B,9.0
3,20.616999864578247,learn,39383.00013542175,Fri May 09 2025 14:30:46 GMT-0400 (Eastern Daylight Time),417943.69999980927,A,do,I,o,504,3,2200.199999809265,415743.5,9003,WL,B,9.0
3,21.25,learn,38750.0,Fri May 09 2025 14:30:46 GMT-0400 (Eastern Daylight Time),418577.19999980927,A,d,I,backspace,611,3,2833.699999809265,415743.5,9003,WL,B,9.0
3,21.467000007629395,learn,38532.999992370605,Fri May 09 2025 14:30:46 GMT-0400 (Eastern Daylight Time),418793.69999980927,A,,I,backspace,193,3,3050.199999809265,415743.5,9003,WL,B,9.0
3,23.08299994468689,learn,36917.00005531311,Fri May 09 2025 14:30:46 GMT-0400 (Eastern Daylight Time),420410.39999961853,A,p,I,p,1592,3,4666.89999961853,415743.5,9003,WL,B,9.0
3,23.366999864578247,learn,36633.00013542175,Fri May 09 2025 14:30:46 GMT-0400 (Eastern Daylight Time),420693.69999980927,A,pu,I,u,263,3,4950.199999809265,415743.5,9003,WL,B,9.0
3,23.649999856948853,learn,36350.00014305115,Fri May 09 2025 14:30:46 GMT-0400 (Eastern Daylight Time),420976.89999961853,A,pup,I,p,261,3,5233.39999961853,415743.5,9003,WL,B,9.0
3,24.182999849319458,learn,35817.00015068054,Fri May 09 2025 14:30:46 GMT-0400 (Eastern Daylight Time),421510.30000019073,A,pupi,I,i,520,3,5766.800000190735,415743.5,9003,WL,B,9.0
3,24.483999967575073,learn,35516.00003242493,Fri May 09 2025 14:30:46 GMT-0400 (Eastern Daylight Time),421810.39999961853,A,pupil,I,l,275,3,6066.89999961853,415743.5,9003,WL,B,9.0
3,24.982999801635742,learn,35017.00019836426,Fri May 09 2025 14:30:46 GMT-0400 (Eastern Daylight Time),422309.80000019073,A,pupilenter,I,enter,487,3,6566.300000190735,415743.5,9003,WL,B,9.0
3,26.25,learn,33750.0,Fri May 09 2025 14:30:46 GMT-0400 (Eastern Daylight Time),423577.19999980927,A,c,I,c,1248,3,1266.8999996185303,422310.30000019073,9003,WL,B,10.0
3,26.449999809265137,learn,33550.00019073486,Fri May 09 2025 14:30:46 GMT-0400 (Eastern Daylight Time),423777.0999994278,A,ca,I,a,186,3,1466.7999992370605,422310.30000019073,9003,WL,B,10.0
3,26.699999809265137,learn,33300.00019073486,Fri May 09 2025 14:30:46 GMT-0400 (Eastern Daylight Time),424027.0,A,cab,I,b,221,3,1716.6999998092651,422310.30000019073,9003,WL,B,10.0
3,26.883999824523926,learn,33116.000175476074,Fri May 09 2025 14:30:46 GMT-0400 (Eastern Daylight Time),424210.39999961853,A,cabi,I,i,167,3,1900.0999994277954,422310.30000019073,9003,WL,B,10.0
3,27.116999864578247,learn,32883.00013542175,Fri May 09 2025 14:30:46 GMT-0400 (Eastern Daylight Time),424443.69999980927,A,cabin,I,n,216,3,2133.3999996185303,422310.30000019073,9003,WL,B,10.0
3,27.465999841690063,learn,32534.000158309937,Fri May 09 2025 14:30:46 GMT-0400 (Eastern Daylight Time),424793.19999980927,A,cabinenter,I,enter,325,3,2482.8999996185303,422310.30000019073,9003,WL,B,10.0
3,28.09999990463257,learn,31900.00009536743,Fri May 09 2025 14:30:46 GMT-0400 (Eastern Daylight Time),425426.69999980927,A,l,I,l,611,3,633.1000003814697,424793.5999994278,9003,WL,B,11.0
3,28.532999992370605,learn,31467.000007629395,Fri May 09 2025 14:30:46 GMT-0400 (Eastern Daylight Time),425860.30000019073,A,li,I,i,425,3,1066.7000007629395,424793.5999994278,9003,WL,B,11.0
3,28.93399977684021,learn,31066.00022315979,Fri May 09 2025 14:30:46 GMT-0400 (Eastern Daylight Time),426260.30000019073,A,l,I,backspace,390,3,1466.7000007629395,424793.5999994278,9003,WL,B,11.0
3,29.09999990463257,learn,30900.00009536743,Fri May 09 2025 14:30:46 GMT-0400 (Eastern Daylight Time),426427.0999994278,A,la,I,a,143,3,1633.5,424793.5999994278,9003,WL,B,11.0
3,29.26699995994568,learn,30733.00004005432,Fri May 09 2025 14:30:46 GMT-0400 (Eastern Daylight Time),426593.5999994278,A,lak,I,k,135,3,1800.0,424793.5999994278,9003,WL,B,11.0
3,29.43399977684021,learn,30566.00022315979,Fri May 09 2025 14:30:46 GMT-0400 (Eastern Daylight Time),426760.5,A,lake,I,e,144,3,1966.9000005722046,424793.5999994278,9003,WL,B,11.0
3,29.81599998474121,learn,30184.00001525879,Fri May 09 2025 14:30:46 GMT-0400 (Eastern Daylight Time),427143.19999980927,A,lakeenter,I,enter,360,3,2349.6000003814697,424793.5999994278,9003,WL,B,11.0
3,32.51699995994568,learn,27483.00004005432,Fri May 09 2025 14:30:46 GMT-0400 (Eastern Daylight Time),429843.39999961853,A,d,I,d,2677,3,2699.8999996185303,427143.5,9003,WL,B,12.0
3,32.86699986457825,learn,27133.000135421753,Fri May 09 2025 14:30:46 GMT-0400 (Eastern Daylight Time),430193.69999980927,A,do,I,o,335,3,3050.199999809265,427143.5,9003,WL,B,12.0
3,33.14999985694885,learn,26850.000143051147,Fri May 09 2025 14:30:46 GMT-0400 (Eastern Daylight Time),430476.5,A,doo,I,o,272,3,3333.0,427143.5,9003,WL,B,12.0
3,34.115999937057495,learn,25884.000062942505,Fri May 09 2025 14:30:46 GMT-0400 (Eastern Daylight Time),431443.0999994278,A,do,I,backspace,950,3,4299.599999427795,427143.5,9003,WL,B,12.0
3,34.33399987220764,learn,25666.00012779236,Fri May 09 2025 14:30:46 GMT-0400 (Eastern Daylight Time),431660.39999961853,A,d,I,backspace,202,3,4516.89999961853,427143.5,9003,WL,B,12.0
3,34.53399991989136,learn,25466.000080108643,Fri May 09 2025 14:30:46 GMT-0400 (Eastern Daylight Time),431860.5,A,,I,backspace,189,3,4717.0,427143.5,9003,WL,B,12.0
3,34.73299980163574,learn,25267.000198364258,Fri May 09 2025 14:30:46 GMT-0400 (Eastern Daylight Time),432060.39999961853,A,,I,backspace,171,3,4916.89999961853,427143.5,9003,WL,B,12.0
3,52.69999980926514,learn,7300.000190734863,Fri May 09 2025 14:30:46 GMT-0400 (Eastern Daylight Time),450027.0999994278,A,c,I,c,17950,3,22883.599999427795,427143.5,9003,WL,B,12.0
3,52.967000007629395,learn,7032.9999923706055,Fri May 09 2025 14:30:46 GMT-0400 (Eastern Daylight Time),450293.5999994278,A,ci,I,i,252,3,23150.099999427795,427143.5,9003,WL,B,12.0
3,53.25,learn,6750.0,Fri May 09 2025 14:30:46 GMT-0400 (Eastern Daylight Time),450577.19999980927,A,cit,I,t,261,3,23433.699999809265,427143.5,9003,WL,B,12.0
3,53.34999990463257,learn,6650.000095367432,Fri May 09 2025 14:30:46 GMT-0400 (Eastern Daylight Time),450676.69999980927,A,city,I,y,89,3,23533.199999809265,427143.5,9003,WL,B,12.0
3,53.68299984931946,learn,6317.000150680542,Fri May 09 2025 14:30:46 GMT-0400 (Eastern Daylight Time),451009.80000019073,A,cityenter,I,enter,309,3,23866.300000190735,427143.5,9003,WL,B,12.0
3,57.58399987220764,learn,2416.0001277923584,Fri May 09 2025 14:30:46 GMT-0400 (Eastern Daylight Time),454910.39999961853,A,d,I,d,3884,3,3900.300000190735,451010.0999994278,9003,WL,B,13.0
3,57.81699991226196,learn,2183.000087738037,Fri May 09 2025 14:30:46 GMT-0400 (Eastern Daylight Time),455143.69999980927,A,do,I,o,212,3,4133.60000038147,451010.0999994278,9003,WL,B,13.0
3,58.03399991989136,learn,1966.0000801086426,Fri May 09 2025 14:30:46 GMT-0400 (Eastern Daylight Time),455360.39999961853,A,doo,I,o,202,3,4350.300000190735,451010.0999994278,9003,WL,B,13.0
3,58.23299980163574,learn,1767.0001983642578,Fri May 09 2025 14:30:46 GMT-0400 (Eastern Daylight Time),455560.30000019073,A,door,I,r,179,3,4550.200000762939,451010.0999994278,9003,WL,B,13.0
3,58.51599979400635,learn,1484.0002059936523,Fri May 09 2025 14:30:46 GMT-0400 (Eastern Daylight Time),455843.19999980927,A,doorenter,I,enter,249,3,4833.10000038147,451010.0999994278,9003,WL,B,13.0
3,60.01699995994568,learn,-16.99995994567871,Fri May 09 2025 14:30:46 GMT-0400 (Eastern Daylight Time),457343.69999980927,A,None,I,None,1494,3,1500.1999998092651,455843.5,9003,WL,B,14.0
4,0.5999999046325684,learn,59400.00009536743,Fri May 09 2025 14:30:46 GMT-0400 (Eastern Daylight Time),528993.8999996185,A,s,I,s,577,3,599.8999996185303,528394.0,9003,WL,B,1.0
4,1.2669999599456787,learn,58733.00004005432,Fri May 09 2025 14:30:46 GMT-0400 (Eastern Daylight Time),529660.5,A,st,I,t,644,3,1266.5,528394.0,9003,WL,B,1.0
4,1.5329999923706055,learn,58467.000007629395,Fri May 09 2025 14:30:46 GMT-0400 (Eastern Daylight Time),529927.0999994278,A,str,I,r,244,3,1533.0999994277954,528394.0,9003,WL,B,1.0
4,1.866999864578247,learn,58133.00013542175,Fri May 09 2025 14:30:46 GMT-0400 (Eastern Daylight Time),530260.3999996185,A,stre,I,e,323,3,1866.3999996185303,528394.0,9003,WL,B,1.0
4,2.0329999923706055,learn,57967.000007629395,Fri May 09 2025 14:30:46 GMT-0400 (Eastern Daylight Time),530427.0999994278,A,stree,I,e,151,3,2033.0999994277954,528394.0,9003,WL,B,1.0
4,2.2669999599456787,learn,57733.00004005432,Fri May 09 2025 14:30:46 GMT-0400 (Eastern Daylight Time),530660.3999996185,A,street,I,t,197,3,2266.3999996185303,528394.0,9003,WL,B,1.0
4,2.632999897003174,learn,57367.000102996826,Fri May 09 2025 14:30:46 GMT-0400 (Eastern Daylight Time),531026.5999994278,A,streetenter,I,enter,349,3,2632.5999994277954,528394.0,9003,WL,B,1.0
4,3.183000087738037,learn,56816.99991226196,Fri May 09 2025 14:30:46 GMT-0400 (Eastern Daylight Time),531576.5,A,g,I,g,538,3,549.5,531027.0,9003,WL,B,2.0
4,3.433000087738037,learn,56566.99991226196,Fri May 09 2025 14:30:46 GMT-0400 (Eastern Daylight Time),531827.0999994278,A,gr,I,r,229,3,800.0999994277954,531027.0,9003,WL,B,2.0
4,3.683000087738037,learn,56316.99991226196,Fri May 09 2025 14:30:46 GMT-0400 (Eastern Daylight Time),532077.0,A,gra,I,a,226,3,1050.0,531027.0,9003,WL,B,2.0
4,3.9670000076293945,learn,56032.999992370605,Fri May 09 2025 14:30:46 GMT-0400 (Eastern Daylight Time),532360.3999996185,A,gras,I,s,270,3,1333.3999996185303,531027.0,9003,WL,B,2.0
4,4.165999889373779,learn,55834.00011062622,Fri May 09 2025 14:30:46 GMT-0400 (Eastern Daylight Time),532559.8999996185,A,grass,I,s,178,3,1532.8999996185303,531027.0,9003,WL,B,2.0
4,4.382999897003174,learn,55617.000102996826,Fri May 09 2025 14:30:46 GMT-0400 (Eastern Daylight Time),532776.5,A,grassenter,I,enter,204,3,1749.5,531027.0,9003,WL,B,2.0
4,5.066999912261963,learn,54933.00008773804,Fri May 09 2025 14:30:46 GMT-0400 (Eastern Daylight Time),533460.5,A,d,I,d,676,3,683.6000003814697,532776.8999996185,9003,WL,B,3.0
4,5.365999937057495,learn,54634.000062942505,Fri May 09 2025 14:30:46 GMT-0400 (Eastern Daylight Time),533760.3000001907,A,do,I,o,278,3,983.4000005722046,532776.8999996185,9003,WL,B,3.0
4,5.549999952316284,learn,54450.000047683716,Fri May 09 2025 14:30:46 GMT-0400 (Eastern Daylight Time),533943.8000001907,A,doo,I,o,169,3,1166.9000005722046,532776.8999996185,9003,WL,B,3.0
4,5.799999952316284,learn,54200.000047683716,Fri May 09 2025 14:30:46 GMT-0400 (Eastern Daylight Time),534193.5999994278,A,door,I,r,235,3,1416.6999998092651,532776.8999996185,9003,WL,B,3.0
4,6.098999977111816,learn,53901.00002288818,Fri May 09 2025 14:30:46 GMT-0400 (Eastern Daylight Time),534493.3000001907,A,doorenter,I,enter,279,3,1716.4000005722046,532776.8999996185,9003,WL,B,3.0
4,6.450000047683716,learn,53549.999952316284,Fri May 09 2025 14:30:46 GMT-0400 (Eastern Daylight Time),534843.6999998093,A,a,I,a,328,3,350.1000003814697,534493.5999994278,9003,WL,B,4.0
4,6.650000095367432,learn,53349.99990463257,Fri May 09 2025 14:30:46 GMT-0400 (Eastern Daylight Time),535043.6999998093,A,ar,I,r,173,3,550.1000003814697,534493.5999994278,9003,WL,B,4.0
4,7.0329999923706055,learn,52967.000007629395,Fri May 09 2025 14:30:46 GMT-0400 (Eastern Daylight Time),535427.0999994278,A,arm,I,m,359,3,933.5,534493.5999994278,9003,WL,B,4.0
4,7.365999937057495,learn,52634.000062942505,Fri May 09 2025 14:30:46 GMT-0400 (Eastern Daylight Time),535759.8000001907,A,armenter,I,enter,317,3,1266.2000007629395,534493.5999994278,9003,WL,B,4.0
4,7.733000040054321,learn,52266.99995994568,Fri May 09 2025 14:30:46 GMT-0400 (Eastern Daylight Time),536127.0999994278,A,s,I,s,358,3,366.8999996185303,535760.1999998093,9003,WL,B,5.0
4,8.0,learn,52000.0,Fri May 09 2025 14:30:46 GMT-0400 (Eastern Daylight Time),536393.6999998093,A,st,I,t,244,3,633.5,535760.1999998093,9003,WL,B,5.0
4,8.183000087738037,learn,51816.99991226196,Fri May 09 2025 14:30:46 GMT-0400 (Eastern Daylight Time),536577.0,A,sta,I,a,160,3,816.8000001907349,535760.1999998093,9003,WL,B,5.0
4,8.299999952316284,learn,51700.000047683716,Fri May 09 2025 14:30:46 GMT-0400 (Eastern Daylight Time),536693.5999994278,A,star,I,r,96,3,933.3999996185303,535760.1999998093,9003,WL,B,5.0
4,8.516000032424927,learn,51483.99996757507,Fri May 09 2025 14:30:46 GMT-0400 (Eastern Daylight Time),536910.3000001907,A,start,I,t,205,3,1150.1000003814697,535760.1999998093,9003,WL,B,5.0
4,8.950000047683716,learn,51049.999952316284,Fri May 09 2025 14:30:46 GMT-0400 (Eastern Daylight Time),537343.6999998093,A,star,I,backspace,403,3,1583.5,535760.1999998093,9003,WL,B,5.0
4,9.282999992370605,learn,50717.000007629395,Fri May 09 2025 14:30:46 GMT-0400 (Eastern Daylight Time),537676.5999994278,A,starenter,I,enter,321,3,1916.3999996185303,535760.1999998093,9003,WL,B,5.0
4,9.766000032424927,learn,50233.99996757507,Fri May 09 2025 14:30:46 GMT-0400 (Eastern Daylight Time),538160.3999996185,A,w,I,w,465,3,483.5,537676.8999996185,9003,WL,B,6.0
4,10.049999952316284,learn,49950.000047683716,Fri May 09 2025 14:30:46 GMT-0400 (Eastern Daylight Time),538443.8000001907,A,wi,I,i,260,3,766.9000005722046,537676.8999996185,9003,WL,B,6.0
4,10.33299994468689,learn,49667.00005531311,Fri May 09 2025 14:30:46 GMT-0400 (Eastern Daylight Time),538727.0,A,wif,I,f,262,3,1050.1000003814697,537676.8999996185,9003,WL,B,6.0
4,10.599999904632568,learn,49400.00009536743,Fri May 09 2025 14:30:46 GMT-0400 (Eastern Daylight Time),538993.6999998093,A,wife,I,e,241,3,1316.8000001907349,537676.8999996185,9003,WL,B,6.0
4,10.8989999294281,learn,49101.0000705719,Fri May 09 2025 14:30:46 GMT-0400 (Eastern Daylight Time),539293.0999994278,A,wifeenter,I,enter,280,3,1616.1999998092651,537676.8999996185,9003,WL,B,6.0
4,11.650000095367432,learn,48349.99990463257,Fri May 09 2025 14:30:46 GMT-0400 (Eastern Daylight Time),540043.6999998093,A,c,I,c,728,3,750.1999998092651,539293.5,9003,WL,B,7.0
4,11.900000095367432,learn,48099.99990463257,Fri May 09 2025 14:30:46 GMT-0400 (Eastern Daylight Time),540293.5999994278,A,ci,I,i,239,3,1000.0999994277954,539293.5,9003,WL,B,7.0
4,12.766000032424927,learn,47233.99996757507,Fri May 09 2025 14:30:46 GMT-0400 (Eastern Daylight Time),541160.3000001907,A,cit,I,t,844,3,1866.8000001907349,539293.5,9003,WL,B,7.0
4,12.933000087738037,learn,47066.99991226196,Fri May 09 2025 14:30:46 GMT-0400 (Eastern Daylight Time),541327.0999994278,A,city,I,y,146,3,2033.5999994277954,539293.5,9003,WL,B,7.0
4,13.249000072479248,learn,46750.99992752075,Fri May 09 2025 14:30:46 GMT-0400 (Eastern Daylight Time),541643.3000001907,A,cityenter,I,enter,298,3,2349.800000190735,539293.5,9003,WL,B,7.0
4,13.83299994468689,learn,46167.00005531311,Fri May 09 2025 14:30:46 GMT-0400 (Eastern Daylight Time),542227.0,A,w,I,w,571,3,583.4000005722046,541643.5999994278,9003,WL,B,8.0
4,14.032999992370605,learn,45967.000007629395,Fri May 09 2025 14:30:46 GMT-0400 (Eastern Daylight Time),542427.0999994278,A,wi,I,i,181,3,783.5,541643.5999994278,9003,WL,B,8.0
4,14.266999959945679,learn,45733.00004005432,Fri May 09 2025 14:30:46 GMT-0400 (Eastern Daylight Time),542660.3999996185,A,win,I,n,198,3,1016.8000001907349,541643.5999994278,9003,WL,B,8.0
4,14.483000040054321,learn,45516.99995994568,Fri May 09 2025 14:30:46 GMT-0400 (Eastern Daylight Time),542877.0,A,wind,I,d,198,3,1233.4000005722046,541643.5999994278,9003,WL,B,8.0
4,14.983000040054321,learn,45016.99995994568,Fri May 09 2025 14:30:46 GMT-0400 (Eastern Daylight Time),543377.0,A,windo,I,o,476,3,1733.4000005722046,541643.5999994278,9003,WL,B,8.0
4,15.132999897003174,learn,44867.000102996826,Fri May 09 2025 14:30:46 GMT-0400 (Eastern Daylight Time),543527.0999994278,A,window,I,w,129,3,1883.5,541643.5999994278,9003,WL,B,8.0
4,15.448999881744385,learn,44551.000118255615,Fri May 09 2025 14:30:46 GMT-0400 (Eastern Daylight Time),543843.1999998093,A,windowenter,I,enter,287,3,2199.6000003814697,541643.5999994278,9003,WL,B,8.0
4,17.282999992370605,learn,42717.000007629395,Fri May 09 2025 14:30:46 GMT-0400 (Eastern Daylight Time),545676.8999996185,A,p,I,p,1826,3,1833.3999996185303,543843.5,9003,WL,B,9.0
4,17.816999912261963,learn,42183.00008773804,Fri May 09 2025 14:30:46 GMT-0400 (Eastern Daylight Time),546210.3999996185,A,pi,I,i,509,3,2366.8999996185303,543843.5,9003,WL,B,9.0
4,18.066999912261963,learn,41933.00008773804,Fri May 09 2025 14:30:46 GMT-0400 (Eastern Daylight Time),546460.3999996185,A,pip,I,p,231,3,2616.8999996185303,543843.5,9003,WL,B,9.0
4,18.299999952316284,learn,41700.000047683716,Fri May 09 2025 14:30:46 GMT-0400 (Eastern Daylight Time),546693.5,A,pipe,I,e,220,3,2850.0,543843.5,9003,WL,B,9.0
4,18.615999937057495,learn,41384.000062942505,Fri May 09 2025 14:30:46 GMT-0400 (Eastern Daylight Time),547009.8000001907,A,pipeenter,I,enter,297,3,3166.300000190735,543843.5,9003,WL,B,9.0
4,20.950000047683716,learn,39049.999952316284,Fri May 09 2025 14:30:46 GMT-0400 (Eastern Daylight Time),549343.6999998093,A,s,I,s,2316,3,2333.5,547010.1999998093,9003,WL,B,10.0
4,21.200000047683716,learn,38799.999952316284,Fri May 09 2025 14:30:46 GMT-0400 (Eastern Daylight Time),549593.8000001907,A,sk,I,k,227,3,2583.6000003814697,547010.1999998093,9003,WL,B,10.0
4,21.532999992370605,learn,38467.000007629395,Fri May 09 2025 14:30:46 GMT-0400 (Eastern Daylight Time),549927.1999998093,A,ski,I,i,303,3,2917.0,547010.1999998093,9003,WL,B,10.0
4,21.799999952316284,learn,38200.000047683716,Fri May 09 2025 14:30:46 GMT-0400 (Eastern Daylight Time),550193.6999998093,A,skin,I,n,245,3,3183.5,547010.1999998093,9003,WL,B,10.0
4,22.098999977111816,learn,37901.00002288818,Fri May 09 2025 14:30:46 GMT-0400 (Eastern Daylight Time),550493.1999998093,A,skinenter,I,enter,287,3,3483.0,547010.1999998093,9003,WL,B,10.0
4,22.782999992370605,learn,37217.000007629395,Fri May 09 2025 14:30:46 GMT-0400 (Eastern Daylight Time),551176.8999996185,A,f,I,f,672,3,683.3999996185303,550493.5,9003,WL,B,11.0
4,22.950000047683716,learn,37049.999952316284,Fri May 09 2025 14:30:46 GMT-0400 (Eastern Daylight Time),551343.5,A,fi,I,i,146,3,850.0,550493.5,9003,WL,B,11.0
4,23.132999897003174,learn,36867.000102996826,Fri May 09 2025 14:30:46 GMT-0400 (Eastern Daylight Time),551527.0,A,fir,I,r,162,3,1033.5,550493.5,9003,WL,B,11.0
4,23.40000009536743,learn,36599.99990463257,Fri May 09 2025 14:30:46 GMT-0400 (Eastern Daylight Time),551793.5999994278,A,fire,I,e,243,3,1300.0999994277954,550493.5,9003,WL,B,11.0
4,23.598999977111816,learn,36401.00002288818,Fri May 09 2025 14:30:46 GMT-0400 (Eastern Daylight Time),551993.1999998093,A,fireenter,I,enter,176,3,1499.6999998092651,550493.5,9003,WL,B,11.0
4,25.881999969482422,learn,34118.00003051758,Fri May 09 2025 14:30:46 GMT-0400 (Eastern Daylight Time),554276.3000001907,A,c,I,c,2274,3,2282.7000007629395,551993.5999994278,9003,WL,B,12.0
4,26.016000032424927,learn,33983.99996757507,Fri May 09 2025 14:30:46 GMT-0400 (Eastern Daylight Time),554409.6999998093,A,cl,I,l,120,3,2416.1000003814697,551993.5999994278,9003,WL,B,12.0
4,26.25,learn,33750.0,Fri May 09 2025 14:30:46 GMT-0400 (Eastern Daylight Time),554643.6999998093,A,clo,I,o,211,3,2650.1000003814697,551993.5999994278,9003,WL,B,12.0
4,26.366999864578247,learn,33633.00013542175,Fri May 09 2025 14:30:46 GMT-0400 (Eastern Daylight Time),554760.3999996185,A,cloc,I,c,94,3,2766.800000190735,551993.5999994278,9003,WL,B,12.0
4,26.683000087738037,learn,33316.99991226196,Fri May 09 2025 14:30:46 GMT-0400 (Eastern Daylight Time),555077.0999994278,A,clock,I,k,293,3,3083.5,551993.5999994278,9003,WL,B,12.0
4,26.966000080108643,learn,33033.99991989136,Fri May 09 2025 14:30:46 GMT-0400 (Eastern Daylight Time),555359.8999996185,A,clockenter,I,enter,267,3,3366.300000190735,551993.5999994278,9003,WL,B,12.0
4,33.26699995994568,learn,26733.00004005432,Fri May 09 2025 14:30:46 GMT-0400 (Eastern Daylight Time),561660.6999998093,A,c,I,c,6293,3,6300.300000190735,555360.3999996185,9003,WL,B,13.0
4,33.48300004005432,learn,26516.99995994568,Fri May 09 2025 14:30:46 GMT-0400 (Eastern Daylight Time),561876.6999998093,A,ca,I,a,206,3,6516.300000190735,555360.3999996185,9003,WL,B,13.0
4,33.73300004005432,learn,26266.99995994568,Fri May 09 2025 14:30:46 GMT-0400 (Eastern Daylight Time),562127.0999994278,A,cab,I,b,221,3,6766.699999809265,555360.3999996185,9003,WL,B,13.0
4,33.96600008010864,learn,26033.999919891357,Fri May 09 2025 14:30:46 GMT-0400 (Eastern Daylight Time),562360.3999996185,A,cabi,I,i,212,3,7000.0,555360.3999996185,9003,WL,B,13.0
4,34.18300008773804,learn,25816.999912261963,Fri May 09 2025 14:30:46 GMT-0400 (Eastern Daylight Time),562577.0999994278,A,cabin,I,n,194,3,7216.699999809265,555360.3999996185,9003,WL,B,13.0
4,34.467000007629395,learn,25532.999992370605,Fri May 09 2025 14:30:46 GMT-0400 (Eastern Daylight Time),562860.8999996185,A,cabinenter,I,enter,273,3,7500.5,555360.3999996185,9003,WL,B,13.0
4,34.884000062942505,learn,25115.999937057495,Fri May 09 2025 14:30:46 GMT-0400 (Eastern Daylight Time),563277.8999996185,A,l,I,l,409,3,416.69999980926514,562861.1999998093,9003,WL,B,14.0
4,35.06699991226196,learn,24933.000087738037,Fri May 09 2025 14:30:46 GMT-0400 (Eastern Daylight Time),563460.3999996185,A,la,I,a,173,3,599.1999998092651,562861.1999998093,9003,WL,B,14.0
4,35.59999990463257,learn,24400.00009536743,Fri May 09 2025 14:30:46 GMT-0400 (Eastern Daylight Time),563993.3000001907,A,lak,I,k,500,3,1132.1000003814697,562861.1999998093,9003,WL,B,14.0
4,35.799999952316284,learn,24200.000047683716,Fri May 09 2025 14:30:46 GMT-0400 (Eastern Daylight Time),564193.8000001907,A,lake,I,e,178,3,1332.6000003814697,562861.1999998093,9003,WL,B,14.0
4,36.032999992370605,learn,23967.000007629395,Fri May 09 2025 14:30:46 GMT-0400 (Eastern Daylight Time),564426.5,A,lakeenter,I,enter,208,3,1565.3000001907349,562861.1999998093,9003,WL,B,14.0
4,60.01600003242493,learn,-16.000032424926758,Fri May 09 2025 14:30:46 GMT-0400 (Eastern Daylight Time),588410.3000001907,A,None,I,None,23977,3,23983.400000572205,564426.8999996185,9003,WL,B,15.0
5,0.8840000629425049,learn,60000.0,Fri May 09 2025 14:30:46 GMT-0400 (Eastern Daylight Time),660410.8000001907,A,s,I,s,868,3,883.5,659527.3000001907,9003,WL,B,1.0
5,1.2339999675750732,learn,60000.0,Fri May 09 2025 14:30:46 GMT-0400 (Eastern Daylight Time),660760.6999998093,A,st,I,t,336,3,1233.3999996185303,659527.3000001907,9003,WL,B,1.0
5,1.4830000400543213,learn,60000.0,Fri May 09 2025 14:30:46 GMT-0400 (Eastern Daylight Time),661009.8999996185,A,str,I,r,233,3,1482.5999994277954,659527.3000001907,9003,WL,B,1.0
5,1.8000001907348633,learn,60000.0,Fri May 09 2025 14:30:46 GMT-0400 (Eastern Daylight Time),661327.0999994278,A,stre,I,e,300,3,1799.7999992370605,659527.3000001907,9003,WL,B,1.0
5,1.9670000076293945,learn,60000.0,Fri May 09 2025 14:30:46 GMT-0400 (Eastern Daylight Time),661493.5999994278,A,stree,I,e,155,3,1966.2999992370605,659527.3000001907,9003,WL,B,1.0
5,2.25,learn,60000.0,Fri May 09 2025 14:30:46 GMT-0400 (Eastern Daylight Time),661777.0999994278,A,street,I,t,266,3,2249.7999992370605,659527.3000001907,9003,WL,B,1.0
5,2.7330000400543213,learn,60000.0,Fri May 09 2025 14:30:46 GMT-0400 (Eastern Daylight Time),662259.8999996185,A,streetenter,I,enter,463,3,2732.5999994277954,659527.3000001907,9003,WL,B,1.0
5,3.317000150680542,learn,60000.0,Fri May 09 2025 14:30:46 GMT-0400 (Eastern Daylight Time),662843.6999998093,A,g,I,g,569,3,583.5,662260.1999998093,9003,WL,B,2.0
5,3.567000150680542,learn,60000.0,Fri May 09 2025 14:30:46 GMT-0400 (Eastern Daylight Time),663093.6999998093,A,gr,I,r,231,3,833.5,662260.1999998093,9003,WL,B,2.0
5,3.8340001106262207,learn,60000.0,Fri May 09 2025 14:30:46 GMT-0400 (Eastern Daylight Time),663360.5,A,gra,I,a,245,3,1100.3000001907349,662260.1999998093,9003,WL,B,2.0
5,4.1000001430511475,learn,60000.0,Fri May 09 2025 14:30:46 GMT-0400 (Eastern Daylight Time),663626.8999996185,A,gras,I,s,238,3,1366.6999998092651,662260.1999998093,9003,WL,B,2.0
5,4.2840001583099365,learn,60000.0,Fri May 09 2025 14:30:46 GMT-0400 (Eastern Daylight Time),663810.3000001907,A,grass,I,s,157,3,1550.1000003814697,662260.1999998093,9003,WL,B,2.0
5,4.516000032424927,learn,60000.0,Fri May 09 2025 14:30:46 GMT-0400 (Eastern Daylight Time),664043.1999998093,A,grassenter,I,enter,213,3,1783.0,662260.1999998093,9003,WL,B,2.0
5,4.91700005531311,learn,60000.0,Fri May 09 2025 14:30:46 GMT-0400 (Eastern Daylight Time),664443.6999998093,A,d,I,d,386,3,400.19999980926514,664043.5,9003,WL,B,3.0
5,5.183000087738037,learn,60000.0,Fri May 09 2025 14:30:46 GMT-0400 (Eastern Daylight Time),664710.0999994278,A,do,I,o,255,3,666.5999994277954,664043.5,9003,WL,B,3.0
5,5.434000015258789,learn,60000.0,Fri May 09 2025 14:30:46 GMT-0400 (Eastern Daylight Time),664960.3999996185,A,doo,I,o,220,3,916.8999996185303,664043.5,9003,WL,B,3.0
5,5.7170000076293945,learn,60000.0,Fri May 09 2025 14:30:46 GMT-0400 (Eastern Daylight Time),665243.8999996185,A,door,I,r,266,3,1200.3999996185303,664043.5,9003,WL,B,3.0
5,6.166000127792358,learn,60000.0,Fri May 09 2025 14:30:46 GMT-0400 (Eastern Daylight Time),665693.3000001907,A,doorenter,I,enter,430,3,1649.8000001907349,664043.5,9003,WL,B,3.0
5,6.634000062942505,learn,60000.0,Fri May 09 2025 14:30:46 GMT-0400 (Eastern Daylight Time),666160.3999996185,A,a,I,a,456,3,466.69999980926514,665693.6999998093,9003,WL,B,4.0
5,6.884000062942505,learn,60000.0,Fri May 09 2025 14:30:46 GMT-0400 (Eastern Daylight Time),666410.3000001907,A,ar,I,r,225,3,716.6000003814697,665693.6999998093,9003,WL,B,4.0
5,7.2170000076293945,learn,60000.0,Fri May 09 2025 14:30:46 GMT-0400 (Eastern Daylight Time),666743.6999998093,A,arm,I,m,311,3,1050.0,665693.6999998093,9003,WL,B,4.0
5,7.5329999923706055,learn,60000.0,Fri May 09 2025 14:30:46 GMT-0400 (Eastern Daylight Time),667059.5999994278,A,armenter,I,enter,306,3,1365.8999996185303,665693.6999998093,9003,WL,B,4.0
5,8.550000190734863,learn,60000.0,Fri May 09 2025 14:30:46 GMT-0400 (Eastern Daylight Time),668076.5,A,s,I,s,1009,3,1016.6000003814697,667059.8999996185,9003,WL,B,5.0
5,8.850000143051147,learn,60000.0,Fri May 09 2025 14:30:46 GMT-0400 (Eastern Daylight Time),668377.0999994278,A,st,I,t,281,3,1317.1999998092651,667059.8999996185,9003,WL,B,5.0
5,9.067000150680542,learn,60000.0,Fri May 09 2025 14:30:46 GMT-0400 (Eastern Daylight Time),668593.6999998093,A,sta,I,a,194,3,1533.8000001907349,667059.8999996185,9003,WL,B,5.0
5,9.184000015258789,learn,60000.0,Fri May 09 2025 14:30:46 GMT-0400 (Eastern Daylight Time),668710.3999996185,A,star,I,r,88,3,1650.5,667059.8999996185,9003,WL,B,5.0
5,9.466000080108643,learn,60000.0,Fri May 09 2025 14:30:46 GMT-0400 (Eastern Daylight Time),668993.3000001907,A,starenter,I,enter,258,3,1933.4000005722046,667059.8999996185,9003,WL,B,5.0
5,10.034000158309937,learn,60000.0,Fri May 09 2025 14:30:46 GMT-0400 (Eastern Daylight Time),669560.3999996185,A,w,I,w,548,3,566.8000001907349,668993.5999994278,9003,WL,B,6.0
5,10.25,learn,60000.0,Fri May 09 2025 14:30:46 GMT-0400 (Eastern Daylight Time),669777.0999994278,A,wi,I,i,201,3,783.5,668993.5999994278,9003,WL,B,6.0
5,10.450000047683716,learn,60000.0,Fri May 09 2025 14:30:46 GMT-0400 (Eastern Daylight Time),669977.0999994278,A,wif,I,f,186,3,983.5,668993.5999994278,9003,WL,B,6.0
5,10.650000095367432,learn,60000.0,Fri May 09 2025 14:30:46 GMT-0400 (Eastern Daylight Time),670177.0999994278,A,wife,I,e,185,3,1183.5,668993.5999994278,9003,WL,B,6.0
5,10.983000040054321,learn,60000.0,Fri May 09 2025 14:30:46 GMT-0400 (Eastern Daylight Time),670509.8999996185,A,wifeenter,I,enter,321,3,1516.3000001907349,668993.5999994278,9003,WL,B,6.0
5,13.284000158309937,learn,60000.0,Fri May 09 2025 14:30:46 GMT-0400 (Eastern Daylight Time),672810.3999996185,A,w,I,w,2287,3,2300.300000190735,670510.0999994278,9003,WL,B,7.0
5,13.517000198364258,learn,60000.0,Fri May 09 2025 14:30:46 GMT-0400 (Eastern Daylight Time),673043.8000001907,A,wi,I,i,213,3,2533.7000007629395,670510.0999994278,9003,WL,B,7.0
5,13.717000007629395,learn,60000.0,Fri May 09 2025 14:30:46 GMT-0400 (Eastern Daylight Time),673243.6999998093,A,win,I,n,175,3,2733.6000003814697,670510.0999994278,9003,WL,B,7.0
5,13.867000102996826,learn,60000.0,Fri May 09 2025 14:30:46 GMT-0400 (Eastern Daylight Time),673393.8000001907,A,wind,I,d,119,3,2883.7000007629395,670510.0999994278,9003,WL,B,7.0
5,14.117000102996826,learn,60000.0,Fri May 09 2025 14:30:46 GMT-0400 (Eastern Daylight Time),673643.8000001907,A,windo,I,o,216,3,3133.7000007629395,670510.0999994278,9003,WL,B,7.0
5,14.384000062942505,learn,60000.0,Fri May 09 2025 14:30:46 GMT-0400 (Eastern Daylight Time),673910.5,A,window,I,w,237,3,3400.4000005722046,670510.0999994278,9003,WL,B,7.0
5,14.666000127792358,learn,60000.0,Fri May 09 2025 14:30:46 GMT-0400 (Eastern Daylight Time),674193.3000001907,A,windowenter,I,enter,259,3,3683.2000007629395,670510.0999994278,9003,WL,B,7.0
5,15.16700005531311,learn,60000.0,Fri May 09 2025 14:30:46 GMT-0400 (Eastern Daylight Time),674693.5999994278,A,c,I,c,492,3,500.0,674193.5999994278,9003,WL,B,8.0
5,15.483999967575073,learn,60000.0,Fri May 09 2025 14:30:46 GMT-0400 (Eastern Daylight Time),675010.5,A,ci,I,i,293,3,816.9000005722046,674193.5999994278,9003,WL,B,8.0
5,15.650000095367432,learn,60000.0,Fri May 09 2025 14:30:46 GMT-0400 (Eastern Daylight Time),675176.5,A,cit,I,t,151,3,982.9000005722046,674193.5999994278,9003,WL,B,8.0
5,15.817000150680542,learn,60000.0,Fri May 09 2025 14:30:46 GMT-0400 (Eastern Daylight Time),675343.6999998093,A,city,I,y,148,3,1150.1000003814697,674193.5999994278,9003,WL,B,8.0
5,16.183000087738037,learn,60000.0,Fri May 09 2025 14:30:46 GMT-0400 (Eastern Daylight Time),675709.8999996185,A,cityenter,I,enter,346,3,1516.3000001907349,674193.5999994278,9003,WL,B,8.0
5,16.782999992370605,learn,60000.0,Fri May 09 2025 14:30:46 GMT-0400 (Eastern Daylight Time),676310.3999996185,A,p,I,p,591,3,600.0999994277954,675710.3000001907,9003,WL,B,9.0
5,17.08300018310547,learn,60000.0,Fri May 09 2025 14:30:46 GMT-0400 (Eastern Daylight Time),676610.3000001907,A,pi,I,i,266,3,900.0,675710.3000001907,9003,WL,B,9.0
5,17.284000158309937,learn,60000.0,Fri May 09 2025 14:30:46 GMT-0400 (Eastern Daylight Time),676810.3999996185,A,pip,I,p,183,3,1100.0999994277954,675710.3000001907,9003,WL,B,9.0
5,17.450000047683716,learn,60000.0,Fri May 09 2025 14:30:46 GMT-0400 (Eastern Daylight Time),676977.0,A,pipe,I,e,152,3,1266.6999998092651,675710.3000001907,9003,WL,B,9.0
5,17.683000087738037,learn,60000.0,Fri May 09 2025 14:30:46 GMT-0400 (Eastern Daylight Time),677209.8999996185,A,pipeenter,I,enter,216,3,1499.5999994277954,675710.3000001907,9003,WL,B,9.0
5,18.134000062942505,learn,60000.0,Fri May 09 2025 14:30:46 GMT-0400 (Eastern Daylight Time),677660.5999994278,A,s,I,s,444,3,450.3999996185303,677210.1999998093,9003,WL,B,10.0
5,18.48300004005432,learn,60000.0,Fri May 09 2025 14:30:46 GMT-0400 (Eastern Daylight Time),678010.3999996185,A,sk,I,k,327,3,800.1999998092651,677210.1999998093,9003,WL,B,10.0
5,18.767000198364258,learn,60000.0,Fri May 09 2025 14:30:46 GMT-0400 (Eastern Daylight Time),678293.6999998093,A,ski,I,i,261,3,1083.5,677210.1999998093,9003,WL,B,10.0
5,19.15000009536743,learn,60000.0,Fri May 09 2025 14:30:46 GMT-0400 (Eastern Daylight Time),678676.5999994278,A,skin,I,n,373,3,1466.3999996185303,677210.1999998093,9003,WL,B,10.0
5,19.450000047683716,learn,60000.0,Fri May 09 2025 14:30:46 GMT-0400 (Eastern Daylight Time),678976.5,A,skinenter,I,enter,282,3,1766.3000001907349,677210.1999998093,9003,WL,B,10.0
5,19.950000047683716,learn,60000.0,Fri May 09 2025 14:30:46 GMT-0400 (Eastern Daylight Time),679477.0,A,f,I,f,485,3,500.30000019073486,678976.6999998093,9003,WL,B,11.0
5,20.183000087738037,learn,60000.0,Fri May 09 2025 14:30:46 GMT-0400 (Eastern Daylight Time),679710.3000001907,A,fi,I,i,214,3,733.6000003814697,678976.6999998093,9003,WL,B,11.0
5,20.350000143051147,learn,60000.0,Fri May 09 2025 14:30:46 GMT-0400 (Eastern Daylight Time),679876.8000001907,A,fir,I,r,155,3,900.1000003814697,678976.6999998093,9003,WL,B,11.0
5,20.567000150680542,learn,60000.0,Fri May 09 2025 14:30:46 GMT-0400 (Eastern Daylight Time),680093.5999994278,A,fire,I,e,203,3,1116.8999996185303,678976.6999998093,9003,WL,B,11.0
5,20.866000175476074,learn,60000.0,Fri May 09 2025 14:30:46 GMT-0400 (Eastern Daylight Time),680393.1999998093,A,fireenter,I,enter,266,3,1416.5,678976.6999998093,9003,WL,B,11.0
5,21.267000198364258,learn,60000.0,Fri May 09 2025 14:30:46 GMT-0400 (Eastern Daylight Time),680793.6999998093,A,c,I,c,388,3,400.1000003814697,680393.5999994278,9003,WL,B,12.0
5,21.450000047683716,learn,60000.0,Fri May 09 2025 14:30:46 GMT-0400 (Eastern Daylight Time),680976.8999996185,A,cl,I,l,159,3,583.3000001907349,680393.5999994278,9003,WL,B,12.0
5,21.716000080108643,learn,60000.0,Fri May 09 2025 14:30:46 GMT-0400 (Eastern Daylight Time),681243.3000001907,A,clo,I,o,239,3,849.7000007629395,680393.5999994278,9003,WL,B,12.0
5,21.83400011062622,learn,60000.0,Fri May 09 2025 14:30:46 GMT-0400 (Eastern Daylight Time),681360.3999996185,A,cloc,I,c,107,3,966.8000001907349,680393.5999994278,9003,WL,B,12.0
5,22.15000009536743,learn,60000.0,Fri May 09 2025 14:30:46 GMT-0400 (Eastern Daylight Time),681676.6999998093,A,clock,I,k,307,3,1283.1000003814697,680393.5999994278,9003,WL,B,12.0
5,22.48300004005432,learn,60000.0,Fri May 09 2025 14:30:46 GMT-0400 (Eastern Daylight Time),682009.8999996185,A,clockenter,I,enter,318,3,1616.3000001907349,680393.5999994278,9003,WL,B,12.0
5,24.034000158309937,learn,60000.0,Fri May 09 2025 14:30:46 GMT-0400 (Eastern Daylight Time),683560.3000001907,A,p,I,p,1531,3,1550.1000003814697,682010.1999998093,9003,WL,B,13.0
5,24.25,learn,60000.0,Fri May 09 2025 14:30:46 GMT-0400 (Eastern Daylight Time),683777.0999994278,A,pu,I,u,202,3,1766.8999996185303,682010.1999998093,9003,WL,B,13.0
5,25.450000047683716,learn,60000.0,Fri May 09 2025 14:30:46 GMT-0400 (Eastern Daylight Time),684977.0999994278,A,pup,I,p,1185,3,2966.8999996185303,682010.1999998093,9003,WL,B,13.0
5,25.75,learn,60000.0,Fri May 09 2025 14:30:46 GMT-0400 (Eastern Daylight Time),685276.3999996185,A,pupi,I,i,286,3,3266.199999809265,682010.1999998093,9003,WL,B,13.0
5,26.017000198364258,learn,60000.0,Fri May 09 2025 14:30:46 GMT-0400 (Eastern Daylight Time),685543.8000001907,A,pupil,I,l,249,3,3533.6000003814697,682010.1999998093,9003,WL,B,13.0
5,26.41600012779236,learn,60000.0,Fri May 09 2025 14:30:46 GMT-0400 (Eastern Daylight Time),685943.3000001907,A,pupilenter,I,enter,378,3,3933.1000003814697,682010.1999998093,9003,WL,B,13.0
5,29.034000158309937,learn,60000.0,Fri May 09 2025 14:30:46 GMT-0400 (Eastern Daylight Time),688560.3999996185,A,c,I,c,2606,3,2616.8999996185303,685943.5,9003,WL,B,14.0
5,29.25,learn,60000.0,Fri May 09 2025 14:30:46 GMT-0400 (Eastern Daylight Time),688777.0,A,ca,I,a,195,3,2833.5,685943.5,9003,WL,B,14.0
5,29.450000047683716,learn,60000.0,Fri May 09 2025 14:30:46 GMT-0400 (Eastern Daylight Time),688977.0999994278,A,cab,I,b,184,3,3033.5999994277954,685943.5,9003,WL,B,14.0
5,29.68400001525879,learn,60000.0,Fri May 09 2025 14:30:46 GMT-0400 (Eastern Daylight Time),689210.3999996185,A,cabi,I,i,210,3,3266.8999996185303,685943.5,9003,WL,B,14.0
5,29.91700005531311,learn,60000.0,Fri May 09 2025 14:30:46 GMT-0400 (Eastern Daylight Time),689443.5999994278,A,cabin,I,n,213,3,3500.0999994277954,685943.5,9003,WL,B,14.0
5,30.33400011062622,learn,60000.0,Fri May 09 2025 14:30:46 GMT-0400 (Eastern Daylight Time),689860.8999996185,A,cabinenter,I,enter,397,3,3917.3999996185303,685943.5,9003,WL,B,14.0
5,30.950000047683716,learn,60000.0,Fri May 09 2025 14:30:46 GMT-0400 (Eastern Daylight Time),690476.6999998093,A,l,I,l,608,3,615.3999996185303,689861.3000001907,9003,WL,B,15.0
5,31.08300018310547,learn,60000.0,Fri May 09 2025 14:30:46 GMT-0400 (Eastern Daylight Time),690610.3999996185,A,la,I,a,115,3,749.0999994277954,689861.3000001907,9003,WL,B,15.0
5,31.282999992370605,learn,60000.0,Fri May 09 2025 14:30:46 GMT-0400 (Eastern Daylight Time),690810.3000001907,A,lak,I,k,174,3,949.0,689861.3000001907,9003,WL,B,15.0
5,31.467000007629395,learn,60000.0,Fri May 09 2025 14:30:46 GMT-0400 (Eastern Daylight Time),690993.6999998093,A,lake,I,e,159,3,1132.3999996185303,689861.3000001907,9003,WL,B,15.0
5,31.81599998474121,learn,60000.0,Fri May 09 2025 14:30:46 GMT-0400 (Eastern Daylight Time),691343.1999998093,A,lakeenter,I,enter,328,3,1481.8999996185303,689861.3000001907,9003,WL,B,15.0
6,0.9839999675750732,distr,59016.00003242493,Fri May 09 2025 14:30:46 GMT-0400 (Eastern Daylight Time),766343.8999996185,B,b,I,b,953,3,982.5999994277954,765361.3000001907,9003,WL,B,1.0
6,1.2170000076293945,distr,58782.999992370605,Fri May 09 2025 14:30:46 GMT-0400 (Eastern Daylight Time),766577.0,B,ba,I,a,219,3,1215.6999998092651,765361.3000001907,9003,WL,B,1.0
6,1.8329999446868896,distr,58167.00005531311,Fri May 09 2025 14:30:46 GMT-0400 (Eastern Daylight Time),767193.0999994278,B,bab,I,b,593,3,1831.7999992370605,765361.3000001907,9003,WL,B,1.0
6,2.0339999198913574,distr,57966.00008010864,Fri May 09 2025 14:30:46 GMT-0400 (Eastern Daylight Time),767393.6999998093,B,baby,I,y,181,3,2032.3999996185303,765361.3000001907,9003,WL,B,1.0
6,2.366999864578247,distr,57633.00013542175,Fri May 09 2025 14:30:46 GMT-0400 (Eastern Daylight Time),767726.5,B,babyenter,I,enter,310,3,2365.199999809265,765361.3000001907,9003,WL,B,1.0
6,3.0169999599456787,distr,56983.00004005432,Fri May 09 2025 14:30:46 GMT-0400 (Eastern Daylight Time),768376.8999996185,B,o,I,o,631,3,650.0,767726.8999996185,9003,WL,B,2.0
6,3.133999824523926,distr,56866.000175476074,Fri May 09 2025 14:30:46 GMT-0400 (Eastern Daylight Time),768493.5999994278,B,oc,I,c,105,3,766.6999998092651,767726.8999996185,9003,WL,B,2.0
6,3.383999824523926,distr,56616.000175476074,Fri May 09 2025 14:30:46 GMT-0400 (Eastern Daylight Time),768743.8000001907,B,oce,I,e,237,3,1016.9000005722046,767726.8999996185,9003,WL,B,2.0
6,5.1499998569488525,distr,54850.00014305115,Fri May 09 2025 14:30:46 GMT-0400 (Eastern Daylight Time),770510.3000001907,B,ocea,I,a,1746,3,2783.4000005722046,767726.8999996185,9003,WL,B,2.0
6,5.516999959945679,distr,54483.00004005432,Fri May 09 2025 14:30:46 GMT-0400 (Eastern Daylight Time),770876.8000001907,B,ocean,I,n,356,3,3149.9000005722046,767726.8999996185,9003,WL,B,2.0
6,5.932999849319458,distr,54067.00015068054,Fri May 09 2025 14:30:46 GMT-0400 (Eastern Daylight Time),771293.1999998093,B,oceanenter,I,enter,394,3,3566.300000190735,767726.8999996185,9003,WL,B,2.0
6,6.583999872207642,distr,53416.00012779236,Fri May 09 2025 14:30:46 GMT-0400 (Eastern Daylight Time),771943.8000001907,B,b,I,b,640,3,650.3000001907349,771293.5,9003,WL,B,3.0
6,6.934000015258789,distr,53065.99998474121,Fri May 09 2025 14:30:46 GMT-0400 (Eastern Daylight Time),772293.8000001907,B,ba,I,a,329,3,1000.3000001907349,771293.5,9003,WL,B,3.0
6,7.184000015258789,distr,52815.99998474121,Fri May 09 2025 14:30:46 GMT-0400 (Eastern Daylight Time),772543.6999998093,B,bar,I,r,220,3,1250.1999998092651,771293.5,9003,WL,B,3.0
6,7.482999801635742,distr,52517.00019836426,Fri May 09 2025 14:30:46 GMT-0400 (Eastern Daylight Time),772843.3000001907,B,barenter,I,enter,272,3,1549.8000001907349,771293.5,9003,WL,B,3.0
6,7.750999927520752,distr,52249.00007247925,Fri May 09 2025 14:30:46 GMT-0400 (Eastern Daylight Time),773110.3999996185,B,d,I,d,250,3,266.80000019073486,772843.5999994278,9003,WL,B,4.0
6,7.950999975204468,distr,52049.00002479553,Fri May 09 2025 14:30:46 GMT-0400 (Eastern Daylight Time),773310.5,B,dr,I,r,179,3,466.9000005722046,772843.5999994278,9003,WL,B,4.0
6,8.200999975204468,distr,51799.00002479553,Fri May 09 2025 14:30:46 GMT-0400 (Eastern Daylight Time),773560.3999996185,B,dry,I,y,235,3,716.8000001907349,772843.5999994278,9003,WL,B,4.0
6,8.599999904632568,distr,51400.00009536743,Fri May 09 2025 14:30:46 GMT-0400 (Eastern Daylight Time),773959.8999996185,B,dryenter,I,enter,378,3,1116.3000001907349,772843.5999994278,9003,WL,B,4.0
6,11.184000015258789,distr,48815.99998474121,Fri May 09 2025 14:30:46 GMT-0400 (Eastern Daylight Time),776543.6999998093,B,b,I,b,2574,3,2583.6000003814697,773960.0999994278,9003,WL,B,5.0
6,11.516999959945679,distr,48483.00004005432,Fri May 09 2025 14:30:46 GMT-0400 (Eastern Daylight Time),776877.0,B,bu,I,u,314,3,2916.9000005722046,773960.0999994278,9003,WL,B,5.0
6,11.717000007629395,distr,48282.999992370605,Fri May 09 2025 14:30:46 GMT-0400 (Eastern Daylight Time),777076.6999998093,B,bui,I,i,189,3,3116.6000003814697,773960.0999994278,9003,WL,B,5.0
6,11.949999809265137,distr,48050.00019073486,Fri May 09 2025 14:30:46 GMT-0400 (Eastern Daylight Time),777309.8999996185,B,buil,I,l,211,3,3349.800000190735,773960.0999994278,9003,WL,B,5.0
6,12.033999919891357,distr,47966.00008010864,Fri May 09 2025 14:30:46 GMT-0400 (Eastern Daylight Time),777393.5999994278,B,build,I,d,72,3,3433.5,773960.0999994278,9003,WL,B,5.0
6,12.349999904632568,distr,47650.00009536743,Fri May 09 2025 14:30:46 GMT-0400 (Eastern Daylight Time),777710.3000001907,B,builde,I,e,306,3,3750.2000007629395,773960.0999994278,9003,WL,B,5.0
6,13.0,distr,47000.0,Fri May 09 2025 14:30:46 GMT-0400 (Eastern Daylight Time),778360.1999998093,B,build,I,backspace,635,3,4400.10000038147,773960.0999994278,9003,WL,B,5.0
6,13.349999904632568,distr,46650.00009536743,Fri May 09 2025 14:30:46 GMT-0400 (Eastern Daylight Time),778710.3000001907,B,buildi,I,i,339,3,4750.200000762939,773960.0999994278,9003,WL,B,5.0
6,13.533999919891357,distr,46466.00008010864,Fri May 09 2025 14:30:46 GMT-0400 (Eastern Daylight Time),778893.5999994278,B,buildin,I,n,172,3,4933.5,773960.0999994278,9003,WL,B,5.0
6,13.684000015258789,distr,46315.99998474121,Fri May 09 2025 14:30:46 GMT-0400 (Eastern Daylight Time),779043.5999994278,B,building,I,g,118,3,5083.5,773960.0999994278,9003,WL,B,5.0
6,13.916999816894531,distr,46083.00018310547,Fri May 09 2025 14:30:46 GMT-0400 (Eastern Daylight Time),779276.5,B,buildingenter,I,enter,211,3,5316.400000572205,773960.0999994278,9003,WL,B,5.0
6,14.33299994468689,distr,45667.00005531311,Fri May 09 2025 14:30:46 GMT-0400 (Eastern Daylight Time),779693.1999998093,B,f,I,f,400,3,416.30000019073486,779276.8999996185,9003,WL,B,6.0
6,14.549999952316284,distr,45450.000047683716,Fri May 09 2025 14:30:46 GMT-0400 (Eastern Daylight Time),779909.5,B,fr,I,r,198,3,632.6000003814697,779276.8999996185,9003,WL,B,6.0
6,14.75,distr,45250.0,Fri May 09 2025 14:30:46 GMT-0400 (Eastern Daylight Time),780110.1999998093,B,fri,I,i,184,3,833.3000001907349,779276.8999996185,9003,WL,B,6.0
6,14.91599988937378,distr,45084.00011062622,Fri May 09 2025 14:30:46 GMT-0400 (Eastern Daylight Time),780276.1999998093,B,frie,I,e,138,3,999.3000001907349,779276.8999996185,9003,WL,B,6.0
6,15.049999952316284,distr,44950.000047683716,Fri May 09 2025 14:30:46 GMT-0400 (Eastern Daylight Time),780410.3000001907,B,frien,I,n,119,3,1133.4000005722046,779276.8999996185,9003,WL,B,6.0
6,15.232999801635742,distr,44767.00019836426,Fri May 09 2025 14:30:46 GMT-0400 (Eastern Daylight Time),780593.1999998093,B,friend,I,d,159,3,1316.3000001907349,779276.8999996185,9003,WL,B,6.0
6,15.500999927520752,distr,44499.00007247925,Fri May 09 2025 14:30:46 GMT-0400 (Eastern Daylight Time),780860.8000001907,B,friendenter,I,enter,258,3,1583.9000005722046,779276.8999996185,9003,WL,B,6.0
6,16.650999784469604,distr,43349.000215530396,Fri May 09 2025 14:30:46 GMT-0400 (Eastern Daylight Time),782010.3999996185,B,c,I,c,1137,3,1149.1999998092651,780861.1999998093,9003,WL,B,7.0
6,16.866999864578247,distr,43133.00013542175,Fri May 09 2025 14:30:46 GMT-0400 (Eastern Daylight Time),782227.0,B,ce,I,e,188,3,1365.8000001907349,780861.1999998093,9003,WL,B,7.0
6,17.033999919891357,distr,42966.00008010864,Fri May 09 2025 14:30:46 GMT-0400 (Eastern Daylight Time),782393.6999998093,B,cel,I,l,151,3,1532.5,780861.1999998093,9003,WL,B,7.0
6,17.217000007629395,distr,42782.999992370605,Fri May 09 2025 14:30:46 GMT-0400 (Eastern Daylight Time),782577.0999994278,B,cell,I,l,166,3,1715.8999996185303,780861.1999998093,9003,WL,B,7.0
6,17.51699995994568,distr,42483.00004005432,Fri May 09 2025 14:30:46 GMT-0400 (Eastern Daylight Time),782876.5,B,cellenter,I,enter,287,3,2015.3000001907349,780861.1999998093,9003,WL,B,7.0
6,31.800999879837036,distr,28199.000120162964,Fri May 09 2025 14:30:46 GMT-0400 (Eastern Daylight Time),797160.3999996185,B,p,I,p,14273,3,14283.599999427795,782876.8000001907,9003,WL,B,8.0
6,31.967000007629395,distr,28032.999992370605,Fri May 09 2025 14:30:46 GMT-0400 (Eastern Daylight Time),797327.0,B,pa,I,a,154,3,14450.199999809265,782876.8000001907,9003,WL,B,8.0
6,32.16699981689453,distr,27833.00018310547,Fri May 09 2025 14:30:46 GMT-0400 (Eastern Daylight Time),797526.5,B,pal,I,l,168,3,14649.699999809265,782876.8000001907,9003,WL,B,8.0
6,32.383999824523926,distr,27616.000175476074,Fri May 09 2025 14:30:46 GMT-0400 (Eastern Daylight Time),797743.6999998093,B,pala,I,a,199,3,14866.89999961853,782876.8000001907,9003,WL,B,8.0
6,32.59999990463257,distr,27400.00009536743,Fri May 09 2025 14:30:46 GMT-0400 (Eastern Daylight Time),797960.3999996185,B,palac,I,c,202,3,15083.599999427795,782876.8000001907,9003,WL,B,8.0
6,32.76699995994568,distr,27233.00004005432,Fri May 09 2025 14:30:46 GMT-0400 (Eastern Daylight Time),798127.0999994278,B,palace,I,e,136,3,15250.29999923706,782876.8000001907,9003,WL,B,8.0
6,33.0,distr,27000.0,Fri May 09 2025 14:30:46 GMT-0400 (Eastern Daylight Time),798359.8000001907,B,palaceenter,I,enter,201,3,15483.0,782876.8000001907,9003,WL,B,8.0
6,60.01699995994568,distr,-16.99995994567871,Fri May 09 2025 14:30:46 GMT-0400 (Eastern Daylight Time),825377.3000001907,B,None,I,None,27011,3,27017.20000076294,798360.0999994278,9003,WL,B,9.0
7,2.2339999675750732,immed,57766.00003242493,Fri May 09 2025 14:30:46 GMT-0400 (Eastern Daylight Time),843843.8000001907,A,s,I,s,2216,3,2233.0,841610.8000001907,9003,WL,B,1.0
7,2.5339999198913574,immed,57466.00008010864,Fri May 09 2025 14:30:46 GMT-0400 (Eastern Daylight Time),844143.6999998093,A,st,I,t,284,3,2532.8999996185303,841610.8000001907,9003,WL,B,1.0
7,2.800999879837036,immed,57199.000120162964,Fri May 09 2025 14:30:46 GMT-0400 (Eastern Daylight Time),844410.3999996185,A,str,I,r,242,3,2799.5999994277954,841610.8000001907,9003,WL,B,1.0
7,3.1499998569488525,immed,56850.00014305115,Fri May 09 2025 14:30:46 GMT-0400 (Eastern Daylight Time),844760.3000001907,A,stre,I,e,336,3,3149.5,841610.8000001907,9003,WL,B,1.0
7,3.316999912261963,immed,56683.00008773804,Fri May 09 2025 14:30:46 GMT-0400 (Eastern Daylight Time),844927.0,A,stree,I,e,154,3,3316.199999809265,841610.8000001907,9003,WL,B,1.0
7,3.5339999198913574,immed,56466.00008010864,Fri May 09 2025 14:30:46 GMT-0400 (Eastern Daylight Time),845143.6999998093,A,street,I,t,186,3,3532.8999996185303,841610.8000001907,9003,WL,B,1.0
7,3.8329999446868896,immed,56167.00005531311,Fri May 09 2025 14:30:46 GMT-0400 (Eastern Daylight Time),845443.1999998093,A,streetenter,I,enter,273,3,3832.3999996185303,841610.8000001907,9003,WL,B,1.0
7,4.316999912261963,immed,55683.00008773804,Fri May 09 2025 14:30:46 GMT-0400 (Eastern Daylight Time),845927.0,A,g,I,g,474,3,483.5,845443.5,9003,WL,B,2.0
7,4.550999879837036,immed,55449.000120162964,Fri May 09 2025 14:30:46 GMT-0400 (Eastern Daylight Time),846160.3999996185,A,gr,I,r,219,3,716.8999996185303,845443.5,9003,WL,B,2.0
7,4.934000015258789,immed,55065.99998474121,Fri May 09 2025 14:30:46 GMT-0400 (Eastern Daylight Time),846543.8000001907,A,gra,I,a,363,3,1100.3000001907349,845443.5,9003,WL,B,2.0
7,5.200999975204468,immed,54799.00002479553,Fri May 09 2025 14:30:46 GMT-0400 (Eastern Daylight Time),846810.3999996185,A,gras,I,s,242,3,1366.8999996185303,845443.5,9003,WL,B,2.0
7,5.4009997844696045,immed,54599.000215530396,Fri May 09 2025 14:30:46 GMT-0400 (Eastern Daylight Time),847010.3999996185,A,grass,I,s,185,3,1566.8999996185303,845443.5,9003,WL,B,2.0
7,5.7170000076293945,immed,54282.999992370605,Fri May 09 2025 14:30:46 GMT-0400 (Eastern Daylight Time),847326.3999996185,A,grassenter,I,enter,293,3,1882.8999996185303,845443.5,9003,WL,B,2.0
7,8.250999927520752,immed,51749.00007247925,Fri May 09 2025 14:30:46 GMT-0400 (Eastern Daylight Time),849860.3999996185,A,d,I,d,2526,3,2533.5999994277954,847326.8000001907,9003,WL,B,3.0
7,8.482999801635742,immed,51517.00019836426,Fri May 09 2025 14:30:46 GMT-0400 (Eastern Daylight Time),850093.1999998093,A,do,I,o,214,3,2766.3999996185303,847326.8000001907,9003,WL,B,3.0
7,8.666999816894531,immed,51333.00018310547,Fri May 09 2025 14:30:46 GMT-0400 (Eastern Daylight Time),850276.5999994278,A,doo,I,o,176,3,2949.7999992370605,847326.8000001907,9003,WL,B,3.0
7,8.816999912261963,immed,51183.00008773804,Fri May 09 2025 14:30:46 GMT-0400 (Eastern Daylight Time),850427.0999994278,A,door,I,r,124,3,3100.2999992370605,847326.8000001907,9003,WL,B,3.0
7,9.132999897003174,immed,50867.000102996826,Fri May 09 2025 14:30:46 GMT-0400 (Eastern Daylight Time),850743.1999998093,A,doorenter,I,enter,292,3,3416.3999996185303,847326.8000001907,9003,WL,B,3.0
7,9.483999967575073,immed,50516.00003242493,Fri May 09 2025 14:30:46 GMT-0400 (Eastern Daylight Time),851093.3999996185,A,a,I,a,334,3,349.8999996185303,850743.5,9003,WL,B,4.0
7,9.666999816894531,immed,50333.00018310547,Fri May 09 2025 14:30:46 GMT-0400 (Eastern Daylight Time),851276.8000001907,A,ar,I,r,173,3,533.3000001907349,850743.5,9003,WL,B,4.0
7,10.016999959945679,immed,49983.00004005432,Fri May 09 2025 14:30:46 GMT-0400 (Eastern Daylight Time),851627.0,A,arm,I,m,324,3,883.5,850743.5,9003,WL,B,4.0
7,10.416999816894531,immed,49583.00018310547,Fri May 09 2025 14:30:46 GMT-0400 (Eastern Daylight Time),852026.5999994278,A,armenter,I,enter,382,3,1283.0999994277954,850743.5,9003,WL,B,4.0
7,10.866999864578247,immed,49133.00013542175,Fri May 09 2025 14:30:46 GMT-0400 (Eastern Daylight Time),852476.6999998093,A,s,I,s,443,3,449.80000019073486,852026.8999996185,9003,WL,B,5.0
7,11.133999824523926,immed,48866.000175476074,Fri May 09 2025 14:30:46 GMT-0400 (Eastern Daylight Time),852743.5999994278,A,st,I,t,253,3,716.6999998092651,852026.8999996185,9003,WL,B,5.0
7,11.416999816894531,immed,48583.00018310547,Fri May 09 2025 14:30:46 GMT-0400 (Eastern Daylight Time),853027.0,A,sta,I,a,259,3,1000.1000003814697,852026.8999996185,9003,WL,B,5.0
7,11.467000007629395,immed,48532.999992370605,Fri May 09 2025 14:30:46 GMT-0400 (Eastern Daylight Time),853076.5999994278,A,star,I,r,40,3,1049.6999998092651,852026.8999996185,9003,WL,B,5.0
7,11.766999959945679,immed,48233.00004005432,Fri May 09 2025 14:30:46 GMT-0400 (Eastern Daylight Time),853376.5,A,starenter,I,enter,269,3,1349.6000003814697,852026.8999996185,9003,WL,B,5.0
7,12.166999816894531,immed,47833.00018310547,Fri May 09 2025 14:30:46 GMT-0400 (Eastern Daylight Time),853777.0,A,w,I,w,388,3,400.0,853377.0,9003,WL,B,6.0
7,12.383999824523926,immed,47616.000175476074,Fri May 09 2025 14:30:46 GMT-0400 (Eastern Daylight Time),853993.5,A,wi,I,i,193,3,616.5,853377.0,9003,WL,B,6.0
7,12.516999959945679,immed,47483.00004005432,Fri May 09 2025 14:30:46 GMT-0400 (Eastern Daylight Time),854126.8000001907,A,wif,I,f,120,3,749.8000001907349,853377.0,9003,WL,B,6.0
7,12.733999967575073,immed,47266.00003242493,Fri May 09 2025 14:30:46 GMT-0400 (Eastern Daylight Time),854343.6999998093,A,wife,I,e,198,3,966.6999998092651,853377.0,9003,WL,B,6.0
7,13.0,immed,47000.0,Fri May 09 2025 14:30:46 GMT-0400 (Eastern Daylight Time),854609.8999996185,A,wifeenter,I,enter,242,3,1232.8999996185303,853377.0,9003,WL,B,6.0
7,13.616999864578247,immed,46383.00013542175,Fri May 09 2025 14:30:46 GMT-0400 (Eastern Daylight Time),855226.8999996185,A,w,I,w,603,3,616.5999994277954,854610.3000001907,9003,WL,B,7.0
7,13.833999872207642,immed,46166.00012779236,Fri May 09 2025 14:30:46 GMT-0400 (Eastern Daylight Time),855443.6999998093,A,wi,I,i,200,3,833.3999996185303,854610.3000001907,9003,WL,B,7.0
7,14.050999879837036,immed,45949.000120162964,Fri May 09 2025 14:30:46 GMT-0400 (Eastern Daylight Time),855660.5,A,win,I,n,181,3,1050.1999998092651,854610.3000001907,9003,WL,B,7.0
7,14.283999919891357,immed,45716.00008010864,Fri May 09 2025 14:30:46 GMT-0400 (Eastern Daylight Time),855893.5,A,wind,I,d,222,3,1283.1999998092651,854610.3000001907,9003,WL,B,7.0
7,14.616999864578247,immed,45383.00013542175,Fri May 09 2025 14:30:46 GMT-0400 (Eastern Daylight Time),856227.0,A,windo,I,o,307,3,1616.6999998092651,854610.3000001907,9003,WL,B,7.0
7,14.783999919891357,immed,45216.00008010864,Fri May 09 2025 14:30:46 GMT-0400 (Eastern Daylight Time),856393.6999998093,A,window,I,w,143,3,1783.3999996185303,854610.3000001907,9003,WL,B,7.0
7,15.032999992370605,immed,44967.000007629395,Fri May 09 2025 14:30:46 GMT-0400 (Eastern Daylight Time),856643.1999998093,A,windowenter,I,enter,223,3,2032.8999996185303,854610.3000001907,9003,WL,B,7.0
7,15.400999784469604,immed,44599.000215530396,Fri May 09 2025 14:30:46 GMT-0400 (Eastern Daylight Time),857010.3999996185,A,c,I,c,354,3,366.80000019073486,856643.5999994278,9003,WL,B,8.0
7,15.566999912261963,immed,44433.00008773804,Fri May 09 2025 14:30:46 GMT-0400 (Eastern Daylight Time),857177.0,A,ci,I,i,144,3,533.4000005722046,856643.5999994278,9003,WL,B,8.0
7,15.766999959945679,immed,44233.00004005432,Fri May 09 2025 14:30:46 GMT-0400 (Eastern Daylight Time),857377.0999994278,A,cit,I,t,183,3,733.5,856643.5999994278,9003,WL,B,8.0
7,15.950999975204468,immed,44049.00002479553,Fri May 09 2025 14:30:46 GMT-0400 (Eastern Daylight Time),857560.3000001907,A,city,I,y,161,3,916.7000007629395,856643.5999994278,9003,WL,B,8.0
7,16.366999864578247,immed,43633.00013542175,Fri May 09 2025 14:30:46 GMT-0400 (Eastern Daylight Time),857976.5,A,cityenter,I,enter,384,3,1332.9000005722046,856643.5999994278,9003,WL,B,8.0
7,17.08399987220764,immed,42916.00012779236,Fri May 09 2025 14:30:46 GMT-0400 (Eastern Daylight Time),858693.5999994278,A,p,I,p,709,3,716.7999992370605,857976.8000001907,9003,WL,B,9.0
7,17.366999864578247,immed,42633.00013542175,Fri May 09 2025 14:30:46 GMT-0400 (Eastern Daylight Time),858976.8999996185,A,pi,I,i,260,3,1000.0999994277954,857976.8000001907,9003,WL,B,9.0
7,17.566999912261963,immed,42433.00008773804,Fri May 09 2025 14:30:46 GMT-0400 (Eastern Daylight Time),859176.8999996185,A,pip,I,p,178,3,1200.0999994277954,857976.8000001907,9003,WL,B,9.0
7,17.717000007629395,immed,42282.999992370605,Fri May 09 2025 14:30:46 GMT-0400 (Eastern Daylight Time),859327.0,A,pipe,I,e,127,3,1350.1999998092651,857976.8000001907,9003,WL,B,9.0
7,18.41699981689453,immed,41583.00018310547,Fri May 09 2025 14:30:46 GMT-0400 (Eastern Daylight Time),860026.5,A,pipeenter,I,enter,683,3,2049.699999809265,857976.8000001907,9003,WL,B,9.0
7,19.450999975204468,immed,40549.00002479553,Fri May 09 2025 14:30:46 GMT-0400 (Eastern Daylight Time),861060.5,A,f,I,f,1026,3,1033.6000003814697,860026.8999996185,9003,WL,B,10.0
7,19.667999982833862,immed,40332.00001716614,Fri May 09 2025 14:30:46 GMT-0400 (Eastern Daylight Time),861277.8999996185,A,fi,I,i,207,3,1251.0,860026.8999996185,9003,WL,B,10.0
7,19.800999879837036,immed,40199.000120162964,Fri May 09 2025 14:30:46 GMT-0400 (Eastern Daylight Time),861410.3999996185,A,fir,I,r,108,3,1383.5,860026.8999996185,9003,WL,B,10.0
7,20.050999879837036,immed,39949.000120162964,Fri May 09 2025 14:30:46 GMT-0400 (Eastern Daylight Time),861660.3000001907,A,fire,I,e,232,3,1633.4000005722046,860026.8999996185,9003,WL,B,10.0
7,20.26699995994568,immed,39733.00004005432,Fri May 09 2025 14:30:46 GMT-0400 (Eastern Daylight Time),861876.5,A,fireenter,I,enter,188,3,1849.6000003814697,860026.8999996185,9003,WL,B,10.0
7,21.51699995994568,immed,38483.00004005432,Fri May 09 2025 14:30:46 GMT-0400 (Eastern Daylight Time),863127.0,A,c,I,c,1233,3,1250.1999998092651,861876.8000001907,9003,WL,B,11.0
7,21.66699981689453,immed,38333.00018310547,Fri May 09 2025 14:30:46 GMT-0400 (Eastern Daylight Time),863277.0,A,cl,I,l,131,3,1400.1999998092651,861876.8000001907,9003,WL,B,11.0
7,21.883999824523926,immed,38116.000175476074,Fri May 09 2025 14:30:46 GMT-0400 (Eastern Daylight Time),863493.6999998093,A,clo,I,o,189,3,1616.8999996185303,861876.8000001907,9003,WL,B,11.0
7,22.050999879837036,immed,37949.000120162964,Fri May 09 2025 14:30:46 GMT-0400 (Eastern Daylight Time),863660.3999996185,A,cloc,I,c,143,3,1783.5999994277954,861876.8000001907,9003,WL,B,11.0
7,22.283999919891357,immed,37716.00008010864,Fri May 09 2025 14:30:46 GMT-0400 (Eastern Daylight Time),863893.6999998093,A,clock,I,k,214,3,2016.8999996185303,861876.8000001907,9003,WL,B,11.0
7,22.58299994468689,immed,37417.00005531311,Fri May 09 2025 14:30:46 GMT-0400 (Eastern Daylight Time),864193.1999998093,A,clockenter,I,enter,283,3,2316.3999996185303,861876.8000001907,9003,WL,B,11.0
7,23.25,immed,36750.0,Fri May 09 2025 14:30:46 GMT-0400 (Eastern Daylight Time),864860.3000001907,A,p,I,p,660,3,666.8000001907349,864193.5,9003,WL,B,12.0
7,23.483999967575073,immed,36516.00003242493,Fri May 09 2025 14:30:46 GMT-0400 (Eastern Daylight Time),865093.5999994278,A,pu,I,u,213,3,900.0999994277954,864193.5,9003,WL,B,12.0
7,23.799999952316284,immed,36200.000047683716,Fri May 09 2025 14:30:46 GMT-0400 (Eastern Daylight Time),865410.3999996185,A,pup,I,p,302,3,1216.8999996185303,864193.5,9003,WL,B,12.0
7,24.18400001525879,immed,35815.99998474121,Fri May 09 2025 14:30:46 GMT-0400 (Eastern Daylight Time),865793.6999998093,A,pupi,I,i,358,3,1600.1999998092651,864193.5,9003,WL,B,12.0
7,24.450999975204468,immed,35549.00002479553,Fri May 09 2025 14:30:46 GMT-0400 (Eastern Daylight Time),866060.5,A,pupil,I,l,240,3,1867.0,864193.5,9003,WL,B,12.0
7,24.799999952316284,immed,35200.000047683716,Fri May 09 2025 14:30:46 GMT-0400 (Eastern Daylight Time),866409.8999996185,A,pupilenter,I,enter,324,3,2216.3999996185303,864193.5,9003,WL,B,12.0
7,31.316999912261963,immed,28683.000087738037,Fri May 09 2025 14:30:46 GMT-0400 (Eastern Daylight Time),872927.0,A,c,I,c,6499,3,6516.800000190735,866410.1999998093,9003,WL,B,13.0
7,31.550999879837036,immed,28449.000120162964,Fri May 09 2025 14:30:46 GMT-0400 (Eastern Daylight Time),873160.3000001907,A,ca,I,a,210,3,6750.10000038147,866410.1999998093,9003,WL,B,13.0
7,31.76699995994568,immed,28233.00004005432,Fri May 09 2025 14:30:46 GMT-0400 (Eastern Daylight Time),873376.5,A,cab,I,b,201,3,6966.300000190735,866410.1999998093,9003,WL,B,13.0
7,31.983999967575073,immed,28016.000032424927,Fri May 09 2025 14:30:46 GMT-0400 (Eastern Daylight Time),873593.6999998093,A,cabi,I,i,197,3,7183.5,866410.1999998093,9003,WL,B,13.0
7,32.16699981689453,immed,27833.00018310547,Fri May 09 2025 14:30:46 GMT-0400 (Eastern Daylight Time),873777.0999994278,A,cabin,I,n,161,3,7366.89999961853,866410.1999998093,9003,WL,B,13.0
7,32.44999980926514,immed,27550.000190734863,Fri May 09 2025 14:30:46 GMT-0400 (Eastern Daylight Time),874059.8999996185,A,cabinenter,I,enter,257,3,7649.699999809265,866410.1999998093,9003,WL,B,13.0
7,32.883999824523926,immed,27116.000175476074,Fri May 09 2025 14:30:46 GMT-0400 (Eastern Daylight Time),874493.5999994278,A,l,I,l,425,3,433.3999996185303,874060.1999998093,9003,WL,B,14.0
7,33.23399996757507,immed,26766.000032424927,Fri May 09 2025 14:30:46 GMT-0400 (Eastern Daylight Time),874843.8000001907,A,la,I,a,333,3,783.6000003814697,874060.1999998093,9003,WL,B,14.0
7,33.44999980926514,immed,26550.000190734863,Fri May 09 2025 14:30:46 GMT-0400 (Eastern Daylight Time),875060.3999996185,A,lak,I,k,188,3,1000.1999998092651,874060.1999998093,9003,WL,B,14.0
7,33.61699986457825,immed,26383.000135421753,Fri May 09 2025 14:30:46 GMT-0400 (Eastern Daylight Time),875227.0999994278,A,lake,I,e,150,3,1166.8999996185303,874060.1999998093,9003,WL,B,14.0
7,33.83299994468689,immed,26167.00005531311,Fri May 09 2025 14:30:46 GMT-0400 (Eastern Daylight Time),875443.1999998093,A,lakeenter,I,enter,191,3,1383.0,874060.1999998093,9003,WL,B,14.0
7,60.01699995994568,immed,-16.99995994567871,Fri May 09 2025 14:30:46 GMT-0400 (Eastern Daylight Time),901627.0999994278,A,None,I,None,26177,3,26183.599999427795,875443.5,9003,WL,B,15.0
