acc_sum,block,block_c,change,condition,correct,correct_response,datetime,endtime,face,project,response,response_time,row_sel,session_number,start_end,starttime,subject_id,task,task_vers,trial
0,prac,1,,1-Back,,,Fri Mar 27 2026 11:07:26 GMT-0500 (Central Daylight Time),,012_o_f_d_a.png,I,space,10974,1,1,,,8104,VNB,C,0
1,prac,1,0.0,1-Back,1.0,m,Fri Mar 27 2026 11:07:26 GMT-0500 (Central Daylight Time),163231.90000000596,022_y_f_n_a.png,I,m,1057,2,1,1937.2000000178814,161294.69999998808,8104,VNB,C,1
2,prac,1,0.0,1-Back,1.0,m,Fri Mar 27 2026 11:07:26 GMT-0500 (Central Daylight Time),165447.59999999404,014_m_m_h_a.png,I,m,1350,3,1,2211.800000011921,163235.79999998212,8104,VNB,C,2
3,prac,1,0.0,1-Back,1.0,m,Fri Mar 27 2026 11:07:26 GMT-0500 (Central Daylight Time),167430.59999999404,025_y_m_d_a.png,I,m,1107,4,1,1972.5999999940395,165458.0,8104,VNB,C,3
4,prac,1,0.0,1-Back,1.0,m,Fri Mar 27 2026 11:07:26 GMT-0500 (Central Daylight Time),169246.5,012_o_f_n_a.png,I,m,947,5,1,1812.2000000178814,167434.29999998212,8104,VNB,C,4
4,prac,1,1.0,1-Back,0.0,z,Fri Mar 27 2026 11:07:26 GMT-0500 (Central Daylight Time),172112.19999998808,025_y_m_n_a.png,I,None,2001,6,1,2855.0999999940395,169257.09999999404,8104,VNB,C,5
5,prac,1,0.0,1-Back,1.0,m,Fri Mar 27 2026 11:07:26 GMT-0500 (Central Daylight Time),173978.5,015_o_m_h_a.png,I,m,979,7,1,1861.7000000178814,172116.79999998212,8104,VNB,C,6
6,prac,1,0.0,1-Back,1.0,m,Fri Mar 27 2026 11:07:26 GMT-0500 (Central Daylight Time),175844.40000000596,019_m_f_d_a.png,I,m,978,8,1,1855.300000011921,173989.09999999404,8104,VNB,C,7
6,prac,1,1.0,1-Back,0.0,z,Fri Mar 27 2026 11:07:26 GMT-0500 (Central Daylight Time),177378.09999999404,022_y_f_d_a.png,I,m,649,9,1,1529.800000011921,175848.29999998212,8104,VNB,C,8
6,prac,1,0.0,1-Back,0.0,m,Fri Mar 27 2026 11:07:26 GMT-0500 (Central Daylight Time),180259.69999998808,014_m_m_n_a.png,I,None,2012,10,1,2870.199999988079,177389.5,8104,VNB,C,9
7,prac,1,0.0,1-Back,1.0,m,Fri Mar 27 2026 11:07:26 GMT-0500 (Central Daylight Time),182425.69999998808,012_o_f_h_a.png,I,m,1287,11,1,2162.199999988079,180263.5,8104,VNB,C,10
8,prac,1,0.0,1-Back,1.0,m,Fri Mar 27 2026 11:07:26 GMT-0500 (Central Daylight Time),184408.40000000596,025_y_m_d_a.png,I,m,1108,12,1,1969.300000011921,182439.09999999404,8104,VNB,C,11
0,prac,2,0.0,1-Back,,,Fri Mar 27 2026 11:07:26 GMT-0500 (Central Daylight Time),184408.40000000596,012_o_f_d_a.png,I,a,7226,1,1,1969.300000011921,182439.09999999404,8104,VNB,C,0
1,prac,2,0.0,1-Back,1.0,m,Fri Mar 27 2026 11:07:26 GMT-0500 (Central Daylight Time),196504.5,022_y_f_n_a.png,I,m,940,2,1,1819.4000000059605,194685.09999999404,8104,VNB,C,1
2,prac,2,0.0,1-Back,1.0,m,Fri Mar 27 2026 11:07:26 GMT-0500 (Central Daylight Time),198420.90000000596,014_m_m_h_a.png,I,m,1054,3,1,1912.5,196508.40000000596,8104,VNB,C,2
3,prac,2,0.0,1-Back,1.0,m,Fri Mar 27 2026 11:07:26 GMT-0500 (Central Daylight Time),200120.29999998212,025_y_m_d_a.png,I,m,919,4,1,1689.8999999761581,198430.40000000596,8104,VNB,C,3
4,prac,2,0.0,1-Back,1.0,m,Fri Mar 27 2026 11:07:26 GMT-0500 (Central Daylight Time),202086.19999998808,012_o_f_n_a.png,I,m,1092,5,1,1962.0999999940395,200124.09999999404,8104,VNB,C,4
5,prac,2,1.0,1-Back,1.0,z,Fri Mar 27 2026 11:07:26 GMT-0500 (Central Daylight Time),204018.79999998212,025_y_m_n_a.png,I,z,1053,6,1,1922.2999999821186,202096.5,8104,VNB,C,5
6,prac,2,0.0,1-Back,1.0,m,Fri Mar 27 2026 11:07:26 GMT-0500 (Central Daylight Time),205668.40000000596,015_o_m_h_a.png,I,m,771,7,1,1645.800000011921,204022.59999999404,8104,VNB,C,6
7,prac,2,0.0,1-Back,1.0,m,Fri Mar 27 2026 11:07:26 GMT-0500 (Central Daylight Time),207601.29999998212,019_m_f_d_a.png,I,m,1033,8,1,1922.8999999761581,205678.40000000596,8104,VNB,C,7
8,prac,2,1.0,1-Back,1.0,z,Fri Mar 27 2026 11:07:26 GMT-0500 (Central Daylight Time),209367.19999998808,022_y_f_d_a.png,I,z,883,9,1,1761.9000000059605,207605.29999998212,8104,VNB,C,8
9,prac,2,0.0,1-Back,1.0,m,Fri Mar 27 2026 11:07:26 GMT-0500 (Central Daylight Time),211116.59999999404,014_m_m_n_a.png,I,m,874,10,1,1740.800000011921,209375.79999998212,8104,VNB,C,9
10,prac,2,0.0,1-Back,1.0,m,Fri Mar 27 2026 11:07:26 GMT-0500 (Central Daylight Time),212932.79999998212,012_o_f_h_a.png,I,m,933,11,1,1812.5,211120.29999998212,8104,VNB,C,10
11,prac,2,0.0,1-Back,1.0,m,Fri Mar 27 2026 11:07:26 GMT-0500 (Central Daylight Time),214900.19999998808,025_y_m_d_a.png,I,m,1094,12,1,1957.199999988079,212943.0,8104,VNB,C,11
0,test,1,0.0,1-Back,,,Fri Mar 27 2026 11:07:26 GMT-0500 (Central Daylight Time),214900.19999998808,022_y_f_d_a.png,I,space,8729,1,1,1957.199999988079,212943.0,8104,VNB,C,0
1,test,1,0.0,1-Back,1.0,m,Fri Mar 27 2026 11:07:26 GMT-0500 (Central Daylight Time),233759.29999998212,019_m_f_n_a.png,I,m,764,2,1,1776.0,231983.29999998212,8104,VNB,C,1
2,test,1,0.0,1-Back,1.0,m,Fri Mar 27 2026 11:07:26 GMT-0500 (Central Daylight Time),235642.40000000596,015_o_m_h_a.png,I,m,862,3,1,1880.7000000178814,233761.69999998808,8104,VNB,C,2
3,test,1,1.0,1-Back,1.0,z,Fri Mar 27 2026 11:07:26 GMT-0500 (Central Daylight Time),237641.59999999404,014_m_m_h_a.png,I,z,971,4,1,1993.300000011921,235648.29999998212,8104,VNB,C,3
4,test,1,0.0,1-Back,1.0,m,Fri Mar 27 2026 11:07:26 GMT-0500 (Central Daylight Time),239541.09999999404,012_o_f_n_a.png,I,m,868,5,1,1896.800000011921,237644.29999998212,8104,VNB,C,4
5,test,1,0.0,1-Back,1.0,m,Fri Mar 27 2026 11:07:26 GMT-0500 (Central Daylight Time),241490.59999999404,025_y_m_d_a.png,I,m,927,6,1,1943.4000000059605,239547.19999998808,8104,VNB,C,5
5,test,1,1.0,1-Back,0.0,z,Fri Mar 27 2026 11:07:26 GMT-0500 (Central Daylight Time),243323.19999998808,019_m_f_d_a.png,I,m,811,7,1,1830.0999999940395,241493.09999999404,8104,VNB,C,6
6,test,1,0.0,1-Back,1.0,m,Fri Mar 27 2026 11:07:26 GMT-0500 (Central Daylight Time),245505.90000000596,022_y_f_h_a.png,I,m,1161,8,1,2176.100000023842,243329.79999998212,8104,VNB,C,7
7,test,1,0.0,1-Back,1.0,m,Fri Mar 27 2026 11:07:26 GMT-0500 (Central Daylight Time),247455.09999999404,015_o_m_n_a.png,I,m,932,9,1,1946.5,245508.59999999404,8104,VNB,C,8
8,test,1,0.0,1-Back,1.0,m,Fri Mar 27 2026 11:07:26 GMT-0500 (Central Daylight Time),249887.69999998808,025_y_m_h_a.png,I,m,1405,10,1,2426.0,247461.69999998808,8104,VNB,C,9
9,test,1,0.0,1-Back,1.0,m,Fri Mar 27 2026 11:07:26 GMT-0500 (Central Daylight Time),251771.40000000596,015_o_m_d_a.png,I,m,862,11,1,1881.0,249890.40000000596,8104,VNB,C,10
10,test,1,1.0,1-Back,1.0,z,Fri Mar 27 2026 11:07:26 GMT-0500 (Central Daylight Time),254103.09999999404,012_o_f_d_a.png,I,z,1306,12,1,2326.5999999940395,251776.5,8104,VNB,C,11
11,test,1,0.0,1-Back,1.0,m,Fri Mar 27 2026 11:07:26 GMT-0500 (Central Daylight Time),255786.0,014_m_m_n_a.png,I,m,662,13,1,1680.0999999940395,254105.90000000596,8104,VNB,C,12
12,test,1,1.0,1-Back,1.0,z,Fri Mar 27 2026 11:07:26 GMT-0500 (Central Daylight Time),257735.29999998212,022_y_f_n_a.png,I,z,923,14,1,1943.199999988079,255792.09999999404,8104,VNB,C,13
13,test,1,0.0,1-Back,1.0,m,Fri Mar 27 2026 11:07:26 GMT-0500 (Central Daylight Time),259467.79999998212,019_m_f_h_a.png,I,m,709,15,1,1730.0,257737.79999998212,8104,VNB,C,14
14,test,1,0.0,1-Back,1.0,m,Fri Mar 27 2026 11:07:26 GMT-0500 (Central Daylight Time),261600.79999998212,014_m_m_d_a.png,I,m,1113,16,1,2126.199999988079,259474.59999999404,8104,VNB,C,15
15,test,1,0.0,1-Back,1.0,m,Fri Mar 27 2026 11:07:26 GMT-0500 (Central Daylight Time),263533.5,025_y_m_n_a.png,I,m,908,17,1,1929.9000000059605,261603.59999999404,8104,VNB,C,16
16,test,1,0.0,1-Back,1.0,m,Fri Mar 27 2026 11:07:26 GMT-0500 (Central Daylight Time),265299.59999999404,012_o_f_h_a.png,I,m,744,18,1,1760.0,263539.59999999404,8104,VNB,C,17
0,test,2,0.0,1-Back,,,Fri Mar 27 2026 11:07:26 GMT-0500 (Central Daylight Time),265299.59999999404,025_y_m_n_a.png,I,space,1658,1,1,1760.0,263539.59999999404,8104,VNB,C,0
1,test,2,0.0,1-Back,1.0,m,Fri Mar 27 2026 11:07:26 GMT-0500 (Central Daylight Time),270831.7999999821,022_y_f_h_a.png,I,m,832,2,1,1844.0,268987.7999999821,8104,VNB,C,1
2,test,2,1.0,1-Back,1.0,m,Fri Mar 27 2026 11:07:26 GMT-0500 (Central Daylight Time),272863.90000000596,015_o_m_n_a.png,I,m,1006,3,1,2029.6000000238419,270834.2999999821,8104,VNB,C,2
3,test,2,0.0,1-Back,1.0,m,Fri Mar 27 2026 11:07:26 GMT-0500 (Central Daylight Time),274596.6999999881,019_m_f_d_a.png,I,m,701,4,1,1726.7999999821186,272869.90000000596,8104,VNB,C,3
4,test,2,0.0,1-Back,1.0,z,Fri Mar 27 2026 11:07:26 GMT-0500 (Central Daylight Time),276779.2999999821,014_m_m_d_a.png,I,z,1161,5,1,2180.0999999940395,274599.1999999881,8104,VNB,C,4
5,test,2,0.0,1-Back,1.0,m,Fri Mar 27 2026 11:07:26 GMT-0500 (Central Daylight Time),278462.2999999821,025_y_m_h_a.png,I,m,650,6,1,1677.2999999821186,276785.0,8104,VNB,C,5
6,test,2,1.0,1-Back,1.0,z,Fri Mar 27 2026 11:07:26 GMT-0500 (Central Daylight Time),280494.90000000596,012_o_f_h_a.png,I,z,1007,7,1,2030.300000011921,278464.59999999404,8104,VNB,C,6
7,test,2,0.0,1-Back,1.0,m,Fri Mar 27 2026 11:07:26 GMT-0500 (Central Daylight Time),282344.2999999821,019_m_f_n_a.png,I,m,822,8,1,1843.3999999761581,280500.90000000596,8104,VNB,C,7
8,test,2,0.0,1-Back,1.0,m,Fri Mar 27 2026 11:07:26 GMT-0500 (Central Daylight Time),284243.7999999821,022_y_f_d_a.png,I,m,877,9,1,1896.3999999761581,282347.40000000596,8104,VNB,C,8
8,test,2,0.0,1-Back,0.0,m,Fri Mar 27 2026 11:07:26 GMT-0500 (Central Daylight Time),286310.1999999881,014_m_m_n_a.png,I,z,1034,10,1,2060.4000000059605,284249.7999999821,8104,VNB,C,9
9,test,2,1.0,1-Back,1.0,m,Fri Mar 27 2026 11:07:26 GMT-0500 (Central Daylight Time),288392.2999999821,019_m_f_h_a.png,I,m,1055,11,1,2079.7999999821186,286312.5,8104,VNB,C,10
10,test,2,0.0,1-Back,1.0,z,Fri Mar 27 2026 11:07:26 GMT-0500 (Central Daylight Time),290408.5,015_o_m_h_a.png,I,z,997,12,1,2010.800000011921,288397.6999999881,8104,VNB,C,11
11,test,2,0.0,1-Back,1.0,m,Fri Mar 27 2026 11:07:26 GMT-0500 (Central Daylight Time),292174.59999999404,025_y_m_d_a.png,I,m,741,13,1,1763.5999999940395,290411.0,8104,VNB,C,12
12,test,2,0.0,1-Back,1.0,m,Fri Mar 27 2026 11:07:26 GMT-0500 (Central Daylight Time),294223.90000000596,012_o_f_n_a.png,I,m,895,14,1,2043.7000000178814,292180.1999999881,8104,VNB,C,13
13,test,2,0.0,1-Back,1.0,z,Fri Mar 27 2026 11:07:26 GMT-0500 (Central Daylight Time),296223.0,022_y_f_n_a.png,I,z,981,15,1,1996.5,294226.5,8104,VNB,C,14
14,test,2,1.0,1-Back,1.0,m,Fri Mar 27 2026 11:07:26 GMT-0500 (Central Daylight Time),297974.2999999821,014_m_m_h_a.png,I,m,726,16,1,1745.199999988079,296229.09999999404,8104,VNB,C,15
15,test,2,0.0,1-Back,1.0,m,Fri Mar 27 2026 11:07:26 GMT-0500 (Central Daylight Time),299838.6999999881,012_o_f_d_a.png,I,m,841,17,1,1861.5999999940395,297977.09999999404,8104,VNB,C,16
16,test,2,1.0,1-Back,1.0,z,Fri Mar 27 2026 11:07:26 GMT-0500 (Central Daylight Time),301871.5,015_o_m_d_a.png,I,z,1007,18,1,2026.800000011921,299844.6999999881,8104,VNB,C,17
0,test,3,1.0,1-Back,,,Fri Mar 27 2026 11:07:26 GMT-0500 (Central Daylight Time),301871.5,012_o_f_h_a.png,I,space,1462,1,1,2026.800000011921,299844.6999999881,8104,VNB,C,0
1,test,3,0.0,1-Back,1.0,m,Fri Mar 27 2026 11:07:26 GMT-0500 (Central Daylight Time),307319.5,019_m_f_d_a.png,I,m,863,2,1,1873.5,305446.0,8104,VNB,C,1
2,test,3,1.0,1-Back,1.0,m,Fri Mar 27 2026 11:07:26 GMT-0500 (Central Daylight Time),309502.5,014_m_m_n_a.png,I,m,1157,3,1,2180.5,307322.0,8104,VNB,C,2
3,test,3,0.0,1-Back,1.0,z,Fri Mar 27 2026 11:07:26 GMT-0500 (Central Daylight Time),311402.0,012_o_f_n_a.png,I,z,879,4,1,1893.2000000178814,309508.7999999821,8104,VNB,C,3
4,test,3,1.0,1-Back,1.0,m,Fri Mar 27 2026 11:07:26 GMT-0500 (Central Daylight Time),313018.09999999404,015_o_m_d_a.png,I,m,588,5,1,1613.5999999940395,311404.5,8104,VNB,C,4
5,test,3,0.0,1-Back,1.0,m,Fri Mar 27 2026 11:07:26 GMT-0500 (Central Daylight Time),314950.7999999821,022_y_f_h_a.png,I,m,915,6,1,1926.0999999940395,313024.6999999881,8104,VNB,C,5
6,test,3,0.0,1-Back,1.0,z,Fri Mar 27 2026 11:07:26 GMT-0500 (Central Daylight Time),316800.2999999821,025_y_m_h_a.png,I,z,822,7,1,1846.5,314953.7999999821,8104,VNB,C,6
7,test,3,0.0,1-Back,1.0,m,Fri Mar 27 2026 11:07:26 GMT-0500 (Central Daylight Time),318483.0,019_m_f_n_a.png,I,m,653,8,1,1676.7000000178814,316806.2999999821,8104,VNB,C,7
8,test,3,0.0,1-Back,1.0,m,Fri Mar 27 2026 11:07:26 GMT-0500 (Central Daylight Time),320232.40000000596,022_y_f_d_a.png,I,m,730,9,1,1747.0,318485.40000000596,8104,VNB,C,8
9,test,3,1.0,1-Back,1.0,m,Fri Mar 27 2026 11:07:26 GMT-0500 (Central Daylight Time),322065.2999999821,015_o_m_n_a.png,I,m,805,10,1,1827.8999999761581,320237.40000000596,8104,VNB,C,9
10,test,3,0.0,1-Back,1.0,m,Fri Mar 27 2026 11:07:26 GMT-0500 (Central Daylight Time),323898.0,014_m_m_h_a.png,I,m,804,11,1,1830.300000011921,322067.6999999881,8104,VNB,C,10
11,test,3,0.0,1-Back,1.0,z,Fri Mar 27 2026 11:07:26 GMT-0500 (Central Daylight Time),325780.5,019_m_f_h_a.png,I,z,858,12,1,1877.0,323903.5,8104,VNB,C,11
12,test,3,1.0,1-Back,1.0,m,Fri Mar 27 2026 11:07:26 GMT-0500 (Central Daylight Time),327547.59999999404,012_o_f_d_a.png,I,m,737,13,1,1764.300000011921,325783.2999999821,8104,VNB,C,12
13,test,3,0.0,1-Back,1.0,z,Fri Mar 27 2026 11:07:26 GMT-0500 (Central Daylight Time),329596.09999999404,014_m_m_d_a.png,I,z,1027,14,1,2043.4000000059605,327552.6999999881,8104,VNB,C,13
14,test,3,0.0,1-Back,1.0,m,Fri Mar 27 2026 11:07:26 GMT-0500 (Central Daylight Time),331462.40000000596,025_y_m_n_a.png,I,m,833,15,1,1863.800000011921,329598.59999999404,8104,VNB,C,14
15,test,3,1.0,1-Back,1.0,m,Fri Mar 27 2026 11:07:26 GMT-0500 (Central Daylight Time),333545.0,015_o_m_h_a.png,I,m,1064,16,1,2076.7000000178814,331468.2999999821,8104,VNB,C,15
16,test,3,0.0,1-Back,1.0,m,Fri Mar 27 2026 11:07:26 GMT-0500 (Central Daylight Time),335294.5,025_y_m_d_a.png,I,m,717,17,1,1747.0999999940395,333547.40000000596,8104,VNB,C,16
17,test,3,1.0,1-Back,1.0,m,Fri Mar 27 2026 11:07:26 GMT-0500 (Central Daylight Time),337110.5,022_y_f_n_a.png,I,m,791,18,1,1810.9000000059605,335299.59999999404,8104,VNB,C,17
0,test,4,1.0,1-Back,,,Fri Mar 27 2026 11:07:26 GMT-0500 (Central Daylight Time),337110.5,014_m_m_d_a.png,I,space,1183,1,1,1810.9000000059605,335299.59999999404,8104,VNB,C,0
1,test,4,0.0,1-Back,1.0,z,Fri Mar 27 2026 11:07:26 GMT-0500 (Central Daylight Time),342208.90000000596,015_o_m_d_a.png,I,z,863,2,1,1875.9000000059605,340333.0,8104,VNB,C,1
2,test,4,0.0,1-Back,1.0,m,Fri Mar 27 2026 11:07:26 GMT-0500 (Central Daylight Time),344074.6999999881,025_y_m_h_a.png,I,m,835,3,1,1863.0999999940395,342211.59999999404,8104,VNB,C,2
3,test,4,0.0,1-Back,1.0,m,Fri Mar 27 2026 11:07:26 GMT-0500 (Central Daylight Time),346008.40000000596,019_m_f_n_a.png,I,m,914,4,1,1926.6000000238419,344081.7999999821,8104,VNB,C,3
4,test,4,1.0,1-Back,1.0,m,Fri Mar 27 2026 11:07:26 GMT-0500 (Central Daylight Time),347975.09999999404,012_o_f_h_a.png,I,m,934,5,1,1964.0999999940395,346011.0,8104,VNB,C,4
5,test,4,0.0,1-Back,1.0,m,Fri Mar 27 2026 11:07:26 GMT-0500 (Central Daylight Time),349839.90000000596,014_m_m_n_a.png,I,m,848,6,1,1858.7000000178814,347981.1999999881,8104,VNB,C,5
6,test,4,0.0,1-Back,1.0,m,Fri Mar 27 2026 11:07:26 GMT-0500 (Central Daylight Time),351657.09999999404,025_y_m_d_a.png,I,m,798,7,1,1814.800000011921,349842.2999999821,8104,VNB,C,6
6,test,4,1.0,1-Back,0.0,z,Fri Mar 27 2026 11:07:26 GMT-0500 (Central Daylight Time),354038.6999999881,022_y_f_d_a.png,I,m,1350,8,1,2376.699999988079,351662.0,8104,VNB,C,7
7,test,4,0.0,1-Back,1.0,m,Fri Mar 27 2026 11:07:26 GMT-0500 (Central Daylight Time),355954.6999999881,019_m_f_h_a.png,I,m,886,9,1,1913.5,354041.1999999881,8104,VNB,C,8
8,test,4,0.0,1-Back,1.0,z,Fri Mar 27 2026 11:07:26 GMT-0500 (Central Daylight Time),357854.0,015_o_m_h_a.png,I,z,866,10,1,1893.300000011921,355960.6999999881,8104,VNB,C,9
9,test,4,1.0,1-Back,1.0,m,Fri Mar 27 2026 11:07:26 GMT-0500 (Central Daylight Time),359603.2999999821,012_o_f_n_a.png,I,m,727,11,1,1747.0,357856.2999999821,8104,VNB,C,10
10,test,4,0.0,1-Back,1.0,m,Fri Mar 27 2026 11:07:26 GMT-0500 (Central Daylight Time),361652.6999999881,019_m_f_d_a.png,I,m,1026,12,1,2043.699999988079,359609.0,8104,VNB,C,11
11,test,4,0.0,1-Back,1.0,m,Fri Mar 27 2026 11:07:26 GMT-0500 (Central Daylight Time),363668.7999999821,022_y_f_n_a.png,I,m,985,13,1,2013.7999999821186,361655.0,8104,VNB,C,12
12,test,4,0.0,1-Back,1.0,m,Fri Mar 27 2026 11:07:26 GMT-0500 (Central Daylight Time),365451.6999999881,012_o_f_d_a.png,I,m,753,14,1,1777.5999999940395,363674.09999999404,8104,VNB,C,13
13,test,4,0.0,1-Back,1.0,m,Fri Mar 27 2026 11:07:26 GMT-0500 (Central Daylight Time),367567.6999999881,022_y_f_h_a.png,I,m,1090,15,1,2113.4000000059605,365454.2999999821,8104,VNB,C,14
14,test,4,1.0,1-Back,1.0,z,Fri Mar 27 2026 11:07:26 GMT-0500 (Central Daylight Time),369116.90000000596,014_m_m_h_a.png,I,z,517,16,1,1543.1000000238419,367573.7999999821,8104,VNB,C,15
15,test,4,0.0,1-Back,1.0,m,Fri Mar 27 2026 11:07:26 GMT-0500 (Central Daylight Time),370850.0,015_o_m_n_a.png,I,m,712,17,1,1730.800000011921,369119.1999999881,8104,VNB,C,16
16,test,4,1.0,1-Back,1.0,z,Fri Mar 27 2026 11:07:26 GMT-0500 (Central Daylight Time),372932.5,025_y_m_n_a.png,I,z,1051,18,1,2077.0999999940395,370855.40000000596,8104,VNB,C,17
0,test,5,1.0,1-Back,,,Fri Mar 27 2026 11:07:26 GMT-0500 (Central Daylight Time),372932.5,015_o_m_n_a.png,I,space,1465,1,1,2077.0999999940395,370855.40000000596,8104,VNB,C,0
1,test,5,1.0,1-Back,1.0,m,Fri Mar 27 2026 11:07:26 GMT-0500 (Central Daylight Time),378231.09999999404,012_o_f_h_a.png,I,m,790,2,1,1810.199999988079,376420.90000000596,8104,VNB,C,1
2,test,5,0.0,1-Back,1.0,m,Fri Mar 27 2026 11:07:26 GMT-0500 (Central Daylight Time),380263.5,025_y_m_d_a.png,I,m,1014,3,1,2030.0,378233.5,8104,VNB,C,2
3,test,5,0.0,1-Back,1.0,z,Fri Mar 27 2026 11:07:26 GMT-0500 (Central Daylight Time),382129.7999999821,015_o_m_d_a.png,I,z,846,4,1,1860.8999999761581,380268.90000000596,8104,VNB,C,3
4,test,5,0.0,1-Back,1.0,m,Fri Mar 27 2026 11:07:26 GMT-0500 (Central Daylight Time),384095.7999999821,019_m_f_h_a.png,I,m,940,5,1,1963.699999988079,382132.09999999404,8104,VNB,C,4
5,test,5,0.0,1-Back,1.0,m,Fri Mar 27 2026 11:07:26 GMT-0500 (Central Daylight Time),385828.7999999821,022_y_f_n_a.png,I,m,709,6,1,1727.0999999940395,384101.6999999881,8104,VNB,C,5
6,test,5,1.0,1-Back,1.0,z,Fri Mar 27 2026 11:07:26 GMT-0500 (Central Daylight Time),387578.09999999404,012_o_f_n_a.png,I,z,727,7,1,1746.9000000059605,385831.1999999881,8104,VNB,C,6
7,test,5,0.0,1-Back,1.0,m,Fri Mar 27 2026 11:07:26 GMT-0500 (Central Daylight Time),389227.5,019_m_f_d_a.png,I,m,627,8,1,1644.0,387583.5,8104,VNB,C,7
8,test,5,0.0,1-Back,1.0,m,Fri Mar 27 2026 11:07:26 GMT-0500 (Central Daylight Time),390993.6999999881,025_y_m_h_a.png,I,m,746,9,1,1763.9000000059605,389229.7999999821,8104,VNB,C,8
9,test,5,0.0,1-Back,1.0,m,Fri Mar 27 2026 11:07:26 GMT-0500 (Central Daylight Time),392726.40000000596,022_y_f_d_a.png,I,m,708,10,1,1727.7000000178814,390998.6999999881,8104,VNB,C,9
10,test,5,0.0,1-Back,1.0,m,Fri Mar 27 2026 11:07:26 GMT-0500 (Central Daylight Time),394509.40000000596,014_m_m_n_a.png,I,m,749,11,1,1780.5,392728.90000000596,8104,VNB,C,10
11,test,5,1.0,1-Back,1.0,z,Fri Mar 27 2026 11:07:26 GMT-0500 (Central Daylight Time),396141.90000000596,019_m_f_n_a.png,I,z,608,12,1,1626.7000000178814,394515.1999999881,8104,VNB,C,11
12,test,5,0.0,1-Back,1.0,m,Fri Mar 27 2026 11:07:26 GMT-0500 (Central Daylight Time),398408.0,015_o_m_h_a.png,I,m,1239,13,1,2263.5,396144.5,8104,VNB,C,12
13,test,5,0.0,1-Back,1.0,z,Fri Mar 27 2026 11:07:26 GMT-0500 (Central Daylight Time),400873.90000000596,014_m_m_h_a.png,I,z,1445,14,1,2459.800000011921,398414.09999999404,8104,VNB,C,13
14,test,5,1.0,1-Back,1.0,m,Fri Mar 27 2026 11:07:26 GMT-0500 (Central Daylight Time),402739.6999999881,012_o_f_d_a.png,I,m,843,15,1,1863.2999999821186,400876.40000000596,8104,VNB,C,14
15,test,5,0.0,1-Back,1.0,m,Fri Mar 27 2026 11:07:26 GMT-0500 (Central Daylight Time),404739.40000000596,025_y_m_n_a.png,I,m,977,16,1,1994.5,402744.90000000596,8104,VNB,C,15
16,test,5,0.0,1-Back,1.0,m,Fri Mar 27 2026 11:07:26 GMT-0500 (Central Daylight Time),406322.2999999821,022_y_f_h_a.png,I,m,562,17,1,1580.3999999761581,404741.90000000596,8104,VNB,C,16
17,test,5,0.0,1-Back,1.0,m,Fri Mar 27 2026 11:07:26 GMT-0500 (Central Daylight Time),408171.6999999881,014_m_m_d_a.png,I,m,819,18,1,1843.0999999940395,406328.59999999404,8104,VNB,C,17
0,prac,1,0.0,2-Back,,,Fri Mar 27 2026 11:07:26 GMT-0500 (Central Daylight Time),408171.6999999881,019_m_f_n_a.png,I,space,19614,1,1,1843.0999999940395,406328.59999999404,8104,VNB,C,0
0,prac,1,0.0,2-Back,,,Fri Mar 27 2026 11:07:26 GMT-0500 (Central Daylight Time),408171.6999999881,012_o_f_h_a.png,I,space,19614,2,1,1843.0999999940395,406328.59999999404,8104,VNB,C,0
0,prac,1,0.0,2-Back,0.0,m,Fri Mar 27 2026 11:07:26 GMT-0500 (Central Daylight Time),537164.6999999881,015_o_m_d_a.png,I,None,2011,3,1,2878.9000000059605,534285.7999999821,8104,VNB,C,1
0,prac,1,1.0,2-Back,0.0,z,Fri Mar 27 2026 11:07:26 GMT-0500 (Central Daylight Time),540030.5,014_m_m_h_a.png,I,None,2001,4,1,2857.5999999940395,537172.900000006,8104,VNB,C,2
1,prac,1,0.0,2-Back,1.0,m,Fri Mar 27 2026 11:07:26 GMT-0500 (Central Daylight Time),542679.2999999821,022_y_f_n_a.png,I,m,1776,5,1,2645.5999999940395,540033.6999999881,8104,VNB,C,3
2,prac,1,1.0,2-Back,1.0,z,Fri Mar 27 2026 11:07:26 GMT-0500 (Central Daylight Time),545428.900000006,015_o_m_h_a.png,I,z,1848,6,1,2739.600000023842,542689.2999999821,8104,VNB,C,4
2,prac,1,1.0,2-Back,0.0,z,Fri Mar 27 2026 11:07:26 GMT-0500 (Central Daylight Time),547461.400000006,025_y_m_n_a.png,I,m,1182,7,1,2029.1000000238419,545432.2999999821,8104,VNB,C,5
3,prac,1,0.0,2-Back,1.0,m,Fri Mar 27 2026 11:07:26 GMT-0500 (Central Daylight Time),549578.900000006,019_m_f_d_a.png,I,m,1224,8,1,2107.5,547471.400000006,8104,VNB,C,6
3,prac,1,0.0,2-Back,0.0,m,Fri Mar 27 2026 11:07:26 GMT-0500 (Central Daylight Time),552459.7999999821,012_o_f_d_a.png,I,None,2016,9,1,2877.5,549582.2999999821,8104,VNB,C,7
4,prac,1,0.0,2-Back,1.0,m,Fri Mar 27 2026 11:07:26 GMT-0500 (Central Daylight Time),554725.6999999881,014_m_m_h_a.png,I,m,1486,10,1,2254.5999999940395,552471.099999994,8104,VNB,C,8
4,prac,1,1.0,2-Back,0.0,z,Fri Mar 27 2026 11:07:26 GMT-0500 (Central Daylight Time),557608.900000006,022_y_f_d_a.png,I,None,2013,11,1,2879.9000000059605,554729.0,8104,VNB,C,9
5,prac,1,0.0,2-Back,1.0,m,Fri Mar 27 2026 11:07:26 GMT-0500 (Central Daylight Time),559641.099999994,015_o_m_n_a.png,I,m,1146,12,1,2024.0,557617.099999994,8104,VNB,C,10
0,prac,2,0.0,2-Back,,,Fri Mar 27 2026 11:07:26 GMT-0500 (Central Daylight Time),559641.099999994,019_m_f_n_a.png,I,a,11609,1,1,2024.0,557617.099999994,8104,VNB,C,0
0,prac,2,0.0,2-Back,,,Fri Mar 27 2026 11:07:26 GMT-0500 (Central Daylight Time),559641.099999994,012_o_f_h_a.png,I,a,11609,2,1,2024.0,557617.099999994,8104,VNB,C,0
1,prac,2,0.0,2-Back,1.0,m,Fri Mar 27 2026 11:07:26 GMT-0500 (Central Daylight Time),578751.6999999881,015_o_m_d_a.png,I,m,1368,3,1,2245.9000000059605,576505.7999999821,8104,VNB,C,1
1,prac,2,1.0,2-Back,0.0,z,Fri Mar 27 2026 11:07:26 GMT-0500 (Central Daylight Time),581534.0,014_m_m_h_a.png,I,None,2007,4,1,2773.4000000059605,578760.599999994,8104,VNB,C,2
2,prac,2,0.0,2-Back,1.0,m,Fri Mar 27 2026 11:07:26 GMT-0500 (Central Daylight Time),582933.599999994,022_y_f_n_a.png,I,m,529,5,1,1396.300000011921,581537.2999999821,8104,VNB,C,3
2,prac,2,1.0,2-Back,0.0,z,Fri Mar 27 2026 11:07:26 GMT-0500 (Central Daylight Time),584849.7999999821,015_o_m_h_a.png,I,m,1023,6,1,1908.7999999821186,582941.0,8104,VNB,C,4
3,prac,2,1.0,2-Back,1.0,z,Fri Mar 27 2026 11:07:26 GMT-0500 (Central Daylight Time),587199.900000006,025_y_m_n_a.png,I,z,1511,7,1,2346.600000023842,584853.2999999821,8104,VNB,C,5
4,prac,2,0.0,2-Back,1.0,m,Fri Mar 27 2026 11:07:26 GMT-0500 (Central Daylight Time),589648.099999994,019_m_f_d_a.png,I,m,1561,8,1,2439.5999999940395,587208.5,8104,VNB,C,6
4,prac,2,0.0,2-Back,0.0,m,Fri Mar 27 2026 11:07:26 GMT-0500 (Central Daylight Time),592180.7999999821,012_o_f_d_a.png,I,z,1655,9,1,2529.399999976158,589651.400000006,8104,VNB,C,7
5,prac,2,0.0,2-Back,1.0,m,Fri Mar 27 2026 11:07:26 GMT-0500 (Central Daylight Time),594280.1999999881,014_m_m_h_a.png,I,m,1317,10,1,2095.699999988079,592184.5,8104,VNB,C,8
5,prac,2,1.0,2-Back,0.0,z,Fri Mar 27 2026 11:07:26 GMT-0500 (Central Daylight Time),596446.099999994,022_y_f_d_a.png,I,m,1282,11,1,2157.699999988079,594288.400000006,8104,VNB,C,9
6,prac,2,0.0,2-Back,1.0,m,Fri Mar 27 2026 11:07:26 GMT-0500 (Central Daylight Time),598495.5,015_o_m_n_a.png,I,m,1168,12,1,2045.800000011921,596449.6999999881,8104,VNB,C,10
0,test,1,0.0,2-Back,,,Fri Mar 27 2026 11:07:26 GMT-0500 (Central Daylight Time),598495.5,025_y_m_h_a.png,I,space,6856,1,1,2045.800000011921,596449.6999999881,8104,VNB,C,0
0,test,1,0.0,2-Back,,,Fri Mar 27 2026 11:07:26 GMT-0500 (Central Daylight Time),598495.5,012_o_f_n_a.png,I,space,6856,2,1,2045.800000011921,596449.6999999881,8104,VNB,C,0
1,test,1,0.0,2-Back,1.0,z,Fri Mar 27 2026 11:07:26 GMT-0500 (Central Daylight Time),620321.900000006,015_o_m_h_a.png,I,z,1104,3,1,2130.2000000178814,618191.6999999881,8104,VNB,C,1
2,test,1,0.0,2-Back,1.0,m,Fri Mar 27 2026 11:07:26 GMT-0500 (Central Daylight Time),622820.900000006,019_m_f_d_a.png,I,m,1466,4,1,2495.4000000059605,620325.5,8104,VNB,C,2
2,test,1,1.0,2-Back,0.0,m,Fri Mar 27 2026 11:07:26 GMT-0500 (Central Daylight Time),625770.0,025_y_m_n_a.png,I,z,1920,5,1,2946.7000000178814,622823.2999999821,8104,VNB,C,3
3,test,1,0.0,2-Back,1.0,z,Fri Mar 27 2026 11:07:26 GMT-0500 (Central Daylight Time),628687.400000006,022_y_f_d_a.png,I,z,1883,6,1,2913.4000000059605,625774.0,8104,VNB,C,4
4,test,1,0.0,2-Back,1.0,m,Fri Mar 27 2026 11:07:26 GMT-0500 (Central Daylight Time),630968.2999999821,014_m_m_h_a.png,I,m,1255,7,1,2278.0,628690.2999999821,8104,VNB,C,5
5,test,1,1.0,2-Back,1.0,m,Fri Mar 27 2026 11:07:26 GMT-0500 (Central Daylight Time),633734.599999994,022_y_f_n_a.png,I,m,1749,8,1,2761.5,630973.099999994,8104,VNB,C,6
6,test,1,0.0,2-Back,1.0,z,Fri Mar 27 2026 11:07:26 GMT-0500 (Central Daylight Time),636566.6999999881,012_o_f_h_a.png,I,z,1799,9,1,2829.7999999821186,633736.900000006,8104,VNB,C,7
6,test,1,0.0,2-Back,0.0,m,Fri Mar 27 2026 11:07:26 GMT-0500 (Central Daylight Time),639599.5,015_o_m_d_a.png,I,None,2015,10,1,3028.2000000178814,636571.2999999821,8104,VNB,C,8
7,test,1,1.0,2-Back,1.0,m,Fri Mar 27 2026 11:07:26 GMT-0500 (Central Daylight Time),641681.7999999821,014_m_m_d_a.png,I,m,1054,11,1,2079.899999976158,639601.900000006,8104,VNB,C,9
8,test,1,0.0,2-Back,1.0,m,Fri Mar 27 2026 11:07:26 GMT-0500 (Central Daylight Time),643848.7999999821,019_m_f_n_a.png,I,m,1147,12,1,2162.2999999821186,641686.5,8104,VNB,C,10
9,test,1,0.0,2-Back,1.0,m,Fri Mar 27 2026 11:07:26 GMT-0500 (Central Daylight Time),645680.2999999821,022_y_f_h_a.png,I,m,812,13,1,1828.5,643851.7999999821,8104,VNB,C,11
10,test,1,0.0,2-Back,1.0,z,Fri Mar 27 2026 11:07:26 GMT-0500 (Central Daylight Time),647879.599999994,014_m_m_n_a.png,I,z,1179,14,1,2195.0999999940395,645684.5,8104,VNB,C,12
11,test,1,0.0,2-Back,1.0,m,Fri Mar 27 2026 11:07:26 GMT-0500 (Central Daylight Time),650729.099999994,025_y_m_d_a.png,I,m,1829,15,1,2844.699999988079,647884.400000006,8104,VNB,C,13
12,test,1,1.0,2-Back,1.0,m,Fri Mar 27 2026 11:07:26 GMT-0500 (Central Daylight Time),653080.0,019_m_f_h_a.png,I,m,1331,16,1,2346.5999999940395,650733.400000006,8104,VNB,C,14
13,test,1,0.0,2-Back,1.0,z,Fri Mar 27 2026 11:07:26 GMT-0500 (Central Daylight Time),655094.6999999881,012_o_f_d_a.png,I,z,983,17,1,2012.0999999940395,653082.599999994,8104,VNB,C,15
13,test,1,0.0,2-Back,0.0,m,Fri Mar 27 2026 11:07:26 GMT-0500 (Central Daylight Time),657146.599999994,015_o_m_n_a.png,I,z,1031,18,1,2047.699999988079,655098.900000006,8104,VNB,C,16
0,test,2,0.0,2-Back,,,Fri Mar 27 2026 11:07:26 GMT-0500 (Central Daylight Time),657146.599999994,014_m_m_h_a.png,I,space,3219,1,1,2047.699999988079,655098.900000006,8104,VNB,C,0
0,test,2,0.0,2-Back,,,Fri Mar 27 2026 11:07:26 GMT-0500 (Central Daylight Time),657146.599999994,022_y_f_n_a.png,I,space,3219,2,1,2047.699999988079,655098.900000006,8104,VNB,C,0
1,test,2,1.0,2-Back,1.0,z,Fri Mar 27 2026 11:07:26 GMT-0500 (Central Daylight Time),667540.2999999821,012_o_f_h_a.png,I,z,902,3,1,1930.0,665610.2999999821,8104,VNB,C,1
2,test,2,0.0,2-Back,1.0,m,Fri Mar 27 2026 11:07:26 GMT-0500 (Central Daylight Time),669423.5,015_o_m_d_a.png,I,m,865,4,1,1879.0999999940395,667544.400000006,8104,VNB,C,2
3,test,2,0.0,2-Back,1.0,m,Fri Mar 27 2026 11:07:26 GMT-0500 (Central Daylight Time),672305.5,019_m_f_d_a.png,I,m,1854,5,1,2879.9000000059605,669425.599999994,8104,VNB,C,3
4,test,2,0.0,2-Back,1.0,m,Fri Mar 27 2026 11:07:26 GMT-0500 (Central Daylight Time),674671.599999994,025_y_m_h_a.png,I,m,1340,6,1,2360.800000011921,672310.7999999821,8104,VNB,C,4
5,test,2,0.0,2-Back,1.0,m,Fri Mar 27 2026 11:07:26 GMT-0500 (Central Daylight Time),677004.099999994,012_o_f_n_a.png,I,m,1308,7,1,2330.0,674674.099999994,8104,VNB,C,5
6,test,2,1.0,2-Back,1.0,z,Fri Mar 27 2026 11:07:26 GMT-0500 (Central Daylight Time),679886.599999994,015_o_m_h_a.png,I,z,1857,8,1,2877.199999988079,677009.400000006,8104,VNB,C,6
7,test,2,0.0,2-Back,1.0,m,Fri Mar 27 2026 11:07:26 GMT-0500 (Central Daylight Time),682102.5,022_y_f_d_a.png,I,m,1183,9,1,2213.5999999940395,679888.900000006,8104,VNB,C,7
7,test,2,0.0,2-Back,0.0,m,Fri Mar 27 2026 11:07:26 GMT-0500 (Central Daylight Time),685136.599999994,025_y_m_d_a.png,I,None,2017,10,1,3029.800000011921,682106.7999999821,8104,VNB,C,8
8,test,2,0.0,2-Back,1.0,m,Fri Mar 27 2026 11:07:26 GMT-0500 (Central Daylight Time),687101.6999999881,014_m_m_n_a.png,I,m,933,11,1,1962.199999988079,685139.5,8104,VNB,C,9
9,test,2,0.0,2-Back,1.0,m,Fri Mar 27 2026 11:07:26 GMT-0500 (Central Daylight Time),689266.900000006,019_m_f_h_a.png,I,m,1136,12,1,2160.600000023842,687106.2999999821,8104,VNB,C,10
10,test,2,1.0,2-Back,1.0,z,Fri Mar 27 2026 11:07:26 GMT-0500 (Central Daylight Time),691116.2999999821,015_o_m_n_a.png,I,z,827,13,1,1847.0,689269.2999999821,8104,VNB,C,11
11,test,2,0.0,2-Back,1.0,m,Fri Mar 27 2026 11:07:26 GMT-0500 (Central Daylight Time),693199.099999994,012_o_f_d_a.png,I,m,1050,14,1,2077.5999999940395,691121.5,8104,VNB,C,12
11,test,2,0.0,2-Back,0.0,m,Fri Mar 27 2026 11:07:26 GMT-0500 (Central Daylight Time),695481.2999999821,022_y_f_h_a.png,I,z,1262,15,1,2279.5999999940395,693201.6999999881,8104,VNB,C,13
11,test,2,0.0,2-Back,0.0,z,Fri Mar 27 2026 11:07:26 GMT-0500 (Central Daylight Time),697247.6999999881,014_m_m_d_a.png,I,m,748,16,1,1762.0999999940395,695485.599999994,8104,VNB,C,14
12,test,2,0.0,2-Back,1.0,m,Fri Mar 27 2026 11:07:26 GMT-0500 (Central Daylight Time),699413.5,025_y_m_n_a.png,I,m,1133,17,1,2163.5,697250.0,8104,VNB,C,15
13,test,2,1.0,2-Back,1.0,m,Fri Mar 27 2026 11:07:26 GMT-0500 (Central Daylight Time),701829.599999994,019_m_f_n_a.png,I,m,1384,18,1,2411.300000011921,699418.2999999821,8104,VNB,C,16
0,test,3,1.0,2-Back,,,Fri Mar 27 2026 11:07:26 GMT-0500 (Central Daylight Time),701829.599999994,015_o_m_n_a.png,I,space,2384,1,1,2411.300000011921,699418.2999999821,8104,VNB,C,0
0,test,3,1.0,2-Back,,,Fri Mar 27 2026 11:07:26 GMT-0500 (Central Daylight Time),701829.599999994,012_o_f_d_a.png,I,space,2384,2,1,2411.300000011921,699418.2999999821,8104,VNB,C,0
1,test,3,0.0,2-Back,1.0,m,Fri Mar 27 2026 11:07:26 GMT-0500 (Central Daylight Time),711309.900000006,022_y_f_h_a.png,I,m,1025,3,1,2046.800000011921,709263.099999994,8104,VNB,C,1
2,test,3,0.0,2-Back,1.0,z,Fri Mar 27 2026 11:07:26 GMT-0500 (Central Daylight Time),713492.599999994,019_m_f_d_a.png,I,z,1151,4,1,2178.5999999940395,711314.0,8104,VNB,C,2
3,test,3,1.0,2-Back,1.0,m,Fri Mar 27 2026 11:07:26 GMT-0500 (Central Daylight Time),715808.5,025_y_m_n_a.png,I,m,1297,5,1,2313.5,713495.0,8104,VNB,C,3
3,test,3,0.0,2-Back,0.0,m,Fri Mar 27 2026 11:07:26 GMT-0500 (Central Daylight Time),718724.1999999881,015_o_m_h_a.png,I,z,1885,6,1,2911.0,715813.1999999881,8104,VNB,C,4
4,test,3,0.0,2-Back,1.0,z,Fri Mar 27 2026 11:07:26 GMT-0500 (Central Daylight Time),721406.7999999821,022_y_f_n_a.png,I,z,1657,7,1,2680.0999999940395,718726.6999999881,8104,VNB,C,5
5,test,3,1.0,2-Back,1.0,m,Fri Mar 27 2026 11:07:26 GMT-0500 (Central Daylight Time),723139.599999994,014_m_m_d_a.png,I,m,710,8,1,1728.199999988079,721411.400000006,8104,VNB,C,6
6,test,3,0.0,2-Back,1.0,m,Fri Mar 27 2026 11:07:26 GMT-0500 (Central Daylight Time),725122.1999999881,025_y_m_d_a.png,I,m,961,9,1,1980.2999999821186,723141.900000006,8104,VNB,C,7
7,test,3,0.0,2-Back,1.0,m,Fri Mar 27 2026 11:07:26 GMT-0500 (Central Daylight Time),727838.1999999881,012_o_f_h_a.png,I,m,1683,10,1,2711.0999999940395,725127.099999994,8104,VNB,C,8
8,test,3,1.0,2-Back,1.0,m,Fri Mar 27 2026 11:07:26 GMT-0500 (Central Daylight Time),730187.400000006,019_m_f_n_a.png,I,m,1319,11,1,2346.800000011921,727840.599999994,8104,VNB,C,9
8,test,3,1.0,2-Back,0.0,z,Fri Mar 27 2026 11:07:26 GMT-0500 (Central Daylight Time),733069.6999999881,014_m_m_h_a.png,I,m,1866,12,1,2878.199999988079,730191.5,8104,VNB,C,10
8,test,3,0.0,2-Back,0.0,m,Fri Mar 27 2026 11:07:26 GMT-0500 (Central Daylight Time),735335.7999999821,022_y_f_d_a.png,I,z,1248,13,1,2263.399999976158,733072.400000006,8104,VNB,C,11
8,test,3,0.0,2-Back,0.0,m,Fri Mar 27 2026 11:07:26 GMT-0500 (Central Daylight Time),738234.7999999821,012_o_f_n_a.png,I,z,1878,14,1,2894.5,735340.2999999821,8104,VNB,C,12
8,test,3,0.0,2-Back,0.0,z,Fri Mar 27 2026 11:07:26 GMT-0500 (Central Daylight Time),740001.099999994,015_o_m_d_a.png,I,m,738,15,1,1763.5,738237.599999994,8104,VNB,C,13
9,test,3,1.0,2-Back,1.0,m,Fri Mar 27 2026 11:07:26 GMT-0500 (Central Daylight Time),742200.0,019_m_f_h_a.png,I,m,1179,16,1,2194.300000011921,740005.6999999881,8104,VNB,C,14
10,test,3,0.0,2-Back,1.0,m,Fri Mar 27 2026 11:07:26 GMT-0500 (Central Daylight Time),744249.6999999881,014_m_m_n_a.png,I,m,1021,17,1,2047.0,742202.6999999881,8104,VNB,C,15
11,test,3,0.0,2-Back,1.0,z,Fri Mar 27 2026 11:07:26 GMT-0500 (Central Daylight Time),746732.099999994,025_y_m_h_a.png,I,z,1452,18,1,2478.0999999940395,744254.0,8104,VNB,C,16
0,test,4,0.0,2-Back,,,Fri Mar 27 2026 11:07:26 GMT-0500 (Central Daylight Time),746732.099999994,019_m_f_n_a.png,I,space,2545,1,1,2478.0999999940395,744254.0,8104,VNB,C,0
0,test,4,0.0,2-Back,,,Fri Mar 27 2026 11:07:26 GMT-0500 (Central Daylight Time),746732.099999994,015_o_m_n_a.png,I,space,2545,2,1,2478.0999999940395,744254.0,8104,VNB,C,0
1,test,4,1.0,2-Back,1.0,m,Fri Mar 27 2026 11:07:26 GMT-0500 (Central Daylight Time),756412.400000006,025_y_m_h_a.png,I,m,858,3,1,1879.9000000059605,754532.5,8104,VNB,C,1
2,test,4,1.0,2-Back,1.0,m,Fri Mar 27 2026 11:07:26 GMT-0500 (Central Daylight Time),758728.5,012_o_f_d_a.png,I,m,1297,4,1,2310.0999999940395,756418.400000006,8104,VNB,C,2
3,test,4,0.0,2-Back,1.0,z,Fri Mar 27 2026 11:07:26 GMT-0500 (Central Daylight Time),760611.1999999881,015_o_m_h_a.png,I,z,852,5,1,1880.5,758730.6999999881,8104,VNB,C,3
3,test,4,0.0,2-Back,0.0,m,Fri Mar 27 2026 11:07:26 GMT-0500 (Central Daylight Time),763643.6999999881,014_m_m_n_a.png,I,None,2016,6,1,3027.0999999940395,760616.599999994,8104,VNB,C,4
4,test,4,0.0,2-Back,1.0,m,Fri Mar 27 2026 11:07:26 GMT-0500 (Central Daylight Time),765426.5,019_m_f_d_a.png,I,m,753,7,1,1780.300000011921,763646.1999999881,8104,VNB,C,5
4,test,4,0.0,2-Back,0.0,z,Fri Mar 27 2026 11:07:26 GMT-0500 (Central Daylight Time),768459.099999994,022_y_f_n_a.png,I,None,2016,8,1,3028.5999999940395,765430.5,8104,VNB,C,6
5,test,4,1.0,2-Back,1.0,m,Fri Mar 27 2026 11:07:26 GMT-0500 (Central Daylight Time),770358.400000006,012_o_f_h_a.png,I,m,867,9,1,1897.0,768461.400000006,8104,VNB,C,7
6,test,4,0.0,2-Back,1.0,m,Fri Mar 27 2026 11:07:26 GMT-0500 (Central Daylight Time),772574.099999994,014_m_m_h_a.png,I,m,1182,10,1,2212.199999988079,770361.900000006,8104,VNB,C,8
7,test,4,0.0,2-Back,1.0,m,Fri Mar 27 2026 11:07:26 GMT-0500 (Central Daylight Time),774856.7999999821,022_y_f_d_a.png,I,m,1263,11,1,2280.399999976158,772576.400000006,8104,VNB,C,9
8,test,4,0.0,2-Back,1.0,m,Fri Mar 27 2026 11:07:26 GMT-0500 (Central Daylight Time),777172.6999999881,025_y_m_n_a.png,I,m,1292,12,1,2311.699999988079,774861.0,8104,VNB,C,10
9,test,4,0.0,2-Back,1.0,z,Fri Mar 27 2026 11:07:26 GMT-0500 (Central Daylight Time),779838.7999999821,015_o_m_d_a.png,I,z,1649,13,1,2663.699999988079,777175.099999994,8104,VNB,C,11
10,test,4,1.0,2-Back,1.0,m,Fri Mar 27 2026 11:07:26 GMT-0500 (Central Daylight Time),782205.6999999881,019_m_f_h_a.png,I,m,1351,14,1,2363.699999988079,779842.0,8104,VNB,C,12
10,test,4,1.0,2-Back,0.0,m,Fri Mar 27 2026 11:07:26 GMT-0500 (Central Daylight Time),785238.400000006,022_y_f_h_a.png,I,None,2017,15,1,3030.300000011921,782208.099999994,8104,VNB,C,13
11,test,4,0.0,2-Back,1.0,m,Fri Mar 27 2026 11:07:26 GMT-0500 (Central Daylight Time),787302.599999994,012_o_f_n_a.png,I,m,1040,16,1,2060.0999999940395,785242.5,8104,VNB,C,14
12,test,4,0.0,2-Back,1.0,m,Fri Mar 27 2026 11:07:26 GMT-0500 (Central Daylight Time),789318.599999994,025_y_m_d_a.png,I,m,989,17,1,2013.800000011921,787304.7999999821,8104,VNB,C,15
12,test,4,1.0,2-Back,0.0,m,Fri Mar 27 2026 11:07:26 GMT-0500 (Central Daylight Time),791485.0,014_m_m_d_a.png,I,z,1133,18,1,2162.4000000059605,789322.599999994,8104,VNB,C,16
0,test,5,1.0,2-Back,,,Fri Mar 27 2026 11:07:26 GMT-0500 (Central Daylight Time),791485.0,022_y_f_d_a.png,I,space,1576,1,1,2162.4000000059605,789322.599999994,8104,VNB,C,0
0,test,5,1.0,2-Back,,,Fri Mar 27 2026 11:07:26 GMT-0500 (Central Daylight Time),791485.0,012_o_f_h_a.png,I,space,1576,2,1,2162.4000000059605,789322.599999994,8104,VNB,C,0
1,test,5,1.0,2-Back,1.0,z,Fri Mar 27 2026 11:07:26 GMT-0500 (Central Daylight Time),800465.400000006,015_o_m_d_a.png,I,z,1129,3,1,2146.7000000178814,798318.6999999881,8104,VNB,C,1
2,test,5,1.0,2-Back,1.0,m,Fri Mar 27 2026 11:07:26 GMT-0500 (Central Daylight Time),802914.6999999881,019_m_f_n_a.png,I,m,1428,4,1,2444.7999999821186,800469.900000006,8104,VNB,C,2
2,test,5,0.0,2-Back,0.0,m,Fri Mar 27 2026 11:07:26 GMT-0500 (Central Daylight Time),805080.599999994,014_m_m_h_a.png,I,z,1139,5,1,2163.5999999940395,802917.0,8104,VNB,C,3
2,test,5,0.0,2-Back,0.0,z,Fri Mar 27 2026 11:07:26 GMT-0500 (Central Daylight Time),806948.1999999881,022_y_f_n_a.png,I,m,837,6,1,1863.699999988079,805084.5,8104,VNB,C,4
3,test,5,0.0,2-Back,1.0,m,Fri Mar 27 2026 11:07:26 GMT-0500 (Central Daylight Time),808829.5,012_o_f_d_a.png,I,m,858,7,1,1878.800000011921,806950.6999999881,8104,VNB,C,5
3,test,5,0.0,2-Back,0.0,m,Fri Mar 27 2026 11:07:26 GMT-0500 (Central Daylight Time),811078.6999999881,015_o_m_h_a.png,I,z,1224,8,1,2244.5,808834.1999999881,8104,VNB,C,6
3,test,5,1.0,2-Back,0.0,z,Fri Mar 27 2026 11:07:26 GMT-0500 (Central Daylight Time),813191.5,019_m_f_d_a.png,I,m,1096,9,1,2110.4000000059605,811081.099999994,8104,VNB,C,7
4,test,5,0.0,2-Back,1.0,m,Fri Mar 27 2026 11:07:26 GMT-0500 (Central Daylight Time),814994.099999994,025_y_m_n_a.png,I,m,778,10,1,1797.4000000059605,813196.6999999881,8104,VNB,C,8
5,test,5,0.0,2-Back,1.0,m,Fri Mar 27 2026 11:07:26 GMT-0500 (Central Daylight Time),817193.5,014_m_m_n_a.png,I,m,1179,11,1,2196.9000000059605,814996.599999994,8104,VNB,C,9
6,test,5,0.0,2-Back,1.0,m,Fri Mar 27 2026 11:07:26 GMT-0500 (Central Daylight Time),819426.0,022_y_f_h_a.png,I,m,1204,12,1,2227.5999999940395,817198.400000006,8104,VNB,C,10
7,test,5,0.0,2-Back,1.0,m,Fri Mar 27 2026 11:07:26 GMT-0500 (Central Daylight Time),821525.599999994,025_y_m_d_a.png,I,m,1067,13,1,2097.199999988079,819428.400000006,8104,VNB,C,11
7,test,5,1.0,2-Back,0.0,z,Fri Mar 27 2026 11:07:26 GMT-0500 (Central Daylight Time),823958.1999999881,019_m_f_h_a.png,I,m,1400,14,1,2429.0,821529.1999999881,8104,VNB,C,12
7,test,5,0.0,2-Back,0.0,m,Fri Mar 27 2026 11:07:26 GMT-0500 (Central Daylight Time),826507.1999999881,015_o_m_n_a.png,I,z,1519,15,1,2546.5,823960.6999999881,8104,VNB,C,13
8,test,5,0.0,2-Back,1.0,m,Fri Mar 27 2026 11:07:26 GMT-0500 (Central Daylight Time),828806.599999994,014_m_m_d_a.png,I,m,1274,16,1,2294.9000000059605,826511.6999999881,8104,VNB,C,14
9,test,5,0.0,2-Back,1.0,z,Fri Mar 27 2026 11:07:26 GMT-0500 (Central Daylight Time),831422.6999999881,012_o_f_n_a.png,I,z,1584,17,1,2613.5999999940395,828809.099999994,8104,VNB,C,15
10,test,5,1.0,2-Back,1.0,m,Fri Mar 27 2026 11:07:26 GMT-0500 (Central Daylight Time),833371.7999999821,025_y_m_h_a.png,I,m,919,18,1,1945.0999999940395,831426.6999999881,8104,VNB,C,16
