acc_sum,block,block_c,change,condition,correct,correct_response,datetime,endtime,face,project,response,response_time,row_sel,session_number,start_end,starttime,subject_id,task,task_vers,trial
0,prac,1,,1-Back,,,Thu Feb 26 2026 16:57:06 GMT-0600 (Central Standard Time),,005_o_f_d_a.png,O,space,10632,1,1,,,7747,VNB,B,0
1,prac,1,0.0,1-Back,1.0,m,Thu Feb 26 2026 16:57:06 GMT-0600 (Central Standard Time),153307.30000001192,020_y_f_n_a.png,O,m,1611,2,1,2515.600000023842,150791.69999998808,7747,VNB,B,1
2,prac,1,0.0,1-Back,1.0,m,Thu Feb 26 2026 16:57:06 GMT-0600 (Central Standard Time),155556.59999996424,007_m_m_h_a.png,O,m,1313,3,1,2243.599999964237,153313.0,7747,VNB,B,2
2,prac,1,0.0,1-Back,0.0,m,Thu Feb 26 2026 16:57:06 GMT-0600 (Central Standard Time),157705.80000001192,016_y_m_d_a.png,O,z,1199,4,1,2135.900000035763,155569.89999997616,7747,VNB,B,3
2,prac,1,0.0,1-Back,0.0,m,Thu Feb 26 2026 16:57:06 GMT-0600 (Central Standard Time),160621.5,005_o_f_n_a.png,O,None,2002,5,1,2910.400000035763,157711.09999996424,7747,VNB,B,4
2,prac,1,1.0,1-Back,0.0,z,Thu Feb 26 2026 16:57:06 GMT-0600 (Central Standard Time),162754.30000001192,016_y_m_n_a.png,O,m,1188,6,1,2120.100000023842,160634.19999998808,7747,VNB,B,5
3,prac,1,0.0,1-Back,1.0,m,Thu Feb 26 2026 16:57:06 GMT-0600 (Central Standard Time),165420.59999996424,004_o_m_h_a.png,O,m,1750,7,1,2658.699999988079,162761.89999997616,7747,VNB,B,6
3,prac,1,0.0,1-Back,0.0,m,Thu Feb 26 2026 16:57:06 GMT-0600 (Central Standard Time),167386.5,011_m_f_d_a.png,O,z,986,8,1,1921.300000011921,165465.19999998808,7747,VNB,B,7
4,prac,1,1.0,1-Back,1.0,z,Thu Feb 26 2026 16:57:06 GMT-0600 (Central Standard Time),169619.19999998808,020_y_f_d_a.png,O,z,1279,9,1,2214.699999988079,167404.5,7747,VNB,B,8
4,prac,1,0.0,1-Back,0.0,m,Thu Feb 26 2026 16:57:06 GMT-0600 (Central Standard Time),172584.59999996424,007_m_m_n_a.png,O,None,2014,10,1,2937.5,169647.09999996424,7747,VNB,B,9
4,prac,1,0.0,1-Back,0.0,m,Thu Feb 26 2026 16:57:06 GMT-0600 (Central Standard Time),175533.19999998808,005_o_f_h_a.png,O,None,2011,11,1,2929.899999976158,172603.30000001192,7747,VNB,B,10
5,prac,1,0.0,1-Back,1.0,m,Thu Feb 26 2026 16:57:06 GMT-0600 (Central Standard Time),177550.0,016_y_m_d_a.png,O,m,1076,12,1,2005.5,175544.5,7747,VNB,B,11
0,prac,2,0.0,1-Back,,,Thu Feb 26 2026 16:57:06 GMT-0600 (Central Standard Time),177550.0,005_o_f_d_a.png,O,a,7536,1,1,2005.5,175544.5,7747,VNB,B,0
1,prac,2,0.0,1-Back,1.0,m,Thu Feb 26 2026 16:57:06 GMT-0600 (Central Standard Time),190695.0,020_y_f_n_a.png,O,m,1621,2,1,2538.100000023842,188156.89999997616,7747,VNB,B,1
1,prac,2,0.0,1-Back,0.0,m,Thu Feb 26 2026 16:57:06 GMT-0600 (Central Standard Time),193010.89999997616,007_m_m_h_a.png,O,z,1390,3,1,2310.5,190700.39999997616,7747,VNB,B,2
2,prac,2,0.0,1-Back,1.0,m,Thu Feb 26 2026 16:57:06 GMT-0600 (Central Standard Time),195060.09999996424,016_y_m_d_a.png,O,m,1266,4,1,2036.2999999523163,193023.80000001192,7747,VNB,B,3
3,prac,2,0.0,1-Back,1.0,m,Thu Feb 26 2026 16:57:06 GMT-0600 (Central Standard Time),197309.5,005_o_f_n_a.png,O,m,1325,5,1,2242.100000023842,195067.39999997616,7747,VNB,B,4
3,prac,2,1.0,1-Back,0.0,z,Thu Feb 26 2026 16:57:06 GMT-0600 (Central Standard Time),199226.09999996424,016_y_m_n_a.png,O,m,956,6,1,1900.5999999642372,197325.5,7747,VNB,B,5
3,prac,2,0.0,1-Back,0.0,m,Thu Feb 26 2026 16:57:06 GMT-0600 (Central Standard Time),202158.5,004_o_m_h_a.png,O,None,2003,7,1,2914.900000035763,199243.59999996424,7747,VNB,B,6
4,prac,2,0.0,1-Back,1.0,m,Thu Feb 26 2026 16:57:06 GMT-0600 (Central Standard Time),204241.30000001192,011_m_f_d_a.png,O,m,1111,8,1,2041.9000000357628,202199.39999997616,7747,VNB,B,7
4,prac,2,1.0,1-Back,0.0,z,Thu Feb 26 2026 16:57:06 GMT-0600 (Central Standard Time),206257.19999998808,020_y_f_d_a.png,O,m,1044,9,1,1998.1000000238419,204259.09999996424,7747,VNB,B,8
5,prac,2,0.0,1-Back,1.0,m,Thu Feb 26 2026 16:57:06 GMT-0600 (Central Standard Time),208556.59999996424,007_m_m_n_a.png,O,m,1330,10,1,2261.399999976158,206295.19999998808,7747,VNB,B,9
5,prac,2,0.0,1-Back,0.0,m,Thu Feb 26 2026 16:57:06 GMT-0600 (Central Standard Time),210555.0,005_o_f_h_a.png,O,z,1028,11,1,1980.9000000357628,208574.09999996424,7747,VNB,B,10
6,prac,2,0.0,1-Back,1.0,m,Thu Feb 26 2026 16:57:06 GMT-0600 (Central Standard Time),212771.89999997616,016_y_m_d_a.png,O,m,1277,12,1,2206.099999964237,210565.80000001192,7747,VNB,B,11
0,prac,3,0.0,1-Back,,,Thu Feb 26 2026 16:57:06 GMT-0600 (Central Standard Time),212771.89999997616,005_o_f_d_a.png,O,a,14600,1,1,2206.099999964237,210565.80000001192,7747,VNB,B,0
1,prac,3,0.0,1-Back,1.0,m,Thu Feb 26 2026 16:57:06 GMT-0600 (Central Standard Time),232798.59999996424,020_y_f_n_a.png,O,m,1413,2,1,2326.7999999523163,230471.80000001192,7747,VNB,B,1
2,prac,3,0.0,1-Back,1.0,m,Thu Feb 26 2026 16:57:06 GMT-0600 (Central Standard Time),235081.09999996424,007_m_m_h_a.png,O,m,1327,3,1,2266.699999988079,232814.39999997616,7747,VNB,B,2
3,prac,3,0.0,1-Back,1.0,m,Thu Feb 26 2026 16:57:06 GMT-0600 (Central Standard Time),237097.19999998808,016_y_m_d_a.png,O,m,1204,4,1,1978.6000000238419,235118.59999996424,7747,VNB,B,3
3,prac,3,0.0,1-Back,0.0,m,Thu Feb 26 2026 16:57:06 GMT-0600 (Central Standard Time),239149.0,005_o_f_n_a.png,O,z,1085,5,1,2035.0,237114.0,7747,VNB,B,4
3,prac,3,1.0,1-Back,0.0,z,Thu Feb 26 2026 16:57:06 GMT-0600 (Central Standard Time),241579.0,016_y_m_n_a.png,O,m,1465,6,1,2398.800000011921,239180.19999998808,7747,VNB,B,5
4,prac,3,0.0,1-Back,1.0,m,Thu Feb 26 2026 16:57:06 GMT-0600 (Central Standard Time),243878.39999997616,004_o_m_h_a.png,O,m,1366,7,1,2282.399999976158,241596.0,7747,VNB,B,6
5,prac,3,0.0,1-Back,1.0,m,Thu Feb 26 2026 16:57:06 GMT-0600 (Central Standard Time),245860.5,011_m_f_d_a.png,O,m,1014,8,1,1944.4000000357628,243916.09999996424,7747,VNB,B,7
6,prac,3,1.0,1-Back,1.0,z,Thu Feb 26 2026 16:57:06 GMT-0600 (Central Standard Time),248276.80000001192,020_y_f_d_a.png,O,z,1507,9,1,2409.7000000476837,245867.09999996424,7747,VNB,B,8
6,prac,3,0.0,1-Back,0.0,m,Thu Feb 26 2026 16:57:06 GMT-0600 (Central Standard Time),250626.0,007_m_m_n_a.png,O,z,1383,10,1,2320.5,248305.5,7747,VNB,B,9
7,prac,3,0.0,1-Back,1.0,m,Thu Feb 26 2026 16:57:06 GMT-0600 (Central Standard Time),252825.19999998808,005_o_f_h_a.png,O,m,1220,11,1,2182.899999976158,250642.30000001192,7747,VNB,B,10
8,prac,3,0.0,1-Back,1.0,m,Thu Feb 26 2026 16:57:06 GMT-0600 (Central Standard Time),255041.30000001192,016_y_m_d_a.png,O,m,1238,12,1,2180.800000011921,252860.5,7747,VNB,B,11
0,test,1,0.0,1-Back,,,Thu Feb 26 2026 16:57:06 GMT-0600 (Central Standard Time),255041.30000001192,020_y_f_d_a.png,O,space,8018,1,1,2180.800000011921,252860.5,7747,VNB,B,0
1,test,1,0.0,1-Back,1.0,m,Thu Feb 26 2026 16:57:06 GMT-0600 (Central Standard Time),278582.6999999881,011_m_f_n_a.png,O,m,1178,2,1,2185.699999988079,276397.0,7747,VNB,B,1
2,test,1,0.0,1-Back,1.0,m,Thu Feb 26 2026 16:57:06 GMT-0600 (Central Standard Time),280665.59999996424,004_o_m_h_a.png,O,m,1051,3,1,2078.2999999523163,278587.3000000119,7747,VNB,B,2
2,test,1,1.0,1-Back,0.0,z,Thu Feb 26 2026 16:57:06 GMT-0600 (Central Standard Time),283015.59999996424,007_m_m_h_a.png,O,m,1329,4,1,2335.199999988079,280680.39999997616,7747,VNB,B,3
2,test,1,0.0,1-Back,0.0,m,Thu Feb 26 2026 16:57:06 GMT-0600 (Central Standard Time),284914.8000000119,005_o_f_n_a.png,O,z,868,5,1,1889.4000000357628,283025.39999997616,7747,VNB,B,4
2,test,1,0.0,1-Back,0.0,m,Thu Feb 26 2026 16:57:06 GMT-0600 (Central Standard Time),287130.5,016_y_m_d_a.png,O,z,1168,6,1,2190.600000023842,284939.89999997616,7747,VNB,B,5
3,test,1,1.0,1-Back,1.0,z,Thu Feb 26 2026 16:57:06 GMT-0600 (Central Standard Time),289096.59999996424,011_m_f_d_a.png,O,z,936,7,1,1954.5999999642372,287142.0,7747,VNB,B,6
4,test,1,0.0,1-Back,1.0,m,Thu Feb 26 2026 16:57:06 GMT-0600 (Central Standard Time),291079.1999999881,020_y_f_h_a.png,O,m,947,8,1,1952.3999999761581,289126.8000000119,7747,VNB,B,7
5,test,1,0.0,1-Back,1.0,m,Thu Feb 26 2026 16:57:06 GMT-0600 (Central Standard Time),293562.09999996424,004_o_m_n_a.png,O,m,1452,9,1,2472.2999999523163,291089.8000000119,7747,VNB,B,8
6,test,1,0.0,1-Back,1.0,m,Thu Feb 26 2026 16:57:06 GMT-0600 (Central Standard Time),295877.1999999881,016_y_m_h_a.png,O,m,1272,10,1,2288.300000011921,293588.89999997616,7747,VNB,B,9
7,test,1,0.0,1-Back,1.0,m,Thu Feb 26 2026 16:57:06 GMT-0600 (Central Standard Time),297760.5,004_o_m_d_a.png,O,m,863,11,1,1877.800000011921,295882.6999999881,7747,VNB,B,10
8,test,1,1.0,1-Back,1.0,z,Thu Feb 26 2026 16:57:06 GMT-0600 (Central Standard Time),300193.1999999881,005_o_f_d_a.png,O,z,1386,12,1,2408.399999976158,297784.8000000119,7747,VNB,B,11
9,test,1,0.0,1-Back,1.0,m,Thu Feb 26 2026 16:57:06 GMT-0600 (Central Standard Time),302725.1999999881,007_m_m_n_a.png,O,m,1515,13,1,2521.699999988079,300203.5,7747,VNB,B,12
9,test,1,1.0,1-Back,0.0,z,Thu Feb 26 2026 16:57:06 GMT-0600 (Central Standard Time),305658.0,020_y_f_n_a.png,O,m,1885,14,1,2910.300000011921,302747.6999999881,7747,VNB,B,13
9,test,1,0.0,1-Back,0.0,m,Thu Feb 26 2026 16:57:06 GMT-0600 (Central Standard Time),307890.5,011_m_f_h_a.png,O,z,1210,15,1,2222.400000035763,305668.09999996424,7747,VNB,B,14
10,test,1,0.0,1-Back,1.0,m,Thu Feb 26 2026 16:57:06 GMT-0600 (Central Standard Time),310073.09999996424,007_m_m_d_a.png,O,m,1128,16,1,2150.599999964237,307922.5,7747,VNB,B,15
10,test,1,0.0,1-Back,0.0,m,Thu Feb 26 2026 16:57:06 GMT-0600 (Central Standard Time),313105.59999996424,016_y_m_n_a.png,O,None,2015,17,1,3022.399999976158,310083.1999999881,7747,VNB,B,16
11,test,1,0.0,1-Back,1.0,m,Thu Feb 26 2026 16:57:06 GMT-0600 (Central Standard Time),315354.8000000119,005_o_f_h_a.png,O,m,1211,18,1,2223.400000035763,313131.39999997616,7747,VNB,B,17
0,test,2,0.0,1-Back,,,Thu Feb 26 2026 16:57:06 GMT-0600 (Central Standard Time),315354.8000000119,016_y_m_n_a.png,O,space,2502,1,1,2223.400000035763,313131.39999997616,7747,VNB,B,0
1,test,2,0.0,1-Back,1.0,m,Thu Feb 26 2026 16:57:06 GMT-0600 (Central Standard Time),322585.5,020_y_f_h_a.png,O,m,1652,2,1,2672.0,319913.5,7747,VNB,B,1
2,test,2,1.0,1-Back,1.0,m,Thu Feb 26 2026 16:57:06 GMT-0600 (Central Standard Time),325051.59999996424,004_o_m_n_a.png,O,m,1433,3,1,2453.0,322598.59999996424,7747,VNB,B,2
3,test,2,0.0,1-Back,1.0,m,Thu Feb 26 2026 16:57:06 GMT-0600 (Central Standard Time),327867.39999997616,011_m_f_d_a.png,O,m,1768,4,1,2792.099999964237,325075.3000000119,7747,VNB,B,3
4,test,2,0.0,1-Back,1.0,z,Thu Feb 26 2026 16:57:06 GMT-0600 (Central Standard Time),330149.5,007_m_m_d_a.png,O,z,1264,5,1,2272.300000011921,327877.1999999881,7747,VNB,B,4
5,test,2,0.0,1-Back,1.0,m,Thu Feb 26 2026 16:57:06 GMT-0600 (Central Standard Time),332116.1999999881,016_y_m_h_a.png,O,m,915,6,1,1946.6000000238419,330169.59999996424,7747,VNB,B,5
5,test,2,1.0,1-Back,0.0,z,Thu Feb 26 2026 16:57:06 GMT-0600 (Central Standard Time),334165.09999996424,005_o_f_h_a.png,O,m,1017,7,1,2038.5,332126.59999996424,7747,VNB,B,6
6,test,2,0.0,1-Back,1.0,m,Thu Feb 26 2026 16:57:06 GMT-0600 (Central Standard Time),336597.59999996424,011_m_f_n_a.png,O,m,1372,8,1,2406.2999999523163,334191.3000000119,7747,VNB,B,7
7,test,2,0.0,1-Back,1.0,m,Thu Feb 26 2026 16:57:06 GMT-0600 (Central Standard Time),339263.39999997616,020_y_f_d_a.png,O,m,1646,9,1,2655.599999964237,336607.8000000119,7747,VNB,B,8
7,test,2,0.0,1-Back,0.0,m,Thu Feb 26 2026 16:57:06 GMT-0600 (Central Standard Time),342311.8000000119,007_m_m_n_a.png,O,None,2015,10,1,3022.300000011921,339289.5,7747,VNB,B,9
8,test,2,1.0,1-Back,1.0,m,Thu Feb 26 2026 16:57:06 GMT-0600 (Central Standard Time),345128.0,011_m_f_h_a.png,O,m,1796,11,1,2813.400000035763,342314.59999996424,7747,VNB,B,10
9,test,2,0.0,1-Back,1.0,z,Thu Feb 26 2026 16:57:06 GMT-0600 (Central Standard Time),347277.39999997616,004_o_m_h_a.png,O,z,1116,12,1,2118.899999976158,345158.5,7747,VNB,B,11
10,test,2,0.0,1-Back,1.0,m,Thu Feb 26 2026 16:57:06 GMT-0600 (Central Standard Time),349726.6999999881,016_y_m_d_a.png,O,m,1421,13,1,2438.100000023842,347288.59999996424,7747,VNB,B,12
11,test,2,0.0,1-Back,1.0,m,Thu Feb 26 2026 16:57:06 GMT-0600 (Central Standard Time),352359.1999999881,005_o_f_n_a.png,O,m,1597,14,1,2604.899999976158,349754.3000000119,7747,VNB,B,13
12,test,2,0.0,1-Back,1.0,z,Thu Feb 26 2026 16:57:06 GMT-0600 (Central Standard Time),354824.3000000119,020_y_f_n_a.png,O,z,1442,15,1,2455.2000000476837,352369.09999996424,7747,VNB,B,14
13,test,2,1.0,1-Back,1.0,m,Thu Feb 26 2026 16:57:06 GMT-0600 (Central Standard Time),357057.6999999881,007_m_m_h_a.png,O,m,1211,16,1,2221.5,354836.1999999881,7747,VNB,B,15
14,test,2,0.0,1-Back,1.0,m,Thu Feb 26 2026 16:57:06 GMT-0600 (Central Standard Time),359273.59999996424,005_o_f_d_a.png,O,m,1187,17,1,2206.099999964237,357067.5,7747,VNB,B,16
15,test,2,1.0,1-Back,1.0,z,Thu Feb 26 2026 16:57:06 GMT-0600 (Central Standard Time),361705.3000000119,004_o_m_d_a.png,O,z,1383,18,1,2407.5,359297.8000000119,7747,VNB,B,17
0,test,3,1.0,1-Back,,,Thu Feb 26 2026 16:57:06 GMT-0600 (Central Standard Time),361705.3000000119,005_o_f_h_a.png,O,space,2027,1,1,2407.5,359297.8000000119,7747,VNB,B,0
1,test,3,0.0,1-Back,1.0,m,Thu Feb 26 2026 16:57:06 GMT-0600 (Central Standard Time),368419.89999997616,011_m_f_d_a.png,O,m,1464,2,1,2482.5,365937.39999997616,7747,VNB,B,1
2,test,3,1.0,1-Back,1.0,m,Thu Feb 26 2026 16:57:06 GMT-0600 (Central Standard Time),370885.6999999881,007_m_m_n_a.png,O,m,1437,3,1,2462.600000023842,368423.09999996424,7747,VNB,B,2
2,test,3,0.0,1-Back,0.0,z,Thu Feb 26 2026 16:57:06 GMT-0600 (Central Standard Time),373452.3000000119,005_o_f_n_a.png,O,m,1543,4,1,2559.800000011921,370892.5,7747,VNB,B,3
3,test,3,1.0,1-Back,1.0,m,Thu Feb 26 2026 16:57:06 GMT-0600 (Central Standard Time),376317.1999999881,004_o_m_d_a.png,O,m,1839,5,1,2854.800000011921,373462.39999997616,7747,VNB,B,4
4,test,3,0.0,1-Back,1.0,m,Thu Feb 26 2026 16:57:06 GMT-0600 (Central Standard Time),378499.89999997616,020_y_f_h_a.png,O,m,1165,6,1,2174.899999976158,376325.0,7747,VNB,B,5
5,test,3,0.0,1-Back,1.0,z,Thu Feb 26 2026 16:57:06 GMT-0600 (Central Standard Time),380666.09999996424,016_y_m_h_a.png,O,z,1135,7,1,2162.199999988079,378503.89999997616,7747,VNB,B,6
6,test,3,0.0,1-Back,1.0,m,Thu Feb 26 2026 16:57:06 GMT-0600 (Central Standard Time),382732.39999997616,011_m_f_n_a.png,O,m,1026,8,1,2048.399999976158,380684.0,7747,VNB,B,7
7,test,3,0.0,1-Back,1.0,m,Thu Feb 26 2026 16:57:06 GMT-0600 (Central Standard Time),385265.09999996424,020_y_f_d_a.png,O,m,1502,9,1,2521.899999976158,382743.1999999881,7747,VNB,B,8
8,test,3,1.0,1-Back,1.0,m,Thu Feb 26 2026 16:57:06 GMT-0600 (Central Standard Time),387997.59999996424,004_o_m_n_a.png,O,m,1674,10,1,2693.7999999523163,385303.8000000119,7747,VNB,B,9
9,test,3,0.0,1-Back,1.0,m,Thu Feb 26 2026 16:57:06 GMT-0600 (Central Standard Time),390496.39999997616,007_m_m_h_a.png,O,m,1478,11,1,2488.899999976158,388007.5,7747,VNB,B,10
10,test,3,0.0,1-Back,1.0,z,Thu Feb 26 2026 16:57:06 GMT-0600 (Central Standard Time),392395.3000000119,011_m_f_h_a.png,O,z,865,12,1,1869.4000000357628,390525.89999997616,7747,VNB,B,11
11,test,3,1.0,1-Back,1.0,m,Thu Feb 26 2026 16:57:06 GMT-0600 (Central Standard Time),394330.09999996424,005_o_f_d_a.png,O,m,903,13,1,1930.8999999761581,392399.1999999881,7747,VNB,B,12
12,test,3,0.0,1-Back,1.0,z,Thu Feb 26 2026 16:57:06 GMT-0600 (Central Standard Time),396677.1999999881,007_m_m_d_a.png,O,z,1289,14,1,2313.5,394363.6999999881,7747,VNB,B,13
13,test,3,0.0,1-Back,1.0,m,Thu Feb 26 2026 16:57:06 GMT-0600 (Central Standard Time),399143.6999999881,016_y_m_n_a.png,O,m,1447,15,1,2462.399999976158,396681.3000000119,7747,VNB,B,14
14,test,3,1.0,1-Back,1.0,m,Thu Feb 26 2026 16:57:06 GMT-0600 (Central Standard Time),401659.8000000119,004_o_m_h_a.png,O,m,1467,16,1,2493.400000035763,399166.39999997616,7747,VNB,B,15
15,test,3,0.0,1-Back,1.0,m,Thu Feb 26 2026 16:57:06 GMT-0600 (Central Standard Time),404108.89999997616,016_y_m_d_a.png,O,m,1432,17,1,2438.0,401670.89999997616,7747,VNB,B,16
15,test,3,1.0,1-Back,0.0,m,Thu Feb 26 2026 16:57:06 GMT-0600 (Central Standard Time),406608.0,020_y_f_n_a.png,O,z,1446,18,1,2466.199999988079,404141.8000000119,7747,VNB,B,17
0,test,4,1.0,1-Back,,,Thu Feb 26 2026 16:57:06 GMT-0600 (Central Standard Time),406608.0,007_m_m_d_a.png,O,space,2050,1,1,2466.199999988079,404141.8000000119,7747,VNB,B,0
1,test,4,0.0,1-Back,1.0,z,Thu Feb 26 2026 16:57:06 GMT-0600 (Central Standard Time),413155.6999999881,004_o_m_d_a.png,O,z,1433,2,1,2456.5,410699.1999999881,7747,VNB,B,1
2,test,4,0.0,1-Back,1.0,m,Thu Feb 26 2026 16:57:06 GMT-0600 (Central Standard Time),415221.09999996424,016_y_m_h_a.png,O,m,1039,3,1,2057.399999976158,413163.6999999881,7747,VNB,B,2
3,test,4,0.0,1-Back,1.0,m,Thu Feb 26 2026 16:57:06 GMT-0600 (Central Standard Time),417854.59999996424,011_m_f_n_a.png,O,m,1606,4,1,2623.899999976158,415230.6999999881,7747,VNB,B,3
4,test,4,1.0,1-Back,1.0,m,Thu Feb 26 2026 16:57:06 GMT-0600 (Central Standard Time),420120.39999997616,005_o_f_h_a.png,O,m,1238,5,1,2256.099999964237,417864.3000000119,7747,VNB,B,4
5,test,4,0.0,1-Back,1.0,m,Thu Feb 26 2026 16:57:06 GMT-0600 (Central Standard Time),422869.3000000119,007_m_m_n_a.png,O,m,1715,6,1,2729.300000011921,420140.0,7747,VNB,B,5
5,test,4,0.0,1-Back,0.0,m,Thu Feb 26 2026 16:57:06 GMT-0600 (Central Standard Time),425901.89999997616,016_y_m_d_a.png,O,None,2016,7,1,3022.099999964237,422879.8000000119,7747,VNB,B,6
6,test,4,1.0,1-Back,1.0,z,Thu Feb 26 2026 16:57:06 GMT-0600 (Central Standard Time),428067.8000000119,020_y_f_d_a.png,O,z,1117,8,1,2140.0,425927.8000000119,7747,VNB,B,7
7,test,4,0.0,1-Back,1.0,m,Thu Feb 26 2026 16:57:06 GMT-0600 (Central Standard Time),430150.5,011_m_f_h_a.png,O,m,1056,9,1,2072.800000011921,428077.6999999881,7747,VNB,B,8
8,test,4,0.0,1-Back,1.0,z,Thu Feb 26 2026 16:57:06 GMT-0600 (Central Standard Time),432498.89999997616,004_o_m_h_a.png,O,z,1309,10,1,2320.800000011921,430178.09999996424,7747,VNB,B,9
9,test,4,1.0,1-Back,1.0,m,Thu Feb 26 2026 16:57:06 GMT-0600 (Central Standard Time),434565.1999999881,005_o_f_n_a.png,O,m,1047,11,1,2061.699999988079,432503.5,7747,VNB,B,10
10,test,4,0.0,1-Back,1.0,m,Thu Feb 26 2026 16:57:06 GMT-0600 (Central Standard Time),437380.39999997616,011_m_f_d_a.png,O,m,1780,12,1,2784.300000011921,434596.09999996424,7747,VNB,B,11
10,test,4,0.0,1-Back,0.0,m,Thu Feb 26 2026 16:57:06 GMT-0600 (Central Standard Time),439780.89999997616,020_y_f_n_a.png,O,z,1383,13,1,2396.399999976158,437384.5,7747,VNB,B,12
11,test,4,0.0,1-Back,1.0,m,Thu Feb 26 2026 16:57:06 GMT-0600 (Central Standard Time),442063.09999996424,005_o_f_d_a.png,O,m,1238,14,1,2254.899999976158,439808.1999999881,7747,VNB,B,13
12,test,4,0.0,1-Back,1.0,m,Thu Feb 26 2026 16:57:06 GMT-0600 (Central Standard Time),444395.0,020_y_f_h_a.png,O,m,1307,15,1,2321.800000011921,442073.1999999881,7747,VNB,B,14
13,test,4,1.0,1-Back,1.0,z,Thu Feb 26 2026 16:57:06 GMT-0600 (Central Standard Time),446528.39999997616,007_m_m_h_a.png,O,z,1113,16,1,2122.599999964237,444405.8000000119,7747,VNB,B,15
14,test,4,0.0,1-Back,1.0,m,Thu Feb 26 2026 16:57:06 GMT-0600 (Central Standard Time),448626.89999997616,004_o_m_n_a.png,O,m,1067,17,1,2088.5,446538.39999997616,7747,VNB,B,16
15,test,4,1.0,1-Back,1.0,z,Thu Feb 26 2026 16:57:06 GMT-0600 (Central Standard Time),451143.59999996424,016_y_m_n_a.png,O,z,1481,18,1,2504.199999988079,448639.39999997616,7747,VNB,B,17
0,test,5,1.0,1-Back,,,Thu Feb 26 2026 16:57:06 GMT-0600 (Central Standard Time),451143.59999996424,004_o_m_n_a.png,O,space,2340,1,1,2504.199999988079,448639.39999997616,7747,VNB,B,0
1,test,5,1.0,1-Back,1.0,m,Thu Feb 26 2026 16:57:06 GMT-0600 (Central Standard Time),457773.89999997616,005_o_f_h_a.png,O,m,1199,2,1,2234.300000011921,455539.59999996424,7747,VNB,B,1
2,test,5,0.0,1-Back,1.0,m,Thu Feb 26 2026 16:57:06 GMT-0600 (Central Standard Time),460090.6999999881,016_y_m_d_a.png,O,m,1294,3,1,2312.800000011921,457777.89999997616,7747,VNB,B,2
3,test,5,0.0,1-Back,1.0,z,Thu Feb 26 2026 16:57:06 GMT-0600 (Central Standard Time),462638.89999997616,004_o_m_d_a.png,O,z,1487,4,1,2515.5,460123.39999997616,7747,VNB,B,3
4,test,5,0.0,1-Back,1.0,m,Thu Feb 26 2026 16:57:06 GMT-0600 (Central Standard Time),464738.6999999881,011_m_f_h_a.png,O,m,1068,5,1,2095.899999976158,462642.8000000119,7747,VNB,B,4
5,test,5,0.0,1-Back,1.0,m,Thu Feb 26 2026 16:57:06 GMT-0600 (Central Standard Time),467487.89999997616,020_y_f_n_a.png,O,m,1720,6,1,2735.800000011921,464752.09999996424,7747,VNB,B,5
6,test,5,1.0,1-Back,1.0,z,Thu Feb 26 2026 16:57:06 GMT-0600 (Central Standard Time),469954.0,005_o_f_n_a.png,O,z,1435,7,1,2455.300000011921,467498.6999999881,7747,VNB,B,6
7,test,5,0.0,1-Back,1.0,m,Thu Feb 26 2026 16:57:06 GMT-0600 (Central Standard Time),472236.3000000119,011_m_f_d_a.png,O,m,1232,8,1,2251.600000023842,469984.6999999881,7747,VNB,B,7
8,test,5,0.0,1-Back,1.0,m,Thu Feb 26 2026 16:57:06 GMT-0600 (Central Standard Time),474635.1999999881,016_y_m_h_a.png,O,m,1373,9,1,2392.300000011921,472242.89999997616,7747,VNB,B,8
9,test,5,0.0,1-Back,1.0,m,Thu Feb 26 2026 16:57:06 GMT-0600 (Central Standard Time),477001.59999996424,020_y_f_d_a.png,O,m,1344,10,1,2360.0,474641.59999996424,7747,VNB,B,9
9,test,5,0.0,1-Back,0.0,m,Thu Feb 26 2026 16:57:06 GMT-0600 (Central Standard Time),480034.0,007_m_m_n_a.png,O,None,2015,11,1,3022.300000011921,477011.6999999881,7747,VNB,B,10
9,test,5,1.0,1-Back,0.0,z,Thu Feb 26 2026 16:57:06 GMT-0600 (Central Standard Time),482666.59999996424,011_m_f_n_a.png,O,m,1584,12,1,2607.399999976158,480059.1999999881,7747,VNB,B,11
9,test,5,0.0,1-Back,0.0,m,Thu Feb 26 2026 16:57:06 GMT-0600 (Central Standard Time),484932.3000000119,004_o_m_h_a.png,O,z,1241,13,1,2254.2000000476837,482678.09999996424,7747,VNB,B,12
10,test,5,0.0,1-Back,1.0,z,Thu Feb 26 2026 16:57:06 GMT-0600 (Central Standard Time),486831.0,007_m_m_h_a.png,O,z,854,14,1,1868.5,484962.5,7747,VNB,B,13
11,test,5,1.0,1-Back,1.0,m,Thu Feb 26 2026 16:57:06 GMT-0600 (Central Standard Time),488681.09999996424,005_o_f_d_a.png,O,m,820,15,1,1845.8999999761581,486835.1999999881,7747,VNB,B,14
12,test,5,0.0,1-Back,1.0,m,Thu Feb 26 2026 16:57:06 GMT-0600 (Central Standard Time),490947.09999996424,016_y_m_n_a.png,O,m,1217,16,1,2241.0,488706.09999996424,7747,VNB,B,15
12,test,5,0.0,1-Back,0.0,m,Thu Feb 26 2026 16:57:06 GMT-0600 (Central Standard Time),493195.39999997616,020_y_f_h_a.png,O,z,1232,17,1,2238.599999964237,490956.8000000119,7747,VNB,B,16
13,test,5,0.0,1-Back,1.0,m,Thu Feb 26 2026 16:57:06 GMT-0600 (Central Standard Time),495461.39999997616,007_m_m_d_a.png,O,m,1246,18,1,2259.599999964237,493201.8000000119,7747,VNB,B,17
0,prac,1,0.0,2-Back,,,Thu Feb 26 2026 16:57:06 GMT-0600 (Central Standard Time),495461.39999997616,011_m_f_n_a.png,O,space,3661,1,1,2259.599999964237,493201.8000000119,7747,VNB,B,0
0,prac,1,0.0,2-Back,,,Thu Feb 26 2026 16:57:06 GMT-0600 (Central Standard Time),495461.39999997616,005_o_f_h_a.png,O,space,3661,2,1,2259.599999964237,493201.8000000119,7747,VNB,B,0
0,prac,1,0.0,2-Back,0.0,m,Thu Feb 26 2026 16:57:06 GMT-0600 (Central Standard Time),606976.5,004_o_m_d_a.png,O,None,2006,3,1,3136.5,603840.0,7747,VNB,B,1
0,prac,1,1.0,2-Back,0.0,z,Thu Feb 26 2026 16:57:06 GMT-0600 (Central Standard Time),609957.0999999642,007_m_m_h_a.png,O,None,2001,4,1,2949.399999976158,607007.6999999881,7747,VNB,B,2
0,prac,1,0.0,2-Back,0.0,m,Thu Feb 26 2026 16:57:06 GMT-0600 (Central Standard Time),612239.8000000119,020_y_f_n_a.png,O,z,1350,5,1,2277.900000035763,609961.8999999762,7747,VNB,B,3
0,prac,1,1.0,2-Back,0.0,z,Thu Feb 26 2026 16:57:06 GMT-0600 (Central Standard Time),614307.1999999881,004_o_m_h_a.png,O,m,1144,6,1,2053.300000011921,612253.8999999762,7747,VNB,B,4
0,prac,1,1.0,2-Back,0.0,z,Thu Feb 26 2026 16:57:06 GMT-0600 (Central Standard Time),616972.3999999762,016_y_m_n_a.png,O,m,1578,7,1,2657.699999988079,614314.6999999881,7747,VNB,B,5
1,prac,1,0.0,2-Back,1.0,m,Thu Feb 26 2026 16:57:06 GMT-0600 (Central Standard Time),619138.5999999642,011_m_f_d_a.png,O,m,1179,8,1,2114.699999988079,617023.8999999762,7747,VNB,B,6
1,prac,1,0.0,2-Back,0.0,m,Thu Feb 26 2026 16:57:06 GMT-0600 (Central Standard Time),622120.5,005_o_f_d_a.png,O,None,2008,9,1,2961.900000035763,619158.5999999642,7747,VNB,B,7
2,prac,1,0.0,2-Back,1.0,m,Thu Feb 26 2026 16:57:06 GMT-0600 (Central Standard Time),624653.3999999762,007_m_m_h_a.png,O,m,1714,10,1,2491.800000011921,622161.5999999642,7747,VNB,B,8
3,prac,1,1.0,2-Back,1.0,z,Thu Feb 26 2026 16:57:06 GMT-0600 (Central Standard Time),627035.6999999881,020_y_f_d_a.png,O,z,1420,11,1,2365.399999976158,624670.3000000119,7747,VNB,B,9
4,prac,1,0.0,2-Back,1.0,m,Thu Feb 26 2026 16:57:06 GMT-0600 (Central Standard Time),629534.8999999762,004_o_m_n_a.png,O,m,1532,12,1,2457.0,627077.8999999762,7747,VNB,B,10
0,test,1,0.0,2-Back,,,Thu Feb 26 2026 16:57:06 GMT-0600 (Central Standard Time),629534.8999999762,016_y_m_h_a.png,O,space,5376,1,1,2457.0,627077.8999999762,7747,VNB,B,0
0,test,1,0.0,2-Back,,,Thu Feb 26 2026 16:57:06 GMT-0600 (Central Standard Time),629534.8999999762,005_o_f_n_a.png,O,space,5376,2,1,2457.0,627077.8999999762,7747,VNB,B,0
1,test,1,0.0,2-Back,1.0,z,Thu Feb 26 2026 16:57:06 GMT-0600 (Central Standard Time),655309.8999999762,004_o_m_h_a.png,O,z,1115,3,1,2121.099999964237,653188.8000000119,7747,VNB,B,1
2,test,1,0.0,2-Back,1.0,m,Thu Feb 26 2026 16:57:06 GMT-0600 (Central Standard Time),657542.0999999642,011_m_f_d_a.png,O,m,1199,4,1,2207.699999988079,655334.3999999762,7747,VNB,B,2
3,test,1,1.0,2-Back,1.0,m,Thu Feb 26 2026 16:57:06 GMT-0600 (Central Standard Time),660091.5,016_y_m_n_a.png,O,m,1527,5,1,2539.5,657552.0,7747,VNB,B,3
3,test,1,0.0,2-Back,0.0,z,Thu Feb 26 2026 16:57:06 GMT-0600 (Central Standard Time),662607.0999999642,020_y_f_d_a.png,O,m,1461,6,1,2484.099999964237,660123.0,7747,VNB,B,4
3,test,1,0.0,2-Back,0.0,m,Thu Feb 26 2026 16:57:06 GMT-0600 (Central Standard Time),665639.6999999881,007_m_m_h_a.png,O,None,2016,7,1,3018.5,662621.1999999881,7747,VNB,B,5
4,test,1,1.0,2-Back,1.0,m,Thu Feb 26 2026 16:57:06 GMT-0600 (Central Standard Time),668088.0999999642,020_y_f_n_a.png,O,m,1385,8,1,2409.099999964237,665679.0,7747,VNB,B,6
5,test,1,0.0,2-Back,1.0,z,Thu Feb 26 2026 16:57:06 GMT-0600 (Central Standard Time),670337.3999999762,005_o_f_h_a.png,O,z,1225,9,1,2244.699999988079,668092.6999999881,7747,VNB,B,7
6,test,1,0.0,2-Back,1.0,m,Thu Feb 26 2026 16:57:06 GMT-0600 (Central Standard Time),672370.1999999881,004_o_m_d_a.png,O,m,1001,10,1,2024.5,670345.6999999881,7747,VNB,B,8
6,test,1,1.0,2-Back,0.0,m,Thu Feb 26 2026 16:57:06 GMT-0600 (Central Standard Time),675369.0999999642,007_m_m_d_a.png,O,z,1975,11,1,2996.099999964237,672373.0,7747,VNB,B,9
7,test,1,0.0,2-Back,1.0,m,Thu Feb 26 2026 16:57:06 GMT-0600 (Central Standard Time),677685.5,011_m_f_n_a.png,O,m,1296,12,1,2304.199999988079,675381.3000000119,7747,VNB,B,10
7,test,1,0.0,2-Back,0.0,m,Thu Feb 26 2026 16:57:06 GMT-0600 (Central Standard Time),680117.5999999642,020_y_f_h_a.png,O,z,1404,13,1,2427.899999976158,677689.6999999881,7747,VNB,B,11
7,test,1,0.0,2-Back,0.0,z,Thu Feb 26 2026 16:57:06 GMT-0600 (Central Standard Time),682701.1999999881,007_m_m_n_a.png,O,m,1549,14,1,2576.199999988079,680125.0,7747,VNB,B,12
8,test,1,0.0,2-Back,1.0,m,Thu Feb 26 2026 16:57:06 GMT-0600 (Central Standard Time),685065.8999999762,016_y_m_d_a.png,O,m,1341,15,1,2351.5,682714.3999999762,7747,VNB,B,13
8,test,1,1.0,2-Back,0.0,m,Thu Feb 26 2026 16:57:06 GMT-0600 (Central Standard Time),687848.8999999762,011_m_f_h_a.png,O,z,1753,16,1,2776.099999964237,685072.8000000119,7747,VNB,B,14
8,test,1,0.0,2-Back,0.0,z,Thu Feb 26 2026 16:57:06 GMT-0600 (Central Standard Time),690447.3999999762,005_o_f_d_a.png,O,m,1577,17,1,2588.899999976158,687858.5,7747,VNB,B,15
9,test,1,0.0,2-Back,1.0,m,Thu Feb 26 2026 16:57:06 GMT-0600 (Central Standard Time),693113.3999999762,004_o_m_n_a.png,O,m,1642,18,1,2654.300000011921,690459.0999999642,7747,VNB,B,16
0,test,2,0.0,2-Back,,,Thu Feb 26 2026 16:57:06 GMT-0600 (Central Standard Time),693113.3999999762,007_m_m_h_a.png,O,space,3560,1,1,2654.300000011921,690459.0999999642,7747,VNB,B,0
0,test,2,0.0,2-Back,,,Thu Feb 26 2026 16:57:06 GMT-0600 (Central Standard Time),693113.3999999762,020_y_f_n_a.png,O,space,3560,2,1,2654.300000011921,690459.0999999642,7747,VNB,B,0
1,test,2,1.0,2-Back,1.0,z,Thu Feb 26 2026 16:57:06 GMT-0600 (Central Standard Time),704410.3000000119,005_o_f_h_a.png,O,z,1293,3,1,2316.100000023842,702094.1999999881,7747,VNB,B,1
2,test,2,0.0,2-Back,1.0,m,Thu Feb 26 2026 16:57:06 GMT-0600 (Central Standard Time),707009.3000000119,004_o_m_d_a.png,O,m,1570,4,1,2589.2000000476837,704420.0999999642,7747,VNB,B,2
3,test,2,0.0,2-Back,1.0,m,Thu Feb 26 2026 16:57:06 GMT-0600 (Central Standard Time),709708.5,011_m_f_d_a.png,O,m,1649,5,1,2675.0,707033.5,7747,VNB,B,3
4,test,2,0.0,2-Back,1.0,m,Thu Feb 26 2026 16:57:06 GMT-0600 (Central Standard Time),712041.0,016_y_m_h_a.png,O,m,1311,6,1,2322.5,709718.5,7747,VNB,B,4
4,test,2,0.0,2-Back,0.0,m,Thu Feb 26 2026 16:57:06 GMT-0600 (Central Standard Time),714589.5,005_o_f_n_a.png,O,z,1513,7,1,2523.900000035763,712065.5999999642,7747,VNB,B,5
4,test,2,1.0,2-Back,0.0,z,Thu Feb 26 2026 16:57:06 GMT-0600 (Central Standard Time),716788.8999999762,004_o_m_h_a.png,O,m,1169,8,1,2195.099999964237,714593.8000000119,7747,VNB,B,6
5,test,2,0.0,2-Back,1.0,m,Thu Feb 26 2026 16:57:06 GMT-0600 (Central Standard Time),719621.8000000119,020_y_f_d_a.png,O,m,1807,9,1,2824.400000035763,716797.3999999762,7747,VNB,B,7
5,test,2,0.0,2-Back,0.0,m,Thu Feb 26 2026 16:57:06 GMT-0600 (Central Standard Time),722655.0,016_y_m_d_a.png,O,None,2015,10,1,3022.400000035763,719632.5999999642,7747,VNB,B,8
5,test,2,0.0,2-Back,0.0,m,Thu Feb 26 2026 16:57:06 GMT-0600 (Central Standard Time),725036.8000000119,007_m_m_n_a.png,O,z,1325,11,1,2345.100000023842,722691.6999999881,7747,VNB,B,9
6,test,2,0.0,2-Back,1.0,m,Thu Feb 26 2026 16:57:06 GMT-0600 (Central Standard Time),727019.0999999642,011_m_f_h_a.png,O,m,959,12,1,1972.7999999523163,725046.3000000119,7747,VNB,B,10
6,test,2,1.0,2-Back,0.0,z,Thu Feb 26 2026 16:57:06 GMT-0600 (Central Standard Time),729734.8999999762,004_o_m_n_a.png,O,m,1697,13,1,2701.199999988079,727033.6999999881,7747,VNB,B,11
6,test,2,0.0,2-Back,0.0,m,Thu Feb 26 2026 16:57:06 GMT-0600 (Central Standard Time),732767.5999999642,005_o_f_d_a.png,O,None,2015,14,1,3022.399999976158,729745.1999999881,7747,VNB,B,12
6,test,2,0.0,2-Back,0.0,m,Thu Feb 26 2026 16:57:06 GMT-0600 (Central Standard Time),735832.8000000119,020_y_f_h_a.png,O,None,2016,15,1,3028.800000011921,732804.0,7747,VNB,B,13
6,test,2,0.0,2-Back,0.0,z,Thu Feb 26 2026 16:57:06 GMT-0600 (Central Standard Time),738249.0,007_m_m_d_a.png,O,m,1395,16,1,2411.699999988079,735837.3000000119,7747,VNB,B,14
7,test,2,0.0,2-Back,1.0,m,Thu Feb 26 2026 16:57:06 GMT-0600 (Central Standard Time),740448.0999999642,016_y_m_n_a.png,O,m,1136,17,1,2167.5,738280.5999999642,7747,VNB,B,15
8,test,2,1.0,2-Back,1.0,m,Thu Feb 26 2026 16:57:06 GMT-0600 (Central Standard Time),743047.5,011_m_f_n_a.png,O,m,1571,18,1,2591.699999988079,740455.8000000119,7747,VNB,B,16
0,test,3,1.0,2-Back,,,Thu Feb 26 2026 16:57:06 GMT-0600 (Central Standard Time),743047.5,004_o_m_n_a.png,O,space,1721,1,1,2591.699999988079,740455.8000000119,7747,VNB,B,0
0,test,3,1.0,2-Back,,,Thu Feb 26 2026 16:57:06 GMT-0600 (Central Standard Time),743047.5,005_o_f_d_a.png,O,space,1721,2,1,2591.699999988079,740455.8000000119,7747,VNB,B,0
1,test,3,0.0,2-Back,1.0,m,Thu Feb 26 2026 16:57:06 GMT-0600 (Central Standard Time),752527.8000000119,020_y_f_h_a.png,O,m,1664,3,1,2683.800000011921,749844.0,7747,VNB,B,1
1,test,3,0.0,2-Back,0.0,z,Thu Feb 26 2026 16:57:06 GMT-0600 (Central Standard Time),755076.1999999881,011_m_f_d_a.png,O,m,1523,4,1,2538.5,752537.6999999881,7747,VNB,B,2
1,test,3,1.0,2-Back,0.0,m,Thu Feb 26 2026 16:57:06 GMT-0600 (Central Standard Time),757242.1999999881,016_y_m_n_a.png,O,z,1133,5,1,2156.300000011921,755085.8999999762,7747,VNB,B,3
1,test,3,0.0,2-Back,0.0,m,Thu Feb 26 2026 16:57:06 GMT-0600 (Central Standard Time),760275.0999999642,004_o_m_h_a.png,O,None,2015,6,1,3028.899999976158,757246.1999999881,7747,VNB,B,4
1,test,3,0.0,2-Back,0.0,z,Thu Feb 26 2026 16:57:06 GMT-0600 (Central Standard Time),763223.5,020_y_f_n_a.png,O,m,1910,7,1,2928.5,760295.0,7747,VNB,B,5
2,test,3,1.0,2-Back,1.0,m,Thu Feb 26 2026 16:57:06 GMT-0600 (Central Standard Time),765656.8000000119,007_m_m_d_a.png,O,m,1413,8,1,2430.600000023842,763226.1999999881,7747,VNB,B,6
2,test,3,0.0,2-Back,0.0,m,Thu Feb 26 2026 16:57:06 GMT-0600 (Central Standard Time),768706.6999999881,016_y_m_d_a.png,O,None,2016,9,1,3027.0,765679.6999999881,7747,VNB,B,7
3,test,3,0.0,2-Back,1.0,m,Thu Feb 26 2026 16:57:06 GMT-0600 (Central Standard Time),771621.5,005_o_f_h_a.png,O,m,1882,10,1,2904.600000023842,768716.8999999762,7747,VNB,B,8
4,test,3,1.0,2-Back,1.0,m,Thu Feb 26 2026 16:57:06 GMT-0600 (Central Standard Time),774637.5,011_m_f_n_a.png,O,m,1961,11,1,2984.900000035763,771652.5999999642,7747,VNB,B,9
4,test,3,1.0,2-Back,0.0,z,Thu Feb 26 2026 16:57:06 GMT-0600 (Central Standard Time),777203.0,007_m_m_h_a.png,O,m,1540,12,1,2555.600000023842,774647.3999999762,7747,VNB,B,10
5,test,3,0.0,2-Back,1.0,m,Thu Feb 26 2026 16:57:06 GMT-0600 (Central Standard Time),779935.5999999642,020_y_f_d_a.png,O,m,1689,13,1,2708.599999964237,777227.0,7747,VNB,B,11
5,test,3,0.0,2-Back,0.0,m,Thu Feb 26 2026 16:57:06 GMT-0600 (Central Standard Time),782867.5999999642,005_o_f_n_a.png,O,z,1908,14,1,2921.7999999523163,779945.8000000119,7747,VNB,B,12
5,test,3,0.0,2-Back,0.0,z,Thu Feb 26 2026 16:57:06 GMT-0600 (Central Standard Time),785517.0,004_o_m_d_a.png,O,m,1607,15,1,2619.0,782898.0,7747,VNB,B,13
5,test,3,1.0,2-Back,0.0,m,Thu Feb 26 2026 16:57:06 GMT-0600 (Central Standard Time),788549.5,011_m_f_h_a.png,O,None,2015,16,1,3022.600000023842,785526.8999999762,7747,VNB,B,14
6,test,3,0.0,2-Back,1.0,m,Thu Feb 26 2026 16:57:06 GMT-0600 (Central Standard Time),789881.5,007_m_m_n_a.png,O,m,293,17,1,1308.199999988079,788573.3000000119,7747,VNB,B,15
6,test,3,0.0,2-Back,0.0,z,Thu Feb 26 2026 16:57:06 GMT-0600 (Central Standard Time),791881.8000000119,016_y_m_h_a.png,O,m,970,18,1,1996.6000000238419,789885.1999999881,7747,VNB,B,16
0,test,4,0.0,2-Back,,,Thu Feb 26 2026 16:57:06 GMT-0600 (Central Standard Time),791881.8000000119,011_m_f_n_a.png,O,space,1984,1,1,1996.6000000238419,789885.1999999881,7747,VNB,B,0
0,test,4,0.0,2-Back,,,Thu Feb 26 2026 16:57:06 GMT-0600 (Central Standard Time),791881.8000000119,004_o_m_n_a.png,O,space,1984,2,1,1996.6000000238419,789885.1999999881,7747,VNB,B,0
1,test,4,1.0,2-Back,1.0,m,Thu Feb 26 2026 16:57:06 GMT-0600 (Central Standard Time),801766.0,016_y_m_h_a.png,O,m,1503,3,1,2520.100000023842,799245.8999999762,7747,VNB,B,1
1,test,4,1.0,2-Back,0.0,m,Thu Feb 26 2026 16:57:06 GMT-0600 (Central Standard Time),804794.3000000119,005_o_f_d_a.png,O,None,2016,4,1,3025.2000000476837,801769.0999999642,7747,VNB,B,2
2,test,4,0.0,2-Back,1.0,z,Thu Feb 26 2026 16:57:06 GMT-0600 (Central Standard Time),807476.8999999762,004_o_m_h_a.png,O,z,1616,5,1,2645.800000011921,804831.0999999642,7747,VNB,B,3
3,test,4,0.0,2-Back,1.0,m,Thu Feb 26 2026 16:57:06 GMT-0600 (Central Standard Time),809775.3999999762,007_m_m_n_a.png,O,m,1280,6,1,2288.0,807487.3999999762,7747,VNB,B,4
3,test,4,0.0,2-Back,0.0,m,Thu Feb 26 2026 16:57:06 GMT-0600 (Central Standard Time),812841.3000000119,011_m_f_d_a.png,O,None,2001,7,1,3033.400000035763,809807.8999999762,7747,VNB,B,5
4,test,4,0.0,2-Back,1.0,z,Thu Feb 26 2026 16:57:06 GMT-0600 (Central Standard Time),815124.0999999642,020_y_f_n_a.png,O,z,1250,8,1,2272.599999964237,812851.5,7747,VNB,B,6
5,test,4,1.0,2-Back,1.0,m,Thu Feb 26 2026 16:57:06 GMT-0600 (Central Standard Time),817472.3000000119,005_o_f_h_a.png,O,m,1310,9,1,2319.800000011921,815152.5,7747,VNB,B,7
5,test,4,0.0,2-Back,0.0,m,Thu Feb 26 2026 16:57:06 GMT-0600 (Central Standard Time),820155.5999999642,007_m_m_h_a.png,O,z,1651,10,1,2680.599999964237,817475.0,7747,VNB,B,8
6,test,4,0.0,2-Back,1.0,m,Thu Feb 26 2026 16:57:06 GMT-0600 (Central Standard Time),822537.8000000119,020_y_f_d_a.png,O,m,1343,11,1,2355.2000000476837,820182.5999999642,7747,VNB,B,9
7,test,4,0.0,2-Back,1.0,m,Thu Feb 26 2026 16:57:06 GMT-0600 (Central Standard Time),824903.8999999762,016_y_m_n_a.png,O,m,1346,12,1,2356.300000011921,822547.5999999642,7747,VNB,B,10
8,test,4,0.0,2-Back,1.0,z,Thu Feb 26 2026 16:57:06 GMT-0600 (Central Standard Time),827452.8999999762,004_o_m_d_a.png,O,z,1508,13,1,2524.300000011921,824928.5999999642,7747,VNB,B,11
9,test,4,1.0,2-Back,1.0,m,Thu Feb 26 2026 16:57:06 GMT-0600 (Central Standard Time),829952.3999999762,011_m_f_h_a.png,O,m,1471,14,1,2489.0,827463.3999999762,7747,VNB,B,12
10,test,4,1.0,2-Back,1.0,m,Thu Feb 26 2026 16:57:06 GMT-0600 (Central Standard Time),832568.1999999881,020_y_f_h_a.png,O,m,1554,15,1,2578.5,829989.6999999881,7747,VNB,B,13
10,test,4,0.0,2-Back,0.0,m,Thu Feb 26 2026 16:57:06 GMT-0600 (Central Standard Time),834517.0,005_o_f_n_a.png,O,z,921,16,1,1939.199999988079,832577.8000000119,7747,VNB,B,14
11,test,4,0.0,2-Back,1.0,m,Thu Feb 26 2026 16:57:06 GMT-0600 (Central Standard Time),837053.8999999762,016_y_m_d_a.png,O,m,1518,17,1,2526.300000011921,834527.5999999642,7747,VNB,B,15
12,test,4,1.0,2-Back,1.0,m,Thu Feb 26 2026 16:57:06 GMT-0600 (Central Standard Time),839665.8999999762,007_m_m_d_a.png,O,m,1594,18,1,2601.199999988079,837064.6999999881,7747,VNB,B,16
0,test,5,1.0,2-Back,,,Thu Feb 26 2026 16:57:06 GMT-0600 (Central Standard Time),839665.8999999762,020_y_f_d_a.png,O,space,2465,1,1,2601.199999988079,837064.6999999881,7747,VNB,B,0
0,test,5,1.0,2-Back,,,Thu Feb 26 2026 16:57:06 GMT-0600 (Central Standard Time),839665.8999999762,005_o_f_h_a.png,O,space,2465,2,1,2601.199999988079,837064.6999999881,7747,VNB,B,0
1,test,5,1.0,2-Back,1.0,z,Thu Feb 26 2026 16:57:06 GMT-0600 (Central Standard Time),850162.8000000119,004_o_m_d_a.png,O,z,1569,3,1,2602.0,847560.8000000119,7747,VNB,B,1
2,test,5,1.0,2-Back,1.0,m,Thu Feb 26 2026 16:57:06 GMT-0600 (Central Standard Time),852461.5999999642,011_m_f_n_a.png,O,m,1265,4,1,2286.599999964237,850175.0,7747,VNB,B,2
3,test,5,0.0,2-Back,1.0,m,Thu Feb 26 2026 16:57:06 GMT-0600 (Central Standard Time),855110.8000000119,007_m_m_h_a.png,O,m,1223,5,1,2617.300000011921,852493.5,7747,VNB,B,3
4,test,5,0.0,2-Back,1.0,z,Thu Feb 26 2026 16:57:06 GMT-0600 (Central Standard Time),857876.0,020_y_f_n_a.png,O,z,1724,6,1,2749.699999988079,855126.3000000119,7747,VNB,B,4
5,test,5,0.0,2-Back,1.0,m,Thu Feb 26 2026 16:57:06 GMT-0600 (Central Standard Time),860409.1999999881,005_o_f_d_a.png,O,m,1512,7,1,2522.899999976158,857886.3000000119,7747,VNB,B,5
6,test,5,0.0,2-Back,1.0,m,Thu Feb 26 2026 16:57:06 GMT-0600 (Central Standard Time),862990.6999999881,004_o_m_h_a.png,O,m,1554,8,1,2571.5,860419.1999999881,7747,VNB,B,6
7,test,5,1.0,2-Back,1.0,z,Thu Feb 26 2026 16:57:06 GMT-0600 (Central Standard Time),865707.3000000119,011_m_f_d_a.png,O,z,1683,9,1,2705.300000011921,863002.0,7747,VNB,B,7
8,test,5,0.0,2-Back,1.0,m,Thu Feb 26 2026 16:57:06 GMT-0600 (Central Standard Time),868306.5,016_y_m_n_a.png,O,m,1578,10,1,2589.199999988079,865717.3000000119,7747,VNB,B,8
9,test,5,0.0,2-Back,1.0,m,Thu Feb 26 2026 16:57:06 GMT-0600 (Central Standard Time),870955.6999999881,007_m_m_n_a.png,O,m,1584,11,1,2617.100000023842,868338.5999999642,7747,VNB,B,9
10,test,5,0.0,2-Back,1.0,m,Thu Feb 26 2026 16:57:06 GMT-0600 (Central Standard Time),873404.8000000119,020_y_f_h_a.png,O,m,1422,12,1,2438.600000023842,870966.1999999881,7747,VNB,B,10
11,test,5,0.0,2-Back,1.0,m,Thu Feb 26 2026 16:57:06 GMT-0600 (Central Standard Time),875787.3999999762,016_y_m_d_a.png,O,m,1343,13,1,2354.300000011921,873433.0999999642,7747,VNB,B,11
12,test,5,1.0,2-Back,1.0,z,Thu Feb 26 2026 16:57:06 GMT-0600 (Central Standard Time),878303.0,011_m_f_h_a.png,O,z,1488,14,1,2506.0,875797.0,7747,VNB,B,12
13,test,5,0.0,2-Back,1.0,m,Thu Feb 26 2026 16:57:06 GMT-0600 (Central Standard Time),880585.8999999762,004_o_m_n_a.png,O,m,1244,15,1,2253.899999976158,878332.0,7747,VNB,B,13
14,test,5,0.0,2-Back,1.0,m,Thu Feb 26 2026 16:57:06 GMT-0600 (Central Standard Time),883068.1999999881,007_m_m_d_a.png,O,m,1450,16,1,2468.399999976158,880599.8000000119,7747,VNB,B,14
15,test,5,0.0,2-Back,1.0,z,Thu Feb 26 2026 16:57:06 GMT-0600 (Central Standard Time),886017.3999999762,005_o_f_n_a.png,O,z,1904,17,1,2920.599999964237,883096.8000000119,7747,VNB,B,15
16,test,5,1.0,2-Back,1.0,m,Thu Feb 26 2026 16:57:06 GMT-0600 (Central Standard Time),888366.6999999881,016_y_m_h_a.png,O,m,1323,18,1,2339.399999976158,886027.3000000119,7747,VNB,B,16
