acc_sum,block,block_c,condition,correct,correct_response,datetime,endtime,flanker,jitter,project,response,response_test_buffer_response,response_test_target_response,response_time,response_time_test_buffer_response,response_time_test_target_response,row_sel,session_number,start_end,starttime,subject_id,target,task,task_vers,time_test_buffer,time_test_buffer_response,time_test_constants,time_test_flanker,time_test_jitter,time_test_logger,time_test_target,time_test_target_response,time_test_variables,trial
0,prac,1,inc,0,m,Wed Nov 19 2025 15:31:55 GMT-0600 (Central Standard Time),168660.5,pear,900,I,None,,,1799,,,14,2,4960.100000023842,163700.39999997616,8066,iron,NF,C,,,,,,,,,,1
1,prac,1,con,1,m,Wed Nov 19 2025 15:31:55 GMT-0600 (Central Standard Time),171776.19999998808,zinc,1000,I,m,,,808,,,15,2,3110.300000011921,168665.89999997616,8066,zinc,NF,C,,,,,,,,,,2
2,prac,1,con,1,z,Wed Nov 19 2025 15:31:55 GMT-0600 (Central Standard Time),174675.19999998808,orange,1000,I,z,,,589,,,3,2,2894.399999976158,171780.80000001192,8066,orange,NF,C,,,,,,,,,,3
3,prac,1,inc,1,m,Wed Nov 19 2025 15:31:55 GMT-0600 (Central Standard Time),177474.30000001192,cherry,900,I,m,,,590,,,10,2,2794.5,174679.80000001192,8066,copper,NF,C,,,,,,,,,,4
4,prac,1,con,1,z,Wed Nov 19 2025 15:31:55 GMT-0600 (Central Standard Time),180190.30000001192,lime,800,I,z,,,609,,,5,2,2710.900000035763,177479.39999997616,8066,lime,NF,C,,,,,,,,,,5
5,prac,1,inc,1,z,Wed Nov 19 2025 15:31:55 GMT-0600 (Central Standard Time),183139.10000002384,cobalt,1100,I,z,,,539,,,4,2,2944.300000011921,180194.80000001192,8066,raisin,NF,C,,,,,,,,,,6
6,prac,1,con,1,m,Wed Nov 19 2025 15:31:55 GMT-0600 (Central Standard Time),185755.19999998808,gold,800,I,m,,,513,,,13,2,2610.599999964237,183144.60000002384,8066,gold,NF,C,,,,,,,,,,7
7,prac,1,con,1,m,Wed Nov 19 2025 15:31:55 GMT-0600 (Central Standard Time),188620.80000001192,silver,1000,I,m,,,554,,,11,2,2861.199999988079,185759.60000002384,8066,silver,NF,C,,,,,,,,,,8
8,prac,1,inc,1,m,Wed Nov 19 2025 15:31:55 GMT-0600 (Central Standard Time),191636.60000002384,plum,1100,I,m,,,604,,,16,2,3011.0,188625.60000002384,8066,lead,NF,C,,,,,,,,,,9
9,prac,1,inc,1,z,Wed Nov 19 2025 15:31:55 GMT-0600 (Central Standard Time),194569.0,lead,1100,I,z,,,531,,,8,2,2927.699999988079,191641.30000001192,8066,plum,NF,C,,,,,,,,,,10
10,prac,1,con,1,m,Wed Nov 19 2025 15:31:55 GMT-0600 (Central Standard Time),197168.30000001192,bronze,800,I,m,,,484,,,9,2,2593.800000011921,194574.5,8066,bronze,NF,C,,,,,,,,,,11
11,prac,1,inc,1,z,Wed Nov 19 2025 15:31:55 GMT-0600 (Central Standard Time),199867.39999997616,iron,900,I,z,,,489,,,6,2,2694.7999999523163,197172.60000002384,8066,pear,NF,C,,,,,,,,,,12
12,prac,1,inc,1,z,Wed Nov 19 2025 15:31:55 GMT-0600 (Central Standard Time),202616.60000002384,copper,900,I,z,,,541,,,2,2,2744.5,199872.10000002384,8066,cherry,NF,C,,,,,,,,,,13
13,prac,1,con,1,z,Wed Nov 19 2025 15:31:55 GMT-0600 (Central Standard Time),205498.80000001192,kiwi,1000,I,z,,,571,,,7,2,2877.400000035763,202621.39999997616,8066,kiwi,NF,C,,,,,,,,,,14
14,prac,1,con,1,z,Wed Nov 19 2025 15:31:55 GMT-0600 (Central Standard Time),208064.89999997616,banana,800,I,z,,,450,,,1,2,2561.699999988079,205503.19999998808,8066,banana,NF,C,,,,,,,,,,15
15,prac,1,inc,1,m,Wed Nov 19 2025 15:31:55 GMT-0600 (Central Standard Time),210963.89999997616,raisin,1100,I,m,,,495,,,12,2,2894.899999976158,208069.0,8066,cobalt,NF,C,,,,,,,,,,16
1,test,1,con,1,m,Wed Nov 19 2025 15:31:55 GMT-0600 (Central Standard Time),238288.69999998808,copper,800,I,m,m,None,1443,1243.0,200.0,73,2,2779.300000011921,235509.39999997616,8066,copper,NF,C,233628,233628,232098,232912,232099,234878,233428,233428,234878,1
2,test,1,inc,1,z,Wed Nov 19 2025 15:31:55 GMT-0600 (Central Standard Time),240437.89999997616,cobalt,1100,I,z,z,None,503,304.0,199.0,32,2,2144.5,238293.39999997616,8066,raisin,NF,C,236711,236711,234882,235994,234883,237027,236511,236511,237027,2
3,test,1,inc,1,z,Wed Nov 19 2025 15:31:55 GMT-0600 (Central Standard Time),242504.10000002384,silver,1000,I,z,z,None,526,326.0,200.0,7,2,2061.7000000476837,240442.39999997616,8066,banana,NF,C,238760,238760,237031,238044,237032,239093,238560,238560,239093,3
4,test,1,con,1,z,Wed Nov 19 2025 15:31:55 GMT-0600 (Central Standard Time),244669.89999997616,raisin,1100,I,z,z,None,528,328.0,200.0,28,2,2161.699999988079,242508.19999998808,8066,raisin,NF,C,240926,240926,239097,240210,239098,241259,240726,240726,241259,4
5,test,1,con,1,m,Wed Nov 19 2025 15:31:55 GMT-0600 (Central Standard Time),246552.80000001192,gold,900,I,m,m,None,435,235.0,200.0,98,2,1878.6000000238419,244674.19999998808,8066,gold,NF,C,242892,242892,241263,242175,241264,243142,242692,242692,243142,5
6,test,1,con,1,z,Wed Nov 19 2025 15:31:55 GMT-0600 (Central Standard Time),248385.60000002384,kiwi,900,I,z,z,None,384,184.0,200.0,50,2,1828.800000011921,246556.80000001192,8066,kiwi,NF,C,244775,244775,243146,244058,243146,244975,244575,244575,244975,6
7,test,1,inc,1,m,Wed Nov 19 2025 15:31:55 GMT-0600 (Central Standard Time),250368.30000001192,cherry,900,I,m,m,None,534,335.0,199.0,78,2,1978.1000000238419,248390.19999998808,8066,copper,NF,C,246608,246608,244979,245891,244980,246957,246408,246408,246957,7
8,test,1,con,1,z,Wed Nov 19 2025 15:31:55 GMT-0600 (Central Standard Time),252434.5,pear,1000,I,z,z,None,524,325.0,199.0,43,2,2061.800000011921,250372.69999998808,8066,pear,NF,C,248690,248690,246962,247974,246962,249024,248490,248491,249024,8
9,test,1,inc,1,m,Wed Nov 19 2025 15:31:55 GMT-0600 (Central Standard Time),254466.80000001192,orange,1000,I,m,m,None,484,284.0,200.0,79,2,2028.300000011921,252438.5,8066,copper,NF,C,250756,250756,249028,250040,249028,251056,250556,250556,251056,9
10,test,1,con,1,m,Wed Nov 19 2025 15:31:55 GMT-0600 (Central Standard Time),256549.5,bronze,1100,I,m,m,None,438,238.0,200.0,68,2,2078.5,254471.0,8066,bronze,NF,C,252889,252889,251060,252172,251060,253139,252689,252689,253139,10
10,test,1,con,0,m,Wed Nov 19 2025 15:31:55 GMT-0600 (Central Standard Time),258415.60000002384,zinc,800,I,z,z,None,527,327.0,200.0,113,2,1861.7000000476837,256553.89999997616,8066,zinc,NF,C,254672,254672,253143,253955,253143,255005,254472,254472,255005,11
11,test,1,con,1,z,Wed Nov 19 2025 15:31:55 GMT-0600 (Central Standard Time),260265.0,raisin,900,I,z,z,None,408,209.0,199.0,26,2,1844.699999988079,258420.30000001192,8066,raisin,NF,C,256638,256638,255009,255921,255010,256854,256438,256438,256854,12
12,test,1,con,1,m,Wed Nov 19 2025 15:31:55 GMT-0600 (Central Standard Time),262331.8000000119,cobalt,1100,I,m,m,None,432,232.0,200.0,92,2,2062.800000011921,260269.0,8066,cobalt,NF,C,258687,258687,256858,257970,256858,258921,258487,258487,258921,13
13,test,1,con,1,z,Wed Nov 19 2025 15:31:55 GMT-0600 (Central Standard Time),264413.89999997616,cherry,1100,I,z,z,None,438,238.0,200.0,12,2,2077.899999976158,262336.0,8066,cherry,NF,C,260753,260753,258925,260038,258925,261003,260553,260553,261003,14
14,test,1,inc,1,z,Wed Nov 19 2025 15:31:55 GMT-0600 (Central Standard Time),266579.8000000119,cobalt,1100,I,z,z,None,531,331.0,200.0,8,2,2161.800000011921,264418.0,8066,banana,NF,C,262836,262836,261007,262119,261007,263169,262636,262636,263169,15
15,test,1,con,1,z,Wed Nov 19 2025 15:31:55 GMT-0600 (Central Standard Time),268612.1999999881,orange,1000,I,z,z,None,496,218.0,278.0,19,2,2028.5,266583.6999999881,8066,orange,NF,C,264981,264981,263173,264185,263173,265201,264702,264702,265201,16
16,test,1,inc,1,m,Wed Nov 19 2025 15:31:55 GMT-0600 (Central Standard Time),270678.1999999881,orange,1000,I,m,m,None,528,328.0,200.0,95,2,2061.5,268616.6999999881,8066,cobalt,NF,C,266935,266935,265206,266218,265206,267267,266734,266734,267267,17
17,test,1,con,1,z,Wed Nov 19 2025 15:31:55 GMT-0600 (Central Standard Time),272411.3000000119,banana,800,I,z,z,None,397,198.0,199.0,1,2,1729.4000000357628,270681.89999997616,8066,banana,NF,C,268800,268800,267271,268084,267271,269000,268601,268601,269000,18
18,test,1,con,1,m,Wed Nov 19 2025 15:31:55 GMT-0600 (Central Standard Time),274477.1999999881,gold,1100,I,m,m,None,422,222.0,200.0,100,2,2061.800000011921,272415.39999997616,8066,gold,NF,C,270833,270833,269004,270117,269005,271066,270633,270633,271066,19
19,test,1,con,1,m,Wed Nov 19 2025 15:31:55 GMT-0600 (Central Standard Time),276393.3000000119,silver,900,I,m,m,None,468,268.0,200.0,82,2,1912.1000000238419,274481.1999999881,8066,silver,NF,C,272699,272699,271070,271983,271070,272982,272499,272499,272982,20
20,test,1,inc,1,z,Wed Nov 19 2025 15:31:55 GMT-0600 (Central Standard Time),278342.6999999881,copper,900,I,z,z,None,511,312.0,199.0,30,2,1945.0999999642372,276397.60000002384,8066,raisin,NF,C,274615,274615,272987,273899,272987,274932,274416,274416,274932,21
21,test,1,con,1,m,Wed Nov 19 2025 15:31:55 GMT-0600 (Central Standard Time),280291.89999997616,zinc,900,I,m,m,None,505,306.0,199.0,114,2,1944.2999999523163,278347.60000002384,8066,zinc,NF,C,276565,276565,274937,275848,274937,276881,276365,276365,276881,22
22,test,1,con,1,z,Wed Nov 19 2025 15:31:55 GMT-0600 (Central Standard Time),282242.0,lime,1000,I,z,z,None,417,217.0,200.0,35,2,1945.8999999761581,280296.10000002384,8066,lime,NF,C,278614,278614,276885,277898,276885,278831,278414,278414,278831,23
23,test,1,inc,1,m,Wed Nov 19 2025 15:31:55 GMT-0600 (Central Standard Time),284074.39999997616,lime,800,I,m,m,None,490,291.0,199.0,125,2,1828.5999999642372,282245.8000000119,8066,lead,NF,C,280364,280364,278835,279647,278835,280663,280164,280164,280663,24
24,test,1,inc,1,m,Wed Nov 19 2025 15:31:55 GMT-0600 (Central Standard Time),286256.6999999881,plum,1100,I,m,m,None,534,334.0,200.0,120,2,2178.5,284078.1999999881,8066,zinc,NF,C,282496,282496,280667,281780,280667,282846,282296,282296,282846,25
25,test,1,inc,1,m,Wed Nov 19 2025 15:31:55 GMT-0600 (Central Standard Time),288339.5,raisin,1100,I,m,m,None,448,248.0,200.0,96,2,2078.699999988079,286260.8000000119,8066,cobalt,NF,C,284679,284679,282850,283962,282850,284929,284479,284479,284928,26
26,test,1,inc,1,m,Wed Nov 19 2025 15:31:55 GMT-0600 (Central Standard Time),290272.5,pear,900,I,m,m,None,492,293.0,199.0,110,2,1929.1000000238419,288343.39999997616,8066,iron,NF,C,286562,286562,284932,285845,284933,286862,286362,286362,286861,27
27,test,1,inc,1,z,Wed Nov 19 2025 15:31:55 GMT-0600 (Central Standard Time),292121.39999997616,bronze,800,I,z,z,None,509,310.0,199.0,21,2,1845.0,290276.39999997616,8066,orange,NF,C,288395,288395,286865,287678,286866,288710,288195,288195,288710,28
28,test,1,con,1,m,Wed Nov 19 2025 15:31:55 GMT-0600 (Central Standard Time),294221.1999999881,lead,1100,I,m,m,None,463,263.0,200.0,124,2,2093.099999964237,292128.10000002384,8066,lead,NF,C,290544,290544,288717,289827,288717,290810,290344,290344,290810,29
29,test,1,con,1,m,Wed Nov 19 2025 15:31:55 GMT-0600 (Central Standard Time),296170.5,bronze,900,I,m,m,None,508,308.0,200.0,66,2,1945.3999999761581,294225.10000002384,8066,bronze,NF,C,292443,292443,290814,291727,290814,292760,292243,292243,292760,30
30,test,1,con,1,m,Wed Nov 19 2025 15:31:55 GMT-0600 (Central Standard Time),298186.5,silver,1100,I,m,m,None,374,174.0,200.0,84,2,2012.0,296174.5,8066,silver,NF,C,294592,294593,292764,293876,292764,294776,294392,294392,294776,31
31,test,1,con,1,m,Wed Nov 19 2025 15:31:55 GMT-0600 (Central Standard Time),299937.0,bronze,800,I,m,m,None,402,202.0,200.0,65,2,1746.300000011921,298190.6999999881,8066,bronze,NF,C,296309,296309,294780,295592,294780,296526,296109,296109,296526,32
32,test,1,inc,1,z,Wed Nov 19 2025 15:31:55 GMT-0600 (Central Standard Time),302085.3000000119,silver,1000,I,z,z,None,605,405.0,200.0,15,2,2144.199999988079,299941.10000002384,8066,cherry,NF,C,298258,298258,296530,297541,296530,298674,298058,298058,298674,33
33,test,1,inc,1,z,Wed Nov 19 2025 15:31:55 GMT-0600 (Central Standard Time),304034.8000000119,gold,800,I,z,z,None,598,399.0,199.0,45,2,1945.800000011921,302089.0,8066,pear,NF,C,300208,300208,298678,299491,298678,300624,300008,300008,300624,34
34,test,1,con,1,z,Wed Nov 19 2025 15:31:55 GMT-0600 (Central Standard Time),306200.89999997616,lime,900,I,z,z,None,725,526.0,199.0,34,2,2162.199999988079,304038.6999999881,8066,lime,NF,C,302257,302257,300628,301540,300628,302790,302057,302057,302790,35
35,test,1,con,1,z,Wed Nov 19 2025 15:31:55 GMT-0600 (Central Standard Time),308233.39999997616,raisin,1000,I,z,z,None,483,284.0,199.0,27,2,2028.199999988079,306205.1999999881,8066,raisin,NF,C,304522,304523,302794,303806,302794,304823,304323,304323,304822,36
36,test,1,con,1,m,Wed Nov 19 2025 15:31:55 GMT-0600 (Central Standard Time),310166.1999999881,zinc,1000,I,m,m,None,395,195.0,200.0,115,2,1928.800000011921,308237.39999997616,8066,zinc,NF,C,306556,306556,304826,305839,304827,306755,306355,306355,306755,37
37,test,1,con,1,z,Wed Nov 19 2025 15:31:55 GMT-0600 (Central Standard Time),312015.6999999881,kiwi,800,I,z,z,None,503,303.0,200.0,49,2,1845.5,310170.1999999881,8066,kiwi,NF,C,308288,308288,306759,307572,306759,308605,308088,308088,308605,38
38,test,1,inc,1,m,Wed Nov 19 2025 15:31:55 GMT-0600 (Central Standard Time),313948.1999999881,cherry,900,I,m,m,None,488,289.0,199.0,86,2,1928.5,312019.6999999881,8066,silver,NF,C,310238,310238,308609,309521,308609,310537,310038,310038,310537,39
39,test,1,con,1,z,Wed Nov 19 2025 15:31:55 GMT-0600 (Central Standard Time),316214.3000000119,pear,1100,I,z,z,None,491,288.0,203.0,44,2,2261.900000035763,313952.39999997616,8066,pear,NF,C,312503,312503,310541,311654,310542,312803,312300,312300,312803,40
40,test,1,inc,1,m,Wed Nov 19 2025 15:31:55 GMT-0600 (Central Standard Time),318013.8000000119,banana,800,I,m,m,None,462,263.0,199.0,85,2,1795.699999988079,316218.10000002384,8066,silver,NF,C,314336,314336,312807,313620,312807,314603,314137,314137,314603,41
41,test,1,inc,1,z,Wed Nov 19 2025 15:31:55 GMT-0600 (Central Standard Time),319879.5,bronze,800,I,z,z,None,519,319.0,200.0,29,2,1861.699999988079,318017.8000000119,8066,raisin,NF,C,316136,316136,314607,315419,314607,316469,315936,315936,316468,42
42,test,1,con,1,m,Wed Nov 19 2025 15:31:55 GMT-0600 (Central Standard Time),321929.0,copper,1100,I,m,m,None,399,200.0,199.0,76,2,2045.800000011921,319883.1999999881,8066,copper,NF,C,318302,318302,316472,317585,316472,318518,318102,318102,318518,43
43,test,1,inc,1,z,Wed Nov 19 2025 15:31:55 GMT-0600 (Central Standard Time),323945.10000002384,zinc,1000,I,z,z,None,476,276.0,200.0,63,2,2012.300000011921,321932.8000000119,8066,plum,NF,C,320251,320251,318522,319535,318522,320534,320051,320051,320534,44
44,test,1,con,1,z,Wed Nov 19 2025 15:31:55 GMT-0600 (Central Standard Time),326011.0,plum,1000,I,z,z,None,524,324.0,200.0,59,2,2062.0,323949.0,8066,plum,NF,C,322267,322267,320538,321551,320538,322600,322067,322067,322600,45
45,test,1,inc,1,m,Wed Nov 19 2025 15:31:55 GMT-0600 (Central Standard Time),327993.89999997616,pear,900,I,m,m,None,550,350.0,200.0,102,2,1979.0999999642372,326014.8000000119,8066,gold,NF,C,324233,324233,322604,323517,322604,324583,324033,324033,324583,46
46,test,1,inc,1,z,Wed Nov 19 2025 15:31:55 GMT-0600 (Central Standard Time),330076.60000002384,iron,900,I,z,z,None,639,439.0,200.0,38,2,2078.600000023842,327998.0,8066,lime,NF,C,326216,326216,324587,325499,324587,326666,326016,326016,326666,47
47,test,1,inc,1,z,Wed Nov 19 2025 15:31:55 GMT-0600 (Central Standard Time),332159.10000002384,zinc,1000,I,z,z,None,543,344.0,199.0,39,2,2078.600000023842,330080.5,8066,lime,NF,C,328399,328399,326670,327682,326670,328748,328199,328199,328748,48
48,test,1,inc,1,m,Wed Nov 19 2025 15:31:55 GMT-0600 (Central Standard Time),333975.3000000119,lime,800,I,m,m,None,478,278.0,200.0,117,2,1812.5,332162.8000000119,8066,zinc,NF,C,330281,330281,328752,329566,328752,330564,330081,330081,330564,49
49,test,1,con,1,m,Wed Nov 19 2025 15:31:55 GMT-0600 (Central Standard Time),336141.5,iron,1100,I,m,m,None,530,330.0,200.0,108,2,2162.5,333979.0,8066,iron,NF,C,332397,332397,330568,331681,330568,332731,332197,332197,332730,50
50,test,1,inc,1,m,Wed Nov 19 2025 15:31:55 GMT-0600 (Central Standard Time),338190.60000002384,orange,1000,I,m,m,None,504,304.0,200.0,87,2,2044.7000000476837,336145.89999997616,8066,silver,NF,C,334463,334463,332735,333747,332735,334780,334263,334263,334780,51
51,test,1,inc,1,m,Wed Nov 19 2025 15:31:55 GMT-0600 (Central Standard Time),340256.6999999881,raisin,1100,I,m,m,None,410,210.0,200.0,72,2,2062.199999988079,338194.5,8066,bronze,NF,C,336629,336629,334784,335921,334784,336846,336429,336429,336846,52
52,test,1,inc,1,z,Wed Nov 19 2025 15:31:55 GMT-0600 (Central Standard Time),342155.89999997616,gold,800,I,z,z,None,564,364.0,200.0,37,2,1895.199999988079,340260.6999999881,8066,lime,NF,C,338379,338379,336850,337662,336850,338745,338179,338179,338745,53
53,test,1,con,1,z,Wed Nov 19 2025 15:31:55 GMT-0600 (Central Standard Time),344122.0,plum,900,I,z,z,None,525,325.0,200.0,58,2,1962.3999999761581,342159.60000002384,8066,plum,NF,C,340378,340378,338749,339662,338749,340711,340178,340178,340711,54
54,test,1,con,1,m,Wed Nov 19 2025 15:31:55 GMT-0600 (Central Standard Time),345988.3000000119,cobalt,800,I,m,m,None,531,331.0,200.0,89,2,1862.5,344125.8000000119,8066,cobalt,NF,C,342244,342244,340715,341528,340715,342577,342044,342044,342577,55
55,test,1,con,1,z,Wed Nov 19 2025 15:31:55 GMT-0600 (Central Standard Time),347971.1999999881,banana,1000,I,z,z,None,434,234.0,200.0,3,2,1979.0999999642372,345992.10000002384,8066,banana,NF,C,344310,344310,342581,343594,342581,344560,344110,344110,344560,56
56,test,1,inc,1,m,Wed Nov 19 2025 15:31:55 GMT-0600 (Central Standard Time),349870.1999999881,pear,900,I,m,m,None,454,254.0,200.0,126,2,1895.199999988079,347975.0,8066,lead,NF,C,346193,346193,344564,345477,344564,346459,345993,345993,346459,57
57,test,1,inc,1,m,Wed Nov 19 2025 15:31:55 GMT-0600 (Central Standard Time),351786.0,pear,900,I,m,m,None,483,283.0,200.0,118,2,1911.3999999761581,349874.60000002384,8066,zinc,NF,C,348092,348092,346464,347376,346464,348375,347892,347892,348375,58
58,test,1,inc,1,m,Wed Nov 19 2025 15:31:55 GMT-0600 (Central Standard Time),353969.10000002384,kiwi,1000,I,m,m,None,634,435.0,199.0,127,2,2179.5,351789.60000002384,8066,lead,NF,C,350108,350108,348379,349392,348379,350558,349909,349909,350558,59
59,test,1,inc,1,m,Wed Nov 19 2025 15:31:55 GMT-0600 (Central Standard Time),355835.0,lime,800,I,m,m,None,524,324.0,200.0,101,2,1862.199999988079,353972.8000000119,8066,gold,NF,C,352091,352091,350562,351375,350562,352424,351891,351891,352424,60
60,test,1,inc,1,m,Wed Nov 19 2025 15:31:55 GMT-0600 (Central Standard Time),357701.3000000119,banana,800,I,m,m,None,522,322.0,200.0,77,2,1862.4000000357628,355838.89999997616,8066,copper,NF,C,353957,353957,352428,353241,352428,354290,353757,353757,354290,61
61,test,1,con,1,z,Wed Nov 19 2025 15:31:55 GMT-0600 (Central Standard Time),359450.3000000119,cherry,800,I,z,z,None,415,215.0,200.0,9,2,1745.1000000238419,357705.1999999881,8066,cherry,NF,C,355824,355824,354294,355107,354294,356039,355623,355623,356039,62
62,test,1,con,1,z,Wed Nov 19 2025 15:31:55 GMT-0600 (Central Standard Time),361450.0,pear,900,I,z,z,None,551,351.0,200.0,42,2,1995.6000000238419,359454.39999997616,8066,pear,NF,C,357672,357672,356043,356956,356044,358039,357472,357472,358039,63
63,test,1,con,1,m,Wed Nov 19 2025 15:31:55 GMT-0600 (Central Standard Time),363516.1999999881,zinc,1100,I,m,m,None,423,223.0,200.0,116,2,2062.0,361454.1999999881,8066,zinc,NF,C,359872,359872,358043,359156,358043,360105,359672,359672,360105,64
64,test,1,inc,1,z,Wed Nov 19 2025 15:31:55 GMT-0600 (Central Standard Time),365665.5,cobalt,1100,I,z,z,None,500,300.0,200.0,24,2,2145.600000023842,363519.89999997616,8066,orange,NF,C,361938,361938,360109,361221,360109,362255,361738,361738,362255,65
65,test,1,con,1,z,Wed Nov 19 2025 15:31:55 GMT-0600 (Central Standard Time),367814.6999999881,banana,1100,I,z,z,None,512,311.0,201.0,4,2,2144.899999976158,365669.8000000119,8066,banana,NF,C,364088,364088,362259,363372,362259,364404,363887,363887,364404,66
66,test,1,con,1,m,Wed Nov 19 2025 15:31:55 GMT-0600 (Central Standard Time),369747.1999999881,silver,1000,I,m,m,None,397,198.0,199.0,83,2,1928.5,367818.6999999881,8066,silver,NF,C,366137,366137,364408,365420,364408,366336,365937,365937,366336,67
67,test,1,inc,1,m,Wed Nov 19 2025 15:31:55 GMT-0600 (Central Standard Time),371896.60000002384,raisin,1100,I,m,m,None,500,301.0,199.0,88,2,2145.900000035763,369750.6999999881,8066,silver,NF,C,368169,368169,366340,367453,366340,368486,367970,367970,368486,68
68,test,1,con,1,m,Wed Nov 19 2025 15:31:55 GMT-0600 (Central Standard Time),373764.0,copper,900,I,m,m,None,432,232.0,200.0,74,2,1863.3999999761581,371900.60000002384,8066,copper,NF,C,370119,370119,368490,369402,368490,370353,369919,369919,370353,69
69,test,1,inc,1,m,Wed Nov 19 2025 15:31:55 GMT-0600 (Central Standard Time),375562.3000000119,banana,800,I,m,m,None,458,258.0,200.0,93,2,1794.4000000357628,373767.89999997616,8066,cobalt,NF,C,371885,371885,370357,371169,370357,372151,371685,371685,372151,70
69,test,1,con,0,z,Wed Nov 19 2025 15:31:55 GMT-0600 (Central Standard Time),377378.1999999881,lime,800,I,m,m,None,474,274.0,200.0,33,2,1812.199999988079,375566.0,8066,lime,NF,C,373685,373685,372155,372968,372155,373967,373484,373484,373967,71
70,test,1,inc,1,z,Wed Nov 19 2025 15:31:55 GMT-0600 (Central Standard Time),379394.3000000119,iron,900,I,z,z,None,582,383.0,199.0,46,2,2012.5,377381.8000000119,8066,pear,NF,C,375600,375600,373971,374884,373971,375983,375400,375401,375983,72
71,test,1,con,1,m,Wed Nov 19 2025 15:31:55 GMT-0600 (Central Standard Time),381377.1999999881,lead,900,I,m,m,None,542,343.0,199.0,122,2,1978.800000011921,379398.39999997616,8066,lead,NF,C,377616,377616,375987,376900,375988,377966,377417,377417,377966,73
72,test,1,con,1,m,Wed Nov 19 2025 15:31:55 GMT-0600 (Central Standard Time),383410.10000002384,iron,1000,I,m,m,None,493,293.0,200.0,107,2,2029.1000000238419,381381.0,8066,iron,NF,C,379699,379699,377970,378983,377970,379999,379499,379499,379999,74
73,test,1,con,1,m,Wed Nov 19 2025 15:31:55 GMT-0600 (Central Standard Time),385425.6999999881,copper,1000,I,m,m,None,467,267.0,200.0,75,2,2011.3999999761581,383414.3000000119,8066,copper,NF,C,381732,381732,380003,381015,380004,382015,381532,381532,382015,75
74,test,1,con,1,m,Wed Nov 19 2025 15:31:55 GMT-0600 (Central Standard Time),387308.5,silver,800,I,m,m,None,489,289.0,200.0,81,2,1878.8999999761581,385429.60000002384,8066,silver,NF,C,383598,383598,382019,382896,382019,383898,383398,383398,383898,76
75,test,1,con,1,m,Wed Nov 19 2025 15:31:55 GMT-0600 (Central Standard Time),389241.3000000119,cobalt,900,I,m,m,None,491,292.0,199.0,90,2,1928.5,387312.8000000119,8066,cobalt,NF,C,385531,385531,383902,384814,383902,385830,385331,385331,385830,77
76,test,1,inc,1,z,Wed Nov 19 2025 15:31:55 GMT-0600 (Central Standard Time),391457.39999997616,lead,1100,I,z,z,None,568,368.0,200.0,56,2,2211.7999999523163,389245.60000002384,8066,kiwi,NF,C,387663,387663,385835,386947,385835,388046,387463,387463,388046,78
77,test,1,con,1,m,Wed Nov 19 2025 15:31:55 GMT-0600 (Central Standard Time),393506.39999997616,lead,1000,I,m,m,None,516,316.0,200.0,123,2,2045.199999988079,391461.1999999881,8066,lead,NF,C,389779,389779,388050,389063,388050,390095,389579,389579,390095,79
78,test,1,con,1,z,Wed Nov 19 2025 15:31:55 GMT-0600 (Central Standard Time),395606.0,plum,1100,I,z,z,None,454,254.0,200.0,60,2,2096.0,393510.0,8066,plum,NF,C,391929,391929,390099,391212,390099,392195,391729,391729,392195,80
79,test,1,inc,1,z,Wed Nov 19 2025 15:31:55 GMT-0600 (Central Standard Time),397571.89999997616,bronze,800,I,z,z,None,631,431.0,200.0,13,2,1962.199999988079,395609.6999999881,8066,cherry,NF,C,393728,393728,392199,393012,392199,394161,393528,393528,394161,81
80,test,1,inc,1,z,Wed Nov 19 2025 15:31:55 GMT-0600 (Central Standard Time),399587.8000000119,iron,900,I,z,z,None,580,380.0,200.0,54,2,2012.300000011921,397575.5,8066,kiwi,NF,C,395794,395794,394165,395078,394165,396177,395594,395594,396177,82
81,test,1,inc,1,m,Wed Nov 19 2025 15:31:55 GMT-0600 (Central Standard Time),401487.5,banana,800,I,m,m,None,553,353.0,200.0,69,2,1896.199999988079,399591.3000000119,8066,bronze,NF,C,397710,397710,396180,396994,396181,398077,397510,397510,398077,83
82,test,1,inc,1,z,Wed Nov 19 2025 15:31:55 GMT-0600 (Central Standard Time),403553.60000002384,silver,1000,I,z,z,None,525,326.0,199.0,31,2,2062.300000011921,401491.3000000119,8066,raisin,NF,C,399809,399809,398080,399093,398081,400143,399610,399610,400143,84
83,test,1,inc,1,m,Wed Nov 19 2025 15:31:55 GMT-0600 (Central Standard Time),405619.6999999881,kiwi,1000,I,m,m,None,523,324.0,199.0,103,2,2062.0,403557.6999999881,8066,gold,NF,C,401875,401875,400147,401159,400147,402209,401676,401676,402209,85
84,test,1,inc,1,m,Wed Nov 19 2025 15:31:55 GMT-0600 (Central Standard Time),407719.0,kiwi,1000,I,m,m,None,560,361.0,199.0,111,2,2095.699999988079,405623.3000000119,8066,iron,NF,C,403942,403942,402212,403225,402213,404308,403742,403742,404308,86
85,test,1,inc,1,z,Wed Nov 19 2025 15:31:55 GMT-0600 (Central Standard Time),409618.3000000119,copper,900,I,z,z,None,466,266.0,200.0,6,2,1895.0,407723.3000000119,8066,banana,NF,C,405941,405941,404312,405225,404312,406207,405741,405741,406207,87
86,test,1,inc,1,z,Wed Nov 19 2025 15:31:55 GMT-0600 (Central Standard Time),411850.89999997616,cobalt,1100,I,z,z,None,591,391.0,200.0,16,2,2229.099999964237,409621.8000000119,8066,cherry,NF,C,408040,408040,406211,407324,406211,408440,407840,407840,408440,88
87,test,1,inc,1,m,Wed Nov 19 2025 15:31:55 GMT-0600 (Central Standard Time),413950.3000000119,plum,1100,I,m,m,None,462,262.0,200.0,104,2,2095.699999988079,411854.60000002384,8066,gold,NF,C,410273,410273,408444,409556,408444,410539,410073,410073,410539,89
88,test,1,con,1,z,Wed Nov 19 2025 15:31:55 GMT-0600 (Central Standard Time),416049.8000000119,lime,1100,I,z,z,None,451,251.0,200.0,36,2,2095.600000023842,413954.1999999881,8066,lime,NF,C,412372,412372,410543,411656,410543,412639,412172,412172,412639,90
89,test,1,con,1,m,Wed Nov 19 2025 15:31:55 GMT-0600 (Central Standard Time),417915.5,iron,900,I,m,m,None,422,222.0,200.0,106,2,1861.8999999761581,416053.60000002384,8066,iron,NF,C,414273,414273,412643,413555,412643,414505,414072,414072,414505,91
90,test,1,inc,1,z,Wed Nov 19 2025 15:31:55 GMT-0600 (Central Standard Time),419948.5,silver,1000,I,z,z,None,496,296.0,200.0,23,2,2029.1000000238419,417919.39999997616,8066,orange,NF,C,416238,416238,414508,415521,414509,416538,416038,416038,416537,92
91,test,1,inc,1,z,Wed Nov 19 2025 15:31:55 GMT-0600 (Central Standard Time),422031.0,copper,900,I,z,z,None,636,437.0,199.0,14,2,2078.800000011921,419952.1999999881,8066,cherry,NF,C,418170,418170,416541,417454,416542,418620,417971,417971,418620,93
92,test,1,con,1,m,Wed Nov 19 2025 15:31:55 GMT-0600 (Central Standard Time),424030.39999997616,bronze,1000,I,m,m,None,454,254.0,200.0,67,2,1995.2999999523163,422035.10000002384,8066,bronze,NF,C,420353,420353,418624,419637,418624,420620,420153,420153,420619,94
93,test,1,con,1,m,Wed Nov 19 2025 15:31:55 GMT-0600 (Central Standard Time),425896.5,lead,800,I,m,m,None,518,318.0,200.0,121,2,1862.300000011921,424034.1999999881,8066,lead,NF,C,422153,422153,420623,421436,420624,422486,421952,421952,422486,95
94,test,1,inc,1,m,Wed Nov 19 2025 15:31:55 GMT-0600 (Central Standard Time),427978.89999997616,kiwi,1000,I,m,m,None,547,348.0,199.0,119,2,2078.5,425900.39999997616,8066,zinc,NF,C,424218,424219,422489,423502,422490,424568,424019,424019,424568,96
95,test,1,con,1,z,Wed Nov 19 2025 15:31:55 GMT-0600 (Central Standard Time),430146.10000002384,orange,1100,I,z,z,None,534,334.0,200.0,20,2,2162.900000035763,427983.1999999881,8066,orange,NF,C,426401,426401,424572,425685,424573,426735,426201,426201,426735,97
96,test,1,inc,1,z,Wed Nov 19 2025 15:31:55 GMT-0600 (Central Standard Time),432094.60000002384,bronze,800,I,z,z,None,604,404.0,200.0,5,2,1945.0,430149.60000002384,8066,banana,NF,C,428267,428267,426739,427551,426739,428684,428067,428067,428684,98
97,test,1,con,1,z,Wed Nov 19 2025 15:31:55 GMT-0600 (Central Standard Time),433910.6999999881,pear,800,I,z,z,None,472,268.0,204.0,41,2,1812.300000011921,432098.39999997616,8066,pear,NF,C,430219,430219,428687,429500,428688,430500,430015,430015,430500,99
98,test,1,inc,1,z,Wed Nov 19 2025 15:31:55 GMT-0600 (Central Standard Time),436193.1999999881,lead,1100,I,z,z,None,634,435.0,199.0,40,2,2277.199999988079,433916.0,8066,lime,NF,C,432332,432332,430505,431616,430505,432782,432133,432133,432782,100
99,test,1,con,1,z,Wed Nov 19 2025 15:31:55 GMT-0600 (Central Standard Time),438176.1999999881,orange,900,I,z,z,None,551,336.0,215.0,18,2,1979.5,436196.6999999881,8066,orange,NF,C,434415,434415,432786,433699,432786,434765,434200,434200,434765,101
100,test,1,inc,1,m,Wed Nov 19 2025 15:31:55 GMT-0600 (Central Standard Time),440175.5,cherry,900,I,m,m,None,553,353.0,200.0,94,2,1995.3999999761581,438180.10000002384,8066,cobalt,NF,C,436398,436398,434769,435682,434769,436765,436198,436198,436765,102
101,test,1,inc,1,m,Wed Nov 19 2025 15:31:55 GMT-0600 (Central Standard Time),442307.6999999881,orange,1000,I,m,m,None,597,398.0,199.0,71,2,2128.399999976158,440179.3000000119,8066,bronze,NF,C,438497,438497,436768,437781,436769,438897,438298,438298,438897,103
102,test,1,inc,1,m,Wed Nov 19 2025 15:31:55 GMT-0600 (Central Standard Time),444557.10000002384,plum,1100,I,m,m,None,613,413.0,200.0,128,2,2245.300000011921,442311.8000000119,8066,lead,NF,C,440730,440730,438901,440014,438901,441146,440530,440530,441146,104
103,test,1,inc,1,z,Wed Nov 19 2025 15:31:55 GMT-0600 (Central Standard Time),446490.1999999881,gold,800,I,z,z,None,584,384.0,200.0,53,2,1929.5,444560.6999999881,8066,kiwi,NF,C,442679,442679,441150,441964,441150,443079,442479,442479,443079,105
104,test,1,inc,1,z,Wed Nov 19 2025 15:31:55 GMT-0600 (Central Standard Time),448522.6999999881,iron,900,I,z,z,None,599,399.0,200.0,62,2,2028.5,446494.1999999881,8066,plum,NF,C,444712,444712,443083,443996,443083,445112,444512,444512,445112,106
105,test,1,inc,1,z,Wed Nov 19 2025 15:31:55 GMT-0600 (Central Standard Time),450505.60000002384,copper,900,I,z,z,None,541,342.0,199.0,22,2,1979.2000000476837,448526.39999997616,8066,orange,NF,C,446745,446745,445115,446028,445116,447095,446545,446545,447095,107
106,test,1,inc,1,z,Wed Nov 19 2025 15:31:55 GMT-0600 (Central Standard Time),452638.0,zinc,1000,I,z,z,None,588,388.0,200.0,55,2,2128.5,450509.5,8066,kiwi,NF,C,448827,448827,447099,448111,447099,449227,448627,448627,449227,108
107,test,1,con,1,z,Wed Nov 19 2025 15:31:55 GMT-0600 (Central Standard Time),454637.60000002384,cherry,900,I,z,z,None,553,354.0,199.0,10,2,1995.7000000476837,452641.89999997616,8066,cherry,NF,C,450860,450861,449231,450144,449231,451227,450661,450661,451227,109
108,test,1,con,1,z,Wed Nov 19 2025 15:31:55 GMT-0600 (Central Standard Time),456686.8000000119,cherry,1000,I,z,z,None,511,312.0,199.0,11,2,2045.0,454641.8000000119,8066,cherry,NF,C,452959,452959,451231,452243,451231,453276,452760,452760,453276,110
109,test,1,con,1,m,Wed Nov 19 2025 15:31:55 GMT-0600 (Central Standard Time),458636.3000000119,cobalt,1000,I,m,m,None,406,206.0,200.0,91,2,1945.5,456690.8000000119,8066,cobalt,NF,C,455009,455009,453280,454292,453280,455225,454809,454809,455225,111
110,test,1,con,1,z,Wed Nov 19 2025 15:31:55 GMT-0600 (Central Standard Time),460602.39999997616,kiwi,1000,I,z,z,None,433,233.0,200.0,51,2,1962.199999988079,458640.1999999881,8066,kiwi,NF,C,456958,456958,455229,456242,455229,457191,456758,456758,457191,112
111,test,1,con,1,z,Wed Nov 19 2025 15:31:55 GMT-0600 (Central Standard Time),462385.0,plum,800,I,z,z,None,442,243.0,199.0,57,2,1778.699999988079,460606.3000000119,8066,plum,NF,C,458724,458724,457195,458008,457196,458974,458525,458525,458974,113
112,test,1,inc,1,m,Wed Nov 19 2025 15:31:55 GMT-0600 (Central Standard Time),464501.39999997616,raisin,1100,I,m,m,None,472,272.0,200.0,80,2,2112.699999988079,462388.6999999881,8066,copper,NF,C,460807,460807,458978,460091,458978,461090,460607,460607,461090,114
113,test,1,inc,1,z,Wed Nov 19 2025 15:31:55 GMT-0600 (Central Standard Time),466367.3000000119,gold,800,I,z,z,None,520,320.0,200.0,61,2,1862.1000000238419,464505.1999999881,8066,plum,NF,C,462623,462623,461094,461907,461094,462956,462423,462423,462956,115
114,test,1,con,1,z,Wed Nov 19 2025 15:31:55 GMT-0600 (Central Standard Time),468466.6999999881,kiwi,1100,I,z,z,None,458,258.0,200.0,52,2,2095.5,466371.1999999881,8066,kiwi,NF,C,464789,464789,462960,464073,462960,465056,464589,464589,465056,116
115,test,1,con,1,m,Wed Nov 19 2025 15:31:55 GMT-0600 (Central Standard Time),470398.89999997616,gold,800,I,m,m,None,594,394.0,200.0,97,2,1928.7999999523163,468470.10000002384,8066,gold,NF,C,466589,466589,465059,465872,465059,466988,466389,466389,466988,117
116,test,1,inc,1,z,Wed Nov 19 2025 15:31:55 GMT-0600 (Central Standard Time),472615.5,lead,1100,I,z,z,None,578,378.0,200.0,48,2,2213.0,470402.5,8066,pear,NF,C,468821,468821,466992,468105,466992,469205,468621,468621,469205,118
117,test,1,inc,1,m,Wed Nov 19 2025 15:31:55 GMT-0600 (Central Standard Time),474531.10000002384,lime,800,I,m,m,None,574,374.0,200.0,109,2,1911.800000011921,472619.3000000119,8066,iron,NF,C,470737,470737,469208,470021,469209,471120,470537,470537,471120,119
118,test,1,con,1,z,Wed Nov 19 2025 15:31:55 GMT-0600 (Central Standard Time),476330.60000002384,raisin,800,I,z,z,None,481,282.0,199.0,25,2,1795.6000000238419,474535.0,8066,raisin,NF,C,472637,472637,471124,471937,471124,472920,472438,472438,472920,120
119,test,1,con,1,m,Wed Nov 19 2025 15:31:55 GMT-0600 (Central Standard Time),478280.1999999881,gold,1000,I,m,m,None,409,210.0,199.0,99,2,1946.0,476334.1999999881,8066,gold,NF,C,474653,474653,472923,473936,472923,474869,474453,474453,474869,121
120,test,1,inc,1,z,Wed Nov 19 2025 15:31:55 GMT-0600 (Central Standard Time),480379.3000000119,lead,1100,I,z,z,None,457,257.0,200.0,64,2,2095.699999988079,478283.60000002384,8066,plum,NF,C,476702,476702,474873,475986,474873,476968,476502,476502,476968,122
121,test,1,inc,1,z,Wed Nov 19 2025 15:31:55 GMT-0600 (Central Standard Time),482378.5,zinc,1000,I,z,z,None,465,265.0,200.0,47,2,1995.5,480383.0,8066,pear,NF,C,478702,478702,476972,477985,476972,478968,478501,478501,478968,123
122,test,1,inc,1,m,Wed Nov 19 2025 15:31:55 GMT-0600 (Central Standard Time),484511.60000002384,plum,1100,I,m,m,None,494,294.0,200.0,112,2,2129.400000035763,482382.1999999881,8066,iron,NF,C,480801,480801,478971,480084,478971,481101,480601,480601,481101,124
123,test,1,con,1,z,Wed Nov 19 2025 15:31:55 GMT-0600 (Central Standard Time),486344.10000002384,orange,800,I,z,z,None,484,285.0,199.0,17,2,1828.5,484515.60000002384,8066,orange,NF,C,482634,482634,481105,481917,481105,482933,482434,482434,482933,125
124,test,1,con,1,z,Wed Nov 19 2025 15:31:55 GMT-0600 (Central Standard Time),488227.0,banana,900,I,z,z,None,450,250.0,200.0,2,2,1879.1000000238419,486347.89999997616,8066,banana,NF,C,484566,484566,482937,483850,482937,484816,484366,484366,484816,126
125,test,1,inc,1,m,Wed Nov 19 2025 15:31:55 GMT-0600 (Central Standard Time),490242.89999997616,cherry,900,I,m,m,None,574,374.0,200.0,70,2,2012.0,488230.89999997616,8066,bronze,NF,C,486449,486449,484820,485733,484820,486832,486249,486249,486832,127
126,test,1,con,1,m,Wed Nov 19 2025 15:31:55 GMT-0600 (Central Standard Time),492192.5,iron,800,I,m,m,None,602,402.0,200.0,105,2,1946.199999988079,490246.3000000119,8066,iron,NF,C,488365,488365,486835,487649,486836,488782,488165,488165,488782,128
