acc_sum,block,block_c,change,condition,correct,correct_response,datetime,endtime,face,project,response,response_time,row_sel,session_number,start_end,starttime,subject_id,task,task_vers,trial
0,prac,1,,1-Back,,,Wed Apr 08 2026 15:56:48 GMT-0400 (Eastern Daylight Time),,005_o_f_d_a.png,I,space,3456,1,1,,,9062,VNB,B,0
1,prac,1,0.0,1-Back,1.0,m,Wed Apr 08 2026 15:56:48 GMT-0400 (Eastern Daylight Time),137764.3999999985,020_y_f_n_a.png,I,m,1326,2,1,2231.7999999988824,135532.59999999963,9062,VNB,B,1
1,prac,1,0.0,1-Back,0.0,m,Wed Apr 08 2026 15:56:48 GMT-0400 (Eastern Daylight Time),140363.69999999925,007_m_m_h_a.png,I,z,1668,3,1,2594.0999999996275,137769.59999999963,9062,VNB,B,2
1,prac,1,0.0,1-Back,0.0,m,Wed Apr 08 2026 15:56:48 GMT-0400 (Eastern Daylight Time),142947.29999999888,016_y_m_d_a.png,I,z,1636,4,1,2569.699999999255,140377.59999999963,9062,VNB,B,3
2,prac,1,0.0,1-Back,1.0,m,Wed Apr 08 2026 15:56:48 GMT-0400 (Eastern Daylight Time),145264.09999999963,005_o_f_n_a.png,I,m,1394,5,1,2307.5,142956.59999999963,9062,VNB,B,4
2,prac,1,1.0,1-Back,0.0,z,Wed Apr 08 2026 15:56:48 GMT-0400 (Eastern Daylight Time),147847.5,016_y_m_n_a.png,I,m,1638,6,1,2568.5,145279.0,9062,VNB,B,5
3,prac,1,0.0,1-Back,1.0,m,Wed Apr 08 2026 15:56:48 GMT-0400 (Eastern Daylight Time),150663.59999999963,004_o_m_h_a.png,I,m,1922,7,1,2808.5999999996275,147855.0,9062,VNB,B,6
3,prac,1,0.0,1-Back,0.0,m,Wed Apr 08 2026 15:56:48 GMT-0400 (Eastern Daylight Time),153263.69999999925,011_m_f_d_a.png,I,z,1677,8,1,2588.199999999255,150675.5,9062,VNB,B,7
3,prac,1,1.0,1-Back,0.0,z,Wed Apr 08 2026 15:56:48 GMT-0400 (Eastern Daylight Time),156030.59999999963,020_y_f_d_a.png,I,m,1858,9,1,2760.300000000745,153270.29999999888,9062,VNB,B,8
3,prac,1,0.0,1-Back,0.0,m,Wed Apr 08 2026 15:56:48 GMT-0400 (Eastern Daylight Time),158980.29999999888,007_m_m_n_a.png,I,None,2017,10,1,2934.5,156045.79999999888,9062,VNB,B,9
4,prac,1,0.0,1-Back,1.0,m,Wed Apr 08 2026 15:56:48 GMT-0400 (Eastern Daylight Time),161097.29999999888,005_o_f_h_a.png,I,m,1200,11,1,2107.7999999988824,158989.5,9062,VNB,B,10
5,prac,1,0.0,1-Back,1.0,m,Wed Apr 08 2026 15:56:48 GMT-0400 (Eastern Daylight Time),163364.09999999963,016_y_m_d_a.png,I,m,1312,12,1,2250.0999999996275,161114.0,9062,VNB,B,11
0,prac,2,0.0,1-Back,,,Wed Apr 08 2026 15:56:48 GMT-0400 (Eastern Daylight Time),163364.09999999963,005_o_f_d_a.png,I,a,3995,1,1,2250.0999999996275,161114.0,9062,VNB,B,0
1,prac,2,0.0,1-Back,1.0,m,Wed Apr 08 2026 15:56:48 GMT-0400 (Eastern Daylight Time),172365.19999999925,020_y_f_n_a.png,I,m,1052,2,1,1943.5,170421.69999999925,9062,VNB,B,1
2,prac,2,0.0,1-Back,1.0,m,Wed Apr 08 2026 15:56:48 GMT-0400 (Eastern Daylight Time),174414.0,007_m_m_h_a.png,I,m,1119,3,1,2037.4000000003725,172376.59999999963,9062,VNB,B,2
3,prac,2,0.0,1-Back,1.0,m,Wed Apr 08 2026 15:56:48 GMT-0400 (Eastern Daylight Time),176780.59999999963,016_y_m_d_a.png,I,m,1576,4,1,2358.800000000745,174421.79999999888,9062,VNB,B,3
4,prac,2,0.0,1-Back,1.0,m,Wed Apr 08 2026 15:56:48 GMT-0400 (Eastern Daylight Time),178914.0,005_o_f_n_a.png,I,m,1187,5,1,2107.7000000011176,176806.29999999888,9062,VNB,B,4
4,prac,2,1.0,1-Back,0.0,z,Wed Apr 08 2026 15:56:48 GMT-0400 (Eastern Daylight Time),181030.69999999925,016_y_m_n_a.png,I,m,1193,6,1,2105.9000000003725,178924.79999999888,9062,VNB,B,5
5,prac,2,0.0,1-Back,1.0,m,Wed Apr 08 2026 15:56:48 GMT-0400 (Eastern Daylight Time),183197.5,004_o_m_h_a.png,I,m,1257,7,1,2147.7000000011176,181049.79999999888,9062,VNB,B,6
6,prac,2,0.0,1-Back,1.0,m,Wed Apr 08 2026 15:56:48 GMT-0400 (Eastern Daylight Time),185247.29999999888,011_m_f_d_a.png,I,m,1135,8,1,2039.0,183208.29999999888,9062,VNB,B,7
7,prac,2,1.0,1-Back,1.0,z,Wed Apr 08 2026 15:56:48 GMT-0400 (Eastern Daylight Time),187313.8999999985,020_y_f_d_a.png,I,z,1133,9,1,2051.39999999851,185262.5,9062,VNB,B,8
8,prac,2,0.0,1-Back,1.0,m,Wed Apr 08 2026 15:56:48 GMT-0400 (Eastern Daylight Time),189463.5,007_m_m_n_a.png,I,m,1227,10,1,2141.4000000003725,187322.09999999963,9062,VNB,B,9
9,prac,2,0.0,1-Back,1.0,m,Wed Apr 08 2026 15:56:48 GMT-0400 (Eastern Daylight Time),191980.69999999925,005_o_f_h_a.png,I,m,1586,11,1,2506.4000000003725,189474.29999999888,9062,VNB,B,10
10,prac,2,0.0,1-Back,1.0,m,Wed Apr 08 2026 15:56:48 GMT-0400 (Eastern Daylight Time),194080.79999999888,016_y_m_d_a.png,I,m,1164,12,1,2090.0,191990.79999999888,9062,VNB,B,11
0,test,1,0.0,1-Back,,,Wed Apr 08 2026 15:56:48 GMT-0400 (Eastern Daylight Time),194080.79999999888,020_y_f_d_a.png,I,space,16312,1,1,2090.0,191990.79999999888,9062,VNB,B,0
1,test,1,0.0,1-Back,1.0,m,Wed Apr 08 2026 15:56:48 GMT-0400 (Eastern Daylight Time),221464.0,011_m_f_n_a.png,I,m,1114,2,1,2127.800000000745,219336.19999999925,9062,VNB,B,1
2,test,1,0.0,1-Back,1.0,m,Wed Apr 08 2026 15:56:48 GMT-0400 (Eastern Daylight Time),223597.09999999963,004_o_m_h_a.png,I,m,1108,3,1,2122.4000000003725,221474.69999999925,9062,VNB,B,2
3,test,1,1.0,1-Back,1.0,z,Wed Apr 08 2026 15:56:48 GMT-0400 (Eastern Daylight Time),225880.3999999985,007_m_m_h_a.png,I,z,1263,4,1,2279.199999999255,223601.19999999925,9062,VNB,B,3
4,test,1,0.0,1-Back,1.0,m,Wed Apr 08 2026 15:56:48 GMT-0400 (Eastern Daylight Time),227763.59999999963,005_o_f_n_a.png,I,m,858,5,1,1871.0,225892.59999999963,9062,VNB,B,4
5,test,1,0.0,1-Back,1.0,m,Wed Apr 08 2026 15:56:48 GMT-0400 (Eastern Daylight Time),229980.5,016_y_m_d_a.png,I,m,1193,6,1,2211.4000000003725,227769.09999999963,9062,VNB,B,5
5,test,1,1.0,1-Back,0.0,z,Wed Apr 08 2026 15:56:48 GMT-0400 (Eastern Daylight Time),232147.09999999963,011_m_f_d_a.png,I,m,1144,7,1,2154.300000000745,229992.79999999888,9062,VNB,B,6
6,test,1,0.0,1-Back,1.0,m,Wed Apr 08 2026 15:56:48 GMT-0400 (Eastern Daylight Time),234165.29999999888,020_y_f_h_a.png,I,m,994,8,1,2011.4000000003725,232153.8999999985,9062,VNB,B,7
7,test,1,0.0,1-Back,1.0,m,Wed Apr 08 2026 15:56:48 GMT-0400 (Eastern Daylight Time),236363.8999999985,004_o_m_n_a.png,I,m,1168,9,1,2187.0999999996275,234176.79999999888,9062,VNB,B,8
8,test,1,0.0,1-Back,1.0,m,Wed Apr 08 2026 15:56:48 GMT-0400 (Eastern Daylight Time),238263.79999999888,016_y_m_h_a.png,I,m,881,10,1,1892.199999999255,236371.59999999963,9062,VNB,B,9
9,test,1,0.0,1-Back,1.0,m,Wed Apr 08 2026 15:56:48 GMT-0400 (Eastern Daylight Time),240214.19999999925,004_o_m_d_a.png,I,m,932,11,1,1938.699999999255,238275.5,9062,VNB,B,10
10,test,1,1.0,1-Back,1.0,z,Wed Apr 08 2026 15:56:48 GMT-0400 (Eastern Daylight Time),242363.8999999985,005_o_f_d_a.png,I,z,1119,12,1,2144.699999999255,240219.19999999925,9062,VNB,B,11
11,test,1,0.0,1-Back,1.0,m,Wed Apr 08 2026 15:56:48 GMT-0400 (Eastern Daylight Time),244313.69999999925,007_m_m_n_a.png,I,m,919,13,1,1938.5,242375.19999999925,9062,VNB,B,12
12,test,1,1.0,1-Back,1.0,z,Wed Apr 08 2026 15:56:48 GMT-0400 (Eastern Daylight Time),246447.19999999925,020_y_f_n_a.png,I,z,1107,14,1,2129.199999999255,244318.0,9062,VNB,B,13
13,test,1,0.0,1-Back,1.0,m,Wed Apr 08 2026 15:56:48 GMT-0400 (Eastern Daylight Time),248347.3999999985,011_m_f_h_a.png,I,m,836,15,1,1887.699999999255,246459.69999999925,9062,VNB,B,14
14,test,1,0.0,1-Back,1.0,m,Wed Apr 08 2026 15:56:48 GMT-0400 (Eastern Daylight Time),250263.79999999888,007_m_m_d_a.png,I,m,890,16,1,1910.0999999996275,248353.69999999925,9062,VNB,B,15
15,test,1,0.0,1-Back,1.0,m,Wed Apr 08 2026 15:56:48 GMT-0400 (Eastern Daylight Time),252314.0,016_y_m_n_a.png,I,m,1029,17,1,2037.1000000014901,250276.8999999985,9062,VNB,B,16
16,test,1,0.0,1-Back,1.0,m,Wed Apr 08 2026 15:56:48 GMT-0400 (Eastern Daylight Time),254363.8999999985,005_o_f_h_a.png,I,m,1027,18,1,2042.2999999988824,252321.59999999963,9062,VNB,B,17
0,test,2,0.0,1-Back,,,Wed Apr 08 2026 15:56:48 GMT-0400 (Eastern Daylight Time),254363.8999999985,016_y_m_n_a.png,I,space,1545,1,1,2042.2999999988824,252321.59999999963,9062,VNB,B,0
1,test,2,0.0,1-Back,1.0,m,Wed Apr 08 2026 15:56:48 GMT-0400 (Eastern Daylight Time),259880.5,020_y_f_h_a.png,I,m,914,2,1,1944.7000000011176,257935.79999999888,9062,VNB,B,1
2,test,2,1.0,1-Back,1.0,m,Wed Apr 08 2026 15:56:48 GMT-0400 (Eastern Daylight Time),261880.3999999985,004_o_m_n_a.png,I,m,980,3,1,1986.2999999988824,259894.09999999963,9062,VNB,B,2
3,test,2,0.0,1-Back,1.0,m,Wed Apr 08 2026 15:56:48 GMT-0400 (Eastern Daylight Time),263746.8999999985,011_m_f_d_a.png,I,m,835,4,1,1863.3999999985099,261883.5,9062,VNB,B,3
4,test,2,0.0,1-Back,1.0,z,Wed Apr 08 2026 15:56:48 GMT-0400 (Eastern Daylight Time),265913.8999999985,007_m_m_d_a.png,I,z,1137,5,1,2156.5999999996275,263757.2999999989,9062,VNB,B,4
5,test,2,0.0,1-Back,1.0,m,Wed Apr 08 2026 15:56:48 GMT-0400 (Eastern Daylight Time),267933.5999999996,016_y_m_h_a.png,I,m,987,6,1,2012.0999999996275,265921.5,9062,VNB,B,5
6,test,2,1.0,1-Back,1.0,z,Wed Apr 08 2026 15:56:48 GMT-0400 (Eastern Daylight Time),269963.7999999989,005_o_f_h_a.png,I,z,1010,7,1,2023.7999999988824,267940.0,9062,VNB,B,6
7,test,2,0.0,1-Back,1.0,m,Wed Apr 08 2026 15:56:48 GMT-0400 (Eastern Daylight Time),271913.69999999925,011_m_f_n_a.png,I,m,921,8,1,1943.9000000003725,269969.7999999989,9062,VNB,B,7
8,test,2,0.0,1-Back,1.0,m,Wed Apr 08 2026 15:56:48 GMT-0400 (Eastern Daylight Time),273897.19999999925,020_y_f_d_a.png,I,m,962,9,1,1971.5,271925.69999999925,9062,VNB,B,8
9,test,2,0.0,1-Back,1.0,m,Wed Apr 08 2026 15:56:48 GMT-0400 (Eastern Daylight Time),276030.5,007_m_m_n_a.png,I,m,1108,10,1,2126.0,273904.5,9062,VNB,B,9
10,test,2,1.0,1-Back,1.0,m,Wed Apr 08 2026 15:56:48 GMT-0400 (Eastern Daylight Time),278263.7999999989,011_m_f_h_a.png,I,m,1214,11,1,2220.7999999988824,276043.0,9062,VNB,B,10
11,test,2,0.0,1-Back,1.0,z,Wed Apr 08 2026 15:56:48 GMT-0400 (Eastern Daylight Time),280063.69999999925,004_o_m_h_a.png,I,z,773,12,1,1792.300000000745,278271.3999999985,9062,VNB,B,11
12,test,2,0.0,1-Back,1.0,m,Wed Apr 08 2026 15:56:48 GMT-0400 (Eastern Daylight Time),282147.19999999925,016_y_m_d_a.png,I,m,1053,13,1,2068.9000000003725,280078.2999999989,9062,VNB,B,12
13,test,2,0.0,1-Back,1.0,m,Wed Apr 08 2026 15:56:48 GMT-0400 (Eastern Daylight Time),284246.8999999985,005_o_f_n_a.png,I,m,1081,14,1,2092.39999999851,282154.5,9062,VNB,B,13
14,test,2,0.0,1-Back,1.0,z,Wed Apr 08 2026 15:56:48 GMT-0400 (Eastern Daylight Time),286547.2999999989,020_y_f_n_a.png,I,z,1277,15,1,2290.4000000003725,284256.8999999985,9062,VNB,B,14
15,test,2,1.0,1-Back,1.0,m,Wed Apr 08 2026 15:56:48 GMT-0400 (Eastern Daylight Time),288613.8999999985,007_m_m_h_a.png,I,m,1034,16,1,2059.5,286554.3999999985,9062,VNB,B,15
16,test,2,0.0,1-Back,1.0,m,Wed Apr 08 2026 15:56:48 GMT-0400 (Eastern Daylight Time),290797.3999999985,005_o_f_d_a.png,I,m,1158,17,1,2170.7999999988824,288626.5999999996,9062,VNB,B,16
17,test,2,1.0,1-Back,1.0,z,Wed Apr 08 2026 15:56:48 GMT-0400 (Eastern Daylight Time),292814.0,004_o_m_d_a.png,I,z,992,18,1,2008.9000000003725,290805.0999999996,9062,VNB,B,17
0,test,3,1.0,1-Back,,,Wed Apr 08 2026 15:56:48 GMT-0400 (Eastern Daylight Time),292814.0,005_o_f_h_a.png,I,space,1303,1,1,2008.9000000003725,290805.0999999996,9062,VNB,B,0
1,test,3,0.0,1-Back,1.0,m,Wed Apr 08 2026 15:56:48 GMT-0400 (Eastern Daylight Time),298147.0,011_m_f_d_a.png,I,m,843,2,1,1858.7000000011176,296288.2999999989,9062,VNB,B,1
2,test,3,1.0,1-Back,1.0,m,Wed Apr 08 2026 15:56:48 GMT-0400 (Eastern Daylight Time),300197.0,007_m_m_n_a.png,I,m,1016,3,1,2041.6000000014901,298155.3999999985,9062,VNB,B,2
3,test,3,0.0,1-Back,1.0,z,Wed Apr 08 2026 15:56:48 GMT-0400 (Eastern Daylight Time),302430.5999999996,005_o_f_n_a.png,I,z,1208,4,1,2230.2000000011176,300200.3999999985,9062,VNB,B,3
4,test,3,1.0,1-Back,1.0,m,Wed Apr 08 2026 15:56:48 GMT-0400 (Eastern Daylight Time),304547.2999999989,004_o_m_d_a.png,I,m,1094,5,1,2104.9000000003725,302442.3999999985,9062,VNB,B,4
5,test,3,0.0,1-Back,1.0,m,Wed Apr 08 2026 15:56:48 GMT-0400 (Eastern Daylight Time),306480.5,020_y_f_h_a.png,I,m,906,6,1,1927.1000000014901,304553.3999999985,9062,VNB,B,5
6,test,3,0.0,1-Back,1.0,z,Wed Apr 08 2026 15:56:48 GMT-0400 (Eastern Daylight Time),308431.0,016_y_m_h_a.png,I,z,933,7,1,1938.2000000011176,306492.7999999989,9062,VNB,B,6
7,test,3,0.0,1-Back,1.0,m,Wed Apr 08 2026 15:56:48 GMT-0400 (Eastern Daylight Time),310364.0,011_m_f_n_a.png,I,m,910,8,1,1926.7000000011176,308437.2999999989,9062,VNB,B,7
8,test,3,0.0,1-Back,1.0,m,Wed Apr 08 2026 15:56:48 GMT-0400 (Eastern Daylight Time),312313.8999999985,020_y_f_d_a.png,I,m,928,9,1,1938.0,310375.8999999985,9062,VNB,B,8
9,test,3,1.0,1-Back,1.0,m,Wed Apr 08 2026 15:56:48 GMT-0400 (Eastern Daylight Time),314430.7999999989,004_o_m_n_a.png,I,m,1099,10,1,2110.0999999996275,312320.69999999925,9062,VNB,B,9
10,test,3,0.0,1-Back,1.0,m,Wed Apr 08 2026 15:56:48 GMT-0400 (Eastern Daylight Time),316363.8999999985,007_m_m_h_a.png,I,m,901,11,1,1922.0,314441.8999999985,9062,VNB,B,10
11,test,3,0.0,1-Back,1.0,z,Wed Apr 08 2026 15:56:48 GMT-0400 (Eastern Daylight Time),318130.5,011_m_f_h_a.png,I,z,737,12,1,1758.5,316372.0,9062,VNB,B,11
12,test,3,1.0,1-Back,1.0,m,Wed Apr 08 2026 15:56:48 GMT-0400 (Eastern Daylight Time),320197.2999999989,005_o_f_d_a.png,I,m,1042,13,1,2055.699999999255,318141.5999999996,9062,VNB,B,12
13,test,3,0.0,1-Back,1.0,z,Wed Apr 08 2026 15:56:48 GMT-0400 (Eastern Daylight Time),322180.5999999996,007_m_m_d_a.png,I,z,960,14,1,1976.7000000011176,320203.8999999985,9062,VNB,B,13
14,test,3,0.0,1-Back,1.0,m,Wed Apr 08 2026 15:56:48 GMT-0400 (Eastern Daylight Time),324130.5,016_y_m_n_a.png,I,m,928,15,1,1938.7000000011176,322191.7999999989,9062,VNB,B,14
15,test,3,1.0,1-Back,1.0,m,Wed Apr 08 2026 15:56:48 GMT-0400 (Eastern Daylight Time),326280.5999999996,004_o_m_h_a.png,I,m,1122,16,1,2144.5,324136.0999999996,9062,VNB,B,15
16,test,3,0.0,1-Back,1.0,m,Wed Apr 08 2026 15:56:48 GMT-0400 (Eastern Daylight Time),328497.19999999925,016_y_m_d_a.png,I,m,1188,17,1,2204.699999999255,326292.5,9062,VNB,B,16
17,test,3,1.0,1-Back,1.0,m,Wed Apr 08 2026 15:56:48 GMT-0400 (Eastern Daylight Time),330530.5,020_y_f_n_a.png,I,m,1012,18,1,2026.1000000014901,328504.3999999985,9062,VNB,B,17
0,test,4,1.0,1-Back,,,Wed Apr 08 2026 15:56:48 GMT-0400 (Eastern Daylight Time),330530.5,007_m_m_d_a.png,I,space,1410,1,1,2026.1000000014901,328504.3999999985,9062,VNB,B,0
1,test,4,0.0,1-Back,1.0,z,Wed Apr 08 2026 15:56:48 GMT-0400 (Eastern Daylight Time),336080.5,004_o_m_d_a.png,I,z,1089,2,1,2113.60000000149,333966.8999999985,9062,VNB,B,1
2,test,4,0.0,1-Back,1.0,m,Wed Apr 08 2026 15:56:48 GMT-0400 (Eastern Daylight Time),337863.69999999925,016_y_m_h_a.png,I,m,764,3,1,1770.0,336093.69999999925,9062,VNB,B,2
2,test,4,0.0,1-Back,0.0,m,Wed Apr 08 2026 15:56:48 GMT-0400 (Eastern Daylight Time),340330.5,011_m_f_n_a.png,I,z,1445,4,1,2460.7000000011176,337869.7999999989,9062,VNB,B,3
3,test,4,1.0,1-Back,1.0,m,Wed Apr 08 2026 15:56:48 GMT-0400 (Eastern Daylight Time),342480.5,005_o_f_h_a.png,I,m,1122,5,1,2138.9000000003725,340341.5999999996,9062,VNB,B,4
4,test,4,0.0,1-Back,1.0,m,Wed Apr 08 2026 15:56:48 GMT-0400 (Eastern Daylight Time),344513.69999999925,007_m_m_n_a.png,I,m,1004,6,1,2025.699999999255,342488.0,9062,VNB,B,5
5,test,4,0.0,1-Back,1.0,m,Wed Apr 08 2026 15:56:48 GMT-0400 (Eastern Daylight Time),346380.5,016_y_m_d_a.png,I,m,834,7,1,1859.800000000745,344520.69999999925,9062,VNB,B,6
5,test,4,1.0,1-Back,0.0,z,Wed Apr 08 2026 15:56:48 GMT-0400 (Eastern Daylight Time),348547.19999999925,020_y_f_d_a.png,I,m,1144,8,1,2159.0,346388.19999999925,9062,VNB,B,7
6,test,4,0.0,1-Back,1.0,m,Wed Apr 08 2026 15:56:48 GMT-0400 (Eastern Daylight Time),350814.0,011_m_f_h_a.png,I,m,1234,9,1,2254.60000000149,348559.3999999985,9062,VNB,B,8
7,test,4,0.0,1-Back,1.0,z,Wed Apr 08 2026 15:56:48 GMT-0400 (Eastern Daylight Time),352597.2999999989,004_o_m_h_a.png,I,z,750,10,1,1775.699999999255,350821.5999999996,9062,VNB,B,9
8,test,4,1.0,1-Back,1.0,m,Wed Apr 08 2026 15:56:48 GMT-0400 (Eastern Daylight Time),354563.7999999989,005_o_f_n_a.png,I,m,934,11,1,1953.199999999255,352610.5999999996,9062,VNB,B,10
9,test,4,0.0,1-Back,1.0,m,Wed Apr 08 2026 15:56:48 GMT-0400 (Eastern Daylight Time),356364.0,011_m_f_d_a.png,I,m,777,12,1,1794.9000000003725,354569.0999999996,9062,VNB,B,11
10,test,4,0.0,1-Back,1.0,m,Wed Apr 08 2026 15:56:48 GMT-0400 (Eastern Daylight Time),358297.0999999996,020_y_f_n_a.png,I,m,912,13,1,1920.7000000011176,356376.3999999985,9062,VNB,B,12
11,test,4,0.0,1-Back,1.0,m,Wed Apr 08 2026 15:56:48 GMT-0400 (Eastern Daylight Time),360048.0,005_o_f_d_a.png,I,m,732,14,1,1744.4000000003725,358303.5999999996,9062,VNB,B,13
12,test,4,0.0,1-Back,1.0,m,Wed Apr 08 2026 15:56:48 GMT-0400 (Eastern Daylight Time),361930.3999999985,020_y_f_h_a.png,I,m,854,15,1,1869.0999999996275,360061.2999999989,9062,VNB,B,14
13,test,4,1.0,1-Back,1.0,z,Wed Apr 08 2026 15:56:48 GMT-0400 (Eastern Daylight Time),363830.2999999989,007_m_m_h_a.png,I,z,882,16,1,1893.2999999988824,361937.0,9062,VNB,B,15
14,test,4,0.0,1-Back,1.0,m,Wed Apr 08 2026 15:56:48 GMT-0400 (Eastern Daylight Time),365764.0,004_o_m_n_a.png,I,m,910,17,1,1928.300000000745,363835.69999999925,9062,VNB,B,16
14,test,4,1.0,1-Back,0.0,z,Wed Apr 08 2026 15:56:48 GMT-0400 (Eastern Daylight Time),367680.5999999996,016_y_m_n_a.png,I,m,897,18,1,1909.7000000011176,365770.8999999985,9062,VNB,B,17
0,test,5,1.0,1-Back,,,Wed Apr 08 2026 15:56:48 GMT-0400 (Eastern Daylight Time),367680.5999999996,004_o_m_n_a.png,I,space,1452,1,1,1909.7000000011176,365770.8999999985,9062,VNB,B,0
1,test,5,1.0,1-Back,1.0,m,Wed Apr 08 2026 15:56:48 GMT-0400 (Eastern Daylight Time),372980.5,005_o_f_h_a.png,I,m,785,2,1,1809.4000000003725,371171.0999999996,9062,VNB,B,1
2,test,5,0.0,1-Back,1.0,m,Wed Apr 08 2026 15:56:48 GMT-0400 (Eastern Daylight Time),374763.69999999925,016_y_m_d_a.png,I,m,760,3,1,1771.5999999996275,372992.0999999996,9062,VNB,B,2
3,test,5,0.0,1-Back,1.0,z,Wed Apr 08 2026 15:56:48 GMT-0400 (Eastern Daylight Time),376813.69999999925,004_o_m_d_a.png,I,z,1016,4,1,2044.5999999996275,374769.0999999996,9062,VNB,B,3
4,test,5,0.0,1-Back,1.0,m,Wed Apr 08 2026 15:56:48 GMT-0400 (Eastern Daylight Time),378813.69999999925,011_m_f_h_a.png,I,m,981,5,1,1988.5,376825.19999999925,9062,VNB,B,4
5,test,5,0.0,1-Back,1.0,m,Wed Apr 08 2026 15:56:48 GMT-0400 (Eastern Daylight Time),380797.19999999925,020_y_f_n_a.png,I,m,957,6,1,1980.800000000745,378816.3999999985,9062,VNB,B,5
6,test,5,1.0,1-Back,1.0,z,Wed Apr 08 2026 15:56:48 GMT-0400 (Eastern Daylight Time),382663.7999999989,005_o_f_n_a.png,I,z,847,7,1,1854.199999999255,380809.5999999996,9062,VNB,B,6
7,test,5,0.0,1-Back,1.0,m,Wed Apr 08 2026 15:56:48 GMT-0400 (Eastern Daylight Time),384447.0,011_m_f_d_a.png,I,m,765,8,1,1775.9000000003725,382671.0999999996,9062,VNB,B,7
7,test,5,0.0,1-Back,0.0,m,Wed Apr 08 2026 15:56:48 GMT-0400 (Eastern Daylight Time),386463.7999999989,016_y_m_h_a.png,I,z,997,9,1,2005.5,384458.2999999989,9062,VNB,B,8
8,test,5,0.0,1-Back,1.0,m,Wed Apr 08 2026 15:56:48 GMT-0400 (Eastern Daylight Time),388547.19999999925,020_y_f_d_a.png,I,m,1053,10,1,2075.5,386471.69999999925,9062,VNB,B,9
9,test,5,0.0,1-Back,1.0,m,Wed Apr 08 2026 15:56:48 GMT-0400 (Eastern Daylight Time),390564.0,007_m_m_n_a.png,I,m,994,11,1,2004.2000000011176,388559.7999999989,9062,VNB,B,10
9,test,5,1.0,1-Back,0.0,z,Wed Apr 08 2026 15:56:48 GMT-0400 (Eastern Daylight Time),392630.5,011_m_f_n_a.png,I,m,1041,12,1,2061.2000000011176,390569.2999999989,9062,VNB,B,11
10,test,5,0.0,1-Back,1.0,m,Wed Apr 08 2026 15:56:48 GMT-0400 (Eastern Daylight Time),394430.5,004_o_m_h_a.png,I,m,781,13,1,1787.2000000011176,392643.2999999989,9062,VNB,B,12
11,test,5,0.0,1-Back,1.0,z,Wed Apr 08 2026 15:56:48 GMT-0400 (Eastern Daylight Time),396330.5,007_m_m_h_a.png,I,z,871,14,1,1894.1000000014901,394436.3999999985,9062,VNB,B,13
12,test,5,1.0,1-Back,1.0,m,Wed Apr 08 2026 15:56:48 GMT-0400 (Eastern Daylight Time),398196.8999999985,005_o_f_d_a.png,I,m,832,15,1,1852.699999999255,396344.19999999925,9062,VNB,B,14
13,test,5,0.0,1-Back,1.0,m,Wed Apr 08 2026 15:56:48 GMT-0400 (Eastern Daylight Time),400147.19999999925,016_y_m_n_a.png,I,m,928,16,1,1946.199999999255,398201.0,9062,VNB,B,15
14,test,5,0.0,1-Back,1.0,m,Wed Apr 08 2026 15:56:48 GMT-0400 (Eastern Daylight Time),402147.0,020_y_f_h_a.png,I,m,976,17,1,1984.9000000003725,400162.0999999996,9062,VNB,B,16
15,test,5,0.0,1-Back,1.0,m,Wed Apr 08 2026 15:56:48 GMT-0400 (Eastern Daylight Time),403947.0999999996,007_m_m_d_a.png,I,m,770,18,1,1797.0,402150.0999999996,9062,VNB,B,17
0,prac,1,0.0,2-Back,,,Wed Apr 08 2026 15:56:48 GMT-0400 (Eastern Daylight Time),403947.0999999996,011_m_f_n_a.png,I,space,9102,1,1,1797.0,402150.0999999996,9062,VNB,B,0
0,prac,1,0.0,2-Back,,,Wed Apr 08 2026 15:56:48 GMT-0400 (Eastern Daylight Time),403947.0999999996,005_o_f_h_a.png,I,space,9102,2,1,1797.0,402150.0999999996,9062,VNB,B,0
0,prac,1,0.0,2-Back,0.0,m,Wed Apr 08 2026 15:56:48 GMT-0400 (Eastern Daylight Time),536580.7999999989,004_o_m_d_a.png,I,None,2009,3,1,2894.5,533686.2999999989,9062,VNB,B,1
0,prac,1,1.0,2-Back,0.0,z,Wed Apr 08 2026 15:56:48 GMT-0400 (Eastern Daylight Time),539064.0999999996,007_m_m_h_a.png,I,m,1539,4,1,2467.800000000745,536596.2999999989,9062,VNB,B,2
0,prac,1,0.0,2-Back,0.0,m,Wed Apr 08 2026 15:56:48 GMT-0400 (Eastern Daylight Time),541114.0,020_y_f_n_a.png,I,z,1147,5,1,2040.800000000745,539073.1999999993,9062,VNB,B,3
0,prac,1,1.0,2-Back,0.0,z,Wed Apr 08 2026 15:56:48 GMT-0400 (Eastern Daylight Time),543247.3999999985,004_o_m_h_a.png,I,m,1199,6,1,2117.5999999996275,541129.7999999989,9062,VNB,B,4
0,prac,1,1.0,2-Back,0.0,z,Wed Apr 08 2026 15:56:48 GMT-0400 (Eastern Daylight Time),545530.3999999985,016_y_m_n_a.png,I,m,1359,7,1,2275.39999999851,543255.0,9062,VNB,B,5
0,prac,1,0.0,2-Back,0.0,m,Wed Apr 08 2026 15:56:48 GMT-0400 (Eastern Daylight Time),547663.5,011_m_f_d_a.png,I,z,1210,8,1,2121.0,545542.5,9062,VNB,B,6
1,prac,1,0.0,2-Back,1.0,m,Wed Apr 08 2026 15:56:48 GMT-0400 (Eastern Daylight Time),549247.5,005_o_f_d_a.png,I,m,539,9,1,1575.7000000011176,547671.7999999989,9062,VNB,B,7
2,prac,1,0.0,2-Back,1.0,m,Wed Apr 08 2026 15:56:48 GMT-0400 (Eastern Daylight Time),551180.8999999985,007_m_m_h_a.png,I,m,1134,10,1,1917.5999999996275,549263.2999999989,9062,VNB,B,8
2,prac,1,1.0,2-Back,0.0,z,Wed Apr 08 2026 15:56:48 GMT-0400 (Eastern Daylight Time),553330.5,020_y_f_d_a.png,I,m,1182,11,1,2142.300000000745,551188.1999999993,9062,VNB,B,9
3,prac,1,0.0,2-Back,1.0,m,Wed Apr 08 2026 15:56:48 GMT-0400 (Eastern Daylight Time),555864.0999999996,004_o_m_n_a.png,I,m,1507,12,1,2517.300000000745,553346.7999999989,9062,VNB,B,10
0,prac,2,0.0,2-Back,,,Wed Apr 08 2026 15:56:48 GMT-0400 (Eastern Daylight Time),555864.0999999996,011_m_f_n_a.png,I,a,2629,1,1,2517.300000000745,553346.7999999989,9062,VNB,B,0
0,prac,2,0.0,2-Back,,,Wed Apr 08 2026 15:56:48 GMT-0400 (Eastern Daylight Time),555864.0999999996,005_o_f_h_a.png,I,a,2629,2,1,2517.300000000745,553346.7999999989,9062,VNB,B,0
0,prac,2,0.0,2-Back,0.0,m,Wed Apr 08 2026 15:56:48 GMT-0400 (Eastern Daylight Time),566797.0999999996,004_o_m_d_a.png,I,None,2011,3,1,2903.5999999996275,563893.5,9062,VNB,B,1
0,prac,2,1.0,2-Back,0.0,z,Wed Apr 08 2026 15:56:48 GMT-0400 (Eastern Daylight Time),568697.3999999985,007_m_m_h_a.png,I,m,1103,4,1,1883.699999999255,566813.6999999993,9062,VNB,B,2
0,prac,2,0.0,2-Back,0.0,m,Wed Apr 08 2026 15:56:48 GMT-0400 (Eastern Daylight Time),570914.0,020_y_f_n_a.png,I,z,1305,5,1,2209.800000000745,568704.1999999993,9062,VNB,B,3
0,prac,2,1.0,2-Back,0.0,z,Wed Apr 08 2026 15:56:48 GMT-0400 (Eastern Daylight Time),573064.0999999996,004_o_m_h_a.png,I,m,1231,6,1,2134.4000000003725,570929.6999999993,9062,VNB,B,4
1,prac,2,1.0,2-Back,1.0,z,Wed Apr 08 2026 15:56:48 GMT-0400 (Eastern Daylight Time),575297.3999999985,016_y_m_n_a.png,I,z,1310,7,1,2226.199999999255,573071.1999999993,9062,VNB,B,5
1,prac,2,0.0,2-Back,0.0,m,Wed Apr 08 2026 15:56:48 GMT-0400 (Eastern Daylight Time),577380.6999999993,011_m_f_d_a.png,I,z,1153,8,1,2068.0,575312.6999999993,9062,VNB,B,6
2,prac,2,0.0,2-Back,1.0,m,Wed Apr 08 2026 15:56:48 GMT-0400 (Eastern Daylight Time),579730.7999999989,005_o_f_d_a.png,I,m,1423,9,1,2338.5,577392.2999999989,9062,VNB,B,7
3,prac,2,0.0,2-Back,1.0,m,Wed Apr 08 2026 15:56:48 GMT-0400 (Eastern Daylight Time),581814.0,007_m_m_h_a.png,I,m,1298,10,1,2067.2000000011176,579746.7999999989,9062,VNB,B,8
3,prac,2,1.0,2-Back,0.0,z,Wed Apr 08 2026 15:56:48 GMT-0400 (Eastern Daylight Time),584047.2999999989,020_y_f_d_a.png,I,m,1325,11,1,2226.2999999988824,581821.0,9062,VNB,B,9
3,prac,2,0.0,2-Back,0.0,m,Wed Apr 08 2026 15:56:48 GMT-0400 (Eastern Daylight Time),586180.6999999993,004_o_m_n_a.png,I,z,1227,12,1,2117.4000000003725,584063.2999999989,9062,VNB,B,10
0,prac,3,0.0,2-Back,,,Wed Apr 08 2026 15:56:48 GMT-0400 (Eastern Daylight Time),586180.6999999993,011_m_f_n_a.png,I,a,3218,1,1,2117.4000000003725,584063.2999999989,9062,VNB,B,0
0,prac,3,0.0,2-Back,,,Wed Apr 08 2026 15:56:48 GMT-0400 (Eastern Daylight Time),586180.6999999993,005_o_f_h_a.png,I,a,3218,2,1,2117.4000000003725,584063.2999999989,9062,VNB,B,0
1,prac,3,0.0,2-Back,1.0,m,Wed Apr 08 2026 15:56:48 GMT-0400 (Eastern Daylight Time),596964.0,004_o_m_d_a.png,I,m,1319,3,1,2222.0,594742.0,9062,VNB,B,1
1,prac,3,1.0,2-Back,0.0,z,Wed Apr 08 2026 15:56:48 GMT-0400 (Eastern Daylight Time),599664.0999999996,007_m_m_h_a.png,I,m,1912,4,1,2682.5,596981.5999999996,9062,VNB,B,2
1,prac,3,0.0,2-Back,0.0,m,Wed Apr 08 2026 15:56:48 GMT-0400 (Eastern Daylight Time),602564.0,020_y_f_n_a.png,I,None,2006,5,1,2893.0,599671.0,9062,VNB,B,3
1,prac,3,1.0,2-Back,0.0,z,Wed Apr 08 2026 15:56:48 GMT-0400 (Eastern Daylight Time),605030.3999999985,004_o_m_h_a.png,I,m,1562,6,1,2453.2999999988824,602577.0999999996,9062,VNB,B,4
2,prac,3,1.0,2-Back,1.0,z,Wed Apr 08 2026 15:56:48 GMT-0400 (Eastern Daylight Time),606847.2999999989,016_y_m_n_a.png,I,z,892,7,1,1809.2999999988824,605038.0,9062,VNB,B,5
3,prac,3,0.0,2-Back,1.0,m,Wed Apr 08 2026 15:56:48 GMT-0400 (Eastern Daylight Time),609247.5,011_m_f_d_a.png,I,m,1476,8,1,2384.7000000011176,606862.7999999989,9062,VNB,B,6
3,prac,3,0.0,2-Back,0.0,m,Wed Apr 08 2026 15:56:48 GMT-0400 (Eastern Daylight Time),611480.6999999993,005_o_f_d_a.png,I,z,1317,9,1,2223.5999999996275,609257.0999999996,9062,VNB,B,7
4,prac,3,0.0,2-Back,1.0,m,Wed Apr 08 2026 15:56:48 GMT-0400 (Eastern Daylight Time),613330.7999999989,007_m_m_h_a.png,I,m,1053,10,1,1833.9000000003725,611496.8999999985,9062,VNB,B,8
5,prac,3,1.0,2-Back,1.0,z,Wed Apr 08 2026 15:56:48 GMT-0400 (Eastern Daylight Time),615447.2999999989,020_y_f_d_a.png,I,z,1218,11,1,2109.2999999988824,613338.0,9062,VNB,B,9
6,prac,3,0.0,2-Back,1.0,m,Wed Apr 08 2026 15:56:48 GMT-0400 (Eastern Daylight Time),617314.0999999996,004_o_m_n_a.png,I,m,950,12,1,1853.2000000011176,615460.8999999985,9062,VNB,B,10
0,prac,4,0.0,2-Back,,,Wed Apr 08 2026 15:56:48 GMT-0400 (Eastern Daylight Time),617314.0999999996,011_m_f_n_a.png,I,a,3652,1,1,1853.2000000011176,615460.8999999985,9062,VNB,B,0
0,prac,4,0.0,2-Back,,,Wed Apr 08 2026 15:56:48 GMT-0400 (Eastern Daylight Time),617314.0999999996,005_o_f_h_a.png,I,a,3652,2,1,1853.2000000011176,615460.8999999985,9062,VNB,B,0
1,prac,4,0.0,2-Back,1.0,m,Wed Apr 08 2026 15:56:48 GMT-0400 (Eastern Daylight Time),628163.7999999989,004_o_m_d_a.png,I,m,984,3,1,1875.4000000003725,626288.3999999985,9062,VNB,B,1
1,prac,4,1.0,2-Back,0.0,z,Wed Apr 08 2026 15:56:48 GMT-0400 (Eastern Daylight Time),630947.1999999993,007_m_m_h_a.png,I,None,2005,4,1,2772.5,628174.6999999993,9062,VNB,B,2
2,prac,4,0.0,2-Back,1.0,m,Wed Apr 08 2026 15:56:48 GMT-0400 (Eastern Daylight Time),633180.6999999993,020_y_f_n_a.png,I,m,1320,5,1,2225.4000000003725,630955.2999999989,9062,VNB,B,3
2,prac,4,1.0,2-Back,0.0,z,Wed Apr 08 2026 15:56:48 GMT-0400 (Eastern Daylight Time),635230.7999999989,004_o_m_h_a.png,I,m,1134,6,1,2033.5,633197.2999999989,9062,VNB,B,4
2,prac,4,1.0,2-Back,0.0,z,Wed Apr 08 2026 15:56:48 GMT-0400 (Eastern Daylight Time),637297.1999999993,016_y_m_n_a.png,I,m,1141,7,1,2058.0999999996275,635239.0999999996,9062,VNB,B,5
3,prac,4,0.0,2-Back,1.0,m,Wed Apr 08 2026 15:56:48 GMT-0400 (Eastern Daylight Time),639614.0,011_m_f_d_a.png,I,m,1383,8,1,2300.300000000745,637313.6999999993,9062,VNB,B,6
3,prac,4,0.0,2-Back,0.0,m,Wed Apr 08 2026 15:56:48 GMT-0400 (Eastern Daylight Time),641747.3999999985,005_o_f_d_a.png,I,z,1216,9,1,2123.5999999996275,639623.7999999989,9062,VNB,B,7
4,prac,4,0.0,2-Back,1.0,m,Wed Apr 08 2026 15:56:48 GMT-0400 (Eastern Daylight Time),643714.0,007_m_m_h_a.png,I,m,1181,10,1,1954.0,641760.0,9062,VNB,B,8
4,prac,4,1.0,2-Back,0.0,z,Wed Apr 08 2026 15:56:48 GMT-0400 (Eastern Daylight Time),645763.8999999985,020_y_f_d_a.png,I,m,1151,11,1,2039.8999999985099,643724.0,9062,VNB,B,9
4,prac,4,0.0,2-Back,0.0,m,Wed Apr 08 2026 15:56:48 GMT-0400 (Eastern Daylight Time),647780.7999999989,004_o_m_n_a.png,I,z,1088,12,1,2000.2999999988824,645780.5,9062,VNB,B,10
0,test,1,0.0,2-Back,,,Wed Apr 08 2026 15:56:48 GMT-0400 (Eastern Daylight Time),647780.7999999989,016_y_m_h_a.png,I,space,4229,1,1,2000.2999999988824,645780.5,9062,VNB,B,0
0,test,1,0.0,2-Back,,,Wed Apr 08 2026 15:56:48 GMT-0400 (Eastern Daylight Time),647780.7999999989,005_o_f_n_a.png,I,space,4229,2,1,2000.2999999988824,645780.5,9062,VNB,B,0
1,test,1,0.0,2-Back,1.0,z,Wed Apr 08 2026 15:56:48 GMT-0400 (Eastern Daylight Time),666114.1999999993,004_o_m_h_a.png,I,z,1271,3,1,2293.0,663821.1999999993,9062,VNB,B,1
2,test,1,0.0,2-Back,1.0,m,Wed Apr 08 2026 15:56:48 GMT-0400 (Eastern Daylight Time),669030.5,011_m_f_d_a.png,I,m,1898,4,1,2903.7000000011176,666126.7999999989,9062,VNB,B,2
3,test,1,1.0,2-Back,1.0,m,Wed Apr 08 2026 15:56:48 GMT-0400 (Eastern Daylight Time),671547.3999999985,016_y_m_n_a.png,I,m,1486,5,1,2510.89999999851,669036.5,9062,VNB,B,3
4,test,1,0.0,2-Back,1.0,z,Wed Apr 08 2026 15:56:48 GMT-0400 (Eastern Daylight Time),673997.0999999996,020_y_f_d_a.png,I,z,1417,6,1,2435.9000000003725,671561.1999999993,9062,VNB,B,4
5,test,1,0.0,2-Back,1.0,m,Wed Apr 08 2026 15:56:48 GMT-0400 (Eastern Daylight Time),676314.0,007_m_m_h_a.png,I,m,1288,7,1,2313.10000000149,674000.8999999985,9062,VNB,B,5
6,test,1,1.0,2-Back,1.0,m,Wed Apr 08 2026 15:56:48 GMT-0400 (Eastern Daylight Time),678580.5999999996,020_y_f_n_a.png,I,m,1241,8,1,2251.5999999996275,676329.0,9062,VNB,B,6
7,test,1,0.0,2-Back,1.0,z,Wed Apr 08 2026 15:56:48 GMT-0400 (Eastern Daylight Time),681097.2999999989,005_o_f_h_a.png,I,z,1488,9,1,2510.0999999996275,678587.1999999993,9062,VNB,B,7
8,test,1,0.0,2-Back,1.0,m,Wed Apr 08 2026 15:56:48 GMT-0400 (Eastern Daylight Time),683463.7999999989,004_o_m_d_a.png,I,m,1338,10,1,2353.0,681110.7999999989,9062,VNB,B,8
9,test,1,1.0,2-Back,1.0,m,Wed Apr 08 2026 15:56:48 GMT-0400 (Eastern Daylight Time),685697.2999999989,007_m_m_d_a.png,I,m,1212,11,1,2228.2999999988824,683469.0,9062,VNB,B,9
10,test,1,0.0,2-Back,1.0,m,Wed Apr 08 2026 15:56:48 GMT-0400 (Eastern Daylight Time),688314.7999999989,011_m_f_n_a.png,I,m,1594,12,1,2603.699999999255,685711.0999999996,9062,VNB,B,10
11,test,1,0.0,2-Back,1.0,m,Wed Apr 08 2026 15:56:48 GMT-0400 (Eastern Daylight Time),691313.8999999985,020_y_f_h_a.png,I,m,1971,13,1,2994.199999999255,688319.6999999993,9062,VNB,B,11
11,test,1,0.0,2-Back,0.0,z,Wed Apr 08 2026 15:56:48 GMT-0400 (Eastern Daylight Time),693897.3999999985,007_m_m_n_a.png,I,m,1562,14,1,2570.7999999988824,691326.5999999996,9062,VNB,B,12
11,test,1,0.0,2-Back,0.0,m,Wed Apr 08 2026 15:56:48 GMT-0400 (Eastern Daylight Time),695946.8999999985,016_y_m_d_a.png,I,z,1019,15,1,2043.3999999985099,693903.5,9062,VNB,B,13
12,test,1,1.0,2-Back,1.0,m,Wed Apr 08 2026 15:56:48 GMT-0400 (Eastern Daylight Time),698347.0,011_m_f_h_a.png,I,m,1368,16,1,2390.800000000745,695956.1999999993,9062,VNB,B,14
12,test,1,0.0,2-Back,0.0,z,Wed Apr 08 2026 15:56:48 GMT-0400 (Eastern Daylight Time),700163.8999999985,005_o_f_d_a.png,I,m,793,17,1,1814.0999999996275,698349.7999999989,9062,VNB,B,15
13,test,1,0.0,2-Back,1.0,m,Wed Apr 08 2026 15:56:48 GMT-0400 (Eastern Daylight Time),702047.0999999996,004_o_m_n_a.png,I,m,863,18,1,1872.5,700174.5999999996,9062,VNB,B,16
0,test,2,0.0,2-Back,,,Wed Apr 08 2026 15:56:48 GMT-0400 (Eastern Daylight Time),702047.0999999996,007_m_m_h_a.png,I,space,1813,1,1,1872.5,700174.5999999996,9062,VNB,B,0
0,test,2,0.0,2-Back,,,Wed Apr 08 2026 15:56:48 GMT-0400 (Eastern Daylight Time),702047.0999999996,020_y_f_n_a.png,I,space,1813,2,1,1872.5,700174.5999999996,9062,VNB,B,0
0,test,2,1.0,2-Back,0.0,z,Wed Apr 08 2026 15:56:48 GMT-0400 (Eastern Daylight Time),712589.1999999993,005_o_f_h_a.png,I,None,2408,3,1,3419.300000000745,709169.8999999985,9062,VNB,B,1
0,test,2,0.0,2-Back,0.0,m,Wed Apr 08 2026 15:56:48 GMT-0400 (Eastern Daylight Time),715630.6999999993,004_o_m_d_a.png,I,None,2016,4,1,3034.199999999255,712596.5,9062,VNB,B,2
0,test,2,0.0,2-Back,0.0,m,Wed Apr 08 2026 15:56:48 GMT-0400 (Eastern Daylight Time),718663.5,011_m_f_d_a.png,I,None,2015,5,1,3026.9000000003725,715636.5999999996,9062,VNB,B,3
1,test,2,0.0,2-Back,1.0,m,Wed Apr 08 2026 15:56:48 GMT-0400 (Eastern Daylight Time),720747.1999999993,016_y_m_h_a.png,I,m,1059,6,1,2075.5999999996275,718671.5999999996,9062,VNB,B,4
2,test,2,0.0,2-Back,1.0,m,Wed Apr 08 2026 15:56:48 GMT-0400 (Eastern Daylight Time),723080.2999999989,005_o_f_n_a.png,I,m,1313,7,1,2328.9000000003725,720751.3999999985,9062,VNB,B,5
2,test,2,1.0,2-Back,0.0,z,Wed Apr 08 2026 15:56:48 GMT-0400 (Eastern Daylight Time),725497.1999999993,004_o_m_h_a.png,I,m,1395,8,1,2406.5999999996275,723090.5999999996,9062,VNB,B,6
2,test,2,0.0,2-Back,0.0,m,Wed Apr 08 2026 15:56:48 GMT-0400 (Eastern Daylight Time),728530.6999999993,020_y_f_d_a.png,I,None,2016,9,1,3028.0,725502.6999999993,9062,VNB,B,7
3,test,2,0.0,2-Back,1.0,m,Wed Apr 08 2026 15:56:48 GMT-0400 (Eastern Daylight Time),730730.6999999993,016_y_m_d_a.png,I,m,1177,10,1,2186.5,728544.1999999993,9062,VNB,B,8
4,test,2,0.0,2-Back,1.0,m,Wed Apr 08 2026 15:56:48 GMT-0400 (Eastern Daylight Time),732847.2999999989,007_m_m_n_a.png,I,m,1089,11,1,2107.4000000003725,730739.8999999985,9062,VNB,B,9
5,test,2,0.0,2-Back,1.0,m,Wed Apr 08 2026 15:56:48 GMT-0400 (Eastern Daylight Time),735247.2999999989,011_m_f_h_a.png,I,m,1380,12,1,2386.4000000003725,732860.8999999985,9062,VNB,B,10
5,test,2,1.0,2-Back,0.0,z,Wed Apr 08 2026 15:56:48 GMT-0400 (Eastern Daylight Time),738280.5999999996,004_o_m_n_a.png,I,None,2016,13,1,3027.2000000011176,735253.3999999985,9062,VNB,B,11
6,test,2,0.0,2-Back,1.0,m,Wed Apr 08 2026 15:56:48 GMT-0400 (Eastern Daylight Time),740130.5,005_o_f_d_a.png,I,m,819,14,1,1836.1000000014901,738294.3999999985,9062,VNB,B,12
7,test,2,0.0,2-Back,1.0,m,Wed Apr 08 2026 15:56:48 GMT-0400 (Eastern Daylight Time),742097.2999999989,020_y_f_h_a.png,I,m,946,15,1,1960.2999999988824,740137.0,9062,VNB,B,13
7,test,2,0.0,2-Back,0.0,z,Wed Apr 08 2026 15:56:48 GMT-0400 (Eastern Daylight Time),744664.0,007_m_m_d_a.png,I,m,1547,16,1,2553.5,742110.5,9062,VNB,B,14
7,test,2,0.0,2-Back,0.0,m,Wed Apr 08 2026 15:56:48 GMT-0400 (Eastern Daylight Time),747697.3999999985,016_y_m_n_a.png,I,None,2016,17,1,3027.7999999988824,744669.5999999996,9062,VNB,B,15
8,test,2,1.0,2-Back,1.0,m,Wed Apr 08 2026 15:56:48 GMT-0400 (Eastern Daylight Time),750330.5999999996,011_m_f_n_a.png,I,m,1610,18,1,2619.4000000003725,747711.1999999993,9062,VNB,B,16
0,test,3,1.0,2-Back,,,Wed Apr 08 2026 15:56:48 GMT-0400 (Eastern Daylight Time),750330.5999999996,004_o_m_n_a.png,I,space,1657,1,1,2619.4000000003725,747711.1999999993,9062,VNB,B,0
0,test,3,1.0,2-Back,,,Wed Apr 08 2026 15:56:48 GMT-0400 (Eastern Daylight Time),750330.5999999996,005_o_f_d_a.png,I,space,1657,2,1,2619.4000000003725,747711.1999999993,9062,VNB,B,0
1,test,3,0.0,2-Back,1.0,m,Wed Apr 08 2026 15:56:48 GMT-0400 (Eastern Daylight Time),759347.1999999993,020_y_f_h_a.png,I,m,1269,3,1,2297.199999999255,757050.0,9062,VNB,B,1
1,test,3,0.0,2-Back,0.0,z,Wed Apr 08 2026 15:56:48 GMT-0400 (Eastern Daylight Time),762380.5999999996,011_m_f_d_a.png,I,None,2016,4,1,3021.800000000745,759358.7999999989,9062,VNB,B,2
2,test,3,1.0,2-Back,1.0,m,Wed Apr 08 2026 15:56:48 GMT-0400 (Eastern Daylight Time),764246.7999999989,016_y_m_n_a.png,I,m,847,5,1,1859.4000000003725,762387.3999999985,9062,VNB,B,3
3,test,3,0.0,2-Back,1.0,m,Wed Apr 08 2026 15:56:48 GMT-0400 (Eastern Daylight Time),766297.5,004_o_m_h_a.png,I,m,971,6,1,2036.6000000014901,764260.8999999985,9062,VNB,B,4
3,test,3,0.0,2-Back,0.0,z,Wed Apr 08 2026 15:56:48 GMT-0400 (Eastern Daylight Time),768564.0999999996,020_y_f_n_a.png,I,m,1235,7,1,2260.2000000011176,766303.8999999985,9062,VNB,B,5
3,test,3,1.0,2-Back,0.0,m,Wed Apr 08 2026 15:56:48 GMT-0400 (Eastern Daylight Time),771597.3999999985,007_m_m_d_a.png,I,None,2015,8,1,3021.5999999996275,768575.7999999989,9062,VNB,B,6
4,test,3,0.0,2-Back,1.0,m,Wed Apr 08 2026 15:56:48 GMT-0400 (Eastern Daylight Time),773080.5999999996,016_y_m_d_a.png,I,m,462,9,1,1477.5,771603.0999999996,9062,VNB,B,7
5,test,3,0.0,2-Back,1.0,m,Wed Apr 08 2026 15:56:48 GMT-0400 (Eastern Daylight Time),774997.1999999993,005_o_f_h_a.png,I,m,882,10,1,1904.0,773093.1999999993,9062,VNB,B,8
6,test,3,1.0,2-Back,1.0,m,Wed Apr 08 2026 15:56:48 GMT-0400 (Eastern Daylight Time),776947.1999999993,011_m_f_n_a.png,I,m,928,11,1,1944.800000000745,775002.3999999985,9062,VNB,B,9
6,test,3,1.0,2-Back,0.0,z,Wed Apr 08 2026 15:56:48 GMT-0400 (Eastern Daylight Time),780047.3999999985,007_m_m_h_a.png,I,None,2011,12,1,3088.199999999255,776959.1999999993,9062,VNB,B,10
7,test,3,0.0,2-Back,1.0,m,Wed Apr 08 2026 15:56:48 GMT-0400 (Eastern Daylight Time),782197.0999999996,020_y_f_d_a.png,I,m,1124,13,1,2144.300000000745,780052.7999999989,9062,VNB,B,11
8,test,3,0.0,2-Back,1.0,m,Wed Apr 08 2026 15:56:48 GMT-0400 (Eastern Daylight Time),784513.8999999985,005_o_f_n_a.png,I,m,1294,14,1,2308.39999999851,782205.5,9062,VNB,B,12
8,test,3,0.0,2-Back,0.0,z,Wed Apr 08 2026 15:56:48 GMT-0400 (Eastern Daylight Time),786863.6999999993,004_o_m_d_a.png,I,m,1329,15,1,2342.4000000003725,784521.2999999989,9062,VNB,B,13
8,test,3,1.0,2-Back,0.0,m,Wed Apr 08 2026 15:56:48 GMT-0400 (Eastern Daylight Time),789897.0,011_m_f_h_a.png,I,None,2016,16,1,3024.0,786873.0,9062,VNB,B,14
9,test,3,0.0,2-Back,1.0,m,Wed Apr 08 2026 15:56:48 GMT-0400 (Eastern Daylight Time),791347.1999999993,007_m_m_n_a.png,I,m,427,17,1,1447.0999999996275,789900.0999999996,9062,VNB,B,15
9,test,3,0.0,2-Back,0.0,z,Wed Apr 08 2026 15:56:48 GMT-0400 (Eastern Daylight Time),792730.3999999985,016_y_m_h_a.png,I,m,352,18,1,1375.3999999985099,791355.0,9062,VNB,B,16
0,test,4,0.0,2-Back,,,Wed Apr 08 2026 15:56:48 GMT-0400 (Eastern Daylight Time),792730.3999999985,011_m_f_n_a.png,I,space,2026,1,1,1375.3999999985099,791355.0,9062,VNB,B,0
0,test,4,0.0,2-Back,,,Wed Apr 08 2026 15:56:48 GMT-0400 (Eastern Daylight Time),792730.3999999985,004_o_m_n_a.png,I,space,2026,2,1,1375.3999999985099,791355.0,9062,VNB,B,0
0,test,4,1.0,2-Back,0.0,m,Wed Apr 08 2026 15:56:48 GMT-0400 (Eastern Daylight Time),803264.0999999996,016_y_m_h_a.png,I,None,2016,3,1,3027.9000000003725,800236.1999999993,9062,VNB,B,1
1,test,4,1.0,2-Back,1.0,m,Wed Apr 08 2026 15:56:48 GMT-0400 (Eastern Daylight Time),805763.8999999985,005_o_f_d_a.png,I,m,1475,4,1,2485.7999999988824,803278.0999999996,9062,VNB,B,2
1,test,4,0.0,2-Back,0.0,z,Wed Apr 08 2026 15:56:48 GMT-0400 (Eastern Daylight Time),808797.3999999985,004_o_m_h_a.png,I,None,2016,5,1,3027.699999999255,805769.6999999993,9062,VNB,B,3
2,test,4,0.0,2-Back,1.0,m,Wed Apr 08 2026 15:56:48 GMT-0400 (Eastern Daylight Time),810830.5999999996,007_m_m_n_a.png,I,m,973,6,1,2019.800000000745,808810.7999999989,9062,VNB,B,4
3,test,4,0.0,2-Back,1.0,m,Wed Apr 08 2026 15:56:48 GMT-0400 (Eastern Daylight Time),812880.6999999993,011_m_f_d_a.png,I,m,1021,7,1,2043.9000000003725,810836.7999999989,9062,VNB,B,5
3,test,4,0.0,2-Back,0.0,z,Wed Apr 08 2026 15:56:48 GMT-0400 (Eastern Daylight Time),815913.5999999996,020_y_f_n_a.png,I,None,2015,8,1,3021.5999999996275,812892.0,9062,VNB,B,6
3,test,4,1.0,2-Back,0.0,m,Wed Apr 08 2026 15:56:48 GMT-0400 (Eastern Daylight Time),818947.3999999985,005_o_f_h_a.png,I,None,2017,9,1,3029.5,815917.8999999985,9062,VNB,B,7
4,test,4,0.0,2-Back,1.0,m,Wed Apr 08 2026 15:56:48 GMT-0400 (Eastern Daylight Time),820497.3999999985,007_m_m_h_a.png,I,m,528,10,1,1536.199999999255,818961.1999999993,9062,VNB,B,8
5,test,4,0.0,2-Back,1.0,m,Wed Apr 08 2026 15:56:48 GMT-0400 (Eastern Daylight Time),823113.6999999993,020_y_f_d_a.png,I,m,1587,11,1,2609.300000000745,820504.3999999985,9062,VNB,B,9
6,test,4,0.0,2-Back,1.0,m,Wed Apr 08 2026 15:56:48 GMT-0400 (Eastern Daylight Time),825364.0999999996,016_y_m_n_a.png,I,m,1227,12,1,2241.5999999996275,823122.5,9062,VNB,B,10
6,test,4,0.0,2-Back,0.0,z,Wed Apr 08 2026 15:56:48 GMT-0400 (Eastern Daylight Time),828414.0,004_o_m_d_a.png,I,None,2009,13,1,3042.2000000011176,825371.7999999989,9062,VNB,B,11
7,test,4,1.0,2-Back,1.0,m,Wed Apr 08 2026 15:56:48 GMT-0400 (Eastern Daylight Time),830180.7999999989,011_m_f_h_a.png,I,m,726,14,1,1748.0,828432.7999999989,9062,VNB,B,12
7,test,4,1.0,2-Back,0.0,m,Wed Apr 08 2026 15:56:48 GMT-0400 (Eastern Daylight Time),833214.0,020_y_f_h_a.png,I,None,2017,15,1,3027.5,830186.5,9062,VNB,B,13
8,test,4,0.0,2-Back,1.0,m,Wed Apr 08 2026 15:56:48 GMT-0400 (Eastern Daylight Time),835130.6999999993,005_o_f_n_a.png,I,m,886,16,1,1902.9000000003725,833227.7999999989,9062,VNB,B,14
9,test,4,0.0,2-Back,1.0,m,Wed Apr 08 2026 15:56:48 GMT-0400 (Eastern Daylight Time),837214.0999999996,016_y_m_d_a.png,I,m,1058,17,1,2072.300000000745,835141.7999999989,9062,VNB,B,15
10,test,4,1.0,2-Back,1.0,m,Wed Apr 08 2026 15:56:48 GMT-0400 (Eastern Daylight Time),839730.5999999996,007_m_m_d_a.png,I,m,1486,18,1,2503.0,837227.5999999996,9062,VNB,B,16
0,test,5,1.0,2-Back,,,Wed Apr 08 2026 15:56:48 GMT-0400 (Eastern Daylight Time),839730.5999999996,020_y_f_d_a.png,I,space,2331,1,1,2503.0,837227.5999999996,9062,VNB,B,0
0,test,5,1.0,2-Back,,,Wed Apr 08 2026 15:56:48 GMT-0400 (Eastern Daylight Time),839730.5999999996,005_o_f_h_a.png,I,space,2331,2,1,2503.0,837227.5999999996,9062,VNB,B,0
0,test,5,1.0,2-Back,0.0,z,Wed Apr 08 2026 15:56:48 GMT-0400 (Eastern Daylight Time),849764.1999999993,004_o_m_d_a.png,I,m,1302,3,1,2328.4000000003725,847435.7999999989,9062,VNB,B,1
1,test,5,1.0,2-Back,1.0,m,Wed Apr 08 2026 15:56:48 GMT-0400 (Eastern Daylight Time),852147.2999999989,011_m_f_n_a.png,I,m,1359,4,1,2368.199999999255,849779.0999999996,9062,VNB,B,2
2,test,5,0.0,2-Back,1.0,m,Wed Apr 08 2026 15:56:48 GMT-0400 (Eastern Daylight Time),854864.0,007_m_m_h_a.png,I,m,1688,5,1,2709.9000000003725,852154.0999999996,9062,VNB,B,3
3,test,5,0.0,2-Back,1.0,z,Wed Apr 08 2026 15:56:48 GMT-0400 (Eastern Daylight Time),857347.2999999989,020_y_f_n_a.png,I,z,1451,6,1,2471.9000000003725,854875.3999999985,9062,VNB,B,4
4,test,5,0.0,2-Back,1.0,m,Wed Apr 08 2026 15:56:48 GMT-0400 (Eastern Daylight Time),859647.2999999989,005_o_f_d_a.png,I,m,1272,7,1,2292.5,857354.7999999989,9062,VNB,B,5
5,test,5,0.0,2-Back,1.0,m,Wed Apr 08 2026 15:56:48 GMT-0400 (Eastern Daylight Time),861813.5,004_o_m_h_a.png,I,m,1139,8,1,2152.0,859661.5,9062,VNB,B,6
6,test,5,1.0,2-Back,1.0,z,Wed Apr 08 2026 15:56:48 GMT-0400 (Eastern Daylight Time),864563.6999999993,011_m_f_d_a.png,I,z,1726,9,1,2746.5,861817.1999999993,9062,VNB,B,7
7,test,5,0.0,2-Back,1.0,m,Wed Apr 08 2026 15:56:48 GMT-0400 (Eastern Daylight Time),866830.5,016_y_m_n_a.png,I,m,1248,10,1,2254.800000000745,864575.6999999993,9062,VNB,B,8
8,test,5,0.0,2-Back,1.0,m,Wed Apr 08 2026 15:56:48 GMT-0400 (Eastern Daylight Time),869230.5999999996,007_m_m_n_a.png,I,m,1373,11,1,2393.5,866837.0999999996,9062,VNB,B,9
9,test,5,0.0,2-Back,1.0,m,Wed Apr 08 2026 15:56:48 GMT-0400 (Eastern Daylight Time),871680.5,020_y_f_h_a.png,I,m,1428,12,1,2439.0,869241.5,9062,VNB,B,10
9,test,5,0.0,2-Back,0.0,m,Wed Apr 08 2026 15:56:48 GMT-0400 (Eastern Daylight Time),874147.2999999989,016_y_m_d_a.png,I,z,1437,13,1,2463.699999999255,871683.5999999996,9062,VNB,B,11
9,test,5,1.0,2-Back,0.0,z,Wed Apr 08 2026 15:56:48 GMT-0400 (Eastern Daylight Time),875930.6999999993,011_m_f_h_a.png,I,m,752,14,1,1769.800000000745,874160.8999999985,9062,VNB,B,12
9,test,5,0.0,2-Back,0.0,m,Wed Apr 08 2026 15:56:48 GMT-0400 (Eastern Daylight Time),878247.0999999996,004_o_m_n_a.png,I,z,1297,15,1,2310.0999999996275,875937.0,9062,VNB,B,13
10,test,5,0.0,2-Back,1.0,m,Wed Apr 08 2026 15:56:48 GMT-0400 (Eastern Daylight Time),880280.3999999985,007_m_m_d_a.png,I,m,1004,16,1,2025.0999999996275,878255.2999999989,9062,VNB,B,14
10,test,5,0.0,2-Back,0.0,z,Wed Apr 08 2026 15:56:48 GMT-0400 (Eastern Daylight Time),882247.3999999985,005_o_f_n_a.png,I,m,939,17,1,1960.5,880286.8999999985,9062,VNB,B,15
10,test,5,1.0,2-Back,0.0,m,Wed Apr 08 2026 15:56:48 GMT-0400 (Eastern Daylight Time),884280.7999999989,016_y_m_h_a.png,I,z,1005,18,1,2022.9000000003725,882257.8999999985,9062,VNB,B,16
