acc_sum,block,block_c,change,condition,correct,correct_response,datetime,endtime,face,project,response,response_time,row_sel,session_number,start_end,starttime,subject_id,task,task_vers,trial
0,prac,1,,1-Back,,,Fri Aug 29 2025 12:34:04 GMT-0500 (Central Daylight Time),,005_o_f_d_a.png,I,space,5031,1,3,,,8016,VNB,B,0
1,prac,1,0.0,1-Back,1.0,m,Fri Aug 29 2025 12:34:04 GMT-0500 (Central Daylight Time),104891.5,020_y_f_n_a.png,I,m,1247,2,3,2121.199999988079,102770.30000001192,8016,VNB,B,1
2,prac,1,0.0,1-Back,1.0,m,Fri Aug 29 2025 12:34:04 GMT-0500 (Central Daylight Time),106740.69999998808,007_m_m_h_a.png,I,m,947,3,3,1839.5999999642372,104901.10000002384,8016,VNB,B,2
3,prac,1,0.0,1-Back,1.0,m,Fri Aug 29 2025 12:34:04 GMT-0500 (Central Daylight Time),108657.0,016_y_m_d_a.png,I,m,1015,4,3,1907.6000000238419,106749.39999997616,8016,VNB,B,3
4,prac,1,0.0,1-Back,1.0,m,Fri Aug 29 2025 12:34:04 GMT-0500 (Central Daylight Time),110689.60000002384,005_o_f_n_a.png,I,m,1152,5,3,2024.9000000357628,108664.69999998808,8016,VNB,B,4
5,prac,1,1.0,1-Back,1.0,z,Fri Aug 29 2025 12:34:04 GMT-0500 (Central Daylight Time),112706.80000001192,016_y_m_n_a.png,I,z,1129,6,3,2008.5,110698.30000001192,8016,VNB,B,5
6,prac,1,0.0,1-Back,1.0,m,Fri Aug 29 2025 12:34:04 GMT-0500 (Central Daylight Time),114638.5,004_o_m_h_a.png,I,m,1062,7,3,1920.8999999761581,112717.60000002384,8016,VNB,B,6
7,prac,1,0.0,1-Back,1.0,m,Fri Aug 29 2025 12:34:04 GMT-0500 (Central Daylight Time),116704.30000001192,011_m_f_d_a.png,I,m,1183,8,3,2057.199999988079,114647.10000002384,8016,VNB,B,7
7,prac,1,1.0,1-Back,0.0,z,Fri Aug 29 2025 12:34:04 GMT-0500 (Central Daylight Time),118520.5,020_y_f_d_a.png,I,m,946,9,3,1807.699999988079,116712.80000001192,8016,VNB,B,8
8,prac,1,0.0,1-Back,1.0,m,Fri Aug 29 2025 12:34:04 GMT-0500 (Central Daylight Time),120553.19999998808,007_m_m_n_a.png,I,m,1146,10,3,2024.5999999642372,118528.60000002384,8016,VNB,B,9
9,prac,1,0.0,1-Back,1.0,m,Fri Aug 29 2025 12:34:04 GMT-0500 (Central Daylight Time),122519.19999998808,005_o_f_h_a.png,I,m,1077,11,3,1956.199999988079,120563.0,8016,VNB,B,10
10,prac,1,0.0,1-Back,1.0,m,Fri Aug 29 2025 12:34:04 GMT-0500 (Central Daylight Time),124435.39999997616,016_y_m_d_a.png,I,m,1013,12,3,1906.699999988079,122528.69999998808,8016,VNB,B,11
0,test,1,0.0,1-Back,,,Fri Aug 29 2025 12:34:04 GMT-0500 (Central Daylight Time),124435.39999997616,020_y_f_d_a.png,I,space,7804,1,3,1906.699999988079,122528.69999998808,8016,VNB,B,0
1,test,1,0.0,1-Back,1.0,m,Fri Aug 29 2025 12:34:04 GMT-0500 (Central Daylight Time),140580.10000002384,011_m_f_n_a.png,I,m,1085,2,3,2109.7000000476837,138470.39999997616,8016,VNB,B,1
2,test,1,0.0,1-Back,1.0,m,Fri Aug 29 2025 12:34:04 GMT-0500 (Central Daylight Time),142662.80000001192,004_o_m_h_a.png,I,m,1065,3,3,2077.0,140585.80000001192,8016,VNB,B,2
3,test,1,1.0,1-Back,1.0,z,Fri Aug 29 2025 12:34:04 GMT-0500 (Central Daylight Time),144812.19999998808,007_m_m_h_a.png,I,z,1127,4,3,2143.899999976158,142668.30000001192,8016,VNB,B,3
4,test,1,0.0,1-Back,1.0,m,Fri Aug 29 2025 12:34:04 GMT-0500 (Central Daylight Time),146928.10000002384,005_o_f_n_a.png,I,m,1097,5,3,2109.900000035763,144818.19999998808,8016,VNB,B,4
5,test,1,0.0,1-Back,1.0,m,Fri Aug 29 2025 12:34:04 GMT-0500 (Central Daylight Time),149060.80000001192,016_y_m_d_a.png,I,m,1109,6,3,2126.400000035763,146934.39999997616,8016,VNB,B,5
6,test,1,1.0,1-Back,1.0,z,Fri Aug 29 2025 12:34:04 GMT-0500 (Central Daylight Time),151993.19999998808,011_m_f_d_a.png,I,z,1912,7,3,2926.899999976158,149066.30000001192,8016,VNB,B,6
7,test,1,0.0,1-Back,1.0,m,Fri Aug 29 2025 12:34:04 GMT-0500 (Central Daylight Time),154292.5,020_y_f_h_a.png,I,m,1268,8,3,2294.199999988079,151998.30000001192,8016,VNB,B,7
8,test,1,0.0,1-Back,1.0,m,Fri Aug 29 2025 12:34:04 GMT-0500 (Central Daylight Time),156242.0,004_o_m_n_a.png,I,m,929,9,3,1943.6000000238419,154298.39999997616,8016,VNB,B,8
8,test,1,0.0,1-Back,0.0,m,Fri Aug 29 2025 12:34:04 GMT-0500 (Central Daylight Time),159274.30000001192,016_y_m_h_a.png,I,None,2015,10,3,3026.300000011921,156248.0,8016,VNB,B,9
8,test,1,0.0,1-Back,0.0,m,Fri Aug 29 2025 12:34:04 GMT-0500 (Central Daylight Time),161840.10000002384,004_o_m_d_a.png,I,z,1539,11,3,2559.900000035763,159280.19999998808,8016,VNB,B,10
9,test,1,1.0,1-Back,1.0,z,Fri Aug 29 2025 12:34:04 GMT-0500 (Central Daylight Time),163856.60000002384,005_o_f_d_a.png,I,z,997,12,3,2010.6000000238419,161846.0,8016,VNB,B,11
10,test,1,0.0,1-Back,1.0,m,Fri Aug 29 2025 12:34:04 GMT-0500 (Central Daylight Time),166022.10000002384,007_m_m_n_a.png,I,m,1133,13,3,2159.100000023842,163863.0,8016,VNB,B,12
11,test,1,1.0,1-Back,1.0,z,Fri Aug 29 2025 12:34:04 GMT-0500 (Central Daylight Time),168071.5,020_y_f_n_a.png,I,z,1031,14,3,2044.300000011921,166027.19999998808,8016,VNB,B,13
12,test,1,0.0,1-Back,1.0,m,Fri Aug 29 2025 12:34:04 GMT-0500 (Central Daylight Time),170104.30000001192,011_m_f_h_a.png,I,m,1006,15,3,2026.699999988079,168077.60000002384,8016,VNB,B,14
12,test,1,0.0,1-Back,0.0,m,Fri Aug 29 2025 12:34:04 GMT-0500 (Central Daylight Time),172170.19999998808,007_m_m_d_a.png,I,z,1037,16,3,2060.199999988079,170110.0,8016,VNB,B,15
12,test,1,0.0,1-Back,0.0,m,Fri Aug 29 2025 12:34:04 GMT-0500 (Central Daylight Time),174203.0,016_y_m_n_a.png,I,z,1011,17,3,2027.0,172176.0,8016,VNB,B,16
13,test,1,0.0,1-Back,1.0,m,Fri Aug 29 2025 12:34:04 GMT-0500 (Central Daylight Time),176752.10000002384,005_o_f_h_a.png,I,m,1522,18,3,2543.5,174208.60000002384,8016,VNB,B,17
0,test,2,0.0,1-Back,,,Fri Aug 29 2025 12:34:04 GMT-0500 (Central Daylight Time),176752.10000002384,016_y_m_n_a.png,I,space,1525,1,3,2543.5,174208.60000002384,8016,VNB,B,0
1,test,2,0.0,1-Back,1.0,m,Fri Aug 29 2025 12:34:04 GMT-0500 (Central Daylight Time),182217.0,020_y_f_h_a.png,I,m,888,2,3,1910.0,180307.0,8016,VNB,B,1
1,test,2,1.0,1-Back,0.0,m,Fri Aug 29 2025 12:34:04 GMT-0500 (Central Daylight Time),184366.39999997616,004_o_m_n_a.png,I,z,1116,3,3,2143.599999964237,182222.80000001192,8016,VNB,B,2
2,test,2,0.0,1-Back,1.0,m,Fri Aug 29 2025 12:34:04 GMT-0500 (Central Daylight Time),186532.30000001192,011_m_f_d_a.png,I,m,1143,4,3,2159.5,184372.80000001192,8016,VNB,B,3
3,test,2,0.0,1-Back,1.0,z,Fri Aug 29 2025 12:34:04 GMT-0500 (Central Daylight Time),188715.10000002384,007_m_m_d_a.png,I,z,1161,5,3,2177.100000023842,186538.0,8016,VNB,B,4
4,test,2,0.0,1-Back,1.0,m,Fri Aug 29 2025 12:34:04 GMT-0500 (Central Daylight Time),191064.30000001192,016_y_m_h_a.png,I,m,1322,6,3,2342.199999988079,188722.10000002384,8016,VNB,B,5
5,test,2,1.0,1-Back,1.0,z,Fri Aug 29 2025 12:34:04 GMT-0500 (Central Daylight Time),193047.0,005_o_f_h_a.png,I,z,965,7,3,1977.0,191070.0,8016,VNB,B,6
6,test,2,0.0,1-Back,1.0,m,Fri Aug 29 2025 12:34:04 GMT-0500 (Central Daylight Time),195196.30000001192,011_m_f_n_a.png,I,m,1126,8,3,2144.0,193052.30000001192,8016,VNB,B,7
7,test,2,0.0,1-Back,1.0,m,Fri Aug 29 2025 12:34:04 GMT-0500 (Central Daylight Time),197312.30000001192,020_y_f_d_a.png,I,m,1089,9,3,2109.800000011921,195202.5,8016,VNB,B,8
8,test,2,0.0,1-Back,1.0,m,Fri Aug 29 2025 12:34:04 GMT-0500 (Central Daylight Time),199994.80000001192,007_m_m_n_a.png,I,m,1661,10,3,2676.199999988079,197318.60000002384,8016,VNB,B,9
9,test,2,1.0,1-Back,1.0,m,Fri Aug 29 2025 12:34:04 GMT-0500 (Central Daylight Time),202244.30000001192,011_m_f_h_a.png,I,m,1218,11,3,2243.100000023842,200001.19999998808,8016,VNB,B,10
10,test,2,0.0,1-Back,1.0,z,Fri Aug 29 2025 12:34:04 GMT-0500 (Central Daylight Time),204210.19999998808,004_o_m_h_a.png,I,z,937,12,3,1959.5999999642372,202250.60000002384,8016,VNB,B,11
11,test,2,0.0,1-Back,1.0,m,Fri Aug 29 2025 12:34:04 GMT-0500 (Central Daylight Time),206326.19999998808,016_y_m_d_a.png,I,m,1091,13,3,2110.300000011921,204215.89999997616,8016,VNB,B,12
12,test,2,0.0,1-Back,1.0,m,Fri Aug 29 2025 12:34:04 GMT-0500 (Central Daylight Time),208475.5,005_o_f_n_a.png,I,m,1119,14,3,2144.199999988079,206331.30000001192,8016,VNB,B,13
12,test,2,0.0,1-Back,0.0,z,Fri Aug 29 2025 12:34:04 GMT-0500 (Central Daylight Time),210458.19999998808,020_y_f_n_a.png,I,m,962,15,3,1977.199999988079,208481.0,8016,VNB,B,14
13,test,2,1.0,1-Back,1.0,m,Fri Aug 29 2025 12:34:04 GMT-0500 (Central Daylight Time),213390.69999998808,007_m_m_h_a.png,I,m,1899,16,3,2926.300000011921,210464.39999997616,8016,VNB,B,15
14,test,2,0.0,1-Back,1.0,m,Fri Aug 29 2025 12:34:04 GMT-0500 (Central Daylight Time),215339.89999997616,005_o_f_d_a.png,I,m,919,17,3,1944.0999999642372,213395.80000001192,8016,VNB,B,16
15,test,2,1.0,1-Back,1.0,z,Fri Aug 29 2025 12:34:04 GMT-0500 (Central Daylight Time),218072.5,004_o_m_d_a.png,I,z,1713,18,3,2727.699999988079,215344.80000001192,8016,VNB,B,17
0,test,3,1.0,1-Back,,,Fri Aug 29 2025 12:34:04 GMT-0500 (Central Daylight Time),218072.5,005_o_f_h_a.png,I,space,1421,1,3,2727.699999988079,215344.80000001192,8016,VNB,B,0
1,test,3,0.0,1-Back,1.0,m,Fri Aug 29 2025 12:34:04 GMT-0500 (Central Daylight Time),223737.39999997616,011_m_f_d_a.png,I,m,1096,2,3,2109.099999964237,221628.30000001192,8016,VNB,B,1
2,test,3,1.0,1-Back,1.0,m,Fri Aug 29 2025 12:34:04 GMT-0500 (Central Daylight Time),226036.69999998808,007_m_m_n_a.png,I,m,1280,3,3,2293.5,223743.19999998808,8016,VNB,B,2
3,test,3,0.0,1-Back,1.0,z,Fri Aug 29 2025 12:34:04 GMT-0500 (Central Daylight Time),228252.60000002384,005_o_f_n_a.png,I,z,1193,4,3,2210.400000035763,226042.19999998808,8016,VNB,B,3
4,test,3,1.0,1-Back,1.0,m,Fri Aug 29 2025 12:34:04 GMT-0500 (Central Daylight Time),230168.69999998808,004_o_m_d_a.png,I,m,897,5,3,1910.5,228258.19999998808,8016,VNB,B,4
5,test,3,0.0,1-Back,1.0,m,Fri Aug 29 2025 12:34:04 GMT-0500 (Central Daylight Time),232118.10000002384,020_y_f_h_a.png,I,m,925,6,3,1943.9000000357628,230174.19999998808,8016,VNB,B,5
6,test,3,0.0,1-Back,1.0,z,Fri Aug 29 2025 12:34:04 GMT-0500 (Central Daylight Time),234117.39999997616,016_y_m_h_a.png,I,z,975,7,3,1994.0,232123.39999997616,8016,VNB,B,6
7,test,3,0.0,1-Back,1.0,m,Fri Aug 29 2025 12:34:04 GMT-0500 (Central Daylight Time),236200.19999998808,011_m_f_n_a.png,I,m,1056,8,3,2077.599999964237,234122.60000002384,8016,VNB,B,7
8,test,3,0.0,1-Back,1.0,m,Fri Aug 29 2025 12:34:04 GMT-0500 (Central Daylight Time),238332.80000001192,020_y_f_d_a.png,I,m,1101,9,3,2127.300000011921,236205.5,8016,VNB,B,8
9,test,3,1.0,1-Back,1.0,m,Fri Aug 29 2025 12:34:04 GMT-0500 (Central Daylight Time),240615.39999997616,004_o_m_n_a.png,I,m,1256,10,3,2277.399999976158,238338.0,8016,VNB,B,9
10,test,3,0.0,1-Back,1.0,m,Fri Aug 29 2025 12:34:04 GMT-0500 (Central Daylight Time),243031.30000001192,007_m_m_h_a.png,I,m,1390,11,3,2410.0,240621.30000001192,8016,VNB,B,10
11,test,3,0.0,1-Back,1.0,z,Fri Aug 29 2025 12:34:04 GMT-0500 (Central Daylight Time),245114.0,011_m_f_h_a.png,I,z,1062,12,3,2077.399999976158,243036.60000002384,8016,VNB,B,11
12,test,3,1.0,1-Back,1.0,m,Fri Aug 29 2025 12:34:04 GMT-0500 (Central Daylight Time),247030.0,005_o_f_d_a.png,I,m,891,13,3,1910.5,245119.5,8016,VNB,B,12
13,test,3,0.0,1-Back,1.0,z,Fri Aug 29 2025 12:34:04 GMT-0500 (Central Daylight Time),249179.30000001192,007_m_m_d_a.png,I,z,1119,14,3,2144.199999988079,247035.10000002384,8016,VNB,B,13
14,test,3,0.0,1-Back,1.0,m,Fri Aug 29 2025 12:34:04 GMT-0500 (Central Daylight Time),251095.39999997616,016_y_m_n_a.png,I,m,890,15,3,1910.699999988079,249184.69999998808,8016,VNB,B,14
15,test,3,1.0,1-Back,1.0,m,Fri Aug 29 2025 12:34:04 GMT-0500 (Central Daylight Time),252978.30000001192,004_o_m_h_a.png,I,m,856,16,3,1876.699999988079,251101.60000002384,8016,VNB,B,15
16,test,3,0.0,1-Back,1.0,m,Fri Aug 29 2025 12:34:04 GMT-0500 (Central Daylight Time),255227.60000002384,016_y_m_d_a.png,I,m,1219,17,3,2243.300000011921,252984.30000001192,8016,VNB,B,16
17,test,3,1.0,1-Back,1.0,m,Fri Aug 29 2025 12:34:04 GMT-0500 (Central Daylight Time),257610.10000002384,020_y_f_n_a.png,I,m,1362,18,3,2377.7000000476837,255232.39999997616,8016,VNB,B,17
0,test,4,1.0,1-Back,,,Fri Aug 29 2025 12:34:04 GMT-0500 (Central Daylight Time),257610.10000002384,007_m_m_d_a.png,I,space,1435,1,3,2377.7000000476837,255232.39999997616,8016,VNB,B,0
1,test,4,0.0,1-Back,1.0,z,Fri Aug 29 2025 12:34:04 GMT-0500 (Central Daylight Time),263141.6999999881,004_o_m_d_a.png,I,z,1034,2,3,2059.5,261082.19999998808,8016,VNB,B,1
2,test,4,0.0,1-Back,1.0,m,Fri Aug 29 2025 12:34:04 GMT-0500 (Central Daylight Time),264924.5,016_y_m_h_a.png,I,m,751,3,3,1777.5,263147.0,8016,VNB,B,2
2,test,4,0.0,1-Back,0.0,m,Fri Aug 29 2025 12:34:04 GMT-0500 (Central Daylight Time),266957.1999999881,011_m_f_n_a.png,I,z,1001,4,3,2027.199999988079,264930.0,8016,VNB,B,3
3,test,4,1.0,1-Back,1.0,m,Fri Aug 29 2025 12:34:04 GMT-0500 (Central Daylight Time),268956.39999997616,005_o_f_h_a.png,I,m,976,5,3,1993.699999988079,266962.6999999881,8016,VNB,B,4
4,test,4,0.0,1-Back,1.0,m,Fri Aug 29 2025 12:34:04 GMT-0500 (Central Daylight Time),270939.1999999881,007_m_m_n_a.png,I,m,961,6,3,1977.0999999642372,268962.10000002384,8016,VNB,B,5
5,test,4,0.0,1-Back,1.0,m,Fri Aug 29 2025 12:34:04 GMT-0500 (Central Daylight Time),273038.5,016_y_m_d_a.png,I,m,1066,7,3,2093.699999988079,270944.8000000119,8016,VNB,B,6
6,test,4,1.0,1-Back,1.0,z,Fri Aug 29 2025 12:34:04 GMT-0500 (Central Daylight Time),275004.6999999881,020_y_f_d_a.png,I,z,935,8,3,1961.0999999642372,273043.60000002384,8016,VNB,B,7
7,test,4,0.0,1-Back,1.0,m,Fri Aug 29 2025 12:34:04 GMT-0500 (Central Daylight Time),277737.10000002384,011_m_f_h_a.png,I,m,1713,9,3,2726.600000023842,275010.5,8016,VNB,B,8
8,test,4,0.0,1-Back,1.0,z,Fri Aug 29 2025 12:34:04 GMT-0500 (Central Daylight Time),279669.8000000119,004_o_m_h_a.png,I,z,908,10,3,1926.699999988079,277743.10000002384,8016,VNB,B,9
9,test,4,1.0,1-Back,1.0,m,Fri Aug 29 2025 12:34:04 GMT-0500 (Central Daylight Time),281552.5,005_o_f_n_a.png,I,m,863,11,3,1875.8999999761581,279676.60000002384,8016,VNB,B,10
9,test,4,0.0,1-Back,0.0,m,Fri Aug 29 2025 12:34:04 GMT-0500 (Central Daylight Time),284135.10000002384,011_m_f_d_a.png,I,z,1557,12,3,2577.0,281558.10000002384,8016,VNB,B,11
10,test,4,0.0,1-Back,1.0,m,Fri Aug 29 2025 12:34:04 GMT-0500 (Central Daylight Time),286067.89999997616,020_y_f_n_a.png,I,m,902,13,3,1927.3999999761581,284140.5,8016,VNB,B,12
11,test,4,0.0,1-Back,1.0,m,Fri Aug 29 2025 12:34:04 GMT-0500 (Central Daylight Time),288033.8000000119,005_o_f_d_a.png,I,m,945,14,3,1960.1000000238419,286073.6999999881,8016,VNB,B,13
12,test,4,0.0,1-Back,1.0,m,Fri Aug 29 2025 12:34:04 GMT-0500 (Central Daylight Time),290033.1999999881,020_y_f_h_a.png,I,m,971,15,3,1993.3999999761581,288039.8000000119,8016,VNB,B,14
13,test,4,1.0,1-Back,1.0,z,Fri Aug 29 2025 12:34:04 GMT-0500 (Central Daylight Time),291799.3000000119,007_m_m_h_a.png,I,z,748,16,3,1760.9000000357628,290038.39999997616,8016,VNB,B,15
14,test,4,0.0,1-Back,1.0,m,Fri Aug 29 2025 12:34:04 GMT-0500 (Central Daylight Time),293682.0,004_o_m_n_a.png,I,m,854,17,3,1877.1000000238419,291804.89999997616,8016,VNB,B,16
15,test,4,1.0,1-Back,1.0,z,Fri Aug 29 2025 12:34:04 GMT-0500 (Central Daylight Time),295631.5,016_y_m_n_a.png,I,z,931,18,3,1943.8999999761581,293687.60000002384,8016,VNB,B,17
0,test,5,1.0,1-Back,,,Fri Aug 29 2025 12:34:04 GMT-0500 (Central Daylight Time),295631.5,004_o_m_n_a.png,I,space,1502,1,3,1943.8999999761581,293687.60000002384,8016,VNB,B,0
1,test,5,1.0,1-Back,1.0,m,Fri Aug 29 2025 12:34:04 GMT-0500 (Central Daylight Time),301096.5,005_o_f_h_a.png,I,m,906,2,3,1926.300000011921,299170.1999999881,8016,VNB,B,1
2,test,5,0.0,1-Back,1.0,m,Fri Aug 29 2025 12:34:04 GMT-0500 (Central Daylight Time),303245.89999997616,016_y_m_d_a.png,I,m,1117,3,3,2144.2999999523163,301101.60000002384,8016,VNB,B,2
3,test,5,0.0,1-Back,1.0,z,Fri Aug 29 2025 12:34:04 GMT-0500 (Central Daylight Time),305161.8000000119,004_o_m_d_a.png,I,z,888,4,3,1909.5,303252.3000000119,8016,VNB,B,3
4,test,5,0.0,1-Back,1.0,m,Fri Aug 29 2025 12:34:04 GMT-0500 (Central Daylight Time),307027.8000000119,011_m_f_h_a.png,I,m,843,5,3,1859.9000000357628,305167.89999997616,8016,VNB,B,4
5,test,5,0.0,1-Back,1.0,m,Fri Aug 29 2025 12:34:04 GMT-0500 (Central Daylight Time),309144.0,020_y_f_n_a.png,I,m,1089,6,3,2111.300000011921,307032.6999999881,8016,VNB,B,5
6,test,5,1.0,1-Back,1.0,z,Fri Aug 29 2025 12:34:04 GMT-0500 (Central Daylight Time),311093.8000000119,005_o_f_n_a.png,I,z,917,7,3,1944.0,309149.8000000119,8016,VNB,B,6
7,test,5,0.0,1-Back,1.0,m,Fri Aug 29 2025 12:34:04 GMT-0500 (Central Daylight Time),313226.0,011_m_f_d_a.png,I,m,1103,8,3,2126.199999988079,311099.8000000119,8016,VNB,B,7
8,test,5,0.0,1-Back,1.0,m,Fri Aug 29 2025 12:34:04 GMT-0500 (Central Daylight Time),315075.5,016_y_m_h_a.png,I,m,819,9,3,1843.8999999761581,313231.60000002384,8016,VNB,B,8
9,test,5,0.0,1-Back,1.0,m,Fri Aug 29 2025 12:34:04 GMT-0500 (Central Daylight Time),316941.5,020_y_f_d_a.png,I,m,842,10,3,1860.300000011921,315081.1999999881,8016,VNB,B,9
10,test,5,0.0,1-Back,1.0,m,Fri Aug 29 2025 12:34:04 GMT-0500 (Central Daylight Time),318990.6999999881,007_m_m_n_a.png,I,m,1024,11,3,2043.300000011921,316947.39999997616,8016,VNB,B,10
11,test,5,1.0,1-Back,1.0,z,Fri Aug 29 2025 12:34:04 GMT-0500 (Central Daylight Time),320857.0,011_m_f_n_a.png,I,z,838,12,3,1860.699999988079,318996.3000000119,8016,VNB,B,11
12,test,5,0.0,1-Back,1.0,m,Fri Aug 29 2025 12:34:04 GMT-0500 (Central Daylight Time),322656.39999997616,004_o_m_h_a.png,I,m,780,13,3,1793.8999999761581,320862.5,8016,VNB,B,12
13,test,5,0.0,1-Back,1.0,z,Fri Aug 29 2025 12:34:04 GMT-0500 (Central Daylight Time),324522.5,007_m_m_h_a.png,I,z,843,14,3,1860.800000011921,322661.6999999881,8016,VNB,B,13
14,test,5,1.0,1-Back,1.0,m,Fri Aug 29 2025 12:34:04 GMT-0500 (Central Daylight Time),326305.1999999881,005_o_f_d_a.png,I,m,755,15,3,1777.3999999761581,324527.8000000119,8016,VNB,B,14
15,test,5,0.0,1-Back,1.0,m,Fri Aug 29 2025 12:34:04 GMT-0500 (Central Daylight Time),328188.0,016_y_m_n_a.png,I,m,852,16,3,1876.1000000238419,326311.89999997616,8016,VNB,B,15
16,test,5,0.0,1-Back,1.0,m,Fri Aug 29 2025 12:34:04 GMT-0500 (Central Daylight Time),329987.39999997616,020_y_f_h_a.png,I,m,769,17,3,1794.199999988079,328193.1999999881,8016,VNB,B,16
17,test,5,0.0,1-Back,1.0,m,Fri Aug 29 2025 12:34:04 GMT-0500 (Central Daylight Time),332020.10000002384,007_m_m_d_a.png,I,m,1010,18,3,2027.6000000238419,329992.5,8016,VNB,B,17
0,prac,1,0.0,2-Back,,,Fri Aug 29 2025 12:34:04 GMT-0500 (Central Daylight Time),332020.10000002384,011_m_f_n_a.png,I,space,4208,1,3,2027.6000000238419,329992.5,8016,VNB,B,0
0,prac,1,0.0,2-Back,,,Fri Aug 29 2025 12:34:04 GMT-0500 (Central Daylight Time),332020.10000002384,005_o_f_h_a.png,I,space,4208,2,3,2027.6000000238419,329992.5,8016,VNB,B,0
1,prac,1,0.0,2-Back,1.0,m,Fri Aug 29 2025 12:34:04 GMT-0500 (Central Daylight Time),416993.60000002384,004_o_m_d_a.png,I,m,1648,3,3,2507.100000023842,414486.5,8016,VNB,B,1
2,prac,1,1.0,2-Back,1.0,z,Fri Aug 29 2025 12:34:04 GMT-0500 (Central Daylight Time),418776.3000000119,007_m_m_h_a.png,I,z,897,4,3,1775.1000000238419,417001.1999999881,8016,VNB,B,2
3,prac,1,0.0,2-Back,1.0,m,Fri Aug 29 2025 12:34:04 GMT-0500 (Central Daylight Time),421042.3000000119,020_y_f_n_a.png,I,m,1389,5,3,2257.5,418784.8000000119,8016,VNB,B,3
4,prac,1,1.0,2-Back,1.0,z,Fri Aug 29 2025 12:34:04 GMT-0500 (Central Daylight Time),423358.1999999881,004_o_m_h_a.png,I,z,1531,6,3,2307.899999976158,421050.3000000119,8016,VNB,B,4
4,prac,1,1.0,2-Back,0.0,z,Fri Aug 29 2025 12:34:04 GMT-0500 (Central Daylight Time),425790.6999999881,016_y_m_n_a.png,I,m,1549,7,3,2424.199999988079,423366.5,8016,VNB,B,5
4,prac,1,0.0,2-Back,0.0,m,Fri Aug 29 2025 12:34:04 GMT-0500 (Central Daylight Time),428673.10000002384,011_m_f_d_a.png,I,None,2003,8,3,2873.2000000476837,425799.89999997616,8016,VNB,B,6
5,prac,1,0.0,2-Back,1.0,m,Fri Aug 29 2025 12:34:04 GMT-0500 (Central Daylight Time),430572.6999999881,005_o_f_d_a.png,I,m,1007,9,3,1891.3999999761581,428681.3000000119,8016,VNB,B,7
6,prac,1,0.0,2-Back,1.0,m,Fri Aug 29 2025 12:34:04 GMT-0500 (Central Daylight Time),432755.1999999881,007_m_m_h_a.png,I,m,1400,10,3,2173.800000011921,430581.39999997616,8016,VNB,B,8
6,prac,1,1.0,2-Back,0.0,z,Fri Aug 29 2025 12:34:04 GMT-0500 (Central Daylight Time),434438.0,020_y_f_d_a.png,I,m,814,11,3,1675.5,432762.5,8016,VNB,B,9
7,prac,1,0.0,2-Back,1.0,m,Fri Aug 29 2025 12:34:04 GMT-0500 (Central Daylight Time),436404.0,004_o_m_n_a.png,I,m,1094,12,3,1958.1000000238419,434445.89999997616,8016,VNB,B,10
0,test,1,0.0,2-Back,,,Fri Aug 29 2025 12:34:04 GMT-0500 (Central Daylight Time),436404.0,016_y_m_h_a.png,I,space,4814,1,3,1958.1000000238419,434445.89999997616,8016,VNB,B,0
0,test,1,0.0,2-Back,,,Fri Aug 29 2025 12:34:04 GMT-0500 (Central Daylight Time),436404.0,005_o_f_n_a.png,I,space,4814,2,3,1958.1000000238419,434445.89999997616,8016,VNB,B,0
1,test,1,0.0,2-Back,1.0,z,Fri Aug 29 2025 12:34:04 GMT-0500 (Central Daylight Time),453448.60000002384,004_o_m_h_a.png,I,z,1230,3,3,2242.5,451206.10000002384,8016,VNB,B,1
2,test,1,0.0,2-Back,1.0,m,Fri Aug 29 2025 12:34:04 GMT-0500 (Central Daylight Time),455464.8000000119,011_m_f_d_a.png,I,m,989,4,3,2010.699999988079,453454.10000002384,8016,VNB,B,2
2,test,1,1.0,2-Back,0.0,m,Fri Aug 29 2025 12:34:04 GMT-0500 (Central Daylight Time),457747.3000000119,016_y_m_n_a.png,I,z,1262,5,3,2277.0,455470.3000000119,8016,VNB,B,3
3,test,1,0.0,2-Back,1.0,z,Fri Aug 29 2025 12:34:04 GMT-0500 (Central Daylight Time),460196.60000002384,020_y_f_d_a.png,I,z,1426,6,3,2443.5,457753.10000002384,8016,VNB,B,4
4,test,1,0.0,2-Back,1.0,m,Fri Aug 29 2025 12:34:04 GMT-0500 (Central Daylight Time),462745.8000000119,007_m_m_h_a.png,I,m,1521,7,3,2543.300000011921,460202.5,8016,VNB,B,5
5,test,1,1.0,2-Back,1.0,m,Fri Aug 29 2025 12:34:04 GMT-0500 (Central Daylight Time),465361.60000002384,020_y_f_n_a.png,I,m,1596,8,3,2610.300000011921,462751.3000000119,8016,VNB,B,6
6,test,1,0.0,2-Back,1.0,z,Fri Aug 29 2025 12:34:04 GMT-0500 (Central Daylight Time),467227.60000002384,005_o_f_h_a.png,I,z,844,9,3,1860.0,465367.60000002384,8016,VNB,B,7
7,test,1,0.0,2-Back,1.0,m,Fri Aug 29 2025 12:34:04 GMT-0500 (Central Daylight Time),469776.89999997616,004_o_m_d_a.png,I,m,1530,10,3,2543.399999976158,467233.5,8016,VNB,B,8
7,test,1,1.0,2-Back,0.0,m,Fri Aug 29 2025 12:34:04 GMT-0500 (Central Daylight Time),471992.89999997616,007_m_m_d_a.png,I,z,1188,11,3,2210.0,469782.89999997616,8016,VNB,B,9
7,test,1,0.0,2-Back,0.0,m,Fri Aug 29 2025 12:34:04 GMT-0500 (Central Daylight Time),475025.39999997616,011_m_f_n_a.png,I,None,2015,12,3,3026.599999964237,471998.8000000119,8016,VNB,B,10
8,test,1,0.0,2-Back,1.0,m,Fri Aug 29 2025 12:34:04 GMT-0500 (Central Daylight Time),477341.3000000119,020_y_f_h_a.png,I,m,1284,13,3,2311.199999988079,475030.10000002384,8016,VNB,B,11
9,test,1,0.0,2-Back,1.0,z,Fri Aug 29 2025 12:34:04 GMT-0500 (Central Daylight Time),479673.8000000119,007_m_m_n_a.png,I,z,1304,14,3,2327.0,477346.8000000119,8016,VNB,B,12
10,test,1,0.0,2-Back,1.0,m,Fri Aug 29 2025 12:34:04 GMT-0500 (Central Daylight Time),481723.10000002384,016_y_m_d_a.png,I,m,1028,15,3,2043.300000011921,479679.8000000119,8016,VNB,B,13
11,test,1,1.0,2-Back,1.0,m,Fri Aug 29 2025 12:34:04 GMT-0500 (Central Daylight Time),483872.5,011_m_f_h_a.png,I,m,1122,16,3,2143.699999988079,481728.8000000119,8016,VNB,B,14
12,test,1,0.0,2-Back,1.0,z,Fri Aug 29 2025 12:34:04 GMT-0500 (Central Daylight Time),485771.89999997616,005_o_f_d_a.png,I,z,877,17,3,1893.5999999642372,483878.3000000119,8016,VNB,B,15
12,test,1,0.0,2-Back,0.0,m,Fri Aug 29 2025 12:34:04 GMT-0500 (Central Daylight Time),488793.3000000119,004_o_m_n_a.png,I,None,2004,18,3,3016.600000023842,485776.6999999881,8016,VNB,B,16
0,test,2,0.0,2-Back,,,Fri Aug 29 2025 12:34:04 GMT-0500 (Central Daylight Time),488793.3000000119,007_m_m_h_a.png,I,space,1628,1,3,3016.600000023842,485776.6999999881,8016,VNB,B,0
0,test,2,0.0,2-Back,,,Fri Aug 29 2025 12:34:04 GMT-0500 (Central Daylight Time),488793.3000000119,020_y_f_n_a.png,I,space,1628,2,3,3016.600000023842,485776.6999999881,8016,VNB,B,0
1,test,2,1.0,2-Back,1.0,z,Fri Aug 29 2025 12:34:04 GMT-0500 (Central Daylight Time),497634.8000000119,005_o_f_h_a.png,I,z,944,3,3,1960.0,495674.8000000119,8016,VNB,B,1
2,test,2,0.0,2-Back,1.0,m,Fri Aug 29 2025 12:34:04 GMT-0500 (Central Daylight Time),499567.5,004_o_m_d_a.png,I,m,906,4,3,1927.8999999761581,497639.60000002384,8016,VNB,B,2
2,test,2,0.0,2-Back,0.0,m,Fri Aug 29 2025 12:34:04 GMT-0500 (Central Daylight Time),502600.0,011_m_f_d_a.png,I,None,2016,5,3,3027.699999988079,499572.3000000119,8016,VNB,B,3
3,test,2,0.0,2-Back,1.0,m,Fri Aug 29 2025 12:34:04 GMT-0500 (Central Daylight Time),504982.5,016_y_m_h_a.png,I,m,1350,6,3,2376.600000023842,502605.89999997616,8016,VNB,B,4
4,test,2,0.0,2-Back,1.0,m,Fri Aug 29 2025 12:34:04 GMT-0500 (Central Daylight Time),507315.0,005_o_f_n_a.png,I,m,1311,7,3,2327.199999988079,504987.8000000119,8016,VNB,B,5
5,test,2,1.0,2-Back,1.0,z,Fri Aug 29 2025 12:34:04 GMT-0500 (Central Daylight Time),509614.39999997616,004_o_m_h_a.png,I,z,1267,8,3,2293.599999964237,507320.8000000119,8016,VNB,B,6
6,test,2,0.0,2-Back,1.0,m,Fri Aug 29 2025 12:34:04 GMT-0500 (Central Daylight Time),512200.39999997616,020_y_f_d_a.png,I,m,1569,9,3,2581.0,509619.39999997616,8016,VNB,B,7
6,test,2,0.0,2-Back,0.0,m,Fri Aug 29 2025 12:34:04 GMT-0500 (Central Daylight Time),514662.6999999881,016_y_m_d_a.png,I,z,1433,10,3,2457.0,512205.6999999881,8016,VNB,B,8
7,test,2,0.0,2-Back,1.0,m,Fri Aug 29 2025 12:34:04 GMT-0500 (Central Daylight Time),517562.0,007_m_m_n_a.png,I,m,1871,11,3,2894.100000023842,514667.89999997616,8016,VNB,B,9
8,test,2,0.0,2-Back,1.0,m,Fri Aug 29 2025 12:34:04 GMT-0500 (Central Daylight Time),519777.89999997616,011_m_f_h_a.png,I,m,1188,12,3,2210.599999964237,517567.3000000119,8016,VNB,B,10
9,test,2,1.0,2-Back,1.0,z,Fri Aug 29 2025 12:34:04 GMT-0500 (Central Daylight Time),522210.39999997616,004_o_m_n_a.png,I,z,1403,13,3,2427.5,519782.89999997616,8016,VNB,B,11
10,test,2,0.0,2-Back,1.0,m,Fri Aug 29 2025 12:34:04 GMT-0500 (Central Daylight Time),524243.10000002384,005_o_f_d_a.png,I,m,1011,14,3,2027.9000000357628,522215.1999999881,8016,VNB,B,12
10,test,2,0.0,2-Back,0.0,m,Fri Aug 29 2025 12:34:04 GMT-0500 (Central Daylight Time),526259.1999999881,020_y_f_h_a.png,I,z,995,15,3,2011.0999999642372,524248.10000002384,8016,VNB,B,13
11,test,2,0.0,2-Back,1.0,z,Fri Aug 29 2025 12:34:04 GMT-0500 (Central Daylight Time),528341.8999999762,007_m_m_d_a.png,I,z,1050,16,3,2076.899999976158,526265.0,8016,VNB,B,14
12,test,2,0.0,2-Back,1.0,m,Fri Aug 29 2025 12:34:04 GMT-0500 (Central Daylight Time),530591.1000000238,016_y_m_n_a.png,I,m,1225,17,3,2243.2000000476837,528347.8999999762,8016,VNB,B,15
13,test,2,1.0,2-Back,1.0,m,Fri Aug 29 2025 12:34:04 GMT-0500 (Central Daylight Time),532790.3999999762,011_m_f_n_a.png,I,m,1166,18,3,2193.7999999523163,530596.6000000238,8016,VNB,B,16
0,test,3,1.0,2-Back,,,Fri Aug 29 2025 12:34:04 GMT-0500 (Central Daylight Time),532790.3999999762,004_o_m_n_a.png,I,space,2415,1,3,2193.7999999523163,530596.6000000238,8016,VNB,B,0
0,test,3,1.0,2-Back,,,Fri Aug 29 2025 12:34:04 GMT-0500 (Central Daylight Time),532790.3999999762,005_o_f_d_a.png,I,space,2415,2,3,2193.7999999523163,530596.6000000238,8016,VNB,B,0
1,test,3,0.0,2-Back,1.0,m,Fri Aug 29 2025 12:34:04 GMT-0500 (Central Daylight Time),542454.1000000238,020_y_f_h_a.png,I,m,1167,3,3,2193.400000035763,540260.6999999881,8016,VNB,B,1
1,test,3,0.0,2-Back,0.0,z,Fri Aug 29 2025 12:34:04 GMT-0500 (Central Daylight Time),545486.6999999881,011_m_f_d_a.png,I,None,2016,4,3,3027.0,542459.6999999881,8016,VNB,B,2
1,test,3,1.0,2-Back,0.0,m,Fri Aug 29 2025 12:34:04 GMT-0500 (Central Daylight Time),547919.0,016_y_m_n_a.png,I,z,1415,5,3,2427.399999976158,545491.6000000238,8016,VNB,B,3
2,test,3,0.0,2-Back,1.0,m,Fri Aug 29 2025 12:34:04 GMT-0500 (Central Daylight Time),550884.8000000119,004_o_m_h_a.png,I,m,1942,6,3,2960.5,547924.3000000119,8016,VNB,B,4
2,test,3,0.0,2-Back,0.0,z,Fri Aug 29 2025 12:34:04 GMT-0500 (Central Daylight Time),553333.8999999762,020_y_f_n_a.png,I,m,1426,7,3,2443.899999976158,550890.0,8016,VNB,B,5
2,test,3,1.0,2-Back,0.0,m,Fri Aug 29 2025 12:34:04 GMT-0500 (Central Daylight Time),555383.3000000119,007_m_m_d_a.png,I,z,1031,8,3,2043.5,553339.8000000119,8016,VNB,B,6
2,test,3,0.0,2-Back,0.0,m,Fri Aug 29 2025 12:34:04 GMT-0500 (Central Daylight Time),557366.1000000238,016_y_m_d_a.png,I,z,950,9,3,1976.4000000357628,555389.6999999881,8016,VNB,B,7
3,test,3,0.0,2-Back,1.0,m,Fri Aug 29 2025 12:34:04 GMT-0500 (Central Daylight Time),559781.8999999762,005_o_f_h_a.png,I,m,1391,10,3,2410.5,557371.3999999762,8016,VNB,B,8
4,test,3,1.0,2-Back,1.0,m,Fri Aug 29 2025 12:34:04 GMT-0500 (Central Daylight Time),561798.1000000238,011_m_f_n_a.png,I,m,991,11,3,2010.6000000238419,559787.5,8016,VNB,B,9
5,test,3,1.0,2-Back,1.0,z,Fri Aug 29 2025 12:34:04 GMT-0500 (Central Daylight Time),563497.5,007_m_m_h_a.png,I,z,671,12,3,1694.3999999761581,561803.1000000238,8016,VNB,B,10
6,test,3,0.0,2-Back,1.0,m,Fri Aug 29 2025 12:34:04 GMT-0500 (Central Daylight Time),565563.6000000238,020_y_f_d_a.png,I,m,1036,13,3,2060.600000023842,563503.0,8016,VNB,B,11
7,test,3,0.0,2-Back,1.0,m,Fri Aug 29 2025 12:34:04 GMT-0500 (Central Daylight Time),567962.8000000119,005_o_f_n_a.png,I,m,1370,14,3,2394.5,565568.3000000119,8016,VNB,B,12
7,test,3,0.0,2-Back,0.0,z,Fri Aug 29 2025 12:34:04 GMT-0500 (Central Daylight Time),570995.1999999881,004_o_m_d_a.png,I,None,2016,15,3,3026.800000011921,567968.3999999762,8016,VNB,B,13
8,test,3,1.0,2-Back,1.0,m,Fri Aug 29 2025 12:34:04 GMT-0500 (Central Daylight Time),572827.8000000119,011_m_f_h_a.png,I,m,802,16,3,1827.0,571000.8000000119,8016,VNB,B,14
8,test,3,0.0,2-Back,0.0,m,Fri Aug 29 2025 12:34:04 GMT-0500 (Central Daylight Time),574594.0,007_m_m_n_a.png,I,z,745,17,3,1761.199999988079,572832.8000000119,8016,VNB,B,15
8,test,3,0.0,2-Back,0.0,z,Fri Aug 29 2025 12:34:04 GMT-0500 (Central Daylight Time),576376.8000000119,016_y_m_h_a.png,I,m,763,18,3,1777.699999988079,574599.1000000238,8016,VNB,B,16
0,test,4,0.0,2-Back,,,Fri Aug 29 2025 12:34:04 GMT-0500 (Central Daylight Time),576376.8000000119,011_m_f_n_a.png,I,space,2350,1,3,1777.699999988079,574599.1000000238,8016,VNB,B,0
0,test,4,0.0,2-Back,,,Fri Aug 29 2025 12:34:04 GMT-0500 (Central Daylight Time),576376.8000000119,004_o_m_n_a.png,I,space,2350,2,3,1777.699999988079,574599.1000000238,8016,VNB,B,0
1,test,4,1.0,2-Back,1.0,m,Fri Aug 29 2025 12:34:04 GMT-0500 (Central Daylight Time),585807.1000000238,016_y_m_h_a.png,I,m,824,3,3,1843.6000000238419,583963.5,8016,VNB,B,1
2,test,4,1.0,2-Back,1.0,m,Fri Aug 29 2025 12:34:04 GMT-0500 (Central Daylight Time),588556.3000000119,005_o_f_d_a.png,I,m,1718,4,3,2744.0,585812.3000000119,8016,VNB,B,2
3,test,4,0.0,2-Back,1.0,z,Fri Aug 29 2025 12:34:04 GMT-0500 (Central Daylight Time),590772.3000000119,004_o_m_h_a.png,I,z,1185,5,3,2210.699999988079,588561.6000000238,8016,VNB,B,3
4,test,4,0.0,2-Back,1.0,m,Fri Aug 29 2025 12:34:04 GMT-0500 (Central Daylight Time),593254.8999999762,007_m_m_n_a.png,I,m,1466,6,3,2477.2999999523163,590777.6000000238,8016,VNB,B,4
5,test,4,0.0,2-Back,1.0,m,Fri Aug 29 2025 12:34:04 GMT-0500 (Central Daylight Time),595620.8000000119,011_m_f_d_a.png,I,m,1334,7,3,2361.0,593259.8000000119,8016,VNB,B,5
6,test,4,0.0,2-Back,1.0,z,Fri Aug 29 2025 12:34:04 GMT-0500 (Central Daylight Time),597803.3999999762,020_y_f_n_a.png,I,z,1153,8,3,2177.199999988079,595626.1999999881,8016,VNB,B,6
7,test,4,1.0,2-Back,1.0,m,Fri Aug 29 2025 12:34:04 GMT-0500 (Central Daylight Time),600069.3999999762,005_o_f_h_a.png,I,m,1242,9,3,2261.0,597808.3999999762,8016,VNB,B,7
7,test,4,0.0,2-Back,0.0,m,Fri Aug 29 2025 12:34:04 GMT-0500 (Central Daylight Time),601952.3000000119,007_m_m_h_a.png,I,z,864,10,3,1878.199999988079,600074.1000000238,8016,VNB,B,8
8,test,4,0.0,2-Back,1.0,m,Fri Aug 29 2025 12:34:04 GMT-0500 (Central Daylight Time),604034.8000000119,020_y_f_d_a.png,I,m,1061,11,3,2077.800000011921,601957.0,8016,VNB,B,9
8,test,4,0.0,2-Back,0.0,m,Fri Aug 29 2025 12:34:04 GMT-0500 (Central Daylight Time),606300.6999999881,016_y_m_n_a.png,I,z,1235,12,3,2260.599999964237,604040.1000000238,8016,VNB,B,10
8,test,4,0.0,2-Back,0.0,z,Fri Aug 29 2025 12:34:04 GMT-0500 (Central Daylight Time),608100.1999999881,004_o_m_d_a.png,I,m,778,13,3,1794.5,606305.6999999881,8016,VNB,B,11
9,test,4,1.0,2-Back,1.0,m,Fri Aug 29 2025 12:34:04 GMT-0500 (Central Daylight Time),609982.8999999762,011_m_f_h_a.png,I,m,866,14,3,1878.0999999642372,608104.8000000119,8016,VNB,B,12
10,test,4,1.0,2-Back,1.0,m,Fri Aug 29 2025 12:34:04 GMT-0500 (Central Daylight Time),612032.1999999881,020_y_f_h_a.png,I,m,1022,15,3,2044.5,609987.6999999881,8016,VNB,B,13
11,test,4,0.0,2-Back,1.0,m,Fri Aug 29 2025 12:34:04 GMT-0500 (Central Daylight Time),614681.3999999762,005_o_f_n_a.png,I,m,1621,16,3,2645.199999988079,612036.1999999881,8016,VNB,B,14
11,test,4,0.0,2-Back,0.0,m,Fri Aug 29 2025 12:34:04 GMT-0500 (Central Daylight Time),616764.1999999881,016_y_m_d_a.png,I,z,1052,17,3,2078.0,614686.1999999881,8016,VNB,B,15
12,test,4,1.0,2-Back,1.0,m,Fri Aug 29 2025 12:34:04 GMT-0500 (Central Daylight Time),618880.1999999881,007_m_m_d_a.png,I,m,1090,18,3,2111.199999988079,616769.0,8016,VNB,B,16
0,test,5,1.0,2-Back,,,Fri Aug 29 2025 12:34:04 GMT-0500 (Central Daylight Time),618880.1999999881,020_y_f_d_a.png,I,space,1229,1,3,2111.199999988079,616769.0,8016,VNB,B,0
0,test,5,1.0,2-Back,,,Fri Aug 29 2025 12:34:04 GMT-0500 (Central Daylight Time),618880.1999999881,005_o_f_h_a.png,I,space,1229,2,3,2111.199999988079,616769.0,8016,VNB,B,0
0,test,5,1.0,2-Back,0.0,z,Fri Aug 29 2025 12:34:04 GMT-0500 (Central Daylight Time),628377.1999999881,004_o_m_d_a.png,I,None,2016,3,3,3028.0,625349.1999999881,8016,VNB,B,1
1,test,5,1.0,2-Back,1.0,m,Fri Aug 29 2025 12:34:04 GMT-0500 (Central Daylight Time),630759.8000000119,011_m_f_n_a.png,I,m,1365,4,3,2377.900000035763,628381.8999999762,8016,VNB,B,2
2,test,5,0.0,2-Back,1.0,m,Fri Aug 29 2025 12:34:04 GMT-0500 (Central Daylight Time),633192.3000000119,007_m_m_h_a.png,I,m,1414,5,3,2427.199999988079,630765.1000000238,8016,VNB,B,3
3,test,5,0.0,2-Back,1.0,z,Fri Aug 29 2025 12:34:04 GMT-0500 (Central Daylight Time),635324.8999999762,020_y_f_n_a.png,I,z,1101,6,3,2128.7999999523163,633196.1000000238,8016,VNB,B,4
4,test,5,0.0,2-Back,1.0,m,Fri Aug 29 2025 12:34:04 GMT-0500 (Central Daylight Time),637390.8999999762,005_o_f_d_a.png,I,m,1048,7,3,2061.099999964237,635329.8000000119,8016,VNB,B,5
4,test,5,0.0,2-Back,0.0,m,Fri Aug 29 2025 12:34:04 GMT-0500 (Central Daylight Time),639307.0,004_o_m_h_a.png,I,z,886,8,3,1911.8999999761581,637395.1000000238,8016,VNB,B,6
4,test,5,1.0,2-Back,0.0,z,Fri Aug 29 2025 12:34:04 GMT-0500 (Central Daylight Time),641423.1999999881,011_m_f_d_a.png,I,m,1091,9,3,2110.899999976158,639312.3000000119,8016,VNB,B,7
5,test,5,0.0,2-Back,1.0,m,Fri Aug 29 2025 12:34:04 GMT-0500 (Central Daylight Time),643439.1000000238,016_y_m_n_a.png,I,m,990,10,3,2011.300000011921,641427.8000000119,8016,VNB,B,8
5,test,5,0.0,2-Back,0.0,m,Fri Aug 29 2025 12:34:04 GMT-0500 (Central Daylight Time),645305.1000000238,007_m_m_n_a.png,I,z,838,11,3,1861.800000011921,643443.3000000119,8016,VNB,B,9
6,test,5,0.0,2-Back,1.0,m,Fri Aug 29 2025 12:34:04 GMT-0500 (Central Daylight Time),647154.5,020_y_f_h_a.png,I,m,828,12,3,1845.1000000238419,645309.3999999762,8016,VNB,B,10
7,test,5,0.0,2-Back,1.0,m,Fri Aug 29 2025 12:34:04 GMT-0500 (Central Daylight Time),650053.6999999881,016_y_m_d_a.png,I,m,1867,13,3,2894.599999964237,647159.1000000238,8016,VNB,B,11
7,test,5,1.0,2-Back,0.0,z,Fri Aug 29 2025 12:34:04 GMT-0500 (Central Daylight Time),651853.0,011_m_f_h_a.png,I,m,777,14,3,1795.1000000238419,650057.8999999762,8016,VNB,B,12
8,test,5,0.0,2-Back,1.0,m,Fri Aug 29 2025 12:34:04 GMT-0500 (Central Daylight Time),653997.3000000119,004_o_m_n_a.png,I,m,981,15,3,2139.0,651858.3000000119,8016,VNB,B,13
8,test,5,0.0,2-Back,0.0,m,Fri Aug 29 2025 12:34:04 GMT-0500 (Central Daylight Time),655985.1000000238,007_m_m_d_a.png,I,z,955,16,3,1982.9000000357628,654002.1999999881,8016,VNB,B,14
9,test,5,0.0,2-Back,1.0,z,Fri Aug 29 2025 12:34:04 GMT-0500 (Central Daylight Time),657867.8999999762,005_o_f_n_a.png,I,z,852,17,3,1879.0,655988.8999999762,8016,VNB,B,15
10,test,5,1.0,2-Back,1.0,m,Fri Aug 29 2025 12:34:04 GMT-0500 (Central Daylight Time),659867.1999999881,016_y_m_h_a.png,I,m,971,18,3,1995.3999999761581,657871.8000000119,8016,VNB,B,16
