Number,acc_sum,block,block_c,block_cond,con_img,correct,correct_response,datetime,endtime,jitter,project,response,response_time,row_sel,session_number,start_end,starttime,subject_id,task,task_vers,trial
4,1,prac,1,A,circle.png,1,z,Fri May 09 2025 13:33:18 GMT-0400 (Eastern Daylight Time),63700.199999809265,1400,I,z,748,4,3,2939.8999996185303,60760.300000190735,9003,NTS,B,1
1,2,prac,1,A,circle.png,1,z,Fri May 09 2025 13:33:18 GMT-0400 (Eastern Daylight Time),66033.39999961853,1000,I,z,534,1,3,2321.699999809265,63711.699999809265,9003,NTS,B,2
3,3,prac,1,A,circle.png,1,z,Fri May 09 2025 13:33:18 GMT-0400 (Eastern Daylight Time),68583.10000038147,1200,I,z,552,3,3,2538.0,66045.10000038147,9003,NTS,B,3
2,4,prac,1,A,circle.png,1,z,Fri May 09 2025 13:33:18 GMT-0400 (Eastern Daylight Time),71833.19999980927,2000,I,z,459,2,3,3236.5999994277954,68596.60000038147,9003,NTS,B,4
9,5,prac,1,A,circle.png,1,m,Fri May 09 2025 13:33:18 GMT-0400 (Eastern Daylight Time),74566.5,1500,I,m,437,8,3,2721.8999996185303,71844.60000038147,9003,NTS,B,5
6,6,prac,1,A,circle.png,1,m,Fri May 09 2025 13:33:18 GMT-0400 (Eastern Daylight Time),77766.39999961853,1900,I,m,512,5,3,3188.2999992370605,74578.10000038147,9003,NTS,B,6
8,7,prac,1,A,circle.png,1,m,Fri May 09 2025 13:33:18 GMT-0400 (Eastern Daylight Time),80583.10000038147,1600,I,m,421,7,3,2805.0,77778.10000038147,9003,NTS,B,7
8,8,prac,1,A,circle.png,1,m,Fri May 09 2025 13:33:18 GMT-0400 (Eastern Daylight Time),83516.5,1600,I,m,532,7,3,2922.0,80594.5,9003,NTS,B,8
7,9,prac,1,A,circle.png,1,m,Fri May 09 2025 13:33:18 GMT-0400 (Eastern Daylight Time),86549.69999980927,1700,I,m,539,6,3,3022.5999994277954,83527.10000038147,9003,NTS,B,9
1,10,prac,1,A,circle.png,1,z,Fri May 09 2025 13:33:18 GMT-0400 (Eastern Daylight Time),88949.69999980927,1000,I,z,614,1,3,2388.5,86561.19999980927,9003,NTS,B,10
6,11,prac,1,A,circle.png,1,m,Fri May 09 2025 13:33:18 GMT-0400 (Eastern Daylight Time),92149.89999961853,1900,I,m,489,5,3,3182.5,88967.39999961853,9003,NTS,B,11
2,12,prac,1,A,circle.png,1,z,Fri May 09 2025 13:33:18 GMT-0400 (Eastern Daylight Time),95449.5,2000,I,z,510,2,3,3289.300000190735,92160.19999980927,9003,NTS,B,12
2,0,prac,1,B,triangle.png,0,m,Fri May 09 2025 13:33:18 GMT-0400 (Eastern Daylight Time),132999.80000019073,1700,I,z,779,2,3,3257.4000005722046,129742.39999961853,9003,NTS,B,1
8,1,prac,1,B,triangle.png,1,m,Fri May 09 2025 13:33:18 GMT-0400 (Eastern Daylight Time),135683.10000038147,1200,I,m,699,7,3,2673.300000190735,133009.80000019073,9003,NTS,B,2
4,2,prac,1,B,triangle.png,1,m,Fri May 09 2025 13:33:18 GMT-0400 (Eastern Daylight Time),138566.30000019073,1500,I,m,597,4,3,2872.800000190735,135693.5,9003,NTS,B,3
2,3,prac,1,B,triangle.png,1,m,Fri May 09 2025 13:33:18 GMT-0400 (Eastern Daylight Time),141633.0,1700,I,m,578,2,3,3056.1000003814697,138576.89999961853,9003,NTS,B,4
9,4,prac,1,B,triangle.png,1,z,Fri May 09 2025 13:33:18 GMT-0400 (Eastern Daylight Time),144366.39999961853,1400,I,z,547,8,3,2722.0,141644.39999961853,9003,NTS,B,5
3,5,prac,1,B,triangle.png,1,z,Fri May 09 2025 13:33:18 GMT-0400 (Eastern Daylight Time),147216.5,1600,I,z,462,3,3,2838.5,144378.0,9003,NTS,B,6
1,6,prac,1,B,triangle.png,1,z,Fri May 09 2025 13:33:18 GMT-0400 (Eastern Daylight Time),150516.30000019073,1900,I,z,608,1,3,3286.300000190735,147230.0,9003,NTS,B,7
9,7,prac,1,B,triangle.png,1,z,Fri May 09 2025 13:33:18 GMT-0400 (Eastern Daylight Time),153266.39999961853,1400,I,z,552,8,3,2739.0,150527.39999961853,9003,NTS,B,8
4,8,prac,1,B,triangle.png,1,m,Fri May 09 2025 13:33:18 GMT-0400 (Eastern Daylight Time),156116.19999980927,1500,I,m,550,4,3,2839.699999809265,153276.5,9003,NTS,B,9
7,9,prac,1,B,triangle.png,1,z,Fri May 09 2025 13:33:18 GMT-0400 (Eastern Daylight Time),159499.69999980927,2000,I,z,584,6,3,3374.300000190735,156125.39999961853,9003,NTS,B,10
6,10,prac,1,B,triangle.png,1,m,Fri May 09 2025 13:33:18 GMT-0400 (Eastern Daylight Time),161916.30000019073,1000,I,m,616,5,3,2406.1000003814697,159510.19999980927,9003,NTS,B,11
3,11,prac,1,B,triangle.png,1,z,Fri May 09 2025 13:33:18 GMT-0400 (Eastern Daylight Time),164966.39999961853,1600,I,z,656,3,3,3039.0999994277954,161927.30000019073,9003,NTS,B,12
6,1,test,1,A,circle.png,1,m,Fri May 09 2025 13:33:18 GMT-0400 (Eastern Daylight Time),186133.10000038147,1900,I,m,618,5,3,2540.7000007629395,183592.39999961853,9003,NTS,B,1
4,2,test,1,A,circle.png,1,z,Fri May 09 2025 13:33:18 GMT-0400 (Eastern Daylight Time),188182.69999980927,1400,I,z,629,4,3,2040.0999994277954,186142.60000038147,9003,NTS,B,2
2,3,test,1,A,circle.png,1,z,Fri May 09 2025 13:33:18 GMT-0400 (Eastern Daylight Time),190683.0,2000,I,z,476,2,3,2493.0,188190.0,9003,NTS,B,3
6,4,test,1,A,circle.png,1,m,Fri May 09 2025 13:33:18 GMT-0400 (Eastern Daylight Time),193049.60000038147,1900,I,m,437,5,3,2356.800000190735,190692.80000019073,9003,NTS,B,4
8,5,test,1,A,circle.png,1,m,Fri May 09 2025 13:33:18 GMT-0400 (Eastern Daylight Time),195133.0,1600,I,m,457,7,3,2074.5,193058.5,9003,NTS,B,5
7,6,test,1,A,circle.png,1,m,Fri May 09 2025 13:33:18 GMT-0400 (Eastern Daylight Time),197266.19999980927,1700,I,m,410,6,3,2122.699999809265,195143.5,9003,NTS,B,6
1,7,test,1,A,circle.png,1,z,Fri May 09 2025 13:33:18 GMT-0400 (Eastern Daylight Time),198916.30000019073,1000,I,z,615,1,3,1639.6000003814697,197276.69999980927,9003,NTS,B,7
9,8,test,1,A,circle.png,1,m,Fri May 09 2025 13:33:18 GMT-0400 (Eastern Daylight Time),200916.30000019073,1500,I,m,467,8,3,1989.6000003814697,198926.69999980927,9003,NTS,B,8
1,9,test,1,A,circle.png,1,z,Fri May 09 2025 13:33:18 GMT-0400 (Eastern Daylight Time),202449.60000038147,1000,I,z,509,1,3,1524.6000003814697,200925.0,9003,NTS,B,9
4,10,test,1,A,circle.png,1,z,Fri May 09 2025 13:33:18 GMT-0400 (Eastern Daylight Time),204433.0,1400,I,z,554,4,3,1974.1000003814697,202458.89999961853,9003,NTS,B,10
4,11,test,1,A,circle.png,1,z,Fri May 09 2025 13:33:18 GMT-0400 (Eastern Daylight Time),206299.60000038147,1400,I,z,433,4,3,1855.7000007629395,204443.89999961853,9003,NTS,B,11
8,12,test,1,A,circle.png,1,m,Fri May 09 2025 13:33:18 GMT-0400 (Eastern Daylight Time),208349.60000038147,1600,I,m,415,7,3,2041.5,206308.10000038147,9003,NTS,B,12
1,13,test,1,A,circle.png,1,z,Fri May 09 2025 13:33:18 GMT-0400 (Eastern Daylight Time),209966.19999980927,1000,I,z,580,1,3,1605.6999998092651,208360.5,9003,NTS,B,13
6,14,test,1,A,circle.png,1,m,Fri May 09 2025 13:33:18 GMT-0400 (Eastern Daylight Time),212299.60000038147,1900,I,m,409,5,3,2325.4000005722046,209974.19999980927,9003,NTS,B,14
6,15,test,1,A,circle.png,1,m,Fri May 09 2025 13:33:18 GMT-0400 (Eastern Daylight Time),214716.10000038147,1900,I,m,484,5,3,2407.9000005722046,212308.19999980927,9003,NTS,B,15
3,16,test,1,A,circle.png,1,z,Fri May 09 2025 13:33:18 GMT-0400 (Eastern Daylight Time),216499.69999980927,1200,I,z,550,3,3,1772.8000001907349,214726.89999961853,9003,NTS,B,16
3,17,test,1,A,circle.png,1,z,Fri May 09 2025 13:33:18 GMT-0400 (Eastern Daylight Time),218199.69999980927,1200,I,z,472,3,3,1691.3000001907349,216508.39999961853,9003,NTS,B,17
2,18,test,1,A,circle.png,1,z,Fri May 09 2025 13:33:18 GMT-0400 (Eastern Daylight Time),220716.19999980927,2000,I,z,483,2,3,2508.699999809265,218207.5,9003,NTS,B,18
2,19,test,1,A,circle.png,1,z,Fri May 09 2025 13:33:18 GMT-0400 (Eastern Daylight Time),223216.0,2000,I,z,479,2,3,2491.300000190735,220724.69999980927,9003,NTS,B,19
9,20,test,1,A,circle.png,1,m,Fri May 09 2025 13:33:18 GMT-0400 (Eastern Daylight Time),225316.30000019073,1500,I,m,565,8,3,2092.300000190735,223224.0,9003,NTS,B,20
8,21,test,1,A,circle.png,1,m,Fri May 09 2025 13:33:18 GMT-0400 (Eastern Daylight Time),227366.89999961853,1600,I,m,431,7,3,2040.0999994277954,225326.80000019073,9003,NTS,B,21
9,22,test,1,A,circle.png,1,m,Fri May 09 2025 13:33:18 GMT-0400 (Eastern Daylight Time),229349.5,1500,I,m,448,8,3,1975.1000003814697,227374.39999961853,9003,NTS,B,22
7,23,test,1,A,circle.png,1,m,Fri May 09 2025 13:33:18 GMT-0400 (Eastern Daylight Time),231549.60000038147,1700,I,m,465,6,3,2190.6000003814697,229359.0,9003,NTS,B,23
7,24,test,1,A,circle.png,1,m,Fri May 09 2025 13:33:18 GMT-0400 (Eastern Daylight Time),233782.89999961853,1700,I,m,504,6,3,2224.7999992370605,231558.10000038147,9003,NTS,B,24
7,1,test,1,B,triangle.png,1,z,Fri May 09 2025 13:33:18 GMT-0400 (Eastern Daylight Time),249816.19999980927,1600,I,z,680,14,3,2292.5,247523.69999980927,9003,NTS,B,1
8,2,test,1,B,triangle.png,1,m,Fri May 09 2025 13:33:18 GMT-0400 (Eastern Daylight Time),252083.0,1700,I,m,544,15,3,2255.5,249827.5,9003,NTS,B,2
3,3,test,1,B,triangle.png,1,z,Fri May 09 2025 13:33:18 GMT-0400 (Eastern Daylight Time),254182.80000019073,1600,I,z,473,3,3,2091.6000003814697,252091.19999980927,9003,NTS,B,3
4,4,test,1,B,triangle.png,1,m,Fri May 09 2025 13:33:18 GMT-0400 (Eastern Daylight Time),255882.89999961853,1000,I,m,677,12,3,1690.6999998092651,254192.19999980927,9003,NTS,B,4
8,5,test,1,B,triangle.png,1,m,Fri May 09 2025 13:33:18 GMT-0400 (Eastern Daylight Time),257649.60000038147,1200,I,m,545,7,3,1757.8000001907349,255891.80000019073,9003,NTS,B,5
9,6,test,1,B,triangle.png,1,z,Fri May 09 2025 13:33:18 GMT-0400 (Eastern Daylight Time),260149.5,1900,I,z,574,16,3,2491.3999996185303,257658.10000038147,9003,NTS,B,6
9,7,test,1,B,triangle.png,1,z,Fri May 09 2025 13:33:18 GMT-0400 (Eastern Daylight Time),262366.60000038147,1400,I,z,798,8,3,2208.300000190735,260158.30000019073,9003,NTS,B,7
1,8,test,1,B,triangle.png,1,z,Fri May 09 2025 13:33:18 GMT-0400 (Eastern Daylight Time),264349.19999980927,1400,I,z,566,9,3,1975.6999998092651,262373.5,9003,NTS,B,8
4,9,test,1,B,triangle.png,1,m,Fri May 09 2025 13:33:18 GMT-0400 (Eastern Daylight Time),266416.10000038147,1500,I,m,545,4,3,2061.9000005722046,264354.19999980927,9003,NTS,B,9
1,10,test,1,B,triangle.png,1,z,Fri May 09 2025 13:33:18 GMT-0400 (Eastern Daylight Time),268866.39999961853,1900,I,z,520,1,3,2442.199999809265,266424.19999980927,9003,NTS,B,10
4,11,test,1,B,triangle.png,1,m,Fri May 09 2025 13:33:18 GMT-0400 (Eastern Daylight Time),270483.0,1000,I,m,593,12,3,1608.1000003814697,268874.89999961853,9003,NTS,B,11
1,12,test,1,B,triangle.png,1,z,Fri May 09 2025 13:33:18 GMT-0400 (Eastern Daylight Time),272432.69999980927,1400,I,z,529,9,3,1935.8000001907349,270496.89999961853,9003,NTS,B,12
4,13,test,1,B,triangle.png,1,m,Fri May 09 2025 13:33:18 GMT-0400 (Eastern Daylight Time),274516.0,1500,I,m,558,4,3,2076.800000190735,272439.19999980927,9003,NTS,B,13
6,14,test,1,B,triangle.png,1,m,Fri May 09 2025 13:33:18 GMT-0400 (Eastern Daylight Time),276649.60000038147,1500,I,m,604,13,3,2123.6000003814697,274526.0,9003,NTS,B,14
2,15,test,1,B,triangle.png,1,m,Fri May 09 2025 13:33:18 GMT-0400 (Eastern Daylight Time),278599.30000019073,1200,I,m,731,10,3,1935.9000005722046,276663.39999961853,9003,NTS,B,15
6,16,test,1,B,triangle.png,1,m,Fri May 09 2025 13:33:18 GMT-0400 (Eastern Daylight Time),280166.80000019073,1000,I,m,548,5,3,1552.9000005722046,278613.89999961853,9003,NTS,B,16
2,17,test,1,B,triangle.png,1,m,Fri May 09 2025 13:33:18 GMT-0400 (Eastern Daylight Time),282332.80000019073,1700,I,m,442,2,3,2157.800000190735,280175.0,9003,NTS,B,17
8,18,test,1,B,triangle.png,1,m,Fri May 09 2025 13:33:18 GMT-0400 (Eastern Daylight Time),284616.0,1700,I,m,554,15,3,2272.8999996185303,282343.10000038147,9003,NTS,B,18
7,19,test,1,B,triangle.png,1,z,Fri May 09 2025 13:33:18 GMT-0400 (Eastern Daylight Time),287399.60000038147,2000,I,z,757,6,3,2776.9000005722046,284622.69999980927,9003,NTS,B,19
7,20,test,1,B,triangle.png,1,z,Fri May 09 2025 13:33:18 GMT-0400 (Eastern Daylight Time),290099.60000038147,2000,I,z,668,6,3,2691.300000190735,287408.30000019073,9003,NTS,B,20
9,21,test,1,B,triangle.png,1,z,Fri May 09 2025 13:33:18 GMT-0400 (Eastern Daylight Time),292066.19999980927,1400,I,z,537,8,3,1957.8999996185303,290108.30000019073,9003,NTS,B,21
3,22,test,1,B,triangle.png,1,z,Fri May 09 2025 13:33:18 GMT-0400 (Eastern Daylight Time),294366.30000019073,1600,I,z,667,3,3,2291.199999809265,292075.10000038147,9003,NTS,B,22
7,23,test,1,B,triangle.png,1,z,Fri May 09 2025 13:33:18 GMT-0400 (Eastern Daylight Time),296799.60000038147,1600,I,z,806,14,3,2423.0,294376.60000038147,9003,NTS,B,23
3,24,test,1,B,triangle.png,1,z,Fri May 09 2025 13:33:18 GMT-0400 (Eastern Daylight Time),299332.89999961853,2000,I,z,500,11,3,2524.0,296808.89999961853,9003,NTS,B,24
3,1,prac,1,C,triangle.png,1,z,Fri May 09 2025 13:33:18 GMT-0400 (Eastern Daylight Time),343099.80000019073,1500,I,z,841,3,3,3124.0,339975.80000019073,9003,NTS,B,1
6,2,prac,1,C,circle.png,1,m,Fri May 09 2025 13:33:18 GMT-0400 (Eastern Daylight Time),346932.89999961853,2000,I,m,1033,5,3,3821.0,343111.89999961853,9003,NTS,B,2
3,3,prac,1,C,triangle.png,1,z,Fri May 09 2025 13:33:18 GMT-0400 (Eastern Daylight Time),350383.30000019073,1500,I,z,1155,3,3,3435.300000190735,346948.0,9003,NTS,B,3
7,4,prac,1,C,triangle.png,1,z,Fri May 09 2025 13:33:18 GMT-0400 (Eastern Daylight Time),353116.30000019073,1200,I,z,740,6,3,2722.199999809265,350394.10000038147,9003,NTS,B,4
4,5,prac,1,C,circle.png,1,z,Fri May 09 2025 13:33:18 GMT-0400 (Eastern Daylight Time),355699.80000019073,1000,I,z,792,4,3,2572.9000005722046,353126.89999961853,9003,NTS,B,5
1,6,prac,1,C,circle.png,1,z,Fri May 09 2025 13:33:18 GMT-0400 (Eastern Daylight Time),359432.60000038147,1700,I,z,1220,1,3,3710.4000005722046,355722.19999980927,9003,NTS,B,6
7,7,prac,1,C,triangle.png,1,z,Fri May 09 2025 13:33:18 GMT-0400 (Eastern Daylight Time),362516.10000038147,1200,I,z,1091,6,3,3076.0,359440.10000038147,9003,NTS,B,7
2,8,prac,1,C,triangle.png,1,m,Fri May 09 2025 13:33:18 GMT-0400 (Eastern Daylight Time),365866.39999961853,1600,I,m,952,2,3,3340.3999996185303,362526.0,9003,NTS,B,8
4,9,prac,1,C,circle.png,1,z,Fri May 09 2025 13:33:18 GMT-0400 (Eastern Daylight Time),368699.69999980927,1000,I,z,1042,4,3,2822.699999809265,365877.0,9003,NTS,B,9
9,10,prac,1,C,circle.png,1,m,Fri May 09 2025 13:33:18 GMT-0400 (Eastern Daylight Time),372182.80000019073,1900,I,m,796,8,3,3471.800000190735,368711.0,9003,NTS,B,10
8,11,prac,1,C,triangle.png,1,m,Fri May 09 2025 13:33:18 GMT-0400 (Eastern Daylight Time),375432.89999961853,1400,I,m,1062,7,3,3239.0,372193.89999961853,9003,NTS,B,11
2,11,prac,1,C,triangle.png,0,m,Fri May 09 2025 13:33:18 GMT-0400 (Eastern Daylight Time),378649.10000038147,1600,I,z,819,2,3,3203.9000005722046,375445.19999980927,9003,NTS,B,12
2,0,test,1,C,circle.png,0,z,Fri May 09 2025 13:33:18 GMT-0400 (Eastern Daylight Time),401582.60000038147,1700,I,m,1114,10,3,2825.2000007629395,398757.39999961853,9003,NTS,B,1
9,0,test,1,C,circle.png,0,m,Fri May 09 2025 13:33:18 GMT-0400 (Eastern Daylight Time),404616.5,1500,I,None,1515,8,3,3025.0,401591.5,9003,NTS,B,2
2,1,test,1,C,triangle.png,1,m,Fri May 09 2025 13:33:18 GMT-0400 (Eastern Daylight Time),407799.5,2000,I,m,1156,2,3,3171.3999996185303,404628.10000038147,9003,NTS,B,3
9,2,test,1,C,triangle.png,1,z,Fri May 09 2025 13:33:18 GMT-0400 (Eastern Daylight Time),410349.60000038147,1400,I,z,1116,16,3,2538.300000190735,407811.30000019073,9003,NTS,B,4
4,3,test,1,C,triangle.png,1,m,Fri May 09 2025 13:33:18 GMT-0400 (Eastern Daylight Time),412816.30000019073,1500,I,m,939,12,3,2457.800000190735,410358.5,9003,NTS,B,5
6,4,test,1,C,circle.png,1,m,Fri May 09 2025 13:33:18 GMT-0400 (Eastern Daylight Time),416099.5,1900,I,m,1351,21,3,3274.1000003814697,412825.39999961853,9003,NTS,B,6
4,5,test,1,C,circle.png,1,z,Fri May 09 2025 13:33:18 GMT-0400 (Eastern Daylight Time),418232.89999961853,1400,I,z,712,4,3,2118.2999992370605,416114.60000038147,9003,NTS,B,7
1,6,test,1,C,triangle.png,1,z,Fri May 09 2025 13:33:18 GMT-0400 (Eastern Daylight Time),420849.60000038147,1900,I,z,687,9,3,2605.5,418244.10000038147,9003,NTS,B,8
8,7,test,1,C,triangle.png,1,m,Fri May 09 2025 13:33:18 GMT-0400 (Eastern Daylight Time),423216.19999980927,1600,I,m,746,23,3,2356.699999809265,420859.5,9003,NTS,B,9
2,8,test,1,C,circle.png,1,z,Fri May 09 2025 13:33:18 GMT-0400 (Eastern Daylight Time),425566.60000038147,1700,I,z,632,18,3,2341.4000005722046,423225.19999980927,9003,NTS,B,10
6,8,test,1,C,triangle.png,0,m,Fri May 09 2025 13:33:18 GMT-0400 (Eastern Daylight Time),428099.60000038147,1000,I,None,1516,13,3,2526.1000003814697,425573.5,9003,NTS,B,11
9,8,test,1,C,circle.png,0,m,Fri May 09 2025 13:33:18 GMT-0400 (Eastern Daylight Time),430516.30000019073,1500,I,z,893,24,3,2408.0,428108.30000019073,9003,NTS,B,12
7,8,test,1,C,triangle.png,0,z,Fri May 09 2025 13:33:18 GMT-0400 (Eastern Daylight Time),433599.60000038147,1700,I,m,1356,22,3,3074.6000003814697,430525.0,9003,NTS,B,13
3,8,test,1,C,triangle.png,0,z,Fri May 09 2025 13:33:18 GMT-0400 (Eastern Daylight Time),436333.0,1200,I,None,1516,3,3,2724.6000003814697,433608.39999961853,9003,NTS,B,14
1,9,test,1,C,circle.png,1,z,Fri May 09 2025 13:33:18 GMT-0400 (Eastern Daylight Time),438349.5,1000,I,z,983,1,3,2008.8999996185303,436340.60000038147,9003,NTS,B,15
3,10,test,1,C,circle.png,1,z,Fri May 09 2025 13:33:18 GMT-0400 (Eastern Daylight Time),440632.89999961853,1600,I,z,654,11,3,2269.199999809265,438363.69999980927,9003,NTS,B,16
8,11,test,1,C,circle.png,1,m,Fri May 09 2025 13:33:18 GMT-0400 (Eastern Daylight Time),442616.10000038147,1200,I,m,763,15,3,1974.2000007629395,440641.89999961853,9003,NTS,B,17
1,12,test,1,C,triangle.png,1,z,Fri May 09 2025 13:33:18 GMT-0400 (Eastern Daylight Time),445199.60000038147,1900,I,z,656,17,3,2569.1000003814697,442630.5,9003,NTS,B,18
7,13,test,1,C,triangle.png,1,z,Fri May 09 2025 13:33:18 GMT-0400 (Eastern Daylight Time),447716.30000019073,1700,I,z,792,6,3,2507.800000190735,445208.5,9003,NTS,B,19
6,14,test,1,C,circle.png,1,m,Fri May 09 2025 13:33:18 GMT-0400 (Eastern Daylight Time),450415.80000019073,1900,I,m,779,5,3,2689.1000003814697,447726.69999980927,9003,NTS,B,20
3,15,test,1,C,circle.png,1,z,Fri May 09 2025 13:33:18 GMT-0400 (Eastern Daylight Time),452716.30000019073,1600,I,z,676,19,3,2293.699999809265,450422.60000038147,9003,NTS,B,21
7,16,test,1,C,circle.png,1,m,Fri May 09 2025 13:33:18 GMT-0400 (Eastern Daylight Time),455716.30000019073,2000,I,m,968,14,3,2991.1000003814697,452725.19999980927,9003,NTS,B,22
4,16,test,1,C,triangle.png,0,m,Fri May 09 2025 13:33:18 GMT-0400 (Eastern Daylight Time),457916.19999980927,1500,I,z,676,20,3,2191.0,455725.19999980927,9003,NTS,B,23
8,17,test,1,C,triangle.png,1,m,Fri May 09 2025 13:33:18 GMT-0400 (Eastern Daylight Time),460099.5,1600,I,m,561,7,3,2172.6000003814697,457926.89999961853,9003,NTS,B,24
3,1,test,2,C,circle.png,1,z,Fri May 09 2025 13:33:18 GMT-0400 (Eastern Daylight Time),467216.19999980927,1600,I,z,1297,19,3,2908.3999996185303,464307.80000019073,9003,NTS,B,1
6,2,test,2,C,circle.png,1,m,Fri May 09 2025 13:33:18 GMT-0400 (Eastern Daylight Time),469916.39999961853,1900,I,m,776,5,3,2693.199999809265,467223.19999980927,9003,NTS,B,2
7,3,test,2,C,circle.png,1,m,Fri May 09 2025 13:33:18 GMT-0400 (Eastern Daylight Time),472616.30000019073,2000,I,m,672,14,3,2690.800000190735,469925.5,9003,NTS,B,3
3,4,test,2,C,circle.png,1,z,Fri May 09 2025 13:33:18 GMT-0400 (Eastern Daylight Time),474966.19999980927,1600,I,z,716,11,3,2341.0,472625.19999980927,9003,NTS,B,4
1,5,test,2,C,triangle.png,1,z,Fri May 09 2025 13:33:18 GMT-0400 (Eastern Daylight Time),477449.5,1900,I,z,562,17,3,2474.699999809265,474974.80000019073,9003,NTS,B,5
7,5,test,2,C,triangle.png,0,z,Fri May 09 2025 13:33:18 GMT-0400 (Eastern Daylight Time),479849.39999961853,1700,I,m,669,6,3,2389.2999992370605,477460.10000038147,9003,NTS,B,6
9,6,test,2,C,triangle.png,1,z,Fri May 09 2025 13:33:18 GMT-0400 (Eastern Daylight Time),482015.60000038147,1400,I,z,746,16,3,2157.4000005722046,479858.19999980927,9003,NTS,B,7
8,7,test,2,C,triangle.png,1,m,Fri May 09 2025 13:33:18 GMT-0400 (Eastern Daylight Time),484249.5,1600,I,m,613,7,3,2227.3999996185303,482022.10000038147,9003,NTS,B,8
1,8,test,2,C,triangle.png,1,z,Fri May 09 2025 13:33:18 GMT-0400 (Eastern Daylight Time),486832.19999980927,1900,I,z,655,9,3,2571.300000190735,484260.89999961853,9003,NTS,B,9
4,9,test,2,C,triangle.png,1,m,Fri May 09 2025 13:33:18 GMT-0400 (Eastern Daylight Time),489083.30000019073,1500,I,m,728,12,3,2245.300000190735,486838.0,9003,NTS,B,10
2,10,test,2,C,circle.png,1,z,Fri May 09 2025 13:33:18 GMT-0400 (Eastern Daylight Time),491532.80000019073,1700,I,z,719,10,3,2442.6000003814697,489090.19999980927,9003,NTS,B,11
9,11,test,2,C,circle.png,1,m,Fri May 09 2025 13:33:18 GMT-0400 (Eastern Daylight Time),493765.60000038147,1500,I,m,716,8,3,2224.2000007629395,491541.39999961853,9003,NTS,B,12
4,12,test,2,C,triangle.png,1,m,Fri May 09 2025 13:33:18 GMT-0400 (Eastern Daylight Time),496549.5,1500,I,m,1250,20,3,2777.6000003814697,493771.89999961853,9003,NTS,B,13
2,13,test,2,C,circle.png,1,z,Fri May 09 2025 13:33:18 GMT-0400 (Eastern Daylight Time),498932.60000038147,1700,I,z,657,18,3,2372.800000190735,496559.80000019073,9003,NTS,B,14
9,14,test,2,C,triangle.png,1,z,Fri May 09 2025 13:33:18 GMT-0400 (Eastern Daylight Time),501516.19999980927,1400,I,z,1151,24,3,2576.8999996185303,498939.30000019073,9003,NTS,B,15
1,14,test,2,C,circle.png,0,z,Fri May 09 2025 13:33:18 GMT-0400 (Eastern Daylight Time),503666.19999980927,1000,I,m,1128,1,3,2140.800000190735,501525.39999961853,9003,NTS,B,16
6,15,test,2,C,triangle.png,1,m,Fri May 09 2025 13:33:18 GMT-0400 (Eastern Daylight Time),505632.80000019073,1000,I,m,946,21,3,1957.6999998092651,503675.10000038147,9003,NTS,B,17
3,15,test,2,C,triangle.png,0,z,Fri May 09 2025 13:33:18 GMT-0400 (Eastern Daylight Time),508366.30000019073,1200,I,None,1515,3,3,2723.199999809265,505643.10000038147,9003,NTS,B,18
8,16,test,2,C,circle.png,1,m,Fri May 09 2025 13:33:18 GMT-0400 (Eastern Daylight Time),510699.80000019073,1200,I,m,1102,23,3,2324.4000005722046,508375.39999961853,9003,NTS,B,19
7,17,test,2,C,circle.png,1,m,Fri May 09 2025 13:33:18 GMT-0400 (Eastern Daylight Time),513933.0,2000,I,m,1201,22,3,3223.6000003814697,510709.39999961853,9003,NTS,B,20
2,18,test,2,C,triangle.png,1,m,Fri May 09 2025 13:33:18 GMT-0400 (Eastern Daylight Time),517066.10000038147,2000,I,m,1111,2,3,3122.1000003814697,513944.0,9003,NTS,B,21
4,19,test,2,C,circle.png,1,z,Fri May 09 2025 13:33:18 GMT-0400 (Eastern Daylight Time),519566.10000038147,1400,I,z,1066,4,3,2489.2000007629395,517076.89999961853,9003,NTS,B,22
6,20,test,2,C,triangle.png,1,m,Fri May 09 2025 13:33:18 GMT-0400 (Eastern Daylight Time),521649.60000038147,1000,I,m,1054,13,3,2074.6000003814697,519575.0,9003,NTS,B,23
8,21,test,2,C,circle.png,1,m,Fri May 09 2025 13:33:18 GMT-0400 (Eastern Daylight Time),523983.0,1200,I,m,1107,15,3,2324.300000190735,521658.69999980927,9003,NTS,B,24
2,1,test,3,C,circle.png,1,z,Fri May 09 2025 13:33:18 GMT-0400 (Eastern Daylight Time),530649.8000001907,1700,I,z,937,10,3,2660.300000190735,527989.5,9003,NTS,B,1
9,2,test,3,C,circle.png,1,m,Fri May 09 2025 13:33:18 GMT-0400 (Eastern Daylight Time),532732.8999996185,1500,I,m,551,8,3,2074.3999996185303,530658.5,9003,NTS,B,2
7,3,test,3,C,triangle.png,1,z,Fri May 09 2025 13:33:18 GMT-0400 (Eastern Daylight Time),535632.6999998093,1700,I,z,1179,6,3,2890.199999809265,532742.5,9003,NTS,B,3
8,4,test,3,C,circle.png,1,m,Fri May 09 2025 13:33:18 GMT-0400 (Eastern Daylight Time),537616.1000003815,1200,I,m,763,15,3,1973.7000007629395,535642.3999996185,9003,NTS,B,4
4,5,test,3,C,circle.png,1,z,Fri May 09 2025 13:33:18 GMT-0400 (Eastern Daylight Time),539699.6999998093,1400,I,z,660,4,3,2074.800000190735,537624.8999996185,9003,NTS,B,5
6,6,test,3,C,triangle.png,1,m,Fri May 09 2025 13:33:18 GMT-0400 (Eastern Daylight Time),541582.6999998093,1000,I,m,864,13,3,1872.0,539710.6999998093,9003,NTS,B,6
9,7,test,3,C,triangle.png,1,z,Fri May 09 2025 13:33:18 GMT-0400 (Eastern Daylight Time),543949.6000003815,1400,I,z,933,16,3,2359.9000005722046,541589.6999998093,9003,NTS,B,7
4,8,test,3,C,circle.png,1,z,Fri May 09 2025 13:33:18 GMT-0400 (Eastern Daylight Time),546082.8999996185,1400,I,z,703,20,3,2123.3999996185303,543959.5,9003,NTS,B,8
8,9,test,3,C,triangle.png,1,m,Fri May 09 2025 13:33:18 GMT-0400 (Eastern Daylight Time),548616.1999998093,1600,I,m,905,7,3,2524.5,546091.6999998093,9003,NTS,B,9
2,9,test,3,C,triangle.png,0,m,Fri May 09 2025 13:33:18 GMT-0400 (Eastern Daylight Time),551566.1999998093,2000,I,z,924,18,3,2941.199999809265,548625.0,9003,NTS,B,10
3,10,test,3,C,circle.png,1,z,Fri May 09 2025 13:33:18 GMT-0400 (Eastern Daylight Time),554199.6000003815,1600,I,z,1006,11,3,2620.2000007629395,551579.3999996185,9003,NTS,B,11
7,11,test,3,C,circle.png,1,m,Fri May 09 2025 13:33:18 GMT-0400 (Eastern Daylight Time),556949.6000003815,2000,I,m,716,14,3,2741.300000190735,554208.3000001907,9003,NTS,B,12
3,12,test,3,C,triangle.png,1,z,Fri May 09 2025 13:33:18 GMT-0400 (Eastern Daylight Time),559299.5,1200,I,z,1118,3,3,2340.800000190735,556958.6999998093,9003,NTS,B,13
3,13,test,3,C,triangle.png,1,z,Fri May 09 2025 13:33:18 GMT-0400 (Eastern Daylight Time),561782.8999996185,1200,I,z,1256,19,3,2472.7999992370605,559310.1000003815,9003,NTS,B,14
4,14,test,3,C,triangle.png,1,m,Fri May 09 2025 13:33:18 GMT-0400 (Eastern Daylight Time),564032.8999996185,1500,I,m,729,12,3,2240.5999994277954,561792.3000001907,9003,NTS,B,15
2,15,test,3,C,triangle.png,1,m,Fri May 09 2025 13:33:18 GMT-0400 (Eastern Daylight Time),567166.1999998093,2000,I,m,1107,2,3,3124.5999994277954,564041.6000003815,9003,NTS,B,16
1,16,test,3,C,triangle.png,1,z,Fri May 09 2025 13:33:18 GMT-0400 (Eastern Daylight Time),569782.8000001907,1900,I,z,698,9,3,2607.199999809265,567175.6000003815,9003,NTS,B,17
6,17,test,3,C,circle.png,1,m,Fri May 09 2025 13:33:18 GMT-0400 (Eastern Daylight Time),572466.3000001907,1900,I,m,753,5,3,2674.9000005722046,569791.3999996185,9003,NTS,B,18
9,18,test,3,C,circle.png,1,m,Fri May 09 2025 13:33:18 GMT-0400 (Eastern Daylight Time),574949.6000003815,1500,I,m,950,24,3,2474.7000007629395,572474.8999996185,9003,NTS,B,19
7,19,test,3,C,triangle.png,1,z,Fri May 09 2025 13:33:18 GMT-0400 (Eastern Daylight Time),577749.3999996185,1700,I,z,1067,22,3,2786.199999809265,574963.1999998093,9003,NTS,B,20
8,20,test,3,C,triangle.png,1,m,Fri May 09 2025 13:33:18 GMT-0400 (Eastern Daylight Time),580082.8000001907,1600,I,m,703,23,3,2325.0,577757.8000001907,9003,NTS,B,21
1,21,test,3,C,circle.png,1,z,Fri May 09 2025 13:33:18 GMT-0400 (Eastern Daylight Time),582182.8999996185,1000,I,z,1073,1,3,2092.5,580090.3999996185,9003,NTS,B,22
6,22,test,3,C,circle.png,1,m,Fri May 09 2025 13:33:18 GMT-0400 (Eastern Daylight Time),584699.3000001907,1900,I,m,585,21,3,2508.699999809265,582190.6000003815,9003,NTS,B,23
1,23,test,3,C,circle.png,1,z,Fri May 09 2025 13:33:18 GMT-0400 (Eastern Daylight Time),586766.6999998093,1000,I,z,1049,17,3,2056.0,584710.6999998093,9003,NTS,B,24
9,0,test,4,C,triangle.png,0,z,Fri May 09 2025 13:33:18 GMT-0400 (Eastern Daylight Time),593649.6999998093,1400,I,m,945,16,3,2358.0999994277954,591291.6000003815,9003,NTS,B,1
4,1,test,4,C,circle.png,1,z,Fri May 09 2025 13:33:18 GMT-0400 (Eastern Daylight Time),595933.0,1400,I,z,851,4,3,2272.1000003814697,593660.8999996185,9003,NTS,B,2
7,2,test,4,C,triangle.png,1,z,Fri May 09 2025 13:33:18 GMT-0400 (Eastern Daylight Time),598482.8999996185,1700,I,z,827,6,3,2541.5999994277954,595941.3000001907,9003,NTS,B,3
6,3,test,4,C,triangle.png,1,m,Fri May 09 2025 13:33:18 GMT-0400 (Eastern Daylight Time),600332.6999998093,1000,I,m,817,13,3,1840.6999998092651,598492.0,9003,NTS,B,4
4,4,test,4,C,triangle.png,1,m,Fri May 09 2025 13:33:18 GMT-0400 (Eastern Daylight Time),602666.1000003815,1500,I,m,803,12,3,2325.300000190735,600340.8000001907,9003,NTS,B,5
9,5,test,4,C,circle.png,1,m,Fri May 09 2025 13:33:18 GMT-0400 (Eastern Daylight Time),605082.5,1500,I,m,893,24,3,2407.3999996185303,602675.1000003815,9003,NTS,B,6
3,6,test,4,C,triangle.png,1,z,Fri May 09 2025 13:33:18 GMT-0400 (Eastern Daylight Time),607166.8000001907,1200,I,z,865,19,3,2077.800000190735,605089.0,9003,NTS,B,7
1,7,test,4,C,triangle.png,1,z,Fri May 09 2025 13:33:18 GMT-0400 (Eastern Daylight Time),609782.6999998093,1900,I,z,698,9,3,2608.0999994277954,607174.6000003815,9003,NTS,B,8
3,8,test,4,C,triangle.png,1,z,Fri May 09 2025 13:33:18 GMT-0400 (Eastern Daylight Time),611649.5,1200,I,z,645,3,3,1859.1000003814697,609790.3999996185,9003,NTS,B,9
6,9,test,4,C,circle.png,1,m,Fri May 09 2025 13:33:18 GMT-0400 (Eastern Daylight Time),614316.1999998093,1900,I,m,743,5,3,2656.3999996185303,611659.8000001907,9003,NTS,B,10
4,10,test,4,C,circle.png,1,z,Fri May 09 2025 13:33:18 GMT-0400 (Eastern Daylight Time),616315.6000003815,1400,I,z,559,20,3,1983.0,614332.6000003815,9003,NTS,B,11
6,11,test,4,C,circle.png,1,m,Fri May 09 2025 13:33:18 GMT-0400 (Eastern Daylight Time),618932.8999996185,1900,I,m,693,21,3,2612.699999809265,616320.1999998093,9003,NTS,B,12
8,11,test,4,C,triangle.png,0,m,Fri May 09 2025 13:33:18 GMT-0400 (Eastern Daylight Time),621399.3999996185,1600,I,z,847,23,3,2454.0,618945.3999996185,9003,NTS,B,13
8,12,test,4,C,circle.png,1,m,Fri May 09 2025 13:33:18 GMT-0400 (Eastern Daylight Time),623315.8999996185,1200,I,m,683,15,3,1906.0999994277954,621409.8000001907,9003,NTS,B,14
3,13,test,4,C,circle.png,1,z,Fri May 09 2025 13:33:18 GMT-0400 (Eastern Daylight Time),625582.8999996185,1600,I,z,648,11,3,2259.2999992370605,623323.6000003815,9003,NTS,B,15
8,14,test,4,C,triangle.png,1,m,Fri May 09 2025 13:33:18 GMT-0400 (Eastern Daylight Time),628182.6999998093,1600,I,m,981,7,3,2591.0999994277954,625591.6000003815,9003,NTS,B,16
1,15,test,4,C,circle.png,1,z,Fri May 09 2025 13:33:18 GMT-0400 (Eastern Daylight Time),629916.1999998093,1000,I,z,709,17,3,1724.5999994277954,628191.6000003815,9003,NTS,B,17
2,16,test,4,C,triangle.png,1,m,Fri May 09 2025 13:33:18 GMT-0400 (Eastern Daylight Time),632966.5,2000,I,m,1032,2,3,3041.1000003814697,629925.3999996185,9003,NTS,B,18
1,17,test,4,C,circle.png,1,z,Fri May 09 2025 13:33:18 GMT-0400 (Eastern Daylight Time),634716.3000001907,1000,I,z,718,1,3,1742.0,632974.3000001907,9003,NTS,B,19
7,18,test,4,C,triangle.png,1,z,Fri May 09 2025 13:33:18 GMT-0400 (Eastern Daylight Time),637532.8999996185,1700,I,z,1093,22,3,2807.2999992370605,634725.6000003815,9003,NTS,B,20
2,19,test,4,C,circle.png,1,z,Fri May 09 2025 13:33:18 GMT-0400 (Eastern Daylight Time),639899.5,1700,I,z,643,10,3,2354.800000190735,637544.6999998093,9003,NTS,B,21
2,20,test,4,C,triangle.png,1,m,Fri May 09 2025 13:33:18 GMT-0400 (Eastern Daylight Time),642966.1999998093,2000,I,m,1032,18,3,3057.5999994277954,639908.6000003815,9003,NTS,B,22
7,21,test,4,C,circle.png,1,m,Fri May 09 2025 13:33:18 GMT-0400 (Eastern Daylight Time),645882.8999996185,2000,I,m,894,14,3,2906.199999809265,642976.6999998093,9003,NTS,B,23
9,22,test,4,C,circle.png,1,m,Fri May 09 2025 13:33:18 GMT-0400 (Eastern Daylight Time),648366.1000003815,1500,I,m,957,8,3,2474.2000007629395,645891.8999996185,9003,NTS,B,24
