Q,Q1,Q2,Q3,Q4,acc_sum,block,block_c,correct,correct_response,datetime,endtime,project,response,response_time,row_sel,session_number,squiggle1,squiggle1x,squiggle1y,squiggle2,squiggle2x,squiggle2y,squiggle3,squiggle3x,squiggle3y,squiggle4,squiggle4x,squiggle4y,start_end,starttime,subject_id,target_congruent,task,task_vers,testsquiggle,testsquigglex,testsquiggley,time_practice_delay,time_practice_fixation,time_practice_stimuli,time_practice_study,time_test_delay,time_test_fixation,time_test_stimuli,time_test_study,trial
1,1,0,0,0,1,prac,1,1,z,Fri May 29 2026 14:54:39 GMT-0500 (Central Daylight Time),121470.40000000596,I,z,1998,1,2,116.bmp,-120,-120,117.bmp,120,-120,118.bmp,-120,120,119.bmp,120,120,10793.700000017881,110676.69999998808,8100,yes,SM,A,116.bmp,-120,-120,114787,108760,116801,110772,,,,,1
3,0,0,1,0,2,prac,1,1,m,Fri May 29 2026 14:54:39 GMT-0500 (Central Daylight Time),131432.40000000596,I,m,1136,2,2,120.bmp,-120,-120,121.bmp,120,-120,122.bmp,-120,120,123.bmp,120,120,9956.300000011921,121476.09999999404,8100,no,SM,A,123.bmp,-120,120,125583,119559,127601,121568,,,,,2
4,0,0,0,1,3,prac,1,1,m,Fri May 29 2026 14:54:39 GMT-0500 (Central Daylight Time),141715.09999999404,I,m,1477,3,2,124.bmp,-120,-120,125.bmp,120,-120,126.bmp,-120,120,127.bmp,120,120,10275.0,131440.09999999404,8100,no,SM,A,124.bmp,120,120,135547,129523,137563,131532,,,,,3
2,0,1,0,0,4,prac,1,1,z,Fri May 29 2026 14:54:39 GMT-0500 (Central Daylight Time),152159.69999998808,I,z,1628,4,2,128.bmp,-120,-120,129.bmp,120,-120,130.bmp,-120,120,131.bmp,120,120,10440.90000000596,141718.79999998212,8100,yes,SM,A,129.bmp,120,-120,145828,139802,147844,141812,,,,,4
3,0,0,1,0,5,prac,1,1,z,Fri May 29 2026 14:54:39 GMT-0500 (Central Daylight Time),162371.79999998212,I,z,1393,5,2,132.bmp,-120,-120,133.bmp,120,-120,134.bmp,-120,120,135.bmp,120,120,10208.699999988079,152163.09999999404,8100,yes,SM,A,134.bmp,-120,120,156274,150246,158288,152260,,,,,5
1,1,0,0,0,6,prac,1,1,m,Fri May 29 2026 14:54:39 GMT-0500 (Central Daylight Time),172238.0,I,m,1056,6,2,136.bmp,-120,-120,137.bmp,120,-120,138.bmp,-120,120,139.bmp,120,120,9862.40000000596,162375.59999999404,8100,no,SM,A,139.bmp,-120,-120,166488,160459,168505,162473,,,,,6
2,0,1,0,0,7,prac,1,1,m,Fri May 29 2026 14:54:39 GMT-0500 (Central Daylight Time),182300.40000000596,I,m,1241,7,2,140.bmp,-120,-120,141.bmp,120,-120,142.bmp,-120,120,143.bmp,120,120,10057.600000023842,172242.79999998212,8100,no,SM,A,140.bmp,120,-120,176352,170326,178368,172336,,,,,7
4,0,0,0,1,7,prac,1,0,z,Fri May 29 2026 14:54:39 GMT-0500 (Central Daylight Time),192463.09999999404,I,m,1353,8,2,144.bmp,-120,-120,145.bmp,120,-120,146.bmp,-120,120,147.bmp,120,120,10156.59999999404,182306.5,8100,yes,SM,A,147.bmp,120,120,186414,180390,188415,182399,,,,,8
4,0,0,0,1,1,test,1,1,m,Fri May 29 2026 14:54:39 GMT-0500 (Central Daylight Time),207774.29999998212,I,m,1147,1,2,148.bmp,-120,-120,149.bmp,120,-120,150.bmp,-120,120,143.bmp,120,120,9192.0,198582.29999998212,8100,no,SM,A,150.bmp,120,120,186414,180390,188415,182399,202693.0,196665.0,204709.0,198679.0,1
2,0,1,0,0,2,test,1,1,m,Fri May 29 2026 14:54:39 GMT-0500 (Central Daylight Time),217121.29999998212,I,m,1284,2,2,101.bmp,-120,-120,102.bmp,120,-120,103.bmp,-120,120,104.bmp,120,120,9344.399999976158,207776.90000000596,8100,no,SM,A,103.bmp,120,-120,186414,180390,188415,182399,211890.0,205860.0,213907.0,207875.0,2
1,1,0,0,0,3,test,1,1,z,Fri May 29 2026 14:54:39 GMT-0500 (Central Daylight Time),226286.59999999404,I,z,1101,3,2,105.bmp,-120,-120,106.bmp,120,-120,107.bmp,-120,120,108.bmp,120,120,9161.300000011921,217125.29999998212,8100,yes,SM,A,105.bmp,-120,-120,186414,180390,188415,182399,221239.0,215209.0,223253.0,217223.0,3
3,0,0,1,0,4,test,1,1,m,Fri May 29 2026 14:54:39 GMT-0500 (Central Daylight Time),235549.0,I,m,1197,4,2,109.bmp,-120,-120,110.bmp,120,-120,111.bmp,-120,120,112.bmp,120,120,9258.40000000596,226290.59999999404,8100,no,SM,A,109.bmp,-120,120,186414,180390,188415,182399,230402.0,224374.0,232419.0,226385.0,4
2,0,1,0,0,4,test,1,0,z,Fri May 29 2026 14:54:39 GMT-0500 (Central Daylight Time),245597.79999998212,I,None,2001,5,2,113.bmp,-120,-120,114.bmp,120,-120,115.bmp,-120,120,116.bmp,120,120,10045.899999976158,235551.90000000596,8100,yes,SM,A,114.bmp,120,-120,186414,180390,188415,182399,239665.0,233635.0,241680.0,235648.0,5
3,0,0,1,0,5,test,1,1,z,Fri May 29 2026 14:54:39 GMT-0500 (Central Daylight Time),254976.09999999404,I,z,1321,6,2,117.bmp,-120,-120,118.bmp,120,-120,119.bmp,-120,120,120.bmp,120,120,9375.0,245601.09999999404,8100,yes,SM,A,119.bmp,-120,120,186414,180390,188415,182399,249711.0,243684.0,251727.0,245696.0,6
4,0,0,0,1,6,test,1,1,z,Fri May 29 2026 14:54:39 GMT-0500 (Central Daylight Time),264456.5,I,z,1429,7,2,121.bmp,-120,-120,122.bmp,120,-120,123.bmp,-120,120,124.bmp,120,120,9474.59999999404,254981.90000000596,8100,yes,SM,A,124.bmp,120,120,186414,180390,188415,182399,259091.0,253065.0,261107.0,255075.0,7
2,0,1,0,0,7,test,1,1,m,Fri May 29 2026 14:54:39 GMT-0500 (Central Daylight Time),273837.1999999881,I,m,1325,8,2,125.bmp,-120,-120,126.bmp,120,-120,127.bmp,-120,120,128.bmp,120,120,9374.5,264462.6999999881,8100,no,SM,A,125.bmp,120,-120,186414,180390,188415,182399,268572.0,262546.0,270588.0,264556.0,8
3,0,0,1,0,8,test,1,1,m,Fri May 29 2026 14:54:39 GMT-0500 (Central Daylight Time),282967.0,I,m,1070,9,2,129.bmp,-120,-120,130.bmp,120,-120,131.bmp,-120,120,132.bmp,120,120,9123.0,273844.0,8100,no,SM,A,130.bmp,-120,120,186414,180390,188415,182399,277952.0,271927.0,279969.0,273937.0,9
4,0,0,0,1,9,test,1,1,z,Fri May 29 2026 14:54:39 GMT-0500 (Central Daylight Time),292647.40000000596,I,z,1628,10,2,137.bmp,-120,-120,138.bmp,120,-120,139.bmp,-120,120,140.bmp,120,120,9675.40000000596,282972.0,8100,yes,SM,A,140.bmp,120,120,186414,180390,188415,182399,287082.0,281055.0,289100.0,283066.0,10
3,0,0,1,0,9,test,1,0,z,Fri May 29 2026 14:54:39 GMT-0500 (Central Daylight Time),302527.6999999881,I,m,1819,11,2,133.bmp,-120,-120,134.bmp,120,-120,135.bmp,-120,120,136.bmp,120,120,9874.299999982119,292653.40000000596,8100,yes,SM,A,135.bmp,-120,120,186414,180390,188415,182399,296763.0,290737.0,298780.0,292747.0,11
2,0,1,0,0,10,test,1,1,m,Fri May 29 2026 14:54:39 GMT-0500 (Central Daylight Time),311843.7999999821,I,m,1262,12,2,141.bmp,-120,-120,142.bmp,120,-120,143.bmp,-120,120,144.bmp,120,120,9312.699999988079,302531.09999999404,8100,no,SM,A,141.bmp,120,-120,186414,180390,188415,182399,306643.0,300614.0,308659.0,302629.0,12
3,0,0,1,0,11,test,1,1,m,Fri May 29 2026 14:54:39 GMT-0500 (Central Daylight Time),320873.6999999881,I,m,979,13,2,145.bmp,-120,-120,146.bmp,120,-120,147.bmp,-120,120,148.bmp,120,120,9026.5,311847.1999999881,8100,no,SM,A,146.bmp,-120,120,186414,180390,188415,182399,315957.0,309930.0,317972.0,311941.0,13
1,1,0,0,0,12,test,1,1,z,Fri May 29 2026 14:54:39 GMT-0500 (Central Daylight Time),330169.40000000596,I,z,1243,14,2,149.bmp,-120,-120,150.bmp,120,-120,104.bmp,-120,120,101.bmp,120,120,9292.90000000596,320876.5,8100,yes,SM,A,149.bmp,-120,-120,186414,180390,188415,182399,324987.0,318960.0,327004.0,320972.0,14
4,0,0,0,1,12,test,1,0,m,Fri May 29 2026 14:54:39 GMT-0500 (Central Daylight Time),340098.59999999404,I,z,1875,15,2,110.bmp,-120,-120,111.bmp,120,-120,112.bmp,-120,120,113.bmp,120,120,9925.199999988079,330173.40000000596,8100,no,SM,A,111.bmp,120,120,186414,180390,188415,182399,334284.0,328257.0,336300.0,330269.0,15
1,1,0,0,0,13,test,1,1,m,Fri May 29 2026 14:54:39 GMT-0500 (Central Daylight Time),349246.5,I,m,1090,16,2,102.bmp,-120,-120,103.bmp,120,-120,104.bmp,-120,120,105.bmp,120,120,9145.700000017881,340100.7999999821,8100,no,SM,A,105.bmp,-120,-120,186414,180390,188415,182399,344214.0,338184.0,346230.0,340198.0,16
3,0,0,1,0,13,test,1,0,m,Fri May 29 2026 14:54:39 GMT-0500 (Central Daylight Time),358710.6999999881,I,z,1398,17,2,122.bmp,-120,-120,123.bmp,120,-120,124.bmp,-120,120,125.bmp,120,120,9459.699999988079,349251.0,8100,no,SM,A,122.bmp,-120,120,186414,180390,188415,182399,353362.0,347334.0,355380.0,349346.0,17
1,1,0,0,0,13,test,1,0,z,Fri May 29 2026 14:54:39 GMT-0500 (Central Daylight Time),368757.5,I,m,1991,18,2,106.bmp,-120,-120,107.bmp,120,-120,108.bmp,-120,120,109.bmp,120,120,10043.700000017881,358713.7999999821,8100,yes,SM,A,106.bmp,-120,-120,186414,180390,188415,182399,362825.0,356797.0,364841.0,358811.0,18
2,0,1,0,0,14,test,1,1,z,Fri May 29 2026 14:54:39 GMT-0500 (Central Daylight Time),378202.90000000596,I,z,1409,19,2,126.bmp,-120,-120,127.bmp,120,-120,128.bmp,-120,120,129.bmp,120,120,9441.200000017881,368761.6999999881,8100,yes,SM,A,127.bmp,120,-120,186414,180390,188415,182399,372870.0,366845.0,374871.0,368857.0,19
3,0,0,1,0,14,test,1,0,z,Fri May 29 2026 14:54:39 GMT-0500 (Central Daylight Time),387350.6999999881,I,m,1090,20,2,130.bmp,-120,-120,131.bmp,120,-120,132.bmp,-120,120,133.bmp,120,120,9141.799999982119,378208.90000000596,8100,yes,SM,A,132.bmp,-120,120,186414,180390,188415,182399,382319.0,376292.0,384334.0,378303.0,20
1,1,0,0,0,15,test,1,1,m,Fri May 29 2026 14:54:39 GMT-0500 (Central Daylight Time),396664.2999999821,I,m,1254,21,2,114.bmp,-120,-120,115.bmp,120,-120,116.bmp,-120,120,117.bmp,120,120,9310.09999999404,387354.1999999881,8100,no,SM,A,116.bmp,-120,-120,186414,180390,188415,182399,391465.0,385437.0,393481.0,387450.0,21
4,0,0,0,1,16,test,1,1,z,Fri May 29 2026 14:54:39 GMT-0500 (Central Daylight Time),406293.40000000596,I,z,1571,22,2,118.bmp,-120,-120,119.bmp,120,-120,120.bmp,-120,120,121.bmp,120,120,9624.100000023842,396669.2999999821,8100,yes,SM,A,121.bmp,120,120,186414,180390,188415,182399,400779.0,394753.0,402796.0,396764.0,22
1,1,0,0,0,17,test,1,1,m,Fri May 29 2026 14:54:39 GMT-0500 (Central Daylight Time),415525.6999999881,I,m,1173,23,2,134.bmp,-120,-120,135.bmp,120,-120,136.bmp,-120,120,137.bmp,120,120,9229.59999999404,406296.09999999404,8100,no,SM,A,137.bmp,-120,-120,186414,180390,188415,182399,410410.0,404379.0,412428.0,406394.0,23
2,0,1,0,0,18,test,1,1,z,Fri May 29 2026 14:54:39 GMT-0500 (Central Daylight Time),424639.2999999821,I,z,1053,24,2,142.bmp,-120,-120,143.bmp,120,-120,144.bmp,-120,120,145.bmp,120,120,9109.199999988079,415530.09999999404,8100,yes,SM,A,143.bmp,120,-120,186414,180390,188415,182399,419639.0,413613.0,421655.0,415626.0,24
4,0,0,0,1,19,test,1,1,m,Fri May 29 2026 14:54:39 GMT-0500 (Central Daylight Time),433751.90000000596,I,m,1063,25,2,146.bmp,-120,-120,147.bmp,120,-120,148.bmp,-120,120,149.bmp,120,120,9108.0,424643.90000000596,8100,no,SM,A,148.bmp,120,120,186414,180390,188415,182399,428753.0,422727.0,430769.0,424738.0,25
1,1,0,0,0,19,test,1,0,z,Fri May 29 2026 14:54:39 GMT-0500 (Central Daylight Time),443048.7999999821,I,m,1242,26,2,138.bmp,-120,-120,139.bmp,120,-120,140.bmp,-120,120,141.bmp,120,120,9293.399999976158,433755.40000000596,8100,yes,SM,A,138.bmp,-120,-120,186414,180390,188415,182399,437868.0,431839.0,439885.0,433851.0,26
4,0,0,0,1,20,test,1,1,z,Fri May 29 2026 14:54:39 GMT-0500 (Central Daylight Time),452264.0,I,z,1151,27,2,150.bmp,-120,-120,111.bmp,120,-120,101.bmp,-120,120,102.bmp,120,120,9210.800000011921,443053.1999999881,8100,yes,SM,A,102.bmp,120,120,186414,180390,188415,182399,447165.0,441136.0,449181.0,443150.0,27
3,0,0,1,0,21,test,1,1,m,Fri May 29 2026 14:54:39 GMT-0500 (Central Daylight Time),462061.40000000596,I,m,1741,28,2,103.bmp,-120,-120,104.bmp,120,-120,105.bmp,-120,120,106.bmp,120,120,9792.800000011921,452268.59999999404,8100,no,SM,A,103.bmp,-120,120,186414,180390,188415,182399,456379.0,450352.0,458395.0,452364.0,28
2,0,1,0,0,21,test,1,0,z,Fri May 29 2026 14:54:39 GMT-0500 (Central Daylight Time),471823.40000000596,I,m,1711,29,2,107.bmp,-120,-120,108.bmp,120,-120,109.bmp,-120,120,110.bmp,120,120,9757.90000000596,462065.5,8100,yes,SM,A,108.bmp,120,-120,186414,180390,188415,182399,466176.0,460149.0,468192.0,462161.0,29
3,0,0,1,0,22,test,1,1,z,Fri May 29 2026 14:54:39 GMT-0500 (Central Daylight Time),480937.90000000596,I,z,1060,30,2,111.bmp,-120,-120,112.bmp,120,-120,113.bmp,-120,120,114.bmp,120,120,9111.300000011921,471826.59999999404,8100,yes,SM,A,113.bmp,-120,120,186414,180390,188415,182399,475939.0,469910.0,477955.0,471923.0,30
1,1,0,0,0,22,test,1,0,z,Fri May 29 2026 14:54:39 GMT-0500 (Central Daylight Time),490567.90000000596,I,m,1567,31,2,115.bmp,-120,-120,116.bmp,120,-120,117.bmp,-120,120,118.bmp,120,120,9627.600000023842,480940.2999999821,8100,yes,SM,A,115.bmp,-120,-120,186414,180390,188415,182399,485053.0,479024.0,487068.0,481037.0,31
2,0,1,0,0,23,test,1,1,m,Fri May 29 2026 14:54:39 GMT-0500 (Central Daylight Time),499648.2999999821,I,m,1046,32,2,119.bmp,-120,-120,120.bmp,120,-120,121.bmp,-120,120,122.bmp,120,120,9075.699999988079,490572.59999999404,8100,no,SM,A,119.bmp,120,-120,186414,180390,188415,182399,494667.0,488656.0,496682.0,490665.0,32
4,0,0,0,1,24,test,1,1,z,Fri May 29 2026 14:54:39 GMT-0500 (Central Daylight Time),509027.6999999881,I,z,1323,33,2,131.bmp,-120,-120,132.bmp,120,-120,133.bmp,-120,120,134.bmp,120,120,9374.299999982119,499653.40000000596,8100,yes,SM,A,134.bmp,120,120,186414,180390,188415,182399,503765.0,497737.0,505780.0,499748.0,33
2,0,1,0,0,24,test,1,0,z,Fri May 29 2026 14:54:39 GMT-0500 (Central Daylight Time),519076.7999999821,I,None,2015,34,2,123.bmp,-120,-120,124.bmp,120,-120,125.bmp,-120,120,126.bmp,120,120,10045.399999976158,509031.40000000596,8100,yes,SM,A,124.bmp,120,-120,186414,180390,188415,182399,513143.0,507115.0,515145.0,509129.0,34
4,0,0,0,1,25,test,1,1,m,Fri May 29 2026 14:54:39 GMT-0500 (Central Daylight Time),528189.6999999881,I,m,1052,35,2,127.bmp,-120,-120,128.bmp,120,-120,129.bmp,-120,120,130.bmp,120,120,9108.699999988079,519081.0,8100,no,SM,A,129.bmp,120,120,186414,180390,188415,182399,523190.0,517164.0,525206.0,519175.0,35
3,0,0,1,0,26,test,1,1,m,Fri May 29 2026 14:54:39 GMT-0500 (Central Daylight Time),538119.900000006,I,m,1878,36,2,135.bmp,-120,-120,136.bmp,120,-120,137.bmp,-120,120,138.bmp,120,120,9926.700000017881,528193.1999999881,8100,no,SM,A,135.bmp,-120,120,186414,180390,188415,182399,532304.0,526276.0,534322.0,528290.0,36
1,1,0,0,0,27,test,1,1,m,Fri May 29 2026 14:54:39 GMT-0500 (Central Daylight Time),547118.400000006,I,m,937,37,2,139.bmp,-120,-120,140.bmp,120,-120,141.bmp,-120,120,142.bmp,120,120,8995.300000011921,538123.099999994,8100,no,SM,A,140.bmp,-120,-120,186414,180390,188415,182399,542233.0,536206.0,544250.0,538219.0,37
2,0,1,0,0,28,test,1,1,m,Fri May 29 2026 14:54:39 GMT-0500 (Central Daylight Time),556215.2999999821,I,m,1059,38,2,143.bmp,-120,-120,144.bmp,120,-120,145.bmp,-120,120,146.bmp,120,120,9092.799999982119,547122.5,8100,no,SM,A,145.bmp,120,-120,186414,180390,188415,182399,551217.0,545206.0,553230.0,547216.0,38
4,0,0,0,1,29,test,1,1,z,Fri May 29 2026 14:54:39 GMT-0500 (Central Daylight Time),565495.5,I,z,1218,39,2,147.bmp,-120,-120,148.bmp,120,-120,149.bmp,-120,120,150.bmp,120,120,9276.90000000596,556218.599999994,8100,yes,SM,A,150.bmp,120,120,186414,180390,188415,182399,560329.0,554302.0,562345.0,556314.0,39
3,0,0,1,0,30,test,1,1,m,Fri May 29 2026 14:54:39 GMT-0500 (Central Daylight Time),574490.2999999821,I,m,933,40,2,104.bmp,-120,-120,105.bmp,120,-120,106.bmp,-120,120,107.bmp,120,120,8990.899999976158,565499.400000006,8100,no,SM,A,105.bmp,-120,120,186414,180390,188415,182399,569609.0,563583.0,571626.0,565595.0,40
1,1,0,0,0,30,test,1,0,z,Fri May 29 2026 14:54:39 GMT-0500 (Central Daylight Time),583572.5,I,m,1025,41,2,108.bmp,-120,-120,109.bmp,120,-120,110.bmp,-120,120,111.bmp,120,120,9079.200000017881,574493.2999999821,8100,yes,SM,A,108.bmp,-120,-120,186414,180390,188415,182399,578606.0,572577.0,580623.0,574591.0,41
4,0,0,0,1,31,test,1,1,z,Fri May 29 2026 14:54:39 GMT-0500 (Central Daylight Time),592835.599999994,I,z,1200,42,2,112.bmp,-120,-120,113.bmp,120,-120,114.bmp,-120,120,115.bmp,120,120,9259.800000011921,583575.7999999821,8100,yes,SM,A,115.bmp,120,120,186414,180390,188415,182399,587686.0,581659.0,589704.0,583674.0,42
1,1,0,0,0,32,test,1,1,z,Fri May 29 2026 14:54:39 GMT-0500 (Central Daylight Time),602149.599999994,I,z,1260,43,2,116.bmp,-120,-120,117.bmp,120,-120,118.bmp,-120,120,119.bmp,120,120,9310.09999999404,592839.5,8100,yes,SM,A,116.bmp,-120,-120,186414,180390,188415,182399,596951.0,590923.0,598965.0,592935.0,43
4,0,0,0,1,33,test,1,1,m,Fri May 29 2026 14:54:39 GMT-0500 (Central Daylight Time),611078.2999999821,I,m,879,44,2,104.bmp,-120,-120,101.bmp,120,-120,102.bmp,-120,120,103.bmp,120,120,8925.299999982119,602153.0,8100,no,SM,A,104.bmp,120,120,186414,180390,188415,182399,606266.0,600237.0,608280.0,602249.0,44
1,1,0,0,0,34,test,1,1,m,Fri May 29 2026 14:54:39 GMT-0500 (Central Daylight Time),620060.400000006,I,m,925,45,2,128.bmp,-120,-120,129.bmp,120,-120,130.bmp,-120,120,131.bmp,120,120,8979.90000000596,611080.5,8100,no,SM,A,131.bmp,-120,-120,186414,180390,188415,182399,615194.0,609164.0,617211.0,611179.0,45
1,1,0,0,0,35,test,1,1,m,Fri May 29 2026 14:54:39 GMT-0500 (Central Daylight Time),629089.900000006,I,m,968,46,2,120.bmp,-120,-120,121.bmp,120,-120,122.bmp,-120,120,123.bmp,120,120,9025.90000000596,620064.0,8100,no,SM,A,121.bmp,-120,-120,186414,180390,188415,182399,624175.0,618147.0,626192.0,620159.0,46
3,0,0,1,0,36,test,1,1,z,Fri May 29 2026 14:54:39 GMT-0500 (Central Daylight Time),638020.599999994,I,z,868,47,2,124.bmp,-120,-120,125.bmp,120,-120,126.bmp,-120,120,127.bmp,120,120,8926.09999999404,629094.5,8100,yes,SM,A,126.bmp,-120,120,186414,180390,188415,182399,633205.0,627178.0,635221.0,629190.0,47
3,0,0,1,0,37,test,1,1,z,Fri May 29 2026 14:54:39 GMT-0500 (Central Daylight Time),646735.099999994,I,z,651,48,2,140.bmp,-120,-120,141.bmp,120,-120,142.bmp,-120,120,143.bmp,120,120,8708.09999999404,638027.0,8100,yes,SM,A,142.bmp,-120,120,186414,180390,188415,182399,642136.0,636110.0,644152.0,638120.0,48
2,0,1,0,0,37,test,1,0,z,Fri May 29 2026 14:54:39 GMT-0500 (Central Daylight Time),655967.0,I,m,1185,49,2,136.bmp,-120,-120,137.bmp,120,-120,138.bmp,-120,120,139.bmp,120,120,9228.90000000596,646738.099999994,8100,yes,SM,A,137.bmp,120,-120,186414,180390,188415,182399,650851.0,644821.0,652865.0,646835.0,49
3,0,0,1,0,37,test,1,0,m,Fri May 29 2026 14:54:39 GMT-0500 (Central Daylight Time),665011.400000006,I,z,984,50,2,132.bmp,-120,-120,133.bmp,120,-120,134.bmp,-120,120,135.bmp,120,120,9040.40000000596,655971.0,8100,no,SM,A,132.bmp,-120,120,186414,180390,188415,182399,660080.0,654054.0,662096.0,656065.0,50
2,0,1,0,0,37,test,1,0,z,Fri May 29 2026 14:54:39 GMT-0500 (Central Daylight Time),674408.5,I,m,1343,51,2,144.bmp,-120,-120,145.bmp,120,-120,146.bmp,-120,120,147.bmp,120,120,9393.200000017881,665015.2999999821,8100,yes,SM,A,145.bmp,120,-120,186414,180390,188415,182399,669127.0,663099.0,671144.0,665113.0,51
4,0,0,0,1,38,test,1,1,m,Fri May 29 2026 14:54:39 GMT-0500 (Central Daylight Time),683239.6999999881,I,m,784,52,2,148.bmp,-120,-120,149.bmp,120,-120,150.bmp,-120,120,131.bmp,120,120,8828.40000000596,674411.2999999821,8100,no,SM,A,148.bmp,120,120,186414,180390,188415,182399,678523.0,672494.0,680524.0,674508.0,52
3,0,0,1,0,39,test,1,1,z,Fri May 29 2026 14:54:39 GMT-0500 (Central Daylight Time),692753.2999999821,I,z,1459,53,2,101.bmp,-120,-120,102.bmp,120,-120,103.bmp,-120,120,104.bmp,120,120,9510.0,683243.2999999821,8100,yes,SM,A,103.bmp,-120,120,186414,180390,188415,182399,687355.0,681327.0,689372.0,683340.0,53
1,1,0,0,0,39,test,1,0,m,Fri May 29 2026 14:54:39 GMT-0500 (Central Daylight Time),701934.599999994,I,z,1118,54,2,105.bmp,-120,-120,106.bmp,120,-120,107.bmp,-120,120,108.bmp,120,120,9178.0,692756.599999994,8100,no,SM,A,107.bmp,-120,-120,186414,180390,188415,182399,696868.0,690840.0,698884.0,692854.0,54
4,0,0,0,1,39,test,1,0,z,Fri May 29 2026 14:54:39 GMT-0500 (Central Daylight Time),711080.6999999881,I,m,1096,55,2,109.bmp,-120,-120,110.bmp,120,-120,111.bmp,-120,120,112.bmp,120,120,9142.59999999404,701938.099999994,8100,yes,SM,A,112.bmp,120,120,186414,180390,188415,182399,706049.0,700021.0,708064.0,702035.0,55
2,0,1,0,0,40,test,1,1,m,Fri May 29 2026 14:54:39 GMT-0500 (Central Daylight Time),720660.900000006,I,m,1524,56,2,113.bmp,-120,-120,114.bmp,120,-120,115.bmp,-120,120,116.bmp,120,120,9577.100000023842,711083.7999999821,8100,no,SM,A,113.bmp,120,-120,186414,180390,188415,182399,715196.0,709167.0,717212.0,711180.0,56
4,0,0,0,1,40,test,1,0,m,Fri May 29 2026 14:54:39 GMT-0500 (Central Daylight Time),729891.7999999821,I,z,1176,57,2,117.bmp,-120,-120,118.bmp,120,-120,119.bmp,-120,120,120.bmp,120,120,9227.09999999404,720664.6999999881,8100,no,SM,A,118.bmp,120,120,186414,180390,188415,182399,724777.0,718748.0,726792.0,720761.0,57
3,0,0,1,0,41,test,1,1,z,Fri May 29 2026 14:54:39 GMT-0500 (Central Daylight Time),738738.900000006,I,z,794,58,2,121.bmp,-120,-120,122.bmp,120,-120,123.bmp,-120,120,124.bmp,120,120,8843.40000000596,729895.5,8100,yes,SM,A,123.bmp,-120,120,186414,180390,188415,182399,734006.0,727979.0,736022.0,729990.0,58
2,0,1,0,0,42,test,1,1,m,Fri May 29 2026 14:54:39 GMT-0500 (Central Daylight Time),747652.099999994,I,m,859,59,2,125.bmp,-120,-120,126.bmp,120,-120,127.bmp,-120,120,128.bmp,120,120,8910.699999988079,738741.400000006,8100,no,SM,A,128.bmp,120,-120,186414,180390,188415,182399,742853.0,736825.0,744869.0,738839.0,59
1,1,0,0,0,42,test,1,0,z,Fri May 29 2026 14:54:39 GMT-0500 (Central Daylight Time),757232.6999999881,I,m,1529,60,2,129.bmp,-120,-120,130.bmp,120,-120,131.bmp,-120,120,132.bmp,120,120,9574.699999988079,747658.0,8100,yes,SM,A,129.bmp,-120,-120,186414,180390,188415,182399,751767.0,745741.0,753783.0,747752.0,60
2,0,1,0,0,43,test,1,1,z,Fri May 29 2026 14:54:39 GMT-0500 (Central Daylight Time),766630.0,I,z,1334,61,2,133.bmp,-120,-120,134.bmp,120,-120,135.bmp,-120,120,136.bmp,120,120,9392.59999999404,757237.400000006,8100,yes,SM,A,134.bmp,120,-120,186414,180390,188415,182399,761348.0,755321.0,763363.0,757333.0,61
4,0,0,0,1,43,test,1,0,z,Fri May 29 2026 14:54:39 GMT-0500 (Central Daylight Time),776243.400000006,I,m,1560,62,2,141.bmp,-120,-120,142.bmp,120,-120,143.bmp,-120,120,144.bmp,120,120,9610.0,766633.400000006,8100,yes,SM,A,144.bmp,120,120,186414,180390,188415,182399,770745.0,764717.0,772760.0,766731.0,62
1,1,0,0,0,44,test,1,1,m,Fri May 29 2026 14:54:39 GMT-0500 (Central Daylight Time),785123.7999999821,I,m,827,63,2,145.bmp,-120,-120,146.bmp,120,-120,147.bmp,-120,120,148.bmp,120,120,8876.899999976158,776246.900000006,8100,no,SM,A,145.bmp,-120,120,186414,180390,188415,182399,780359.0,774330.0,782374.0,776343.0,63
2,0,1,0,0,45,test,1,1,z,Fri May 29 2026 14:54:39 GMT-0500 (Central Daylight Time),794573.1999999881,I,z,1384,64,2,149.bmp,-120,-120,150.bmp,120,-120,112.bmp,-120,120,101.bmp,120,120,9445.09999999404,785128.099999994,8100,yes,SM,A,150.bmp,120,-120,186414,180390,188415,182399,789239.0,783211.0,791257.0,785225.0,64
4,0,0,0,1,46,test,1,1,m,Fri May 29 2026 14:54:39 GMT-0500 (Central Daylight Time),803734.400000006,I,m,1117,65,2,102.bmp,-120,-120,103.bmp,120,-120,104.bmp,-120,120,105.bmp,120,120,9158.100000023842,794576.2999999821,8100,no,SM,A,104.bmp,120,120,186414,180390,188415,182399,798671.0,792660.0,800686.0,794670.0,65
3,0,0,1,0,47,test,1,1,m,Fri May 29 2026 14:54:39 GMT-0500 (Central Daylight Time),812716.0,I,m,927,66,2,106.bmp,-120,-120,107.bmp,120,-120,108.bmp,-120,120,109.bmp,120,120,8979.5,803736.5,8100,no,SM,A,109.bmp,-120,120,186414,180390,188415,182399,807849.0,801820.0,809866.0,803834.0,66
2,0,1,0,0,48,test,1,1,m,Fri May 29 2026 14:54:39 GMT-0500 (Central Daylight Time),821730.2999999821,I,m,952,67,2,137.bmp,-120,-120,138.bmp,120,-120,139.bmp,-120,120,140.bmp,120,120,9011.899999976158,812718.400000006,8100,no,SM,A,139.bmp,120,-120,186414,180390,188415,182399,816832.0,810802.0,818848.0,812816.0,67
3,0,0,1,0,48,test,1,0,z,Fri May 29 2026 14:54:39 GMT-0500 (Central Daylight Time),831058.5,I,m,1292,68,2,110.bmp,-120,-120,111.bmp,120,-120,112.bmp,-120,120,113.bmp,120,120,9325.0,821733.5,8100,yes,SM,A,112.bmp,-120,120,186414,180390,188415,182399,825843.0,819817.0,827844.0,821828.0,68
1,1,0,0,0,49,test,1,1,m,Fri May 29 2026 14:54:39 GMT-0500 (Central Daylight Time),839975.0,I,m,856,69,2,114.bmp,-120,-120,115.bmp,120,-120,116.bmp,-120,120,117.bmp,120,120,8913.59999999404,831061.400000006,8100,no,SM,A,115.bmp,-120,-120,186414,180390,188415,182399,835174.0,829144.0,837191.0,831159.0,69
2,0,1,0,0,50,test,1,1,m,Fri May 29 2026 14:54:39 GMT-0500 (Central Daylight Time),849040.2999999821,I,m,1020,70,2,118.bmp,-120,-120,119.bmp,120,-120,120.bmp,-120,120,121.bmp,120,120,9060.699999988079,839979.599999994,8100,no,SM,A,120.bmp,120,-120,186414,180390,188415,182399,844073.0,838063.0,846086.0,840071.0,70
4,0,0,0,1,50,test,1,0,z,Fri May 29 2026 14:54:39 GMT-0500 (Central Daylight Time),858467.5,I,m,1374,71,2,122.bmp,-120,-120,123.bmp,120,-120,124.bmp,-120,120,125.bmp,120,120,9423.09999999404,849044.400000006,8100,yes,SM,A,125.bmp,120,120,186414,180390,188415,182399,853152.0,847128.0,855170.0,849137.0,71
1,1,0,0,0,51,test,1,1,z,Fri May 29 2026 14:54:39 GMT-0500 (Central Daylight Time),867365.900000006,I,z,836,72,2,126.bmp,-120,-120,127.bmp,120,-120,128.bmp,-120,120,129.bmp,120,120,8894.700000017881,858471.1999999881,8100,yes,SM,A,126.bmp,-120,-120,186414,180390,188415,182399,862582.0,856554.0,864598.0,858567.0,72
2,0,1,0,0,52,test,1,1,z,Fri May 29 2026 14:54:39 GMT-0500 (Central Daylight Time),876411.2999999821,I,z,992,73,2,130.bmp,-120,-120,131.bmp,120,-120,132.bmp,-120,120,133.bmp,120,120,9040.299999982119,867371.0,8100,yes,SM,A,131.bmp,120,-120,186414,180390,188415,182399,871479.0,865454.0,873495.0,867465.0,73
4,0,0,0,1,53,test,1,1,m,Fri May 29 2026 14:54:39 GMT-0500 (Central Daylight Time),885341.599999994,I,m,865,74,2,134.bmp,-120,-120,135.bmp,120,-120,136.bmp,-120,120,137.bmp,120,120,8927.800000011921,876413.7999999821,8100,no,SM,A,136.bmp,120,120,186414,180390,188415,182399,880526.0,874497.0,882543.0,876512.0,74
2,0,1,0,0,53,test,1,0,m,Fri May 29 2026 14:54:39 GMT-0500 (Central Daylight Time),895406.900000006,I,None,2014,75,2,138.bmp,-120,-120,139.bmp,120,-120,140.bmp,-120,120,141.bmp,120,120,10060.600000023842,885346.2999999821,8100,no,SM,A,141.bmp,120,-120,186414,180390,188415,182399,889457.0,883429.0,891475.0,885442.0,75
1,1,0,0,0,54,test,1,1,z,Fri May 29 2026 14:54:39 GMT-0500 (Central Daylight Time),904769.1999999881,I,z,1316,76,2,142.bmp,-120,-120,143.bmp,120,-120,144.bmp,-120,120,145.bmp,120,120,9356.799999982119,895412.400000006,8100,yes,SM,A,142.bmp,-120,-120,186414,180390,188415,182399,899520.0,893496.0,901536.0,895505.0,76
3,0,0,1,0,55,test,1,1,z,Fri May 29 2026 14:54:39 GMT-0500 (Central Daylight Time),913816.099999994,I,z,998,77,2,150.bmp,-120,-120,111.bmp,120,-120,101.bmp,-120,120,102.bmp,120,120,9043.90000000596,904772.1999999881,8100,yes,SM,A,101.bmp,-120,120,186414,180390,188415,182399,908885.0,902855.0,910898.0,904869.0,77
1,1,0,0,0,56,test,1,1,m,Fri May 29 2026 14:54:39 GMT-0500 (Central Daylight Time),922847.400000006,I,m,984,78,2,146.bmp,-120,-120,147.bmp,120,-120,148.bmp,-120,120,149.bmp,120,120,9027.100000023842,913820.2999999821,8100,no,SM,A,147.bmp,-120,-120,186414,180390,188415,182399,917916.0,911903.0,919931.0,913915.0,78
4,0,0,0,1,57,test,1,1,m,Fri May 29 2026 14:54:39 GMT-0500 (Central Daylight Time),931792.6999999881,I,m,894,79,2,107.bmp,-120,-120,108.bmp,120,-120,109.bmp,-120,120,110.bmp,120,120,8941.5,922851.1999999881,8100,no,SM,A,107.bmp,120,120,186414,180390,188415,182399,926963.0,920934.0,928977.0,922947.0,79
3,0,0,1,0,58,test,1,1,m,Fri May 29 2026 14:54:39 GMT-0500 (Central Daylight Time),940775.599999994,I,m,918,80,2,103.bmp,-120,-120,104.bmp,120,-120,105.bmp,-120,120,106.bmp,120,120,8979.699999988079,931795.900000006,8100,no,SM,A,106.bmp,-120,120,186414,180390,188415,182399,935909.0,929879.0,937925.0,931893.0,80
