acc_sum,block,block_c,change,condition,correct,correct_response,datetime,endtime,face,project,response,response_time,row_sel,session_number,start_end,starttime,subject_id,task,task_vers,trial
0,prac,1,,1-Back,,,Thu Mar 12 2026 14:24:50 GMT-0500 (Central Daylight Time),,124_o_f_d_a.png,O,space,3485,1,1,,,7768,VNB,A,0
0,prac,1,0.0,1-Back,0.0,m,Thu Mar 12 2026 14:24:50 GMT-0500 (Central Daylight Time),119317.30000019073,071_y_f_n_a.png,O,z,1325,2,1,2166.5,117150.80000019073,7768,VNB,A,1
1,prac,1,0.0,1-Back,1.0,m,Thu Mar 12 2026 14:24:50 GMT-0500 (Central Daylight Time),121666.70000004768,165_m_m_h_a.png,O,m,1521,3,1,2341.5999999046326,119325.10000014305,7768,VNB,A,2
1,prac,1,0.0,1-Back,0.0,m,Thu Mar 12 2026 14:24:50 GMT-0500 (Central Daylight Time),123949.10000014305,109_y_m_d_a.png,O,z,1450,4,1,2274.7999999523163,121674.30000019073,7768,VNB,A,3
1,prac,1,0.0,1-Back,0.0,m,Thu Mar 12 2026 14:24:50 GMT-0500 (Central Daylight Time),126814.80000019073,124_o_f_n_a.png,O,None,2014,5,1,2859.2000000476837,123955.60000014305,7768,VNB,A,4
1,prac,1,1.0,1-Back,0.0,z,Thu Mar 12 2026 14:24:50 GMT-0500 (Central Daylight Time),129264.80000019073,109_y_m_n_a.png,O,m,1622,6,1,2441.600000143051,126823.20000004768,7768,VNB,A,5
2,prac,1,0.0,1-Back,1.0,m,Thu Mar 12 2026 14:24:50 GMT-0500 (Central Daylight Time),131714.30000019073,039_o_m_h_a.png,O,m,1601,7,1,2429.9000000953674,129284.40000009537,7768,VNB,A,6
3,prac,1,0.0,1-Back,1.0,m,Thu Mar 12 2026 14:24:50 GMT-0500 (Central Daylight Time),134263.20000004768,139_m_f_d_a.png,O,m,1696,8,1,2524.0999999046326,131739.10000014305,7768,VNB,A,7
4,prac,1,1.0,1-Back,1.0,z,Thu Mar 12 2026 14:24:50 GMT-0500 (Central Daylight Time),135879.0,071_y_f_d_a.png,O,z,761,9,1,1593.1999998092651,134285.80000019073,7768,VNB,A,8
5,prac,1,0.0,1-Back,1.0,m,Thu Mar 12 2026 14:24:50 GMT-0500 (Central Daylight Time),137912.10000014305,165_m_m_n_a.png,O,m,1179,10,1,2013.9000000953674,135898.20000004768,7768,VNB,A,9
6,prac,1,0.0,1-Back,1.0,m,Thu Mar 12 2026 14:24:50 GMT-0500 (Central Daylight Time),139744.10000014305,124_o_f_h_a.png,O,m,947,11,1,1807.0,137937.10000014305,7768,VNB,A,10
7,prac,1,0.0,1-Back,1.0,m,Thu Mar 12 2026 14:24:50 GMT-0500 (Central Daylight Time),141461.0,109_y_m_d_a.png,O,m,939,12,1,1708.2999999523163,139752.70000004768,7768,VNB,A,11
0,prac,2,0.0,1-Back,,,Thu Mar 12 2026 14:24:50 GMT-0500 (Central Daylight Time),141461.0,124_o_f_d_a.png,O,a,18513,1,1,1708.2999999523163,139752.70000004768,7768,VNB,A,0
1,prac,2,0.0,1-Back,1.0,m,Thu Mar 12 2026 14:24:50 GMT-0500 (Central Daylight Time),164636.5,071_y_f_n_a.png,O,m,742,2,1,1575.0,163061.5,7768,VNB,A,1
2,prac,2,0.0,1-Back,1.0,m,Thu Mar 12 2026 14:24:50 GMT-0500 (Central Daylight Time),166452.10000014305,165_m_m_h_a.png,O,m,968,3,1,1793.7000000476837,164658.40000009537,7768,VNB,A,2
3,prac,2,0.0,1-Back,1.0,m,Thu Mar 12 2026 14:24:50 GMT-0500 (Central Daylight Time),168185.40000009537,109_y_m_d_a.png,O,m,942,4,1,1726.0999999046326,166459.30000019073,7768,VNB,A,3
4,prac,2,0.0,1-Back,1.0,m,Thu Mar 12 2026 14:24:50 GMT-0500 (Central Daylight Time),169985.10000014305,124_o_f_n_a.png,O,m,903,5,1,1768.7000000476837,168216.40000009537,7768,VNB,A,4
5,prac,2,1.0,1-Back,1.0,z,Thu Mar 12 2026 14:24:50 GMT-0500 (Central Daylight Time),171868.10000014305,109_y_m_n_a.png,O,z,1027,6,1,1860.2000000476837,170007.90000009537,7768,VNB,A,5
6,prac,2,0.0,1-Back,1.0,m,Thu Mar 12 2026 14:24:50 GMT-0500 (Central Daylight Time),173650.10000014305,039_o_m_h_a.png,O,m,930,7,1,1760.7999999523163,171889.30000019073,7768,VNB,A,6
7,prac,2,0.0,1-Back,1.0,m,Thu Mar 12 2026 14:24:50 GMT-0500 (Central Daylight Time),175250.10000014305,139_m_f_d_a.png,O,m,740,8,1,1579.9000000953674,173670.20000004768,7768,VNB,A,7
8,prac,2,1.0,1-Back,1.0,z,Thu Mar 12 2026 14:24:50 GMT-0500 (Central Daylight Time),176715.80000019073,071_y_f_d_a.png,O,z,605,9,1,1443.3000001907349,175272.5,7768,VNB,A,8
9,prac,2,0.0,1-Back,1.0,m,Thu Mar 12 2026 14:24:50 GMT-0500 (Central Daylight Time),178632.0,165_m_m_n_a.png,O,m,1071,10,1,1896.3999998569489,176735.60000014305,7768,VNB,A,9
10,prac,2,0.0,1-Back,1.0,m,Thu Mar 12 2026 14:24:50 GMT-0500 (Central Daylight Time),180364.20000004768,124_o_f_h_a.png,O,m,860,11,1,1708.3999998569489,178655.80000019073,7768,VNB,A,10
11,prac,2,0.0,1-Back,1.0,m,Thu Mar 12 2026 14:24:50 GMT-0500 (Central Daylight Time),181913.60000014305,109_y_m_d_a.png,O,m,766,12,1,1539.5,180374.10000014305,7768,VNB,A,11
0,test,1,0.0,1-Back,,,Thu Mar 12 2026 14:24:50 GMT-0500 (Central Daylight Time),181913.60000014305,071_y_f_d_a.png,O,space,11570,1,1,1539.5,180374.10000014305,7768,VNB,A,0
1,test,1,0.0,1-Back,1.0,m,Thu Mar 12 2026 14:24:50 GMT-0500 (Central Daylight Time),207489.40000009537,139_m_f_n_a.png,O,m,836,2,1,1851.7999999523163,205637.60000014305,7768,VNB,A,1
2,test,1,0.0,1-Back,1.0,m,Thu Mar 12 2026 14:24:50 GMT-0500 (Central Daylight Time),209371.70000004768,039_o_m_h_a.png,O,m,841,3,1,1868.0999999046326,207503.60000014305,7768,VNB,A,2
2,test,1,1.0,1-Back,0.0,z,Thu Mar 12 2026 14:24:50 GMT-0500 (Central Daylight Time),212403.5,165_m_m_h_a.png,O,None,2014,4,1,3018.2999999523163,209385.20000004768,7768,VNB,A,3
3,test,1,0.0,1-Back,1.0,m,Thu Mar 12 2026 14:24:50 GMT-0500 (Central Daylight Time),214086.80000019073,124_o_f_n_a.png,O,m,656,5,1,1679.0,212407.80000019073,7768,VNB,A,4
4,test,1,0.0,1-Back,1.0,m,Thu Mar 12 2026 14:24:50 GMT-0500 (Central Daylight Time),216019.70000004768,109_y_m_d_a.png,O,m,909,6,1,1922.7000000476837,214097.0,7768,VNB,A,5
4,test,1,1.0,1-Back,0.0,z,Thu Mar 12 2026 14:24:50 GMT-0500 (Central Daylight Time),219052.40000009537,139_m_f_d_a.png,O,None,2015,7,1,3018.4000000953674,216034.0,7768,VNB,A,6
5,test,1,0.0,1-Back,1.0,m,Thu Mar 12 2026 14:24:50 GMT-0500 (Central Daylight Time),220901.5,071_y_f_h_a.png,O,m,807,8,1,1835.0,219066.5,7768,VNB,A,7
6,test,1,0.0,1-Back,1.0,m,Thu Mar 12 2026 14:24:50 GMT-0500 (Central Daylight Time),222700.30000019073,039_o_m_n_a.png,O,m,772,9,1,1784.7000000476837,220915.60000014305,7768,VNB,A,8
7,test,1,0.0,1-Back,1.0,m,Thu Mar 12 2026 14:24:50 GMT-0500 (Central Daylight Time),224566.60000014305,109_y_m_h_a.png,O,m,847,10,1,1860.2999999523163,222706.30000019073,7768,VNB,A,9
8,test,1,0.0,1-Back,1.0,m,Thu Mar 12 2026 14:24:50 GMT-0500 (Central Daylight Time),226432.70000004768,039_o_m_d_a.png,O,m,844,11,1,1851.2000000476837,224581.5,7768,VNB,A,10
8,test,1,1.0,1-Back,0.0,z,Thu Mar 12 2026 14:24:50 GMT-0500 (Central Daylight Time),229482.0,124_o_f_d_a.png,O,None,2015,12,1,3034.0999999046326,226447.90000009537,7768,VNB,A,11
9,test,1,0.0,1-Back,1.0,m,Thu Mar 12 2026 14:24:50 GMT-0500 (Central Daylight Time),231360.40000009537,165_m_m_n_a.png,O,m,840,13,1,1864.0999999046326,229496.30000019073,7768,VNB,A,12
9,test,1,1.0,1-Back,0.0,z,Thu Mar 12 2026 14:24:50 GMT-0500 (Central Daylight Time),234396.80000019073,071_y_f_n_a.png,O,None,2015,14,1,3030.4000000953674,231366.40000009537,7768,VNB,A,13
10,test,1,0.0,1-Back,1.0,m,Thu Mar 12 2026 14:24:50 GMT-0500 (Central Daylight Time),236479.5,139_m_f_h_a.png,O,m,1063,15,1,2069.199999809265,234410.30000019073,7768,VNB,A,14
11,test,1,0.0,1-Back,1.0,m,Thu Mar 12 2026 14:24:50 GMT-0500 (Central Daylight Time),238395.10000014305,165_m_m_d_a.png,O,m,891,16,1,1900.7999999523163,236494.30000019073,7768,VNB,A,15
12,test,1,0.0,1-Back,1.0,m,Thu Mar 12 2026 14:24:50 GMT-0500 (Central Daylight Time),240311.70000004768,109_y_m_n_a.png,O,m,896,17,1,1910.8999998569489,238400.80000019073,7768,VNB,A,16
13,test,1,0.0,1-Back,1.0,m,Thu Mar 12 2026 14:24:50 GMT-0500 (Central Daylight Time),242111.30000019073,124_o_f_h_a.png,O,m,771,18,1,1785.9000000953674,240325.40000009537,7768,VNB,A,17
0,test,2,0.0,1-Back,,,Thu Mar 12 2026 14:24:50 GMT-0500 (Central Daylight Time),242111.30000019073,109_y_m_n_a.png,O,space,1771,1,1,1785.9000000953674,240325.40000009537,7768,VNB,A,0
1,test,2,0.0,1-Back,1.0,m,Thu Mar 12 2026 14:24:50 GMT-0500 (Central Daylight Time),247775.90000009537,071_y_f_h_a.png,O,m,831,2,1,1851.4000000953674,245924.5,7768,VNB,A,1
2,test,2,1.0,1-Back,1.0,m,Thu Mar 12 2026 14:24:50 GMT-0500 (Central Daylight Time),249442.10000014305,039_o_m_n_a.png,O,m,644,3,1,1652.1000001430511,247790.0,7768,VNB,A,2
3,test,2,0.0,1-Back,1.0,m,Thu Mar 12 2026 14:24:50 GMT-0500 (Central Daylight Time),251391.20000004768,139_m_f_d_a.png,O,m,929,4,1,1935.0,249456.20000004768,7768,VNB,A,3
3,test,2,0.0,1-Back,0.0,z,Thu Mar 12 2026 14:24:50 GMT-0500 (Central Daylight Time),254423.90000009537,165_m_m_d_a.png,O,None,2016,5,1,3018.7000000476837,251405.20000004768,7768,VNB,A,4
4,test,2,0.0,1-Back,1.0,m,Thu Mar 12 2026 14:24:50 GMT-0500 (Central Daylight Time),256289.60000014305,109_y_m_h_a.png,O,m,829,6,1,1852.2000000476837,254437.40000009537,7768,VNB,A,5
4,test,2,1.0,1-Back,0.0,z,Thu Mar 12 2026 14:24:50 GMT-0500 (Central Daylight Time),259338.80000019073,124_o_f_h_a.png,O,None,2016,7,1,3034.7000000476837,256304.10000014305,7768,VNB,A,6
5,test,2,0.0,1-Back,1.0,m,Thu Mar 12 2026 14:24:50 GMT-0500 (Central Daylight Time),261320.70000004768,139_m_f_n_a.png,O,m,951,8,1,1968.2000000476837,259352.5,7768,VNB,A,7
6,test,2,0.0,1-Back,1.0,m,Thu Mar 12 2026 14:24:50 GMT-0500 (Central Daylight Time),263070.7000000477,071_y_f_d_a.png,O,m,731,9,1,1746.2000000476837,261324.5,7768,VNB,A,8
7,test,2,0.0,1-Back,1.0,m,Thu Mar 12 2026 14:24:50 GMT-0500 (Central Daylight Time),264820.30000019073,165_m_m_n_a.png,O,m,714,10,1,1735.8000001907349,263084.5,7768,VNB,A,9
8,test,2,1.0,1-Back,1.0,m,Thu Mar 12 2026 14:24:50 GMT-0500 (Central Daylight Time),266736.60000014305,139_m_f_h_a.png,O,m,886,11,1,1903.2000000476837,264833.40000009537,7768,VNB,A,10
8,test,2,0.0,1-Back,0.0,z,Thu Mar 12 2026 14:24:50 GMT-0500 (Central Daylight Time),269785.2000000477,039_o_m_h_a.png,O,None,2016,12,1,3034.2999999523163,266750.90000009537,7768,VNB,A,11
9,test,2,0.0,1-Back,1.0,m,Thu Mar 12 2026 14:24:50 GMT-0500 (Central Daylight Time),271718.0,109_y_m_d_a.png,O,m,906,13,1,1919.1999998092651,269798.80000019073,7768,VNB,A,12
10,test,2,0.0,1-Back,1.0,m,Thu Mar 12 2026 14:24:50 GMT-0500 (Central Daylight Time),273683.2000000477,124_o_f_n_a.png,O,m,948,14,1,1951.0,271732.2000000477,7768,VNB,A,13
10,test,2,0.0,1-Back,0.0,z,Thu Mar 12 2026 14:24:50 GMT-0500 (Central Daylight Time),276716.2000000477,071_y_f_n_a.png,O,None,2015,15,1,3028.7999999523163,273687.40000009537,7768,VNB,A,14
11,test,2,1.0,1-Back,1.0,m,Thu Mar 12 2026 14:24:50 GMT-0500 (Central Daylight Time),278566.0,165_m_m_h_a.png,O,m,823,16,1,1835.6999998092651,276730.30000019073,7768,VNB,A,15
12,test,2,0.0,1-Back,1.0,m,Thu Mar 12 2026 14:24:50 GMT-0500 (Central Daylight Time),280231.7000000477,124_o_f_d_a.png,O,m,628,17,1,1649.3999998569489,278582.30000019073,7768,VNB,A,16
12,test,2,1.0,1-Back,0.0,z,Thu Mar 12 2026 14:24:50 GMT-0500 (Central Daylight Time),283264.40000009537,039_o_m_d_a.png,O,None,2015,18,1,3019.2999999523163,280245.10000014305,7768,VNB,A,17
0,test,3,1.0,1-Back,,,Thu Mar 12 2026 14:24:50 GMT-0500 (Central Daylight Time),283264.40000009537,124_o_f_h_a.png,O,space,1666,1,1,3019.2999999523163,280245.10000014305,7768,VNB,A,0
1,test,3,0.0,1-Back,1.0,m,Thu Mar 12 2026 14:24:50 GMT-0500 (Central Daylight Time),288762.30000019073,139_m_f_d_a.png,O,m,668,2,1,1685.3000001907349,287077.0,7768,VNB,A,1
2,test,3,1.0,1-Back,1.0,m,Thu Mar 12 2026 14:24:50 GMT-0500 (Central Daylight Time),290629.10000014305,165_m_m_n_a.png,O,m,849,3,1,1859.6000001430511,288769.5,7768,VNB,A,2
2,test,3,0.0,1-Back,0.0,z,Thu Mar 12 2026 14:24:50 GMT-0500 (Central Daylight Time),293677.40000009537,124_o_f_n_a.png,O,None,2016,4,1,3034.2000000476837,290643.2000000477,7768,VNB,A,3
3,test,3,1.0,1-Back,1.0,m,Thu Mar 12 2026 14:24:50 GMT-0500 (Central Daylight Time),295660.40000009537,039_o_m_d_a.png,O,m,950,5,1,1969.5999999046326,293690.80000019073,7768,VNB,A,4
4,test,3,0.0,1-Back,1.0,m,Thu Mar 12 2026 14:24:50 GMT-0500 (Central Daylight Time),297358.80000019073,071_y_f_h_a.png,O,m,678,6,1,1684.9000000953674,295673.90000009537,7768,VNB,A,5
4,test,3,0.0,1-Back,0.0,z,Thu Mar 12 2026 14:24:50 GMT-0500 (Central Daylight Time),300392.10000014305,109_y_m_h_a.png,O,None,2015,7,1,3027.4000000953674,297364.7000000477,7768,VNB,A,6
5,test,3,0.0,1-Back,1.0,m,Thu Mar 12 2026 14:24:50 GMT-0500 (Central Daylight Time),302041.5,139_m_f_n_a.png,O,m,627,8,1,1635.1999998092651,300406.30000019073,7768,VNB,A,7
6,test,3,0.0,1-Back,1.0,m,Thu Mar 12 2026 14:24:50 GMT-0500 (Central Daylight Time),303873.40000009537,071_y_f_d_a.png,O,m,800,9,1,1818.9000000953674,302054.5,7768,VNB,A,8
7,test,3,1.0,1-Back,1.0,m,Thu Mar 12 2026 14:24:50 GMT-0500 (Central Daylight Time),305589.80000019073,039_o_m_n_a.png,O,m,688,10,1,1712.3000001907349,303877.5,7768,VNB,A,9
8,test,3,0.0,1-Back,1.0,m,Thu Mar 12 2026 14:24:50 GMT-0500 (Central Daylight Time),308055.90000009537,165_m_m_h_a.png,O,m,1446,11,1,2458.4000000953674,305597.5,7768,VNB,A,10
8,test,3,0.0,1-Back,0.0,z,Thu Mar 12 2026 14:24:50 GMT-0500 (Central Daylight Time),311088.30000019073,139_m_f_h_a.png,O,None,2016,12,1,3018.5,308069.80000019073,7768,VNB,A,11
9,test,3,1.0,1-Back,1.0,m,Thu Mar 12 2026 14:24:50 GMT-0500 (Central Daylight Time),312904.2000000477,124_o_f_d_a.png,O,m,785,13,1,1803.2000000476837,311101.0,7768,VNB,A,12
9,test,3,0.0,1-Back,0.0,z,Thu Mar 12 2026 14:24:50 GMT-0500 (Central Daylight Time),315936.90000009537,165_m_m_d_a.png,O,None,2016,14,1,3024.5999999046326,312912.30000019073,7768,VNB,A,13
10,test,3,0.0,1-Back,1.0,m,Thu Mar 12 2026 14:24:50 GMT-0500 (Central Daylight Time),317736.2000000477,109_y_m_n_a.png,O,m,779,15,1,1785.7999999523163,315950.40000009537,7768,VNB,A,14
11,test,3,1.0,1-Back,1.0,m,Thu Mar 12 2026 14:24:50 GMT-0500 (Central Daylight Time),319552.5,039_o_m_h_a.png,O,m,786,16,1,1803.1999998092651,317749.30000019073,7768,VNB,A,15
12,test,3,0.0,1-Back,1.0,m,Thu Mar 12 2026 14:24:50 GMT-0500 (Central Daylight Time),321317.7000000477,109_y_m_d_a.png,O,m,745,17,1,1751.7999999523163,319565.90000009537,7768,VNB,A,16
12,test,3,1.0,1-Back,0.0,m,Thu Mar 12 2026 14:24:50 GMT-0500 (Central Daylight Time),324350.80000019073,071_y_f_n_a.png,O,None,2016,18,1,3027.7000000476837,321323.10000014305,7768,VNB,A,17
0,test,4,1.0,1-Back,,,Thu Mar 12 2026 14:24:50 GMT-0500 (Central Daylight Time),324350.80000019073,165_m_m_d_a.png,O,space,1613,1,1,3027.7000000476837,321323.10000014305,7768,VNB,A,0
0,test,4,0.0,1-Back,0.0,z,Thu Mar 12 2026 14:24:50 GMT-0500 (Central Daylight Time),331014.40000009537,039_o_m_d_a.png,O,None,2014,2,1,3018.5999999046326,327995.80000019073,7768,VNB,A,1
0,test,4,0.0,1-Back,0.0,m,Thu Mar 12 2026 14:24:50 GMT-0500 (Central Daylight Time),334047.40000009537,109_y_m_h_a.png,O,None,2016,3,1,3027.2000000476837,331020.2000000477,7768,VNB,A,2
1,test,4,0.0,1-Back,1.0,m,Thu Mar 12 2026 14:24:50 GMT-0500 (Central Daylight Time),335963.5,139_m_f_n_a.png,O,m,890,4,1,1902.0,334061.5,7768,VNB,A,3
2,test,4,1.0,1-Back,1.0,m,Thu Mar 12 2026 14:24:50 GMT-0500 (Central Daylight Time),337863.10000014305,124_o_f_h_a.png,O,m,871,5,1,1887.7999999523163,335975.30000019073,7768,VNB,A,4
3,test,4,0.0,1-Back,1.0,m,Thu Mar 12 2026 14:24:50 GMT-0500 (Central Daylight Time),339595.7000000477,165_m_m_n_a.png,O,m,700,6,1,1719.2999999523163,337876.40000009537,7768,VNB,A,5
4,test,4,0.0,1-Back,1.0,m,Thu Mar 12 2026 14:24:50 GMT-0500 (Central Daylight Time),341361.90000009537,109_y_m_d_a.png,O,m,744,7,1,1752.5,339609.40000009537,7768,VNB,A,6
4,test,4,1.0,1-Back,0.0,z,Thu Mar 12 2026 14:24:50 GMT-0500 (Central Daylight Time),344410.30000019073,071_y_f_d_a.png,O,None,2015,8,1,3033.5,341376.80000019073,7768,VNB,A,7
5,test,4,0.0,1-Back,1.0,m,Thu Mar 12 2026 14:24:50 GMT-0500 (Central Daylight Time),346443.60000014305,139_m_f_h_a.png,O,m,1009,9,1,2023.2999999523163,344420.30000019073,7768,VNB,A,8
5,test,4,0.0,1-Back,0.0,z,Thu Mar 12 2026 14:24:50 GMT-0500 (Central Daylight Time),349475.80000019073,039_o_m_h_a.png,O,None,2016,10,1,3019.0,346456.80000019073,7768,VNB,A,9
6,test,4,1.0,1-Back,1.0,m,Thu Mar 12 2026 14:24:50 GMT-0500 (Central Daylight Time),351307.80000019073,124_o_f_n_a.png,O,m,806,11,1,1818.8000001907349,349489.0,7768,VNB,A,10
7,test,4,0.0,1-Back,1.0,m,Thu Mar 12 2026 14:24:50 GMT-0500 (Central Daylight Time),353291.40000009537,139_m_f_d_a.png,O,m,950,12,1,1977.5,351313.90000009537,7768,VNB,A,11
8,test,4,0.0,1-Back,1.0,m,Thu Mar 12 2026 14:24:50 GMT-0500 (Central Daylight Time),355457.30000019073,071_y_f_n_a.png,O,m,1136,13,1,2153.2000000476837,353304.10000014305,7768,VNB,A,12
8,test,4,0.0,1-Back,0.0,m,Thu Mar 12 2026 14:24:50 GMT-0500 (Central Daylight Time),358489.60000014305,124_o_f_d_a.png,O,None,2015,14,1,3019.0,355470.60000014305,7768,VNB,A,13
9,test,4,0.0,1-Back,1.0,m,Thu Mar 12 2026 14:24:50 GMT-0500 (Central Daylight Time),360371.90000009537,071_y_f_h_a.png,O,m,857,15,1,1868.7000000476837,358503.2000000477,7768,VNB,A,14
9,test,4,1.0,1-Back,0.0,z,Thu Mar 12 2026 14:24:50 GMT-0500 (Central Daylight Time),363404.60000014305,165_m_m_h_a.png,O,None,2015,16,1,3026.0,360378.60000014305,7768,VNB,A,15
10,test,4,0.0,1-Back,1.0,m,Thu Mar 12 2026 14:24:50 GMT-0500 (Central Daylight Time),365203.80000019073,039_o_m_n_a.png,O,m,767,17,1,1786.0,363417.80000019073,7768,VNB,A,16
10,test,4,1.0,1-Back,0.0,z,Thu Mar 12 2026 14:24:50 GMT-0500 (Central Daylight Time),368236.40000009537,109_y_m_n_a.png,O,None,2016,18,1,3018.7999999523163,365217.60000014305,7768,VNB,A,17
0,test,5,1.0,1-Back,,,Thu Mar 12 2026 14:24:50 GMT-0500 (Central Daylight Time),368236.40000009537,039_o_m_n_a.png,O,space,1375,1,1,3018.7999999523163,365217.60000014305,7768,VNB,A,0
1,test,5,1.0,1-Back,1.0,m,Thu Mar 12 2026 14:24:50 GMT-0500 (Central Daylight Time),373484.80000019073,124_o_f_h_a.png,O,m,807,2,1,1836.1000001430511,371648.7000000477,7768,VNB,A,1
2,test,5,0.0,1-Back,1.0,m,Thu Mar 12 2026 14:24:50 GMT-0500 (Central Daylight Time),375367.10000014305,109_y_m_d_a.png,O,m,862,3,1,1869.2999999523163,373497.80000019073,7768,VNB,A,2
2,test,5,0.0,1-Back,0.0,z,Thu Mar 12 2026 14:24:50 GMT-0500 (Central Daylight Time),378399.0,039_o_m_d_a.png,O,None,2015,4,1,3022.0,375377.0,7768,VNB,A,3
3,test,5,0.0,1-Back,1.0,m,Thu Mar 12 2026 14:24:50 GMT-0500 (Central Daylight Time),380065.5,139_m_f_h_a.png,O,m,634,5,1,1661.2999999523163,378404.2000000477,7768,VNB,A,4
4,test,5,0.0,1-Back,1.0,m,Thu Mar 12 2026 14:24:50 GMT-0500 (Central Daylight Time),381748.60000014305,071_y_f_n_a.png,O,m,649,6,1,1676.4000000953674,380072.2000000477,7768,VNB,A,5
4,test,5,1.0,1-Back,0.0,z,Thu Mar 12 2026 14:24:50 GMT-0500 (Central Daylight Time),384780.90000009537,124_o_f_n_a.png,O,None,2015,7,1,3019.4000000953674,381761.5,7768,VNB,A,6
5,test,5,0.0,1-Back,1.0,m,Thu Mar 12 2026 14:24:50 GMT-0500 (Central Daylight Time),386563.80000019073,139_m_f_d_a.png,O,m,754,8,1,1769.5,384794.30000019073,7768,VNB,A,7
6,test,5,0.0,1-Back,1.0,m,Thu Mar 12 2026 14:24:50 GMT-0500 (Central Daylight Time),388446.10000014305,109_y_m_h_a.png,O,m,864,9,1,1868.6000001430511,386577.5,7768,VNB,A,8
7,test,5,0.0,1-Back,1.0,m,Thu Mar 12 2026 14:24:50 GMT-0500 (Central Daylight Time),390228.40000009537,071_y_f_d_a.png,O,m,763,10,1,1768.4000000953674,388460.0,7768,VNB,A,9
8,test,5,0.0,1-Back,1.0,m,Thu Mar 12 2026 14:24:50 GMT-0500 (Central Daylight Time),392228.90000009537,165_m_m_n_a.png,O,m,982,11,1,1995.7000000476837,390233.2000000477,7768,VNB,A,10
8,test,5,1.0,1-Back,0.0,z,Thu Mar 12 2026 14:24:50 GMT-0500 (Central Daylight Time),395260.7000000477,139_m_f_n_a.png,O,None,2016,12,1,3018.0999999046326,392242.60000014305,7768,VNB,A,11
9,test,5,0.0,1-Back,1.0,m,Thu Mar 12 2026 14:24:50 GMT-0500 (Central Daylight Time),397360.10000014305,039_o_m_h_a.png,O,m,1070,13,1,2086.0,395274.10000014305,7768,VNB,A,12
9,test,5,0.0,1-Back,0.0,z,Thu Mar 12 2026 14:24:50 GMT-0500 (Central Daylight Time),400392.90000009537,165_m_m_h_a.png,O,None,2016,14,1,3018.7000000476837,397374.2000000477,7768,VNB,A,13
10,test,5,1.0,1-Back,1.0,m,Thu Mar 12 2026 14:24:50 GMT-0500 (Central Daylight Time),402075.30000019073,124_o_f_d_a.png,O,m,650,15,1,1668.4000000953674,400406.90000009537,7768,VNB,A,14
10,test,5,0.0,1-Back,0.0,m,Thu Mar 12 2026 14:24:50 GMT-0500 (Central Daylight Time),405107.7000000477,109_y_m_n_a.png,O,None,2014,16,1,3019.2999999523163,402088.40000009537,7768,VNB,A,15
11,test,5,0.0,1-Back,1.0,m,Thu Mar 12 2026 14:24:50 GMT-0500 (Central Daylight Time),406990.5,071_y_f_h_a.png,O,m,855,17,1,1869.3999998569489,405121.10000014305,7768,VNB,A,16
12,test,5,0.0,1-Back,1.0,m,Thu Mar 12 2026 14:24:50 GMT-0500 (Central Daylight Time),408856.40000009537,165_m_m_d_a.png,O,m,846,18,1,1852.2000000476837,407004.2000000477,7768,VNB,A,17
0,prac,1,0.0,2-Back,,,Thu Mar 12 2026 14:24:50 GMT-0500 (Central Daylight Time),408856.40000009537,139_m_f_n_a.png,O,space,5276,1,1,1852.2000000476837,407004.2000000477,7768,VNB,A,0
0,prac,1,0.0,2-Back,,,Thu Mar 12 2026 14:24:50 GMT-0500 (Central Daylight Time),408856.40000009537,124_o_f_h_a.png,O,space,5276,2,1,1852.2000000476837,407004.2000000477,7768,VNB,A,0
1,prac,1,0.0,2-Back,1.0,m,Thu Mar 12 2026 14:24:50 GMT-0500 (Central Daylight Time),530466.7000000477,039_o_m_d_a.png,O,m,1550,3,1,2374.2999999523163,528092.4000000954,7768,VNB,A,1
2,prac,1,1.0,2-Back,1.0,z,Thu Mar 12 2026 14:24:50 GMT-0500 (Central Daylight Time),532598.4000000954,165_m_m_h_a.png,O,z,1263,4,1,2109.2999999523163,530489.100000143,7768,VNB,A,2
3,prac,1,0.0,2-Back,1.0,m,Thu Mar 12 2026 14:24:50 GMT-0500 (Central Daylight Time),534731.9000000954,071_y_f_n_a.png,O,m,1312,5,1,2126.2999999523163,532605.600000143,7768,VNB,A,3
4,prac,1,1.0,2-Back,1.0,z,Thu Mar 12 2026 14:24:50 GMT-0500 (Central Daylight Time),536597.8000001907,039_o_m_h_a.png,O,z,1070,6,1,1839.9000000953674,534757.9000000954,7768,VNB,A,4
4,prac,1,1.0,2-Back,0.0,z,Thu Mar 12 2026 14:24:50 GMT-0500 (Central Daylight Time),538513.8000001907,109_y_m_n_a.png,O,m,1045,7,1,1894.5,536619.3000001907,7768,VNB,A,5
5,prac,1,0.0,2-Back,1.0,m,Thu Mar 12 2026 14:24:50 GMT-0500 (Central Daylight Time),540429.0,139_m_f_d_a.png,O,m,1086,8,1,1905.2999999523163,538523.7000000477,7768,VNB,A,6
6,prac,1,0.0,2-Back,1.0,m,Thu Mar 12 2026 14:24:50 GMT-0500 (Central Daylight Time),543095.7000000477,124_o_f_d_a.png,O,m,1796,9,1,2660.899999856949,540434.8000001907,7768,VNB,A,7
6,prac,1,0.0,2-Back,0.0,m,Thu Mar 12 2026 14:24:50 GMT-0500 (Central Daylight Time),544745.3000001907,165_m_m_h_a.png,O,z,842,10,1,1625.1000001430511,543120.2000000477,7768,VNB,A,8
6,prac,1,1.0,2-Back,0.0,z,Thu Mar 12 2026 14:24:50 GMT-0500 (Central Daylight Time),547043.5,071_y_f_d_a.png,O,m,1444,11,1,2275.899999856949,544767.600000143,7768,VNB,A,9
7,prac,1,0.0,2-Back,1.0,m,Thu Mar 12 2026 14:24:50 GMT-0500 (Central Daylight Time),549643.2000000477,039_o_m_n_a.png,O,m,1782,12,1,2592.5999999046326,547050.600000143,7768,VNB,A,10
0,prac,2,0.0,2-Back,,,Thu Mar 12 2026 14:24:50 GMT-0500 (Central Daylight Time),549643.2000000477,139_m_f_n_a.png,O,a,1707,1,1,2592.5999999046326,547050.600000143,7768,VNB,A,0
0,prac,2,0.0,2-Back,,,Thu Mar 12 2026 14:24:50 GMT-0500 (Central Daylight Time),549643.2000000477,124_o_f_h_a.png,O,a,1707,2,1,2592.5999999046326,547050.600000143,7768,VNB,A,0
1,prac,2,0.0,2-Back,1.0,m,Thu Mar 12 2026 14:24:50 GMT-0500 (Central Daylight Time),558640.8000001907,039_o_m_d_a.png,O,m,1255,3,1,2074.0,556566.8000001907,7768,VNB,A,1
2,prac,2,1.0,2-Back,1.0,z,Thu Mar 12 2026 14:24:50 GMT-0500 (Central Daylight Time),560690.0,165_m_m_h_a.png,O,z,1243,4,1,2027.3999998569489,558662.600000143,7768,VNB,A,2
3,prac,2,0.0,2-Back,1.0,m,Thu Mar 12 2026 14:24:50 GMT-0500 (Central Daylight Time),562588.5,071_y_f_n_a.png,O,m,1036,5,1,1875.6999998092651,560712.8000001907,7768,VNB,A,3
4,prac,2,1.0,2-Back,1.0,z,Thu Mar 12 2026 14:24:50 GMT-0500 (Central Daylight Time),564538.600000143,039_o_m_h_a.png,O,z,1133,6,1,1944.1000001430511,562594.5,7768,VNB,A,4
4,prac,2,1.0,2-Back,0.0,z,Thu Mar 12 2026 14:24:50 GMT-0500 (Central Daylight Time),566387.100000143,109_y_m_n_a.png,O,m,999,7,1,1829.7999999523163,564557.3000001907,7768,VNB,A,5
5,prac,2,0.0,2-Back,1.0,m,Thu Mar 12 2026 14:24:50 GMT-0500 (Central Daylight Time),568270.7000000477,139_m_f_d_a.png,O,m,1058,8,1,1877.2999999523163,566393.4000000954,7768,VNB,A,6
6,prac,2,0.0,2-Back,1.0,m,Thu Mar 12 2026 14:24:50 GMT-0500 (Central Daylight Time),570386.600000143,124_o_f_d_a.png,O,m,1211,9,1,2094.100000143051,568292.5,7768,VNB,A,7
6,prac,2,0.0,2-Back,0.0,m,Thu Mar 12 2026 14:24:50 GMT-0500 (Central Daylight Time),572136.0,165_m_m_h_a.png,O,z,952,10,1,1723.5999999046326,570412.4000000954,7768,VNB,A,8
6,prac,2,1.0,2-Back,0.0,z,Thu Mar 12 2026 14:24:50 GMT-0500 (Central Daylight Time),574751.9000000954,071_y_f_d_a.png,O,m,1759,11,1,2593.2000000476837,572158.7000000477,7768,VNB,A,9
6,prac,2,0.0,2-Back,0.0,m,Thu Mar 12 2026 14:24:50 GMT-0500 (Central Daylight Time),577234.4000000954,039_o_m_n_a.png,O,z,1638,12,1,2465.7999999523163,574768.600000143,7768,VNB,A,10
0,prac,3,0.0,2-Back,,,Thu Mar 12 2026 14:24:50 GMT-0500 (Central Daylight Time),577234.4000000954,139_m_f_n_a.png,O,a,3353,1,1,2465.7999999523163,574768.600000143,7768,VNB,A,0
0,prac,3,0.0,2-Back,,,Thu Mar 12 2026 14:24:50 GMT-0500 (Central Daylight Time),577234.4000000954,124_o_f_h_a.png,O,a,3353,2,1,2465.7999999523163,574768.600000143,7768,VNB,A,0
1,prac,3,0.0,2-Back,1.0,m,Thu Mar 12 2026 14:24:50 GMT-0500 (Central Daylight Time),587747.600000143,039_o_m_d_a.png,O,m,1003,3,1,1836.7999999523163,585910.8000001907,7768,VNB,A,1
2,prac,3,1.0,2-Back,1.0,z,Thu Mar 12 2026 14:24:50 GMT-0500 (Central Daylight Time),589730.3000001907,165_m_m_h_a.png,O,z,1185,4,1,1959.2000000476837,587771.100000143,7768,VNB,A,2
3,prac,3,0.0,2-Back,1.0,m,Thu Mar 12 2026 14:24:50 GMT-0500 (Central Daylight Time),591779.7000000477,071_y_f_n_a.png,O,m,1190,5,1,2024.8999998569489,589754.8000001907,7768,VNB,A,3
4,prac,3,1.0,2-Back,1.0,z,Thu Mar 12 2026 14:24:50 GMT-0500 (Central Daylight Time),593611.7000000477,039_o_m_h_a.png,O,z,999,6,1,1812.7000000476837,591799.0,7768,VNB,A,4
4,prac,3,1.0,2-Back,0.0,z,Thu Mar 12 2026 14:24:50 GMT-0500 (Central Daylight Time),595511.9000000954,109_y_m_n_a.png,O,m,1053,7,1,1891.0,593620.9000000954,7768,VNB,A,5
5,prac,3,0.0,2-Back,1.0,m,Thu Mar 12 2026 14:24:50 GMT-0500 (Central Daylight Time),597810.5,139_m_f_d_a.png,O,m,1432,8,1,2274.899999856949,595535.600000143,7768,VNB,A,6
6,prac,3,0.0,2-Back,1.0,m,Thu Mar 12 2026 14:24:50 GMT-0500 (Central Daylight Time),600126.2000000477,124_o_f_d_a.png,O,m,1447,9,1,2306.0,597820.2000000477,7768,VNB,A,7
7,prac,3,0.0,2-Back,1.0,m,Thu Mar 12 2026 14:24:50 GMT-0500 (Central Daylight Time),602376.4000000954,165_m_m_h_a.png,O,m,1462,10,1,2243.9000000953674,600132.5,7768,VNB,A,8
8,prac,3,1.0,2-Back,1.0,z,Thu Mar 12 2026 14:24:50 GMT-0500 (Central Daylight Time),604141.600000143,071_y_f_d_a.png,O,z,903,11,1,1740.2000000476837,602401.4000000954,7768,VNB,A,9
9,prac,3,0.0,2-Back,1.0,m,Thu Mar 12 2026 14:24:50 GMT-0500 (Central Daylight Time),606074.9000000954,039_o_m_n_a.png,O,m,1111,12,1,1923.5999999046326,604151.3000001907,7768,VNB,A,10
0,test,1,0.0,2-Back,,,Thu Mar 12 2026 14:24:50 GMT-0500 (Central Daylight Time),606074.9000000954,109_y_m_h_a.png,O,space,7377,1,1,1923.5999999046326,604151.3000001907,7768,VNB,A,0
0,test,1,0.0,2-Back,,,Thu Mar 12 2026 14:24:50 GMT-0500 (Central Daylight Time),606074.9000000954,124_o_f_n_a.png,O,space,7377,2,1,1923.5999999046326,604151.3000001907,7768,VNB,A,0
1,test,1,0.0,2-Back,1.0,z,Thu Mar 12 2026 14:24:50 GMT-0500 (Central Daylight Time),627502.100000143,039_o_m_h_a.png,O,z,649,3,1,1669.0,625833.100000143,7768,VNB,A,1
2,test,1,0.0,2-Back,1.0,m,Thu Mar 12 2026 14:24:50 GMT-0500 (Central Daylight Time),629617.3000001907,139_m_f_d_a.png,O,m,1071,4,1,2100.9000000953674,627516.4000000954,7768,VNB,A,2
3,test,1,1.0,2-Back,1.0,m,Thu Mar 12 2026 14:24:50 GMT-0500 (Central Daylight Time),631799.600000143,109_y_m_n_a.png,O,m,1147,5,1,2165.0,629634.600000143,7768,VNB,A,3
4,test,1,0.0,2-Back,1.0,z,Thu Mar 12 2026 14:24:50 GMT-0500 (Central Daylight Time),633849.0,071_y_f_d_a.png,O,z,1012,6,1,2033.1999998092651,631815.8000001907,7768,VNB,A,4
5,test,1,0.0,2-Back,1.0,m,Thu Mar 12 2026 14:24:50 GMT-0500 (Central Daylight Time),636131.3000001907,165_m_m_h_a.png,O,m,1250,7,1,2271.7000000476837,633859.600000143,7768,VNB,A,5
6,test,1,1.0,2-Back,1.0,m,Thu Mar 12 2026 14:24:50 GMT-0500 (Central Daylight Time),638281.0,071_y_f_n_a.png,O,m,1121,8,1,2142.0999999046326,636138.9000000954,7768,VNB,A,6
7,test,1,0.0,2-Back,1.0,z,Thu Mar 12 2026 14:24:50 GMT-0500 (Central Daylight Time),640430.0,124_o_f_h_a.png,O,z,1127,9,1,2134.899999856949,638295.100000143,7768,VNB,A,7
8,test,1,0.0,2-Back,1.0,m,Thu Mar 12 2026 14:24:50 GMT-0500 (Central Daylight Time),642612.100000143,039_o_m_d_a.png,O,m,1157,10,1,2168.0,640444.100000143,7768,VNB,A,8
9,test,1,1.0,2-Back,1.0,m,Thu Mar 12 2026 14:24:50 GMT-0500 (Central Daylight Time),645012.3000001907,165_m_m_d_a.png,O,m,1366,11,1,2392.9000000953674,642619.4000000954,7768,VNB,A,9
10,test,1,0.0,2-Back,1.0,m,Thu Mar 12 2026 14:24:50 GMT-0500 (Central Daylight Time),647161.5,139_m_f_n_a.png,O,m,1119,12,1,2135.5999999046326,645025.9000000954,7768,VNB,A,10
11,test,1,0.0,2-Back,1.0,m,Thu Mar 12 2026 14:24:50 GMT-0500 (Central Daylight Time),649360.4000000954,071_y_f_h_a.png,O,m,1178,13,1,2185.5,647174.9000000954,7768,VNB,A,11
12,test,1,0.0,2-Back,1.0,z,Thu Mar 12 2026 14:24:50 GMT-0500 (Central Daylight Time),651160.100000143,165_m_m_n_a.png,O,z,779,14,1,1790.2999999523163,649369.8000001907,7768,VNB,A,12
12,test,1,0.0,2-Back,0.0,m,Thu Mar 12 2026 14:24:50 GMT-0500 (Central Daylight Time),653825.7000000477,109_y_m_d_a.png,O,z,1618,15,1,2650.7000000476837,651175.0,7768,VNB,A,13
12,test,1,1.0,2-Back,0.0,m,Thu Mar 12 2026 14:24:50 GMT-0500 (Central Daylight Time),656007.9000000954,139_m_f_h_a.png,O,z,1160,16,1,2168.7000000476837,653839.2000000477,7768,VNB,A,14
12,test,1,0.0,2-Back,0.0,z,Thu Mar 12 2026 14:24:50 GMT-0500 (Central Daylight Time),658107.100000143,124_o_f_d_a.png,O,m,1074,17,1,2093.600000143051,656013.5,7768,VNB,A,15
13,test,1,0.0,2-Back,1.0,m,Thu Mar 12 2026 14:24:50 GMT-0500 (Central Daylight Time),660572.9000000954,039_o_m_n_a.png,O,m,1438,18,1,2460.0,658112.9000000954,7768,VNB,A,16
0,test,2,0.0,2-Back,,,Thu Mar 12 2026 14:24:50 GMT-0500 (Central Daylight Time),660572.9000000954,165_m_m_h_a.png,O,space,5701,1,1,2460.0,658112.9000000954,7768,VNB,A,0
0,test,2,0.0,2-Back,,,Thu Mar 12 2026 14:24:50 GMT-0500 (Central Daylight Time),660572.9000000954,071_y_f_n_a.png,O,space,5701,2,1,2460.0,658112.9000000954,7768,VNB,A,0
1,test,2,1.0,2-Back,1.0,z,Thu Mar 12 2026 14:24:50 GMT-0500 (Central Daylight Time),673253.0,124_o_f_h_a.png,O,z,751,3,1,1768.6999998092651,671484.3000001907,7768,VNB,A,1
2,test,2,0.0,2-Back,1.0,m,Thu Mar 12 2026 14:24:50 GMT-0500 (Central Daylight Time),675285.7000000477,039_o_m_d_a.png,O,m,999,4,1,2019.0,673266.7000000477,7768,VNB,A,2
3,test,2,0.0,2-Back,1.0,m,Thu Mar 12 2026 14:24:50 GMT-0500 (Central Daylight Time),677250.7000000477,139_m_f_d_a.png,O,m,932,5,1,1952.2000000476837,675298.5,7768,VNB,A,3
3,test,2,0.0,2-Back,0.0,m,Thu Mar 12 2026 14:24:50 GMT-0500 (Central Daylight Time),679117.8000001907,109_y_m_h_a.png,O,z,848,6,1,1862.1000001430511,677255.7000000477,7768,VNB,A,4
3,test,2,0.0,2-Back,0.0,m,Thu Mar 12 2026 14:24:50 GMT-0500 (Central Daylight Time),681699.9000000954,124_o_f_n_a.png,O,z,1558,7,1,2567.7999999523163,679132.100000143,7768,VNB,A,5
4,test,2,1.0,2-Back,1.0,z,Thu Mar 12 2026 14:24:50 GMT-0500 (Central Daylight Time),683499.5,039_o_m_h_a.png,O,z,777,8,1,1785.0999999046326,681714.4000000954,7768,VNB,A,6
5,test,2,0.0,2-Back,1.0,m,Thu Mar 12 2026 14:24:50 GMT-0500 (Central Daylight Time),685398.7000000477,071_y_f_d_a.png,O,m,881,9,1,1885.5999999046326,683513.100000143,7768,VNB,A,7
6,test,2,0.0,2-Back,1.0,m,Thu Mar 12 2026 14:24:50 GMT-0500 (Central Daylight Time),687714.7000000477,109_y_m_d_a.png,O,m,1284,10,1,2302.2000000476837,685412.5,7768,VNB,A,8
7,test,2,0.0,2-Back,1.0,m,Thu Mar 12 2026 14:24:50 GMT-0500 (Central Daylight Time),690046.8000001907,165_m_m_n_a.png,O,m,1311,11,1,2318.5,687728.3000001907,7768,VNB,A,9
7,test,2,0.0,2-Back,0.0,m,Thu Mar 12 2026 14:24:50 GMT-0500 (Central Daylight Time),691746.8000001907,139_m_f_h_a.png,O,z,668,12,1,1694.5,690052.3000001907,7768,VNB,A,10
8,test,2,1.0,2-Back,1.0,z,Thu Mar 12 2026 14:24:50 GMT-0500 (Central Daylight Time),694229.2000000477,039_o_m_n_a.png,O,z,1450,13,1,2469.2000000476837,691760.0,7768,VNB,A,11
9,test,2,0.0,2-Back,1.0,m,Thu Mar 12 2026 14:24:50 GMT-0500 (Central Daylight Time),696977.600000143,124_o_f_d_a.png,O,m,1726,14,1,2734.9000000953674,694242.7000000477,7768,VNB,A,12
9,test,2,0.0,2-Back,0.0,m,Thu Mar 12 2026 14:24:50 GMT-0500 (Central Daylight Time),700010.9000000954,071_y_f_h_a.png,O,None,2017,15,1,3029.0999999046326,696981.8000001907,7768,VNB,A,13
10,test,2,0.0,2-Back,1.0,z,Thu Mar 12 2026 14:24:50 GMT-0500 (Central Daylight Time),702426.9000000954,165_m_m_d_a.png,O,z,1385,16,1,2402.2000000476837,700024.7000000477,7768,VNB,A,14
11,test,2,0.0,2-Back,1.0,m,Thu Mar 12 2026 14:24:50 GMT-0500 (Central Daylight Time),704709.2000000477,109_y_m_n_a.png,O,m,1258,17,1,2268.899999856949,702440.3000001907,7768,VNB,A,15
12,test,2,1.0,2-Back,1.0,m,Thu Mar 12 2026 14:24:50 GMT-0500 (Central Daylight Time),706925.5,139_m_f_n_a.png,O,m,1198,18,1,2203.0,704722.5,7768,VNB,A,16
0,test,3,1.0,2-Back,,,Thu Mar 12 2026 14:24:50 GMT-0500 (Central Daylight Time),706925.5,039_o_m_n_a.png,O,space,6926,1,1,2203.0,704722.5,7768,VNB,A,0
0,test,3,1.0,2-Back,,,Thu Mar 12 2026 14:24:50 GMT-0500 (Central Daylight Time),706925.5,124_o_f_d_a.png,O,space,6926,2,1,2203.0,704722.5,7768,VNB,A,0
1,test,3,0.0,2-Back,1.0,m,Thu Mar 12 2026 14:24:50 GMT-0500 (Central Daylight Time),720819.8000001907,071_y_f_h_a.png,O,m,899,3,1,1901.6000001430511,718918.2000000477,7768,VNB,A,1
1,test,3,0.0,2-Back,0.0,z,Thu Mar 12 2026 14:24:50 GMT-0500 (Central Daylight Time),722671.2000000477,139_m_f_d_a.png,O,m,834,4,1,1847.3999998569489,720823.8000001907,7768,VNB,A,2
2,test,3,1.0,2-Back,1.0,m,Thu Mar 12 2026 14:24:50 GMT-0500 (Central Daylight Time),724701.8000001907,109_y_m_n_a.png,O,m,987,5,1,2015.4000000953674,722686.4000000954,7768,VNB,A,3
3,test,3,0.0,2-Back,1.0,m,Thu Mar 12 2026 14:24:50 GMT-0500 (Central Daylight Time),727334.5,039_o_m_h_a.png,O,m,1612,6,1,2627.199999809265,724707.3000001907,7768,VNB,A,4
4,test,3,0.0,2-Back,1.0,z,Thu Mar 12 2026 14:24:50 GMT-0500 (Central Daylight Time),729034.3000001907,071_y_f_n_a.png,O,z,669,7,1,1695.7000000476837,727338.600000143,7768,VNB,A,5
5,test,3,1.0,2-Back,1.0,m,Thu Mar 12 2026 14:24:50 GMT-0500 (Central Daylight Time),731150.5,165_m_m_d_a.png,O,m,1091,8,1,2104.399999856949,729046.100000143,7768,VNB,A,6
5,test,3,0.0,2-Back,0.0,m,Thu Mar 12 2026 14:24:50 GMT-0500 (Central Daylight Time),733316.2000000477,109_y_m_d_a.png,O,z,1132,9,1,2152.2000000476837,731164.0,7768,VNB,A,7
6,test,3,0.0,2-Back,1.0,m,Thu Mar 12 2026 14:24:50 GMT-0500 (Central Daylight Time),735782.0,124_o_f_h_a.png,O,m,1448,10,1,2452.0999999046326,733329.9000000954,7768,VNB,A,8
7,test,3,1.0,2-Back,1.0,m,Thu Mar 12 2026 14:24:50 GMT-0500 (Central Daylight Time),738248.0,139_m_f_n_a.png,O,m,1446,11,1,2452.899999856949,735795.100000143,7768,VNB,A,9
8,test,3,1.0,2-Back,1.0,z,Thu Mar 12 2026 14:24:50 GMT-0500 (Central Daylight Time),740163.8000001907,165_m_m_h_a.png,O,z,891,12,1,1903.1000001430511,738260.7000000477,7768,VNB,A,10
8,test,3,0.0,2-Back,0.0,m,Thu Mar 12 2026 14:24:50 GMT-0500 (Central Daylight Time),742413.9000000954,071_y_f_d_a.png,O,z,1232,13,1,2236.5999999046326,740177.3000001907,7768,VNB,A,11
9,test,3,0.0,2-Back,1.0,m,Thu Mar 12 2026 14:24:50 GMT-0500 (Central Daylight Time),744462.0,124_o_f_n_a.png,O,m,1013,14,1,2033.5999999046326,742428.4000000954,7768,VNB,A,12
9,test,3,0.0,2-Back,0.0,z,Thu Mar 12 2026 14:24:50 GMT-0500 (Central Daylight Time),746529.600000143,039_o_m_d_a.png,O,m,1037,15,1,2063.7000000476837,744465.9000000954,7768,VNB,A,13
9,test,3,1.0,2-Back,0.0,m,Thu Mar 12 2026 14:24:50 GMT-0500 (Central Daylight Time),748111.600000143,139_m_f_h_a.png,O,z,554,16,1,1572.1000001430511,746539.5,7768,VNB,A,14
9,test,3,0.0,2-Back,0.0,m,Thu Mar 12 2026 14:24:50 GMT-0500 (Central Daylight Time),751010.7000000477,165_m_m_n_a.png,O,z,1867,17,1,2885.5999999046326,748125.100000143,7768,VNB,A,15
10,test,3,0.0,2-Back,1.0,z,Thu Mar 12 2026 14:24:50 GMT-0500 (Central Daylight Time),753876.600000143,109_y_m_h_a.png,O,z,1834,18,1,2853.4000000953674,751023.2000000477,7768,VNB,A,16
0,test,4,0.0,2-Back,,,Thu Mar 12 2026 14:24:50 GMT-0500 (Central Daylight Time),753876.600000143,139_m_f_n_a.png,O,space,5159,1,1,2853.4000000953674,751023.2000000477,7768,VNB,A,0
0,test,4,0.0,2-Back,,,Thu Mar 12 2026 14:24:50 GMT-0500 (Central Daylight Time),753876.600000143,039_o_m_n_a.png,O,space,5159,2,1,2853.4000000953674,751023.2000000477,7768,VNB,A,0
0,test,4,1.0,2-Back,0.0,m,Thu Mar 12 2026 14:24:50 GMT-0500 (Central Daylight Time),766255.8000001907,109_y_m_h_a.png,O,z,1056,3,1,2072.0,764183.8000001907,7768,VNB,A,1
1,test,4,1.0,2-Back,1.0,m,Thu Mar 12 2026 14:24:50 GMT-0500 (Central Daylight Time),768371.600000143,124_o_f_d_a.png,O,m,1092,4,1,2102.7000000476837,766268.9000000954,7768,VNB,A,2
2,test,4,0.0,2-Back,1.0,z,Thu Mar 12 2026 14:24:50 GMT-0500 (Central Daylight Time),770154.5,039_o_m_h_a.png,O,z,758,5,1,1769.6999998092651,768384.8000001907,7768,VNB,A,3
2,test,4,0.0,2-Back,0.0,m,Thu Mar 12 2026 14:24:50 GMT-0500 (Central Daylight Time),772486.7000000477,165_m_m_n_a.png,O,z,1315,6,1,2318.899999856949,770167.8000001907,7768,VNB,A,4
3,test,4,0.0,2-Back,1.0,m,Thu Mar 12 2026 14:24:50 GMT-0500 (Central Daylight Time),774569.600000143,139_m_f_d_a.png,O,m,1061,7,1,2070.100000143051,772499.5,7768,VNB,A,5
3,test,4,0.0,2-Back,0.0,z,Thu Mar 12 2026 14:24:50 GMT-0500 (Central Daylight Time),777335.4000000954,071_y_f_n_a.png,O,m,1738,8,1,2751.4000000953674,774584.0,7768,VNB,A,6
3,test,4,1.0,2-Back,0.0,m,Thu Mar 12 2026 14:24:50 GMT-0500 (Central Daylight Time),779485.2000000477,124_o_f_h_a.png,O,z,1132,9,1,2136.2999999523163,777348.9000000954,7768,VNB,A,7
4,test,4,0.0,2-Back,1.0,m,Thu Mar 12 2026 14:24:50 GMT-0500 (Central Daylight Time),781816.3000001907,165_m_m_h_a.png,O,m,1311,10,1,2318.0,779498.3000001907,7768,VNB,A,8
4,test,4,0.0,2-Back,0.0,m,Thu Mar 12 2026 14:24:50 GMT-0500 (Central Daylight Time),783916.8000001907,071_y_f_d_a.png,O,z,1082,11,1,2096.300000190735,781820.5,7768,VNB,A,9
5,test,4,0.0,2-Back,1.0,m,Thu Mar 12 2026 14:24:50 GMT-0500 (Central Daylight Time),785948.4000000954,109_y_m_n_a.png,O,m,997,12,1,2017.5,783930.9000000954,7768,VNB,A,10
5,test,4,0.0,2-Back,0.0,z,Thu Mar 12 2026 14:24:50 GMT-0500 (Central Daylight Time),788014.8000001907,039_o_m_d_a.png,O,m,1047,13,1,2060.600000143051,785954.2000000477,7768,VNB,A,11
6,test,4,1.0,2-Back,1.0,m,Thu Mar 12 2026 14:24:50 GMT-0500 (Central Daylight Time),790114.5,139_m_f_h_a.png,O,m,1077,14,1,2085.7999999523163,788028.7000000477,7768,VNB,A,12
7,test,4,1.0,2-Back,1.0,m,Thu Mar 12 2026 14:24:50 GMT-0500 (Central Daylight Time),792363.0,071_y_f_h_a.png,O,m,1215,15,1,2236.199999809265,790126.8000001907,7768,VNB,A,13
8,test,4,0.0,2-Back,1.0,m,Thu Mar 12 2026 14:24:50 GMT-0500 (Central Daylight Time),795112.7000000477,124_o_f_n_a.png,O,m,1718,16,1,2744.2000000476837,792368.5,7768,VNB,A,14
9,test,4,0.0,2-Back,1.0,m,Thu Mar 12 2026 14:24:50 GMT-0500 (Central Daylight Time),797061.8000001907,109_y_m_d_a.png,O,m,932,17,1,1935.3000001907349,795126.5,7768,VNB,A,15
10,test,4,1.0,2-Back,1.0,m,Thu Mar 12 2026 14:24:50 GMT-0500 (Central Daylight Time),799394.7000000477,165_m_m_d_a.png,O,m,1310,18,1,2319.5,797075.2000000477,7768,VNB,A,16
0,test,5,1.0,2-Back,,,Thu Mar 12 2026 14:24:50 GMT-0500 (Central Daylight Time),799394.7000000477,071_y_f_d_a.png,O,space,4719,1,1,2319.5,797075.2000000477,7768,VNB,A,0
0,test,5,1.0,2-Back,,,Thu Mar 12 2026 14:24:50 GMT-0500 (Central Daylight Time),799394.7000000477,124_o_f_h_a.png,O,space,4719,2,1,2319.5,797075.2000000477,7768,VNB,A,0
1,test,5,1.0,2-Back,1.0,z,Thu Mar 12 2026 14:24:50 GMT-0500 (Central Daylight Time),811090.100000143,039_o_m_d_a.png,O,z,791,3,1,1802.0,809288.100000143,7768,VNB,A,1
2,test,5,1.0,2-Back,1.0,m,Thu Mar 12 2026 14:24:50 GMT-0500 (Central Daylight Time),813489.3000001907,139_m_f_n_a.png,O,m,1367,4,1,2393.5,811095.8000001907,7768,VNB,A,2
2,test,5,0.0,2-Back,0.0,m,Thu Mar 12 2026 14:24:50 GMT-0500 (Central Daylight Time),815489.5,165_m_m_h_a.png,O,z,978,5,1,1996.0999999046326,813493.4000000954,7768,VNB,A,3
2,test,5,0.0,2-Back,0.0,z,Thu Mar 12 2026 14:24:50 GMT-0500 (Central Daylight Time),817755.5,071_y_f_n_a.png,O,m,1218,6,1,2250.5,815505.0,7768,VNB,A,4
3,test,5,0.0,2-Back,1.0,m,Thu Mar 12 2026 14:24:50 GMT-0500 (Central Daylight Time),819822.5,124_o_f_d_a.png,O,m,1049,7,1,2053.2999999523163,817769.2000000477,7768,VNB,A,5
4,test,5,0.0,2-Back,1.0,m,Thu Mar 12 2026 14:24:50 GMT-0500 (Central Daylight Time),821803.4000000954,039_o_m_h_a.png,O,m,956,8,1,1967.7000000476837,819835.7000000477,7768,VNB,A,6
5,test,5,1.0,2-Back,1.0,z,Thu Mar 12 2026 14:24:50 GMT-0500 (Central Daylight Time),823953.3000001907,139_m_f_d_a.png,O,z,1120,9,1,2140.100000143051,821813.2000000477,7768,VNB,A,7
6,test,5,0.0,2-Back,1.0,m,Thu Mar 12 2026 14:24:50 GMT-0500 (Central Daylight Time),826402.100000143,109_y_m_n_a.png,O,m,1418,10,1,2435.0,823967.100000143,7768,VNB,A,8
7,test,5,0.0,2-Back,1.0,m,Thu Mar 12 2026 14:24:50 GMT-0500 (Central Daylight Time),828951.8000001907,165_m_m_n_a.png,O,m,1522,11,1,2541.300000190735,826410.5,7768,VNB,A,9
8,test,5,0.0,2-Back,1.0,m,Thu Mar 12 2026 14:24:50 GMT-0500 (Central Daylight Time),830967.7000000477,071_y_f_h_a.png,O,m,981,12,1,1999.2999999523163,828968.4000000954,7768,VNB,A,10
9,test,5,0.0,2-Back,1.0,m,Thu Mar 12 2026 14:24:50 GMT-0500 (Central Daylight Time),833316.9000000954,109_y_m_d_a.png,O,m,1308,13,1,2334.2000000476837,830982.7000000477,7768,VNB,A,11
10,test,5,1.0,2-Back,1.0,z,Thu Mar 12 2026 14:24:50 GMT-0500 (Central Daylight Time),835649.4000000954,139_m_f_h_a.png,O,z,1302,14,1,2318.7000000476837,833330.7000000477,7768,VNB,A,12
11,test,5,0.0,2-Back,1.0,m,Thu Mar 12 2026 14:24:50 GMT-0500 (Central Daylight Time),838248.3000001907,039_o_m_n_a.png,O,m,1570,15,1,2589.9000000953674,835658.4000000954,7768,VNB,A,13
12,test,5,0.0,2-Back,1.0,m,Thu Mar 12 2026 14:24:50 GMT-0500 (Central Daylight Time),841080.600000143,165_m_m_d_a.png,O,m,1810,16,1,2824.2000000476837,838256.4000000954,7768,VNB,A,14
13,test,5,0.0,2-Back,1.0,z,Thu Mar 12 2026 14:24:50 GMT-0500 (Central Daylight Time),843130.3000001907,124_o_f_n_a.png,O,z,1028,17,1,2044.2000000476837,841086.100000143,7768,VNB,A,15
13,test,5,1.0,2-Back,0.0,m,Thu Mar 12 2026 14:24:50 GMT-0500 (Central Daylight Time),845912.100000143,109_y_m_h_a.png,O,z,1752,18,1,2768.0,843144.100000143,7768,VNB,A,16
