acc_sum,block,block_c,condition,correct,correct_response,datetime,endtime,flanker,jitter,project,response,response_test_buffer_response,response_test_target_response,response_time,response_time_test_buffer_response,response_time_test_target_response,row_sel,session_number,start_end,starttime,subject_id,target,task,task_vers,time_test_buffer,time_test_buffer_response,time_test_constants,time_test_flanker,time_test_jitter,time_test_logger,time_test_target,time_test_target_response,time_test_variables,trial
1,prac,1,con,1,m,Mon Dec 15 2025 15:25:04 GMT-0600 (Central Standard Time),93441.60000002384,jacket,800,O,m,,,755,,,5,1,2854.100000023842,90587.5,7722,jacket,AF,A,,,,,,,,,,1
2,prac,1,inc,1,z,Mon Dec 15 2025 15:25:04 GMT-0600 (Central Standard Time),96642.10000002384,window,1100,O,z,,,798,,,16,1,3196.3000000715256,93445.79999995232,7722,temper,AF,A,,,,,,,,,,2
3,prac,1,inc,1,z,Mon Dec 15 2025 15:25:04 GMT-0600 (Central Standard Time),99941.0,rock,900,O,z,,,1091,,,10,1,3292.2000000476837,96648.79999995232,7722,kind,AF,A,,,,,,,,,,3
4,prac,1,con,1,z,Mon Dec 15 2025 15:25:04 GMT-0600 (Central Standard Time),102490.29999995232,brutal,800,O,z,,,449,,,13,1,2543.0999999046326,99947.20000004768,7722,brutal,AF,A,,,,,,,,,,4
5,prac,1,con,1,m,Mon Dec 15 2025 15:25:04 GMT-0600 (Central Standard Time),105939.70000004768,remote,1000,O,m,,,1145,,,7,1,3441.0,102498.70000004768,7722,remote,AF,A,,,,,,,,,,5
6,prac,1,con,1,m,Mon Dec 15 2025 15:25:04 GMT-0600 (Central Standard Time),108822.10000002384,step,800,O,m,,,778,,,1,1,2875.100000023842,105947.0,7722,step,AF,A,,,,,,,,,,6
7,prac,1,con,1,z,Mon Dec 15 2025 15:25:04 GMT-0600 (Central Standard Time),111803.79999995232,rage,1000,O,z,,,670,,,15,1,2970.899999976158,108832.89999997616,7722,rage,AF,A,,,,,,,,,,7
8,prac,1,con,1,z,Mon Dec 15 2025 15:25:04 GMT-0600 (Central Standard Time),114603.20000004768,love,1000,O,z,,,489,,,11,1,2792.8000000715256,111810.39999997616,7722,love,AF,A,,,,,,,,,,8
8,prac,1,con,0,m,Mon Dec 15 2025 15:25:04 GMT-0600 (Central Standard Time),117551.39999997616,bell,1000,O,z,,,635,,,3,1,2941.1999999284744,114610.20000004768,7722,bell,AF,A,,,,,,,,,,9
9,prac,1,con,1,z,Mon Dec 15 2025 15:25:04 GMT-0600 (Central Standard Time),120117.10000002384,elated,800,O,z,,,463,,,9,1,2562.100000023842,117555.0,7722,elated,AF,A,,,,,,,,,,10
10,prac,1,inc,1,m,Mon Dec 15 2025 15:25:04 GMT-0600 (Central Standard Time),123004.79999995232,kind,900,O,m,,,694,,,2,1,2878.899999976158,120125.89999997616,7722,rock,AF,A,,,,,,,,,,11
11,prac,1,inc,1,m,Mon Dec 15 2025 15:25:04 GMT-0600 (Central Standard Time),126200.79999995232,brutal,1100,O,m,,,783,,,8,1,3191.5999999046326,123009.20000004768,7722,window,AF,A,,,,,,,,,,12
12,prac,1,inc,1,z,Mon Dec 15 2025 15:25:04 GMT-0600 (Central Standard Time),129149.39999997616,film,900,O,z,,,738,,,14,1,2941.7999999523163,126207.60000002384,7722,hate,AF,A,,,,,,,,,,13
13,prac,1,inc,1,z,Mon Dec 15 2025 15:25:04 GMT-0600 (Central Standard Time),132631.10000002384,napkin,1100,O,z,,,1067,,,12,1,3474.899999976158,129156.20000004768,7722,friend,AF,A,,,,,,,,,,14
14,prac,1,inc,1,m,Mon Dec 15 2025 15:25:04 GMT-0600 (Central Standard Time),135764.10000002384,hate,1100,O,m,,,731,,,4,1,3126.399999976158,132637.70000004768,7722,film,AF,A,,,,,,,,,,15
15,prac,1,inc,1,m,Mon Dec 15 2025 15:25:04 GMT-0600 (Central Standard Time),138646.0,elated,900,O,m,,,678,,,6,1,2875.399999976158,135770.60000002384,7722,napkin,AF,A,,,,,,,,,,16
1,test,1,con,1,m,Mon Dec 15 2025 15:25:04 GMT-0600 (Central Standard Time),147776.5,film,1100,O,m,m,None,621,421.0,200.0,92,1,2260.0,145516.5,7722,film,AF,A,142395,142395,140569,141679,140569,142829,142195,142195,142828,1
2,test,1,con,1,z,Mon Dec 15 2025 15:25:04 GMT-0600 (Central Standard Time),150025.10000002384,elated,900,O,z,z,None,825,610.0,215.0,2,1,2243.100000023842,147782.0,7722,elated,AF,A,144461,144461,142834,143745,142834,145077,144246,144246,145077,2
3,test,1,inc,1,z,Mon Dec 15 2025 15:25:04 GMT-0600 (Central Standard Time),152274.79999995232,remote,1000,O,z,z,None,709,510.0,199.0,63,1,2246.0999999046326,150028.70000004768,7722,temper,AF,A,146810,146810,145081,146095,145081,147327,146611,146611,147327,3
4,test,1,inc,1,m,Mon Dec 15 2025 15:25:04 GMT-0600 (Central Standard Time),154206.79999995232,elated,800,O,m,m,None,596,396.0,200.0,109,1,1927.1999999284744,152279.60000002384,7722,napkin,AF,A,148859,148859,147332,148144,147332,149259,148659,148659,149259,4
5,test,1,con,1,m,Mon Dec 15 2025 15:25:04 GMT-0600 (Central Standard Time),156390.29999995232,napkin,1000,O,m,m,None,638,438.0,200.0,107,1,2179.899999976158,154210.39999997616,7722,napkin,AF,A,150994,150994,149262,150277,149263,151442,150793,150793,151442,5
6,test,1,inc,1,z,Mon Dec 15 2025 15:25:04 GMT-0600 (Central Standard Time),158773.10000002384,bell,1000,O,z,z,None,839,640.0,199.0,55,1,2378.399999976158,156394.70000004768,7722,rage,AF,A,153175,153175,151447,152459,151447,153825,152976,152976,153825,6
7,test,1,con,1,m,Mon Dec 15 2025 15:25:04 GMT-0600 (Central Standard Time),160922.29999995232,film,900,O,m,m,None,709,509.0,200.0,90,1,2146.399999976158,158775.89999997616,7722,film,AF,A,155458,155458,153828,154742,153828,155974,155257,155257,155974,7
8,test,1,con,1,z,Mon Dec 15 2025 15:25:04 GMT-0600 (Central Standard Time),163487.39999997616,rage,900,O,z,z,None,1127,927.0,200.0,50,1,2562.1999999284744,160925.20000004768,7722,rage,AF,A,157608,157608,155977,156893,155977,158539,157407,157407,158539,8
9,test,1,inc,1,z,Mon Dec 15 2025 15:25:04 GMT-0600 (Central Standard Time),165770.79999995232,jacket,800,O,z,z,None,933,734.0,199.0,5,1,2278.7999999523163,163492.0,7722,elated,AF,A,160073,160073,158544,159356,158544,160823,159874,159874,160823,9
9,test,1,inc,0,z,Mon Dec 15 2025 15:25:04 GMT-0600 (Central Standard Time),168036.70000004768,window,1100,O,m,m,None,622,421.0,201.0,32,1,2259.7000000476837,165777.0,7722,friend,AF,A,162658,162658,160829,161939,160829,163089,162456,162456,163089,10
10,test,1,inc,1,m,Mon Dec 15 2025 15:25:04 GMT-0600 (Central Standard Time),170086.20000004768,kind,900,O,m,m,None,622,423.0,199.0,78,1,2045.1000000238419,168041.10000002384,7722,rock,AF,A,164704,164704,163093,164004,163093,165138,164505,164505,165138,11
11,test,1,con,1,z,Mon Dec 15 2025 15:25:04 GMT-0600 (Central Standard Time),172501.60000002384,brutal,900,O,z,z,None,981,780.0,201.0,34,1,2409.3000000715256,170092.29999995232,7722,brutal,AF,A,166771,166771,165144,166056,165145,167554,166570,166570,167554,12
12,test,1,inc,1,z,Mon Dec 15 2025 15:25:04 GMT-0600 (Central Standard Time),174800.29999995232,remote,1000,O,z,z,None,760,560.0,200.0,7,1,2292.899999976158,172507.39999997616,7722,elated,AF,A,169287,169287,167559,168570,167560,169852,169086,169086,169852,13
13,test,1,con,1,m,Mon Dec 15 2025 15:25:04 GMT-0600 (Central Standard Time),177367.0,bell,900,O,m,m,None,1121,921.0,200.0,82,1,2562.600000023842,174804.39999997616,7722,bell,AF,A,171486,171486,169856,170770,169857,172419,171286,171286,172419,14
14,test,1,con,1,m,Mon Dec 15 2025 15:25:04 GMT-0600 (Central Standard Time),179549.70000004768,jacket,900,O,m,m,None,741,541.0,200.0,98,1,2178.0,177371.70000004768,7722,jacket,AF,A,174051,174051,172424,173334,172424,174602,173850,173851,174602,15
15,test,1,inc,1,m,Mon Dec 15 2025 15:25:04 GMT-0600 (Central Standard Time),182198.5,brutal,900,O,m,m,None,1202,988.0,214.0,118,1,2644.7000000476837,179553.79999995232,7722,remote,AF,A,176251,176251,174606,175518,174606,177251,176036,176036,177251,16
16,test,1,con,1,m,Mon Dec 15 2025 15:25:04 GMT-0600 (Central Standard Time),184180.70000004768,rock,800,O,m,m,None,647,447.0,200.0,73,1,1977.9000000953674,182202.79999995232,7722,rock,AF,A,178785,178785,177255,178067,177255,179233,178584,178584,179233,17
17,test,1,inc,1,m,Mon Dec 15 2025 15:25:04 GMT-0600 (Central Standard Time),186331.20000004768,love,1000,O,m,m,None,616,416.0,200.0,95,1,2145.8000000715256,184185.39999997616,7722,film,AF,A,180967,180967,179237,180250,179238,181383,180767,180767,181383,18
18,test,1,con,1,z,Mon Dec 15 2025 15:25:04 GMT-0600 (Central Standard Time),188997.10000002384,rage,1000,O,z,z,None,1123,924.0,199.0,51,1,2660.2000000476837,186336.89999997616,7722,rage,AF,A,183116,183116,181389,182400,181389,184049,182916,182916,184049,19
19,test,1,inc,1,m,Mon Dec 15 2025 15:25:04 GMT-0600 (Central Standard Time),191346.89999997616,friend,1100,O,m,m,None,726,526.0,200.0,112,1,2346.1999999284744,189000.70000004768,7722,napkin,AF,A,185866,185866,184053,185165,184053,186399,185666,185666,186399,20
20,test,1,con,1,z,Mon Dec 15 2025 15:25:04 GMT-0600 (Central Standard Time),193545.20000004768,kind,900,O,z,z,None,768,568.0,200.0,10,1,2194.3000000715256,191350.89999997616,7722,kind,AF,A,188014,188015,186403,187308,186403,188597,187814,187814,188597,21
21,test,1,inc,1,z,Mon Dec 15 2025 15:25:04 GMT-0600 (Central Standard Time),195609.70000004768,rock,900,O,z,z,None,615,416.0,199.0,14,1,2060.100000023842,193549.60000002384,7722,kind,AF,A,190230,190230,188602,189514,188602,190662,190031,190031,190662,22
22,test,1,inc,1,m,Mon Dec 15 2025 15:25:04 GMT-0600 (Central Standard Time),197927.20000004768,friend,1100,O,m,m,None,679,478.0,201.0,120,1,2313.100000023842,195614.10000002384,7722,remote,AF,A,192497,192497,190666,191779,190666,192979,192296,192296,192979,23
23,test,1,inc,1,m,Mon Dec 15 2025 15:25:04 GMT-0600 (Central Standard Time),200393.20000004768,brutal,900,O,m,m,None,1028,827.0,201.0,110,1,2461.600000023842,197931.60000002384,7722,napkin,AF,A,194612,194612,192984,193896,192984,195445,194411,194411,195445,24
24,test,1,con,1,z,Mon Dec 15 2025 15:25:04 GMT-0600 (Central Standard Time),202958.20000004768,love,1100,O,z,z,None,945,745.0,200.0,20,1,2561.8000000715256,200396.39999997616,7722,love,AF,A,197262,197262,195448,196561,195449,198010,197062,197062,198010,25
25,test,1,con,1,m,Mon Dec 15 2025 15:25:04 GMT-0600 (Central Standard Time),205158.20000004768,remote,800,O,m,m,None,855,655.0,200.0,113,1,2196.3000000715256,202961.89999997616,7722,remote,AF,A,199544,199544,198014,198830,198014,200210,199343,199343,200210,26
26,test,1,con,1,m,Mon Dec 15 2025 15:25:04 GMT-0600 (Central Standard Time),207506.60000002384,remote,1000,O,m,m,None,801,600.0,201.0,115,1,2342.7000000476837,205163.89999997616,7722,remote,AF,A,201943,201943,200216,201227,200216,202559,201742,201742,202559,27
27,test,1,con,1,z,Mon Dec 15 2025 15:25:04 GMT-0600 (Central Standard Time),209773.5,love,800,O,z,z,None,935,722.0,213.0,17,1,2260.7999999523163,207512.70000004768,7722,love,AF,A,204092,204093,202565,203375,202565,204826,203879,203879,204826,28
28,test,1,inc,1,m,Mon Dec 15 2025 15:25:04 GMT-0600 (Central Standard Time),212338.60000002384,rage,800,O,m,m,None,1225,1024.0,201.0,77,1,2557.600000023842,209781.0,7722,rock,AF,A,206359,206359,204833,205642,204833,207391,206158,206158,207391,29
29,test,1,con,1,z,Mon Dec 15 2025 15:25:04 GMT-0600 (Central Standard Time),214537.60000002384,brutal,800,O,z,z,None,850,650.0,200.0,33,1,2192.899999976158,212344.70000004768,7722,brutal,AF,A,208925,208925,207397,208209,207397,209590,208724,208724,209590,30
29,test,1,inc,0,z,Mon Dec 15 2025 15:25:04 GMT-0600 (Central Standard Time),217053.79999995232,bell,1000,O,m,m,None,972,770.0,202.0,23,1,2508.899999976158,214544.89999997616,7722,love,AF,A,211325,211325,209597,210606,209597,212106,211123,211123,212106,31
29,test,1,inc,0,z,Mon Dec 15 2025 15:25:04 GMT-0600 (Central Standard Time),219305.70000004768,napkin,900,O,m,m,None,811,610.0,201.0,30,1,2242.5,217063.20000004768,7722,friend,AF,A,213741,213741,212115,213023,212116,214358,213539,213539,214358,32
30,test,1,con,1,z,Mon Dec 15 2025 15:25:04 GMT-0600 (Central Standard Time),221569.0,brutal,1000,O,z,z,None,724,524.0,200.0,35,1,2258.7000000476837,219310.29999995232,7722,brutal,AF,A,216089,216090,214362,215372,214363,216621,215889,215889,216621,33
31,test,1,con,1,m,Mon Dec 15 2025 15:25:04 GMT-0600 (Central Standard Time),223550.70000004768,bell,800,O,m,m,None,642,442.0,200.0,81,1,1977.9000000953674,221572.79999995232,7722,bell,AF,A,218155,218156,216625,217437,216625,218603,217955,217955,218603,34
32,test,1,inc,1,m,Mon Dec 15 2025 15:25:04 GMT-0600 (Central Standard Time),225736.0,brutal,900,O,m,m,None,745,546.0,199.0,102,1,2182.2000000476837,223553.79999995232,7722,jacket,AF,A,220237,220237,218606,219523,218606,220788,220037,220037,220788,35
33,test,1,con,1,z,Mon Dec 15 2025 15:25:04 GMT-0600 (Central Standard Time),228150.79999995232,kind,1100,O,z,z,None,778,579.0,199.0,12,1,2407.7999999523163,225743.0,7722,kind,AF,A,222620,222620,220795,221904,220795,223203,222420,222420,223203,36
33,test,1,con,0,z,Mon Dec 15 2025 15:25:04 GMT-0600 (Central Standard Time),230217.0,friend,900,O,m,m,None,627,428.0,199.0,26,1,2062.100000023842,228154.89999997616,7722,friend,AF,A,224835,224835,223207,224119,223207,225269,224636,224636,225269,37
34,test,1,inc,1,z,Mon Dec 15 2025 15:25:04 GMT-0600 (Central Standard Time),232798.10000002384,rock,900,O,z,z,None,1136,937.0,199.0,54,1,2574.7000000476837,230223.39999997616,7722,rage,AF,A,226901,226901,225275,226185,225276,227850,226702,226702,227850,38
35,test,1,inc,1,m,Mon Dec 15 2025 15:25:04 GMT-0600 (Central Standard Time),235198.39999997616,hate,1100,O,m,m,None,755,555.0,200.0,96,1,2392.100000023842,232806.29999995232,7722,film,AF,A,229684,229684,227858,228969,227859,230250,229484,229484,230250,39
36,test,1,inc,1,m,Mon Dec 15 2025 15:25:04 GMT-0600 (Central Standard Time),237313.79999995232,kind,900,O,m,m,None,666,467.0,199.0,70,1,2110.2999999523163,235203.5,7722,step,AF,A,231884,231884,230256,231168,230256,232366,231684,231684,232366,40
37,test,1,inc,1,z,Mon Dec 15 2025 15:25:04 GMT-0600 (Central Standard Time),240079.39999997616,film,1100,O,z,z,None,1129,930.0,199.0,16,1,2759.899999976158,237319.5,7722,kind,AF,A,234198,234198,232372,233484,232372,235131,233999,233999,235131,41
38,test,1,inc,1,m,Mon Dec 15 2025 15:25:04 GMT-0600 (Central Standard Time),242212.70000004768,temper,1000,O,m,m,None,596,397.0,199.0,127,1,2128.5,240084.20000004768,7722,window,AF,A,236865,236865,235136,236149,235136,237265,236666,236666,237265,42
39,test,1,inc,1,m,Mon Dec 15 2025 15:25:04 GMT-0600 (Central Standard Time),244344.70000004768,love,1000,O,m,m,None,599,383.0,216.0,79,1,2129.2000000476837,242215.5,7722,rock,AF,A,238998,238999,237268,238281,237268,239397,238782,238782,239397,43
40,test,1,con,1,m,Mon Dec 15 2025 15:25:04 GMT-0600 (Central Standard Time),246360.89999997616,film,800,O,m,m,None,668,453.0,215.0,89,1,2008.7999999523163,244352.10000002384,7722,film,AF,A,240947,240947,239404,240214,239404,241413,240731,240731,241413,44
41,test,1,con,1,m,Mon Dec 15 2025 15:25:04 GMT-0600 (Central Standard Time),248543.70000004768,rock,1100,O,m,m,None,545,346.0,199.0,76,1,2174.7000000476837,246369.0,7722,rock,AF,A,243246,243246,241421,242530,241421,243596,243047,243047,243596,45
42,test,1,inc,1,z,Mon Dec 15 2025 15:25:04 GMT-0600 (Central Standard Time),250625.79999995232,jacket,800,O,z,z,None,742,542.0,200.0,61,1,2077.7999999523163,248548.0,7722,temper,AF,A,245129,245129,243600,244414,243600,245678,244929,244929,245678,46
43,test,1,inc,1,m,Mon Dec 15 2025 15:25:04 GMT-0600 (Central Standard Time),252628.39999997616,rage,800,O,m,m,None,667,467.0,200.0,93,1,1997.0,250631.39999997616,7722,film,AF,A,247213,247213,245683,246496,245684,247680,247011,247012,247680,47
44,test,1,inc,1,m,Mon Dec 15 2025 15:25:04 GMT-0600 (Central Standard Time),255025.29999995232,temper,1000,O,m,m,None,859,659.0,200.0,103,1,2390.7999999523163,252634.5,7722,jacket,AF,A,249411,249411,247687,248695,247687,250077,249210,249210,250077,48
45,test,1,con,1,m,Mon Dec 15 2025 15:25:04 GMT-0600 (Central Standard Time),257657.70000004768,film,1000,O,m,m,None,1084,884.0,200.0,91,1,2629.8000000715256,255027.89999997616,7722,film,AF,A,251811,251811,250080,251095,250080,252710,251611,251611,252710,49
45,test,1,inc,0,z,Mon Dec 15 2025 15:25:04 GMT-0600 (Central Standard Time),260256.89999997616,napkin,900,O,m,m,None,1169,970.0,199.0,6,1,2593.6999999284744,257663.20000004768,7722,elated,AF,A,254326,254326,252715,253626,252715,255309,254127,254127,255309,50
46,test,1,con,1,z,Mon Dec 15 2025 15:25:04 GMT-0600 (Central Standard Time),262340.2999999523,temper,900,O,z,z,None,641,442.0,199.0,58,1,2078.899999976158,260261.39999997616,7722,temper,AF,A,256942,256942,255313,256226,255314,257392,256742,256742,257392,51
47,test,1,inc,1,m,Mon Dec 15 2025 15:25:04 GMT-0600 (Central Standard Time),264339.5,kind,900,O,m,m,None,565,366.0,199.0,94,1,1994.5,262345.0,7722,film,AF,A,259009,259009,257397,258307,257397,259392,258809,258809,259392,52
48,test,1,con,1,z,Mon Dec 15 2025 15:25:04 GMT-0600 (Central Standard Time),266871.2000000477,elated,1000,O,z,z,None,994,793.0,201.0,3,1,2526.9000000953674,264344.2999999523,7722,elated,AF,A,261125,261125,259396,260409,259397,261923,260923,260923,261923,53
49,test,1,con,1,m,Mon Dec 15 2025 15:25:04 GMT-0600 (Central Standard Time),269220.39999997616,step,900,O,m,m,None,905,690.0,215.0,66,1,2346.399999976158,266874.0,7722,step,AF,A,263573,263573,261926,262842,261926,264272,263357,263357,264272,54
50,test,1,con,1,m,Mon Dec 15 2025 15:25:04 GMT-0600 (Central Standard Time),272037.60000002384,rock,1000,O,m,m,None,1270,1055.0,215.0,75,1,2812.5,269225.10000002384,7722,rock,AF,A,266024,266024,264277,265290,264277,267090,265808,265808,267090,55
50,test,1,inc,0,m,Mon Dec 15 2025 15:25:04 GMT-0600 (Central Standard Time),275685.60000002384,hate,1100,O,None,None,None,1799,1799.0,215.0,88,1,3643.8000000715256,272041.7999999523,7722,bell,AF,A,268939,268939,267094,268206,267094,270738,268723,268723,270738,56
51,test,1,con,1,z,Mon Dec 15 2025 15:25:04 GMT-0600 (Central Standard Time),278070.7999999523,kind,1000,O,z,z,None,864,665.0,199.0,11,1,2382.0,275688.7999999523,7722,kind,AF,A,272454,272454,270741,271753,270741,273123,272255,272255,273123,57
52,test,1,inc,1,z,Mon Dec 15 2025 15:25:04 GMT-0600 (Central Standard Time),280233.7000000477,remote,1000,O,z,z,None,617,418.0,199.0,39,1,2158.7000000476837,278075.0,7722,brutal,AF,A,274853,274853,273127,274137,273127,275286,274653,274653,275286,58
53,test,1,inc,1,m,Mon Dec 15 2025 15:25:04 GMT-0600 (Central Standard Time),282433.2000000477,temper,1000,O,m,m,None,659,444.0,215.0,111,1,2195.2000000476837,280238.0,7722,napkin,AF,A,277035,277035,275290,276303,275290,277485,276820,276820,277485,59
54,test,1,con,1,z,Mon Dec 15 2025 15:25:04 GMT-0600 (Central Standard Time),284649.7000000477,temper,1000,O,z,z,None,682,468.0,214.0,59,1,2213.0,282436.7000000477,7722,temper,AF,A,279218,279218,277489,278502,277489,279702,279003,279003,279702,60
55,test,1,inc,1,z,Mon Dec 15 2025 15:25:04 GMT-0600 (Central Standard Time),287015.39999997616,window,1100,O,z,z,None,727,520.0,207.0,64,1,2360.1999999284744,284655.2000000477,7722,temper,AF,A,281542,281542,279707,280818,279707,282068,281335,281335,282067,61
56,test,1,con,1,m,Mon Dec 15 2025 15:25:04 GMT-0600 (Central Standard Time),289097.60000002384,jacket,1000,O,m,m,None,541,341.0,200.0,99,1,2079.100000023842,287018.5,7722,jacket,AF,A,283802,283802,282071,283085,282071,284150,283601,283601,284150,62
57,test,1,inc,1,m,Mon Dec 15 2025 15:25:04 GMT-0600 (Central Standard Time),291464.7999999523,love,1000,O,m,m,None,829,630.0,199.0,71,1,2362.7999999523163,289102.0,7722,step,AF,A,285882,285882,284154,285167,284154,286517,285682,285683,286517,63
58,test,1,con,1,z,Mon Dec 15 2025 15:25:04 GMT-0600 (Central Standard Time),293445.89999997616,temper,800,O,z,z,None,645,446.0,199.0,57,1,1977.2999999523163,291468.60000002384,7722,temper,AF,A,288049,288049,286521,287332,286521,288498,287850,287850,288498,64
58,test,1,inc,0,m,Mon Dec 15 2025 15:25:04 GMT-0600 (Central Standard Time),296044.7000000477,rage,800,O,z,z,None,1262,1063.0,199.0,85,1,2595.4000000953674,293449.2999999523,7722,bell,AF,A,290032,290032,288501,289317,288502,291097,289832,289832,291097,65
58,test,1,con,0,m,Mon Dec 15 2025 15:25:04 GMT-0600 (Central Standard Time),298494.5,rock,900,O,z,z,None,1018,804.0,214.0,74,1,2443.600000023842,296050.89999997616,7722,rock,AF,A,292730,292730,291103,292014,291103,293547,292516,292516,293547,66
58,test,1,con,0,m,Mon Dec 15 2025 15:25:04 GMT-0600 (Central Standard Time),300511.0,jacket,800,O,z,z,None,670,471.0,199.0,97,1,2013.5,298497.5,7722,jacket,AF,A,295079,295080,293550,294363,293550,295563,294880,294880,295563,67
58,test,1,inc,0,m,Mon Dec 15 2025 15:25:04 GMT-0600 (Central Standard Time),303409.7000000477,elated,800,O,z,z,None,1550,1351.0,199.0,125,1,2894.600000023842,300515.10000002384,7722,window,AF,A,297096,297096,295567,296380,295567,298462,296896,296896,298462,68
58,test,1,inc,0,m,Mon Dec 15 2025 15:25:04 GMT-0600 (Central Standard Time),306025.2000000477,temper,1000,O,z,z,None,1075,875.0,200.0,119,1,2610.600000023842,303414.60000002384,7722,remote,AF,A,300196,300196,298467,299478,298467,301077,299995,299995,301077,69
59,test,1,con,1,z,Mon Dec 15 2025 15:25:04 GMT-0600 (Central Standard Time),308508.5,rage,1100,O,z,z,None,838,639.0,199.0,52,1,2477.899999976158,306030.60000002384,7722,rage,AF,A,302911,302911,301083,302195,301083,303561,302711,302711,303561,70
60,test,1,inc,1,m,Mon Dec 15 2025 15:25:04 GMT-0600 (Central Standard Time),310940.60000002384,friend,1100,O,m,m,None,799,586.0,213.0,128,1,2428.8000000715256,308511.7999999523,7722,window,AF,A,305391,305391,303564,304677,303564,305993,305178,305178,305993,71
61,test,1,con,1,m,Mon Dec 15 2025 15:25:04 GMT-0600 (Central Standard Time),313557.2999999523,remote,900,O,m,m,None,1189,974.0,215.0,114,1,2611.0,310946.2999999523,7722,remote,AF,A,307626,307626,305998,306909,305999,308609,307411,307411,308609,72
62,test,1,inc,1,m,Mon Dec 15 2025 15:25:04 GMT-0600 (Central Standard Time),315938.5,hate,1100,O,m,m,None,741,541.0,200.0,72,1,2378.7000000476837,313559.7999999523,7722,step,AF,A,310442,310442,308612,309726,308612,310991,310242,310242,310991,73
63,test,1,con,1,m,Mon Dec 15 2025 15:25:04 GMT-0600 (Central Standard Time),318638.2999999523,napkin,1100,O,m,m,None,1078,879.0,199.0,108,1,2694.7999999523163,315943.5,7722,napkin,AF,A,312807,312807,310996,312107,310996,313690,312608,312608,313690,74
63,test,1,con,0,z,Mon Dec 15 2025 15:25:04 GMT-0600 (Central Standard Time),321171.5,friend,1100,O,m,m,None,899,700.0,199.0,28,1,2528.100000023842,318643.39999997616,7722,friend,AF,A,315523,315523,313695,314807,313696,316224,315324,315324,316224,75
64,test,1,con,1,z,Mon Dec 15 2025 15:25:04 GMT-0600 (Central Standard Time),323403.0,hate,1100,O,z,z,None,589,389.0,200.0,44,1,2227.100000023842,321175.89999997616,7722,hate,AF,A,318057,318057,316228,317339,316228,318455,317857,317857,318455,76
65,test,1,inc,1,m,Mon Dec 15 2025 15:25:04 GMT-0600 (Central Standard Time),326085.60000002384,hate,1100,O,m,m,None,1048,845.0,203.0,80,1,2679.3000000715256,323406.2999999523,7722,rock,AF,A,320290,320290,318458,319572,318459,321138,320087,320087,321138,77
65,test,1,con,0,z,Mon Dec 15 2025 15:25:04 GMT-0600 (Central Standard Time),328684.7000000477,elated,800,O,m,m,None,1255,1056.0,199.0,1,1,2593.2000000476837,326091.5,7722,elated,AF,A,322671,322671,321144,321954,321144,323737,322471,322471,323737,78
66,test,1,con,1,z,Mon Dec 15 2025 15:25:04 GMT-0600 (Central Standard Time),330500.5,hate,800,O,z,z,None,488,289.0,199.0,41,1,1810.2000000476837,328690.2999999523,7722,hate,AF,A,325254,325254,323742,324553,323743,325553,325055,325055,325553,79
67,test,1,inc,1,z,Mon Dec 15 2025 15:25:04 GMT-0600 (Central Standard Time),332952.5,rock,900,O,z,z,None,1004,803.0,201.0,22,1,2447.100000023842,330505.39999997616,7722,love,AF,A,327188,327188,325557,326470,325558,328005,326986,326986,328005,80
67,test,1,con,0,z,Mon Dec 15 2025 15:25:04 GMT-0600 (Central Standard Time),335934.39999997616,friend,800,O,m,m,None,1657,1457.0,200.0,25,1,2977.2999999523163,332957.10000002384,7722,friend,AF,A,329519,329519,328009,328810,328009,330986,329319,329319,330986,81
68,test,1,con,1,m,Mon Dec 15 2025 15:25:04 GMT-0600 (Central Standard Time),338048.60000002384,window,800,O,m,m,None,769,569.0,200.0,121,1,2107.3000000715256,335941.2999999523,7722,window,AF,A,332518,332518,330993,331802,330994,333101,332318,332318,333101,82
68,test,1,inc,0,m,Mon Dec 15 2025 15:25:04 GMT-0600 (Central Standard Time),340630.5,rage,800,O,z,z,None,1244,1044.0,200.0,69,1,2576.7999999523163,338053.7000000477,7722,step,AF,A,334634,334635,333106,333917,333106,335683,334434,334434,335683,83
69,test,1,con,1,z,Mon Dec 15 2025 15:25:04 GMT-0600 (Central Standard Time),342846.7999999523,brutal,1100,O,z,z,None,571,370.0,201.0,36,1,2212.5,340634.2999999523,7722,brutal,AF,A,337516,337516,335686,336799,335687,337899,337315,337315,337899,84
70,test,1,inc,1,m,Mon Dec 15 2025 15:25:04 GMT-0600 (Central Standard Time),345649.2000000477,elated,800,O,m,m,None,1454,1253.0,201.0,101,1,2798.600000023842,342850.60000002384,7722,jacket,AF,A,339434,339434,337903,338715,337903,340701,339233,339233,340701,85
71,test,1,con,1,m,Mon Dec 15 2025 15:25:04 GMT-0600 (Central Standard Time),348179.5,window,900,O,m,m,None,1091,892.0,199.0,122,1,2526.0,345653.5,7722,window,AF,A,342331,342331,340706,341617,340706,343232,342131,342131,343232,86
72,test,1,con,1,m,Mon Dec 15 2025 15:25:04 GMT-0600 (Central Standard Time),351561.89999997616,window,1100,O,m,m,None,1743,1544.0,199.0,124,1,3376.2999999523163,348185.60000002384,7722,window,AF,A,345064,345064,343238,344348,343238,346614,344864,344864,346614,87
73,test,1,con,1,m,Mon Dec 15 2025 15:25:04 GMT-0600 (Central Standard Time),353542.60000002384,window,1000,O,m,m,None,444,244.0,200.0,123,1,1974.8999999761581,351567.7000000477,7722,window,AF,A,348346,348346,346620,347629,346620,348595,348146,348146,348595,88
74,test,1,inc,1,z,Mon Dec 15 2025 15:25:04 GMT-0600 (Central Standard Time),355793.5,jacket,800,O,z,z,None,907,693.0,214.0,29,1,2248.0,353545.5,7722,friend,AF,A,350145,350145,348598,349414,348598,350846,349931,349931,350846,89
75,test,1,con,1,m,Mon Dec 15 2025 15:25:04 GMT-0600 (Central Standard Time),357708.7999999523,napkin,800,O,m,m,None,572,357.0,215.0,105,1,1911.7999999523163,355797.0,7722,napkin,AF,A,352394,352394,350849,351663,350849,352761,352179,352179,352761,90
76,test,1,inc,1,z,Mon Dec 15 2025 15:25:04 GMT-0600 (Central Standard Time),359991.2000000477,remote,1000,O,z,z,None,761,561.0,200.0,31,1,2277.2000000476837,357714.0,7722,friend,AF,A,354478,354478,352766,353776,352766,355043,354278,354278,355043,91
77,test,1,con,1,z,Mon Dec 15 2025 15:25:04 GMT-0600 (Central Standard Time),362424.10000002384,love,900,O,z,z,None,999,786.0,213.0,18,1,2428.0,359996.10000002384,7722,love,AF,A,356677,356677,355048,355960,355048,357476,356462,356463,357476,92
77,test,1,inc,0,z,Mon Dec 15 2025 15:25:04 GMT-0600 (Central Standard Time),364473.10000002384,rock,900,O,m,m,None,623,408.0,215.0,46,1,2042.7000000476837,362430.39999997616,7722,hate,AF,A,359111,359111,357482,358393,357483,359525,358895,358895,359525,93
77,test,1,inc,0,m,Mon Dec 15 2025 15:25:04 GMT-0600 (Central Standard Time),367172.5,friend,1100,O,z,z,None,1079,879.0,200.0,104,1,2696.100000023842,364476.39999997616,7722,jacket,AF,A,361343,361343,359528,360642,359529,362225,361143,361143,362225,94
77,test,1,con,0,z,Mon Dec 15 2025 15:25:04 GMT-0600 (Central Standard Time),370721.7999999523,hate,1000,O,None,None,None,1815,1815.0,199.0,43,1,3546.0,367175.7999999523,7722,hate,AF,A,363959,363959,362228,363242,362228,365774,363759,363759,365774,95
77,test,1,inc,0,m,Mon Dec 15 2025 15:25:04 GMT-0600 (Central Standard Time),374072.89999997616,elated,800,O,None,None,None,1818,1818.0,199.0,117,1,3346.600000023842,370726.2999999523,7722,remote,AF,A,367307,367307,365778,366591,365779,369125,367108,367108,369125,96
78,test,1,inc,1,z,Mon Dec 15 2025 15:25:04 GMT-0600 (Central Standard Time),376404.10000002384,window,1100,O,z,z,None,682,482.0,200.0,8,1,2326.5,374077.60000002384,7722,elated,AF,A,370957,370957,369130,370239,369130,371456,370757,370757,371456,97
79,test,1,inc,1,m,Mon Dec 15 2025 15:25:04 GMT-0600 (Central Standard Time),378587.0,brutal,900,O,m,m,None,736,535.0,201.0,126,1,2178.100000023842,376408.89999997616,7722,window,AF,A,373089,373089,371461,372373,371461,373639,372888,372888,373639,98
80,test,1,inc,1,m,Mon Dec 15 2025 15:25:04 GMT-0600 (Central Standard Time),380651.7999999523,kind,900,O,m,m,None,633,431.0,202.0,86,1,2059.5999999046326,378592.2000000477,7722,bell,AF,A,375272,375272,373644,374557,373645,375704,375070,375070,375704,99
81,test,1,con,1,m,Mon Dec 15 2025 15:25:04 GMT-0600 (Central Standard Time),382985.10000002384,remote,1100,O,m,m,None,702,503.0,199.0,116,1,2328.100000023842,380657.0,7722,remote,AF,A,377521,377521,375709,376820,375709,378037,377321,377321,378037,100
82,test,1,inc,1,z,Mon Dec 15 2025 15:25:04 GMT-0600 (Central Standard Time),385182.89999997616,film,1100,O,z,z,None,552,351.0,201.0,24,1,2193.5,382989.39999997616,7722,love,AF,A,379871,379871,378041,379153,378042,380235,379670,379670,380235,101
83,test,1,inc,1,m,Mon Dec 15 2025 15:25:04 GMT-0600 (Central Standard Time),387349.0,love,1000,O,m,m,None,629,429.0,200.0,87,1,2162.2000000476837,385186.7999999523,7722,bell,AF,A,381970,381970,380239,381253,380239,382401,381769,381769,382401,102
84,test,1,inc,1,z,Mon Dec 15 2025 15:25:04 GMT-0600 (Central Standard Time),389499.60000002384,bell,1000,O,z,z,None,622,408.0,214.0,47,1,2147.3000000715256,387352.2999999523,7722,hate,AF,A,384134,384134,382404,383418,382404,384552,383920,383920,384552,103
85,test,1,inc,1,z,Mon Dec 15 2025 15:25:04 GMT-0600 (Central Standard Time),391665.10000002384,jacket,800,O,z,z,None,843,629.0,214.0,37,1,2161.899999976158,389503.2000000477,7722,brutal,AF,A,386083,386083,384555,385368,384555,386717,385869,385869,386717,104
86,test,1,con,1,z,Mon Dec 15 2025 15:25:04 GMT-0600 (Central Standard Time),393998.2000000477,hate,900,O,z,z,None,897,681.0,216.0,42,1,2329.4000000953674,391668.7999999523,7722,hate,AF,A,388366,388366,386721,387633,386721,389050,388150,388150,389050,105
87,test,1,con,1,z,Mon Dec 15 2025 15:25:04 GMT-0600 (Central Standard Time),396198.0,love,1000,O,z,z,None,665,466.0,199.0,19,1,2196.7999999523163,394001.2000000477,7722,love,AF,A,390783,390783,389053,390066,389053,391250,390583,390583,391250,106
88,test,1,inc,1,z,Mon Dec 15 2025 15:25:04 GMT-0600 (Central Standard Time),398213.89999997616,step,800,O,z,z,None,672,472.0,200.0,13,1,2012.1999999284744,396201.7000000477,7722,kind,AF,A,392782,392782,391254,392066,391254,393266,392582,392582,393266,107
89,test,1,con,1,m,Mon Dec 15 2025 15:25:04 GMT-0600 (Central Standard Time),400598.7000000477,step,1100,O,m,m,None,749,550.0,199.0,68,1,2381.7000000476837,398217.0,7722,step,AF,A,395098,395098,393269,394383,393269,395651,394898,394898,395651,108
90,test,1,con,1,z,Mon Dec 15 2025 15:25:04 GMT-0600 (Central Standard Time),403328.2999999523,elated,1100,O,z,z,None,1094,895.0,199.0,4,1,2725.399999976158,400602.89999997616,7722,elated,AF,A,397480,397480,395655,396766,395655,398380,397281,397281,398380,109
91,test,1,con,1,m,Mon Dec 15 2025 15:25:04 GMT-0600 (Central Standard Time),405977.60000002384,bell,1100,O,m,m,None,1011,812.0,199.0,84,1,2644.3000000715256,403333.2999999523,7722,bell,AF,A,400212,400212,398385,399502,398386,401030,400013,400013,401030,110
91,test,1,inc,0,z,Mon Dec 15 2025 15:25:04 GMT-0600 (Central Standard Time),408210.60000002384,step,800,O,m,m,None,893,693.0,200.0,45,1,2229.399999976158,405981.2000000477,7722,hate,AF,A,402562,402562,401033,401847,401033,403263,402362,402362,403263,111
92,test,1,con,1,m,Mon Dec 15 2025 15:25:04 GMT-0600 (Central Standard Time),410591.60000002384,step,800,O,m,m,None,1043,843.0,200.0,65,1,2377.899999976158,408213.7000000477,7722,step,AF,A,404795,404795,403266,404078,403266,405644,404595,404595,405644,112
93,test,1,inc,1,z,Mon Dec 15 2025 15:25:04 GMT-0600 (Central Standard Time),414208.39999997616,film,1100,O,z,z,None,1977,1777.0,200.0,56,1,3612.0,410596.39999997616,7722,rage,AF,A,407478,407478,405648,406762,405649,409260,407278,407278,409260,113
94,test,1,con,1,m,Mon Dec 15 2025 15:25:04 GMT-0600 (Central Standard Time),416308.2000000477,bell,1000,O,m,m,None,582,382.0,200.0,83,1,2095.8000000715256,414212.39999997616,7722,bell,AF,A,410977,410977,409264,410276,409265,411360,410777,410777,411360,114
95,test,1,con,1,z,Mon Dec 15 2025 15:25:04 GMT-0600 (Central Standard Time),418756.0,kind,800,O,z,z,None,1105,905.0,200.0,9,1,2443.5,416312.5,7722,kind,AF,A,412893,412893,411365,412176,411365,413808,412693,412693,413808,115
96,test,1,inc,1,z,Mon Dec 15 2025 15:25:04 GMT-0600 (Central Standard Time),420805.89999997616,bell,1000,O,z,z,None,505,289.0,216.0,15,1,2046.5,418759.39999997616,7722,kind,AF,A,415559,415559,413811,414825,413812,415858,415343,415343,415858,116
97,test,1,inc,1,z,Mon Dec 15 2025 15:25:04 GMT-0600 (Central Standard Time),423104.5,film,1100,O,z,z,None,666,451.0,215.0,48,1,2293.2000000476837,420811.2999999523,7722,hate,AF,A,417691,417691,415863,416974,415863,418157,417475,417475,418157,117
98,test,1,inc,1,z,Mon Dec 15 2025 15:25:04 GMT-0600 (Central Standard Time),425187.5,step,800,O,z,z,None,748,548.0,200.0,21,1,2078.7000000476837,423108.7999999523,7722,love,AF,A,419691,419691,418161,418975,418161,420240,419490,419490,420239,118
99,test,1,inc,1,z,Mon Dec 15 2025 15:25:04 GMT-0600 (Central Standard Time),427487.7999999523,window,1100,O,z,z,None,652,452.0,200.0,40,1,2297.399999976158,425190.39999997616,7722,brutal,AF,A,422074,422074,420242,421357,420243,422540,421873,421873,422540,119
100,test,1,inc,1,z,Mon Dec 15 2025 15:25:04 GMT-0600 (Central Standard Time),429886.2999999523,step,800,O,z,z,None,1053,838.0,215.0,53,1,2393.0999999046326,427493.2000000477,7722,rage,AF,A,424089,424089,422545,423357,422546,424938,423874,423874,424938,120
101,test,1,inc,1,z,Mon Dec 15 2025 15:25:04 GMT-0600 (Central Standard Time),431918.5,napkin,900,O,z,z,None,611,412.0,199.0,62,1,2028.3999999761581,429890.10000002384,7722,temper,AF,A,426554,426554,424942,425854,424942,426971,426355,426355,426971,121
102,test,1,con,1,z,Mon Dec 15 2025 15:25:04 GMT-0600 (Central Standard Time),434802.10000002384,friend,1000,O,z,z,None,1347,1134.0,213.0,27,1,2881.2000000476837,431920.89999997616,7722,friend,AF,A,428704,428704,426973,427988,426973,429854,428490,428490,429854,122
103,test,1,con,1,m,Mon Dec 15 2025 15:25:04 GMT-0600 (Central Standard Time),437583.7000000477,step,1000,O,m,m,None,1244,1045.0,199.0,67,1,2778.100000023842,434805.60000002384,7722,step,AF,A,431587,431587,429858,430870,429858,432636,431388,431388,432636,123
104,test,1,inc,1,z,Mon Dec 15 2025 15:25:04 GMT-0600 (Central Standard Time),440266.10000002384,napkin,900,O,z,z,None,1234,1033.0,201.0,38,1,2678.899999976158,437587.2000000477,7722,brutal,AF,A,434269,434269,432639,433552,432640,435318,434068,434068,435318,124
105,test,1,con,1,m,Mon Dec 15 2025 15:25:04 GMT-0600 (Central Standard Time),443232.7999999523,jacket,1100,O,m,m,None,1343,1143.0,200.0,100,1,2961.7999999523163,440271.0,7722,jacket,AF,A,437136,437136,435323,436435,435323,438285,436936,436936,438285,125
105,test,1,con,0,z,Mon Dec 15 2025 15:25:04 GMT-0600 (Central Standard Time),446863.5,temper,1100,O,None,None,None,1799,1799.0,199.0,60,1,3627.5,443236.0,7722,temper,AF,A,440116,440116,438288,439401,438288,441916,439917,439917,441916,126
106,test,1,con,1,z,Mon Dec 15 2025 15:25:04 GMT-0600 (Central Standard Time),448613.5,rage,800,O,z,z,None,404,205.0,199.0,49,1,1742.6000000238419,446870.89999997616,7722,rage,AF,A,443450,443450,441923,442734,441923,443666,443250,443250,443665,127
107,test,1,con,1,m,Mon Dec 15 2025 15:25:04 GMT-0600 (Central Standard Time),450679.2999999523,napkin,900,O,m,m,None,627,428.0,199.0,106,1,2058.1999999284744,448621.10000002384,7722,napkin,AF,A,445299,445299,443673,444582,443673,445731,445099,445099,445731,128
