acc_sum,block,block_c,condition,correct,correct_response,datetime,endtime,flanker,jitter,project,response,response_test_buffer_response,response_test_target_response,response_time,response_time_test_buffer_response,response_time_test_target_response,row_sel,session_number,start_end,starttime,subject_id,target,task,task_vers,time_test_buffer,time_test_buffer_response,time_test_constants,time_test_flanker,time_test_jitter,time_test_logger,time_test_target,time_test_target_response,time_test_variables,trial
1,prac,1,con,1,z,Wed Aug 20 2025 16:37:52 GMT-0500 (Central Daylight Time),128442.5,kiwi,1000,I,z,,,788,,,7,1,3091.8000000715256,125350.69999992847,7209,kiwi,NF,C,,,,,,,,,,1
2,prac,1,inc,1,z,Wed Aug 20 2025 16:37:52 GMT-0500 (Central Daylight Time),131323.09999990463,copper,900,I,z,,,669,,,2,1,2875.2999999523163,128447.79999995232,7209,cherry,NF,C,,,,,,,,,,2
3,prac,1,inc,1,m,Wed Aug 20 2025 16:37:52 GMT-0500 (Central Daylight Time),134306.5,plum,1100,I,m,,,568,,,16,1,2976.7000000476837,131329.79999995232,7209,lead,NF,C,,,,,,,,,,3
4,prac,1,con,1,m,Wed Aug 20 2025 16:37:52 GMT-0500 (Central Daylight Time),136922.79999995232,bronze,800,I,m,,,506,,,9,1,2609.7999999523163,134313.0,7209,bronze,NF,C,,,,,,,,,,4
5,prac,1,inc,1,m,Wed Aug 20 2025 16:37:52 GMT-0500 (Central Daylight Time),139718.69999992847,pear,900,I,m,,,588,,,14,1,2789.7999999523163,136928.89999997616,7209,iron,NF,C,,,,,,,,,,5
6,prac,1,con,1,z,Wed Aug 20 2025 16:37:52 GMT-0500 (Central Daylight Time),142354.09999990463,lime,800,I,z,,,516,,,5,1,2632.0999999046326,139722.0,7209,lime,NF,C,,,,,,,,,,6
7,prac,1,con,1,m,Wed Aug 20 2025 16:37:52 GMT-0500 (Central Daylight Time),145385.0,silver,1000,I,m,,,718,,,11,1,3024.8000000715256,142360.19999992847,7209,silver,NF,C,,,,,,,,,,7
8,prac,1,inc,1,m,Wed Aug 20 2025 16:37:52 GMT-0500 (Central Daylight Time),148334.19999992847,cherry,900,I,m,,,741,,,10,1,2945.6999999284744,145388.5,7209,copper,NF,C,,,,,,,,,,8
9,prac,1,con,1,z,Wed Aug 20 2025 16:37:52 GMT-0500 (Central Daylight Time),151184.79999995232,banana,800,I,z,,,764,,,1,1,2845.100000023842,148339.69999992847,7209,banana,NF,C,,,,,,,,,,9
10,prac,1,inc,1,z,Wed Aug 20 2025 16:37:52 GMT-0500 (Central Daylight Time),154316.29999995232,cobalt,1100,I,z,,,717,,,4,1,3124.5,151191.79999995232,7209,raisin,NF,C,,,,,,,,,,10
11,prac,1,con,1,z,Wed Aug 20 2025 16:37:52 GMT-0500 (Central Daylight Time),157249.79999995232,orange,1000,I,z,,,616,,,3,1,2925.899999976158,154323.89999997616,7209,orange,NF,C,,,,,,,,,,11
12,prac,1,inc,1,m,Wed Aug 20 2025 16:37:52 GMT-0500 (Central Daylight Time),160313.29999995232,raisin,1100,I,m,,,657,,,12,1,3057.5,157255.79999995232,7209,cobalt,NF,C,,,,,,,,,,12
13,prac,1,con,1,m,Wed Aug 20 2025 16:37:52 GMT-0500 (Central Daylight Time),163178.59999990463,gold,800,I,m,,,762,,,13,1,2856.5,160322.09999990463,7209,gold,NF,C,,,,,,,,,,13
14,prac,1,con,1,m,Wed Aug 20 2025 16:37:52 GMT-0500 (Central Daylight Time),166461.39999997616,zinc,1000,I,m,,,977,,,15,1,3279.899999976158,163181.5,7209,zinc,NF,C,,,,,,,,,,14
15,prac,1,inc,1,z,Wed Aug 20 2025 16:37:52 GMT-0500 (Central Daylight Time),169610.19999992847,lead,1100,I,z,,,746,,,8,1,3139.6999999284744,166470.5,7209,plum,NF,C,,,,,,,,,,15
16,prac,1,inc,1,z,Wed Aug 20 2025 16:37:52 GMT-0500 (Central Daylight Time),172510.39999997616,iron,900,I,z,,,684,,,6,1,2892.399999976158,169618.0,7209,pear,NF,C,,,,,,,,,,16
1,test,1,inc,1,m,Wed Aug 20 2025 16:37:52 GMT-0500 (Central Daylight Time),183722.89999997616,banana,800,I,m,m,None,701,501.0,200.0,93,1,2039.2000000476837,181683.69999992847,7209,cobalt,NF,C,177125,177125,175602,176408,175602,177641,176924,176924,177641,1
2,test,1,inc,1,z,Wed Aug 20 2025 16:37:52 GMT-0500 (Central Daylight Time),185721.89999997616,gold,800,I,z,z,None,656,457.0,199.0,45,1,1988.3000000715256,183733.59999990463,7209,pear,NF,C,179174,179174,177652,178457,177652,179640,178974,178974,179640,2
3,test,1,inc,1,m,Wed Aug 20 2025 16:37:52 GMT-0500 (Central Daylight Time),187755.39999997616,lime,800,I,m,m,None,688,473.0,215.0,117,1,2025.3999999761581,185730.0,7209,zinc,NF,C,181190,181190,179648,180457,179648,181674,180974,180974,181673,3
4,test,1,con,1,z,Wed Aug 20 2025 16:37:52 GMT-0500 (Central Daylight Time),190187.5,kiwi,1100,I,z,z,None,784,585.0,199.0,52,1,2425.3000000715256,187762.19999992847,7209,kiwi,NF,C,183506,183506,181680,182791,181681,184106,183306,183306,184106,4
5,test,1,con,1,m,Wed Aug 20 2025 16:37:52 GMT-0500 (Central Daylight Time),192304.0,zinc,800,I,m,m,None,774,575.0,199.0,113,1,2108.100000023842,190195.89999997616,7209,zinc,NF,C,185640,185640,184114,184924,184114,186222,185440,185440,186222,5
6,test,1,con,1,z,Wed Aug 20 2025 16:37:52 GMT-0500 (Central Daylight Time),194569.89999997616,lime,1000,I,z,z,None,718,519.0,199.0,35,1,2260.100000023842,192309.79999995232,7209,lime,NF,C,187954,187954,186228,187239,186228,188488,187754,187754,188488,6
7,test,1,inc,1,m,Wed Aug 20 2025 16:37:52 GMT-0500 (Central Daylight Time),196619.5,lime,800,I,m,m,None,708,507.0,201.0,125,1,2044.1000000238419,194575.39999997616,7209,lead,NF,C,190020,190020,188493,189302,188494,190538,189819,189819,190538,7
8,test,1,con,1,z,Wed Aug 20 2025 16:37:52 GMT-0500 (Central Daylight Time),198633.39999997616,kiwi,800,I,z,z,None,671,471.0,200.0,49,1,2009.3000000715256,196624.09999990463,7209,kiwi,NF,C,192071,192072,190542,191354,190542,192551,191871,191871,192551,8
9,test,1,con,1,m,Wed Aug 20 2025 16:37:52 GMT-0500 (Central Daylight Time),200766.5,bronze,1000,I,m,m,None,585,385.0,200.0,67,1,2129.600000023842,198636.89999997616,7209,bronze,NF,C,194284,194285,192555,193568,192555,194685,194084,194084,194685,9
10,test,1,inc,1,z,Wed Aug 20 2025 16:37:52 GMT-0500 (Central Daylight Time),202866.0,iron,900,I,z,z,None,651,451.0,200.0,62,1,2095.8000000715256,200770.19999992847,7209,plum,NF,C,196319,196319,194688,195603,194689,196784,196119,196119,196784,10
11,test,1,inc,1,m,Wed Aug 20 2025 16:37:52 GMT-0500 (Central Daylight Time),204998.39999997616,pear,900,I,m,m,None,684,485.0,199.0,110,1,2123.5,202874.89999997616,7209,iron,NF,C,198417,198417,196793,197700,196793,198916,198217,198217,198916,11
12,test,1,inc,1,m,Wed Aug 20 2025 16:37:52 GMT-0500 (Central Daylight Time),207397.39999997616,raisin,1100,I,m,m,None,752,553.0,199.0,80,1,2395.8000000715256,205001.59999990463,7209,copper,NF,C,200749,200749,198920,200032,198920,201315,200550,200550,201315,12
13,test,1,inc,1,z,Wed Aug 20 2025 16:37:52 GMT-0500 (Central Daylight Time),209329.69999992847,bronze,800,I,z,z,None,599,399.0,200.0,21,1,1928.7999999523163,207400.89999997616,7209,orange,NF,C,202848,202848,201319,202132,201319,203248,202648,202648,203248,13
14,test,1,inc,1,z,Wed Aug 20 2025 16:37:52 GMT-0500 (Central Daylight Time),211980.29999995232,gold,800,I,z,z,None,1304,1104.0,200.0,61,1,2647.5,209332.79999995232,7209,plum,NF,C,204783,204783,203251,204068,203251,205898,204582,204582,205898,14
15,test,1,con,1,m,Wed Aug 20 2025 16:37:52 GMT-0500 (Central Daylight Time),214312.59999990463,iron,1000,I,m,m,None,785,583.0,202.0,107,1,2327.7999999523163,211984.79999995232,7209,iron,NF,C,207633,207633,205903,206915,205903,208231,207430,207430,208231,15
16,test,1,inc,1,m,Wed Aug 20 2025 16:37:52 GMT-0500 (Central Daylight Time),216661.09999990463,pear,900,I,m,m,None,912,711.0,201.0,126,1,2341.5999999046326,214319.5,7209,lead,NF,C,209863,209863,208238,209148,208238,210579,209662,209662,210579,16
17,test,1,con,1,z,Wed Aug 20 2025 16:37:52 GMT-0500 (Central Daylight Time),218528.79999995232,plum,800,I,z,z,None,519,319.0,200.0,57,1,1864.6000000238419,216664.19999992847,7209,plum,NF,C,212112,212112,210582,211396,210582,212447,211912,211912,212447,17
18,test,1,inc,1,m,Wed Aug 20 2025 16:37:52 GMT-0500 (Central Daylight Time),220760.29999995232,banana,800,I,m,m,None,899,699.0,200.0,69,1,2224.7000000476837,218535.59999990463,7209,bronze,NF,C,213964,213964,212454,213263,212454,214678,213764,213764,214678,18
19,test,1,con,1,m,Wed Aug 20 2025 16:37:52 GMT-0500 (Central Daylight Time),222942.79999995232,cobalt,1100,I,m,m,None,551,352.0,199.0,92,1,2178.7999999523163,220764.0,7209,cobalt,NF,C,216494,216494,214682,215794,214682,216861,216295,216295,216861,19
20,test,1,con,1,z,Wed Aug 20 2025 16:37:52 GMT-0500 (Central Daylight Time),225093.5,raisin,1100,I,z,z,None,505,305.0,200.0,28,1,2146.3000000715256,222947.19999992847,7209,raisin,NF,C,218694,218694,216865,217976,216865,219012,218494,218494,219011,20
21,test,1,inc,1,z,Wed Aug 20 2025 16:37:52 GMT-0500 (Central Daylight Time),227543.09999990463,zinc,1000,I,z,z,None,902,687.0,215.0,47,1,2445.2999999523163,225097.79999995232,7209,pear,NF,C,220760,220760,219016,220029,219016,221461,220545,220545,221461,21
22,test,1,con,1,z,Wed Aug 20 2025 16:37:52 GMT-0500 (Central Daylight Time),229843.29999995232,plum,1100,I,z,z,None,664,465.0,199.0,60,1,2295.399999976158,227547.89999997616,7209,plum,NF,C,223296,223296,221466,222578,221466,223761,223095,223095,223761,22
23,test,1,inc,1,z,Wed Aug 20 2025 16:37:52 GMT-0500 (Central Daylight Time),232106.59999990463,cobalt,1100,I,z,z,None,621,422.0,199.0,16,1,2257.5,229849.09999990463,7209,cherry,NF,C,225593,225593,223767,224878,223767,226025,225394,225394,226025,23
24,test,1,inc,1,z,Wed Aug 20 2025 16:37:52 GMT-0500 (Central Daylight Time),234040.69999992847,bronze,800,I,z,z,None,601,401.0,200.0,29,1,1928.2999999523163,232112.39999997616,7209,raisin,NF,C,227543,227543,226030,226841,226031,227959,227343,227343,227959,24
25,test,1,inc,1,m,Wed Aug 20 2025 16:37:52 GMT-0500 (Central Daylight Time),236274.09999990463,orange,1000,I,m,m,None,699,499.0,200.0,79,1,2226.6999999284744,234047.39999997616,7209,copper,NF,C,229693,229693,227965,228976,227966,230192,229493,229493,230192,25
26,test,1,con,1,m,Wed Aug 20 2025 16:37:52 GMT-0500 (Central Daylight Time),238472.79999995232,iron,1100,I,m,m,None,558,359.0,199.0,108,1,2192.7999999523163,236280.0,7209,iron,NF,C,232025,232025,230198,231309,230198,232391,231825,231825,232391,26
27,test,1,inc,1,m,Wed Aug 20 2025 16:37:52 GMT-0500 (Central Daylight Time),240705.5,kiwi,1000,I,m,m,None,684,484.0,200.0,127,1,2227.100000023842,238478.39999997616,7209,lead,NF,C,234124,234124,232396,233408,232397,234624,233924,233924,234624,27
28,test,1,con,1,m,Wed Aug 20 2025 16:37:52 GMT-0500 (Central Daylight Time),242956.19999992847,bronze,1100,I,m,m,None,617,417.0,200.0,68,1,2246.7999999523163,240709.39999997616,7209,bronze,NF,C,236457,236457,234627,235741,234628,236874,236256,236256,236874,28
29,test,1,inc,1,m,Wed Aug 20 2025 16:37:52 GMT-0500 (Central Daylight Time),245221.5,plum,1100,I,m,m,None,634,432.0,202.0,128,1,2259.600000023842,242961.89999997616,7209,lead,NF,C,238705,238705,236880,237992,236880,239140,238503,238503,239140,29
30,test,1,inc,1,z,Wed Aug 20 2025 16:37:52 GMT-0500 (Central Daylight Time),247437.0,lead,1100,I,z,z,None,573,372.0,201.0,48,1,2207.8000000715256,245229.19999992847,7209,pear,NF,C,240972,240972,239147,240256,239147,241355,240770,240770,241355,30
31,test,1,inc,1,z,Wed Aug 20 2025 16:37:52 GMT-0500 (Central Daylight Time),249702.39999997616,silver,1000,I,z,z,None,723,521.0,202.0,15,1,2260.0,247442.39999997616,7209,cherry,NF,C,243088,243088,241360,242372,241361,243621,242886,242886,243620,31
32,test,1,inc,1,z,Wed Aug 20 2025 16:37:52 GMT-0500 (Central Daylight Time),251684.5,gold,800,I,z,z,None,649,450.0,199.0,37,1,1976.7000000476837,249707.79999995232,7209,lime,NF,C,245152,245152,243626,244437,243626,245603,244953,244953,245603,32
33,test,1,inc,1,z,Wed Aug 20 2025 16:37:52 GMT-0500 (Central Daylight Time),254133.89999997616,silver,1000,I,z,z,None,916,717.0,199.0,23,1,2445.0,251688.89999997616,7209,orange,NF,C,247321,247321,245607,246620,245607,248052,247121,247121,248052,33
34,test,1,inc,1,z,Wed Aug 20 2025 16:37:52 GMT-0500 (Central Daylight Time),256465.79999995232,cobalt,1100,I,z,z,None,716,517.0,199.0,8,1,2326.7999999523163,254139.0,7209,banana,NF,C,249867,249867,248057,249167,248057,250384,249668,249668,250384,34
35,test,1,con,1,z,Wed Aug 20 2025 16:37:52 GMT-0500 (Central Daylight Time),258650.09999990463,orange,1100,I,z,z,None,549,348.0,201.0,20,1,2181.399999976158,256468.69999992847,7209,orange,NF,C,252218,252218,250387,251500,250387,252568,252016,252016,252568,35
36,test,1,inc,1,m,Wed Aug 20 2025 16:37:52 GMT-0500 (Central Daylight Time),260864.89999997616,plum,1100,I,m,m,None,575,374.0,201.0,104,1,2210.600000023842,258654.29999995232,7209,gold,NF,C,254400,254400,252572,253683,252573,254783,254199,254199,254783,36
37,test,1,con,1,m,Wed Aug 20 2025 16:37:52 GMT-0500 (Central Daylight Time),263098.2999999523,silver,1000,I,m,m,None,691,492.0,199.0,83,1,2229.399999976158,260868.89999997616,7209,silver,NF,C,256517,256517,254787,255801,254787,257016,256317,256317,257016,37
38,test,1,con,1,z,Wed Aug 20 2025 16:37:52 GMT-0500 (Central Daylight Time),265314.09999990463,orange,900,I,z,z,None,767,567.0,200.0,18,1,2211.1999999284744,263102.89999997616,7209,orange,NF,C,258650,258650,257021,257933,257021,259232,258450,258450,259232,38
39,test,1,inc,1,z,Wed Aug 20 2025 16:37:52 GMT-0500 (Central Daylight Time),267313.6999999285,iron,900,I,z,z,None,558,359.0,199.0,46,1,1994.1999999284744,265319.5,7209,pear,NF,C,260866,260866,259238,260150,259238,261232,260666,260666,261232,39
40,test,1,con,1,m,Wed Aug 20 2025 16:37:52 GMT-0500 (Central Daylight Time),269329.09999990463,lead,900,I,m,m,None,575,375.0,200.0,122,1,2010.5,267318.59999990463,7209,lead,NF,C,262865,262865,261237,262148,261237,263247,262665,262665,263247,40
41,test,1,con,1,z,Wed Aug 20 2025 16:37:52 GMT-0500 (Central Daylight Time),271645.2999999523,lime,1100,I,z,z,None,668,467.0,201.0,36,1,2311.2000000476837,269334.09999990463,7209,lime,NF,C,265081,265081,263252,264363,263252,265563,264879,264879,265563,41
42,test,1,inc,1,z,Wed Aug 20 2025 16:37:52 GMT-0500 (Central Daylight Time),273861.5,gold,800,I,z,z,None,879,680.0,199.0,53,1,2210.8000000715256,271650.6999999285,7209,kiwi,NF,C,267096,267096,265569,266380,265569,267780,266897,266897,267779,42
43,test,1,inc,1,z,Wed Aug 20 2025 16:37:52 GMT-0500 (Central Daylight Time),275928.39999997616,bronze,800,I,z,z,None,717,518.0,199.0,13,1,2062.399999976158,273866.0,7209,cherry,NF,C,269313,269313,267784,268596,267784,269846,269113,269113,269846,43
44,test,1,inc,1,m,Wed Aug 20 2025 16:37:52 GMT-0500 (Central Daylight Time),278042.6999999285,cherry,900,I,m,m,None,667,467.0,200.0,94,1,2108.2999999523163,275934.39999997616,7209,cobalt,NF,C,271479,271479,269852,270763,269853,271961,271279,271279,271961,44
45,test,1,con,1,z,Wed Aug 20 2025 16:37:52 GMT-0500 (Central Daylight Time),279908.7999999523,lime,900,I,z,z,None,430,230.0,200.0,34,1,1862.1000000238419,278046.6999999285,7209,lime,NF,C,273597,273597,271965,272878,271965,273827,273395,273395,273827,45
46,test,1,inc,1,m,Wed Aug 20 2025 16:37:52 GMT-0500 (Central Daylight Time),282174.0,kiwi,1000,I,m,m,None,718,518.0,200.0,111,1,2260.8000000715256,279913.1999999285,7209,iron,NF,C,275561,275561,273831,274843,273831,276092,275360,275360,276092,46
47,test,1,con,1,m,Wed Aug 20 2025 16:37:52 GMT-0500 (Central Daylight Time),284073.2999999523,iron,900,I,m,m,None,457,258.0,199.0,106,1,1892.2999999523163,282181.0,7209,iron,NF,C,277725,277725,276099,277010,276099,277991,277526,277526,277991,47
48,test,1,con,1,z,Wed Aug 20 2025 16:37:52 GMT-0500 (Central Daylight Time),286223.09999990463,cherry,900,I,z,z,None,709,510.0,199.0,10,1,2141.6999999284744,284081.39999997616,7209,cherry,NF,C,279625,279625,277999,278908,278000,280141,279425,279425,280141,48
49,test,1,inc,1,m,Wed Aug 20 2025 16:37:52 GMT-0500 (Central Daylight Time),288489.0,raisin,1100,I,m,m,None,625,425.0,200.0,96,1,2259.600000023842,286229.39999997616,7209,cobalt,NF,C,281974,281974,280147,281258,280148,282407,281774,281774,282407,49
50,test,1,inc,1,m,Wed Aug 20 2025 16:37:52 GMT-0500 (Central Daylight Time),290621.2999999523,orange,1000,I,m,m,None,586,386.0,200.0,95,1,2125.7999999523163,288495.5,7209,cobalt,NF,C,284141,284141,282414,283424,282414,284539,283940,283940,284539,50
51,test,1,con,1,m,Wed Aug 20 2025 16:37:52 GMT-0500 (Central Daylight Time),292654.1999999285,silver,900,I,m,m,None,585,385.0,200.0,82,1,2024.7999999523163,290629.39999997616,7209,silver,NF,C,286174,286174,284547,285457,284548,286572,285973,285973,286572,51
52,test,1,inc,1,z,Wed Aug 20 2025 16:37:52 GMT-0500 (Central Daylight Time),294636.7999999523,bronze,800,I,z,z,None,636,437.0,199.0,5,1,1975.8999999761581,292660.89999997616,7209,banana,NF,C,288105,288106,286579,287392,286579,288555,287906,287906,288555,52
53,test,1,con,1,m,Wed Aug 20 2025 16:37:52 GMT-0500 (Central Daylight Time),296852.5,silver,1100,I,m,m,None,578,379.0,199.0,84,1,2206.5,294646.0,7209,silver,NF,C,290388,290388,288564,289673,288564,290771,290188,290188,290771,53
54,test,1,con,1,m,Wed Aug 20 2025 16:37:52 GMT-0500 (Central Daylight Time),298618.6999999285,silver,800,I,m,m,None,432,233.0,199.0,81,1,1757.3999999761581,296861.2999999523,7209,silver,NF,C,292288,292288,290779,291587,290780,292537,292088,292088,292537,54
55,test,1,inc,1,m,Wed Aug 20 2025 16:37:52 GMT-0500 (Central Daylight Time),300618.39999997616,pear,900,I,m,m,None,552,352.0,200.0,118,1,1992.8999999761581,298625.5,7209,zinc,NF,C,294170,294170,292544,293454,292544,294537,293970,293970,294536,55
56,test,1,con,1,z,Wed Aug 20 2025 16:37:52 GMT-0500 (Central Daylight Time),302684.59999990463,cherry,1000,I,z,z,None,521,322.0,199.0,11,1,2058.5,300626.09999990463,7209,cherry,NF,C,296269,296269,294544,295553,294544,296603,296070,296070,296603,56
57,test,1,con,1,z,Wed Aug 20 2025 16:37:52 GMT-0500 (Central Daylight Time),304650.7999999523,plum,1000,I,z,z,None,423,224.0,199.0,59,1,1960.2000000476837,302690.59999990463,7209,plum,NF,C,298336,298336,296609,297619,296609,298569,298136,298136,298569,57
58,test,1,inc,1,m,Wed Aug 20 2025 16:37:52 GMT-0500 (Central Daylight Time),306616.5,cherry,900,I,m,m,None,524,324.0,200.0,86,1,1957.6000000238419,304658.89999997616,7209,silver,NF,C,300203,300203,298577,299486,298577,300535,300002,300002,300535,58
59,test,1,con,1,z,Wed Aug 20 2025 16:37:52 GMT-0500 (Central Daylight Time),308515.89999997616,kiwi,900,I,z,z,None,461,262.0,199.0,50,1,1892.3000000715256,306623.59999990463,7209,kiwi,NF,C,302170,302170,300542,301452,300542,302434,301968,301969,302434,59
60,test,1,con,1,m,Wed Aug 20 2025 16:37:52 GMT-0500 (Central Daylight Time),310715.89999997616,zinc,1000,I,m,m,None,665,449.0,216.0,115,1,2194.0,308521.89999997616,7209,zinc,NF,C,304185,304185,302440,303450,302440,304634,303968,303968,304634,60
61,test,1,con,1,m,Wed Aug 20 2025 16:37:52 GMT-0500 (Central Daylight Time),312999.39999997616,cobalt,1000,I,m,m,None,736,536.0,200.0,91,1,2277.100000023842,310722.2999999523,7209,cobalt,NF,C,306368,306368,304640,305651,304641,306917,306167,306167,306917,61
62,test,1,con,1,m,Wed Aug 20 2025 16:37:52 GMT-0500 (Central Daylight Time),315016.1999999285,copper,900,I,m,m,None,569,369.0,200.0,74,1,2010.7999999523163,313005.39999997616,7209,copper,NF,C,308550,308550,306923,307834,306924,308934,308349,308349,308934,62
63,test,1,con,1,z,Wed Aug 20 2025 16:37:52 GMT-0500 (Central Daylight Time),317165.2999999523,pear,1000,I,z,z,None,603,403.0,200.0,43,1,2142.7999999523163,315022.5,7209,pear,NF,C,310666,310667,308941,309949,308941,311083,310466,310466,311083,63
64,test,1,inc,1,m,Wed Aug 20 2025 16:37:52 GMT-0500 (Central Daylight Time),319429.5,plum,1100,I,m,m,None,619,419.0,200.0,112,1,2259.2000000476837,317170.2999999523,7209,iron,NF,C,312915,312916,311088,312199,311089,313348,312715,312715,313347,64
65,test,1,inc,1,m,Wed Aug 20 2025 16:37:52 GMT-0500 (Central Daylight Time),321729.09999990463,cherry,900,I,m,m,None,859,644.0,215.0,70,1,2293.0,319436.09999990463,7209,bronze,NF,C,314996,314996,313354,314264,313355,315647,314781,314781,315647,65
66,test,1,inc,1,z,Wed Aug 20 2025 16:37:52 GMT-0500 (Central Daylight Time),323844.6999999285,iron,900,I,z,z,None,682,481.0,201.0,38,1,2111.600000023842,321733.09999990463,7209,lime,NF,C,317282,317282,315651,316565,315651,317763,317081,317081,317763,66
67,test,1,con,1,z,Wed Aug 20 2025 16:37:52 GMT-0500 (Central Daylight Time),326028.2999999523,pear,800,I,z,z,None,839,639.0,200.0,41,1,2178.600000023842,323849.6999999285,7209,pear,NF,C,319298,319298,317768,318581,317768,319946,319097,319097,319946,67
68,test,1,inc,1,z,Wed Aug 20 2025 16:37:52 GMT-0500 (Central Daylight Time),328212.1999999285,silver,1000,I,z,z,None,641,440.0,201.0,31,1,2177.899999976158,326034.2999999523,7209,raisin,NF,C,321680,321680,319952,320962,319953,322130,321478,321478,322130,68
69,test,1,con,1,z,Wed Aug 20 2025 16:37:52 GMT-0500 (Central Daylight Time),330209.89999997616,raisin,1000,I,z,z,None,458,257.0,201.0,27,1,1992.8000000715256,328217.09999990463,7209,raisin,NF,C,323864,323864,322135,323146,322135,324128,323662,323662,324128,69
70,test,1,con,1,m,Wed Aug 20 2025 16:37:52 GMT-0500 (Central Daylight Time),332326.1999999285,copper,1000,I,m,m,None,570,369.0,201.0,75,1,2110.399999976158,330215.7999999523,7209,copper,NF,C,325862,325862,324134,325145,324134,326244,325661,325661,326244,70
71,test,1,inc,1,m,Wed Aug 20 2025 16:37:52 GMT-0500 (Central Daylight Time),334857.5,orange,1000,I,m,m,None,982,767.0,215.0,87,1,2525.7000000476837,332331.7999999523,7209,silver,NF,C,327993,327994,326250,327262,326250,328776,327778,327778,328776,71
72,test,1,con,1,z,Wed Aug 20 2025 16:37:52 GMT-0500 (Central Daylight Time),336656.6999999285,orange,800,I,z,z,None,449,249.0,200.0,17,1,1789.1000000238419,334867.59999990463,7209,orange,NF,C,330310,330310,328786,329593,328786,330575,330110,330110,330575,72
73,test,1,inc,1,m,Wed Aug 20 2025 16:37:52 GMT-0500 (Central Daylight Time),338940.7999999523,kiwi,1000,I,m,m,None,747,548.0,199.0,119,1,2279.399999976158,336661.39999997616,7209,zinc,NF,C,332309,332310,330579,331594,330580,332859,332110,332110,332859,73
74,test,1,con,1,z,Wed Aug 20 2025 16:37:52 GMT-0500 (Central Daylight Time),340973.09999990463,cherry,800,I,z,z,None,700,499.0,201.0,9,1,2026.8999999761581,338946.1999999285,7209,cherry,NF,C,334392,334392,332864,333674,332864,334891,334191,334191,334891,74
75,test,1,inc,1,z,Wed Aug 20 2025 16:37:52 GMT-0500 (Central Daylight Time),343323.09999990463,lead,1100,I,z,z,None,715,516.0,199.0,64,1,2343.5999999046326,340979.5,7209,plum,NF,C,336725,336725,334898,336009,334898,337241,336525,336525,337241,75
76,test,1,inc,1,z,Wed Aug 20 2025 16:37:52 GMT-0500 (Central Daylight Time),345372.5,copper,900,I,z,z,None,616,415.0,201.0,30,1,2042.5,343330.0,7209,raisin,NF,C,338875,338875,337248,338157,337248,339291,338674,338674,339291,76
77,test,1,inc,1,m,Wed Aug 20 2025 16:37:52 GMT-0500 (Central Daylight Time),347620.09999990463,raisin,1100,I,m,m,None,604,404.0,200.0,88,1,2241.0,345379.09999990463,7209,silver,NF,C,341124,341124,339297,340407,339297,341538,340923,340923,341538,77
78,test,1,inc,1,z,Wed Aug 20 2025 16:37:52 GMT-0500 (Central Daylight Time),349770.39999997616,zinc,1000,I,z,z,None,607,406.0,201.0,39,1,2146.0,347624.39999997616,7209,lime,NF,C,343273,343273,341542,342556,341543,343689,343071,343071,343688,78
78,test,1,con,0,z,Wed Aug 20 2025 16:37:52 GMT-0500 (Central Daylight Time),351987.7999999523,banana,900,I,m,m,None,783,584.0,199.0,2,1,2211.7999999523163,349776.0,7209,banana,NF,C,345322,345322,343694,344607,343694,345906,345122,345122,345906,79
79,test,1,con,1,z,Wed Aug 20 2025 16:37:52 GMT-0500 (Central Daylight Time),354020.1999999285,banana,800,I,z,z,None,701,501.0,200.0,1,1,2026.6000000238419,351993.59999990463,7209,banana,NF,C,347437,347437,345912,346721,345912,347938,347237,347237,347938,80
80,test,1,con,1,z,Wed Aug 20 2025 16:37:52 GMT-0500 (Central Daylight Time),356101.39999997616,plum,900,I,z,z,None,636,436.0,200.0,58,1,2074.899999976158,354026.5,7209,plum,NF,C,349572,349572,347945,348856,347945,350019,349371,349371,350019,81
81,test,1,con,1,m,Wed Aug 20 2025 16:37:52 GMT-0500 (Central Daylight Time),358283.5,cobalt,800,I,m,m,None,844,645.0,199.0,89,1,2177.5,356106.0,7209,cobalt,NF,C,351553,351554,350024,350837,350024,352202,351354,351354,352202,82
82,test,1,inc,1,m,Wed Aug 20 2025 16:37:52 GMT-0500 (Central Daylight Time),360215.1999999285,banana,800,I,m,m,None,581,366.0,215.0,77,1,1927.3999999761581,358287.7999999523,7209,copper,NF,C,353752,353752,352206,353019,352206,354133,353537,353537,354133,83
83,test,1,inc,1,m,Wed Aug 20 2025 16:37:52 GMT-0500 (Central Daylight Time),362331.7999999523,pear,900,I,m,m,None,669,456.0,213.0,102,1,2111.899999976158,360219.89999997616,7209,gold,NF,C,355783,355783,354138,355052,354138,356250,355570,355570,356250,84
84,test,1,inc,1,z,Wed Aug 20 2025 16:37:52 GMT-0500 (Central Daylight Time),364449.09999990463,iron,900,I,z,z,None,674,473.0,201.0,54,1,2112.899999976158,362336.1999999285,7209,kiwi,NF,C,357886,357886,356254,357168,356254,358367,357684,357684,358367,85
85,test,1,con,1,z,Wed Aug 20 2025 16:37:52 GMT-0500 (Central Daylight Time),366698.39999997616,pear,900,I,z,z,None,808,608.0,200.0,42,1,2244.3000000715256,364454.09999990463,7209,pear,NF,C,360001,360001,358372,359284,358372,360617,359801,359801,360616,86
86,test,1,con,1,z,Wed Aug 20 2025 16:37:52 GMT-0500 (Central Daylight Time),368945.6999999285,banana,1000,I,z,z,None,702,488.0,214.0,3,1,2242.399999976158,366703.2999999523,7209,banana,NF,C,362366,362366,360621,361634,360622,362864,362151,362151,362864,87
87,test,1,con,1,m,Wed Aug 20 2025 16:37:52 GMT-0500 (Central Daylight Time),371046.5,gold,900,I,m,m,None,650,435.0,215.0,98,1,2097.9000000953674,368948.59999990463,7209,gold,NF,C,364516,364516,362867,363782,362867,364965,364300,364300,364965,88
88,test,1,inc,1,m,Wed Aug 20 2025 16:37:52 GMT-0500 (Central Daylight Time),373461.1999999285,plum,1100,I,m,m,None,774,559.0,215.0,120,1,2409.1999999284744,371052.0,7209,zinc,NF,C,366815,366815,364970,366083,364970,367379,366600,366600,367379,89
89,test,1,inc,1,m,Wed Aug 20 2025 16:37:52 GMT-0500 (Central Daylight Time),375710.6999999285,orange,1000,I,m,m,None,711,511.0,200.0,71,1,2245.899999976158,373464.7999999523,7209,bronze,NF,C,369112,369112,367383,368396,367383,369629,368912,368912,369629,90
90,test,1,inc,1,z,Wed Aug 20 2025 16:37:52 GMT-0500 (Central Daylight Time),378027.6999999285,cobalt,1100,I,z,z,None,665,451.0,214.0,32,1,2310.7999999523163,375716.89999997616,7209,raisin,NF,C,371480,371480,369635,370748,369635,371946,371265,371265,371946,91
91,test,1,con,1,m,Wed Aug 20 2025 16:37:52 GMT-0500 (Central Daylight Time),380209.89999997616,iron,800,I,m,m,None,839,640.0,199.0,105,1,2177.100000023842,378032.7999999523,7209,iron,NF,C,373479,373479,371951,372763,371951,374128,373280,373280,374128,92
92,test,1,con,1,z,Wed Aug 20 2025 16:37:52 GMT-0500 (Central Daylight Time),382642.39999997616,pear,1100,I,z,z,None,813,614.0,199.0,44,1,2427.7000000476837,380214.6999999285,7209,pear,NF,C,375946,375946,374133,375244,374133,376560,375747,375747,376560,93
93,test,1,inc,1,z,Wed Aug 20 2025 16:37:52 GMT-0500 (Central Daylight Time),384992.89999997616,silver,1000,I,z,z,None,816,616.0,200.0,7,1,2345.8000000715256,382647.09999990463,7209,banana,NF,C,378279,378279,376565,377577,376565,378911,378078,378078,378911,94
94,test,1,inc,1,m,Wed Aug 20 2025 16:37:52 GMT-0500 (Central Daylight Time),387090.59999990463,lime,800,I,m,m,None,756,557.0,199.0,109,1,2092.0,384998.59999990463,7209,iron,NF,C,380443,380443,378917,379728,378917,381009,380244,380244,381009,95
95,test,1,inc,1,z,Wed Aug 20 2025 16:37:52 GMT-0500 (Central Daylight Time),389475.2999999523,lead,1100,I,z,z,None,742,542.0,200.0,56,1,2378.899999976158,387096.39999997616,7209,kiwi,NF,C,382843,382843,381014,382128,381015,383393,382642,382642,383393,96
96,test,1,inc,1,z,Wed Aug 20 2025 16:37:52 GMT-0500 (Central Daylight Time),391873.6999999285,cobalt,1100,I,z,z,None,772,558.0,214.0,24,1,2393.399999976158,389480.2999999523,7209,orange,NF,C,385226,385226,383398,384508,383399,385792,385011,385011,385792,97
97,test,1,inc,1,z,Wed Aug 20 2025 16:37:52 GMT-0500 (Central Daylight Time),393873.7999999523,copper,900,I,z,z,None,567,366.0,201.0,22,1,1995.2999999523163,391878.5,7209,orange,NF,C,387409,387409,385797,386707,385797,387792,387208,387208,387792,98
98,test,1,con,1,m,Wed Aug 20 2025 16:37:52 GMT-0500 (Central Daylight Time),396038.5,lead,1100,I,m,m,None,525,326.0,199.0,124,1,2158.0,393880.5,7209,lead,NF,C,389625,389625,387799,388908,387799,389957,389425,389425,389957,99
99,test,1,con,1,m,Wed Aug 20 2025 16:37:52 GMT-0500 (Central Daylight Time),398123.5,gold,800,I,m,m,None,750,551.0,199.0,97,1,2081.3000000715256,396042.1999999285,7209,gold,NF,C,391473,391474,389960,390772,389960,392042,391274,391274,392041,100
100,test,1,inc,1,m,Wed Aug 20 2025 16:37:52 GMT-0500 (Central Daylight Time),400186.89999997616,kiwi,1000,I,m,m,None,524,325.0,199.0,103,1,2058.100000023842,398128.7999999523,7209,gold,NF,C,393772,393772,392047,393058,392047,394105,393573,393573,394105,101
101,test,1,con,1,z,Wed Aug 20 2025 16:37:52 GMT-0500 (Central Daylight Time),402368.1999999285,kiwi,1000,I,z,z,None,634,433.0,201.0,51,1,2174.7999999523163,400193.39999997616,7209,kiwi,NF,C,395838,395838,394111,395123,394112,396286,395637,395637,396286,102
102,test,1,con,1,z,Wed Aug 20 2025 16:37:52 GMT-0500 (Central Daylight Time),404618.39999997616,orange,1000,I,z,z,None,716,516.0,200.0,19,1,2246.8000000715256,402371.59999990463,7209,orange,NF,C,398006,398006,396290,397303,396290,398536,397805,397805,398536,103
103,test,1,con,1,m,Wed Aug 20 2025 16:37:52 GMT-0500 (Central Daylight Time),406768.2999999523,cobalt,900,I,m,m,None,710,510.0,200.0,90,1,2144.899999976158,404623.39999997616,7209,cobalt,NF,C,400171,400171,398541,399454,398542,400686,399971,399971,400686,104
104,test,1,con,1,m,Wed Aug 20 2025 16:37:52 GMT-0500 (Central Daylight Time),409017.6999999285,bronze,900,I,m,m,None,808,608.0,200.0,66,1,2242.5,406775.1999999285,7209,bronze,NF,C,402321,402321,400693,401603,400694,402936,402120,402120,402936,105
105,test,1,con,1,m,Wed Aug 20 2025 16:37:52 GMT-0500 (Central Daylight Time),411333.89999997616,lead,1000,I,m,m,None,769,551.0,218.0,123,1,2310.8000000715256,409023.09999990463,7209,lead,NF,C,404688,404688,402941,403953,402941,405252,404469,404469,405252,106
106,test,1,con,1,m,Wed Aug 20 2025 16:37:52 GMT-0500 (Central Daylight Time),413649.1999999285,gold,1100,I,m,m,None,673,459.0,214.0,100,1,2308.7999999523163,411340.39999997616,7209,gold,NF,C,407101,407101,405258,406368,405259,407567,406887,406887,407567,107
107,test,1,inc,1,z,Wed Aug 20 2025 16:37:52 GMT-0500 (Central Daylight Time),415948.6999999285,zinc,1000,I,z,z,None,750,549.0,201.0,55,1,2295.600000023842,413653.09999990463,7209,kiwi,NF,C,409302,409302,407571,408586,407571,409867,409100,409100,409867,108
108,test,1,inc,1,m,Wed Aug 20 2025 16:37:52 GMT-0500 (Central Daylight Time),418197.2999999523,cherry,900,I,m,m,None,810,610.0,200.0,78,1,2240.5,415956.7999999523,7209,copper,NF,C,411500,411500,409875,410784,409875,412115,411300,411300,412115,109
109,test,1,con,1,m,Wed Aug 20 2025 16:37:52 GMT-0500 (Central Daylight Time),420464.0,zinc,900,I,m,m,None,819,620.0,199.0,114,1,2263.2000000476837,418200.7999999523,7209,zinc,NF,C,413748,413748,412119,413034,412119,414382,413549,413549,414382,110
110,test,1,con,1,m,Wed Aug 20 2025 16:37:52 GMT-0500 (Central Daylight Time),422462.6999999285,copper,800,I,m,m,None,659,459.0,200.0,73,1,1989.7999999523163,420472.89999997616,7209,copper,NF,C,415917,415917,414391,415201,414391,416381,415716,415716,416381,111
111,test,1,inc,1,m,Wed Aug 20 2025 16:37:52 GMT-0500 (Central Daylight Time),424446.89999997616,lime,800,I,m,m,None,636,436.0,200.0,101,1,1978.5,422468.39999997616,7209,gold,NF,C,417915,417915,416386,417199,416387,418365,417715,417715,418365,112
112,test,1,inc,1,z,Wed Aug 20 2025 16:37:52 GMT-0500 (Central Daylight Time),426712.59999990463,copper,900,I,z,z,None,819,618.0,201.0,14,1,2259.899999976158,424452.6999999285,7209,cherry,NF,C,419998,419998,418371,419281,418371,420631,419797,419797,420631,113
113,test,1,inc,1,m,Wed Aug 20 2025 16:37:52 GMT-0500 (Central Daylight Time),428962.1999999285,banana,800,I,m,m,None,923,710.0,213.0,85,1,2243.2999999523163,426718.89999997616,7209,silver,NF,C,422162,422162,420637,421447,420637,422880,421949,421949,422880,114
114,test,1,con,1,m,Wed Aug 20 2025 16:37:52 GMT-0500 (Central Daylight Time),431127.1999999285,gold,1000,I,m,m,None,626,426.0,200.0,99,1,2160.2999999523163,428966.89999997616,7209,gold,NF,C,424613,424613,422885,423896,422885,425045,424412,424412,425045,115
115,test,1,con,1,z,Wed Aug 20 2025 16:37:52 GMT-0500 (Central Daylight Time),432909.2999999523,raisin,800,I,z,z,None,436,220.0,216.0,25,1,1775.7000000476837,431133.59999990463,7209,raisin,NF,C,426596,426596,425052,425863,425052,426827,426379,426379,426827,116
116,test,1,con,1,z,Wed Aug 20 2025 16:37:52 GMT-0500 (Central Daylight Time),435210.7999999523,cherry,1100,I,z,z,None,659,459.0,200.0,12,1,2294.2999999523163,432916.5,7209,cherry,NF,C,428662,428662,426835,427946,426835,429129,428461,428461,429129,117
117,test,1,con,1,z,Wed Aug 20 2025 16:37:52 GMT-0500 (Central Daylight Time),437277.2999999523,raisin,900,I,z,z,None,632,431.0,201.0,26,1,2060.899999976158,435216.39999997616,7209,raisin,NF,C,430761,430761,429134,430044,429135,431195,430560,430560,431195,118
118,test,1,con,1,z,Wed Aug 20 2025 16:37:52 GMT-0500 (Central Daylight Time),439275.1999999285,lime,800,I,z,z,None,651,451.0,200.0,33,1,1992.8999999761581,437282.2999999523,7209,lime,NF,C,432727,432727,431200,432011,431201,433193,432527,432527,433193,119
119,test,1,inc,1,m,Wed Aug 20 2025 16:37:52 GMT-0500 (Central Daylight Time),441524.2999999523,raisin,1100,I,m,m,None,600,401.0,199.0,72,1,2243.5,439280.7999999523,7209,bronze,NF,C,435026,435027,433199,434310,433199,435442,434827,434827,435442,120
120,test,1,con,1,m,Wed Aug 20 2025 16:37:52 GMT-0500 (Central Daylight Time),443555.89999997616,lead,800,I,m,m,None,686,487.0,199.0,121,1,2025.3000000715256,441530.59999990463,7209,lead,NF,C,436976,436976,435449,436259,435449,437474,436776,436776,437474,121
120,test,1,con,0,m,Wed Aug 20 2025 16:37:52 GMT-0500 (Central Daylight Time),445922.5,copper,1100,I,z,z,None,718,518.0,200.0,76,1,2359.8000000715256,443562.6999999285,7209,copper,NF,C,439308,439308,437481,438590,437481,439841,439107,439107,439841,122
121,test,1,con,1,z,Wed Aug 20 2025 16:37:52 GMT-0500 (Central Daylight Time),448756.0,banana,1100,I,z,z,None,1199,999.0,200.0,4,1,2827.5,445928.5,7209,banana,NF,C,441675,441675,439847,440958,439847,442674,441474,441474,442674,123
122,test,1,inc,1,z,Wed Aug 20 2025 16:37:52 GMT-0500 (Central Daylight Time),450786.1999999285,copper,900,I,z,z,None,596,397.0,199.0,6,1,2023.6999999284744,448762.5,7209,banana,NF,C,444306,444306,442681,443590,442681,444704,444107,444107,444704,124
123,test,1,con,1,m,Wed Aug 20 2025 16:37:52 GMT-0500 (Central Daylight Time),453187.0,bronze,800,I,m,m,None,1066,866.0,200.0,65,1,2398.100000023842,450788.89999997616,7209,bronze,NF,C,446224,446224,444707,445522,444707,447105,446023,446023,447105,125
124,test,1,inc,1,z,Wed Aug 20 2025 16:37:52 GMT-0500 (Central Daylight Time),456019.59999990463,lead,1100,I,z,z,None,1205,1005.0,200.0,40,1,2826.6999999284744,453192.89999997616,7209,lime,NF,C,448923,448923,447111,448221,447111,449938,448722,448722,449938,126
125,test,1,con,1,m,Wed Aug 20 2025 16:37:52 GMT-0500 (Central Daylight Time),458385.7999999523,zinc,1100,I,m,m,None,724,525.0,199.0,116,1,2359.7000000476837,456026.09999990463,7209,zinc,NF,C,451771,451771,449944,451054,449944,452304,451571,451571,452304,127
126,test,1,inc,1,z,Wed Aug 20 2025 16:37:52 GMT-0500 (Central Daylight Time),460618.6999999285,zinc,1000,I,z,z,None,693,493.0,200.0,63,1,2227.899999976158,458390.7999999523,7209,plum,NF,C,454036,454036,452309,453319,452309,454537,453836,453836,454537,128
