acc_sum,block,block_c,condition,correct,correct_response,datetime,endtime,flanker,jitter,project,response,response_test_buffer_response,response_test_target_response,response_time,response_time_test_buffer_response,response_time_test_target_response,row_sel,session_number,start_end,starttime,subject_id,target,task,task_vers,time_test_buffer,time_test_buffer_response,time_test_constants,time_test_flanker,time_test_jitter,time_test_logger,time_test_target,time_test_target_response,time_test_variables,trial
0,prac,1,inc,0,z,Thu Sep 18 2025 10:50:18 GMT-0500 (Central Daylight Time),168955.39999997616,cobalt,1100,I,None,,,1813,,,4,1,5177.5,163777.89999997616,7213,raisin,NF,C,,,,,,,,,,1
1,prac,1,inc,1,m,Thu Sep 18 2025 10:50:18 GMT-0500 (Central Daylight Time),171786.89999997616,pear,900,I,m,,,625,,,14,1,2824.2000000476837,168962.69999992847,7213,iron,NF,C,,,,,,,,,,2
2,prac,1,con,1,z,Thu Sep 18 2025 10:50:18 GMT-0500 (Central Daylight Time),174452.5,banana,800,I,z,,,566,,,1,1,2657.4000000953674,171795.09999990463,7213,banana,NF,C,,,,,,,,,,3
3,prac,1,con,1,m,Thu Sep 18 2025 10:50:18 GMT-0500 (Central Daylight Time),177052.59999990463,bronze,800,I,m,,,493,,,9,1,2591.7999999523163,174460.79999995232,7213,bronze,NF,C,,,,,,,,,,4
4,prac,1,inc,1,m,Thu Sep 18 2025 10:50:18 GMT-0500 (Central Daylight Time),180002.5,raisin,1100,I,m,,,536,,,12,1,2944.5,177058.0,7213,cobalt,NF,C,,,,,,,,,,5
5,prac,1,con,1,m,Thu Sep 18 2025 10:50:18 GMT-0500 (Central Daylight Time),182517.59999990463,gold,800,I,m,,,398,,,13,1,2508.899999976158,180008.69999992847,7213,gold,NF,C,,,,,,,,,,6
6,prac,1,inc,1,z,Thu Sep 18 2025 10:50:18 GMT-0500 (Central Daylight Time),185201.09999990463,iron,900,I,z,,,470,,,6,1,2677.0999999046326,182524.0,7213,pear,NF,C,,,,,,,,,,7
7,prac,1,con,1,m,Thu Sep 18 2025 10:50:18 GMT-0500 (Central Daylight Time),188000.0,zinc,1000,I,m,,,498,,,15,1,2791.100000023842,185208.89999997616,7213,zinc,NF,C,,,,,,,,,,8
8,prac,1,inc,1,z,Thu Sep 18 2025 10:50:18 GMT-0500 (Central Daylight Time),190749.09999990463,copper,900,I,z,,,535,,,2,1,2742.0,188007.09999990463,7213,cherry,NF,C,,,,,,,,,,9
9,prac,1,con,1,m,Thu Sep 18 2025 10:50:18 GMT-0500 (Central Daylight Time),193829.5,silver,1000,I,m,,,782,,,11,1,3074.4000000953674,190755.09999990463,7213,silver,NF,C,,,,,,,,,,10
10,prac,1,inc,1,z,Thu Sep 18 2025 10:50:18 GMT-0500 (Central Daylight Time),196712.89999997616,lead,1100,I,z,,,486,,,8,1,2879.8000000715256,193833.09999990463,7213,plum,NF,C,,,,,,,,,,11
11,prac,1,inc,1,m,Thu Sep 18 2025 10:50:18 GMT-0500 (Central Daylight Time),199513.0,cherry,900,I,m,,,588,,,10,1,2795.4000000953674,196717.59999990463,7213,copper,NF,C,,,,,,,,,,12
12,prac,1,inc,1,m,Thu Sep 18 2025 10:50:18 GMT-0500 (Central Daylight Time),202461.89999997616,plum,1100,I,m,,,542,,,16,1,2943.5,199518.39999997616,7213,lead,NF,C,,,,,,,,,,13
13,prac,1,con,1,z,Thu Sep 18 2025 10:50:18 GMT-0500 (Central Daylight Time),205345.0,kiwi,1000,I,z,,,570,,,7,1,2876.2000000476837,202468.79999995232,7213,kiwi,NF,C,,,,,,,,,,14
14,prac,1,con,1,z,Thu Sep 18 2025 10:50:18 GMT-0500 (Central Daylight Time),208125.89999997616,orange,1000,I,z,,,473,,,3,1,2773.2000000476837,205352.69999992847,7213,orange,NF,C,,,,,,,,,,15
15,prac,1,con,1,z,Thu Sep 18 2025 10:50:18 GMT-0500 (Central Daylight Time),210676.0,lime,800,I,z,,,441,,,5,1,2544.8000000715256,208131.19999992847,7213,lime,NF,C,,,,,,,,,,16
1,test,1,con,1,m,Thu Sep 18 2025 10:50:18 GMT-0500 (Central Daylight Time),228201.89999997616,zinc,800,I,m,m,None,560,361.0,199.0,113,1,1874.3000000715256,226327.59999990463,7213,zinc,NF,C,210014,210014,208505,209313,208505,210379,209814,209815,210379,1
1,test,1,inc,0,m,Thu Sep 18 2025 10:50:18 GMT-0500 (Central Daylight Time),230303.29999995232,pear,900,I,z,z,None,666,466.0,200.0,102,1,2095.7999999523163,228207.5,7213,gold,NF,C,212014,212014,210385,211297,210385,212480,211813,211813,212480,2
2,test,1,inc,1,z,Thu Sep 18 2025 10:50:18 GMT-0500 (Central Daylight Time),232284.89999997616,copper,900,I,z,z,None,533,333.0,200.0,30,1,1975.3000000715256,230309.59999990463,7213,raisin,NF,C,214114,214114,212487,213397,212487,214462,213913,213913,214462,3
2,test,1,inc,0,z,Thu Sep 18 2025 10:50:18 GMT-0500 (Central Daylight Time),234183.29999995232,iron,900,I,m,m,None,457,257.0,200.0,54,1,1888.8999999761581,232294.39999997616,7213,kiwi,NF,C,216094,216094,214471,215377,214472,216360,215894,215894,216360,4
3,test,1,inc,1,m,Thu Sep 18 2025 10:50:18 GMT-0500 (Central Daylight Time),236150.19999992847,banana,800,I,m,m,None,632,433.0,199.0,93,1,1958.7999999523163,234191.39999997616,7213,cobalt,NF,C,217879,217879,216368,217177,216369,218327,217679,217679,218327,5
4,test,1,inc,1,z,Thu Sep 18 2025 10:50:18 GMT-0500 (Central Daylight Time),238183.0,zinc,1000,I,z,z,None,490,291.0,199.0,39,1,2025.8000000715256,236157.19999992847,7213,lime,NF,C,220060,220060,218334,219347,218335,220360,219860,219860,220360,6
5,test,1,con,1,m,Thu Sep 18 2025 10:50:18 GMT-0500 (Central Daylight Time),240065.5,silver,800,I,m,m,None,538,337.0,201.0,81,1,1873.7000000476837,238191.79999995232,7213,silver,NF,C,221894,221894,220369,221177,220369,222243,221692,221692,222242,7
6,test,1,inc,1,z,Thu Sep 18 2025 10:50:18 GMT-0500 (Central Daylight Time),242118.89999997616,lead,1100,I,z,z,None,421,222.0,199.0,64,1,2048.5,240070.39999997616,7213,plum,NF,C,224074,224074,222247,223360,222248,224296,223875,223875,224296,8
7,test,1,con,1,z,Thu Sep 18 2025 10:50:18 GMT-0500 (Central Daylight Time),244280.69999992847,orange,900,I,z,z,None,722,507.0,215.0,18,1,2158.6999999284744,242122.0,7213,orange,NF,C,225941,225941,224299,225208,224299,226458,225726,225726,226458,9
8,test,1,con,1,m,Thu Sep 18 2025 10:50:18 GMT-0500 (Central Daylight Time),246464.0,iron,900,I,m,m,None,734,535.0,199.0,106,1,2176.5,244287.5,7213,iron,NF,C,228090,228090,226465,227375,226465,228641,227891,227891,228641,10
9,test,1,inc,1,m,Thu Sep 18 2025 10:50:18 GMT-0500 (Central Daylight Time),248595.09999990463,lime,800,I,m,m,None,784,584.0,200.0,125,1,2127.0,246468.09999990463,7213,lead,NF,C,230175,230175,228645,229458,228646,230772,229974,229974,230772,11
10,test,1,inc,1,m,Thu Sep 18 2025 10:50:18 GMT-0500 (Central Daylight Time),250811.5,raisin,1100,I,m,m,None,576,361.0,215.0,96,1,2209.0,248602.5,7213,cobalt,NF,C,232623,232623,230780,231891,230780,232989,232407,232407,232989,12
11,test,1,inc,1,m,Thu Sep 18 2025 10:50:18 GMT-0500 (Central Daylight Time),252793.89999997616,cherry,900,I,m,m,None,536,337.0,199.0,94,1,1975.6000000238419,250818.29999995232,7213,cobalt,NF,C,234622,234622,232995,233906,232996,234971,234422,234422,234971,13
12,test,1,inc,1,z,Thu Sep 18 2025 10:50:18 GMT-0500 (Central Daylight Time),254876.89999997616,silver,1000,I,z,z,None,535,335.0,200.0,7,1,2076.100000023842,252800.79999995232,7213,banana,NF,C,236705,236705,234978,235987,234978,237054,236504,236504,237054,14
13,test,1,inc,1,z,Thu Sep 18 2025 10:50:18 GMT-0500 (Central Daylight Time),256994.0,copper,900,I,z,z,None,687,488.0,199.0,14,1,2108.7000000476837,254885.29999995232,7213,cherry,NF,C,238671,238671,237062,237970,237063,239171,238471,238471,239171,15
14,test,1,inc,1,m,Thu Sep 18 2025 10:50:18 GMT-0500 (Central Daylight Time),259158.69999992847,raisin,1100,I,m,m,None,523,324.0,199.0,88,1,2156.7999999523163,257001.89999997616,7213,silver,NF,C,241003,241003,239179,240287,239179,241336,240803,240803,241336,16
15,test,1,con,1,m,Thu Sep 18 2025 10:50:18 GMT-0500 (Central Daylight Time),261294.09999990463,zinc,1100,I,m,m,None,502,302.0,200.0,116,1,2127.7999999523163,259166.29999995232,7213,zinc,NF,C,243154,243154,241343,242452,241344,243471,242953,242953,243471,17
16,test,1,con,1,z,Thu Sep 18 2025 10:50:18 GMT-0500 (Central Daylight Time),263208.5,kiwi,900,I,z,z,None,488,271.0,217.0,50,1,1906.3000000715256,261302.19999992847,7213,kiwi,NF,C,245104,245104,243479,244385,243480,245386,244887,244887,245385,18
17,test,1,inc,1,z,Thu Sep 18 2025 10:50:18 GMT-0500 (Central Daylight Time),265274.39999997616,iron,900,I,z,z,None,630,430.0,200.0,46,1,2059.399999976158,263215.0,7213,pear,NF,C,247018,247018,245392,246302,245392,247452,246818,246818,247451,19
18,test,1,inc,1,z,Thu Sep 18 2025 10:50:18 GMT-0500 (Central Daylight Time),267506.39999997616,cobalt,1100,I,z,z,None,586,386.0,200.0,8,1,2225.899999976158,265280.5,7213,banana,NF,C,249286,249286,247458,248568,247458,249684,249085,249085,249683,20
19,test,1,inc,1,z,Thu Sep 18 2025 10:50:18 GMT-0500 (Central Daylight Time),269456.59999990463,bronze,800,I,z,z,None,615,399.0,216.0,29,1,1945.2999999523163,267511.2999999523,7213,raisin,NF,C,251234,251234,249688,250501,249689,251634,251018,251018,251634,21
20,test,1,con,1,z,Thu Sep 18 2025 10:50:18 GMT-0500 (Central Daylight Time),271589.09999990463,kiwi,1100,I,z,z,None,494,294.0,200.0,52,1,2123.899999976158,269465.1999999285,7213,kiwi,NF,C,253467,253467,251642,252751,251642,253766,253266,253266,253766,22
21,test,1,con,1,m,Thu Sep 18 2025 10:50:18 GMT-0500 (Central Daylight Time),273522.0,copper,900,I,m,m,None,504,289.0,215.0,74,1,1929.0,271593.0,7213,copper,NF,C,255399,255400,253770,254682,253770,255699,255184,255184,255699,23
22,test,1,con,1,m,Thu Sep 18 2025 10:50:18 GMT-0500 (Central Daylight Time),275471.7999999523,copper,800,I,m,m,None,615,416.0,199.0,73,1,1944.1000000238419,273527.6999999285,7213,copper,NF,C,257232,257232,255705,256516,255705,257649,257033,257033,257649,24
23,test,1,con,1,z,Thu Sep 18 2025 10:50:18 GMT-0500 (Central Daylight Time),277471.1999999285,raisin,800,I,z,z,None,652,451.0,201.0,25,1,1994.8999999761581,275476.2999999523,7213,raisin,NF,C,259181,259181,257653,258466,257654,259648,258980,258980,259648,25
24,test,1,con,1,z,Thu Sep 18 2025 10:50:18 GMT-0500 (Central Daylight Time),279369.6999999285,kiwi,1000,I,z,z,None,361,147.0,214.0,51,1,1891.8999999761581,277477.7999999523,7213,kiwi,NF,C,261397,261397,259655,260666,259655,261547,261182,261182,261547,26
25,test,1,con,1,m,Thu Sep 18 2025 10:50:18 GMT-0500 (Central Daylight Time),281552.39999997616,silver,1100,I,m,m,None,549,349.0,200.0,84,1,2178.2000000476837,279374.1999999285,7213,silver,NF,C,263380,263380,261551,262664,261551,263729,263180,263180,263729,27
26,test,1,con,1,m,Thu Sep 18 2025 10:50:18 GMT-0500 (Central Daylight Time),283516.7999999523,bronze,1000,I,m,m,None,432,233.0,199.0,67,1,1958.0,281558.7999999523,7213,bronze,NF,C,265445,265445,263736,264744,263736,265694,265245,265245,265694,28
27,test,1,con,1,m,Thu Sep 18 2025 10:50:18 GMT-0500 (Central Daylight Time),285667.89999997616,iron,1000,I,m,m,None,604,403.0,201.0,107,1,2147.399999976158,283520.5,7213,iron,NF,C,267429,267429,265698,266712,265698,267845,267227,267227,267845,29
28,test,1,inc,1,m,Thu Sep 18 2025 10:50:18 GMT-0500 (Central Daylight Time),287815.6999999285,kiwi,1000,I,m,m,None,604,389.0,215.0,103,1,2143.600000023842,285672.09999990463,7213,gold,NF,C,269593,269593,267849,268862,267849,269993,269378,269378,269993,30
29,test,1,con,1,m,Thu Sep 18 2025 10:50:18 GMT-0500 (Central Daylight Time),289799.7999999523,lead,1000,I,m,m,None,452,239.0,213.0,123,1,1980.3999999761581,287819.39999997616,7213,lead,NF,C,271728,271728,269996,271010,269997,271977,271514,271514,271977,31
30,test,1,inc,1,z,Thu Sep 18 2025 10:50:18 GMT-0500 (Central Daylight Time),291749.5,bronze,800,I,z,z,None,609,410.0,199.0,5,1,1944.2000000476837,289805.2999999523,7213,banana,NF,C,273509,273509,271982,272794,271983,273927,273310,273310,273926,32
31,test,1,con,1,m,Thu Sep 18 2025 10:50:18 GMT-0500 (Central Daylight Time),293898.6999999285,copper,1100,I,m,m,None,520,321.0,199.0,76,1,2143.6999999284744,291755.0,7213,copper,NF,C,275742,275742,273932,275042,273932,276076,275543,275543,276076,33
32,test,1,con,1,z,Thu Sep 18 2025 10:50:18 GMT-0500 (Central Daylight Time),296065.09999990463,pear,1100,I,z,z,None,523,323.0,200.0,44,1,2161.1999999284744,293903.89999997616,7213,pear,NF,C,277909,277909,276081,277193,276081,278242,277708,277708,278242,34
33,test,1,con,1,z,Thu Sep 18 2025 10:50:18 GMT-0500 (Central Daylight Time),298014.1999999285,cherry,1000,I,z,z,None,400,201.0,199.0,11,1,1944.7999999523163,296069.39999997616,7213,cherry,NF,C,279975,279975,278246,279259,278247,280191,279775,279775,280191,35
34,test,1,inc,1,z,Thu Sep 18 2025 10:50:18 GMT-0500 (Central Daylight Time),299962.39999997616,gold,800,I,z,z,None,613,413.0,200.0,53,1,1942.1000000238419,298020.2999999523,7213,kiwi,NF,C,281722,281722,280197,281008,280198,282139,281522,281522,282139,36
35,test,1,con,1,m,Thu Sep 18 2025 10:50:18 GMT-0500 (Central Daylight Time),302029.09999990463,lead,900,I,m,m,None,617,401.0,216.0,122,1,2063.0999999046326,299966.0,7213,lead,NF,C,283790,283790,282143,283058,282143,284206,283574,283574,284206,37
36,test,1,con,1,z,Thu Sep 18 2025 10:50:18 GMT-0500 (Central Daylight Time),304095.6999999285,orange,800,I,z,z,None,725,525.0,200.0,17,1,2061.1999999284744,302034.5,7213,orange,NF,C,285739,285739,284212,285024,284212,286273,285539,285539,286273,38
37,test,1,con,1,z,Thu Sep 18 2025 10:50:18 GMT-0500 (Central Daylight Time),306162.39999997616,lime,1100,I,z,z,None,438,223.0,215.0,36,1,2061.399999976158,304101.0,7213,lime,NF,C,288106,288106,286278,287389,286278,288339,287890,287891,288339,39
38,test,1,con,1,m,Thu Sep 18 2025 10:50:18 GMT-0500 (Central Daylight Time),308210.5,iron,1100,I,m,m,None,412,213.0,199.0,108,1,2043.5,306167.0,7213,iron,NF,C,290171,290171,288344,289455,288344,290388,289971,289971,290387,40
39,test,1,inc,1,z,Thu Sep 18 2025 10:50:18 GMT-0500 (Central Daylight Time),310528.59999990463,cobalt,1100,I,z,z,None,685,484.0,201.0,16,1,2313.0999999046326,308215.5,7213,cherry,NF,C,292221,292221,290393,291505,290393,292706,292020,292020,292706,41
40,test,1,con,1,z,Thu Sep 18 2025 10:50:18 GMT-0500 (Central Daylight Time),312609.39999997616,lime,800,I,z,z,None,745,546.0,199.0,33,1,2075.899999976158,310533.5,7213,lime,NF,C,294237,294237,292711,293520,292711,294786,294037,294037,294786,42
41,test,1,inc,1,m,Thu Sep 18 2025 10:50:18 GMT-0500 (Central Daylight Time),314558.1999999285,cherry,900,I,m,m,None,502,302.0,200.0,70,1,1941.6000000238419,312616.59999990463,7213,bronze,NF,C,296418,296418,294794,295702,294794,296735,296218,296218,296735,43
42,test,1,con,1,m,Thu Sep 18 2025 10:50:18 GMT-0500 (Central Daylight Time),316358.0,gold,800,I,m,m,None,460,259.0,201.0,97,1,1793.8000000715256,314564.1999999285,7213,gold,NF,C,298270,298270,296741,297553,296741,298535,298069,298069,298535,44
43,test,1,con,1,m,Thu Sep 18 2025 10:50:18 GMT-0500 (Central Daylight Time),318106.7999999523,iron,800,I,m,m,None,411,211.0,200.0,105,1,1744.1000000238419,316362.6999999285,7213,iron,NF,C,300069,300069,298540,299353,298540,300284,299869,299869,300284,45
44,test,1,con,1,z,Thu Sep 18 2025 10:50:18 GMT-0500 (Central Daylight Time),320157.0,orange,1100,I,z,z,None,426,227.0,199.0,20,1,2046.5,318110.5,7213,orange,NF,C,302102,302102,300288,301401,300288,302334,301902,301902,302334,46
45,test,1,inc,1,m,Thu Sep 18 2025 10:50:18 GMT-0500 (Central Daylight Time),322139.7999999523,pear,900,I,m,m,None,535,335.0,200.0,110,1,1978.3999999761581,320161.39999997616,7213,iron,NF,C,303968,303968,302338,303251,302339,304317,303767,303767,304317,47
46,test,1,inc,1,m,Thu Sep 18 2025 10:50:18 GMT-0500 (Central Daylight Time),324223.09999990463,orange,1000,I,m,m,None,558,342.0,216.0,95,1,2078.399999976158,322144.6999999285,7213,cobalt,NF,C,306050,306050,304322,305333,304322,306400,305834,305834,306400,48
47,test,1,inc,1,z,Thu Sep 18 2025 10:50:18 GMT-0500 (Central Daylight Time),326103.39999997616,gold,800,I,z,z,None,531,332.0,199.0,45,1,1875.6000000238419,324227.7999999523,7213,pear,NF,C,307932,307932,306405,307217,306405,308280,307733,307733,308280,49
48,test,1,con,1,z,Thu Sep 18 2025 10:50:18 GMT-0500 (Central Daylight Time),328237.59999990463,kiwi,800,I,z,z,None,784,585.0,199.0,49,1,2127.399999976158,326110.1999999285,7213,kiwi,NF,C,309815,309815,308287,309100,308287,310415,309616,309616,310415,50
49,test,1,con,1,m,Thu Sep 18 2025 10:50:18 GMT-0500 (Central Daylight Time),330253.5,cobalt,900,I,m,m,None,566,367.0,199.0,90,1,2010.8000000715256,328242.6999999285,7213,cobalt,NF,C,312048,312048,310420,311332,310420,312431,311849,311849,312431,51
50,test,1,inc,1,m,Thu Sep 18 2025 10:50:18 GMT-0500 (Central Daylight Time),332304.1999999285,orange,1000,I,m,m,None,507,308.0,199.0,79,1,2042.7999999523163,330261.39999997616,7213,copper,NF,C,314164,314164,312438,313447,312439,314481,313964,313964,314481,52
51,test,1,con,1,z,Thu Sep 18 2025 10:50:18 GMT-0500 (Central Daylight Time),334150.6999999285,pear,800,I,z,z,None,504,289.0,215.0,41,1,1840.6999999284744,332310.0,7213,pear,NF,C,316030,316030,314487,315298,314487,316328,315814,315814,316328,53
52,test,1,inc,1,m,Thu Sep 18 2025 10:50:18 GMT-0500 (Central Daylight Time),336320.89999997616,plum,1100,I,m,m,None,523,307.0,216.0,120,1,2164.8000000715256,334156.09999990463,7213,zinc,NF,C,318179,318179,316333,317446,316333,318498,317963,317963,318498,54
53,test,1,con,1,z,Thu Sep 18 2025 10:50:18 GMT-0500 (Central Daylight Time),338701.09999990463,raisin,1100,I,z,z,None,734,518.0,216.0,28,1,2375.6999999284744,336325.39999997616,7213,raisin,NF,C,320345,320345,318502,319612,318503,320878,320129,320129,320878,55
54,test,1,con,1,z,Thu Sep 18 2025 10:50:18 GMT-0500 (Central Daylight Time),340800.1999999285,banana,1000,I,z,z,None,565,365.0,200.0,3,1,2093.6999999284744,338706.5,7213,banana,NF,C,322611,322611,320884,321895,320884,322977,322411,322411,322977,56
55,test,1,con,1,z,Thu Sep 18 2025 10:50:18 GMT-0500 (Central Daylight Time),342698.39999997616,cherry,900,I,z,z,None,452,236.0,216.0,10,1,1891.5,340806.89999997616,7213,cherry,NF,C,324627,324627,322984,323894,322984,324876,324411,324411,324875,57
56,test,1,con,1,m,Thu Sep 18 2025 10:50:18 GMT-0500 (Central Daylight Time),344732.5,silver,1000,I,m,m,None,486,286.0,200.0,83,1,2025.0,342707.5,7213,silver,NF,C,326609,326609,324885,325893,324885,326910,326408,326408,326909,58
57,test,1,con,1,m,Thu Sep 18 2025 10:50:18 GMT-0500 (Central Daylight Time),347082.39999997616,cobalt,1100,I,m,m,None,715,515.0,200.0,92,1,2343.8000000715256,344738.59999990463,7213,cobalt,NF,C,328744,328744,326916,328026,326916,329259,328543,328543,329259,59
58,test,1,con,1,z,Thu Sep 18 2025 10:50:18 GMT-0500 (Central Daylight Time),349196.09999990463,plum,1000,I,z,z,None,574,359.0,215.0,59,1,2106.899999976158,347089.1999999285,7213,plum,NF,C,331008,331008,329266,330275,329266,331373,330793,330793,331373,60
59,test,1,inc,1,z,Thu Sep 18 2025 10:50:18 GMT-0500 (Central Daylight Time),351479.7999999523,lead,1100,I,z,z,None,639,440.0,199.0,56,1,2278.2000000476837,349201.59999990463,7213,kiwi,NF,C,333208,333208,331379,332491,331379,333657,333008,333008,333657,61
60,test,1,inc,1,m,Thu Sep 18 2025 10:50:18 GMT-0500 (Central Daylight Time),353629.39999997616,plum,1100,I,m,m,None,516,315.0,201.0,104,1,2142.899999976158,351486.5,7213,gold,NF,C,335476,335477,333664,334773,333664,335806,335275,335275,335806,62
61,test,1,inc,1,m,Thu Sep 18 2025 10:50:18 GMT-0500 (Central Daylight Time),355430.5,lime,800,I,m,m,None,456,241.0,215.0,101,1,1794.7000000476837,353635.7999999523,7213,gold,NF,C,337358,337359,335813,336625,335813,337608,337141,337141,337608,63
62,test,1,con,1,z,Thu Sep 18 2025 10:50:18 GMT-0500 (Central Daylight Time),357464.0,orange,1000,I,z,z,None,515,316.0,199.0,19,1,2028.7000000476837,355435.2999999523,7213,orange,NF,C,339322,339323,337612,338622,337613,339641,339123,339123,339641,64
63,test,1,inc,1,m,Thu Sep 18 2025 10:50:18 GMT-0500 (Central Daylight Time),359627.09999990463,banana,800,I,m,m,None,815,602.0,213.0,85,1,2156.2999999523163,357470.7999999523,7213,silver,NF,C,341189,341189,339648,340457,339648,341804,340975,340975,341804,65
64,test,1,inc,1,z,Thu Sep 18 2025 10:50:18 GMT-0500 (Central Daylight Time),361776.09999990463,zinc,1000,I,z,z,None,613,400.0,213.0,55,1,2144.2999999523163,359631.7999999523,7213,kiwi,NF,C,343537,343537,341809,342821,341809,343953,343323,343323,343953,66
65,test,1,con,1,m,Thu Sep 18 2025 10:50:18 GMT-0500 (Central Daylight Time),363658.89999997616,bronze,800,I,m,m,None,537,336.0,201.0,65,1,1876.0,361782.89999997616,7213,bronze,NF,C,345487,345487,343960,344770,343960,345836,345286,345286,345836,67
66,test,1,con,1,m,Thu Sep 18 2025 10:50:18 GMT-0500 (Central Daylight Time),365858.89999997616,lead,1100,I,m,m,None,550,336.0,214.0,124,1,2195.600000023842,363663.2999999523,7213,lead,NF,C,347687,347687,345840,346953,345841,348036,347472,347472,348036,68
67,test,1,con,1,m,Thu Sep 18 2025 10:50:18 GMT-0500 (Central Daylight Time),367807.6999999285,gold,900,I,m,m,None,506,303.0,203.0,98,1,1941.7999999523163,365865.89999997616,7213,gold,NF,C,349672,349672,348043,348952,348043,349985,349468,349468,349985,69
68,test,1,inc,1,m,Thu Sep 18 2025 10:50:18 GMT-0500 (Central Daylight Time),369789.7999999523,lime,800,I,m,m,None,645,431.0,214.0,117,1,1977.7999999523163,367812.0,7213,zinc,NF,C,351518,351519,349989,350800,349989,351967,351304,351304,351967,70
69,test,1,inc,1,m,Thu Sep 18 2025 10:50:18 GMT-0500 (Central Daylight Time),371789.2999999523,cherry,900,I,m,m,None,557,342.0,215.0,78,1,1996.3999999761581,369792.89999997616,7213,copper,NF,C,353618,353618,351970,352885,351970,353966,353402,353402,353966,71
70,test,1,inc,1,z,Thu Sep 18 2025 10:50:18 GMT-0500 (Central Daylight Time),373854.89999997616,cobalt,1100,I,z,z,None,423,223.0,200.0,24,1,2059.2000000476837,371795.6999999285,7213,orange,NF,C,355800,355800,353973,355084,353973,356032,355599,355599,356032,72
71,test,1,con,1,z,Thu Sep 18 2025 10:50:18 GMT-0500 (Central Daylight Time),376022.6999999285,plum,1100,I,z,z,None,515,301.0,214.0,60,1,2164.899999976158,373857.7999999523,7213,plum,NF,C,357882,357883,356035,357152,356035,358200,357668,357668,358200,73
72,test,1,inc,1,z,Thu Sep 18 2025 10:50:18 GMT-0500 (Central Daylight Time),378087.2999999523,gold,800,I,z,z,None,738,539.0,199.0,37,1,2056.600000023842,376030.6999999285,7213,lime,NF,C,359716,359716,358208,359015,358208,360264,359516,359516,360264,74
73,test,1,con,1,m,Thu Sep 18 2025 10:50:18 GMT-0500 (Central Daylight Time),379888.0,lead,800,I,m,m,None,452,253.0,199.0,121,1,1794.3000000715256,378093.6999999285,7213,lead,NF,C,361798,361798,360271,361085,360271,362065,361598,361598,362065,75
74,test,1,inc,1,z,Thu Sep 18 2025 10:50:18 GMT-0500 (Central Daylight Time),382220.0,cobalt,1100,I,z,z,None,683,469.0,214.0,32,1,2326.9000000953674,379893.09999990463,7213,raisin,NF,C,363914,363914,362070,363183,362070,364397,363699,363699,364397,76
75,test,1,inc,1,m,Thu Sep 18 2025 10:50:18 GMT-0500 (Central Daylight Time),384486.7999999523,raisin,1100,I,m,m,None,623,423.0,200.0,80,1,2261.7999999523163,382225.0,7213,copper,NF,C,366232,366232,364402,365514,364402,366664,366031,366031,366664,77
76,test,1,con,1,z,Thu Sep 18 2025 10:50:18 GMT-0500 (Central Daylight Time),386601.2999999523,pear,1000,I,z,z,None,581,381.0,200.0,43,1,2108.600000023842,384492.6999999285,7213,pear,NF,C,368397,368397,366670,367679,366670,368778,368196,368196,368778,78
77,test,1,inc,1,z,Thu Sep 18 2025 10:50:18 GMT-0500 (Central Daylight Time),388534.0,iron,900,I,z,z,None,492,290.0,202.0,38,1,1927.2000000476837,386606.7999999523,7213,lime,NF,C,370414,370414,368784,369696,368784,370711,370212,370212,370711,79
78,test,1,con,1,m,Thu Sep 18 2025 10:50:18 GMT-0500 (Central Daylight Time),390517.7999999523,cobalt,800,I,m,m,None,629,416.0,213.0,89,1,1979.2999999523163,388538.5,7213,cobalt,NF,C,372262,372263,370716,371530,370716,372695,372048,372048,372695,80
79,test,1,con,1,m,Thu Sep 18 2025 10:50:18 GMT-0500 (Central Daylight Time),392533.6999999285,cobalt,1000,I,m,m,None,475,275.0,200.0,91,1,2009.7999999523163,390523.89999997616,7213,cobalt,NF,C,374428,374428,372701,373711,372701,374711,374228,374228,374711,81
80,test,1,con,1,m,Thu Sep 18 2025 10:50:18 GMT-0500 (Central Daylight Time),394732.2999999523,gold,1000,I,m,m,None,652,452.0,200.0,99,1,2192.399999976158,392539.89999997616,7213,gold,NF,C,376443,376443,374717,375728,374717,376909,376243,376243,376909,82
81,test,1,inc,1,m,Thu Sep 18 2025 10:50:18 GMT-0500 (Central Daylight Time),396882.1999999285,plum,1100,I,m,m,None,504,304.0,200.0,128,1,2143.399999976158,394738.7999999523,7213,lead,NF,C,378744,378744,376916,378027,376916,379059,378544,378544,379059,83
82,test,1,con,1,z,Thu Sep 18 2025 10:50:18 GMT-0500 (Central Daylight Time),398781.39999997616,cherry,800,I,z,z,None,549,350.0,199.0,9,1,1893.2000000476837,396888.1999999285,7213,cherry,NF,C,380593,380593,379065,379877,379066,380959,380393,380393,380958,84
83,test,1,inc,1,m,Thu Sep 18 2025 10:50:18 GMT-0500 (Central Daylight Time),400798.6999999285,pear,900,I,m,m,None,592,393.0,199.0,118,1,2010.6000000238419,398788.09999990463,7213,zinc,NF,C,382575,382575,380965,381874,380966,382976,382376,382376,382976,85
84,test,1,inc,1,z,Thu Sep 18 2025 10:50:18 GMT-0500 (Central Daylight Time),402814.09999990463,copper,900,I,z,z,None,566,366.0,200.0,6,1,2010.0999999046326,400804.0,7213,banana,NF,C,384609,384609,382981,383891,382981,384991,384408,384408,384991,86
85,test,1,inc,1,z,Thu Sep 18 2025 10:50:18 GMT-0500 (Central Daylight Time),405263.0,silver,1000,I,z,z,None,918,708.0,210.0,23,1,2444.2000000476837,402818.7999999523,7213,orange,NF,C,386724,386724,384996,386007,384996,387440,386513,386513,387440,87
86,test,1,con,1,m,Thu Sep 18 2025 10:50:18 GMT-0500 (Central Daylight Time),407461.7999999523,copper,1000,I,m,m,None,649,430.0,219.0,75,1,2193.7999999523163,405268.0,7213,copper,NF,C,389193,389193,387445,388458,387445,389639,388974,388974,389639,88
87,test,1,inc,1,m,Thu Sep 18 2025 10:50:18 GMT-0500 (Central Daylight Time),409744.0,orange,1000,I,m,m,None,739,539.0,200.0,87,1,2275.4000000953674,407468.59999990463,7213,silver,NF,C,391373,391373,389646,390656,389646,391921,391172,391172,391921,89
88,test,1,con,1,m,Thu Sep 18 2025 10:50:18 GMT-0500 (Central Daylight Time),411793.7999999523,zinc,900,I,m,m,None,604,405.0,199.0,114,1,2045.7999999523163,409748.0,7213,zinc,NF,C,393555,393555,391925,392839,391925,393971,393355,393355,393971,90
89,test,1,con,1,z,Thu Sep 18 2025 10:50:18 GMT-0500 (Central Daylight Time),413945.2999999523,raisin,1000,I,z,z,None,616,417.0,199.0,27,1,2145.7000000476837,411799.59999990463,7213,raisin,NF,C,395705,395705,393977,394989,393977,396122,395505,395505,396122,91
90,test,1,inc,1,z,Thu Sep 18 2025 10:50:18 GMT-0500 (Central Daylight Time),416076.0,zinc,1000,I,z,z,None,592,393.0,199.0,47,1,2124.9000000953674,413951.09999990463,7213,pear,NF,C,397854,397854,396128,397137,396128,398253,397655,397655,398253,92
91,test,1,con,1,m,Thu Sep 18 2025 10:50:18 GMT-0500 (Central Daylight Time),418143.0,zinc,1000,I,m,m,None,514,300.0,214.0,115,1,2062.0,416081.0,7213,zinc,NF,C,400004,400004,398258,399270,398258,400320,399789,399789,400320,93
92,test,1,inc,1,m,Thu Sep 18 2025 10:50:18 GMT-0500 (Central Daylight Time),420158.5,lime,800,I,m,m,None,675,476.0,199.0,109,1,2009.8000000715256,418148.6999999285,7213,iron,NF,C,401853,401853,400326,401137,400326,402336,401654,401654,402335,94
93,test,1,con,1,m,Thu Sep 18 2025 10:50:18 GMT-0500 (Central Daylight Time),422456.89999997616,silver,900,I,m,m,None,864,649.0,215.0,82,1,2293.399999976158,420163.5,7213,silver,NF,C,403985,403985,402340,403253,402341,404634,403770,403770,404634,95
94,test,1,inc,1,m,Thu Sep 18 2025 10:50:18 GMT-0500 (Central Daylight Time),424689.2999999523,cherry,900,I,m,m,None,795,595.0,200.0,86,1,2227.399999976158,422461.89999997616,7213,silver,NF,C,406268,406268,404639,405552,404639,406866,406067,406068,406866,96
94,test,1,con,0,z,Thu Sep 18 2025 10:50:18 GMT-0500 (Central Daylight Time),426772.2999999523,lime,1000,I,m,m,None,558,356.0,202.0,35,1,2076.7999999523163,424695.5,7213,lime,NF,C,408587,408587,406873,407883,406873,408949,408384,408384,408949,97
95,test,1,inc,1,z,Thu Sep 18 2025 10:50:18 GMT-0500 (Central Daylight Time),428906.7999999523,silver,1000,I,z,z,None,584,385.0,199.0,15,1,2129.399999976158,426777.39999997616,7213,cherry,NF,C,410682,410682,408954,409967,408955,411084,410482,410482,411084,98
96,test,1,inc,1,z,Thu Sep 18 2025 10:50:18 GMT-0500 (Central Daylight Time),431154.59999990463,lead,1100,I,z,z,None,626,424.0,202.0,48,1,2242.0,428912.59999990463,7213,pear,NF,C,412904,412904,411090,412201,411090,413332,412702,412702,413332,99
96,test,1,con,0,z,Thu Sep 18 2025 10:50:18 GMT-0500 (Central Daylight Time),433553.39999997616,banana,1100,I,m,m,None,762,562.0,200.0,4,1,2393.600000023842,431159.7999999523,7213,banana,NF,C,415166,415166,413337,414449,413337,415730,414966,414966,415730,100
97,test,1,inc,1,m,Thu Sep 18 2025 10:50:18 GMT-0500 (Central Daylight Time),435602.39999997616,kiwi,1000,I,m,m,None,510,311.0,199.0,111,1,2045.2000000476837,433557.1999999285,7213,iron,NF,C,417465,417465,415734,416749,415734,417780,417265,417265,417779,101
98,test,1,inc,1,z,Thu Sep 18 2025 10:50:18 GMT-0500 (Central Daylight Time),438070.0,lead,1100,I,z,z,None,830,616.0,214.0,40,1,2463.9000000953674,435606.09999990463,7213,lime,NF,C,419614,419614,417783,418897,417783,420247,419399,419399,420247,102
99,test,1,inc,1,z,Thu Sep 18 2025 10:50:18 GMT-0500 (Central Daylight Time),439934.89999997616,bronze,800,I,z,z,None,523,323.0,200.0,13,1,1860.6000000238419,438074.2999999523,7213,cherry,NF,C,421780,421780,420251,421064,420252,422112,421580,421580,422112,103
100,test,1,inc,1,z,Thu Sep 18 2025 10:50:18 GMT-0500 (Central Daylight Time),441968.0,bronze,800,I,z,z,None,706,507.0,199.0,21,1,2028.0,439940.0,7213,orange,NF,C,423629,423629,422117,422928,422117,424145,423430,423430,424145,104
101,test,1,inc,1,m,Thu Sep 18 2025 10:50:18 GMT-0500 (Central Daylight Time),444084.1999999285,plum,1100,I,m,m,None,490,275.0,215.0,112,1,2111.5,441972.6999999285,7213,iron,NF,C,425980,425980,424150,425261,424150,426261,425764,425764,426261,105
102,test,1,inc,1,z,Thu Sep 18 2025 10:50:18 GMT-0500 (Central Daylight Time),446484.5,zinc,1000,I,z,z,None,853,652.0,201.0,63,1,2396.8000000715256,444087.6999999285,7213,plum,NF,C,427995,427995,426265,427279,426265,428662,427794,427794,428662,106
103,test,1,inc,1,z,Thu Sep 18 2025 10:50:18 GMT-0500 (Central Daylight Time),448748.39999997616,gold,800,I,z,z,None,918,718.0,200.0,61,1,2258.8000000715256,446489.59999990463,7213,plum,NF,C,430194,430194,428667,429478,428667,430925,429994,429994,430925,107
104,test,1,inc,1,z,Thu Sep 18 2025 10:50:18 GMT-0500 (Central Daylight Time),450865.5,copper,900,I,z,z,None,670,470.0,200.0,22,1,2113.100000023842,448752.39999997616,7213,orange,NF,C,432561,432561,430929,431843,430930,433043,432361,432361,433042,108
105,test,1,inc,1,z,Thu Sep 18 2025 10:50:18 GMT-0500 (Central Daylight Time),452849.7999999523,iron,900,I,z,z,None,540,340.0,200.0,62,1,1978.2000000476837,450871.59999990463,7213,plum,NF,C,434675,434675,433049,433959,433049,435027,434475,434475,435027,109
106,test,1,con,1,m,Thu Sep 18 2025 10:50:18 GMT-0500 (Central Daylight Time),454762.59999990463,bronze,900,I,m,m,None,482,269.0,213.0,66,1,1908.5999999046326,452854.0,7213,bronze,NF,C,436658,436658,435031,435941,435031,436940,436445,436445,436940,110
107,test,1,inc,1,m,Thu Sep 18 2025 10:50:18 GMT-0500 (Central Daylight Time),456779.6999999285,kiwi,1000,I,m,m,None,486,286.0,200.0,127,1,2013.6999999284744,454766.0,7213,lead,NF,C,438658,438658,436943,437957,436943,438957,438458,438458,438957,111
108,test,1,inc,1,z,Thu Sep 18 2025 10:50:18 GMT-0500 (Central Daylight Time),458862.2999999523,silver,1000,I,z,z,None,542,343.0,199.0,31,1,2077.2000000476837,456785.09999990463,7213,raisin,NF,C,440690,440690,438962,439974,438962,441039,440490,440491,441039,112
109,test,1,inc,1,m,Thu Sep 18 2025 10:50:18 GMT-0500 (Central Daylight Time),460862.1999999285,pear,900,I,m,m,None,557,357.0,200.0,126,1,1995.6000000238419,458866.59999990463,7213,lead,NF,C,442674,442674,441044,441956,441044,443039,442474,442474,443039,113
110,test,1,con,1,z,Thu Sep 18 2025 10:50:18 GMT-0500 (Central Daylight Time),462845.2999999523,plum,900,I,z,z,None,544,343.0,201.0,58,1,1978.0,460867.2999999523,7213,plum,NF,C,444673,444673,443044,443957,443045,445022,444471,444471,445022,114
111,test,1,con,1,m,Thu Sep 18 2025 10:50:18 GMT-0500 (Central Daylight Time),465225.2999999523,bronze,1100,I,m,m,None,744,544.0,200.0,68,1,2375.7999999523163,462849.5,7213,bronze,NF,C,446855,446855,445027,446139,445027,447402,446655,446655,447402,115
112,test,1,inc,1,m,Thu Sep 18 2025 10:50:18 GMT-0500 (Central Daylight Time),467276.39999997616,kiwi,1000,I,m,m,None,510,310.0,200.0,119,1,2048.600000023842,465227.7999999523,7213,zinc,NF,C,449138,449138,447405,448421,447405,449453,448938,448938,449453,116
113,test,1,con,1,z,Thu Sep 18 2025 10:50:18 GMT-0500 (Central Daylight Time),469692.1999999285,cherry,1100,I,z,z,None,777,578.0,199.0,12,1,2410.899999976158,467281.2999999523,7213,cherry,NF,C,451287,451287,449458,450572,449459,451869,451088,451088,451869,117
114,test,1,inc,1,m,Thu Sep 18 2025 10:50:18 GMT-0500 (Central Daylight Time),471575.59999990463,banana,800,I,m,m,None,541,340.0,201.0,69,1,1878.5999999046326,469697.0,7213,bronze,NF,C,453403,453403,451874,452687,451874,453753,453202,453202,453753,118
115,test,1,con,1,z,Thu Sep 18 2025 10:50:18 GMT-0500 (Central Daylight Time),473790.59999990463,banana,800,I,z,z,None,868,667.0,201.0,1,1,2212.2999999523163,471578.2999999523,7213,banana,NF,C,455285,455285,453755,454569,453756,455968,455084,455084,455967,119
116,test,1,con,1,z,Thu Sep 18 2025 10:50:18 GMT-0500 (Central Daylight Time),476672.2999999523,plum,800,I,z,z,None,1538,1339.0,199.0,57,1,2875.0,473797.2999999523,7213,plum,NF,C,457501,457501,455974,456785,455975,458849,457301,457301,458849,120
117,test,1,con,1,z,Thu Sep 18 2025 10:50:18 GMT-0500 (Central Daylight Time),478638.39999997616,lime,900,I,z,z,None,532,332.0,200.0,34,1,1957.7000000476837,476680.6999999285,7213,lime,NF,C,460483,460483,458858,459768,458858,460815,460283,460283,460815,121
118,test,1,con,1,z,Thu Sep 18 2025 10:50:18 GMT-0500 (Central Daylight Time),480638.0,pear,900,I,z,z,None,557,358.0,199.0,42,1,1992.9000000953674,478645.09999990463,7213,pear,NF,C,462449,462449,460822,461733,460822,462815,462249,462249,462815,122
119,test,1,con,1,z,Thu Sep 18 2025 10:50:18 GMT-0500 (Central Daylight Time),482538.5,banana,900,I,z,z,None,463,262.0,201.0,2,1,1894.2000000476837,480644.2999999523,7213,banana,NF,C,464449,464449,462821,463732,462822,464716,464248,464248,464716,123
120,test,1,inc,1,m,Thu Sep 18 2025 10:50:18 GMT-0500 (Central Daylight Time),484653.7999999523,raisin,1100,I,m,m,None,474,259.0,215.0,72,1,2108.2000000476837,482545.59999990463,7213,bronze,NF,C,466564,466564,464723,465831,464723,466831,466349,466349,466831,124
121,test,1,inc,1,m,Thu Sep 18 2025 10:50:18 GMT-0500 (Central Daylight Time),486574.39999997616,banana,800,I,m,m,None,586,370.0,216.0,77,1,1914.8999999761581,484659.5,7213,copper,NF,C,468381,468381,466837,467648,466837,468751,468165,468165,468751,125
122,test,1,inc,1,m,Thu Sep 18 2025 10:50:18 GMT-0500 (Central Daylight Time),488552.0,orange,1000,I,m,m,None,447,248.0,199.0,71,1,1973.9000000953674,486578.09999990463,7213,bronze,NF,C,470479,470480,468755,469764,468755,470729,470280,470280,470729,126
123,test,1,con,1,z,Thu Sep 18 2025 10:50:18 GMT-0500 (Central Daylight Time),490602.1999999285,raisin,900,I,z,z,None,616,416.0,200.0,26,1,2041.6000000238419,488560.59999990463,7213,raisin,NF,C,472363,472363,470738,471647,470738,472779,472163,472163,472779,127
124,test,1,con,1,m,Thu Sep 18 2025 10:50:18 GMT-0500 (Central Daylight Time),492800.5,gold,1100,I,m,m,None,555,356.0,199.0,100,1,2193.2000000476837,490607.2999999523,7213,gold,NF,C,474611,474611,472784,473895,472785,474978,474412,474412,474977,128
