block_c,block_dur,condition,countdown,datetime,endtime,list,multichar_response,project,response,response_time,session_number,start_end,starttime,subject_id,task,task_vers,trial
,,,,Wed Jan 28 2026 10:28:44 GMT-0600 (Central Standard Time),,,,I,space,634,1,,,8090,WL,A,
prac,,0,,Wed Jan 28 2026 10:28:44 GMT-0600 (Central Standard Time),,NA,b,I,b,12727,1,,,8090,WL,A,1.0
prac,,0,,Wed Jan 28 2026 10:28:44 GMT-0600 (Central Standard Time),,NA,bo,I,o,527,1,,,8090,WL,A,1.0
prac,,0,,Wed Jan 28 2026 10:28:44 GMT-0600 (Central Standard Time),,NA,boo,I,o,162,1,,,8090,WL,A,1.0
prac,,0,,Wed Jan 28 2026 10:28:44 GMT-0600 (Central Standard Time),,NA,boos,I,s,740,1,,,8090,WL,A,1.0
prac,,0,,Wed Jan 28 2026 10:28:44 GMT-0600 (Central Standard Time),,NA,boost,I,t,199,1,,,8090,WL,A,1.0
prac,,0,,Wed Jan 28 2026 10:28:44 GMT-0600 (Central Standard Time),,NA,boostenter,I,enter,614,1,,,8090,WL,A,1.0
1,1.8660001754760742,learn,58133.999824523926,Wed Jan 28 2026 10:28:44 GMT-0600 (Central Standard Time),137330.59999999963,A,t,I,t,1857,1,1865.5,135465.09999999963,8090,WL,A,1.0
1,2.0320000648498535,learn,57967.99993515015,Wed Jan 28 2026 10:28:44 GMT-0600 (Central Standard Time),137497.2000000002,A,tr,I,r,152,1,2032.1000000005588,135465.09999999963,8090,WL,A,1.0
1,2.2660000324249268,learn,57733.99996757507,Wed Jan 28 2026 10:28:44 GMT-0600 (Central Standard Time),137730.5,A,tra,I,a,226,1,2265.4000000003725,135465.09999999963,8090,WL,A,1.0
1,2.3990001678466797,learn,57600.99983215332,Wed Jan 28 2026 10:28:44 GMT-0600 (Central Standard Time),137863.7999999998,A,trai,I,i,112,1,2398.7000000001863,135465.09999999963,8090,WL,A,1.0
1,2.5820000171661377,learn,57417.99998283386,Wed Jan 28 2026 10:28:44 GMT-0600 (Central Standard Time),138047.09999999963,A,train,I,n,164,1,2582.0,135465.09999999963,8090,WL,A,1.0
1,2.882000207901001,learn,57117.999792099,Wed Jan 28 2026 10:28:44 GMT-0600 (Central Standard Time),138346.7999999998,A,trainenter,I,enter,293,1,2881.7000000001863,135465.09999999963,8090,WL,A,1.0
1,3.7320001125335693,learn,56267.99988746643,Wed Jan 28 2026 10:28:44 GMT-0600 (Central Standard Time),139196.7999999998,A,b,I,b,832,1,849.7000000001863,138347.09999999963,8090,WL,A,2.0
1,3.948000192642212,learn,56051.99980735779,Wed Jan 28 2026 10:28:44 GMT-0600 (Central Standard Time),139413.2000000002,A,bo,I,o,198,1,1066.1000000005588,138347.09999999963,8090,WL,A,2.0
1,4.148000001907349,learn,55851.99999809265,Wed Jan 28 2026 10:28:44 GMT-0600 (Central Standard Time),139613.2000000002,A,boo,I,o,181,1,1266.1000000005588,138347.09999999963,8090,WL,A,2.0
1,4.2820000648498535,learn,55717.99993515015,Wed Jan 28 2026 10:28:44 GMT-0600 (Central Standard Time),139746.39999999944,A,book,I,k,127,1,1399.2999999998137,138347.09999999963,8090,WL,A,2.0
1,4.582000017166138,learn,55417.99998283386,Wed Jan 28 2026 10:28:44 GMT-0600 (Central Standard Time),140046.39999999944,A,bookenter,I,enter,281,1,1699.2999999998137,138347.09999999963,8090,WL,A,2.0
1,6.181000232696533,learn,53818.99976730347,Wed Jan 28 2026 10:28:44 GMT-0600 (Central Standard Time),141645.89999999944,A,r,I,r,1581,1,1599.0999999996275,140046.7999999998,8090,WL,A,3.0
1,6.414000034332275,learn,53585.999965667725,Wed Jan 28 2026 10:28:44 GMT-0600 (Central Standard Time),141879.2999999998,A,ru,I,u,213,1,1832.5,140046.7999999998,8090,WL,A,3.0
1,6.614000082015991,learn,53385.99991798401,Wed Jan 28 2026 10:28:44 GMT-0600 (Central Standard Time),142079.0,A,rug,I,g,189,1,2032.2000000001863,140046.7999999998,8090,WL,A,3.0
1,6.831000089645386,learn,53168.999910354614,Wed Jan 28 2026 10:28:44 GMT-0600 (Central Standard Time),142295.7000000002,A,rugenter,I,enter,205,1,2248.9000000003725,140046.7999999998,8090,WL,A,3.0
1,8.330000162124634,learn,51669.999837875366,Wed Jan 28 2026 10:28:44 GMT-0600 (Central Standard Time),143795.2000000002,A,m,I,m,1492,1,1499.2000000001863,142296.0,8090,WL,A,4.0
1,8.44700002670288,learn,51552.99997329712,Wed Jan 28 2026 10:28:44 GMT-0600 (Central Standard Time),143911.7000000002,A,me,I,e,104,1,1615.7000000001863,142296.0,8090,WL,A,4.0
1,8.597000122070312,learn,51402.99987792969,Wed Jan 28 2026 10:28:44 GMT-0600 (Central Standard Time),144062.0,A,mea,I,a,132,1,1766.0,142296.0,8090,WL,A,4.0
1,8.847000122070312,learn,51152.99987792969,Wed Jan 28 2026 10:28:44 GMT-0600 (Central Standard Time),144311.7000000002,A,mead,I,d,238,1,2015.7000000001863,142296.0,8090,WL,A,4.0
1,9.047000169754028,learn,50952.99983024597,Wed Jan 28 2026 10:28:44 GMT-0600 (Central Standard Time),144511.7000000002,A,meado,I,o,180,1,2215.7000000001863,142296.0,8090,WL,A,4.0
1,9.463000059127808,learn,50536.99994087219,Wed Jan 28 2026 10:28:44 GMT-0600 (Central Standard Time),144928.2000000002,A,meadow,I,w,396,1,2632.2000000001863,142296.0,8090,WL,A,4.0
1,9.61300015449524,learn,50386.99984550476,Wed Jan 28 2026 10:28:44 GMT-0600 (Central Standard Time),145078.2000000002,A,meadowenter,I,enter,132,1,2782.2000000001863,142296.0,8090,WL,A,4.0
1,10.446000099182129,learn,49553.99990081787,Wed Jan 28 2026 10:28:44 GMT-0600 (Central Standard Time),145911.2000000002,A,h,I,h,814,1,832.7000000001863,145078.5,8090,WL,A,5.0
1,10.580000162124634,learn,49419.999837875366,Wed Jan 28 2026 10:28:44 GMT-0600 (Central Standard Time),146044.5,A,ha,I,a,125,1,966.0,145078.5,8090,WL,A,5.0
1,10.796000003814697,learn,49203.9999961853,Wed Jan 28 2026 10:28:44 GMT-0600 (Central Standard Time),146261.09999999963,A,har,I,r,208,1,1182.5999999996275,145078.5,8090,WL,A,5.0
1,11.463000059127808,learn,48536.99994087219,Wed Jan 28 2026 10:28:44 GMT-0600 (Central Standard Time),146927.59999999963,A,harp,I,p,647,1,1849.0999999996275,145078.5,8090,WL,A,5.0
1,11.829000234603882,learn,48170.99976539612,Wed Jan 28 2026 10:28:44 GMT-0600 (Central Standard Time),147294.2000000002,A,harpenter,I,enter,348,1,2215.7000000001863,145078.5,8090,WL,A,5.0
1,13.445000171661377,learn,46554.99982833862,Wed Jan 28 2026 10:28:44 GMT-0600 (Central Standard Time),148910.2999999998,A,f,I,f,1598,1,1615.9000000003725,147294.39999999944,8090,WL,A,6.0
1,13.579000234603882,learn,46420.99976539612,Wed Jan 28 2026 10:28:44 GMT-0600 (Central Standard Time),149043.5,A,fl,I,l,125,1,1749.1000000005588,147294.39999999944,8090,WL,A,6.0
1,13.795000076293945,learn,46204.999923706055,Wed Jan 28 2026 10:28:44 GMT-0600 (Central Standard Time),149260.2000000002,A,flo,I,o,201,1,1965.800000000745,147294.39999999944,8090,WL,A,6.0
1,14.01200008392334,learn,45987.99991607666,Wed Jan 28 2026 10:28:44 GMT-0600 (Central Standard Time),149476.7000000002,A,flow,I,w,199,1,2182.300000000745,147294.39999999944,8090,WL,A,6.0
1,14.228000164031982,learn,45771.99983596802,Wed Jan 28 2026 10:28:44 GMT-0600 (Central Standard Time),149693.2999999998,A,flowe,I,e,199,1,2398.9000000003725,147294.39999999944,8090,WL,A,6.0
1,14.378000020980835,learn,45621.999979019165,Wed Jan 28 2026 10:28:44 GMT-0600 (Central Standard Time),149843.2000000002,A,flower,I,r,134,1,2548.800000000745,147294.39999999944,8090,WL,A,6.0
1,14.728000164031982,learn,45271.99983596802,Wed Jan 28 2026 10:28:44 GMT-0600 (Central Standard Time),150193.2999999998,A,flowerenter,I,enter,329,1,2898.9000000003725,147294.39999999944,8090,WL,A,6.0
1,22.526000022888184,learn,37473.99997711182,Wed Jan 28 2026 10:28:44 GMT-0600 (Central Standard Time),157990.7000000002,A,s,I,s,7778,1,7797.100000000559,150193.59999999963,8090,WL,A,7.0
1,23.2260000705719,learn,36773.9999294281,Wed Jan 28 2026 10:28:44 GMT-0600 (Central Standard Time),158690.59999999963,A,st,I,t,693,1,8497.0,150193.59999999963,8090,WL,A,7.0
1,24.142000198364258,learn,35857.99980163574,Wed Jan 28 2026 10:28:44 GMT-0600 (Central Standard Time),159606.89999999944,A,s,I,backspace,906,1,9413.299999999814,150193.59999999963,8090,WL,A,7.0
1,24.392000198364258,learn,35607.99980163574,Wed Jan 28 2026 10:28:44 GMT-0600 (Central Standard Time),159856.89999999944,A,,I,backspace,229,1,9663.299999999814,150193.59999999963,8090,WL,A,7.0
1,24.609000205993652,learn,35390.99979400635,Wed Jan 28 2026 10:28:44 GMT-0600 (Central Standard Time),160073.39999999944,A,,I,backspace,204,1,9879.799999999814,150193.59999999963,8090,WL,A,7.0
1,26.141000032424927,learn,33858.99996757507,Wed Jan 28 2026 10:28:44 GMT-0600 (Central Standard Time),161606.39999999944,A,f,I,f,1515,1,11412.799999999814,150193.59999999963,8090,WL,A,7.0
1,26.35800004005432,learn,33641.99995994568,Wed Jan 28 2026 10:28:44 GMT-0600 (Central Standard Time),161823.0,A,fr,I,r,206,1,11629.400000000373,150193.59999999963,8090,WL,A,7.0
1,26.575000047683716,learn,33424.999952316284,Wed Jan 28 2026 10:28:44 GMT-0600 (Central Standard Time),162039.5,A,fru,I,u,197,1,11845.900000000373,150193.59999999963,8090,WL,A,7.0
1,26.70800018310547,learn,33291.99981689453,Wed Jan 28 2026 10:28:44 GMT-0600 (Central Standard Time),162172.7000000002,A,frui,I,i,117,1,11979.100000000559,150193.59999999963,8090,WL,A,7.0
1,26.875,learn,33125.0,Wed Jan 28 2026 10:28:44 GMT-0600 (Central Standard Time),162339.39999999944,A,fruit,I,t,152,1,12145.799999999814,150193.59999999963,8090,WL,A,7.0
1,27.091000080108643,learn,32908.99991989136,Wed Jan 28 2026 10:28:44 GMT-0600 (Central Standard Time),162556.0,A,fruitenter,I,enter,201,1,12362.400000000373,150193.59999999963,8090,WL,A,7.0
1,32.557000160217285,learn,27442.999839782715,Wed Jan 28 2026 10:28:44 GMT-0600 (Central Standard Time),168022.09999999963,A,enter,I,enter,5456,1,5465.799999999814,162556.2999999998,8090,WL,A,8.0
1,46.9520001411438,learn,13047.999858856201,Wed Jan 28 2026 10:28:44 GMT-0600 (Central Standard Time),182416.39999999944,A,enter,I,enter,14374,1,14394.0,168022.39999999944,8090,WL,A,9.0
1,47.385000228881836,learn,12614.999771118164,Wed Jan 28 2026 10:28:44 GMT-0600 (Central Standard Time),182849.59999999963,A,enter,I,enter,418,1,432.79999999981374,182416.7999999998,8090,WL,A,10.0
1,47.818000078201294,learn,12181.999921798706,Wed Jan 28 2026 10:28:44 GMT-0600 (Central Standard Time),183282.89999999944,A,enter,I,enter,427,1,433.0,182849.89999999944,8090,WL,A,11.0
1,48.051000118255615,learn,11948.999881744385,Wed Jan 28 2026 10:28:44 GMT-0600 (Central Standard Time),183516.2000000002,A,enter,I,enter,226,1,233.1000000005588,183283.09999999963,8090,WL,A,12.0
1,60.01400017738342,learn,-14.000177383422852,Wed Jan 28 2026 10:28:44 GMT-0600 (Central Standard Time),195479.2000000002,A,None,I,None,11958,1,11962.800000000745,183516.39999999944,8090,WL,A,13.0
2,1.6159999370574951,learn,58384.000062942505,Wed Jan 28 2026 10:28:44 GMT-0600 (Central Standard Time),266473.7000000002,A,g,I,g,1603,1,1616.1000000005588,264857.5999999996,8090,WL,A,1.0
2,1.8659999370574951,learn,58134.000062942505,Wed Jan 28 2026 10:28:44 GMT-0600 (Central Standard Time),266723.39999999944,A,go,I,o,234,1,1865.7999999998137,264857.5999999996,8090,WL,A,1.0
2,2.2159998416900635,learn,57784.00015830994,Wed Jan 28 2026 10:28:44 GMT-0600 (Central Standard Time),267073.2999999998,A,gol,I,l,345,1,2215.7000000001863,264857.5999999996,8090,WL,A,1.0
2,2.482999801635742,learn,57517.00019836426,Wed Jan 28 2026 10:28:44 GMT-0600 (Central Standard Time),267340.0,A,gold,I,d,251,1,2482.4000000003725,264857.5999999996,8090,WL,A,1.0
2,2.7829999923706055,learn,57217.000007629395,Wed Jan 28 2026 10:28:44 GMT-0600 (Central Standard Time),267639.89999999944,A,goldenter,I,enter,288,1,2782.2999999998137,264857.5999999996,8090,WL,A,1.0
2,3.615999937057495,learn,56384.000062942505,Wed Jan 28 2026 10:28:44 GMT-0600 (Central Standard Time),268473.2000000002,A,k,I,k,829,1,833.0,267640.2000000002,8090,WL,A,2.0
2,3.9149999618530273,learn,56085.00003814697,Wed Jan 28 2026 10:28:44 GMT-0600 (Central Standard Time),268772.7999999998,A,ke,I,e,283,1,1132.5999999996275,267640.2000000002,8090,WL,A,2.0
2,4.264999866485596,learn,55735.000133514404,Wed Jan 28 2026 10:28:44 GMT-0600 (Central Standard Time),269122.5999999996,A,key,I,y,336,1,1482.3999999994412,267640.2000000002,8090,WL,A,2.0
2,4.631999969482422,learn,55368.00003051758,Wed Jan 28 2026 10:28:44 GMT-0600 (Central Standard Time),269489.5,A,keyenter,I,enter,353,1,1849.2999999998137,267640.2000000002,8090,WL,A,2.0
2,5.531999826431274,learn,54468.000173568726,Wed Jan 28 2026 10:28:44 GMT-0600 (Central Standard Time),270389.0999999996,A,c,I,c,891,1,899.3999999994412,269489.7000000002,8090,WL,A,3.0
2,5.764999866485596,learn,54235.000133514404,Wed Jan 28 2026 10:28:44 GMT-0600 (Central Standard Time),270622.39999999944,A,ch,I,h,215,1,1132.699999999255,269489.7000000002,8090,WL,A,3.0
2,6.031999826431274,learn,53968.000173568726,Wed Jan 28 2026 10:28:44 GMT-0600 (Central Standard Time),270888.89999999944,A,chi,I,i,246,1,1399.199999999255,269489.7000000002,8090,WL,A,3.0
2,6.447999954223633,learn,53552.00004577637,Wed Jan 28 2026 10:28:44 GMT-0600 (Central Standard Time),271305.5,A,chim,I,m,412,1,1815.7999999998137,269489.7000000002,8090,WL,A,3.0
2,6.747999906539917,learn,53252.00009346008,Wed Jan 28 2026 10:28:44 GMT-0600 (Central Standard Time),271605.2000000002,A,chimn,I,n,283,1,2115.5,269489.7000000002,8090,WL,A,3.0
2,6.9649999141693115,learn,53035.00008583069,Wed Jan 28 2026 10:28:44 GMT-0600 (Central Standard Time),271822.0999999996,A,chimne,I,e,199,1,2332.399999999441,269489.7000000002,8090,WL,A,3.0
2,7.130999803543091,learn,52869.00019645691,Wed Jan 28 2026 10:28:44 GMT-0600 (Central Standard Time),271988.39999999944,A,chimney,I,y,149,1,2498.699999999255,269489.7000000002,8090,WL,A,3.0
2,7.547999858856201,learn,52452.0001411438,Wed Jan 28 2026 10:28:44 GMT-0600 (Central Standard Time),272405.0,A,chimneyenter,I,enter,408,1,2915.2999999998137,269489.7000000002,8090,WL,A,3.0
2,8.21399998664856,learn,51786.00001335144,Wed Jan 28 2026 10:28:44 GMT-0600 (Central Standard Time),273071.5,A,b,I,b,653,1,666.1000000005588,272405.39999999944,8090,WL,A,4.0
2,8.664000034332275,learn,51335.999965667725,Wed Jan 28 2026 10:28:44 GMT-0600 (Central Standard Time),273521.39999999944,A,bo,I,o,429,1,1116.0,272405.39999999944,8090,WL,A,4.0
2,8.846999883651733,learn,51153.00011634827,Wed Jan 28 2026 10:28:44 GMT-0600 (Central Standard Time),273704.7000000002,A,boo,I,o,171,1,1299.300000000745,272405.39999999944,8090,WL,A,4.0
2,9.080999851226807,learn,50919.00014877319,Wed Jan 28 2026 10:28:44 GMT-0600 (Central Standard Time),273937.89999999944,A,book,I,k,227,1,1532.5,272405.39999999944,8090,WL,A,4.0
2,9.496999979019165,learn,50503.000020980835,Wed Jan 28 2026 10:28:44 GMT-0600 (Central Standard Time),274354.5,A,bookenter,I,enter,402,1,1949.1000000005588,272405.39999999944,8090,WL,A,4.0
2,11.730000019073486,learn,48269.999980926514,Wed Jan 28 2026 10:28:44 GMT-0600 (Central Standard Time),276587.0999999996,A,s,I,s,2218,1,2232.399999999441,274354.7000000002,8090,WL,A,5.0
2,11.912999868392944,learn,48087.000131607056,Wed Jan 28 2026 10:28:44 GMT-0600 (Central Standard Time),276770.2999999998,A,sa,I,a,177,1,2415.5999999996275,274354.7000000002,8090,WL,A,5.0
2,12.079999923706055,learn,47920.000076293945,Wed Jan 28 2026 10:28:44 GMT-0600 (Central Standard Time),276937.0,A,sal,I,l,146,1,2582.2999999998137,274354.7000000002,8090,WL,A,5.0
2,12.312999963760376,learn,47687.000036239624,Wed Jan 28 2026 10:28:44 GMT-0600 (Central Standard Time),277170.2000000002,A,salt,I,t,220,1,2815.5,274354.7000000002,8090,WL,A,5.0
2,12.595999956130981,learn,47404.00004386902,Wed Jan 28 2026 10:28:44 GMT-0600 (Central Standard Time),277453.39999999944,A,saltenter,I,enter,266,1,3098.699999999255,274354.7000000002,8090,WL,A,5.0
2,13.895999908447266,learn,46104.000091552734,Wed Jan 28 2026 10:28:44 GMT-0600 (Central Standard Time),278753.2999999998,A,h,I,h,1294,1,1299.5999999996275,277453.7000000002,8090,WL,A,6.0
2,14.046000003814697,learn,45953.9999961853,Wed Jan 28 2026 10:28:44 GMT-0600 (Central Standard Time),278903.0,A,ha,I,a,139,1,1449.2999999998137,277453.7000000002,8090,WL,A,6.0
2,14.328999996185303,learn,45671.0000038147,Wed Jan 28 2026 10:28:44 GMT-0600 (Central Standard Time),279186.2000000002,A,har,I,r,270,1,1732.5,277453.7000000002,8090,WL,A,6.0
2,14.628999948501587,learn,45371.00005149841,Wed Jan 28 2026 10:28:44 GMT-0600 (Central Standard Time),279486.0999999996,A,haro,I,o,282,1,2032.3999999994412,277453.7000000002,8090,WL,A,6.0
2,15.161999940872192,learn,44838.00005912781,Wed Jan 28 2026 10:28:44 GMT-0600 (Central Standard Time),280019.5999999996,A,har,I,backspace,519,1,2565.899999999441,277453.7000000002,8090,WL,A,6.0
2,15.577999830245972,learn,44422.00016975403,Wed Jan 28 2026 10:28:44 GMT-0600 (Central Standard Time),280435.7999999998,A,harp,I,p,408,1,2982.0999999996275,277453.7000000002,8090,WL,A,6.0
2,15.894999980926514,learn,44105.000019073486,Wed Jan 28 2026 10:28:44 GMT-0600 (Central Standard Time),280752.2999999998,A,harpenter,I,enter,305,1,3298.5999999996275,277453.7000000002,8090,WL,A,6.0
2,17.110999822616577,learn,42889.00017738342,Wed Jan 28 2026 10:28:44 GMT-0600 (Central Standard Time),281968.7000000002,A,m,I,m,1205,1,1216.2000000001863,280752.5,8090,WL,A,7.0
2,17.227999925613403,learn,42772.0000743866,Wed Jan 28 2026 10:28:44 GMT-0600 (Central Standard Time),282085.2999999998,A,me,I,e,108,1,1332.7999999998137,280752.5,8090,WL,A,7.0
2,17.444999933242798,learn,42555.0000667572,Wed Jan 28 2026 10:28:44 GMT-0600 (Central Standard Time),282301.89999999944,A,mea,I,a,199,1,1549.3999999994412,280752.5,8090,WL,A,7.0
2,17.57799983024597,learn,42422.00016975403,Wed Jan 28 2026 10:28:44 GMT-0600 (Central Standard Time),282435.2000000002,A,mead,I,d,119,1,1682.7000000001863,280752.5,8090,WL,A,7.0
2,17.84500002861023,learn,42154.99997138977,Wed Jan 28 2026 10:28:44 GMT-0600 (Central Standard Time),282701.89999999944,A,meado,I,o,257,1,1949.3999999994412,280752.5,8090,WL,A,7.0
2,18.07799983024597,learn,41922.00016975403,Wed Jan 28 2026 10:28:44 GMT-0600 (Central Standard Time),282935.0999999996,A,meadow,I,w,214,1,2182.5999999996275,280752.5,8090,WL,A,7.0
2,18.42799997329712,learn,41572.00002670288,Wed Jan 28 2026 10:28:44 GMT-0600 (Central Standard Time),283284.89999999944,A,meadowenter,I,enter,341,1,2532.399999999441,280752.5,8090,WL,A,7.0
2,19.194000005722046,learn,40805.999994277954,Wed Jan 28 2026 10:28:44 GMT-0600 (Central Standard Time),284051.2999999998,A,k,I,k,752,1,766.2999999998137,283285.0,8090,WL,A,8.0
2,19.32699990272522,learn,40673.00009727478,Wed Jan 28 2026 10:28:44 GMT-0600 (Central Standard Time),284184.5999999996,A,ke,I,e,113,1,899.5999999996275,283285.0,8090,WL,A,8.0
2,19.5939998626709,learn,40406.0001373291,Wed Jan 28 2026 10:28:44 GMT-0600 (Central Standard Time),284451.0999999996,A,key,I,y,260,1,1166.0999999996275,283285.0,8090,WL,A,8.0
2,19.793999910354614,learn,40206.000089645386,Wed Jan 28 2026 10:28:44 GMT-0600 (Central Standard Time),284651.2999999998,A,keyenter,I,enter,185,1,1366.2999999998137,283285.0,8090,WL,A,8.0
2,20.80999994277954,learn,39190.00005722046,Wed Jan 28 2026 10:28:44 GMT-0600 (Central Standard Time),285667.39999999944,A,t,I,t,1010,1,1015.7999999998137,284651.5999999996,8090,WL,A,9.0
2,20.926999807357788,learn,39073.00019264221,Wed Jan 28 2026 10:28:44 GMT-0600 (Central Standard Time),285784.2000000002,A,tr,I,r,105,1,1132.6000000005588,284651.5999999996,8090,WL,A,9.0
2,21.259999990463257,learn,38740.00000953674,Wed Jan 28 2026 10:28:44 GMT-0600 (Central Standard Time),286117.39999999944,A,tra,I,a,324,1,1465.7999999998137,284651.5999999996,8090,WL,A,9.0
2,21.39299988746643,learn,38607.00011253357,Wed Jan 28 2026 10:28:44 GMT-0600 (Central Standard Time),286250.7000000002,A,trai,I,i,127,1,1599.1000000005588,284651.5999999996,8090,WL,A,9.0
2,21.676999807357788,learn,38323.00019264221,Wed Jan 28 2026 10:28:44 GMT-0600 (Central Standard Time),286533.89999999944,A,train,I,n,274,1,1882.2999999998137,284651.5999999996,8090,WL,A,9.0
2,22.40999984741211,learn,37590.00015258789,Wed Jan 28 2026 10:28:44 GMT-0600 (Central Standard Time),287267.0,A,trainenter,I,enter,719,1,2615.4000000003725,284651.5999999996,8090,WL,A,9.0
2,22.942999839782715,learn,37057.000160217285,Wed Jan 28 2026 10:28:44 GMT-0600 (Central Standard Time),287800.2999999998,A,f,I,f,514,1,533.0,287267.2999999998,8090,WL,A,10.0
2,23.175999879837036,learn,36824.000120162964,Wed Jan 28 2026 10:28:44 GMT-0600 (Central Standard Time),288033.2999999998,A,fl,I,l,228,1,766.0,287267.2999999998,8090,WL,A,10.0
2,23.375999927520752,learn,36624.00007247925,Wed Jan 28 2026 10:28:44 GMT-0600 (Central Standard Time),288233.39999999944,A,flo,I,o,187,1,966.0999999996275,287267.2999999998,8090,WL,A,10.0
2,23.542999982833862,learn,36457.00001716614,Wed Jan 28 2026 10:28:44 GMT-0600 (Central Standard Time),288400.0,A,flow,I,w,155,1,1132.7000000001863,287267.2999999998,8090,WL,A,10.0
2,23.758999824523926,learn,36241.000175476074,Wed Jan 28 2026 10:28:44 GMT-0600 (Central Standard Time),288616.5999999996,A,flowe,I,e,204,1,1349.2999999998137,287267.2999999998,8090,WL,A,10.0
2,23.908999919891357,learn,36091.00008010864,Wed Jan 28 2026 10:28:44 GMT-0600 (Central Standard Time),288766.5,A,flower,I,r,132,1,1499.2000000001863,287267.2999999998,8090,WL,A,10.0
2,24.39299988746643,learn,35607.00011253357,Wed Jan 28 2026 10:28:44 GMT-0600 (Central Standard Time),289249.89999999944,A,flowerenter,I,enter,470,1,1982.5999999996275,287267.2999999998,8090,WL,A,10.0
2,27.157999992370605,learn,32842.000007629395,Wed Jan 28 2026 10:28:44 GMT-0600 (Central Standard Time),292015.5,A,b,I,b,2755,1,2765.2999999998137,289250.2000000002,8090,WL,A,11.0
2,27.54099988937378,learn,32459.00011062622,Wed Jan 28 2026 10:28:44 GMT-0600 (Central Standard Time),292398.7000000002,A,bo,I,o,365,1,3148.5,289250.2000000002,8090,WL,A,11.0
2,27.740999937057495,learn,32259.000062942505,Wed Jan 28 2026 10:28:44 GMT-0600 (Central Standard Time),292598.7999999998,A,boo,I,o,190,1,3348.5999999996275,289250.2000000002,8090,WL,A,11.0
2,27.94099998474121,learn,32059.00001525879,Wed Jan 28 2026 10:28:44 GMT-0600 (Central Standard Time),292798.7000000002,A,book,I,k,189,1,3548.5,289250.2000000002,8090,WL,A,11.0
2,28.307999849319458,learn,31692.000150680542,Wed Jan 28 2026 10:28:44 GMT-0600 (Central Standard Time),293165.2000000002,A,bookenter,I,enter,358,1,3915.0,289250.2000000002,8090,WL,A,11.0
2,31.18999981880188,learn,28810.00018119812,Wed Jan 28 2026 10:28:44 GMT-0600 (Central Standard Time),296047.7000000002,A,g,I,g,2872,1,2882.300000000745,293165.39999999944,8090,WL,A,12.0
2,31.389999866485596,learn,28610.000133514404,Wed Jan 28 2026 10:28:44 GMT-0600 (Central Standard Time),296247.5,A,go,I,o,185,1,3082.100000000559,293165.39999999944,8090,WL,A,12.0
2,31.60699987411499,learn,28393.00012588501,Wed Jan 28 2026 10:28:44 GMT-0600 (Central Standard Time),296464.0999999996,A,gol,I,l,205,1,3298.7000000001863,293165.39999999944,8090,WL,A,12.0
2,31.806999921798706,learn,28193.000078201294,Wed Jan 28 2026 10:28:44 GMT-0600 (Central Standard Time),296664.2000000002,A,gold,I,d,180,1,3498.800000000745,293165.39999999944,8090,WL,A,12.0
2,31.990000009536743,learn,28009.999990463257,Wed Jan 28 2026 10:28:44 GMT-0600 (Central Standard Time),296847.2999999998,A,goldenter,I,enter,172,1,3681.9000000003725,293165.39999999944,8090,WL,A,12.0
2,35.039000034332275,learn,24960.999965667725,Wed Jan 28 2026 10:28:44 GMT-0600 (Central Standard Time),299896.5999999996,A,t,I,t,3037,1,3049.0,296847.5999999996,8090,WL,A,13.0
2,35.18899989128113,learn,24811.000108718872,Wed Jan 28 2026 10:28:44 GMT-0600 (Central Standard Time),300046.5,A,tr,I,r,139,1,3198.9000000003725,296847.5999999996,8090,WL,A,13.0
2,35.57200002670288,learn,24427.99997329712,Wed Jan 28 2026 10:28:44 GMT-0600 (Central Standard Time),300429.7999999998,A,tra,I,a,366,1,3582.2000000001863,296847.5999999996,8090,WL,A,13.0
2,35.68899989128113,learn,24311.000108718872,Wed Jan 28 2026 10:28:44 GMT-0600 (Central Standard Time),300546.2000000002,A,trai,I,i,102,1,3698.600000000559,296847.5999999996,8090,WL,A,13.0
2,36.039000034332275,learn,23960.999965667725,Wed Jan 28 2026 10:28:44 GMT-0600 (Central Standard Time),300896.2999999998,A,train,I,n,330,1,4048.7000000001863,296847.5999999996,8090,WL,A,13.0
2,36.52199983596802,learn,23478.000164031982,Wed Jan 28 2026 10:28:44 GMT-0600 (Central Standard Time),301379.2999999998,A,trainenter,I,enter,476,1,4531.700000000186,296847.5999999996,8090,WL,A,13.0
2,40.370999813079834,learn,19629.000186920166,Wed Jan 28 2026 10:28:44 GMT-0600 (Central Standard Time),305228.2000000002,A,b,I,b,3833,1,3848.600000000559,301379.5999999996,8090,WL,A,14.0
2,40.65399980545044,learn,19346.00019454956,Wed Jan 28 2026 10:28:44 GMT-0600 (Central Standard Time),305511.39999999944,A,bo,I,o,264,1,4131.799999999814,301379.5999999996,8090,WL,A,14.0
2,40.83699989318848,learn,19163.000106811523,Wed Jan 28 2026 10:28:44 GMT-0600 (Central Standard Time),305694.7999999998,A,boo,I,o,164,1,4315.200000000186,301379.5999999996,8090,WL,A,14.0
2,40.9539999961853,learn,19046.000003814697,Wed Jan 28 2026 10:28:44 GMT-0600 (Central Standard Time),305811.2000000002,A,book,I,k,110,1,4431.600000000559,301379.5999999996,8090,WL,A,14.0
2,41.25399994850159,learn,18746.000051498413,Wed Jan 28 2026 10:28:44 GMT-0600 (Central Standard Time),306111.2000000002,A,bookenter,I,enter,281,1,4731.600000000559,301379.5999999996,8090,WL,A,14.0
2,41.78699994087219,learn,18213.000059127808,Wed Jan 28 2026 10:28:44 GMT-0600 (Central Standard Time),306644.2000000002,A,r,I,r,525,1,532.7000000001863,306111.5,8090,WL,A,15.0
2,42.019999980926514,learn,17980.000019073486,Wed Jan 28 2026 10:28:44 GMT-0600 (Central Standard Time),306877.5999999996,A,ru,I,u,216,1,766.0999999996275,306111.5,8090,WL,A,15.0
2,42.36999988555908,learn,17630.000114440918,Wed Jan 28 2026 10:28:44 GMT-0600 (Central Standard Time),307227.5999999996,A,rug,I,g,335,1,1116.0999999996275,306111.5,8090,WL,A,15.0
2,42.55299997329712,learn,17447.00002670288,Wed Jan 28 2026 10:28:44 GMT-0600 (Central Standard Time),307410.7000000002,A,rugenter,I,enter,169,1,1299.2000000001863,306111.5,8090,WL,A,15.0
3,1.2829999923706055,learn,58717.000007629395,Wed Jan 28 2026 10:28:44 GMT-0600 (Central Standard Time),384486.7999999998,A,l,I,l,1265,1,1282.7999999998137,383204.0,8090,WL,A,1.0
3,2.0160000324249268,learn,57983.99996757507,Wed Jan 28 2026 10:28:44 GMT-0600 (Central Standard Time),385219.7000000002,A,lo,I,o,725,1,2015.7000000001863,383204.0,8090,WL,A,1.0
3,2.3489999771118164,learn,57651.00002288818,Wed Jan 28 2026 10:28:44 GMT-0600 (Central Standard Time),385553.0,A,log,I,g,313,1,2349.0,383204.0,8090,WL,A,1.0
3,3.0989999771118164,learn,56901.00002288818,Wed Jan 28 2026 10:28:44 GMT-0600 (Central Standard Time),386302.7999999998,A,logenter,I,enter,731,1,3098.7999999998137,383204.0,8090,WL,A,1.0
3,4.082000017166138,learn,55917.99998283386,Wed Jan 28 2026 10:28:44 GMT-0600 (Central Standard Time),387285.7999999998,A,r,I,r,973,1,982.7000000001863,386303.0999999996,8090,WL,A,2.0
3,4.431999921798706,learn,55568.000078201294,Wed Jan 28 2026 10:28:44 GMT-0600 (Central Standard Time),387635.5999999996,A,ru,I,u,335,1,1332.5,386303.0999999996,8090,WL,A,2.0
3,4.697999954223633,learn,55302.00004577637,Wed Jan 28 2026 10:28:44 GMT-0600 (Central Standard Time),387902.2000000002,A,rug,I,g,257,1,1599.1000000005588,386303.0999999996,8090,WL,A,2.0
3,5.115000009536743,learn,54884.99999046326,Wed Jan 28 2026 10:28:44 GMT-0600 (Central Standard Time),388318.7000000002,A,rugenter,I,enter,406,1,2015.6000000005588,386303.0999999996,8090,WL,A,2.0
3,5.88100004196167,learn,54118.99995803833,Wed Jan 28 2026 10:28:44 GMT-0600 (Central Standard Time),389085.2000000002,A,t,I,t,750,1,766.2000000001863,388319.0,8090,WL,A,3.0
3,6.398000001907349,learn,53601.99999809265,Wed Jan 28 2026 10:28:44 GMT-0600 (Central Standard Time),389601.89999999944,A,,I,backspace,503,1,1282.8999999994412,388319.0,8090,WL,A,3.0
3,6.565000057220459,learn,53434.99994277954,Wed Jan 28 2026 10:28:44 GMT-0600 (Central Standard Time),389768.39999999944,A,r,I,r,155,1,1449.3999999994412,388319.0,8090,WL,A,3.0
3,6.747999906539917,learn,53252.00009346008,Wed Jan 28 2026 10:28:44 GMT-0600 (Central Standard Time),389951.7000000002,A,ra,I,a,164,1,1632.7000000001863,388319.0,8090,WL,A,3.0
3,7.158999919891357,learn,52841.00008010864,Wed Jan 28 2026 10:28:44 GMT-0600 (Central Standard Time),390363.0999999996,A,rat,I,t,407,1,2044.0999999996275,388319.0,8090,WL,A,3.0
3,7.247999906539917,learn,52752.00009346008,Wed Jan 28 2026 10:28:44 GMT-0600 (Central Standard Time),390451.5,A,ratt,I,t,81,1,2132.5,388319.0,8090,WL,A,3.0
3,7.980999946594238,learn,52019.00005340576,Wed Jan 28 2026 10:28:44 GMT-0600 (Central Standard Time),391184.5,A,rattl,I,l,720,1,2865.5,388319.0,8090,WL,A,3.0
3,8.180999994277954,learn,51819.000005722046,Wed Jan 28 2026 10:28:44 GMT-0600 (Central Standard Time),391384.5999999996,A,rattle,I,e,188,1,3065.5999999996275,388319.0,8090,WL,A,3.0
3,8.430999994277954,learn,51569.000005722046,Wed Jan 28 2026 10:28:44 GMT-0600 (Central Standard Time),391634.39999999944,A,rattleenter,I,enter,244,1,3315.399999999441,388319.0,8090,WL,A,3.0
3,9.46399998664856,learn,50536.00001335144,Wed Jan 28 2026 10:28:44 GMT-0600 (Central Standard Time),392667.39999999944,A,h,I,h,1026,1,1032.7999999998137,391634.5999999996,8090,WL,A,4.0
3,9.629999876022339,learn,50370.00012397766,Wed Jan 28 2026 10:28:44 GMT-0600 (Central Standard Time),392834.0999999996,A,ha,I,a,152,1,1199.5,391634.5999999996,8090,WL,A,4.0
3,10.19700002670288,learn,49802.99997329712,Wed Jan 28 2026 10:28:44 GMT-0600 (Central Standard Time),393400.5999999996,A,har,I,r,546,1,1766.0,391634.5999999996,8090,WL,A,4.0
3,10.44700002670288,learn,49552.99997329712,Wed Jan 28 2026 10:28:44 GMT-0600 (Central Standard Time),393650.39999999944,A,harp,I,p,236,1,2015.7999999998137,391634.5999999996,8090,WL,A,4.0
3,10.86299991607666,learn,49137.00008392334,Wed Jan 28 2026 10:28:44 GMT-0600 (Central Standard Time),394066.89999999944,A,harpenter,I,enter,410,1,2432.2999999998137,391634.5999999996,8090,WL,A,4.0
3,11.796000003814697,learn,48203.9999961853,Wed Jan 28 2026 10:28:44 GMT-0600 (Central Standard Time),395000.0,A,b,I,b,914,1,932.9000000003725,394067.0999999996,8090,WL,A,5.0
3,12.078999996185303,learn,47921.0000038147,Wed Jan 28 2026 10:28:44 GMT-0600 (Central Standard Time),395283.0999999996,A,bu,I,u,276,1,1216.0,394067.0999999996,8090,WL,A,5.0
3,12.412999868392944,learn,47587.000131607056,Wed Jan 28 2026 10:28:44 GMT-0600 (Central Standard Time),395616.39999999944,A,but,I,t,321,1,1549.2999999998137,394067.0999999996,8090,WL,A,5.0
3,12.645999908447266,learn,47354.000091552734,Wed Jan 28 2026 10:28:44 GMT-0600 (Central Standard Time),395849.7000000002,A,butt,I,t,220,1,1782.6000000005588,394067.0999999996,8090,WL,A,5.0
3,12.746000051498413,learn,47253.99994850159,Wed Jan 28 2026 10:28:44 GMT-0600 (Central Standard Time),395949.7000000002,A,butto,I,o,91,1,1882.6000000005588,394067.0999999996,8090,WL,A,5.0
3,13.062000036239624,learn,46937.999963760376,Wed Jan 28 2026 10:28:44 GMT-0600 (Central Standard Time),396266.2000000002,A,button,I,n,303,1,2199.100000000559,394067.0999999996,8090,WL,A,5.0
3,13.496000051498413,learn,46503.99994850159,Wed Jan 28 2026 10:28:44 GMT-0600 (Central Standard Time),396699.5,A,buttonenter,I,enter,426,1,2632.4000000003725,394067.0999999996,8090,WL,A,5.0
3,15.228999853134155,learn,44771.000146865845,Wed Jan 28 2026 10:28:44 GMT-0600 (Central Standard Time),398432.39999999944,A,g,I,g,1721,1,1732.699999999255,396699.7000000002,8090,WL,A,6.0
3,15.411999940872192,learn,44588.00005912781,Wed Jan 28 2026 10:28:44 GMT-0600 (Central Standard Time),398615.39999999944,A,go,I,o,164,1,1915.699999999255,396699.7000000002,8090,WL,A,6.0
3,15.67799997329712,learn,44322.00002670288,Wed Jan 28 2026 10:28:44 GMT-0600 (Central Standard Time),398882.2000000002,A,gol,I,l,253,1,2182.5,396699.7000000002,8090,WL,A,6.0
3,15.878000020980835,learn,44121.999979019165,Wed Jan 28 2026 10:28:44 GMT-0600 (Central Standard Time),399082.0999999996,A,gold,I,d,186,1,2382.399999999441,396699.7000000002,8090,WL,A,6.0
3,16.062000036239624,learn,43937.999963760376,Wed Jan 28 2026 10:28:44 GMT-0600 (Central Standard Time),399265.39999999944,A,goldenter,I,enter,170,1,2565.699999999255,396699.7000000002,8090,WL,A,6.0
3,16.42799997329712,learn,43572.00002670288,Wed Jan 28 2026 10:28:44 GMT-0600 (Central Standard Time),399631.89999999944,A,s,I,s,355,1,366.29999999981374,399265.5999999996,8090,WL,A,7.0
3,16.611000061035156,learn,43388.999938964844,Wed Jan 28 2026 10:28:44 GMT-0600 (Central Standard Time),399815.2999999998,A,sa,I,a,165,1,549.7000000001863,399265.5999999996,8090,WL,A,7.0
3,16.82800006866455,learn,43171.99993133545,Wed Jan 28 2026 10:28:44 GMT-0600 (Central Standard Time),400031.7000000002,A,sal,I,l,197,1,766.1000000005588,399265.5999999996,8090,WL,A,7.0
3,17.07800006866455,learn,42921.99993133545,Wed Jan 28 2026 10:28:44 GMT-0600 (Central Standard Time),400281.7999999998,A,salk,I,k,237,1,1016.2000000001863,399265.5999999996,8090,WL,A,7.0
3,18.043999910354614,learn,41956.000089645386,Wed Jan 28 2026 10:28:44 GMT-0600 (Central Standard Time),401248.2000000002,A,sal,I,backspace,947,1,1982.6000000005588,399265.5999999996,8090,WL,A,7.0
3,18.293999910354614,learn,41706.000089645386,Wed Jan 28 2026 10:28:44 GMT-0600 (Central Standard Time),401497.89999999944,A,salt,I,t,244,1,2232.2999999998137,399265.5999999996,8090,WL,A,7.0
3,18.710999965667725,learn,41289.000034332275,Wed Jan 28 2026 10:28:44 GMT-0600 (Central Standard Time),401914.39999999944,A,saltenter,I,enter,410,1,2648.7999999998137,399265.5999999996,8090,WL,A,7.0
3,20.15999984741211,learn,39840.00015258789,Wed Jan 28 2026 10:28:44 GMT-0600 (Central Standard Time),403364.0,A,t,I,t,1442,1,1449.4000000003725,401914.5999999996,8090,WL,A,8.0
3,20.293999910354614,learn,39706.000089645386,Wed Jan 28 2026 10:28:44 GMT-0600 (Central Standard Time),403497.2999999998,A,tr,I,r,120,1,1582.7000000001863,401914.5999999996,8090,WL,A,8.0
3,20.57699990272522,learn,39423.00009727478,Wed Jan 28 2026 10:28:44 GMT-0600 (Central Standard Time),403780.5999999996,A,tra,I,a,267,1,1866.0,401914.5999999996,8090,WL,A,8.0
3,20.694000005722046,learn,39305.999994277954,Wed Jan 28 2026 10:28:44 GMT-0600 (Central Standard Time),403897.39999999944,A,trai,I,i,96,1,1982.7999999998137,401914.5999999996,8090,WL,A,8.0
3,20.89299988746643,learn,39107.00011253357,Wed Jan 28 2026 10:28:44 GMT-0600 (Central Standard Time),404097.0999999996,A,train,I,n,187,1,2182.5,401914.5999999996,8090,WL,A,8.0
3,21.7260000705719,learn,38273.9999294281,Wed Jan 28 2026 10:28:44 GMT-0600 (Central Standard Time),404930.0999999996,A,trai,I,backspace,827,1,3015.5,401914.5999999996,8090,WL,A,8.0
3,22.109999895095825,learn,37890.000104904175,Wed Jan 28 2026 10:28:44 GMT-0600 (Central Standard Time),405313.39999999944,A,traienter,I,enter,371,1,3398.7999999998137,401914.5999999996,8090,WL,A,8.0
3,23.358999967575073,learn,36641.00003242493,Wed Jan 28 2026 10:28:44 GMT-0600 (Central Standard Time),406563.0999999996,A,t,I,t,1243,1,1249.3999999994412,405313.7000000002,8090,WL,A,9.0
3,23.608999967575073,learn,36391.00003242493,Wed Jan 28 2026 10:28:44 GMT-0600 (Central Standard Time),406812.7999999998,A,tr,I,r,233,1,1499.0999999996275,405313.7000000002,8090,WL,A,9.0
3,23.7260000705719,learn,36273.9999294281,Wed Jan 28 2026 10:28:44 GMT-0600 (Central Standard Time),406929.5999999996,A,tra,I,a,111,1,1615.8999999994412,405313.7000000002,8090,WL,A,9.0
3,23.842000007629395,learn,36157.999992370605,Wed Jan 28 2026 10:28:44 GMT-0600 (Central Standard Time),407046.0999999996,A,trai,I,i,107,1,1732.3999999994412,405313.7000000002,8090,WL,A,9.0
3,24.04200005531311,learn,35957.99994468689,Wed Jan 28 2026 10:28:44 GMT-0600 (Central Standard Time),407246.2000000002,A,train,I,n,182,1,1932.5,405313.7000000002,8090,WL,A,9.0
3,24.358999967575073,learn,35641.00003242493,Wed Jan 28 2026 10:28:44 GMT-0600 (Central Standard Time),407562.7999999998,A,trainenter,I,enter,302,1,2249.0999999996275,405313.7000000002,8090,WL,A,9.0
3,25.108999967575073,learn,34891.00003242493,Wed Jan 28 2026 10:28:44 GMT-0600 (Central Standard Time),408312.5,A,c,I,c,738,1,749.6000000005588,407562.89999999944,8090,WL,A,10.0
3,25.39199995994568,learn,34608.00004005432,Wed Jan 28 2026 10:28:44 GMT-0600 (Central Standard Time),408595.7999999998,A,ch,I,h,267,1,1032.9000000003725,407562.89999999944,8090,WL,A,10.0
3,25.557999849319458,learn,34442.00015068054,Wed Jan 28 2026 10:28:44 GMT-0600 (Central Standard Time),408762.2000000002,A,chi,I,i,161,1,1199.300000000745,407562.89999999944,8090,WL,A,10.0
3,25.907999992370605,learn,34092.000007629395,Wed Jan 28 2026 10:28:44 GMT-0600 (Central Standard Time),409112.2000000002,A,chin,I,n,330,1,1549.300000000745,407562.89999999944,8090,WL,A,10.0
3,27.007999897003174,learn,32992.000102996826,Wed Jan 28 2026 10:28:44 GMT-0600 (Central Standard Time),410211.7999999998,A,chi,I,backspace,1084,1,2648.9000000003725,407562.89999999944,8090,WL,A,10.0
3,27.507999897003174,learn,32492.000102996826,Wed Jan 28 2026 10:28:44 GMT-0600 (Central Standard Time),410711.7999999998,A,chim,I,m,489,1,3148.9000000003725,407562.89999999944,8090,WL,A,10.0
3,27.740999937057495,learn,32259.000062942505,Wed Jan 28 2026 10:28:44 GMT-0600 (Central Standard Time),410945.0,A,chime,I,e,221,1,3382.100000000559,407562.89999999944,8090,WL,A,10.0
3,27.875,learn,32125.0,Wed Jan 28 2026 10:28:44 GMT-0600 (Central Standard Time),411078.39999999944,A,chimen,I,n,116,1,3515.5,407562.89999999944,8090,WL,A,10.0
3,28.391000032424927,learn,31608.999967575073,Wed Jan 28 2026 10:28:44 GMT-0600 (Central Standard Time),411594.89999999944,A,chime,I,backspace,502,1,4032.0,407562.89999999944,8090,WL,A,10.0
3,28.891000032424927,learn,31108.999967575073,Wed Jan 28 2026 10:28:44 GMT-0600 (Central Standard Time),412094.5999999996,A,chim,I,backspace,490,1,4531.700000000186,407562.89999999944,8090,WL,A,10.0
3,30.789999961853027,learn,29210.000038146973,Wed Jan 28 2026 10:28:44 GMT-0600 (Central Standard Time),413994.0999999996,A,chimn,I,n,1886,1,6431.200000000186,407562.89999999944,8090,WL,A,10.0
3,30.94000005722046,learn,29059.99994277954,Wed Jan 28 2026 10:28:44 GMT-0600 (Central Standard Time),414144.0,A,chimne,I,e,128,1,6581.100000000559,407562.89999999944,8090,WL,A,10.0
3,31.1729998588562,learn,28827.0001411438,Wed Jan 28 2026 10:28:44 GMT-0600 (Central Standard Time),414377.2000000002,A,chimney,I,y,212,1,6814.300000000745,407562.89999999944,8090,WL,A,10.0
3,31.374000072479248,learn,28625.999927520752,Wed Jan 28 2026 10:28:44 GMT-0600 (Central Standard Time),414577.39999999944,A,chimneyenter,I,enter,179,1,7014.5,407562.89999999944,8090,WL,A,10.0
3,32.03999996185303,learn,27960.000038146973,Wed Jan 28 2026 10:28:44 GMT-0600 (Central Standard Time),415243.7000000002,A,f,I,f,652,1,666.1000000005588,414577.5999999996,8090,WL,A,11.0
3,32.33999991416931,learn,27660.00008583069,Wed Jan 28 2026 10:28:44 GMT-0600 (Central Standard Time),415543.5999999996,A,fi,I,i,289,1,966.0,414577.5999999996,8090,WL,A,11.0
3,32.62299990653992,learn,27377.000093460083,Wed Jan 28 2026 10:28:44 GMT-0600 (Central Standard Time),415827.0,A,fin,I,n,269,1,1249.4000000003725,414577.5999999996,8090,WL,A,11.0
3,32.87299990653992,learn,27127.000093460083,Wed Jan 28 2026 10:28:44 GMT-0600 (Central Standard Time),416076.7000000002,A,fing,I,g,234,1,1499.1000000005588,414577.5999999996,8090,WL,A,11.0
3,33.055999994277954,learn,26944.000005722046,Wed Jan 28 2026 10:28:44 GMT-0600 (Central Standard Time),416260.0,A,finge,I,e,168,1,1682.4000000003725,414577.5999999996,8090,WL,A,11.0
3,33.10599994659424,learn,26894.00005340576,Wed Jan 28 2026 10:28:44 GMT-0600 (Central Standard Time),416310.0,A,finger,I,r,41,1,1732.4000000003725,414577.5999999996,8090,WL,A,11.0
3,33.49000000953674,learn,26509.999990463257,Wed Jan 28 2026 10:28:44 GMT-0600 (Central Standard Time),416693.2000000002,A,fingerenter,I,enter,366,1,2115.600000000559,414577.5999999996,8090,WL,A,11.0
3,34.20599985122681,learn,25794.000148773193,Wed Jan 28 2026 10:28:44 GMT-0600 (Central Standard Time),417409.5999999996,A,d,I,d,711,1,716.0999999996275,416693.5,8090,WL,A,12.0
3,34.58899998664856,learn,25411.00001335144,Wed Jan 28 2026 10:28:44 GMT-0600 (Central Standard Time),417792.89999999944,A,,I,backspace,363,1,1099.3999999994412,416693.5,8090,WL,A,12.0
3,34.73900008201599,learn,25260.99991798401,Wed Jan 28 2026 10:28:44 GMT-0600 (Central Standard Time),417942.7999999998,A,f,I,f,139,1,1249.2999999998137,416693.5,8090,WL,A,12.0
3,34.93899989128113,learn,25061.000108718872,Wed Jan 28 2026 10:28:44 GMT-0600 (Central Standard Time),418142.89999999944,A,fl,I,l,182,1,1449.3999999994412,416693.5,8090,WL,A,12.0
3,35.138999938964844,learn,24861.000061035156,Wed Jan 28 2026 10:28:44 GMT-0600 (Central Standard Time),418342.5999999996,A,flo,I,o,190,1,1649.0999999996275,416693.5,8090,WL,A,12.0
3,35.72199988365173,learn,24278.000116348267,Wed Jan 28 2026 10:28:44 GMT-0600 (Central Standard Time),418925.89999999944,A,flow,I,w,574,1,2232.399999999441,416693.5,8090,WL,A,12.0
3,35.954999923706055,learn,24045.000076293945,Wed Jan 28 2026 10:28:44 GMT-0600 (Central Standard Time),419159.2000000002,A,flowe,I,e,223,1,2465.7000000001863,416693.5,8090,WL,A,12.0
3,36.07200002670288,learn,23927.99997329712,Wed Jan 28 2026 10:28:44 GMT-0600 (Central Standard Time),419275.5999999996,A,flower,I,r,102,1,2582.0999999996275,416693.5,8090,WL,A,12.0
3,36.68899989128113,learn,23311.000108718872,Wed Jan 28 2026 10:28:44 GMT-0600 (Central Standard Time),419892.2999999998,A,flowerenter,I,enter,601,1,3198.7999999998137,416693.5,8090,WL,A,12.0
3,37.355000019073486,learn,22644.999980926514,Wed Jan 28 2026 10:28:44 GMT-0600 (Central Standard Time),420558.5999999996,A,b,I,b,648,1,666.0,419892.5999999996,8090,WL,A,13.0
3,37.687999963760376,learn,22312.000036239624,Wed Jan 28 2026 10:28:44 GMT-0600 (Central Standard Time),420891.89999999944,A,bo,I,o,326,1,999.2999999998137,419892.5999999996,8090,WL,A,13.0
3,37.90499997138977,learn,22095.00002861023,Wed Jan 28 2026 10:28:44 GMT-0600 (Central Standard Time),421108.5,A,boo,I,o,208,1,1215.9000000003725,419892.5999999996,8090,WL,A,13.0
3,38.07099986076355,learn,21929.00013923645,Wed Jan 28 2026 10:28:44 GMT-0600 (Central Standard Time),421275.0999999996,A,book,I,k,160,1,1382.5,419892.5999999996,8090,WL,A,13.0
3,38.6710000038147,learn,21328.999996185303,Wed Jan 28 2026 10:28:44 GMT-0600 (Central Standard Time),421874.89999999944,A,bookenter,I,enter,585,1,1982.2999999998137,419892.5999999996,8090,WL,A,13.0
3,40.25399994850159,learn,19746.000051498413,Wed Jan 28 2026 10:28:44 GMT-0600 (Central Standard Time),423457.7999999998,A,l,I,l,1569,1,1582.5999999996275,421875.2000000002,8090,WL,A,14.0
3,40.53699994087219,learn,19463.000059127808,Wed Jan 28 2026 10:28:44 GMT-0600 (Central Standard Time),423740.89999999944,A,lo,I,o,274,1,1865.699999999255,421875.2000000002,8090,WL,A,14.0
3,40.80399990081787,learn,19196.00009918213,Wed Jan 28 2026 10:28:44 GMT-0600 (Central Standard Time),424007.5999999996,A,log,I,g,255,1,2132.399999999441,421875.2000000002,8090,WL,A,14.0
3,41.08699989318848,learn,18913.000106811523,Wed Jan 28 2026 10:28:44 GMT-0600 (Central Standard Time),424290.7999999998,A,logenter,I,enter,277,1,2415.5999999996275,421875.2000000002,8090,WL,A,14.0
3,60.014999866485596,learn,-14.999866485595703,Wed Jan 28 2026 10:28:44 GMT-0600 (Central Standard Time),443218.39999999944,A,None,I,None,18923,1,18927.39999999944,424291.0,8090,WL,A,15.0
4,1.8659999370574951,learn,58134.000062942505,Wed Jan 28 2026 10:28:44 GMT-0600 (Central Standard Time),518294.7999999998,A,a,I,a,1856,1,1865.7999999998137,516429.0,8090,WL,A,1.0
4,2.2660000324249268,learn,57733.99996757507,Wed Jan 28 2026 10:28:44 GMT-0600 (Central Standard Time),518694.7000000002,A,ap,I,p,389,1,2265.7000000001863,516429.0,8090,WL,A,1.0
4,2.7319998741149902,learn,57268.00012588501,Wed Jan 28 2026 10:28:44 GMT-0600 (Central Standard Time),519161.2000000002,A,apl,I,l,446,1,2732.2000000001863,516429.0,8090,WL,A,1.0
4,2.9489998817443848,learn,57051.000118255615,Wed Jan 28 2026 10:28:44 GMT-0600 (Central Standard Time),519377.89999999944,A,aple,I,e,211,1,2948.899999999441,516429.0,8090,WL,A,1.0
4,3.5820000171661377,learn,56417.99998283386,Wed Jan 28 2026 10:28:44 GMT-0600 (Central Standard Time),520011.0999999996,A,apl,I,backspace,619,1,3582.0999999996275,516429.0,8090,WL,A,1.0
4,3.7990000247955322,learn,56200.99997520447,Wed Jan 28 2026 10:28:44 GMT-0600 (Central Standard Time),520227.39999999944,A,ap,I,backspace,201,1,3798.399999999441,516429.0,8090,WL,A,1.0
4,4.365000009536743,learn,55634.99999046326,Wed Jan 28 2026 10:28:44 GMT-0600 (Central Standard Time),520794.0,A,app,I,p,561,1,4365.0,516429.0,8090,WL,A,1.0
4,4.549000024795532,learn,55450.99997520447,Wed Jan 28 2026 10:28:44 GMT-0600 (Central Standard Time),520977.2000000002,A,appl,I,l,169,1,4548.200000000186,516429.0,8090,WL,A,1.0
4,4.73199987411499,learn,55268.00012588501,Wed Jan 28 2026 10:28:44 GMT-0600 (Central Standard Time),521160.5,A,apple,I,e,163,1,4731.5,516429.0,8090,WL,A,1.0
4,5.065000057220459,learn,54934.99994277954,Wed Jan 28 2026 10:28:44 GMT-0600 (Central Standard Time),521493.7999999998,A,appleenter,I,enter,324,1,5064.799999999814,516429.0,8090,WL,A,1.0
4,5.997999906539917,learn,54002.00009346008,Wed Jan 28 2026 10:28:44 GMT-0600 (Central Standard Time),522426.7000000002,A,s,I,s,926,1,932.6000000005588,521494.0999999996,8090,WL,A,2.0
4,6.247999906539917,learn,53752.00009346008,Wed Jan 28 2026 10:28:44 GMT-0600 (Central Standard Time),522676.7000000002,A,st,I,t,242,1,1182.6000000005588,521494.0999999996,8090,WL,A,2.0
4,6.497999906539917,learn,53502.00009346008,Wed Jan 28 2026 10:28:44 GMT-0600 (Central Standard Time),522926.7000000002,A,sta,I,a,240,1,1432.6000000005588,521494.0999999996,8090,WL,A,2.0
4,6.747999906539917,learn,53252.00009346008,Wed Jan 28 2026 10:28:44 GMT-0600 (Central Standard Time),523176.5,A,stal,I,l,230,1,1682.4000000003725,521494.0999999996,8090,WL,A,2.0
4,7.2809998989105225,learn,52719.00010108948,Wed Jan 28 2026 10:28:44 GMT-0600 (Central Standard Time),523709.7000000002,A,sta,I,backspace,516,1,2215.600000000559,521494.0999999996,8090,WL,A,2.0
4,7.497999906539917,learn,52502.00009346008,Wed Jan 28 2026 10:28:44 GMT-0600 (Central Standard Time),523926.5,A,st,I,backspace,199,1,2432.4000000003725,521494.0999999996,8090,WL,A,2.0
4,7.697999954223633,learn,52302.00004577637,Wed Jan 28 2026 10:28:44 GMT-0600 (Central Standard Time),524126.2000000002,A,s,I,backspace,182,1,2632.100000000559,521494.0999999996,8090,WL,A,2.0
4,7.914000034332275,learn,52085.999965667725,Wed Jan 28 2026 10:28:44 GMT-0600 (Central Standard Time),524342.8999999994,A,sa,I,a,198,1,2848.7999999998137,521494.0999999996,8090,WL,A,2.0
4,8.246999979019165,learn,51753.000020980835,Wed Jan 28 2026 10:28:44 GMT-0600 (Central Standard Time),524676.0999999996,A,sal,I,l,318,1,3182.0,521494.0999999996,8090,WL,A,2.0
4,8.414000034332275,learn,51585.999965667725,Wed Jan 28 2026 10:28:44 GMT-0600 (Central Standard Time),524842.7000000002,A,salk,I,k,160,1,3348.600000000559,521494.0999999996,8090,WL,A,2.0
4,8.831000089645386,learn,51168.999910354614,Wed Jan 28 2026 10:28:44 GMT-0600 (Central Standard Time),525259.3999999994,A,salkenter,I,enter,402,1,3765.2999999998137,521494.0999999996,8090,WL,A,2.0
4,9.77999997138977,learn,50220.00002861023,Wed Jan 28 2026 10:28:44 GMT-0600 (Central Standard Time),526209.0999999996,A,s,I,s,929,1,949.3999999994412,525259.7000000002,8090,WL,A,3.0
4,9.94700002670288,learn,50052.99997329712,Wed Jan 28 2026 10:28:44 GMT-0600 (Central Standard Time),526375.7000000002,A,sa,I,a,155,1,1116.0,525259.7000000002,8090,WL,A,3.0
4,10.129999876022339,learn,49870.00012397766,Wed Jan 28 2026 10:28:44 GMT-0600 (Central Standard Time),526558.7999999998,A,sal,I,l,173,1,1299.0999999996275,525259.7000000002,8090,WL,A,3.0
4,10.379999876022339,learn,49620.00012397766,Wed Jan 28 2026 10:28:44 GMT-0600 (Central Standard Time),526808.8999999994,A,salt,I,t,230,1,1549.199999999255,525259.7000000002,8090,WL,A,3.0
4,10.579999923706055,learn,49420.000076293945,Wed Jan 28 2026 10:28:44 GMT-0600 (Central Standard Time),527008.5999999996,A,saltenter,I,enter,178,1,1748.8999999994412,525259.7000000002,8090,WL,A,3.0
4,11.513000011444092,learn,48486.99998855591,Wed Jan 28 2026 10:28:44 GMT-0600 (Central Standard Time),527941.8999999994,A,f,I,f,916,1,933.0,527008.8999999994,8090,WL,A,4.0
4,11.730000019073486,learn,48269.999980926514,Wed Jan 28 2026 10:28:44 GMT-0600 (Central Standard Time),528158.2000000002,A,fi,I,i,198,1,1149.300000000745,527008.8999999994,8090,WL,A,4.0
4,12.02999997138977,learn,47970.00002861023,Wed Jan 28 2026 10:28:44 GMT-0600 (Central Standard Time),528458.2999999998,A,fin,I,n,286,1,1449.4000000003725,527008.8999999994,8090,WL,A,4.0
4,12.312999963760376,learn,47687.000036239624,Wed Jan 28 2026 10:28:44 GMT-0600 (Central Standard Time),528741.5999999996,A,fing,I,g,266,1,1732.7000000001863,527008.8999999994,8090,WL,A,4.0
4,12.645999908447266,learn,47354.000091552734,Wed Jan 28 2026 10:28:44 GMT-0600 (Central Standard Time),529074.7000000002,A,finge,I,e,327,1,2065.800000000745,527008.8999999994,8090,WL,A,4.0
4,12.796000003814697,learn,47203.9999961853,Wed Jan 28 2026 10:28:44 GMT-0600 (Central Standard Time),529224.7999999998,A,finger,I,r,138,1,2215.9000000003725,527008.8999999994,8090,WL,A,4.0
4,13.428999900817871,learn,46571.00009918213,Wed Jan 28 2026 10:28:44 GMT-0600 (Central Standard Time),529857.7999999998,A,fingerenter,I,enter,620,1,2848.9000000003725,527008.8999999994,8090,WL,A,4.0
4,14.01200008392334,learn,45987.99991607666,Wed Jan 28 2026 10:28:44 GMT-0600 (Central Standard Time),530441.0,A,b,I,b,571,1,583.0,529858.0,8090,WL,A,5.0
4,14.246000051498413,learn,45753.99994850159,Wed Jan 28 2026 10:28:44 GMT-0600 (Central Standard Time),530674.2999999998,A,bu,I,u,219,1,816.2999999998137,529858.0,8090,WL,A,5.0
4,14.444999933242798,learn,45555.0000667572,Wed Jan 28 2026 10:28:44 GMT-0600 (Central Standard Time),530874.2000000002,A,but,I,t,194,1,1016.2000000001863,529858.0,8090,WL,A,5.0
4,14.645999908447266,learn,45354.000091552734,Wed Jan 28 2026 10:28:44 GMT-0600 (Central Standard Time),531074.2999999998,A,butt,I,t,186,1,1216.2999999998137,529858.0,8090,WL,A,5.0
4,14.729000091552734,learn,45270.999908447266,Wed Jan 28 2026 10:28:44 GMT-0600 (Central Standard Time),531157.2999999998,A,butto,I,o,74,1,1299.2999999998137,529858.0,8090,WL,A,5.0
4,14.979000091552734,learn,45020.999908447266,Wed Jan 28 2026 10:28:44 GMT-0600 (Central Standard Time),531407.3999999994,A,button,I,n,231,1,1549.3999999994412,529858.0,8090,WL,A,5.0
4,15.42300009727478,learn,44576.99990272522,Wed Jan 28 2026 10:28:44 GMT-0600 (Central Standard Time),531852.0,A,buttonenter,I,enter,440,1,1994.0,529858.0,8090,WL,A,5.0
4,15.911999940872192,learn,44088.00005912781,Wed Jan 28 2026 10:28:44 GMT-0600 (Central Standard Time),532340.2999999998,A,c,I,c,471,1,487.90000000037253,531852.3999999994,8090,WL,A,6.0
4,16.09500002861023,learn,43904.99997138977,Wed Jan 28 2026 10:28:44 GMT-0600 (Central Standard Time),532523.7000000002,A,ch,I,h,168,1,671.3000000007451,531852.3999999994,8090,WL,A,6.0
4,16.211999893188477,learn,43788.00010681152,Wed Jan 28 2026 10:28:44 GMT-0600 (Central Standard Time),532640.3999999994,A,chi,I,i,97,1,788.0,531852.3999999994,8090,WL,A,6.0
4,16.460999965667725,learn,43539.000034332275,Wed Jan 28 2026 10:28:44 GMT-0600 (Central Standard Time),532890.2000000002,A,chin,I,n,236,1,1037.800000000745,531852.3999999994,8090,WL,A,6.0
4,16.82800006866455,learn,43171.99993133545,Wed Jan 28 2026 10:28:44 GMT-0600 (Central Standard Time),533256.5999999996,A,chinm,I,m,346,1,1404.2000000001863,531852.3999999994,8090,WL,A,6.0
4,16.994999885559082,learn,43005.00011444092,Wed Jan 28 2026 10:28:44 GMT-0600 (Central Standard Time),533423.2999999998,A,chinme,I,e,148,1,1570.9000000003725,531852.3999999994,8090,WL,A,6.0
4,17.26099991798401,learn,42739.00008201599,Wed Jan 28 2026 10:28:44 GMT-0600 (Central Standard Time),533690.0,A,chinmey,I,y,261,1,1837.6000000005588,531852.3999999994,8090,WL,A,6.0
4,17.594000101089478,learn,42405.99989891052,Wed Jan 28 2026 10:28:44 GMT-0600 (Central Standard Time),534023.2000000002,A,chinmeyenter,I,enter,314,1,2170.800000000745,531852.3999999994,8090,WL,A,6.0
4,18.64400005340576,learn,41355.99994659424,Wed Jan 28 2026 10:28:44 GMT-0600 (Central Standard Time),535073.0,A,g,I,g,1037,1,1049.5,534023.5,8090,WL,A,7.0
4,18.861000061035156,learn,41138.999938964844,Wed Jan 28 2026 10:28:44 GMT-0600 (Central Standard Time),535289.2999999998,A,go,I,o,203,1,1265.7999999998137,534023.5,8090,WL,A,7.0
4,19.094000101089478,learn,40905.99989891052,Wed Jan 28 2026 10:28:44 GMT-0600 (Central Standard Time),535522.5999999996,A,gol,I,l,227,1,1499.0999999996275,534023.5,8090,WL,A,7.0
4,19.293999910354614,learn,40706.000089645386,Wed Jan 28 2026 10:28:44 GMT-0600 (Central Standard Time),535722.7000000002,A,gold,I,d,186,1,1699.2000000001863,534023.5,8090,WL,A,7.0
4,19.47699999809265,learn,40523.00000190735,Wed Jan 28 2026 10:28:44 GMT-0600 (Central Standard Time),535906.0,A,goldenter,I,enter,170,1,1882.5,534023.5,8090,WL,A,7.0
4,20.51099991798401,learn,39489.00008201599,Wed Jan 28 2026 10:28:44 GMT-0600 (Central Standard Time),536939.3999999994,A,r,I,r,1026,1,1033.199999999255,535906.2000000002,8090,WL,A,8.0
4,20.72699999809265,learn,39273.00000190735,Wed Jan 28 2026 10:28:44 GMT-0600 (Central Standard Time),537155.5999999996,A,ru,I,u,209,1,1249.3999999994412,535906.2000000002,8090,WL,A,8.0
4,21.05999994277954,learn,38940.00005722046,Wed Jan 28 2026 10:28:44 GMT-0600 (Central Standard Time),537489.0,A,rug,I,g,313,1,1582.7999999998137,535906.2000000002,8090,WL,A,8.0
4,21.592999935150146,learn,38407.00006484985,Wed Jan 28 2026 10:28:44 GMT-0600 (Central Standard Time),538022.0,A,rugenter,I,enter,524,1,2115.7999999998137,535906.2000000002,8090,WL,A,8.0
4,22.375999927520752,learn,37624.00007247925,Wed Jan 28 2026 10:28:44 GMT-0600 (Central Standard Time),538805.0,A,k,I,k,774,1,782.7000000001863,538022.2999999998,8090,WL,A,9.0
4,22.55900001525879,learn,37440.99998474121,Wed Jan 28 2026 10:28:44 GMT-0600 (Central Standard Time),538988.2999999998,A,ke,I,e,175,1,966.0,538022.2999999998,8090,WL,A,9.0
4,22.943000078201294,learn,37056.999921798706,Wed Jan 28 2026 10:28:44 GMT-0600 (Central Standard Time),539371.3999999994,A,key,I,y,368,1,1349.0999999996275,538022.2999999998,8090,WL,A,9.0
4,23.425999879837036,learn,36574.000120162964,Wed Jan 28 2026 10:28:44 GMT-0600 (Central Standard Time),539854.7000000002,A,keyenter,I,enter,473,1,1832.4000000003725,538022.2999999998,8090,WL,A,9.0
4,24.125999927520752,learn,35874.00007247925,Wed Jan 28 2026 10:28:44 GMT-0600 (Central Standard Time),540554.5,A,l,I,l,694,1,699.6000000005588,539854.8999999994,8090,WL,A,10.0
4,24.39199995994568,learn,35608.00004005432,Wed Jan 28 2026 10:28:44 GMT-0600 (Central Standard Time),540821.0,A,lo,I,o,258,1,966.1000000005588,539854.8999999994,8090,WL,A,10.0
4,24.592000007629395,learn,35407.999992370605,Wed Jan 28 2026 10:28:44 GMT-0600 (Central Standard Time),541021.0,A,log,I,g,192,1,1166.1000000005588,539854.8999999994,8090,WL,A,10.0
4,24.908999919891357,learn,35091.00008010864,Wed Jan 28 2026 10:28:44 GMT-0600 (Central Standard Time),541337.5,A,logenter,I,enter,311,1,1482.6000000005588,539854.8999999994,8090,WL,A,10.0
4,27.325000047683716,learn,32674.999952316284,Wed Jan 28 2026 10:28:44 GMT-0600 (Central Standard Time),543753.3999999994,A,t,I,t,2395,1,2415.699999999255,541337.7000000002,8090,WL,A,11.0
4,27.47499990463257,learn,32525.00009536743,Wed Jan 28 2026 10:28:44 GMT-0600 (Central Standard Time),543903.5999999996,A,tr,I,r,139,1,2565.899999999441,541337.7000000002,8090,WL,A,11.0
4,27.757999897003174,learn,32242.000102996826,Wed Jan 28 2026 10:28:44 GMT-0600 (Central Standard Time),544186.7000000002,A,tra,I,a,277,1,2849.0,541337.7000000002,8090,WL,A,11.0
4,27.85800004005432,learn,32141.99995994568,Wed Jan 28 2026 10:28:44 GMT-0600 (Central Standard Time),544286.7000000002,A,trai,I,i,90,1,2949.0,541337.7000000002,8090,WL,A,11.0
4,28.091000080108643,learn,31908.999919891357,Wed Jan 28 2026 10:28:44 GMT-0600 (Central Standard Time),544519.7999999998,A,train,I,n,222,1,3182.0999999996275,541337.7000000002,8090,WL,A,11.0
4,28.69099998474121,learn,31309.00001525879,Wed Jan 28 2026 10:28:44 GMT-0600 (Central Standard Time),545119.7999999998,A,trainenter,I,enter,589,1,3782.0999999996275,541337.7000000002,8090,WL,A,11.0
4,29.35599994659424,learn,30644.00005340576,Wed Jan 28 2026 10:28:44 GMT-0600 (Central Standard Time),545786.2000000002,A,f,I,f,652,1,666.3000000007451,545119.8999999994,8090,WL,A,12.0
4,29.77300000190735,learn,30226.99999809265,Wed Jan 28 2026 10:28:44 GMT-0600 (Central Standard Time),546202.7999999998,A,fl,I,l,410,1,1082.9000000003725,545119.8999999994,8090,WL,A,12.0
4,30.00600004196167,learn,29993.99995803833,Wed Jan 28 2026 10:28:44 GMT-0600 (Central Standard Time),546436.0,A,flo,I,o,226,1,1316.1000000005588,545119.8999999994,8090,WL,A,12.0
4,30.188999891281128,learn,29811.000108718872,Wed Jan 28 2026 10:28:44 GMT-0600 (Central Standard Time),546619.2000000002,A,flow,I,w,177,1,1499.300000000745,545119.8999999994,8090,WL,A,12.0
4,30.405999898910522,learn,29594.000101089478,Wed Jan 28 2026 10:28:44 GMT-0600 (Central Standard Time),546835.8999999994,A,flowe,I,e,201,1,1716.0,545119.8999999994,8090,WL,A,12.0
4,30.52300000190735,learn,29476.99999809265,Wed Jan 28 2026 10:28:44 GMT-0600 (Central Standard Time),546952.3999999994,A,flower,I,r,105,1,1832.5,545119.8999999994,8090,WL,A,12.0
4,31.055999994277954,learn,28944.000005722046,Wed Jan 28 2026 10:28:44 GMT-0600 (Central Standard Time),547485.5999999996,A,flowerenter,I,enter,524,1,2365.7000000001863,545119.8999999994,8090,WL,A,12.0
4,32.50499987602234,learn,27495.00012397766,Wed Jan 28 2026 10:28:44 GMT-0600 (Central Standard Time),548935.2999999998,A,b,I,b,1431,1,1449.5,547485.7999999998,8090,WL,A,13.0
4,33.07200002670288,learn,26927.99997329712,Wed Jan 28 2026 10:28:44 GMT-0600 (Central Standard Time),549501.5999999996,A,bu,I,u,549,1,2015.7999999998137,547485.7999999998,8090,WL,A,13.0
4,33.47199988365173,learn,26528.000116348267,Wed Jan 28 2026 10:28:44 GMT-0600 (Central Standard Time),549901.7000000002,A,b,I,backspace,383,1,2415.9000000003725,547485.7999999998,8090,WL,A,13.0
4,33.687999963760376,learn,26312.000036239624,Wed Jan 28 2026 10:28:44 GMT-0600 (Central Standard Time),550118.0999999996,A,,I,backspace,198,1,2632.2999999998137,547485.7999999998,8090,WL,A,13.0
4,33.92199993133545,learn,26078.00006866455,Wed Jan 28 2026 10:28:44 GMT-0600 (Central Standard Time),550351.3999999994,A,,I,backspace,223,1,2865.5999999996275,547485.7999999998,8090,WL,A,13.0
4,35.65400004386902,learn,24345.99995613098,Wed Jan 28 2026 10:28:44 GMT-0600 (Central Standard Time),552084.0999999996,A,m,I,m,1725,1,4598.299999999814,547485.7999999998,8090,WL,A,13.0
4,35.80399990081787,learn,24196.00009918213,Wed Jan 28 2026 10:28:44 GMT-0600 (Central Standard Time),552234.2000000002,A,me,I,e,136,1,4748.4000000003725,547485.7999999998,8090,WL,A,13.0
4,36.07100009918213,learn,23928.99990081787,Wed Jan 28 2026 10:28:44 GMT-0600 (Central Standard Time),552500.7000000002,A,mea,I,a,258,1,5014.9000000003725,547485.7999999998,8090,WL,A,13.0
4,36.854000091552734,learn,23145.999908447266,Wed Jan 28 2026 10:28:44 GMT-0600 (Central Standard Time),553283.8999999994,A,mead,I,d,768,1,5798.0999999996275,547485.7999999998,8090,WL,A,13.0
4,37.36999988555908,learn,22630.000114440918,Wed Jan 28 2026 10:28:44 GMT-0600 (Central Standard Time),553800.2000000002,A,meado,I,o,504,1,6314.4000000003725,547485.7999999998,8090,WL,A,13.0
4,37.61999988555908,learn,22380.000114440918,Wed Jan 28 2026 10:28:44 GMT-0600 (Central Standard Time),554050.2000000002,A,meadow,I,w,236,1,6564.4000000003725,547485.7999999998,8090,WL,A,13.0
4,38.22000002861023,learn,21779.99997138977,Wed Jan 28 2026 10:28:44 GMT-0600 (Central Standard Time),554650.2000000002,A,meadowenter,I,enter,586,1,7164.4000000003725,547485.7999999998,8090,WL,A,13.0
4,40.668999910354614,learn,19331.000089645386,Wed Jan 28 2026 10:28:44 GMT-0600 (Central Standard Time),557099.2000000002,A,r,I,r,2442,1,2448.600000000559,554650.5999999996,8090,WL,A,14.0
4,40.88599991798401,learn,19114.00008201599,Wed Jan 28 2026 10:28:44 GMT-0600 (Central Standard Time),557316.0,A,ra,I,a,201,1,2665.4000000003725,554650.5999999996,8090,WL,A,14.0
4,41.13599991798401,learn,18864.00008201599,Wed Jan 28 2026 10:28:44 GMT-0600 (Central Standard Time),557565.8999999994,A,rat,I,t,240,1,2915.2999999998137,554650.5999999996,8090,WL,A,14.0
4,41.30299997329712,learn,18697.00002670288,Wed Jan 28 2026 10:28:44 GMT-0600 (Central Standard Time),557732.3999999994,A,ratt,I,t,150,1,3081.7999999998137,554650.5999999996,8090,WL,A,14.0
4,41.46900010108948,learn,18530.999898910522,Wed Jan 28 2026 10:28:44 GMT-0600 (Central Standard Time),557899.2000000002,A,rattl,I,l,160,1,3248.600000000559,554650.5999999996,8090,WL,A,14.0
4,41.63599991798401,learn,18364.00008201599,Wed Jan 28 2026 10:28:44 GMT-0600 (Central Standard Time),558065.5999999996,A,rattle,I,e,153,1,3415.0,554650.5999999996,8090,WL,A,14.0
4,42.20199990272522,learn,17798.00009727478,Wed Jan 28 2026 10:28:44 GMT-0600 (Central Standard Time),558632.2999999998,A,rattleenter,I,enter,547,1,3981.7000000001863,554650.5999999996,8090,WL,A,14.0
4,54.16499996185303,learn,5835.000038146973,Wed Jan 28 2026 10:28:44 GMT-0600 (Central Standard Time),570595.0,A,b,I,b,11956,1,11962.5,558632.5,8090,WL,A,15.0
4,54.69799995422363,learn,5302.000045776367,Wed Jan 28 2026 10:28:44 GMT-0600 (Central Standard Time),571128.2999999998,A,bo,I,o,521,1,12495.799999999814,558632.5,8090,WL,A,15.0
4,55.598000049591064,learn,4401.999950408936,Wed Jan 28 2026 10:28:44 GMT-0600 (Central Standard Time),572027.8999999994,A,b,I,backspace,892,1,13395.399999999441,558632.5,8090,WL,A,15.0
4,56.53099989891052,learn,3469.0001010894775,Wed Jan 28 2026 10:28:44 GMT-0600 (Central Standard Time),572961.0999999996,A,bo,I,o,921,1,14328.599999999627,558632.5,8090,WL,A,15.0
4,56.81399989128113,learn,3186.000108718872,Wed Jan 28 2026 10:28:44 GMT-0600 (Central Standard Time),573244.2999999998,A,bok,I,k,275,1,14611.799999999814,558632.5,8090,WL,A,15.0
4,57.36400008201599,learn,2635.999917984009,Wed Jan 28 2026 10:28:44 GMT-0600 (Central Standard Time),573794.0,A,bo,I,backspace,536,1,15161.5,558632.5,8090,WL,A,15.0
4,57.79699993133545,learn,2203.000068664551,Wed Jan 28 2026 10:28:44 GMT-0600 (Central Standard Time),574227.2999999998,A,boo,I,o,426,1,15594.799999999814,558632.5,8090,WL,A,15.0
4,57.98099994659424,learn,2019.0000534057617,Wed Jan 28 2026 10:28:44 GMT-0600 (Central Standard Time),574410.5999999996,A,book,I,k,169,1,15778.099999999627,558632.5,8090,WL,A,15.0
4,58.28099989891052,learn,1719.0001010894775,Wed Jan 28 2026 10:28:44 GMT-0600 (Central Standard Time),574710.2999999998,A,bookenter,I,enter,282,1,16077.799999999814,558632.5,8090,WL,A,15.0
5,1.492999792098999,learn,60000.0,Wed Jan 28 2026 10:28:44 GMT-0600 (Central Standard Time),649814.3999999994,A,l,I,l,1489,1,1493.5999999996275,648320.7999999998,8090,WL,A,1.0
5,1.6329998970031738,learn,60000.0,Wed Jan 28 2026 10:28:44 GMT-0600 (Central Standard Time),649953.7000000002,A,lo,I,o,115,1,1632.9000000003725,648320.7999999998,8090,WL,A,1.0
5,1.9659998416900635,learn,60000.0,Wed Jan 28 2026 10:28:44 GMT-0600 (Central Standard Time),650286.8999999994,A,log,I,g,319,1,1966.0999999996275,648320.7999999998,8090,WL,A,1.0
5,2.4159998893737793,learn,60000.0,Wed Jan 28 2026 10:28:44 GMT-0600 (Central Standard Time),650736.5999999996,A,logenter,I,enter,430,1,2415.7999999998137,648320.7999999998,8090,WL,A,1.0
5,3.1989998817443848,learn,60000.0,Wed Jan 28 2026 10:28:44 GMT-0600 (Central Standard Time),651519.7999999998,A,k,I,k,764,1,783.0,650736.7999999998,8090,WL,A,2.0
5,3.3989999294281006,learn,60000.0,Wed Jan 28 2026 10:28:44 GMT-0600 (Central Standard Time),651719.8999999994,A,ke,I,e,181,1,983.0999999996275,650736.7999999998,8090,WL,A,2.0
5,3.681999921798706,learn,60000.0,Wed Jan 28 2026 10:28:44 GMT-0600 (Central Standard Time),652002.8999999994,A,key,I,y,269,1,1266.0999999996275,650736.7999999998,8090,WL,A,2.0
5,3.9819998741149902,learn,60000.0,Wed Jan 28 2026 10:28:44 GMT-0600 (Central Standard Time),652303.0999999996,A,keyenter,I,enter,281,1,1566.2999999998137,650736.7999999998,8090,WL,A,2.0
5,4.781999826431274,learn,60000.0,Wed Jan 28 2026 10:28:44 GMT-0600 (Central Standard Time),653102.7999999998,A,r,I,r,789,1,799.4000000003725,652303.3999999994,8090,WL,A,3.0
5,5.047999858856201,learn,60000.0,Wed Jan 28 2026 10:28:44 GMT-0600 (Central Standard Time),653369.2999999998,A,ru,I,u,262,1,1065.9000000003725,652303.3999999994,8090,WL,A,3.0
5,5.3979997634887695,learn,60000.0,Wed Jan 28 2026 10:28:44 GMT-0600 (Central Standard Time),653719.0999999996,A,rug,I,g,339,1,1415.7000000001863,652303.3999999994,8090,WL,A,3.0
5,5.847999811172485,learn,60000.0,Wed Jan 28 2026 10:28:44 GMT-0600 (Central Standard Time),654169.0,A,rugenter,I,enter,437,1,1865.6000000005588,652303.3999999994,8090,WL,A,3.0
5,6.847999811172485,learn,60000.0,Wed Jan 28 2026 10:28:44 GMT-0600 (Central Standard Time),655168.5,A,b,I,b,979,1,999.4000000003725,654169.0999999996,8090,WL,A,4.0
5,7.097999811172485,learn,60000.0,Wed Jan 28 2026 10:28:44 GMT-0600 (Central Standard Time),655418.5,A,bu,I,u,236,1,1249.4000000003725,654169.0999999996,8090,WL,A,4.0
5,7.380999803543091,learn,60000.0,Wed Jan 28 2026 10:28:44 GMT-0600 (Central Standard Time),655701.8999999994,A,but,I,t,265,1,1532.7999999998137,654169.0999999996,8090,WL,A,4.0
5,7.563999891281128,learn,60000.0,Wed Jan 28 2026 10:28:44 GMT-0600 (Central Standard Time),655885.0,A,butt,I,t,166,1,1715.9000000003725,654169.0999999996,8090,WL,A,4.0
5,7.797999858856201,learn,60000.0,Wed Jan 28 2026 10:28:44 GMT-0600 (Central Standard Time),656118.7000000002,A,butto,I,o,223,1,1949.6000000005588,654169.0999999996,8090,WL,A,4.0
5,8.080999851226807,learn,60000.0,Wed Jan 28 2026 10:28:44 GMT-0600 (Central Standard Time),656402.2999999998,A,button,I,n,270,1,2233.2000000001863,654169.0999999996,8090,WL,A,4.0
5,8.513999938964844,learn,60000.0,Wed Jan 28 2026 10:28:44 GMT-0600 (Central Standard Time),656835.0999999996,A,buttonenter,I,enter,426,1,2666.0,654169.0999999996,8090,WL,A,4.0
5,9.29699993133545,learn,60000.0,Wed Jan 28 2026 10:28:44 GMT-0600 (Central Standard Time),657617.8999999994,A,r,I,r,769,1,782.3999999994412,656835.5,8090,WL,A,5.0
5,9.496999979019165,learn,60000.0,Wed Jan 28 2026 10:28:44 GMT-0600 (Central Standard Time),657817.8999999994,A,ra,I,a,179,1,982.3999999994412,656835.5,8090,WL,A,5.0
5,9.846999883651733,learn,60000.0,Wed Jan 28 2026 10:28:44 GMT-0600 (Central Standard Time),658167.7000000002,A,rat,I,t,338,1,1332.2000000001863,656835.5,8090,WL,A,5.0
5,10.04699993133545,learn,60000.0,Wed Jan 28 2026 10:28:44 GMT-0600 (Central Standard Time),658367.7000000002,A,ratt,I,t,188,1,1532.2000000001863,656835.5,8090,WL,A,5.0
5,10.212999820709229,learn,60000.0,Wed Jan 28 2026 10:28:44 GMT-0600 (Central Standard Time),658534.2999999998,A,rattl,I,l,157,1,1698.7999999998137,656835.5,8090,WL,A,5.0
5,10.379999876022339,learn,60000.0,Wed Jan 28 2026 10:28:44 GMT-0600 (Central Standard Time),658700.8999999994,A,rattle,I,e,157,1,1865.3999999994412,656835.5,8090,WL,A,5.0
5,10.77999997138977,learn,60000.0,Wed Jan 28 2026 10:28:44 GMT-0600 (Central Standard Time),659100.7999999998,A,rattleenter,I,enter,383,1,2265.2999999998137,656835.5,8090,WL,A,5.0
5,11.145999908447266,learn,60000.0,Wed Jan 28 2026 10:28:44 GMT-0600 (Central Standard Time),659467.2999999998,A,a,I,a,360,1,366.29999999981374,659101.0,8090,WL,A,6.0
5,11.395999908447266,learn,60000.0,Wed Jan 28 2026 10:28:44 GMT-0600 (Central Standard Time),659717.2000000002,A,ap,I,p,241,1,616.2000000001863,659101.0,8090,WL,A,6.0
5,11.645999908447266,learn,60000.0,Wed Jan 28 2026 10:28:44 GMT-0600 (Central Standard Time),659967.2000000002,A,app,I,p,239,1,866.2000000001863,659101.0,8090,WL,A,6.0
5,11.912999868392944,learn,60000.0,Wed Jan 28 2026 10:28:44 GMT-0600 (Central Standard Time),660233.8999999994,A,appl,I,l,261,1,1132.8999999994412,659101.0,8090,WL,A,6.0
5,12.162999868392944,learn,60000.0,Wed Jan 28 2026 10:28:44 GMT-0600 (Central Standard Time),660483.5999999996,A,apple,I,e,242,1,1382.5999999996275,659101.0,8090,WL,A,6.0
5,12.645999908447266,learn,60000.0,Wed Jan 28 2026 10:28:44 GMT-0600 (Central Standard Time),660967.0,A,appleenter,I,enter,465,1,1866.0,659101.0,8090,WL,A,6.0
5,13.578999996185303,learn,60000.0,Wed Jan 28 2026 10:28:44 GMT-0600 (Central Standard Time),661899.7999999998,A,s,I,s,925,1,932.5,660967.2999999998,8090,WL,A,7.0
5,13.811999797821045,learn,60000.0,Wed Jan 28 2026 10:28:44 GMT-0600 (Central Standard Time),662133.0999999996,A,sa,I,a,224,1,1165.7999999998137,660967.2999999998,8090,WL,A,7.0
5,14.34499979019165,learn,60000.0,Wed Jan 28 2026 10:28:44 GMT-0600 (Central Standard Time),662666.3999999994,A,sal,I,l,527,1,1699.0999999996275,660967.2999999998,8090,WL,A,7.0
5,14.661999940872192,learn,60000.0,Wed Jan 28 2026 10:28:44 GMT-0600 (Central Standard Time),662982.8999999994,A,salt,I,t,306,1,2015.5999999996275,660967.2999999998,8090,WL,A,7.0
5,15.128999948501587,learn,60000.0,Wed Jan 28 2026 10:28:44 GMT-0600 (Central Standard Time),663449.7000000002,A,saltenter,I,enter,446,1,2482.4000000003725,660967.2999999998,8090,WL,A,7.0
5,15.92799997329712,learn,60000.0,Wed Jan 28 2026 10:28:44 GMT-0600 (Central Standard Time),664249.0999999996,A,g,I,g,786,1,799.0999999996275,663450.0,8090,WL,A,8.0
5,16.09499979019165,learn,60000.0,Wed Jan 28 2026 10:28:44 GMT-0600 (Central Standard Time),664415.7000000002,A,go,I,o,156,1,965.7000000001863,663450.0,8090,WL,A,8.0
5,16.34499979019165,learn,60000.0,Wed Jan 28 2026 10:28:44 GMT-0600 (Central Standard Time),664665.7000000002,A,gol,I,l,245,1,1215.7000000001863,663450.0,8090,WL,A,8.0
5,16.560999870300293,learn,60000.0,Wed Jan 28 2026 10:28:44 GMT-0600 (Central Standard Time),664882.2000000002,A,gold,I,d,211,1,1432.2000000001863,663450.0,8090,WL,A,8.0
5,16.794999837875366,learn,60000.0,Wed Jan 28 2026 10:28:44 GMT-0600 (Central Standard Time),665115.5999999996,A,goldenter,I,enter,218,1,1665.5999999996275,663450.0,8090,WL,A,8.0
5,17.542999982833862,learn,60000.0,Wed Jan 28 2026 10:28:44 GMT-0600 (Central Standard Time),665865.2000000002,A,t,I,t,745,1,749.3000000007451,665115.8999999994,8090,WL,A,9.0
5,17.709999799728394,learn,60000.0,Wed Jan 28 2026 10:28:44 GMT-0600 (Central Standard Time),666032.0999999996,A,tr,I,r,147,1,916.2000000001863,665115.8999999994,8090,WL,A,9.0
5,18.592999935150146,learn,60000.0,Wed Jan 28 2026 10:28:44 GMT-0600 (Central Standard Time),666914.7999999998,A,tra,I,a,869,1,1798.9000000003725,665115.8999999994,8090,WL,A,9.0
5,18.72599983215332,learn,60000.0,Wed Jan 28 2026 10:28:44 GMT-0600 (Central Standard Time),667048.0999999996,A,trai,I,i,122,1,1932.2000000001863,665115.8999999994,8090,WL,A,9.0
5,19.008999824523926,learn,60000.0,Wed Jan 28 2026 10:28:44 GMT-0600 (Central Standard Time),667331.3999999994,A,train,I,n,268,1,2215.5,665115.8999999994,8090,WL,A,9.0
5,19.39299988746643,learn,60000.0,Wed Jan 28 2026 10:28:44 GMT-0600 (Central Standard Time),667714.5999999996,A,trainenter,I,enter,377,1,2598.7000000001863,665115.8999999994,8090,WL,A,9.0
5,20.358999967575073,learn,60000.0,Wed Jan 28 2026 10:28:44 GMT-0600 (Central Standard Time),668681.0999999996,A,m,I,m,946,1,966.2999999998137,667714.7999999998,8090,WL,A,10.0
5,20.491999864578247,learn,60000.0,Wed Jan 28 2026 10:28:44 GMT-0600 (Central Standard Time),668814.3999999994,A,me,I,e,123,1,1099.5999999996275,667714.7999999998,8090,WL,A,10.0
5,20.72599983215332,learn,60000.0,Wed Jan 28 2026 10:28:44 GMT-0600 (Central Standard Time),669047.7000000002,A,mea,I,a,222,1,1332.9000000003725,667714.7999999998,8090,WL,A,10.0
5,20.89199995994568,learn,60000.0,Wed Jan 28 2026 10:28:44 GMT-0600 (Central Standard Time),669214.2999999998,A,mead,I,d,150,1,1499.5,667714.7999999998,8090,WL,A,10.0
5,21.241999864578247,learn,60000.0,Wed Jan 28 2026 10:28:44 GMT-0600 (Central Standard Time),669564.2999999998,A,meado,I,o,334,1,1849.5,667714.7999999998,8090,WL,A,10.0
5,21.524999856948853,learn,60000.0,Wed Jan 28 2026 10:28:44 GMT-0600 (Central Standard Time),669847.3999999994,A,meadow,I,w,264,1,2132.5999999996275,667714.7999999998,8090,WL,A,10.0
5,21.79199981689453,learn,60000.0,Wed Jan 28 2026 10:28:44 GMT-0600 (Central Standard Time),670114.0999999996,A,meadowenter,I,enter,261,1,2399.2999999998137,667714.7999999998,8090,WL,A,10.0
5,25.08299994468689,learn,60000.0,Wed Jan 28 2026 10:28:44 GMT-0600 (Central Standard Time),673404.7999999998,A,f,I,f,3286,1,3290.5,670114.2999999998,8090,WL,A,11.0
5,25.240999937057495,learn,60000.0,Wed Jan 28 2026 10:28:44 GMT-0600 (Central Standard Time),673563.2000000002,A,fl,I,l,149,1,3448.9000000003725,670114.2999999998,8090,WL,A,11.0
5,25.45699977874756,learn,60000.0,Wed Jan 28 2026 10:28:44 GMT-0600 (Central Standard Time),673779.5,A,flo,I,o,209,1,3665.2000000001863,670114.2999999998,8090,WL,A,11.0
5,25.640999794006348,learn,60000.0,Wed Jan 28 2026 10:28:44 GMT-0600 (Central Standard Time),673962.7000000002,A,flow,I,w,169,1,3848.4000000003725,670114.2999999998,8090,WL,A,11.0
5,25.85699987411499,learn,60000.0,Wed Jan 28 2026 10:28:44 GMT-0600 (Central Standard Time),674179.2999999998,A,flowe,I,e,209,1,4065.0,670114.2999999998,8090,WL,A,11.0
5,25.973999977111816,learn,60000.0,Wed Jan 28 2026 10:28:44 GMT-0600 (Central Standard Time),674295.8999999994,A,flower,I,r,105,1,4181.5999999996275,670114.2999999998,8090,WL,A,11.0
5,26.256999969482422,learn,60000.0,Wed Jan 28 2026 10:28:44 GMT-0600 (Central Standard Time),674579.2999999998,A,flowers,I,s,269,1,4465.0,670114.2999999998,8090,WL,A,11.0
5,26.923999786376953,learn,60000.0,Wed Jan 28 2026 10:28:44 GMT-0600 (Central Standard Time),675245.7000000002,A,flowersenter,I,enter,649,1,5131.4000000003725,670114.2999999998,8090,WL,A,11.0
5,28.77299976348877,learn,60000.0,Wed Jan 28 2026 10:28:44 GMT-0600 (Central Standard Time),677095.2000000002,A,c,I,c,1831,1,1849.2000000001863,675246.0,8090,WL,A,12.0
5,28.972999811172485,learn,60000.0,Wed Jan 28 2026 10:28:44 GMT-0600 (Central Standard Time),677295.0999999996,A,ch,I,h,189,1,2049.0999999996275,675246.0,8090,WL,A,12.0
5,29.205999851226807,learn,60000.0,Wed Jan 28 2026 10:28:44 GMT-0600 (Central Standard Time),677528.5,A,chi,I,i,214,1,2282.5,675246.0,8090,WL,A,12.0
5,30.038999795913696,learn,60000.0,Wed Jan 28 2026 10:28:44 GMT-0600 (Central Standard Time),678361.3999999994,A,chim,I,m,828,1,3115.399999999441,675246.0,8090,WL,A,12.0
5,30.288999795913696,learn,60000.0,Wed Jan 28 2026 10:28:44 GMT-0600 (Central Standard Time),678611.2999999998,A,chimn,I,n,235,1,3365.2999999998137,675246.0,8090,WL,A,12.0
5,30.58899998664856,learn,60000.0,Wed Jan 28 2026 10:28:44 GMT-0600 (Central Standard Time),678911.0999999996,A,chimne,I,e,289,1,3665.0999999996275,675246.0,8090,WL,A,12.0
5,30.8219997882843,learn,60000.0,Wed Jan 28 2026 10:28:44 GMT-0600 (Central Standard Time),679144.5,A,chimney,I,y,213,1,3898.5,675246.0,8090,WL,A,12.0
5,31.40499997138977,learn,60000.0,Wed Jan 28 2026 10:28:44 GMT-0600 (Central Standard Time),679727.5999999996,A,chimneyenter,I,enter,572,1,4481.5999999996275,675246.0,8090,WL,A,12.0
5,33.537999868392944,learn,60000.0,Wed Jan 28 2026 10:28:44 GMT-0600 (Central Standard Time),681860.2999999998,A,g,I,g,2117,1,2132.5,679727.7999999998,8090,WL,A,13.0
5,33.72099995613098,learn,60000.0,Wed Jan 28 2026 10:28:44 GMT-0600 (Central Standard Time),682043.5999999996,A,go,I,o,176,1,2315.7999999998137,679727.7999999998,8090,WL,A,13.0
5,34.00499987602234,learn,60000.0,Wed Jan 28 2026 10:28:44 GMT-0600 (Central Standard Time),682326.8999999994,A,gol,I,l,273,1,2599.0999999996275,679727.7999999998,8090,WL,A,13.0
5,34.187999963760376,learn,60000.0,Wed Jan 28 2026 10:28:44 GMT-0600 (Central Standard Time),682510.0999999996,A,gold,I,d,174,1,2782.2999999998137,679727.7999999998,8090,WL,A,13.0
5,34.38799977302551,learn,60000.0,Wed Jan 28 2026 10:28:44 GMT-0600 (Central Standard Time),682710.0999999996,A,goldenter,I,enter,190,1,2982.2999999998137,679727.7999999998,8090,WL,A,13.0
5,37.28699994087219,learn,60000.0,Wed Jan 28 2026 10:28:44 GMT-0600 (Central Standard Time),685609.2000000002,A,b,I,b,2886,1,2898.9000000003725,682710.2999999998,8090,WL,A,14.0
5,37.53699994087219,learn,60000.0,Wed Jan 28 2026 10:28:44 GMT-0600 (Central Standard Time),685859.0,A,bo,I,o,243,1,3148.7000000001863,682710.2999999998,8090,WL,A,14.0
5,37.75399994850159,learn,60000.0,Wed Jan 28 2026 10:28:44 GMT-0600 (Central Standard Time),686075.5999999996,A,boo,I,o,210,1,3365.2999999998137,682710.2999999998,8090,WL,A,14.0
5,37.96999979019165,learn,60000.0,Wed Jan 28 2026 10:28:44 GMT-0600 (Central Standard Time),686292.2999999998,A,book,I,k,201,1,3582.0,682710.2999999998,8090,WL,A,14.0
5,38.45299983024597,learn,60000.0,Wed Jan 28 2026 10:28:44 GMT-0600 (Central Standard Time),686775.2999999998,A,bookenter,I,enter,472,1,4065.0,682710.2999999998,8090,WL,A,14.0
5,41.168999910354614,learn,60000.0,Wed Jan 28 2026 10:28:44 GMT-0600 (Central Standard Time),689491.0999999996,A,r,I,r,2709,1,2715.5999999996275,686775.5,8090,WL,A,15.0
5,41.53599977493286,learn,60000.0,Wed Jan 28 2026 10:28:44 GMT-0600 (Central Standard Time),689857.7999999998,A,ra,I,a,345,1,3082.2999999998137,686775.5,8090,WL,A,15.0
5,41.78599977493286,learn,60000.0,Wed Jan 28 2026 10:28:44 GMT-0600 (Central Standard Time),690107.7000000002,A,rat,I,t,235,1,3332.2000000001863,686775.5,8090,WL,A,15.0
5,41.95199990272522,learn,60000.0,Wed Jan 28 2026 10:28:44 GMT-0600 (Central Standard Time),690274.3999999994,A,ratt,I,t,162,1,3498.899999999441,686775.5,8090,WL,A,15.0
5,42.984999895095825,learn,60000.0,Wed Jan 28 2026 10:28:44 GMT-0600 (Central Standard Time),691307.5,A,rattl,I,l,1018,1,4532.0,686775.5,8090,WL,A,15.0
5,43.168999910354614,learn,60000.0,Wed Jan 28 2026 10:28:44 GMT-0600 (Central Standard Time),691490.5999999996,A,rattle,I,e,170,1,4715.0999999996275,686775.5,8090,WL,A,15.0
5,44.26799988746643,learn,60000.0,Wed Jan 28 2026 10:28:44 GMT-0600 (Central Standard Time),692590.2999999998,A,rattleenter,I,enter,1082,1,5814.799999999814,686775.5,8090,WL,A,15.0
6,0.5339999198913574,distr,59466.00008010864,Wed Jan 28 2026 10:28:44 GMT-0600 (Central Standard Time),776180.7000000002,B,p,I,p,525,1,533.0,775647.7000000002,8090,WL,A,1.0
6,1.3829998970031738,distr,58617.000102996826,Wed Jan 28 2026 10:28:44 GMT-0600 (Central Standard Time),777030.3999999994,B,pe,I,e,839,1,1382.699999999255,775647.7000000002,8090,WL,A,1.0
6,1.5829999446868896,distr,58417.00005531311,Wed Jan 28 2026 10:28:44 GMT-0600 (Central Standard Time),777230.7000000002,B,pea,I,a,182,1,1583.0,775647.7000000002,8090,WL,A,1.0
6,1.933000087738037,distr,58066.99991226196,Wed Jan 28 2026 10:28:44 GMT-0600 (Central Standard Time),777580.2999999998,B,peac,I,c,342,1,1932.5999999996275,775647.7000000002,8090,WL,A,1.0
6,2.200000047683716,distr,57799.999952316284,Wed Jan 28 2026 10:28:44 GMT-0600 (Central Standard Time),777847.0999999996,B,peach,I,h,248,1,2199.399999999441,775647.7000000002,8090,WL,A,1.0
6,2.7330000400543213,distr,57266.99995994568,Wed Jan 28 2026 10:28:44 GMT-0600 (Central Standard Time),778380.0999999996,B,peachenter,I,enter,525,1,2732.399999999441,775647.7000000002,8090,WL,A,1.0
6,3.5829999446868896,distr,56417.00005531311,Wed Jan 28 2026 10:28:44 GMT-0600 (Central Standard Time),779229.7999999998,B,j,I,j,840,1,849.4000000003725,778380.3999999994,8090,WL,A,2.0
6,3.8489999771118164,distr,56151.00002288818,Wed Jan 28 2026 10:28:44 GMT-0600 (Central Standard Time),779496.3999999994,B,ju,I,u,246,1,1116.0,778380.3999999994,8090,WL,A,2.0
6,3.999000072479248,distr,56000.99992752075,Wed Jan 28 2026 10:28:44 GMT-0600 (Central Standard Time),779646.5,B,jud,I,d,132,1,1266.1000000005588,778380.3999999994,8090,WL,A,2.0
6,4.183000087738037,distr,55816.99991226196,Wed Jan 28 2026 10:28:44 GMT-0600 (Central Standard Time),779829.7000000002,B,judg,I,g,174,1,1449.300000000745,778380.3999999994,8090,WL,A,2.0
6,4.365999937057495,distr,55634.000062942505,Wed Jan 28 2026 10:28:44 GMT-0600 (Central Standard Time),780013.0,B,judge,I,e,175,1,1632.6000000005588,778380.3999999994,8090,WL,A,2.0
6,4.681999921798706,distr,55318.000078201294,Wed Jan 28 2026 10:28:44 GMT-0600 (Central Standard Time),780329.5999999996,B,judgeenter,I,enter,311,1,1949.2000000001863,778380.3999999994,8090,WL,A,2.0
6,5.365000009536743,distr,54634.99999046326,Wed Jan 28 2026 10:28:44 GMT-0600 (Central Standard Time),781012.7000000002,B,g,I,g,667,1,682.9000000003725,780329.7999999998,8090,WL,A,3.0
6,5.664999961853027,distr,54335.00003814697,Wed Jan 28 2026 10:28:44 GMT-0600 (Central Standard Time),781312.5,B,gr,I,r,279,1,982.7000000001863,780329.7999999998,8090,WL,A,3.0
6,5.848999977111816,distr,54151.00002288818,Wed Jan 28 2026 10:28:44 GMT-0600 (Central Standard Time),781495.7999999998,B,gra,I,a,163,1,1166.0,780329.7999999998,8090,WL,A,3.0
6,6.065000057220459,distr,53934.99994277954,Wed Jan 28 2026 10:28:44 GMT-0600 (Central Standard Time),781712.5,B,gran,I,n,197,1,1382.7000000001863,780329.7999999998,8090,WL,A,3.0
6,6.2149999141693115,distr,53785.00008583069,Wed Jan 28 2026 10:28:44 GMT-0600 (Central Standard Time),781862.2999999998,B,grant,I,t,140,1,1532.5,780329.7999999998,8090,WL,A,3.0
6,7.13100004196167,distr,52868.99995803833,Wed Jan 28 2026 10:28:44 GMT-0600 (Central Standard Time),782778.5999999996,B,grantenter,I,enter,902,1,2448.7999999998137,780329.7999999998,8090,WL,A,3.0
6,7.865000009536743,distr,52134.99999046326,Wed Jan 28 2026 10:28:44 GMT-0600 (Central Standard Time),783511.7000000002,B,i,I,i,714,1,732.8000000007451,782778.8999999994,8090,WL,A,4.0
6,8.265000104904175,distr,51734.999895095825,Wed Jan 28 2026 10:28:44 GMT-0600 (Central Standard Time),783911.7000000002,B,in,I,n,381,1,1132.800000000745,782778.8999999994,8090,WL,A,4.0
6,8.46399998664856,distr,51536.00001335144,Wed Jan 28 2026 10:28:44 GMT-0600 (Central Standard Time),784111.7000000002,B,ins,I,s,181,1,1332.800000000745,782778.8999999994,8090,WL,A,4.0
6,8.648000001907349,distr,51351.99999809265,Wed Jan 28 2026 10:28:44 GMT-0600 (Central Standard Time),784294.8999999994,B,inse,I,e,173,1,1516.0,782778.8999999994,8090,WL,A,4.0
6,9.013999938964844,distr,50986.000061035156,Wed Jan 28 2026 10:28:44 GMT-0600 (Central Standard Time),784661.5999999996,B,insec,I,c,350,1,1882.7000000001863,782778.8999999994,8090,WL,A,4.0
6,9.430999994277954,distr,50569.000005722046,Wed Jan 28 2026 10:28:44 GMT-0600 (Central Standard Time),785078.0999999996,B,insect,I,t,407,1,2299.2000000001863,782778.8999999994,8090,WL,A,4.0
6,10.04699993133545,distr,49953.00006866455,Wed Jan 28 2026 10:28:44 GMT-0600 (Central Standard Time),785694.5999999996,B,insectenter,I,enter,598,1,2915.7000000001863,782778.8999999994,8090,WL,A,4.0
6,15.559000015258789,distr,44440.99998474121,Wed Jan 28 2026 10:28:44 GMT-0600 (Central Standard Time),791207.0999999996,B,b,I,b,5508,1,5512.299999999814,785694.7999999998,8090,WL,A,5.0
6,15.760999917984009,distr,44239.00008201599,Wed Jan 28 2026 10:28:44 GMT-0600 (Central Standard Time),791409.5,B,bo,I,o,190,1,5714.700000000186,785694.7999999998,8090,WL,A,5.0
6,16.26099991798401,distr,43739.00008201599,Wed Jan 28 2026 10:28:44 GMT-0600 (Central Standard Time),791909.2999999998,B,bow,I,w,480,1,6214.5,785694.7999999998,8090,WL,A,5.0
6,16.378000020980835,distr,43621.999979019165,Wed Jan 28 2026 10:28:44 GMT-0600 (Central Standard Time),792025.8999999994,B,bowl,I,l,111,1,6331.0999999996275,785694.7999999998,8090,WL,A,5.0
6,16.960999965667725,distr,43039.000034332275,Wed Jan 28 2026 10:28:44 GMT-0600 (Central Standard Time),792609.2000000002,B,bowlenter,I,enter,563,1,6914.4000000003725,785694.7999999998,8090,WL,A,5.0
6,17.32800006866455,distr,42671.99993133545,Wed Jan 28 2026 10:28:44 GMT-0600 (Central Standard Time),792975.5,B,c,I,c,355,1,366.1000000005588,792609.3999999994,8090,WL,A,6.0
6,17.49399995803833,distr,42506.00004196167,Wed Jan 28 2026 10:28:44 GMT-0600 (Central Standard Time),793142.2999999998,B,co,I,o,157,1,532.9000000003725,792609.3999999994,8090,WL,A,6.0
6,17.66100001335144,distr,42338.99998664856,Wed Jan 28 2026 10:28:44 GMT-0600 (Central Standard Time),793308.8999999994,B,cou,I,u,150,1,699.5,792609.3999999994,8090,WL,A,6.0
6,17.91100001335144,distr,42088.99998664856,Wed Jan 28 2026 10:28:44 GMT-0600 (Central Standard Time),793558.5999999996,B,coun,I,n,240,1,949.2000000001863,792609.3999999994,8090,WL,A,6.0
6,18.094000101089478,distr,41905.99989891052,Wed Jan 28 2026 10:28:44 GMT-0600 (Central Standard Time),793742.0999999996,B,count,I,t,174,1,1132.7000000001863,792609.3999999994,8090,WL,A,6.0
6,18.694000005722046,distr,41305.999994277954,Wed Jan 28 2026 10:28:44 GMT-0600 (Central Standard Time),794342.0,B,countr,I,r,582,1,1732.6000000005588,792609.3999999994,8090,WL,A,6.0
6,19.359999895095825,distr,40640.000104904175,Wed Jan 28 2026 10:28:44 GMT-0600 (Central Standard Time),795008.2000000002,B,count,I,backspace,655,1,2398.800000000745,792609.3999999994,8090,WL,A,6.0
6,19.543999910354614,distr,40456.000089645386,Wed Jan 28 2026 10:28:44 GMT-0600 (Central Standard Time),795191.5999999996,B,county,I,y,164,1,2582.2000000001863,792609.3999999994,8090,WL,A,6.0
6,20.009999990463257,distr,39990.00000953674,Wed Jan 28 2026 10:28:44 GMT-0600 (Central Standard Time),795657.8999999994,B,countyenter,I,enter,461,1,3048.5,792609.3999999994,8090,WL,A,6.0
6,25.72499990463257,distr,34275.00009536743,Wed Jan 28 2026 10:28:44 GMT-0600 (Central Standard Time),801372.8999999994,B,p,I,p,5699,1,5714.699999999255,795658.2000000002,8090,WL,A,7.0
6,25.89199995994568,distr,34108.00004005432,Wed Jan 28 2026 10:28:44 GMT-0600 (Central Standard Time),801539.5999999996,B,pe,I,e,159,1,5881.399999999441,795658.2000000002,8090,WL,A,7.0
6,26.04200005531311,distr,33957.99994468689,Wed Jan 28 2026 10:28:44 GMT-0600 (Central Standard Time),801689.5999999996,B,pea,I,a,144,1,6031.399999999441,795658.2000000002,8090,WL,A,7.0
6,26.308000087738037,distr,33691.99991226196,Wed Jan 28 2026 10:28:44 GMT-0600 (Central Standard Time),801956.0999999996,B,peac,I,c,250,1,6297.899999999441,795658.2000000002,8090,WL,A,7.0
6,26.424999952316284,distr,33575.000047683716,Wed Jan 28 2026 10:28:44 GMT-0600 (Central Standard Time),802072.5999999996,B,peach,I,h,104,1,6414.399999999441,795658.2000000002,8090,WL,A,7.0
6,26.77500009536743,distr,33224.99990463257,Wed Jan 28 2026 10:28:44 GMT-0600 (Central Standard Time),802422.7000000002,B,peachenter,I,enter,340,1,6764.5,795658.2000000002,8090,WL,A,7.0
6,60.013999938964844,distr,-13.99993896484375,Wed Jan 28 2026 10:28:44 GMT-0600 (Central Standard Time),835662.3999999994,B,None,I,None,33235,1,33239.5,802422.8999999994,8090,WL,A,8.0
7,3.2869999408721924,immed,56713.00005912781,Wed Jan 28 2026 10:28:44 GMT-0600 (Central Standard Time),841860.2999999998,A,a,I,a,3271,1,3286.5999999996275,838573.7000000002,8090,WL,A,1.0
7,3.503999948501587,immed,56496.00005149841,Wed Jan 28 2026 10:28:44 GMT-0600 (Central Standard Time),842077.0,A,ap,I,p,207,1,3503.2999999998137,838573.7000000002,8090,WL,A,1.0
7,3.687000036239624,immed,56312.999963760376,Wed Jan 28 2026 10:28:44 GMT-0600 (Central Standard Time),842260.2000000002,A,app,I,p,175,1,3686.5,838573.7000000002,8090,WL,A,1.0
7,4.13700008392334,immed,55862.99991607666,Wed Jan 28 2026 10:28:44 GMT-0600 (Central Standard Time),842709.8999999994,A,appl,I,l,432,1,4136.199999999255,838573.7000000002,8090,WL,A,1.0
7,4.286999940872192,immed,55713.00005912781,Wed Jan 28 2026 10:28:44 GMT-0600 (Central Standard Time),842860.0,A,apple,I,e,142,1,4286.299999999814,838573.7000000002,8090,WL,A,1.0
7,4.604000091552734,immed,55395.999908447266,Wed Jan 28 2026 10:28:44 GMT-0600 (Central Standard Time),843176.5,A,appleenter,I,enter,304,1,4602.799999999814,838573.7000000002,8090,WL,A,1.0
7,5.069999933242798,immed,54930.0000667572,Wed Jan 28 2026 10:28:44 GMT-0600 (Central Standard Time),843643.0,A,c,I,c,460,1,466.29999999981374,843176.7000000002,8090,WL,A,2.0
7,5.302999973297119,immed,54697.00002670288,Wed Jan 28 2026 10:28:44 GMT-0600 (Central Standard Time),843876.3999999994,A,ch,I,h,217,1,699.6999999992549,843176.7000000002,8090,WL,A,2.0
7,5.453000068664551,immed,54546.99993133545,Wed Jan 28 2026 10:28:44 GMT-0600 (Central Standard Time),844026.3999999994,A,chi,I,i,136,1,849.6999999992549,843176.7000000002,8090,WL,A,2.0
7,5.703000068664551,immed,54296.99993133545,Wed Jan 28 2026 10:28:44 GMT-0600 (Central Standard Time),844276.2000000002,A,chin,I,n,233,1,1099.5,843176.7000000002,8090,WL,A,2.0
7,5.986000061035156,immed,54013.999938964844,Wed Jan 28 2026 10:28:44 GMT-0600 (Central Standard Time),844559.3999999994,A,chinm,I,m,272,1,1382.699999999255,843176.7000000002,8090,WL,A,2.0
7,6.186000108718872,immed,53813.99989128113,Wed Jan 28 2026 10:28:44 GMT-0600 (Central Standard Time),844759.2999999998,A,chinme,I,e,180,1,1582.5999999996275,843176.7000000002,8090,WL,A,2.0
7,6.370000123977661,immed,53629.99987602234,Wed Jan 28 2026 10:28:44 GMT-0600 (Central Standard Time),844942.7999999998,A,chinmey,I,y,165,1,1766.0999999996275,843176.7000000002,8090,WL,A,2.0
7,6.802000045776367,immed,53197.99995422363,Wed Jan 28 2026 10:28:44 GMT-0600 (Central Standard Time),845375.7999999998,A,chinmeyenter,I,enter,422,1,2199.0999999996275,843176.7000000002,8090,WL,A,2.0
7,8.585000038146973,immed,51414.99996185303,Wed Jan 28 2026 10:28:44 GMT-0600 (Central Standard Time),847158.5,A,b,I,b,1773,1,1782.4000000003725,845376.0999999996,8090,WL,A,3.0
7,8.934999942779541,immed,51065.00005722046,Wed Jan 28 2026 10:28:44 GMT-0600 (Central Standard Time),847508.5,A,bo,I,o,341,1,2132.4000000003725,845376.0999999996,8090,WL,A,3.0
7,9.101999998092651,immed,50898.00000190735,Wed Jan 28 2026 10:28:44 GMT-0600 (Central Standard Time),847675.0999999996,A,boo,I,o,160,1,2299.0,845376.0999999996,8090,WL,A,3.0
7,9.368000030517578,immed,50631.99996948242,Wed Jan 28 2026 10:28:44 GMT-0600 (Central Standard Time),847941.7999999998,A,book,I,k,249,1,2565.7000000001863,845376.0999999996,8090,WL,A,3.0
7,9.651000022888184,immed,50348.99997711182,Wed Jan 28 2026 10:28:44 GMT-0600 (Central Standard Time),848225.0,A,bookenter,I,enter,271,1,2848.9000000003725,845376.0999999996,8090,WL,A,3.0
7,11.284000158309937,immed,48715.99984169006,Wed Jan 28 2026 10:28:44 GMT-0600 (Central Standard Time),849857.7999999998,A,k,I,k,1628,1,1632.5999999996275,848225.2000000002,8090,WL,A,4.0
7,11.483999967575073,immed,48516.00003242493,Wed Jan 28 2026 10:28:44 GMT-0600 (Central Standard Time),850057.7000000002,A,ke,I,e,186,1,1832.5,848225.2000000002,8090,WL,A,4.0
7,11.784000158309937,immed,48215.99984169006,Wed Jan 28 2026 10:28:44 GMT-0600 (Central Standard Time),850357.7999999998,A,key,I,y,282,1,2132.5999999996275,848225.2000000002,8090,WL,A,4.0
7,12.001000165939331,immed,47998.99983406067,Wed Jan 28 2026 10:28:44 GMT-0600 (Central Standard Time),850574.3999999994,A,keyenter,I,enter,207,1,2349.199999999255,848225.2000000002,8090,WL,A,4.0
7,12.867000102996826,immed,47132.999897003174,Wed Jan 28 2026 10:28:44 GMT-0600 (Central Standard Time),851440.5,A,g,I,g,846,1,865.9000000003725,850574.5999999996,8090,WL,A,5.0
7,12.983999967575073,immed,47016.00003242493,Wed Jan 28 2026 10:28:44 GMT-0600 (Central Standard Time),851557.2999999998,A,go,I,o,100,1,982.7000000001863,850574.5999999996,8090,WL,A,5.0
7,13.200000047683716,immed,46799.999952316284,Wed Jan 28 2026 10:28:44 GMT-0600 (Central Standard Time),851774.0,A,gol,I,l,199,1,1199.4000000003725,850574.5999999996,8090,WL,A,5.0
7,13.384000062942505,immed,46615.999937057495,Wed Jan 28 2026 10:28:44 GMT-0600 (Central Standard Time),851957.0999999996,A,gold,I,d,174,1,1382.5,850574.5999999996,8090,WL,A,5.0
7,13.75,immed,46250.0,Wed Jan 28 2026 10:28:44 GMT-0600 (Central Standard Time),852323.5999999996,A,goldenter,I,enter,359,1,1749.0,850574.5999999996,8090,WL,A,5.0
7,14.0,immed,46000.0,Wed Jan 28 2026 10:28:44 GMT-0600 (Central Standard Time),852573.5,A,s,I,s,241,1,249.6000000005588,852323.8999999994,8090,WL,A,6.0
7,14.183000087738037,immed,45816.99991226196,Wed Jan 28 2026 10:28:44 GMT-0600 (Central Standard Time),852756.8999999994,A,sa,I,a,167,1,433.0,852323.8999999994,8090,WL,A,6.0
7,14.383000135421753,immed,45616.99986457825,Wed Jan 28 2026 10:28:44 GMT-0600 (Central Standard Time),852956.7999999998,A,sal,I,l,184,1,632.9000000003725,852323.8999999994,8090,WL,A,6.0
7,14.58299994468689,immed,45417.00005531311,Wed Jan 28 2026 10:28:44 GMT-0600 (Central Standard Time),853156.7000000002,A,salt,I,t,184,1,832.8000000007451,852323.8999999994,8090,WL,A,6.0
7,14.815999984741211,immed,45184.00001525879,Wed Jan 28 2026 10:28:44 GMT-0600 (Central Standard Time),853390.0,A,saltenter,I,enter,216,1,1066.1000000005588,852323.8999999994,8090,WL,A,6.0
7,15.666000127792358,immed,44333.99987220764,Wed Jan 28 2026 10:28:44 GMT-0600 (Central Standard Time),854239.7999999998,A,m,I,m,839,1,849.5999999996275,853390.2000000002,8090,WL,A,7.0
7,15.799999952316284,immed,44200.000047683716,Wed Jan 28 2026 10:28:44 GMT-0600 (Central Standard Time),854373.0999999996,A,me,I,e,124,1,982.8999999994412,853390.2000000002,8090,WL,A,7.0
7,16.032999992370605,immed,43967.000007629395,Wed Jan 28 2026 10:28:44 GMT-0600 (Central Standard Time),854606.2999999998,A,mea,I,a,223,1,1216.0999999996275,853390.2000000002,8090,WL,A,7.0
7,16.16600012779236,immed,43833.99987220764,Wed Jan 28 2026 10:28:44 GMT-0600 (Central Standard Time),854739.3999999994,A,mead,I,d,126,1,1349.199999999255,853390.2000000002,8090,WL,A,7.0
7,16.41600012779236,immed,43583.99987220764,Wed Jan 28 2026 10:28:44 GMT-0600 (Central Standard Time),854989.3999999994,A,meado,I,o,233,1,1599.199999999255,853390.2000000002,8090,WL,A,7.0
7,16.598999977111816,immed,43401.00002288818,Wed Jan 28 2026 10:28:44 GMT-0600 (Central Standard Time),855172.7000000002,A,meadow,I,w,167,1,1782.5,853390.2000000002,8090,WL,A,7.0
7,17.631999969482422,immed,42368.00003051758,Wed Jan 28 2026 10:28:44 GMT-0600 (Central Standard Time),856205.7999999998,A,meadowenter,I,enter,1023,1,2815.5999999996275,853390.2000000002,8090,WL,A,7.0
7,18.115999937057495,immed,41884.000062942505,Wed Jan 28 2026 10:28:44 GMT-0600 (Central Standard Time),856689.0,A,h,I,h,471,1,483.0,856206.0,8090,WL,A,8.0
7,18.249000072479248,immed,41750.99992752075,Wed Jan 28 2026 10:28:44 GMT-0600 (Central Standard Time),856822.2000000002,A,ha,I,a,123,1,616.2000000001863,856206.0,8090,WL,A,8.0
7,18.46500015258789,immed,41534.99984741211,Wed Jan 28 2026 10:28:44 GMT-0600 (Central Standard Time),857038.7999999998,A,har,I,r,198,1,832.7999999998137,856206.0,8090,WL,A,8.0
7,18.999000072479248,immed,41000.99992752075,Wed Jan 28 2026 10:28:44 GMT-0600 (Central Standard Time),857572.0,A,harp,I,p,517,1,1366.0,856206.0,8090,WL,A,8.0
7,19.31500005722046,immed,40684.99994277954,Wed Jan 28 2026 10:28:44 GMT-0600 (Central Standard Time),857888.5,A,harpenter,I,enter,304,1,1682.5,856206.0,8090,WL,A,8.0
7,24.663000106811523,immed,35336.99989318848,Wed Jan 28 2026 10:28:44 GMT-0600 (Central Standard Time),863236.8999999994,A,r,I,r,5340,1,5348.199999999255,857888.7000000002,8090,WL,A,9.0
7,24.830000162124634,immed,35169.999837875366,Wed Jan 28 2026 10:28:44 GMT-0600 (Central Standard Time),863403.3999999994,A,ra,I,a,159,1,5514.699999999255,857888.7000000002,8090,WL,A,9.0
7,25.062999963760376,immed,34937.000036239624,Wed Jan 28 2026 10:28:44 GMT-0600 (Central Standard Time),863636.7000000002,A,rat,I,t,225,1,5748.0,857888.7000000002,8090,WL,A,9.0
7,25.230000019073486,immed,34769.999980926514,Wed Jan 28 2026 10:28:44 GMT-0600 (Central Standard Time),863803.3999999994,A,ratt,I,t,152,1,5914.699999999255,857888.7000000002,8090,WL,A,9.0
7,25.44600009918213,immed,34553.99990081787,Wed Jan 28 2026 10:28:44 GMT-0600 (Central Standard Time),864020.0,A,rattl,I,l,201,1,6131.299999999814,857888.7000000002,8090,WL,A,9.0
7,25.59599995613098,immed,34404.00004386902,Wed Jan 28 2026 10:28:44 GMT-0600 (Central Standard Time),864169.8999999994,A,rattle,I,e,136,1,6281.199999999255,857888.7000000002,8090,WL,A,9.0
7,25.896000146865845,immed,34103.999853134155,Wed Jan 28 2026 10:28:44 GMT-0600 (Central Standard Time),864469.7999999998,A,rattleenter,I,enter,282,1,6581.0999999996275,857888.7000000002,8090,WL,A,9.0
7,27.078999996185303,immed,32921.0000038147,Wed Jan 28 2026 10:28:44 GMT-0600 (Central Standard Time),865652.7999999998,A,a,I,a,1175,1,1182.7000000001863,864470.0999999996,8090,WL,A,10.0
7,27.59599995613098,immed,32404.00004386902,Wed Jan 28 2026 10:28:44 GMT-0600 (Central Standard Time),866169.5999999996,A,ap,I,p,512,1,1699.5,864470.0999999996,8090,WL,A,10.0
7,27.796000003814697,immed,32203.999996185303,Wed Jan 28 2026 10:28:44 GMT-0600 (Central Standard Time),866369.3999999994,A,app,I,p,179,1,1899.2999999998137,864470.0999999996,8090,WL,A,10.0
7,28.246000051498413,immed,31753.999948501587,Wed Jan 28 2026 10:28:44 GMT-0600 (Central Standard Time),866819.2000000002,A,appl,I,l,443,1,2349.100000000559,864470.0999999996,8090,WL,A,10.0
7,28.411999940872192,immed,31588.000059127808,Wed Jan 28 2026 10:28:44 GMT-0600 (Central Standard Time),866985.7000000002,A,apple,I,e,161,1,2515.600000000559,864470.0999999996,8090,WL,A,10.0
7,28.578999996185303,immed,31421.000003814697,Wed Jan 28 2026 10:28:44 GMT-0600 (Central Standard Time),867152.5999999996,A,appleenter,I,enter,147,1,2682.5,864470.0999999996,8090,WL,A,10.0
7,33.09400010108948,immed,26905.999898910522,Wed Jan 28 2026 10:28:44 GMT-0600 (Central Standard Time),871667.5,A,t,I,t,4508,1,4514.700000000186,867152.7999999998,8090,WL,A,11.0
7,33.22699999809265,immed,26773.00000190735,Wed Jan 28 2026 10:28:44 GMT-0600 (Central Standard Time),871800.8999999994,A,tr,I,r,113,1,4648.0999999996275,867152.7999999998,8090,WL,A,11.0
7,33.460999965667725,immed,26539.000034332275,Wed Jan 28 2026 10:28:44 GMT-0600 (Central Standard Time),872034.2000000002,A,tra,I,a,219,1,4881.4000000003725,867152.7999999998,8090,WL,A,11.0
7,33.59400010108948,immed,26405.999898910522,Wed Jan 28 2026 10:28:44 GMT-0600 (Central Standard Time),872167.5,A,trai,I,i,122,1,5014.700000000186,867152.7999999998,8090,WL,A,11.0
7,33.79400014877319,immed,26205.999851226807,Wed Jan 28 2026 10:28:44 GMT-0600 (Central Standard Time),872367.2999999998,A,train,I,n,189,1,5214.5,867152.7999999998,8090,WL,A,11.0
7,34.110000133514404,immed,25889.999866485596,Wed Jan 28 2026 10:28:44 GMT-0600 (Central Standard Time),872683.8999999994,A,trainenter,I,enter,309,1,5531.0999999996275,867152.7999999998,8090,WL,A,11.0
7,37.40900015830994,immed,22590.999841690063,Wed Jan 28 2026 10:28:44 GMT-0600 (Central Standard Time),875983.0,A,g,I,g,3289,1,3298.9000000003725,872684.0999999996,8090,WL,A,12.0
7,37.509000062942505,immed,22490.999937057495,Wed Jan 28 2026 10:28:44 GMT-0600 (Central Standard Time),876082.8999999994,A,go,I,o,94,1,3398.7999999998137,872684.0999999996,8090,WL,A,12.0
7,37.7260000705719,immed,22273.9999294281,Wed Jan 28 2026 10:28:44 GMT-0600 (Central Standard Time),876299.3999999994,A,gol,I,l,202,1,3615.2999999998137,872684.0999999996,8090,WL,A,12.0
7,37.85899996757507,immed,22141.000032424927,Wed Jan 28 2026 10:28:44 GMT-0600 (Central Standard Time),876432.7999999998,A,gold,I,d,121,1,3748.7000000001863,872684.0999999996,8090,WL,A,12.0
7,38.009000062942505,immed,21990.999937057495,Wed Jan 28 2026 10:28:44 GMT-0600 (Central Standard Time),876582.7000000002,A,goldenter,I,enter,132,1,3898.600000000559,872684.0999999996,8090,WL,A,12.0
7,43.25800013542175,immed,16741.999864578247,Wed Jan 28 2026 10:28:44 GMT-0600 (Central Standard Time),881831.2999999998,A,b,I,b,5230,1,5248.4000000003725,876582.8999999994,8090,WL,A,13.0
7,43.70799994468689,immed,16292.00005531311,Wed Jan 28 2026 10:28:44 GMT-0600 (Central Standard Time),882281.0,A,bo,I,o,436,1,5698.100000000559,876582.8999999994,8090,WL,A,13.0
7,44.324000120162964,immed,15675.999879837036,Wed Jan 28 2026 10:28:44 GMT-0600 (Central Standard Time),882897.3999999994,A,b,I,backspace,611,1,6314.5,876582.8999999994,8090,WL,A,13.0
7,44.67400002479553,immed,15325.999975204468,Wed Jan 28 2026 10:28:44 GMT-0600 (Central Standard Time),883247.2999999998,A,bu,I,u,331,1,6664.4000000003725,876582.8999999994,8090,WL,A,13.0
7,44.92400002479553,immed,15075.999975204468,Wed Jan 28 2026 10:28:44 GMT-0600 (Central Standard Time),883497.2999999998,A,but,I,t,229,1,6914.4000000003725,876582.8999999994,8090,WL,A,13.0
