acc_sum,block,block_c,block_cond,con_img,correct,correct_response,datetime,endtime,face,jitter,line,project,response,response_time,row_sel,session_number,start_end,starttime,subject_id,task,task_vers,trial
0,prac,1,A,haborder.png,0,z,Thu Mar 19 2026 08:45:43 GMT-0500 (Central Daylight Time),68585.70000004768,CFD-BF-050-012-A.jpg,1200,solid,I,None,1515,6,1,3498.899999976158,65086.800000071526,8062,ATS,B,1
1,prac,1,A,haborder.png,1,m,Thu Mar 19 2026 08:45:43 GMT-0500 (Central Daylight Time),71351.70000004768,CFD-WM-011-006-HC.jpg,1400,solid,I,m,575,7,1,6264.899999976158,65086.800000071526,8062,ATS,B,2
2,prac,1,A,haborder.png,1,m,Thu Mar 19 2026 08:45:43 GMT-0500 (Central Daylight Time),74533.70000004768,CFD-BM-015-017-HC.jpg,1700,solid,I,m,685,1,1,9446.899999976158,65086.800000071526,8062,ATS,B,3
3,prac,1,A,haborder.png,1,m,Thu Mar 19 2026 08:45:43 GMT-0500 (Central Daylight Time),77584.10000002384,CFD-WM-012-007-HC.jpg,1700,solid,I,m,575,9,1,12497.299999952316,65086.800000071526,8062,ATS,B,4
4,prac,1,A,haborder.png,1,z,Thu Mar 19 2026 08:45:43 GMT-0500 (Central Daylight Time),80515.10000002384,CFD-WF-026-008-A.jpg,1600,solid,I,z,546,10,1,15428.299999952316,65086.800000071526,8062,ATS,B,5
5,prac,1,A,haborder.png,1,z,Thu Mar 19 2026 08:45:43 GMT-0500 (Central Daylight Time),83764.5,CFD-WM-009-009-A.jpg,1900,solid,I,z,577,8,1,18677.699999928474,65086.800000071526,8062,ATS,B,6
6,prac,1,A,haborder.png,1,z,Thu Mar 19 2026 08:45:43 GMT-0500 (Central Daylight Time),86114.80000007153,CFD-BF-051-043-A.jpg,1000,solid,I,z,556,4,1,21028.0,65086.800000071526,8062,ATS,B,7
7,prac,1,A,haborder.png,1,m,Thu Mar 19 2026 08:45:43 GMT-0500 (Central Daylight Time),88930.39999997616,CFD-WF-011-006-HC.jpg,1500,solid,I,m,523,11,1,23843.599999904633,65086.800000071526,8062,ATS,B,8
8,prac,1,A,haborder.png,1,m,Thu Mar 19 2026 08:45:43 GMT-0500 (Central Daylight Time),91745.10000002384,CFD-BM-020-024-HC.jpg,1500,solid,I,m,532,3,1,26658.299999952316,65086.800000071526,8062,ATS,B,9
9,prac,1,A,haborder.png,1,z,Thu Mar 19 2026 08:45:43 GMT-0500 (Central Daylight Time),94328.80000007153,CFD-WF-013-015-A.jpg,1000,solid,I,z,784,12,1,29242.0,65086.800000071526,8062,ATS,B,10
10,prac,1,A,haborder.png,1,m,Thu Mar 19 2026 08:45:43 GMT-0500 (Central Daylight Time),97810.0,CFD-BF-035-007-HC.jpg,2000,solid,I,m,698,5,1,32723.199999928474,65086.800000071526,8062,ATS,B,11
11,prac,1,A,haborder.png,1,z,Thu Mar 19 2026 08:45:43 GMT-0500 (Central Daylight Time),100909.10000002384,CFD-BM-037-041-A.jpg,1600,solid,I,z,712,2,1,35822.299999952316,65086.800000071526,8062,ATS,B,12
1,prac,1,B,mfborder.png,1,m,Thu Mar 19 2026 08:45:43 GMT-0500 (Central Daylight Time),119569.80000007153,CFD-BM-041-048-A.jpg,1600,dash,I,m,798,2,1,3182.4000000953674,116387.39999997616,8062,ATS,B,1
2,prac,1,B,mfborder.png,1,z,Thu Mar 19 2026 08:45:43 GMT-0500 (Central Daylight Time),122536.10000002384,CFD-BF-027-013-HC.jpg,1500,dash,I,z,667,3,1,6148.700000047684,116387.39999997616,8062,ATS,B,2
3,prac,1,B,mfborder.png,1,m,Thu Mar 19 2026 08:45:43 GMT-0500 (Central Daylight Time),126817.5,CFD-BM-037-041-A.jpg,2000,dash,I,m,1489,5,1,10430.100000023842,116387.39999997616,8062,ATS,B,3
4,prac,1,B,mfborder.png,1,z,Thu Mar 19 2026 08:45:43 GMT-0500 (Central Daylight Time),130047.5,CFD-BF-035-007-HC.jpg,1400,dash,I,z,1047,7,1,13660.100000023842,116387.39999997616,8062,ATS,B,4
5,prac,1,B,mfborder.png,1,m,Thu Mar 19 2026 08:45:43 GMT-0500 (Central Daylight Time),133398.80000007153,CFD-WM-009-009-A.jpg,1700,dash,I,m,851,9,1,17011.400000095367,116387.39999997616,8062,ATS,B,5
6,prac,1,B,mfborder.png,1,m,Thu Mar 19 2026 08:45:43 GMT-0500 (Central Daylight Time),136614.39999997616,CFD-BM-020-024-HC.jpg,1700,dash,I,m,718,1,1,20227.0,116387.39999997616,8062,ATS,B,6
7,prac,1,B,mfborder.png,1,z,Thu Mar 19 2026 08:45:43 GMT-0500 (Central Daylight Time),139863.70000004768,CFD-WF-026-008-A.jpg,1500,dash,I,z,959,11,1,23476.300000071526,116387.39999997616,8062,ATS,B,7
8,prac,1,B,mfborder.png,1,z,Thu Mar 19 2026 08:45:43 GMT-0500 (Central Daylight Time),142412.70000004768,CFD-BF-051-043-A.jpg,1000,dash,I,z,760,4,1,26025.300000071526,116387.39999997616,8062,ATS,B,8
9,prac,1,B,mfborder.png,1,z,Thu Mar 19 2026 08:45:43 GMT-0500 (Central Daylight Time),145061.89999997616,CFD-WF-011-006-HC.jpg,1000,dash,I,z,852,12,1,28674.5,116387.39999997616,8062,ATS,B,9
10,prac,1,B,mfborder.png,1,m,Thu Mar 19 2026 08:45:43 GMT-0500 (Central Daylight Time),148160.70000004768,CFD-WM-012-007-HC.jpg,1600,dash,I,m,700,10,1,31773.300000071526,116387.39999997616,8062,ATS,B,10
11,prac,1,B,mfborder.png,1,z,Thu Mar 19 2026 08:45:43 GMT-0500 (Central Daylight Time),151659.70000004768,CFD-WF-027-007-HC.jpg,1900,dash,I,z,813,8,1,35272.300000071526,116387.39999997616,8062,ATS,B,11
12,prac,1,B,mfborder.png,1,m,Thu Mar 19 2026 08:45:43 GMT-0500 (Central Daylight Time),154658.89999997616,CFD-WM-037-060-A.jpg,1200,dash,I,m,1013,6,1,38271.5,116387.39999997616,8062,ATS,B,12
1,test,1,A,haborder.png,1,m,Thu Mar 19 2026 08:45:43 GMT-0500 (Central Daylight Time),171670.39999997616,CFD-WM-012-007-HC.jpg,1700,solid,I,m,953,9,1,2682.5999999046326,168987.80000007153,8062,ATS,B,1
2,test,1,A,haborder.png,1,m,Thu Mar 19 2026 08:45:43 GMT-0500 (Central Daylight Time),174235.80000007153,CFD-WM-012-007-HC.jpg,1700,solid,I,m,839,9,1,5248.0,168987.80000007153,8062,ATS,B,2
3,test,1,A,haborder.png,1,z,Thu Mar 19 2026 08:45:43 GMT-0500 (Central Daylight Time),176468.60000002384,CFD-WF-026-008-A.jpg,1600,solid,I,z,612,10,1,7480.799999952316,168987.80000007153,8062,ATS,B,3
4,test,1,A,haborder.png,1,m,Thu Mar 19 2026 08:45:43 GMT-0500 (Central Daylight Time),178934.60000002384,CFD-BM-015-017-HC.jpg,1700,solid,I,m,744,1,1,9946.799999952316,168987.80000007153,8062,ATS,B,4
5,test,1,A,haborder.png,1,m,Thu Mar 19 2026 08:45:43 GMT-0500 (Central Daylight Time),181283.80000007153,CFD-WF-011-006-HC.jpg,1500,solid,I,m,823,11,1,12296.0,168987.80000007153,8062,ATS,B,5
5,test,1,A,haborder.png,0,z,Thu Mar 19 2026 08:45:43 GMT-0500 (Central Daylight Time),183799.39999997616,CFD-WF-026-008-A.jpg,1600,solid,I,m,885,10,1,14811.599999904633,168987.80000007153,8062,ATS,B,6
6,test,1,A,haborder.png,1,z,Thu Mar 19 2026 08:45:43 GMT-0500 (Central Daylight Time),185932.20000004768,CFD-BF-050-012-A.jpg,1200,solid,I,z,906,6,1,16944.399999976158,168987.80000007153,8062,ATS,B,7
7,test,1,A,haborder.png,1,z,Thu Mar 19 2026 08:45:43 GMT-0500 (Central Daylight Time),188614.89999997616,CFD-BF-050-012-A.jpg,1200,solid,I,z,1452,6,1,19627.099999904633,168987.80000007153,8062,ATS,B,8
8,test,1,A,haborder.png,1,z,Thu Mar 19 2026 08:45:43 GMT-0500 (Central Daylight Time),190581.0,CFD-BF-051-043-A.jpg,1000,solid,I,z,939,4,1,21593.199999928474,168987.80000007153,8062,ATS,B,9
9,test,1,A,haborder.png,1,z,Thu Mar 19 2026 08:45:43 GMT-0500 (Central Daylight Time),192513.60000002384,CFD-WF-013-015-A.jpg,1000,solid,I,z,907,12,1,23525.799999952316,168987.80000007153,8062,ATS,B,10
10,test,1,A,haborder.png,1,m,Thu Mar 19 2026 08:45:43 GMT-0500 (Central Daylight Time),194796.30000007153,CFD-WM-011-006-HC.jpg,1400,solid,I,m,855,7,1,25808.5,168987.80000007153,8062,ATS,B,11
11,test,1,A,haborder.png,1,m,Thu Mar 19 2026 08:45:43 GMT-0500 (Central Daylight Time),197595.5,CFD-BF-035-007-HC.jpg,2000,solid,I,m,780,5,1,28607.699999928474,168987.80000007153,8062,ATS,B,12
12,test,1,A,haborder.png,1,z,Thu Mar 19 2026 08:45:43 GMT-0500 (Central Daylight Time),199611.39999997616,CFD-WF-013-015-A.jpg,1000,solid,I,z,989,12,1,30623.599999904633,168987.80000007153,8062,ATS,B,13
13,test,1,A,haborder.png,1,m,Thu Mar 19 2026 08:45:43 GMT-0500 (Central Daylight Time),201677.5,CFD-WM-011-006-HC.jpg,1400,solid,I,m,646,7,1,32689.699999928474,168987.80000007153,8062,ATS,B,14
14,test,1,A,haborder.png,1,m,Thu Mar 19 2026 08:45:43 GMT-0500 (Central Daylight Time),204126.80000007153,CFD-BM-015-017-HC.jpg,1700,solid,I,m,727,1,1,35139.0,168987.80000007153,8062,ATS,B,15
15,test,1,A,haborder.png,1,z,Thu Mar 19 2026 08:45:43 GMT-0500 (Central Daylight Time),206892.20000004768,CFD-WM-009-009-A.jpg,1900,solid,I,z,838,8,1,37904.39999997616,168987.80000007153,8062,ATS,B,16
16,test,1,A,haborder.png,1,m,Thu Mar 19 2026 08:45:43 GMT-0500 (Central Daylight Time),209041.80000007153,CFD-BM-020-024-HC.jpg,1500,solid,I,m,632,3,1,40054.0,168987.80000007153,8062,ATS,B,17
17,test,1,A,haborder.png,1,m,Thu Mar 19 2026 08:45:43 GMT-0500 (Central Daylight Time),211241.10000002384,CFD-WF-011-006-HC.jpg,1500,solid,I,m,667,11,1,42253.299999952316,168987.80000007153,8062,ATS,B,18
18,test,1,A,haborder.png,1,z,Thu Mar 19 2026 08:45:43 GMT-0500 (Central Daylight Time),213523.89999997616,CFD-BM-037-041-A.jpg,1600,solid,I,z,656,2,1,44536.09999990463,168987.80000007153,8062,ATS,B,19
19,test,1,A,haborder.png,1,m,Thu Mar 19 2026 08:45:43 GMT-0500 (Central Daylight Time),216239.60000002384,CFD-BF-035-007-HC.jpg,2000,solid,I,m,694,5,1,47251.799999952316,168987.80000007153,8062,ATS,B,20
20,test,1,A,haborder.png,1,z,Thu Mar 19 2026 08:45:43 GMT-0500 (Central Daylight Time),218538.60000002384,CFD-BM-037-041-A.jpg,1600,solid,I,z,681,2,1,49550.799999952316,168987.80000007153,8062,ATS,B,21
21,test,1,A,haborder.png,1,z,Thu Mar 19 2026 08:45:43 GMT-0500 (Central Daylight Time),221154.89999997616,CFD-WM-009-009-A.jpg,1900,solid,I,z,691,8,1,52167.09999990463,168987.80000007153,8062,ATS,B,22
22,test,1,A,haborder.png,1,z,Thu Mar 19 2026 08:45:43 GMT-0500 (Central Daylight Time),223270.5,CFD-BF-051-043-A.jpg,1000,solid,I,z,1086,4,1,54282.699999928474,168987.80000007153,8062,ATS,B,23
23,test,1,A,haborder.png,1,m,Thu Mar 19 2026 08:45:43 GMT-0500 (Central Daylight Time),225453.20000004768,CFD-BM-020-024-HC.jpg,1500,solid,I,m,654,3,1,56465.39999997616,168987.80000007153,8062,ATS,B,24
1,test,1,B,mfborder.png,1,m,Thu Mar 19 2026 08:45:43 GMT-0500 (Central Daylight Time),240282.0,CFD-WM-009-009-A.jpg,1700,dash,I,m,775,9,1,2499.1999999284744,237782.80000007153,8062,ATS,B,1
2,test,1,B,mfborder.png,1,z,Thu Mar 19 2026 08:45:43 GMT-0500 (Central Daylight Time),242414.20000004768,CFD-BF-027-013-HC.jpg,1500,dash,I,z,603,3,1,4631.399999976158,237782.80000007153,8062,ATS,B,2
3,test,1,B,mfborder.png,1,z,Thu Mar 19 2026 08:45:43 GMT-0500 (Central Daylight Time),244080.89999997616,CFD-BF-051-043-A.jpg,1000,dash,I,z,643,4,1,6298.099999904633,237782.80000007153,8062,ATS,B,3
4,test,1,B,mfborder.png,1,m,Thu Mar 19 2026 08:45:43 GMT-0500 (Central Daylight Time),246246.70000004768,CFD-BM-041-048-A.jpg,1600,dash,I,m,544,2,1,8463.899999976158,237782.80000007153,8062,ATS,B,4
5,test,1,B,mfborder.png,1,m,Thu Mar 19 2026 08:45:43 GMT-0500 (Central Daylight Time),248629.5,CFD-WM-009-009-A.jpg,1700,dash,I,m,565,9,1,10846.699999928474,237782.80000007153,8062,ATS,B,5
6,test,1,B,mfborder.png,1,z,Thu Mar 19 2026 08:45:43 GMT-0500 (Central Daylight Time),251095.0,CFD-WF-027-007-HC.jpg,1900,dash,I,z,544,8,1,13312.199999928474,237782.80000007153,8062,ATS,B,6
7,test,1,B,mfborder.png,1,m,Thu Mar 19 2026 08:45:43 GMT-0500 (Central Daylight Time),253494.60000002384,CFD-BM-020-024-HC.jpg,1700,dash,I,m,677,1,1,15711.799999952316,237782.80000007153,8062,ATS,B,7
8,test,1,B,mfborder.png,1,m,Thu Mar 19 2026 08:45:43 GMT-0500 (Central Daylight Time),255795.20000004768,CFD-BM-041-048-A.jpg,1600,dash,I,m,667,2,1,18012.399999976158,237782.80000007153,8062,ATS,B,8
9,test,1,B,mfborder.png,1,z,Thu Mar 19 2026 08:45:43 GMT-0500 (Central Daylight Time),258342.89999997616,CFD-WF-027-007-HC.jpg,1900,dash,I,z,619,8,1,20560.099999904633,237782.80000007153,8062,ATS,B,9
10,test,1,B,mfborder.png,1,m,Thu Mar 19 2026 08:45:43 GMT-0500 (Central Daylight Time),260910.5,CFD-BM-037-041-A.jpg,2000,dash,I,m,538,5,1,23127.699999928474,237782.80000007153,8062,ATS,B,10
11,test,1,B,mfborder.png,1,z,Thu Mar 19 2026 08:45:43 GMT-0500 (Central Daylight Time),263008.3000000715,CFD-WF-026-008-A.jpg,1500,dash,I,z,569,11,1,25225.5,237782.80000007153,8062,ATS,B,11
12,test,1,B,mfborder.png,1,z,Thu Mar 19 2026 08:45:43 GMT-0500 (Central Daylight Time),265307.5,CFD-BF-035-007-HC.jpg,1400,dash,I,z,879,7,1,27524.699999928474,237782.80000007153,8062,ATS,B,12
13,test,1,B,mfborder.png,1,m,Thu Mar 19 2026 08:45:43 GMT-0500 (Central Daylight Time),267256.89999997616,CFD-WM-037-060-A.jpg,1200,dash,I,m,726,6,1,29474.099999904633,237782.80000007153,8062,ATS,B,13
14,test,1,B,mfborder.png,1,m,Thu Mar 19 2026 08:45:43 GMT-0500 (Central Daylight Time),269123.0,CFD-WM-037-060-A.jpg,1200,dash,I,m,647,6,1,31340.199999928474,237782.80000007153,8062,ATS,B,14
15,test,1,B,mfborder.png,1,z,Thu Mar 19 2026 08:45:43 GMT-0500 (Central Daylight Time),271005.5,CFD-WF-011-006-HC.jpg,1000,dash,I,z,861,12,1,33222.699999928474,237782.80000007153,8062,ATS,B,15
16,test,1,B,mfborder.png,1,z,Thu Mar 19 2026 08:45:43 GMT-0500 (Central Daylight Time),273172.7000000477,CFD-BF-035-007-HC.jpg,1400,dash,I,z,739,7,1,35389.89999997616,237782.80000007153,8062,ATS,B,16
17,test,1,B,mfborder.png,1,z,Thu Mar 19 2026 08:45:43 GMT-0500 (Central Daylight Time),275254.5,CFD-BF-027-013-HC.jpg,1500,dash,I,z,554,3,1,37471.699999928474,237782.80000007153,8062,ATS,B,17
18,test,1,B,mfborder.png,1,m,Thu Mar 19 2026 08:45:43 GMT-0500 (Central Daylight Time),277686.89999997616,CFD-WM-012-007-HC.jpg,1600,dash,I,m,803,10,1,39904.09999990463,237782.80000007153,8062,ATS,B,18
19,test,1,B,mfborder.png,1,m,Thu Mar 19 2026 08:45:43 GMT-0500 (Central Daylight Time),279986.2000000477,CFD-BM-020-024-HC.jpg,1700,dash,I,m,573,1,1,42203.39999997616,237782.80000007153,8062,ATS,B,19
20,test,1,B,mfborder.png,1,z,Thu Mar 19 2026 08:45:43 GMT-0500 (Central Daylight Time),281802.5,CFD-BF-051-043-A.jpg,1000,dash,I,z,783,4,1,44019.699999928474,237782.80000007153,8062,ATS,B,20
21,test,1,B,mfborder.png,1,m,Thu Mar 19 2026 08:45:43 GMT-0500 (Central Daylight Time),284601.3000000715,CFD-BM-037-041-A.jpg,2000,dash,I,m,766,5,1,46818.5,237782.80000007153,8062,ATS,B,21
22,test,1,B,mfborder.png,1,z,Thu Mar 19 2026 08:45:43 GMT-0500 (Central Daylight Time),286767.39999997616,CFD-WF-026-008-A.jpg,1500,dash,I,z,636,11,1,48984.59999990463,237782.80000007153,8062,ATS,B,22
23,test,1,B,mfborder.png,1,z,Thu Mar 19 2026 08:45:43 GMT-0500 (Central Daylight Time),288333.60000002384,CFD-WF-011-006-HC.jpg,1000,dash,I,z,538,12,1,50550.799999952316,237782.80000007153,8062,ATS,B,23
24,test,1,B,mfborder.png,1,m,Thu Mar 19 2026 08:45:43 GMT-0500 (Central Daylight Time),290616.3000000715,CFD-WM-012-007-HC.jpg,1600,dash,I,m,651,10,1,52833.5,237782.80000007153,8062,ATS,B,24
0,7,1,C,haborder.png,0,z,Thu Mar 19 2026 08:45:43 GMT-0500 (Central Daylight Time),313009.39999997616,CFD-BF-051-043-A.jpg,1900,dash,I,None,1516,prac,1,4198.799999952316,308810.60000002384,8062,ATS,B,1
0,1,1,C,mfborder.png,0,z,Thu Mar 19 2026 08:45:43 GMT-0500 (Central Daylight Time),316907.89999997616,CFD-WF-011-006-HC.jpg,1600,dash,I,None,1516,prac,1,8097.299999952316,308810.60000002384,8062,ATS,B,2
0,3,1,C,mfborder.png,0,z,Thu Mar 19 2026 08:45:43 GMT-0500 (Central Daylight Time),320207.2000000477,CFD-BF-035-007-HC.jpg,1000,dash,I,None,1516,prac,1,11396.600000023842,308810.60000002384,8062,ATS,B,3
0,10,1,C,haborder.png,0,m,Thu Mar 19 2026 08:45:43 GMT-0500 (Central Daylight Time),324005.89999997616,CFD-BM-020-024-HC.jpg,1500,solid,I,None,1517,prac,1,15195.299999952316,308810.60000002384,8062,ATS,B,4
1,5,1,C,mfborder.png,1,m,Thu Mar 19 2026 08:45:43 GMT-0500 (Central Daylight Time),327004.7000000477,CFD-BM-037-041-A.jpg,1200,dash,I,m,1003,prac,1,18194.100000023842,308810.60000002384,8062,ATS,B,5
2,9,1,C,haborder.png,1,z,Thu Mar 19 2026 08:45:43 GMT-0500 (Central Daylight Time),330470.60000002384,CFD-WF-026-008-A.jpg,1600,dash,I,z,1076,prac,1,21660.0,308810.60000002384,8062,ATS,B,6
3,4,1,C,mfborder.png,1,m,Thu Mar 19 2026 08:45:43 GMT-0500 (Central Daylight Time),334319.10000002384,CFD-BM-015-017-HC.jpg,2000,solid,I,m,1058,prac,1,25508.5,308810.60000002384,8062,ATS,B,7
3,2,1,C,mfborder.png,0,z,Thu Mar 19 2026 08:45:43 GMT-0500 (Central Daylight Time),337501.60000002384,CFD-WF-013-015-A.jpg,1500,solid,I,m,892,prac,1,28691.0,308810.60000002384,8062,ATS,B,8
3,12,1,C,haborder.png,0,m,Thu Mar 19 2026 08:45:43 GMT-0500 (Central Daylight Time),340683.89999997616,CFD-WM-011-006-HC.jpg,1400,solid,I,z,995,prac,1,31873.299999952316,308810.60000002384,8062,ATS,B,9
4,8,1,C,haborder.png,1,z,Thu Mar 19 2026 08:45:43 GMT-0500 (Central Daylight Time),344582.89999997616,CFD-BF-050-012-A.jpg,1700,solid,I,z,1409,prac,1,35772.299999952316,308810.60000002384,8062,ATS,B,10
5,6,1,C,mfborder.png,1,m,Thu Mar 19 2026 08:45:43 GMT-0500 (Central Daylight Time),348115.0,CFD-WM-009-009-A.jpg,1700,solid,I,m,1037,prac,1,39304.39999997616,308810.60000002384,8062,ATS,B,11
5,11,1,C,haborder.png,0,m,Thu Mar 19 2026 08:45:43 GMT-0500 (Central Daylight Time),351230.60000002384,CFD-WM-011-006-HC.jpg,1000,dash,I,z,1317,prac,1,42420.0,308810.60000002384,8062,ATS,B,12
1,8,2,C,haborder.png,1,z,Thu Mar 19 2026 08:45:43 GMT-0500 (Central Daylight Time),365209.60000002384,CFD-BF-050-012-A.jpg,1700,solid,I,z,1124,prac,1,56399.0,308810.60000002384,8062,ATS,B,1
1,1,2,C,mfborder.png,0,z,Thu Mar 19 2026 08:45:43 GMT-0500 (Central Daylight Time),369108.5,CFD-WF-011-006-HC.jpg,1600,dash,I,None,1516,prac,1,60297.89999997616,308810.60000002384,8062,ATS,B,2
1,6,2,C,mfborder.png,0,m,Thu Mar 19 2026 08:45:43 GMT-0500 (Central Daylight Time),373107.2000000477,CFD-WM-009-009-A.jpg,1700,solid,I,None,1516,prac,1,64296.60000002384,308810.60000002384,8062,ATS,B,3
2,5,2,C,mfborder.png,1,m,Thu Mar 19 2026 08:45:43 GMT-0500 (Central Daylight Time),376323.0,CFD-BM-037-041-A.jpg,1200,dash,I,m,1228,prac,1,67512.39999997616,308810.60000002384,8062,ATS,B,4
2,11,2,C,haborder.png,0,m,Thu Mar 19 2026 08:45:43 GMT-0500 (Central Daylight Time),379138.60000002384,CFD-WM-011-006-HC.jpg,1000,dash,I,z,1031,prac,1,70328.0,308810.60000002384,8062,ATS,B,5
3,12,2,C,haborder.png,1,m,Thu Mar 19 2026 08:45:43 GMT-0500 (Central Daylight Time),382521.2000000477,CFD-WM-011-006-HC.jpg,1400,solid,I,m,1191,prac,1,73710.60000002384,308810.60000002384,8062,ATS,B,6
3,4,2,C,mfborder.png,0,m,Thu Mar 19 2026 08:45:43 GMT-0500 (Central Daylight Time),386287.3000000715,CFD-BM-015-017-HC.jpg,2000,solid,I,z,969,prac,1,77476.70000004768,308810.60000002384,8062,ATS,B,7
3,2,2,C,mfborder.png,0,z,Thu Mar 19 2026 08:45:43 GMT-0500 (Central Daylight Time),390068.7000000477,CFD-WF-013-015-A.jpg,1500,solid,I,None,1514,prac,1,81258.10000002384,308810.60000002384,8062,ATS,B,8
3,7,2,C,haborder.png,0,z,Thu Mar 19 2026 08:45:43 GMT-0500 (Central Daylight Time),394267.3000000715,CFD-BF-051-043-A.jpg,1900,dash,I,None,1516,prac,1,85456.70000004768,308810.60000002384,8062,ATS,B,9
3,3,2,C,mfborder.png,0,z,Thu Mar 19 2026 08:45:43 GMT-0500 (Central Daylight Time),397199.7000000477,CFD-BF-035-007-HC.jpg,1000,dash,I,m,1133,prac,1,88389.10000002384,308810.60000002384,8062,ATS,B,10
4,10,2,C,haborder.png,1,m,Thu Mar 19 2026 08:45:43 GMT-0500 (Central Daylight Time),400082.10000002384,CFD-BM-020-024-HC.jpg,1500,solid,I,m,598,prac,1,91271.5,308810.60000002384,8062,ATS,B,11
4,9,2,C,haborder.png,0,z,Thu Mar 19 2026 08:45:43 GMT-0500 (Central Daylight Time),403464.2000000477,CFD-WF-026-008-A.jpg,1600,dash,I,m,991,prac,1,94653.60000002384,308810.60000002384,8062,ATS,B,12
0,test,1,C,mfborder.png,0,z,Thu Mar 19 2026 08:45:43 GMT-0500 (Central Daylight Time),436221.60000002384,CFD-BF-051-043-A.jpg,1600,dash,I,None,1501,2,1,3116.5,433105.10000002384,8062,ATS,B,1
0,test,1,C,haborder.png,0,z,Thu Mar 19 2026 08:45:43 GMT-0500 (Central Daylight Time),439403.10000002384,CFD-BM-041-048-A.jpg,1700,solid,I,m,1457,9,1,6298.0,433105.10000002384,8062,ATS,B,2
0,test,1,C,haborder.png,0,z,Thu Mar 19 2026 08:45:43 GMT-0500 (Central Daylight Time),442835.7000000477,CFD-BM-037-041-A.jpg,1900,solid,I,None,1515,8,1,9730.600000023842,433105.10000002384,8062,ATS,B,3
0,test,1,C,haborder.png,0,m,Thu Mar 19 2026 08:45:43 GMT-0500 (Central Daylight Time),445151.39999997616,CFD-WF-011-006-HC.jpg,1000,solid,I,z,1286,12,1,12046.299999952316,433105.10000002384,8062,ATS,B,4
1,test,1,C,mfborder.png,1,z,Thu Mar 19 2026 08:45:43 GMT-0500 (Central Daylight Time),448033.60000002384,CFD-BF-051-043-A.jpg,1600,dash,I,z,1257,2,1,14928.5,433105.10000002384,8062,ATS,B,5
2,test,1,C,mfborder.png,1,z,Thu Mar 19 2026 08:45:43 GMT-0500 (Central Daylight Time),450666.2000000477,CFD-WF-026-008-A.jpg,1500,dash,I,z,1100,3,1,17561.100000023842,433105.10000002384,8062,ATS,B,6
3,test,1,C,haborder.png,1,m,Thu Mar 19 2026 08:45:43 GMT-0500 (Central Daylight Time),453565.5,CFD-BF-035-007-HC.jpg,1600,solid,I,m,1279,10,1,20460.399999976158,433105.10000002384,8062,ATS,B,7
4,test,1,C,mfborder.png,1,z,Thu Mar 19 2026 08:45:43 GMT-0500 (Central Daylight Time),456664.5,CFD-BF-027-013-HC.jpg,1700,dash,I,z,1368,1,1,23559.399999976158,433105.10000002384,8062,ATS,B,8
4,test,1,C,mfborder.png,0,m,Thu Mar 19 2026 08:45:43 GMT-0500 (Central Daylight Time),459197.2000000477,CFD-WM-012-007-HC.jpg,1000,dash,I,None,1515,4,1,26092.100000023842,433105.10000002384,8062,ATS,B,9
5,test,1,C,mfborder.png,1,m,Thu Mar 19 2026 08:45:43 GMT-0500 (Central Daylight Time),462412.5,CFD-WM-037-060-A.jpg,2000,dash,I,m,1188,5,1,29307.399999976158,433105.10000002384,8062,ATS,B,10
6,test,1,C,haborder.png,1,z,Thu Mar 19 2026 08:45:43 GMT-0500 (Central Daylight Time),465078.3000000715,CFD-WM-009-009-A.jpg,1400,solid,I,z,1237,7,1,31973.200000047684,433105.10000002384,8062,ATS,B,11
6,test,1,C,mfborder.png,0,z,Thu Mar 19 2026 08:45:43 GMT-0500 (Central Daylight Time),468110.60000002384,CFD-WF-026-008-A.jpg,1500,dash,I,None,1515,3,1,35005.5,433105.10000002384,8062,ATS,B,12
7,test,1,C,mfborder.png,1,m,Thu Mar 19 2026 08:45:43 GMT-0500 (Central Daylight Time),470293.2000000477,CFD-BM-020-024-HC.jpg,1200,dash,I,m,962,6,1,37188.10000002384,433105.10000002384,8062,ATS,B,13
8,test,1,C,haborder.png,1,m,Thu Mar 19 2026 08:45:43 GMT-0500 (Central Daylight Time),473075.5,CFD-WF-027-007-HC.jpg,1500,solid,I,m,1263,11,1,39970.39999997616,433105.10000002384,8062,ATS,B,14
9,test,1,C,haborder.png,1,m,Thu Mar 19 2026 08:45:43 GMT-0500 (Central Daylight Time),475374.60000002384,CFD-WF-027-007-HC.jpg,1500,solid,I,m,768,11,1,42269.5,433105.10000002384,8062,ATS,B,15
9,test,1,C,mfborder.png,0,m,Thu Mar 19 2026 08:45:43 GMT-0500 (Central Daylight Time),478907.10000002384,CFD-WM-037-060-A.jpg,2000,dash,I,None,1516,5,1,45802.0,433105.10000002384,8062,ATS,B,16
10,test,1,C,mfborder.png,1,m,Thu Mar 19 2026 08:45:43 GMT-0500 (Central Daylight Time),481456.39999997616,CFD-BM-020-024-HC.jpg,1200,dash,I,m,1325,6,1,48351.299999952316,433105.10000002384,8062,ATS,B,17
11,test,1,C,haborder.png,1,z,Thu Mar 19 2026 08:45:43 GMT-0500 (Central Daylight Time),483922.3000000715,CFD-WM-009-009-A.jpg,1400,solid,I,z,1039,7,1,50817.200000047684,433105.10000002384,8062,ATS,B,18
12,test,1,C,mfborder.png,1,m,Thu Mar 19 2026 08:45:43 GMT-0500 (Central Daylight Time),486071.39999997616,CFD-WM-012-007-HC.jpg,1000,dash,I,m,1126,4,1,52966.299999952316,433105.10000002384,8062,ATS,B,19
13,test,1,C,haborder.png,1,z,Thu Mar 19 2026 08:45:43 GMT-0500 (Central Daylight Time),488937.39999997616,CFD-BM-041-048-A.jpg,1700,solid,I,z,1133,9,1,55832.299999952316,433105.10000002384,8062,ATS,B,20
14,test,1,C,haborder.png,1,z,Thu Mar 19 2026 08:45:43 GMT-0500 (Central Daylight Time),492319.60000002384,CFD-BM-037-041-A.jpg,1900,solid,I,z,1451,8,1,59214.5,433105.10000002384,8062,ATS,B,21
14,test,1,C,haborder.png,0,m,Thu Mar 19 2026 08:45:43 GMT-0500 (Central Daylight Time),494852.2000000477,CFD-WF-011-006-HC.jpg,1000,solid,I,None,1516,12,1,61747.10000002384,433105.10000002384,8062,ATS,B,22
15,test,1,C,haborder.png,1,m,Thu Mar 19 2026 08:45:43 GMT-0500 (Central Daylight Time),497718.0,CFD-BF-035-007-HC.jpg,1600,solid,I,m,1236,10,1,64612.89999997616,433105.10000002384,8062,ATS,B,23
16,test,1,C,mfborder.png,1,z,Thu Mar 19 2026 08:45:43 GMT-0500 (Central Daylight Time),500567.0,CFD-BF-027-013-HC.jpg,1700,dash,I,z,1119,1,1,67461.89999997616,433105.10000002384,8062,ATS,B,24
1,test,2,C,haborder.png,1,m,Thu Mar 19 2026 08:45:43 GMT-0500 (Central Daylight Time),510730.5,CFD-WM-011-006-HC.jpg,1500,solid,I,m,1148,11,1,2665.7999999523163,508064.7000000477,8062,ATS,B,1
2,test,2,C,mfborder.png,1,z,Thu Mar 19 2026 08:45:43 GMT-0500 (Central Daylight Time),513462.89999997616,CFD-WF-013-015-A.jpg,1600,dash,I,z,1102,2,1,5398.199999928474,508064.7000000477,8062,ATS,B,2
3,test,2,C,haborder.png,1,m,Thu Mar 19 2026 08:45:43 GMT-0500 (Central Daylight Time),515962.2000000477,CFD-BM-020-024-HC.jpg,1600,solid,I,m,882,10,1,7897.5,508064.7000000477,8062,ATS,B,3
3,test,2,C,mfborder.png,0,m,Thu Mar 19 2026 08:45:43 GMT-0500 (Central Daylight Time),518695.0,CFD-WM-009-009-A.jpg,1200,dash,I,None,1516,6,1,10630.299999952316,508064.7000000477,8062,ATS,B,4
3,test,2,C,haborder.png,0,m,Thu Mar 19 2026 08:45:43 GMT-0500 (Central Daylight Time),521227.3000000715,CFD-WM-011-006-HC.jpg,1000,solid,I,None,1516,12,1,13162.600000023842,508064.7000000477,8062,ATS,B,5
3,test,2,C,mfborder.png,0,m,Thu Mar 19 2026 08:45:43 GMT-0500 (Central Daylight Time),523609.7000000477,CFD-WM-009-009-A.jpg,1200,dash,I,z,1156,6,1,15545.0,508064.7000000477,8062,ATS,B,6
4,test,2,C,haborder.png,1,z,Thu Mar 19 2026 08:45:43 GMT-0500 (Central Daylight Time),526375.7000000477,CFD-WF-026-008-A.jpg,1700,solid,I,z,1043,9,1,18311.0,508064.7000000477,8062,ATS,B,7
5,test,2,C,mfborder.png,1,z,Thu Mar 19 2026 08:45:43 GMT-0500 (Central Daylight Time),529024.7000000477,CFD-WF-011-006-HC.jpg,1700,dash,I,z,925,1,1,20960.0,508064.7000000477,8062,ATS,B,8
6,test,2,C,mfborder.png,1,z,Thu Mar 19 2026 08:45:43 GMT-0500 (Central Daylight Time),531607.2000000477,CFD-BF-035-007-HC.jpg,1500,dash,I,z,1060,3,1,23542.5,508064.7000000477,8062,ATS,B,9
7,test,2,C,haborder.png,1,z,Thu Mar 19 2026 08:45:43 GMT-0500 (Central Daylight Time),534556.3000000715,CFD-BF-050-012-A.jpg,1900,solid,I,z,1029,8,1,26491.600000023842,508064.7000000477,8062,ATS,B,10
8,test,2,C,mfborder.png,1,m,Thu Mar 19 2026 08:45:43 GMT-0500 (Central Daylight Time),537772.1000000238,CFD-BM-037-041-A.jpg,2000,dash,I,m,1196,5,1,29707.399999976158,508064.7000000477,8062,ATS,B,11
8,test,2,C,haborder.png,0,m,Thu Mar 19 2026 08:45:43 GMT-0500 (Central Daylight Time),540104.6000000238,CFD-WM-011-006-HC.jpg,1500,solid,I,z,800,11,1,32039.899999976158,508064.7000000477,8062,ATS,B,12
9,test,2,C,haborder.png,1,m,Thu Mar 19 2026 08:45:43 GMT-0500 (Central Daylight Time),542254.1000000238,CFD-WM-011-006-HC.jpg,1000,solid,I,m,1119,12,1,34189.39999997616,508064.7000000477,8062,ATS,B,13
10,test,2,C,haborder.png,1,z,Thu Mar 19 2026 08:45:43 GMT-0500 (Central Daylight Time),545437.6000000238,CFD-WF-026-008-A.jpg,1700,solid,I,z,1463,9,1,37372.89999997616,508064.7000000477,8062,ATS,B,14
11,test,2,C,mfborder.png,1,m,Thu Mar 19 2026 08:45:43 GMT-0500 (Central Daylight Time),547752.3999999762,CFD-BM-015-017-HC.jpg,1000,dash,I,m,1292,4,1,39687.699999928474,508064.7000000477,8062,ATS,B,15
12,test,2,C,haborder.png,1,z,Thu Mar 19 2026 08:45:43 GMT-0500 (Central Daylight Time),550268.2000000477,CFD-BF-051-043-A.jpg,1400,solid,I,z,1096,7,1,42203.5,508064.7000000477,8062,ATS,B,16
13,test,2,C,haborder.png,1,m,Thu Mar 19 2026 08:45:43 GMT-0500 (Central Daylight Time),553117.2000000477,CFD-BM-020-024-HC.jpg,1600,solid,I,m,1228,10,1,45052.5,508064.7000000477,8062,ATS,B,17
14,test,2,C,haborder.png,1,z,Thu Mar 19 2026 08:45:43 GMT-0500 (Central Daylight Time),556166.3000000715,CFD-BF-050-012-A.jpg,1900,solid,I,z,1127,8,1,48101.60000002384,508064.7000000477,8062,ATS,B,18
15,test,2,C,mfborder.png,1,z,Thu Mar 19 2026 08:45:43 GMT-0500 (Central Daylight Time),558732.2000000477,CFD-WF-013-015-A.jpg,1600,dash,I,z,946,2,1,50667.5,508064.7000000477,8062,ATS,B,19
16,test,2,C,mfborder.png,1,z,Thu Mar 19 2026 08:45:43 GMT-0500 (Central Daylight Time),561764.7000000477,CFD-WF-011-006-HC.jpg,1700,dash,I,z,1304,1,1,53700.0,508064.7000000477,8062,ATS,B,20
17,test,2,C,mfborder.png,1,m,Thu Mar 19 2026 08:45:43 GMT-0500 (Central Daylight Time),565080.3000000715,CFD-BM-037-041-A.jpg,2000,dash,I,m,1292,5,1,57015.60000002384,508064.7000000477,8062,ATS,B,21
18,test,2,C,mfborder.png,1,z,Thu Mar 19 2026 08:45:43 GMT-0500 (Central Daylight Time),567829.3999999762,CFD-BF-035-007-HC.jpg,1500,dash,I,z,1220,3,1,59764.699999928474,508064.7000000477,8062,ATS,B,22
19,test,2,C,mfborder.png,1,m,Thu Mar 19 2026 08:45:43 GMT-0500 (Central Daylight Time),569895.3000000715,CFD-BM-015-017-HC.jpg,1000,dash,I,m,1043,4,1,61830.60000002384,508064.7000000477,8062,ATS,B,23
20,test,2,C,haborder.png,1,z,Thu Mar 19 2026 08:45:43 GMT-0500 (Central Daylight Time),572094.8000000715,CFD-BF-051-043-A.jpg,1400,solid,I,z,777,7,1,64030.10000002384,508064.7000000477,8062,ATS,B,24
1,test,3,C,mfborder.png,1,m,Thu Mar 19 2026 08:45:43 GMT-0500 (Central Daylight Time),578525.8999999762,CFD-WM-037-060-A.jpg,2000,dash,I,m,1411,5,1,3432.1999999284744,575093.7000000477,8062,ATS,B,1
1,test,3,C,haborder.png,0,z,Thu Mar 19 2026 08:45:43 GMT-0500 (Central Daylight Time),581758.3000000715,CFD-BM-041-048-A.jpg,1700,solid,I,None,1516,9,1,6664.600000023842,575093.7000000477,8062,ATS,B,2
2,test,3,C,haborder.png,1,z,Thu Mar 19 2026 08:45:43 GMT-0500 (Central Daylight Time),584807.3999999762,CFD-BM-037-041-A.jpg,1900,solid,I,z,1118,8,1,9713.699999928474,575093.7000000477,8062,ATS,B,3
2,test,3,C,mfborder.png,0,z,Thu Mar 19 2026 08:45:43 GMT-0500 (Central Daylight Time),587839.7000000477,CFD-WF-026-008-A.jpg,1500,dash,I,None,1516,3,1,12746.0,575093.7000000477,8062,ATS,B,4
3,test,3,C,mfborder.png,1,z,Thu Mar 19 2026 08:45:43 GMT-0500 (Central Daylight Time),590438.8999999762,CFD-WF-026-008-A.jpg,1500,dash,I,z,1069,3,1,15345.199999928474,575093.7000000477,8062,ATS,B,5
4,test,3,C,haborder.png,1,z,Thu Mar 19 2026 08:45:43 GMT-0500 (Central Daylight Time),593454.5,CFD-BM-037-041-A.jpg,1900,solid,I,z,1086,8,1,18360.799999952316,575093.7000000477,8062,ATS,B,6
5,test,3,C,haborder.png,1,m,Thu Mar 19 2026 08:45:43 GMT-0500 (Central Daylight Time),595387.3999999762,CFD-WF-011-006-HC.jpg,1000,solid,I,m,906,12,1,20293.699999928474,575093.7000000477,8062,ATS,B,7
5,test,3,C,mfborder.png,0,m,Thu Mar 19 2026 08:45:43 GMT-0500 (Central Daylight Time),598553.0,CFD-WM-037-060-A.jpg,2000,dash,I,z,1133,5,1,23459.299999952316,575093.7000000477,8062,ATS,B,8
5,test,3,C,haborder.png,0,m,Thu Mar 19 2026 08:45:43 GMT-0500 (Central Daylight Time),601252.1000000238,CFD-BF-035-007-HC.jpg,1600,solid,I,z,1072,10,1,26158.399999976158,575093.7000000477,8062,ATS,B,9
6,test,3,C,mfborder.png,1,m,Thu Mar 19 2026 08:45:43 GMT-0500 (Central Daylight Time),603651.3999999762,CFD-WM-012-007-HC.jpg,1000,dash,I,m,1380,4,1,28557.699999928474,575093.7000000477,8062,ATS,B,10
7,test,3,C,mfborder.png,1,z,Thu Mar 19 2026 08:45:43 GMT-0500 (Central Daylight Time),606767.2000000477,CFD-BF-051-043-A.jpg,1600,dash,I,z,1485,2,1,31673.5,575093.7000000477,8062,ATS,B,11
8,test,3,C,mfborder.png,1,z,Thu Mar 19 2026 08:45:43 GMT-0500 (Central Daylight Time),609749.7000000477,CFD-BF-027-013-HC.jpg,1700,dash,I,z,1253,1,1,34656.0,575093.7000000477,8062,ATS,B,12
9,test,3,C,mfborder.png,1,m,Thu Mar 19 2026 08:45:43 GMT-0500 (Central Daylight Time),611965.5,CFD-BM-020-024-HC.jpg,1200,dash,I,m,995,6,1,36871.799999952316,575093.7000000477,8062,ATS,B,13
10,test,3,C,haborder.png,1,m,Thu Mar 19 2026 08:45:43 GMT-0500 (Central Daylight Time),614897.8999999762,CFD-WF-027-007-HC.jpg,1500,solid,I,m,1407,11,1,39804.199999928474,575093.7000000477,8062,ATS,B,14
11,test,3,C,haborder.png,1,m,Thu Mar 19 2026 08:45:43 GMT-0500 (Central Daylight Time),617713.6000000238,CFD-WF-027-007-HC.jpg,1500,solid,I,m,1299,11,1,42619.89999997616,575093.7000000477,8062,ATS,B,15
11,test,3,C,haborder.png,0,m,Thu Mar 19 2026 08:45:43 GMT-0500 (Central Daylight Time),620846.1000000238,CFD-BF-035-007-HC.jpg,1600,solid,I,None,1516,10,1,45752.39999997616,575093.7000000477,8062,ATS,B,16
11,test,3,C,mfborder.png,0,m,Thu Mar 19 2026 08:45:43 GMT-0500 (Central Daylight Time),623378.5,CFD-WM-012-007-HC.jpg,1000,dash,I,None,1516,4,1,48284.799999952316,575093.7000000477,8062,ATS,B,17
12,test,3,C,mfborder.png,1,z,Thu Mar 19 2026 08:45:43 GMT-0500 (Central Daylight Time),626527.6000000238,CFD-BF-027-013-HC.jpg,1700,dash,I,z,1418,1,1,51433.89999997616,575093.7000000477,8062,ATS,B,18
13,test,3,C,haborder.png,1,z,Thu Mar 19 2026 08:45:43 GMT-0500 (Central Daylight Time),629160.1000000238,CFD-WM-009-009-A.jpg,1400,solid,I,z,1201,7,1,54066.39999997616,575093.7000000477,8062,ATS,B,19
13,test,3,C,mfborder.png,0,m,Thu Mar 19 2026 08:45:43 GMT-0500 (Central Daylight Time),631892.7000000477,CFD-BM-020-024-HC.jpg,1200,dash,I,None,1516,6,1,56799.0,575093.7000000477,8062,ATS,B,20
14,test,3,C,haborder.png,1,z,Thu Mar 19 2026 08:45:43 GMT-0500 (Central Daylight Time),634908.2000000477,CFD-BM-041-048-A.jpg,1700,solid,I,z,1288,9,1,59814.5,575093.7000000477,8062,ATS,B,21
14,test,3,C,mfborder.png,0,z,Thu Mar 19 2026 08:45:43 GMT-0500 (Central Daylight Time),638040.6000000238,CFD-BF-051-043-A.jpg,1600,dash,I,None,1516,2,1,62946.89999997616,575093.7000000477,8062,ATS,B,22
14,test,3,C,haborder.png,0,z,Thu Mar 19 2026 08:45:43 GMT-0500 (Central Daylight Time),640973.2000000477,CFD-WM-009-009-A.jpg,1400,solid,I,None,1516,7,1,65879.5,575093.7000000477,8062,ATS,B,23
14,test,3,C,haborder.png,0,m,Thu Mar 19 2026 08:45:43 GMT-0500 (Central Daylight Time),643505.6000000238,CFD-WF-011-006-HC.jpg,1000,solid,I,None,1516,12,1,68411.89999997616,575093.7000000477,8062,ATS,B,24
0,test,4,C,mfborder.png,0,m,Thu Mar 19 2026 08:45:43 GMT-0500 (Central Daylight Time),649903.5,CFD-BM-037-041-A.jpg,2000,dash,I,z,1301,5,1,3332.100000023842,646571.3999999762,8062,ATS,B,1
0,test,4,C,haborder.png,0,m,Thu Mar 19 2026 08:45:43 GMT-0500 (Central Daylight Time),652936.0,CFD-WM-011-006-HC.jpg,1500,solid,I,None,1516,11,1,6364.600000023842,646571.3999999762,8062,ATS,B,2
1,test,4,C,haborder.png,1,m,Thu Mar 19 2026 08:45:43 GMT-0500 (Central Daylight Time),655601.7000000477,CFD-BM-020-024-HC.jpg,1600,solid,I,m,1041,10,1,9030.300000071526,646571.3999999762,8062,ATS,B,3
2,test,4,C,mfborder.png,1,z,Thu Mar 19 2026 08:45:43 GMT-0500 (Central Daylight Time),658350.8999999762,CFD-BF-035-007-HC.jpg,1500,dash,I,z,1227,3,1,11779.5,646571.3999999762,8062,ATS,B,4
3,test,4,C,haborder.png,1,m,Thu Mar 19 2026 08:45:43 GMT-0500 (Central Daylight Time),661366.7000000477,CFD-WM-011-006-HC.jpg,1500,solid,I,m,1494,11,1,14795.300000071526,646571.3999999762,8062,ATS,B,5
4,test,4,C,haborder.png,1,m,Thu Mar 19 2026 08:45:43 GMT-0500 (Central Daylight Time),664082.3999999762,CFD-BM-020-024-HC.jpg,1600,solid,I,m,1090,10,1,17511.0,646571.3999999762,8062,ATS,B,6
5,test,4,C,mfborder.png,1,z,Thu Mar 19 2026 08:45:43 GMT-0500 (Central Daylight Time),667132.7000000477,CFD-WF-013-015-A.jpg,1600,dash,I,z,1430,2,1,20561.300000071526,646571.3999999762,8062,ATS,B,7
6,test,4,C,mfborder.png,1,m,Thu Mar 19 2026 08:45:43 GMT-0500 (Central Daylight Time),669447.6000000238,CFD-WM-009-009-A.jpg,1200,dash,I,m,1085,6,1,22876.200000047684,646571.3999999762,8062,ATS,B,8
7,test,4,C,haborder.png,1,m,Thu Mar 19 2026 08:45:43 GMT-0500 (Central Daylight Time),671763.3999999762,CFD-WM-011-006-HC.jpg,1000,solid,I,m,1297,12,1,25192.0,646571.3999999762,8062,ATS,B,9
8,test,4,C,mfborder.png,1,z,Thu Mar 19 2026 08:45:43 GMT-0500 (Central Daylight Time),674595.8999999762,CFD-BF-035-007-HC.jpg,1500,dash,I,z,1305,3,1,28024.5,646571.3999999762,8062,ATS,B,10
9,test,4,C,mfborder.png,1,m,Thu Mar 19 2026 08:45:43 GMT-0500 (Central Daylight Time),676728.5,CFD-BM-015-017-HC.jpg,1000,dash,I,m,1109,4,1,30157.100000023842,646571.3999999762,8062,ATS,B,11
10,test,4,C,haborder.png,1,z,Thu Mar 19 2026 08:45:43 GMT-0500 (Central Daylight Time),679794.3999999762,CFD-WF-026-008-A.jpg,1700,solid,I,z,1340,9,1,33223.0,646571.3999999762,8062,ATS,B,12
10,test,4,C,mfborder.png,0,z,Thu Mar 19 2026 08:45:43 GMT-0500 (Central Daylight Time),683026.6000000238,CFD-WF-011-006-HC.jpg,1700,dash,I,None,1516,1,1,36455.200000047684,646571.3999999762,8062,ATS,B,13
11,test,4,C,mfborder.png,1,z,Thu Mar 19 2026 08:45:43 GMT-0500 (Central Daylight Time),685409.5,CFD-WF-013-015-A.jpg,1600,dash,I,z,766,2,1,38838.10000002384,646571.3999999762,8062,ATS,B,14
12,test,4,C,mfborder.png,1,m,Thu Mar 19 2026 08:45:43 GMT-0500 (Central Daylight Time),687558.6000000238,CFD-WM-009-009-A.jpg,1200,dash,I,m,919,6,1,40987.200000047684,646571.3999999762,8062,ATS,B,15
13,test,4,C,mfborder.png,1,m,Thu Mar 19 2026 08:45:43 GMT-0500 (Central Daylight Time),689457.8000000715,CFD-BM-015-017-HC.jpg,1000,dash,I,m,882,4,1,42886.40000009537,646571.3999999762,8062,ATS,B,16
14,test,4,C,haborder.png,1,z,Thu Mar 19 2026 08:45:43 GMT-0500 (Central Daylight Time),692340.3000000715,CFD-BF-050-012-A.jpg,1900,solid,I,z,963,8,1,45768.90000009537,646571.3999999762,8062,ATS,B,17
15,test,4,C,haborder.png,1,m,Thu Mar 19 2026 08:45:43 GMT-0500 (Central Daylight Time),694239.8000000715,CFD-WM-011-006-HC.jpg,1000,solid,I,m,868,12,1,47668.40000009537,646571.3999999762,8062,ATS,B,18
15,test,4,C,haborder.png,0,z,Thu Mar 19 2026 08:45:43 GMT-0500 (Central Daylight Time),697538.8000000715,CFD-WF-026-008-A.jpg,1700,solid,I,None,1504,9,1,50967.40000009537,646571.3999999762,8062,ATS,B,19
16,test,4,C,haborder.png,1,z,Thu Mar 19 2026 08:45:43 GMT-0500 (Central Daylight Time),699721.5,CFD-BF-051-043-A.jpg,1400,solid,I,z,750,7,1,53150.10000002384,646571.3999999762,8062,ATS,B,20
17,test,4,C,mfborder.png,1,z,Thu Mar 19 2026 08:45:43 GMT-0500 (Central Daylight Time),702753.8000000715,CFD-WF-011-006-HC.jpg,1700,dash,I,z,1299,1,1,56182.40000009537,646571.3999999762,8062,ATS,B,21
17,test,4,C,haborder.png,0,z,Thu Mar 19 2026 08:45:43 GMT-0500 (Central Daylight Time),705686.2000000477,CFD-BF-051-043-A.jpg,1400,solid,I,None,1516,7,1,59114.800000071526,646571.3999999762,8062,ATS,B,22
17,test,4,C,mfborder.png,0,m,Thu Mar 19 2026 08:45:43 GMT-0500 (Central Daylight Time),709218.3999999762,CFD-BM-037-041-A.jpg,2000,dash,I,None,1516,5,1,62647.0,646571.3999999762,8062,ATS,B,23
17,test,4,C,haborder.png,0,z,Thu Mar 19 2026 08:45:43 GMT-0500 (Central Daylight Time),712650.7000000477,CFD-BF-050-012-A.jpg,1900,solid,I,None,1516,8,1,66079.30000007153,646571.3999999762,8062,ATS,B,24
