acc_sum,block,block_c,block_cond,con_img,correct,correct_response,datetime,endtime,face,jitter,line,project,response,response_time,row_sel,session_number,start_end,starttime,subject_id,task,task_vers,trial
1,prac,1,A,haborder.png,1,z,Thu Jun 11 2026 14:08:13 GMT-0500 (Central Daylight Time),63536.699999809265,CFD-BF-039-039-A.jpg,1200,solid,I,z,667,6,2,2665.899999856949,60870.799999952316,8062,ATS,A,1
2,prac,1,A,haborder.png,1,z,Thu Jun 11 2026 14:08:13 GMT-0500 (Central Daylight Time),66652.59999990463,CFD-BM-005-010-A.jpg,1600,solid,I,z,729,2,2,5781.799999952316,60870.799999952316,8062,ATS,A,2
3,prac,1,A,haborder.png,1,m,Thu Jun 11 2026 14:08:13 GMT-0500 (Central Daylight Time),69684.69999980927,CFD-WF-017-016-HC.jpg,1500,solid,I,m,736,11,2,8813.899999856949,60870.799999952316,8062,ATS,A,3
4,prac,1,A,haborder.png,1,m,Thu Jun 11 2026 14:08:13 GMT-0500 (Central Daylight Time),72784.0,CFD-BM-029-026-HC.jpg,1500,solid,I,m,808,3,2,11913.200000047684,60870.799999952316,8062,ATS,A,4
5,prac,1,A,haborder.png,1,m,Thu Jun 11 2026 14:08:13 GMT-0500 (Central Daylight Time),76182.39999985695,CFD-BF-028-020-HC.jpg,2000,solid,I,m,601,5,2,15311.599999904633,60870.799999952316,8062,ATS,A,5
6,prac,1,A,haborder.png,1,m,Thu Jun 11 2026 14:08:13 GMT-0500 (Central Daylight Time),79315.09999990463,CFD-WM-006-013-HC.jpg,1700,solid,I,m,639,9,2,18444.299999952316,60870.799999952316,8062,ATS,A,6
7,prac,1,A,haborder.png,1,m,Thu Jun 11 2026 14:08:13 GMT-0500 (Central Daylight Time),82080.89999985695,CFD-WM-004-005-HC.jpg,1400,solid,I,m,573,7,2,21210.099999904633,60870.799999952316,8062,ATS,A,7
8,prac,1,A,haborder.png,1,z,Thu Jun 11 2026 14:08:13 GMT-0500 (Central Daylight Time),84546.79999995232,CFD-BF-023-013-A.jpg,1000,solid,I,z,672,4,2,23676.0,60870.799999952316,8062,ATS,A,8
9,prac,1,A,haborder.png,1,m,Thu Jun 11 2026 14:08:13 GMT-0500 (Central Daylight Time),87696.79999995232,CFD-BM-017-052-HC.jpg,1700,solid,I,m,650,1,2,26826.0,60870.799999952316,8062,ATS,A,9
10,prac,1,A,haborder.png,1,z,Thu Jun 11 2026 14:08:13 GMT-0500 (Central Daylight Time),91178.0,CFD-WM-013-015-A.jpg,1900,solid,I,z,798,8,2,30307.200000047684,60870.799999952316,8062,ATS,A,10
11,prac,1,A,haborder.png,1,z,Thu Jun 11 2026 14:08:13 GMT-0500 (Central Daylight Time),93577.39999985695,CFD-WF-019-015-A.jpg,1000,solid,I,z,614,12,2,32706.599999904633,60870.799999952316,8062,ATS,A,11
12,prac,1,A,haborder.png,1,z,Thu Jun 11 2026 14:08:13 GMT-0500 (Central Daylight Time),96593.59999990463,CFD-WF-003-014-A.jpg,1600,solid,I,z,631,10,2,35722.799999952316,60870.799999952316,8062,ATS,A,12
1,prac,1,B,mfborder.png,1,z,Thu Jun 11 2026 14:08:13 GMT-0500 (Central Daylight Time),119870.0,CFD-BF-023-013-A.jpg,1000,dash,I,z,816,4,2,2683.4000000953674,117186.59999990463,8062,ATS,A,1
2,prac,1,B,mfborder.png,1,m,Thu Jun 11 2026 14:08:13 GMT-0500 (Central Daylight Time),122301.39999985695,CFD-WM-019-013-A.jpg,1200,dash,I,m,435,6,2,5114.799999952316,117186.59999990463,8062,ATS,A,2
3,prac,1,B,mfborder.png,1,m,Thu Jun 11 2026 14:08:13 GMT-0500 (Central Daylight Time),125567.29999995232,CFD-BM-029-026-HC.jpg,1700,dash,I,m,776,1,2,8380.700000047684,117186.59999990463,8062,ATS,A,3
4,prac,1,B,mfborder.png,1,m,Thu Jun 11 2026 14:08:13 GMT-0500 (Central Daylight Time),128516.19999980927,CFD-BM-010-019-A.jpg,1600,dash,I,m,562,2,2,11329.599999904633,117186.59999990463,8062,ATS,A,4
5,prac,1,B,mfborder.png,1,m,Thu Jun 11 2026 14:08:13 GMT-0500 (Central Daylight Time),131748.29999995232,CFD-WM-013-015-A.jpg,1700,dash,I,m,744,9,2,14561.700000047684,117186.59999990463,8062,ATS,A,5
6,prac,1,B,mfborder.png,1,m,Thu Jun 11 2026 14:08:13 GMT-0500 (Central Daylight Time),135064.09999990463,CFD-WM-006-013-HC.jpg,1600,dash,I,m,932,10,2,17877.5,117186.59999990463,8062,ATS,A,6
7,prac,1,B,mfborder.png,1,z,Thu Jun 11 2026 14:08:13 GMT-0500 (Central Daylight Time),137463.39999985695,CFD-WF-017-016-HC.jpg,1000,dash,I,z,609,12,2,20276.799999952316,117186.59999990463,8062,ATS,A,7
8,prac,1,B,mfborder.png,1,z,Thu Jun 11 2026 14:08:13 GMT-0500 (Central Daylight Time),140396.0,CFD-BF-010-005-HC.jpg,1500,dash,I,z,637,3,2,23209.400000095367,117186.59999990463,8062,ATS,A,8
9,prac,1,B,mfborder.png,1,m,Thu Jun 11 2026 14:08:13 GMT-0500 (Central Daylight Time),143828.29999995232,CFD-BM-005-010-A.jpg,2000,dash,I,m,637,5,2,26641.700000047684,117186.59999990463,8062,ATS,A,9
10,prac,1,B,mfborder.png,1,z,Thu Jun 11 2026 14:08:13 GMT-0500 (Central Daylight Time),146760.59999990463,CFD-BF-028-020-HC.jpg,1400,dash,I,z,733,7,2,29574.0,117186.59999990463,8062,ATS,A,10
11,prac,1,B,mfborder.png,1,z,Thu Jun 11 2026 14:08:13 GMT-0500 (Central Daylight Time),150126.0,CFD-WF-002-008-HC.jpg,1900,dash,I,z,677,8,2,32939.40000009537,117186.59999990463,8062,ATS,A,11
12,prac,1,B,mfborder.png,1,z,Thu Jun 11 2026 14:08:13 GMT-0500 (Central Daylight Time),152958.59999990463,CFD-WF-003-014-A.jpg,1500,dash,I,z,534,11,2,35772.0,117186.59999990463,8062,ATS,A,12
1,test,1,A,haborder.png,1,m,Thu Jun 11 2026 14:08:13 GMT-0500 (Central Daylight Time),168137.0,CFD-BM-017-052-HC.jpg,1700,solid,I,m,809,1,2,2532.800000190735,165604.19999980927,8062,ATS,A,1
2,test,1,A,haborder.png,1,m,Thu Jun 11 2026 14:08:13 GMT-0500 (Central Daylight Time),170519.79999995232,CFD-WM-006-013-HC.jpg,1700,solid,I,m,651,9,2,4915.600000143051,165604.19999980927,8062,ATS,A,2
3,test,1,A,haborder.png,1,m,Thu Jun 11 2026 14:08:13 GMT-0500 (Central Daylight Time),173068.89999985695,CFD-BF-028-020-HC.jpg,2000,solid,I,m,529,5,2,7464.700000047684,165604.19999980927,8062,ATS,A,3
4,test,1,A,haborder.png,1,m,Thu Jun 11 2026 14:08:13 GMT-0500 (Central Daylight Time),175101.69999980927,CFD-WF-017-016-HC.jpg,1500,solid,I,m,511,11,2,9497.5,165604.19999980927,8062,ATS,A,4
5,test,1,A,haborder.png,1,z,Thu Jun 11 2026 14:08:13 GMT-0500 (Central Daylight Time),177250.89999985695,CFD-BM-005-010-A.jpg,1600,solid,I,z,523,2,2,11646.700000047684,165604.19999980927,8062,ATS,A,5
6,test,1,A,haborder.png,1,z,Thu Jun 11 2026 14:08:13 GMT-0500 (Central Daylight Time),179433.69999980927,CFD-BM-005-010-A.jpg,1600,solid,I,z,567,2,2,13829.5,165604.19999980927,8062,ATS,A,6
7,test,1,A,haborder.png,1,m,Thu Jun 11 2026 14:08:13 GMT-0500 (Central Daylight Time),182067.09999990463,CFD-BM-017-052-HC.jpg,1700,solid,I,m,915,1,2,16462.900000095367,165604.19999980927,8062,ATS,A,7
8,test,1,A,haborder.png,1,z,Thu Jun 11 2026 14:08:13 GMT-0500 (Central Daylight Time),183949.19999980927,CFD-WF-019-015-A.jpg,1000,solid,I,z,854,12,2,18345.0,165604.19999980927,8062,ATS,A,8
9,test,1,A,haborder.png,1,m,Thu Jun 11 2026 14:08:13 GMT-0500 (Central Daylight Time),186281.39999985695,CFD-BM-029-026-HC.jpg,1500,solid,I,m,808,3,2,20677.200000047684,165604.19999980927,8062,ATS,A,9
10,test,1,A,haborder.png,1,z,Thu Jun 11 2026 14:08:13 GMT-0500 (Central Daylight Time),188861.5,CFD-WF-003-014-A.jpg,1600,solid,I,z,963,10,2,23257.300000190735,165604.19999980927,8062,ATS,A,10
11,test,1,A,haborder.png,1,z,Thu Jun 11 2026 14:08:13 GMT-0500 (Central Daylight Time),191079.79999995232,CFD-WF-003-014-A.jpg,1600,solid,I,z,593,10,2,25475.60000014305,165604.19999980927,8062,ATS,A,11
12,test,1,A,haborder.png,1,m,Thu Jun 11 2026 14:08:13 GMT-0500 (Central Daylight Time),193412.19999980927,CFD-WF-017-016-HC.jpg,1500,solid,I,m,813,11,2,27808.0,165604.19999980927,8062,ATS,A,12
13,test,1,A,haborder.png,1,z,Thu Jun 11 2026 14:08:13 GMT-0500 (Central Daylight Time),195945.29999995232,CFD-WM-013-015-A.jpg,1900,solid,I,z,600,8,2,30341.10000014305,165604.19999980927,8062,ATS,A,13
14,test,1,A,haborder.png,1,m,Thu Jun 11 2026 14:08:13 GMT-0500 (Central Daylight Time),198077.79999995232,CFD-WM-004-005-HC.jpg,1400,solid,I,m,711,7,2,32473.60000014305,165604.19999980927,8062,ATS,A,14
15,test,1,A,haborder.png,1,z,Thu Jun 11 2026 14:08:13 GMT-0500 (Central Daylight Time),199760.59999990463,CFD-BF-023-013-A.jpg,1000,solid,I,z,660,4,2,34156.40000009537,165604.19999980927,8062,ATS,A,15
16,test,1,A,haborder.png,1,z,Thu Jun 11 2026 14:08:13 GMT-0500 (Central Daylight Time),202026.59999990463,CFD-BF-039-039-A.jpg,1200,solid,I,z,1040,6,2,36422.40000009537,165604.19999980927,8062,ATS,A,16
17,test,1,A,haborder.png,1,m,Thu Jun 11 2026 14:08:13 GMT-0500 (Central Daylight Time),204792.19999980927,CFD-BF-028-020-HC.jpg,2000,solid,I,m,742,5,2,39188.0,165604.19999980927,8062,ATS,A,17
18,test,1,A,haborder.png,1,z,Thu Jun 11 2026 14:08:13 GMT-0500 (Central Daylight Time),206541.79999995232,CFD-BF-023-013-A.jpg,1000,solid,I,z,720,4,2,40937.60000014305,165604.19999980927,8062,ATS,A,18
19,test,1,A,haborder.png,1,z,Thu Jun 11 2026 14:08:13 GMT-0500 (Central Daylight Time),208424.5,CFD-BF-039-039-A.jpg,1200,solid,I,z,659,6,2,42820.300000190735,165604.19999980927,8062,ATS,A,19
20,test,1,A,haborder.png,1,m,Thu Jun 11 2026 14:08:13 GMT-0500 (Central Daylight Time),210824.0,CFD-WM-006-013-HC.jpg,1700,solid,I,m,676,9,2,45219.800000190735,165604.19999980927,8062,ATS,A,20
21,test,1,A,haborder.png,1,m,Thu Jun 11 2026 14:08:13 GMT-0500 (Central Daylight Time),212839.59999990463,CFD-WM-004-005-HC.jpg,1400,solid,I,m,594,7,2,47235.40000009537,165604.19999980927,8062,ATS,A,21
22,test,1,A,haborder.png,1,z,Thu Jun 11 2026 14:08:13 GMT-0500 (Central Daylight Time),215422.19999980927,CFD-WM-013-015-A.jpg,1900,solid,I,z,653,8,2,49818.0,165604.19999980927,8062,ATS,A,22
23,test,1,A,haborder.png,1,m,Thu Jun 11 2026 14:08:13 GMT-0500 (Central Daylight Time),217638.09999990463,CFD-BM-029-026-HC.jpg,1500,solid,I,m,694,3,2,52033.90000009537,165604.19999980927,8062,ATS,A,23
24,test,1,A,haborder.png,1,z,Thu Jun 11 2026 14:08:13 GMT-0500 (Central Daylight Time),219388.89999985695,CFD-WF-019-015-A.jpg,1000,solid,I,z,731,12,2,53784.700000047684,165604.19999980927,8062,ATS,A,24
1,test,1,B,mfborder.png,1,z,Thu Jun 11 2026 14:08:13 GMT-0500 (Central Daylight Time),231850.09999990463,CFD-BF-028-020-HC.jpg,1400,dash,I,z,1199,7,2,2615.5,229234.59999990463,8062,ATS,A,1
2,test,1,B,mfborder.png,1,m,Thu Jun 11 2026 14:08:13 GMT-0500 (Central Daylight Time),234449.5,CFD-BM-005-010-A.jpg,2000,dash,I,m,575,5,2,5214.900000095367,229234.59999990463,8062,ATS,A,2
3,test,1,B,mfborder.png,1,z,Thu Jun 11 2026 14:08:13 GMT-0500 (Central Daylight Time),237015.5,CFD-WF-002-008-HC.jpg,1900,dash,I,z,636,8,2,7780.900000095367,229234.59999990463,8062,ATS,A,3
4,test,1,B,mfborder.png,1,z,Thu Jun 11 2026 14:08:13 GMT-0500 (Central Daylight Time),239248.19999980927,CFD-WF-003-014-A.jpg,1500,dash,I,z,710,11,2,10013.599999904633,229234.59999990463,8062,ATS,A,4
5,test,1,B,mfborder.png,1,m,Thu Jun 11 2026 14:08:13 GMT-0500 (Central Daylight Time),241830.79999995232,CFD-BM-005-010-A.jpg,2000,dash,I,m,552,5,2,12596.200000047684,229234.59999990463,8062,ATS,A,5
6,test,1,B,mfborder.png,1,m,Thu Jun 11 2026 14:08:13 GMT-0500 (Central Daylight Time),244146.89999985695,CFD-WM-013-015-A.jpg,1700,dash,I,m,591,9,2,14912.299999952316,229234.59999990463,8062,ATS,A,6
7,test,1,B,mfborder.png,1,m,Thu Jun 11 2026 14:08:13 GMT-0500 (Central Daylight Time),246329.39999985695,CFD-BM-029-026-HC.jpg,1700,dash,I,m,459,1,2,17094.799999952316,229234.59999990463,8062,ATS,A,7
8,test,1,B,mfborder.png,1,z,Thu Jun 11 2026 14:08:13 GMT-0500 (Central Daylight Time),248611.59999990463,CFD-WF-003-014-A.jpg,1500,dash,I,z,765,11,2,19377.0,229234.59999990463,8062,ATS,A,8
9,test,1,B,mfborder.png,1,m,Thu Jun 11 2026 14:08:13 GMT-0500 (Central Daylight Time),250527.79999995232,CFD-WM-019-013-A.jpg,1200,dash,I,m,694,6,2,21293.200000047684,229234.59999990463,8062,ATS,A,9
10,test,1,B,mfborder.png,1,z,Thu Jun 11 2026 14:08:13 GMT-0500 (Central Daylight Time),252327.29999995232,CFD-BF-023-013-A.jpg,1000,dash,I,z,777,4,2,23092.700000047684,229234.59999990463,8062,ATS,A,10
11,test,1,B,mfborder.png,1,z,Thu Jun 11 2026 14:08:13 GMT-0500 (Central Daylight Time),254826.29999995232,CFD-WF-002-008-HC.jpg,1900,dash,I,z,582,8,2,25591.700000047684,229234.59999990463,8062,ATS,A,11
12,test,1,B,mfborder.png,1,z,Thu Jun 11 2026 14:08:13 GMT-0500 (Central Daylight Time),256526.19999980927,CFD-WF-017-016-HC.jpg,1000,dash,I,z,678,12,2,27291.599999904633,229234.59999990463,8062,ATS,A,12
13,test,1,B,mfborder.png,1,m,Thu Jun 11 2026 14:08:13 GMT-0500 (Central Daylight Time),258842.19999980927,CFD-BM-010-019-A.jpg,1600,dash,I,m,683,2,2,29607.599999904633,229234.59999990463,8062,ATS,A,13
14,test,1,B,mfborder.png,1,m,Thu Jun 11 2026 14:08:13 GMT-0500 (Central Daylight Time),260691.29999995232,CFD-WM-019-013-A.jpg,1200,dash,I,m,623,6,2,31456.700000047684,229234.59999990463,8062,ATS,A,14
15,test,1,B,mfborder.png,1,m,Thu Jun 11 2026 14:08:13 GMT-0500 (Central Daylight Time),263040.69999980927,CFD-WM-006-013-HC.jpg,1600,dash,I,m,717,10,2,33806.09999990463,229234.59999990463,8062,ATS,A,15
16,test,1,B,mfborder.png,1,z,Thu Jun 11 2026 14:08:13 GMT-0500 (Central Daylight Time),264656.69999980927,CFD-WF-017-016-HC.jpg,1000,dash,I,z,592,12,2,35422.09999990463,229234.59999990463,8062,ATS,A,16
17,test,1,B,mfborder.png,1,m,Thu Jun 11 2026 14:08:13 GMT-0500 (Central Daylight Time),267056.2999999523,CFD-BM-029-026-HC.jpg,1700,dash,I,m,676,1,2,37821.700000047684,229234.59999990463,8062,ATS,A,17
18,test,1,B,mfborder.png,1,z,Thu Jun 11 2026 14:08:13 GMT-0500 (Central Daylight Time),269121.89999985695,CFD-BF-028-020-HC.jpg,1400,dash,I,z,649,7,2,39887.299999952316,229234.59999990463,8062,ATS,A,18
19,test,1,B,mfborder.png,1,m,Thu Jun 11 2026 14:08:13 GMT-0500 (Central Daylight Time),271638.09999990463,CFD-WM-006-013-HC.jpg,1600,dash,I,m,895,10,2,42403.5,229234.59999990463,8062,ATS,A,19
20,test,1,B,mfborder.png,1,m,Thu Jun 11 2026 14:08:13 GMT-0500 (Central Daylight Time),273988.2999999523,CFD-WM-013-015-A.jpg,1700,dash,I,m,630,9,2,44753.700000047684,229234.59999990463,8062,ATS,A,20
21,test,1,B,mfborder.png,1,z,Thu Jun 11 2026 14:08:13 GMT-0500 (Central Daylight Time),276236.5,CFD-BF-010-005-HC.jpg,1500,dash,I,z,721,3,2,47001.90000009537,229234.59999990463,8062,ATS,A,21
22,test,1,B,mfborder.png,1,z,Thu Jun 11 2026 14:08:13 GMT-0500 (Central Daylight Time),277869.39999985695,CFD-BF-023-013-A.jpg,1000,dash,I,z,604,4,2,48634.799999952316,229234.59999990463,8062,ATS,A,22
23,test,1,B,mfborder.png,1,z,Thu Jun 11 2026 14:08:13 GMT-0500 (Central Daylight Time),279935.5,CFD-BF-010-005-HC.jpg,1500,dash,I,z,536,3,2,50700.90000009537,229234.59999990463,8062,ATS,A,23
24,test,1,B,mfborder.png,1,m,Thu Jun 11 2026 14:08:13 GMT-0500 (Central Daylight Time),282168.2999999523,CFD-BM-010-019-A.jpg,1600,dash,I,m,601,2,2,52933.700000047684,229234.59999990463,8062,ATS,A,24
1,prac,1,C,mfborder.png,1,m,Thu Jun 11 2026 14:08:13 GMT-0500 (Central Daylight Time),313208.5,CFD-BM-017-052-HC.jpg,2000,solid,I,m,1024,4,2,3815.800000190735,309392.69999980927,8062,ATS,A,1
2,prac,1,C,haborder.png,1,m,Thu Jun 11 2026 14:08:13 GMT-0500 (Central Daylight Time),316623.7999999523,CFD-BM-029-026-HC.jpg,1500,solid,I,m,1132,10,2,7231.100000143051,309392.69999980927,8062,ATS,A,2
2,prac,1,C,mfborder.png,0,m,Thu Jun 11 2026 14:08:13 GMT-0500 (Central Daylight Time),319456.2999999523,CFD-BM-005-010-A.jpg,1200,dash,I,z,848,5,2,10063.600000143051,309392.69999980927,8062,ATS,A,3
3,prac,1,C,haborder.png,1,m,Thu Jun 11 2026 14:08:13 GMT-0500 (Central Daylight Time),322422.2999999523,CFD-WM-004-005-HC.jpg,1000,dash,I,m,1177,11,2,13029.600000143051,309392.69999980927,8062,ATS,A,4
3,prac,1,C,mfborder.png,0,z,Thu Jun 11 2026 14:08:13 GMT-0500 (Central Daylight Time),325821.2999999523,CFD-WF-017-016-HC.jpg,1600,dash,I,m,1003,1,2,16428.60000014305,309392.69999980927,8062,ATS,A,5
4,prac,1,C,haborder.png,1,z,Thu Jun 11 2026 14:08:13 GMT-0500 (Central Daylight Time),329186.7999999523,CFD-BF-039-039-A.jpg,1700,solid,I,z,879,8,2,19794.10000014305,309392.69999980927,8062,ATS,A,6
5,prac,1,C,mfborder.png,1,z,Thu Jun 11 2026 14:08:13 GMT-0500 (Central Daylight Time),332485.69999980927,CFD-WF-019-015-A.jpg,1500,solid,I,z,1002,2,2,23093.0,309392.69999980927,8062,ATS,A,7
6,prac,1,C,haborder.png,1,m,Thu Jun 11 2026 14:08:13 GMT-0500 (Central Daylight Time),335434.59999990463,CFD-WM-004-005-HC.jpg,1400,solid,I,m,755,12,2,26041.900000095367,309392.69999980927,8062,ATS,A,8
7,prac,1,C,haborder.png,1,z,Thu Jun 11 2026 14:08:13 GMT-0500 (Central Daylight Time),339133.59999990463,CFD-BF-023-013-A.jpg,1900,dash,I,z,1010,7,2,29740.900000095367,309392.69999980927,8062,ATS,A,9
7,prac,1,C,mfborder.png,0,z,Thu Jun 11 2026 14:08:13 GMT-0500 (Central Daylight Time),341832.59999990463,CFD-BF-028-020-HC.jpg,1000,dash,I,m,907,3,2,32439.900000095367,309392.69999980927,8062,ATS,A,10
7,prac,1,C,mfborder.png,0,m,Thu Jun 11 2026 14:08:13 GMT-0500 (Central Daylight Time),345831.59999990463,CFD-WM-013-015-A.jpg,1700,solid,I,None,1516,6,2,36438.90000009537,309392.69999980927,8062,ATS,A,11
7,prac,1,C,haborder.png,0,z,Thu Jun 11 2026 14:08:13 GMT-0500 (Central Daylight Time),349380.09999990463,CFD-WF-003-014-A.jpg,1600,dash,I,m,1162,9,2,39987.40000009537,309392.69999980927,8062,ATS,A,12
0,prac,2,C,haborder.png,0,m,Thu Jun 11 2026 14:08:13 GMT-0500 (Central Daylight Time),357844.39999985695,CFD-BM-029-026-HC.jpg,1500,solid,I,None,1516,10,2,48451.700000047684,309392.69999980927,8062,ATS,A,1
0,prac,2,C,haborder.png,0,m,Thu Jun 11 2026 14:08:13 GMT-0500 (Central Daylight Time),361543.09999990463,CFD-WM-004-005-HC.jpg,1400,solid,I,None,1516,12,2,52150.40000009537,309392.69999980927,8062,ATS,A,2
0,prac,2,C,mfborder.png,0,m,Thu Jun 11 2026 14:08:13 GMT-0500 (Central Daylight Time),365541.89999985695,CFD-WM-013-015-A.jpg,1700,solid,I,None,1516,6,2,56149.200000047684,309392.69999980927,8062,ATS,A,3
1,prac,2,C,haborder.png,1,z,Thu Jun 11 2026 14:08:13 GMT-0500 (Central Daylight Time),369490.69999980927,CFD-BF-023-013-A.jpg,1900,dash,I,z,1262,7,2,60098.0,309392.69999980927,8062,ATS,A,4
1,prac,2,C,mfborder.png,0,z,Thu Jun 11 2026 14:08:13 GMT-0500 (Central Daylight Time),373389.5,CFD-WF-017-016-HC.jpg,1600,dash,I,None,1516,1,2,63996.800000190735,309392.69999980927,8062,ATS,A,5
1,prac,2,C,haborder.png,0,z,Thu Jun 11 2026 14:08:13 GMT-0500 (Central Daylight Time),376471.69999980927,CFD-WF-003-014-A.jpg,1600,dash,I,m,684,9,2,67079.0,309392.69999980927,8062,ATS,A,6
2,prac,2,C,mfborder.png,1,z,Thu Jun 11 2026 14:08:13 GMT-0500 (Central Daylight Time),379354.2999999523,CFD-BF-028-020-HC.jpg,1000,dash,I,z,1010,3,2,69961.60000014305,309392.69999980927,8062,ATS,A,7
2,prac,2,C,mfborder.png,0,m,Thu Jun 11 2026 14:08:13 GMT-0500 (Central Daylight Time),382053.69999980927,CFD-BM-005-010-A.jpg,1200,dash,I,z,710,5,2,72661.0,309392.69999980927,8062,ATS,A,8
3,prac,2,C,mfborder.png,1,m,Thu Jun 11 2026 14:08:13 GMT-0500 (Central Daylight Time),385535.59999990463,CFD-BM-017-052-HC.jpg,2000,solid,I,m,691,4,2,76142.90000009537,309392.69999980927,8062,ATS,A,9
4,prac,2,C,haborder.png,1,m,Thu Jun 11 2026 14:08:13 GMT-0500 (Central Daylight Time),387835.0,CFD-WM-004-005-HC.jpg,1000,dash,I,m,504,11,2,78442.30000019073,309392.69999980927,8062,ATS,A,10
5,prac,2,C,haborder.png,1,z,Thu Jun 11 2026 14:08:13 GMT-0500 (Central Daylight Time),391000.69999980927,CFD-BF-039-039-A.jpg,1700,solid,I,z,683,8,2,81608.0,309392.69999980927,8062,ATS,A,11
6,prac,2,C,mfborder.png,1,z,Thu Jun 11 2026 14:08:13 GMT-0500 (Central Daylight Time),393949.69999980927,CFD-WF-019-015-A.jpg,1500,solid,I,z,652,2,2,84557.0,309392.69999980927,8062,ATS,A,12
1,test,1,C,haborder.png,1,z,Thu Jun 11 2026 14:08:13 GMT-0500 (Central Daylight Time),410810.7999999523,CFD-BM-005-010-A.jpg,1900,solid,I,z,932,8,2,2848.2999999523163,407962.5,8062,ATS,A,1
2,test,1,C,haborder.png,1,m,Thu Jun 11 2026 14:08:13 GMT-0500 (Central Daylight Time),413193.5,CFD-WF-002-008-HC.jpg,1500,solid,I,m,858,11,2,5231.0,407962.5,8062,ATS,A,2
2,test,1,C,mfborder.png,0,m,Thu Jun 11 2026 14:08:13 GMT-0500 (Central Daylight Time),415927.39999985695,CFD-BM-029-026-HC.jpg,1200,dash,I,None,1517,6,2,7964.899999856949,407962.5,8062,ATS,A,3
2,test,1,C,haborder.png,0,z,Thu Jun 11 2026 14:08:13 GMT-0500 (Central Daylight Time),419158.69999980927,CFD-BM-010-019-A.jpg,1700,solid,I,None,1516,9,2,11196.199999809265,407962.5,8062,ATS,A,4
2,test,1,C,mfborder.png,0,z,Thu Jun 11 2026 14:08:13 GMT-0500 (Central Daylight Time),422290.89999985695,CFD-BF-023-013-A.jpg,1600,dash,I,None,1516,2,2,14328.399999856949,407962.5,8062,ATS,A,5
2,test,1,C,mfborder.png,0,m,Thu Jun 11 2026 14:08:13 GMT-0500 (Central Daylight Time),425323.09999990463,CFD-WM-019-013-A.jpg,2000,dash,I,z,1014,5,2,17360.599999904633,407962.5,8062,ATS,A,6
2,test,1,C,mfborder.png,0,z,Thu Jun 11 2026 14:08:13 GMT-0500 (Central Daylight Time),427922.09999990463,CFD-BF-010-005-HC.jpg,1700,dash,I,m,881,1,2,19959.599999904633,407962.5,8062,ATS,A,7
3,test,1,C,haborder.png,1,m,Thu Jun 11 2026 14:08:13 GMT-0500 (Central Daylight Time),430205.0,CFD-WF-017-016-HC.jpg,1000,solid,I,m,1262,12,2,22242.5,407962.5,8062,ATS,A,8
3,test,1,C,haborder.png,0,z,Thu Jun 11 2026 14:08:13 GMT-0500 (Central Daylight Time),433137.59999990463,CFD-WM-013-015-A.jpg,1400,solid,I,None,1516,7,2,25175.099999904633,407962.5,8062,ATS,A,9
3,test,1,C,haborder.png,0,z,Thu Jun 11 2026 14:08:13 GMT-0500 (Central Daylight Time),435686.69999980927,CFD-BM-010-019-A.jpg,1700,solid,I,m,819,9,2,27724.199999809265,407962.5,8062,ATS,A,10
4,test,1,C,mfborder.png,1,z,Thu Jun 11 2026 14:08:13 GMT-0500 (Central Daylight Time),438352.59999990463,CFD-BF-023-013-A.jpg,1600,dash,I,z,1034,2,2,30390.099999904633,407962.5,8062,ATS,A,11
4,test,1,C,mfborder.png,0,z,Thu Jun 11 2026 14:08:13 GMT-0500 (Central Daylight Time),440934.7999999523,CFD-WF-003-014-A.jpg,1500,dash,I,m,1053,3,2,32972.299999952316,407962.5,8062,ATS,A,12
5,test,1,C,haborder.png,1,z,Thu Jun 11 2026 14:08:13 GMT-0500 (Central Daylight Time),444017.5,CFD-BM-005-010-A.jpg,1900,solid,I,z,1166,8,2,36055.0,407962.5,8062,ATS,A,13
5,test,1,C,haborder.png,0,m,Thu Jun 11 2026 14:08:13 GMT-0500 (Central Daylight Time),446716.39999985695,CFD-BF-028-020-HC.jpg,1600,solid,I,z,1071,10,2,38753.89999985695,407962.5,8062,ATS,A,14
5,test,1,C,haborder.png,0,m,Thu Jun 11 2026 14:08:13 GMT-0500 (Central Daylight Time),448882.5,CFD-WF-002-008-HC.jpg,1500,solid,I,z,591,11,2,40920.0,407962.5,8062,ATS,A,15
5,test,1,C,mfborder.png,0,z,Thu Jun 11 2026 14:08:13 GMT-0500 (Central Daylight Time),451731.19999980927,CFD-BF-010-005-HC.jpg,1700,dash,I,m,1131,1,2,43768.699999809265,407962.5,8062,ATS,A,16
5,test,1,C,mfborder.png,0,m,Thu Jun 11 2026 14:08:13 GMT-0500 (Central Daylight Time),454830.5,CFD-WM-019-013-A.jpg,2000,dash,I,z,1077,5,2,46868.0,407962.5,8062,ATS,A,17
6,test,1,C,haborder.png,1,m,Thu Jun 11 2026 14:08:13 GMT-0500 (Central Daylight Time),457280.2999999523,CFD-BF-028-020-HC.jpg,1600,solid,I,m,818,10,2,49317.799999952316,407962.5,8062,ATS,A,18
7,test,1,C,mfborder.png,1,m,Thu Jun 11 2026 14:08:13 GMT-0500 (Central Daylight Time),459096.09999990463,CFD-WM-006-013-HC.jpg,1000,dash,I,m,784,4,2,51133.59999990463,407962.5,8062,ATS,A,19
8,test,1,C,mfborder.png,1,m,Thu Jun 11 2026 14:08:13 GMT-0500 (Central Daylight Time),461078.69999980927,CFD-BM-029-026-HC.jpg,1200,dash,I,m,752,6,2,53116.199999809265,407962.5,8062,ATS,A,20
9,test,1,C,mfborder.png,1,z,Thu Jun 11 2026 14:08:13 GMT-0500 (Central Daylight Time),463628.0,CFD-WF-003-014-A.jpg,1500,dash,I,z,1030,3,2,55665.5,407962.5,8062,ATS,A,21
10,test,1,C,haborder.png,1,m,Thu Jun 11 2026 14:08:13 GMT-0500 (Central Daylight Time),465527.19999980927,CFD-WF-017-016-HC.jpg,1000,solid,I,m,870,12,2,57564.699999809265,407962.5,8062,ATS,A,22
10,test,1,C,haborder.png,0,z,Thu Jun 11 2026 14:08:13 GMT-0500 (Central Daylight Time),468459.7999999523,CFD-WM-013-015-A.jpg,1400,solid,I,None,1517,7,2,60497.299999952316,407962.5,8062,ATS,A,23
10,test,1,C,mfborder.png,0,m,Thu Jun 11 2026 14:08:13 GMT-0500 (Central Daylight Time),470992.19999980927,CFD-WM-006-013-HC.jpg,1000,dash,I,None,1516,4,2,63029.699999809265,407962.5,8062,ATS,A,24
1,test,2,C,haborder.png,1,z,Thu Jun 11 2026 14:08:13 GMT-0500 (Central Daylight Time),485287.69999980927,CFD-BF-039-039-A.jpg,1900,solid,I,z,1294,8,2,3215.5999999046326,482072.09999990463,8062,ATS,A,1
2,test,2,C,mfborder.png,1,z,Thu Jun 11 2026 14:08:13 GMT-0500 (Central Daylight Time),488253.5,CFD-WF-017-016-HC.jpg,1700,dash,I,z,1246,1,2,6181.400000095367,482072.09999990463,8062,ATS,A,2
3,test,2,C,haborder.png,1,m,Thu Jun 11 2026 14:08:13 GMT-0500 (Central Daylight Time),491219.39999985695,CFD-BM-029-026-HC.jpg,1600,solid,I,m,1340,10,2,9147.299999952316,482072.09999990463,8062,ATS,A,3
3,test,2,C,mfborder.png,0,z,Thu Jun 11 2026 14:08:13 GMT-0500 (Central Daylight Time),494351.39999985695,CFD-WF-019-015-A.jpg,1600,dash,I,None,1515,2,2,12279.299999952316,482072.09999990463,8062,ATS,A,4
3,test,2,C,mfborder.png,0,m,Thu Jun 11 2026 14:08:13 GMT-0500 (Central Daylight Time),497617.19999980927,CFD-BM-005-010-A.jpg,2000,dash,I,z,1233,5,2,15545.099999904633,482072.09999990463,8062,ATS,A,5
3,test,2,C,haborder.png,0,z,Thu Jun 11 2026 14:08:13 GMT-0500 (Central Daylight Time),500199.69999980927,CFD-BF-023-013-A.jpg,1400,solid,I,m,1159,7,2,18127.599999904633,482072.09999990463,8062,ATS,A,6
4,test,2,C,mfborder.png,1,z,Thu Jun 11 2026 14:08:13 GMT-0500 (Central Daylight Time),502415.7999999523,CFD-WF-017-016-HC.jpg,1700,dash,I,z,494,1,2,20343.700000047684,482072.09999990463,8062,ATS,A,7
4,test,2,C,haborder.png,0,z,Thu Jun 11 2026 14:08:13 GMT-0500 (Central Daylight Time),504965.09999990463,CFD-WF-003-014-A.jpg,1700,solid,I,m,830,9,2,22893.0,482072.09999990463,8062,ATS,A,8
5,test,2,C,haborder.png,1,m,Thu Jun 11 2026 14:08:13 GMT-0500 (Central Daylight Time),507414.09999990463,CFD-WM-004-005-HC.jpg,1500,solid,I,m,921,11,2,25342.0,482072.09999990463,8062,ATS,A,9
5,test,2,C,haborder.png,0,z,Thu Jun 11 2026 14:08:13 GMT-0500 (Central Daylight Time),510463.19999980927,CFD-BF-039-039-A.jpg,1900,solid,I,m,1118,8,2,28391.099999904633,482072.09999990463,8062,ATS,A,10
6,test,2,C,haborder.png,1,m,Thu Jun 11 2026 14:08:13 GMT-0500 (Central Daylight Time),512529.2999999523,CFD-WM-004-005-HC.jpg,1000,solid,I,m,1033,12,2,30457.200000047684,482072.09999990463,8062,ATS,A,11
7,test,2,C,mfborder.png,1,z,Thu Jun 11 2026 14:08:13 GMT-0500 (Central Daylight Time),515128.59999990463,CFD-WF-019-015-A.jpg,1600,dash,I,z,976,2,2,33056.5,482072.09999990463,8062,ATS,A,12
8,test,2,C,haborder.png,1,z,Thu Jun 11 2026 14:08:13 GMT-0500 (Central Daylight Time),517511.09999990463,CFD-BF-023-013-A.jpg,1400,solid,I,z,961,7,2,35439.0,482072.09999990463,8062,ATS,A,13
8,test,2,C,mfborder.png,0,z,Thu Jun 11 2026 14:08:13 GMT-0500 (Central Daylight Time),519993.5,CFD-BF-028-020-HC.jpg,1500,dash,I,m,956,3,2,37921.40000009537,482072.09999990463,8062,ATS,A,14
9,test,2,C,haborder.png,1,z,Thu Jun 11 2026 14:08:13 GMT-0500 (Central Daylight Time),523025.89999985695,CFD-WF-003-014-A.jpg,1700,solid,I,z,1308,9,2,40953.799999952316,482072.09999990463,8062,ATS,A,15
9,test,2,C,mfborder.png,0,z,Thu Jun 11 2026 14:08:13 GMT-0500 (Central Daylight Time),525541.6999998093,CFD-BF-028-020-HC.jpg,1500,dash,I,m,988,3,2,43469.59999990463,482072.09999990463,8062,ATS,A,16
10,test,2,C,mfborder.png,1,m,Thu Jun 11 2026 14:08:13 GMT-0500 (Central Daylight Time),527774.2999999523,CFD-WM-013-015-A.jpg,1200,dash,I,m,1011,6,2,45702.200000047684,482072.09999990463,8062,ATS,A,17
10,test,2,C,mfborder.png,0,m,Thu Jun 11 2026 14:08:13 GMT-0500 (Central Daylight Time),530923.399999857,CFD-BM-005-010-A.jpg,2000,dash,I,z,1123,5,2,48851.299999952316,482072.09999990463,8062,ATS,A,18
10,test,2,C,mfborder.png,0,m,Thu Jun 11 2026 14:08:13 GMT-0500 (Central Daylight Time),532739.399999857,CFD-WM-013-015-A.jpg,1200,dash,I,z,589,6,2,50667.299999952316,482072.09999990463,8062,ATS,A,19
11,test,2,C,mfborder.png,1,m,Thu Jun 11 2026 14:08:13 GMT-0500 (Central Daylight Time),534605.5999999046,CFD-BM-017-052-HC.jpg,1000,dash,I,m,837,4,2,52533.5,482072.09999990463,8062,ATS,A,20
12,test,2,C,mfborder.png,1,m,Thu Jun 11 2026 14:08:13 GMT-0500 (Central Daylight Time),536771.6999998093,CFD-BM-017-052-HC.jpg,1000,dash,I,m,1140,4,2,54699.59999990463,482072.09999990463,8062,ATS,A,21
12,test,2,C,haborder.png,0,m,Thu Jun 11 2026 14:08:13 GMT-0500 (Central Daylight Time),539804.0,CFD-WM-004-005-HC.jpg,1500,solid,I,None,1516,11,2,57731.90000009537,482072.09999990463,8062,ATS,A,22
13,test,2,C,haborder.png,1,m,Thu Jun 11 2026 14:08:13 GMT-0500 (Central Daylight Time),542136.7999999523,CFD-BM-029-026-HC.jpg,1600,solid,I,m,701,10,2,60064.700000047684,482072.09999990463,8062,ATS,A,23
14,test,2,C,haborder.png,1,m,Thu Jun 11 2026 14:08:13 GMT-0500 (Central Daylight Time),543852.399999857,CFD-WM-004-005-HC.jpg,1000,solid,I,m,697,12,2,61780.299999952316,482072.09999990463,8062,ATS,A,24
1,test,3,C,mfborder.png,1,z,Thu Jun 11 2026 14:08:13 GMT-0500 (Central Daylight Time),552716.5,CFD-WF-003-014-A.jpg,1500,dash,I,z,1146,3,2,2664.7000000476837,550051.7999999523,8062,ATS,A,1
2,test,3,C,haborder.png,1,z,Thu Jun 11 2026 14:08:13 GMT-0500 (Central Daylight Time),555565.399999857,CFD-BM-010-019-A.jpg,1700,solid,I,z,1120,9,2,5513.599999904633,550051.7999999523,8062,ATS,A,2
3,test,3,C,haborder.png,1,z,Thu Jun 11 2026 14:08:13 GMT-0500 (Central Daylight Time),558214.6999998093,CFD-BM-010-019-A.jpg,1700,solid,I,z,928,9,2,8162.899999856949,550051.7999999523,8062,ATS,A,3
3,test,3,C,mfborder.png,0,z,Thu Jun 11 2026 14:08:13 GMT-0500 (Central Daylight Time),561097.0999999046,CFD-BF-010-005-HC.jpg,1700,dash,I,m,1150,1,2,11045.299999952316,550051.7999999523,8062,ATS,A,4
3,test,3,C,haborder.png,0,z,Thu Jun 11 2026 14:08:13 GMT-0500 (Central Daylight Time),564530.2999999523,CFD-BM-005-010-A.jpg,1900,solid,I,None,1516,8,2,14478.5,550051.7999999523,8062,ATS,A,5
4,test,3,C,mfborder.png,1,m,Thu Jun 11 2026 14:08:13 GMT-0500 (Central Daylight Time),566828.7999999523,CFD-BM-029-026-HC.jpg,1200,dash,I,m,947,6,2,16777.0,550051.7999999523,8062,ATS,A,6
4,test,3,C,haborder.png,0,z,Thu Jun 11 2026 14:08:13 GMT-0500 (Central Daylight Time),569977.6999998093,CFD-BM-005-010-A.jpg,1900,solid,I,m,1225,8,2,19925.89999985695,550051.7999999523,8062,ATS,A,7
5,test,3,C,mfborder.png,1,z,Thu Jun 11 2026 14:08:13 GMT-0500 (Central Daylight Time),572577.0999999046,CFD-BF-023-013-A.jpg,1600,dash,I,z,975,2,2,22525.299999952316,550051.7999999523,8062,ATS,A,8
6,test,3,C,haborder.png,1,z,Thu Jun 11 2026 14:08:13 GMT-0500 (Central Daylight Time),575009.2999999523,CFD-WM-013-015-A.jpg,1400,solid,I,z,1015,7,2,24957.5,550051.7999999523,8062,ATS,A,9
7,test,3,C,mfborder.png,1,z,Thu Jun 11 2026 14:08:13 GMT-0500 (Central Daylight Time),577492.0999999046,CFD-WF-003-014-A.jpg,1500,dash,I,z,963,3,2,27440.299999952316,550051.7999999523,8062,ATS,A,10
8,test,3,C,haborder.png,1,m,Thu Jun 11 2026 14:08:13 GMT-0500 (Central Daylight Time),579491.6999998093,CFD-WF-017-016-HC.jpg,1000,solid,I,m,973,12,2,29439.89999985695,550051.7999999523,8062,ATS,A,11
9,test,3,C,mfborder.png,1,z,Thu Jun 11 2026 14:08:13 GMT-0500 (Central Daylight Time),582107.399999857,CFD-BF-010-005-HC.jpg,1700,dash,I,z,897,1,2,32055.599999904633,550051.7999999523,8062,ATS,A,12
10,test,3,C,mfborder.png,1,z,Thu Jun 11 2026 14:08:13 GMT-0500 (Central Daylight Time),584706.5,CFD-BF-023-013-A.jpg,1600,dash,I,z,973,2,2,34654.700000047684,550051.7999999523,8062,ATS,A,13
11,test,3,C,haborder.png,1,m,Thu Jun 11 2026 14:08:13 GMT-0500 (Central Daylight Time),587505.6999998093,CFD-BF-028-020-HC.jpg,1600,solid,I,m,1174,10,2,37453.89999985695,550051.7999999523,8062,ATS,A,14
11,test,3,C,haborder.png,0,m,Thu Jun 11 2026 14:08:13 GMT-0500 (Central Daylight Time),590005.0999999046,CFD-BF-028-020-HC.jpg,1600,solid,I,z,872,10,2,39953.299999952316,550051.7999999523,8062,ATS,A,15
11,test,3,C,haborder.png,0,z,Thu Jun 11 2026 14:08:13 GMT-0500 (Central Daylight Time),592537.5999999046,CFD-WM-013-015-A.jpg,1400,solid,I,m,1107,7,2,42485.799999952316,550051.7999999523,8062,ATS,A,16
11,test,3,C,mfborder.png,0,m,Thu Jun 11 2026 14:08:13 GMT-0500 (Central Daylight Time),595270.1999998093,CFD-BM-029-026-HC.jpg,1200,dash,I,None,1516,6,2,45218.39999985695,550051.7999999523,8062,ATS,A,17
12,test,3,C,mfborder.png,1,m,Thu Jun 11 2026 14:08:13 GMT-0500 (Central Daylight Time),597186.0999999046,CFD-WM-006-013-HC.jpg,1000,dash,I,m,890,4,2,47134.299999952316,550051.7999999523,8062,ATS,A,18
12,test,3,C,mfborder.png,0,m,Thu Jun 11 2026 14:08:13 GMT-0500 (Central Daylight Time),600385.0,CFD-WM-019-013-A.jpg,2000,dash,I,z,1175,5,2,50333.200000047684,550051.7999999523,8062,ATS,A,19
13,test,3,C,mfborder.png,1,m,Thu Jun 11 2026 14:08:13 GMT-0500 (Central Daylight Time),602767.5999999046,CFD-WM-006-013-HC.jpg,1000,dash,I,m,1353,4,2,52715.799999952316,550051.7999999523,8062,ATS,A,20
13,test,3,C,haborder.png,0,m,Thu Jun 11 2026 14:08:13 GMT-0500 (Central Daylight Time),605251.399999857,CFD-WF-017-016-HC.jpg,1000,solid,I,z,1457,12,2,55199.59999990463,550051.7999999523,8062,ATS,A,21
13,test,3,C,haborder.png,0,m,Thu Jun 11 2026 14:08:13 GMT-0500 (Central Daylight Time),607466.1999998093,CFD-WF-002-008-HC.jpg,1500,solid,I,z,690,11,2,57414.39999985695,550051.7999999523,8062,ATS,A,22
13,test,3,C,haborder.png,0,m,Thu Jun 11 2026 14:08:13 GMT-0500 (Central Daylight Time),609548.899999857,CFD-WF-002-008-HC.jpg,1500,solid,I,z,554,11,2,59497.09999990463,550051.7999999523,8062,ATS,A,23
14,test,3,C,mfborder.png,1,m,Thu Jun 11 2026 14:08:13 GMT-0500 (Central Daylight Time),612381.2999999523,CFD-WM-019-013-A.jpg,2000,dash,I,m,805,5,2,62329.5,550051.7999999523,8062,ATS,A,24
1,test,4,C,haborder.png,1,z,Thu Jun 11 2026 14:08:13 GMT-0500 (Central Daylight Time),620928.5999999046,CFD-BF-039-039-A.jpg,1900,solid,I,z,943,8,2,2865.7000000476837,618062.899999857,8062,ATS,A,1
2,test,4,C,haborder.png,1,z,Thu Jun 11 2026 14:08:13 GMT-0500 (Central Daylight Time),623061.1999998093,CFD-BF-023-013-A.jpg,1400,solid,I,z,704,7,2,4998.299999952316,618062.899999857,8062,ATS,A,2
2,test,4,C,mfborder.png,0,z,Thu Jun 11 2026 14:08:13 GMT-0500 (Central Daylight Time),625377.1999998093,CFD-BF-028-020-HC.jpg,1500,dash,I,m,784,3,2,7314.299999952316,618062.899999857,8062,ATS,A,3
2,test,4,C,mfborder.png,0,z,Thu Jun 11 2026 14:08:13 GMT-0500 (Central Daylight Time),628309.5,CFD-WF-017-016-HC.jpg,1700,dash,I,m,1203,1,2,10246.600000143051,618062.899999857,8062,ATS,A,4
2,test,4,C,mfborder.png,0,m,Thu Jun 11 2026 14:08:13 GMT-0500 (Central Daylight Time),630842.399999857,CFD-BM-017-052-HC.jpg,1000,dash,I,None,1516,4,2,12779.5,618062.899999857,8062,ATS,A,5
3,test,4,C,mfborder.png,1,z,Thu Jun 11 2026 14:08:13 GMT-0500 (Central Daylight Time),633691.0999999046,CFD-WF-017-016-HC.jpg,1700,dash,I,z,1122,1,2,15628.200000047684,618062.899999857,8062,ATS,A,6
4,test,4,C,haborder.png,1,m,Thu Jun 11 2026 14:08:13 GMT-0500 (Central Daylight Time),636783.5,CFD-BM-029-026-HC.jpg,1600,solid,I,m,1475,10,2,18720.60000014305,618062.899999857,8062,ATS,A,7
5,test,4,C,haborder.png,1,m,Thu Jun 11 2026 14:08:13 GMT-0500 (Central Daylight Time),638689.5999999046,CFD-WM-004-005-HC.jpg,1000,solid,I,m,891,12,2,20626.700000047684,618062.899999857,8062,ATS,A,8
6,test,4,C,haborder.png,1,m,Thu Jun 11 2026 14:08:13 GMT-0500 (Central Daylight Time),640889.5,CFD-WM-004-005-HC.jpg,1500,solid,I,m,683,11,2,22826.60000014305,618062.899999857,8062,ATS,A,9
7,test,4,C,haborder.png,1,m,Thu Jun 11 2026 14:08:13 GMT-0500 (Central Daylight Time),643139.2999999523,CFD-BM-029-026-HC.jpg,1600,solid,I,m,632,10,2,25076.400000095367,618062.899999857,8062,ATS,A,10
8,test,4,C,haborder.png,1,z,Thu Jun 11 2026 14:08:13 GMT-0500 (Central Daylight Time),645737.399999857,CFD-WF-003-014-A.jpg,1700,solid,I,z,874,9,2,27674.5,618062.899999857,8062,ATS,A,11
9,test,4,C,mfborder.png,1,m,Thu Jun 11 2026 14:08:13 GMT-0500 (Central Daylight Time),648604.1999998093,CFD-BM-005-010-A.jpg,2000,dash,I,m,848,5,2,30541.299999952316,618062.899999857,8062,ATS,A,12
10,test,4,C,mfborder.png,1,z,Thu Jun 11 2026 14:08:13 GMT-0500 (Central Daylight Time),651285.6999998093,CFD-BF-028-020-HC.jpg,1500,dash,I,z,1162,3,2,33222.799999952316,618062.899999857,8062,ATS,A,13
11,test,4,C,haborder.png,1,m,Thu Jun 11 2026 14:08:13 GMT-0500 (Central Daylight Time),653085.0999999046,CFD-WM-004-005-HC.jpg,1000,solid,I,m,779,12,2,35022.200000047684,618062.899999857,8062,ATS,A,14
11,test,4,C,mfborder.png,0,z,Thu Jun 11 2026 14:08:13 GMT-0500 (Central Daylight Time),655517.5,CFD-WF-019-015-A.jpg,1600,dash,I,m,804,2,2,37454.60000014305,618062.899999857,8062,ATS,A,15
12,test,4,C,mfborder.png,1,m,Thu Jun 11 2026 14:08:13 GMT-0500 (Central Daylight Time),657567.1999998093,CFD-WM-013-015-A.jpg,1200,dash,I,m,828,6,2,39504.299999952316,618062.899999857,8062,ATS,A,16
12,test,4,C,haborder.png,0,m,Thu Jun 11 2026 14:08:13 GMT-0500 (Central Daylight Time),660263.1999998093,CFD-WM-004-005-HC.jpg,1500,solid,I,z,1141,11,2,42200.299999952316,618062.899999857,8062,ATS,A,17
13,test,4,C,haborder.png,1,z,Thu Jun 11 2026 14:08:13 GMT-0500 (Central Daylight Time),663448.399999857,CFD-WF-003-014-A.jpg,1700,solid,I,z,1451,9,2,45385.5,618062.899999857,8062,ATS,A,18
14,test,4,C,mfborder.png,1,m,Thu Jun 11 2026 14:08:13 GMT-0500 (Central Daylight Time),665831.1999998093,CFD-WM-013-015-A.jpg,1200,dash,I,m,1153,6,2,47768.299999952316,618062.899999857,8062,ATS,A,19
15,test,4,C,mfborder.png,1,m,Thu Jun 11 2026 14:08:13 GMT-0500 (Central Daylight Time),668130.5,CFD-BM-017-052-HC.jpg,1000,dash,I,m,1273,4,2,50067.60000014305,618062.899999857,8062,ATS,A,20
16,test,4,C,mfborder.png,1,m,Thu Jun 11 2026 14:08:13 GMT-0500 (Central Daylight Time),671329.399999857,CFD-BM-005-010-A.jpg,2000,dash,I,m,1166,5,2,53266.5,618062.899999857,8062,ATS,A,21
17,test,4,C,haborder.png,1,z,Thu Jun 11 2026 14:08:13 GMT-0500 (Central Daylight Time),674128.5999999046,CFD-BF-023-013-A.jpg,1400,solid,I,z,1367,7,2,56065.700000047684,618062.899999857,8062,ATS,A,22
18,test,4,C,haborder.png,1,z,Thu Jun 11 2026 14:08:13 GMT-0500 (Central Daylight Time),676727.6999998093,CFD-BF-039-039-A.jpg,1900,solid,I,z,668,8,2,58664.799999952316,618062.899999857,8062,ATS,A,23
19,test,4,C,mfborder.png,1,z,Thu Jun 11 2026 14:08:13 GMT-0500 (Central Daylight Time),679460.1999998093,CFD-WF-019-015-A.jpg,1600,dash,I,z,1114,2,2,61397.299999952316,618062.899999857,8062,ATS,A,24
