acc_sum,block,block_c,change,condition,correct,correct_response,datetime,endtime,face,project,response,response_time,row_sel,session_number,start_end,starttime,subject_id,task,task_vers,trial
0,prac,1,,1-Back,,,Tue Mar 24 2026 09:27:12 GMT-0500 (Central Daylight Time),,093_m_f_n_a.png,O,space,14599,1,1,,,7773,NNB,C,0
1,prac,1,0.0,1-Back,1.0,m,Tue Mar 24 2026 09:27:12 GMT-0500 (Central Daylight Time),132815.79999995232,098_y_f_n_a.png,O,m,598,2,1,1439.5999999046326,131376.20000004768,7773,NNB,C,1
2,prac,1,1.0,1-Back,1.0,z,Tue Mar 24 2026 09:27:12 GMT-0500 (Central Daylight Time),134513.79999995232,098_y_f_n_a.png,O,z,906,3,1,1687.8999998569489,132825.90000009537,7773,NNB,C,2
3,prac,1,0.0,1-Back,1.0,m,Tue Mar 24 2026 09:27:12 GMT-0500 (Central Daylight Time),136483.79999995232,059_o_m_n_a.png,O,m,1118,4,1,1965.3999998569489,134518.40000009537,7773,NNB,C,3
4,prac,1,0.0,1-Back,1.0,m,Tue Mar 24 2026 09:27:12 GMT-0500 (Central Daylight Time),138646.79999995232,092_m_m_n_a.png,O,m,1294,5,1,2154.5999999046326,136492.20000004768,7773,NNB,C,4
5,prac,1,1.0,1-Back,1.0,z,Tue Mar 24 2026 09:27:12 GMT-0500 (Central Daylight Time),140298.90000009537,092_m_m_n_a.png,O,z,871,6,1,1642.2000000476837,138656.70000004768,7773,NNB,C,5
6,prac,1,0.0,1-Back,1.0,m,Tue Mar 24 2026 09:27:12 GMT-0500 (Central Daylight Time),142062.79999995232,130_o_f_n_a.png,O,m,885,7,1,1755.2999999523163,140307.5,7773,NNB,C,6
7,prac,1,0.0,1-Back,1.0,m,Tue Mar 24 2026 09:27:12 GMT-0500 (Central Daylight Time),144530.29999995232,082_m_m_n_a.png,O,m,1618,8,1,2456.0,142074.29999995232,7773,NNB,C,7
8,prac,1,0.0,1-Back,1.0,m,Tue Mar 24 2026 09:27:12 GMT-0500 (Central Daylight Time),146427.79999995232,093_m_f_n_a.png,O,m,1119,9,1,1889.1999998092651,144538.60000014305,7773,NNB,C,8
9,prac,1,1.0,1-Back,1.0,z,Tue Mar 24 2026 09:27:12 GMT-0500 (Central Daylight Time),147876.5,093_m_f_n_a.png,O,z,661,10,1,1441.3999998569489,146435.10000014305,7773,NNB,C,9
10,prac,1,0.0,1-Back,1.0,m,Tue Mar 24 2026 09:27:12 GMT-0500 (Central Daylight Time),149643.5,059_o_m_n_a.png,O,m,989,11,1,1759.8999998569489,147883.60000014305,7773,NNB,C,10
11,prac,1,0.0,1-Back,1.0,m,Tue Mar 24 2026 09:27:12 GMT-0500 (Central Daylight Time),151709.10000014305,028_y_f_n_a.png,O,m,1213,12,1,2057.0,149652.10000014305,7773,NNB,C,11
0,test,1,0.0,1-Back,,,Tue Mar 24 2026 09:27:12 GMT-0500 (Central Daylight Time),151709.10000014305,098_y_f_n_a.png,O,space,7423,1,1,2057.0,149652.10000014305,7773,NNB,C,0
1,test,1,0.0,1-Back,1.0,m,Tue Mar 24 2026 09:27:12 GMT-0500 (Central Daylight Time),172669.79999995232,006_m_f_n_a.png,O,m,920,2,1,1942.5999999046326,170727.20000004768,7773,NNB,C,1
2,test,1,0.0,1-Back,1.0,m,Tue Mar 24 2026 09:27:12 GMT-0500 (Central Daylight Time),175020.60000014305,028_y_f_n_a.png,O,m,1334,3,1,2344.9000000953674,172675.70000004768,7773,NNB,C,2
2,test,1,1.0,1-Back,0.0,z,Tue Mar 24 2026 09:27:12 GMT-0500 (Central Daylight Time),177100.29999995232,028_y_f_n_a.png,O,m,1054,4,1,2072.5,175027.79999995232,7773,NNB,C,3
3,test,1,0.0,1-Back,1.0,m,Tue Mar 24 2026 09:27:12 GMT-0500 (Central Daylight Time),179000.79999995232,006_m_f_n_a.png,O,m,867,5,1,1893.1999998092651,177107.60000014305,7773,NNB,C,4
4,test,1,0.0,1-Back,1.0,m,Tue Mar 24 2026 09:27:12 GMT-0500 (Central Daylight Time),180833.29999995232,059_o_m_n_a.png,O,m,813,6,1,1825.1999998092651,179008.10000014305,7773,NNB,C,5
5,test,1,1.0,1-Back,1.0,z,Tue Mar 24 2026 09:27:12 GMT-0500 (Central Daylight Time),182515.90000009537,059_o_m_n_a.png,O,z,662,7,1,1675.7000000476837,180840.20000004768,7773,NNB,C,6
6,test,1,0.0,1-Back,1.0,m,Tue Mar 24 2026 09:27:12 GMT-0500 (Central Daylight Time),184315.10000014305,092_m_m_n_a.png,O,m,771,8,1,1790.4000000953674,182524.70000004768,7773,NNB,C,7
7,test,1,0.0,1-Back,1.0,m,Tue Mar 24 2026 09:27:12 GMT-0500 (Central Daylight Time),186213.90000009537,130_o_f_n_a.png,O,m,875,9,1,1892.1000001430511,184321.79999995232,7773,NNB,C,8
8,test,1,0.0,1-Back,1.0,m,Tue Mar 24 2026 09:27:12 GMT-0500 (Central Daylight Time),188297.70000004768,092_m_m_n_a.png,O,m,1066,10,1,2077.5,186220.20000004768,7773,NNB,C,9
9,test,1,0.0,1-Back,1.0,m,Tue Mar 24 2026 09:27:12 GMT-0500 (Central Daylight Time),190231.40000009537,057_y_m_n_a.png,O,m,909,11,1,1929.4000000953674,188302.0,7773,NNB,C,10
10,test,1,1.0,1-Back,1.0,z,Tue Mar 24 2026 09:27:12 GMT-0500 (Central Daylight Time),191746.5,057_y_m_n_a.png,O,z,489,12,1,1509.8999998569489,190236.60000014305,7773,NNB,C,11
11,test,1,0.0,1-Back,1.0,m,Tue Mar 24 2026 09:27:12 GMT-0500 (Central Daylight Time),193579.79999995232,030_o_f_n_a.png,O,m,807,13,1,1826.2999999523163,191753.5,7773,NNB,C,12
12,test,1,1.0,1-Back,1.0,z,Tue Mar 24 2026 09:27:12 GMT-0500 (Central Daylight Time),195579.10000014305,030_o_f_n_a.png,O,z,981,14,1,1993.8000001907349,193585.29999995232,7773,NNB,C,13
13,test,1,0.0,1-Back,1.0,m,Tue Mar 24 2026 09:27:12 GMT-0500 (Central Daylight Time),197576.40000009537,031_y_m_n_a.png,O,m,980,15,1,1990.9000000953674,195585.5,7773,NNB,C,14
14,test,1,0.0,1-Back,1.0,m,Tue Mar 24 2026 09:27:12 GMT-0500 (Central Daylight Time),199493.10000014305,093_m_f_n_a.png,O,m,886,16,1,1913.5,197579.60000014305,7773,NNB,C,15
15,test,1,0.0,1-Back,1.0,m,Tue Mar 24 2026 09:27:12 GMT-0500 (Central Daylight Time),201427.40000009537,146_o_m_n_a.png,O,m,900,17,1,1928.1000001430511,199499.29999995232,7773,NNB,C,16
16,test,1,0.0,1-Back,1.0,m,Tue Mar 24 2026 09:27:12 GMT-0500 (Central Daylight Time),203276.29999995232,093_m_f_n_a.png,O,m,829,18,1,1841.8999998569489,201434.40000009537,7773,NNB,C,17
0,test,2,0.0,1-Back,,,Tue Mar 24 2026 09:27:12 GMT-0500 (Central Daylight Time),203276.29999995232,092_m_m_n_a.png,O,space,3299,1,1,1841.8999998569489,201434.40000009537,7773,NNB,C,0
1,test,2,0.0,1-Back,1.0,m,Tue Mar 24 2026 09:27:12 GMT-0500 (Central Daylight Time),210439.79999995232,006_m_f_n_a.png,O,m,806,2,1,1822.7999999523163,208617.0,7773,NNB,C,1
2,test,2,1.0,1-Back,1.0,z,Tue Mar 24 2026 09:27:12 GMT-0500 (Central Daylight Time),212173.70000004768,006_m_f_n_a.png,O,z,712,3,1,1727.5999999046326,210446.10000014305,7773,NNB,C,2
3,test,2,0.0,1-Back,1.0,m,Tue Mar 24 2026 09:27:12 GMT-0500 (Central Daylight Time),214074.10000014305,092_m_m_n_a.png,O,m,882,4,1,1893.9000000953674,212180.20000004768,7773,NNB,C,3
4,test,2,0.0,1-Back,1.0,m,Tue Mar 24 2026 09:27:12 GMT-0500 (Central Daylight Time),215955.29999995232,057_y_m_n_a.png,O,m,865,5,1,1873.3999998569489,214081.90000009537,7773,NNB,C,4
5,test,2,0.0,1-Back,1.0,m,Tue Mar 24 2026 09:27:12 GMT-0500 (Central Daylight Time),217870.10000014305,098_y_f_n_a.png,O,m,893,6,1,1906.2000000476837,215963.90000009537,7773,NNB,C,5
6,test,2,1.0,1-Back,1.0,z,Tue Mar 24 2026 09:27:12 GMT-0500 (Central Daylight Time),219487.20000004768,098_y_f_n_a.png,O,z,592,7,1,1611.5999999046326,217875.60000014305,7773,NNB,C,6
7,test,2,0.0,1-Back,1.0,m,Tue Mar 24 2026 09:27:12 GMT-0500 (Central Daylight Time),221270.5,057_y_m_n_a.png,O,m,753,8,1,1778.0999999046326,219492.40000009537,7773,NNB,C,7
8,test,2,0.0,1-Back,1.0,m,Tue Mar 24 2026 09:27:12 GMT-0500 (Central Daylight Time),223036.79999995232,030_o_f_n_a.png,O,m,738,9,1,1758.8999998569489,221277.90000009537,7773,NNB,C,8
9,test,2,0.0,1-Back,1.0,m,Tue Mar 24 2026 09:27:12 GMT-0500 (Central Daylight Time),224702.40000009537,082_m_m_n_a.png,O,m,635,10,1,1660.9000000953674,223041.5,7773,NNB,C,9
10,test,2,1.0,1-Back,1.0,z,Tue Mar 24 2026 09:27:12 GMT-0500 (Central Daylight Time),226235.20000004768,082_m_m_n_a.png,O,z,499,11,1,1526.7000000476837,224708.5,7773,NNB,C,10
11,test,2,0.0,1-Back,1.0,m,Tue Mar 24 2026 09:27:12 GMT-0500 (Central Daylight Time),227867.40000009537,030_o_f_n_a.png,O,m,604,12,1,1623.2999999523163,226244.10000014305,7773,NNB,C,11
12,test,2,0.0,1-Back,1.0,m,Tue Mar 24 2026 09:27:12 GMT-0500 (Central Daylight Time),229618.40000009537,130_o_f_n_a.png,O,m,734,13,1,1743.4000000953674,227875.0,7773,NNB,C,12
13,test,2,0.0,1-Back,1.0,m,Tue Mar 24 2026 09:27:12 GMT-0500 (Central Daylight Time),231350.0,059_o_m_n_a.png,O,m,701,14,1,1727.0999999046326,229622.90000009537,7773,NNB,C,13
13,test,2,0.0,1-Back,0.0,m,Tue Mar 24 2026 09:27:12 GMT-0500 (Central Daylight Time),232968.5,146_o_m_n_a.png,O,z,594,15,1,1609.2999999523163,231359.20000004768,7773,NNB,C,14
14,test,2,1.0,1-Back,1.0,z,Tue Mar 24 2026 09:27:12 GMT-0500 (Central Daylight Time),235082.90000009537,146_o_m_n_a.png,O,z,1083,16,1,2106.7999999523163,232976.10000014305,7773,NNB,C,15
15,test,2,0.0,1-Back,1.0,m,Tue Mar 24 2026 09:27:12 GMT-0500 (Central Daylight Time),237181.40000009537,031_y_m_n_a.png,O,m,1077,17,1,2090.100000143051,235091.29999995232,7773,NNB,C,16
16,test,2,1.0,1-Back,1.0,z,Tue Mar 24 2026 09:27:12 GMT-0500 (Central Daylight Time),239133.10000014305,031_y_m_n_a.png,O,z,916,18,1,1944.7000000476837,237188.40000009537,7773,NNB,C,17
0,test,3,1.0,1-Back,,,Tue Mar 24 2026 09:27:12 GMT-0500 (Central Daylight Time),239133.10000014305,028_y_f_n_a.png,O,space,1898,1,1,1944.7000000476837,237188.40000009537,7773,NNB,C,0
1,test,3,0.0,1-Back,1.0,m,Tue Mar 24 2026 09:27:12 GMT-0500 (Central Daylight Time),244812.40000009537,146_o_m_n_a.png,O,m,663,1,1,1675.6000001430511,243136.79999995232,7773,NNB,C,1
2,test,3,1.0,1-Back,1.0,z,Tue Mar 24 2026 09:27:12 GMT-0500 (Central Daylight Time),246748.10000014305,146_o_m_n_a.png,O,z,904,1,1,1927.7000000476837,244820.40000009537,7773,NNB,C,2
3,test,3,0.0,1-Back,1.0,m,Tue Mar 24 2026 09:27:12 GMT-0500 (Central Daylight Time),248529.20000004768,093_m_f_n_a.png,O,m,766,1,1,1774.2000000476837,246755.0,7773,NNB,C,3
4,test,3,1.0,1-Back,1.0,z,Tue Mar 24 2026 09:27:12 GMT-0500 (Central Daylight Time),250362.0,093_m_f_n_a.png,O,z,809,1,1,1827.7999999523163,248534.20000004768,7773,NNB,C,4
5,test,3,0.0,1-Back,1.0,m,Tue Mar 24 2026 09:27:12 GMT-0500 (Central Daylight Time),252143.70000004768,030_o_f_n_a.png,O,m,751,1,1,1775.4000000953674,250368.29999995232,7773,NNB,C,5
5,test,3,0.0,1-Back,0.0,m,Tue Mar 24 2026 09:27:12 GMT-0500 (Central Daylight Time),253724.90000009537,057_y_m_n_a.png,O,z,552,1,1,1573.2000000476837,252151.70000004768,7773,NNB,C,6
6,test,3,0.0,1-Back,1.0,m,Tue Mar 24 2026 09:27:12 GMT-0500 (Central Daylight Time),255909.10000014305,030_o_f_n_a.png,O,m,1161,1,1,2178.100000143051,253731.0,7773,NNB,C,7
7,test,3,0.0,1-Back,1.0,m,Tue Mar 24 2026 09:27:12 GMT-0500 (Central Daylight Time),257826.20000004768,031_y_m_n_a.png,O,m,898,1,1,1910.7999999523163,255915.40000009537,7773,NNB,C,8
8,test,3,1.0,1-Back,1.0,z,Tue Mar 24 2026 09:27:12 GMT-0500 (Central Daylight Time),259524.90000009537,031_y_m_n_a.png,O,z,678,1,1,1691.1000001430511,257833.79999995232,7773,NNB,C,9
9,test,3,0.0,1-Back,1.0,m,Tue Mar 24 2026 09:27:12 GMT-0500 (Central Daylight Time),261360.79999995232,006_m_f_n_a.png,O,m,818,1,1,1829.0999999046326,259531.70000004768,7773,NNB,C,10
10,test,3,0.0,1-Back,1.0,m,Tue Mar 24 2026 09:27:12 GMT-0500 (Central Daylight Time),263207.0,098_y_f_n_a.png,O,m,818,1,1,1840.7999999523163,261366.20000004768,7773,NNB,C,11
11,test,3,1.0,1-Back,1.0,z,Tue Mar 24 2026 09:27:12 GMT-0500 (Central Daylight Time),264973.10000014305,098_y_f_n_a.png,O,z,735,1,1,1760.1000001430511,263213.0,7773,NNB,C,12
12,test,3,0.0,1-Back,1.0,m,Tue Mar 24 2026 09:27:12 GMT-0500 (Central Daylight Time),266755.7999999523,006_m_f_n_a.png,O,m,754,1,1,1775.2999999523163,264980.5,7773,NNB,C,13
13,test,3,0.0,1-Back,1.0,m,Tue Mar 24 2026 09:27:12 GMT-0500 (Central Daylight Time),268455.7000000477,092_m_m_n_a.png,O,m,669,1,1,1692.7000000476837,266763.0,7773,NNB,C,14
14,test,3,1.0,1-Back,1.0,z,Tue Mar 24 2026 09:27:12 GMT-0500 (Central Daylight Time),270071.7000000477,092_m_m_n_a.png,O,z,593,1,1,1609.4000000953674,268462.2999999523,7773,NNB,C,15
15,test,3,0.0,1-Back,1.0,m,Tue Mar 24 2026 09:27:12 GMT-0500 (Central Daylight Time),271654.2000000477,130_o_f_n_a.png,O,m,552,1,1,1575.0,270079.2000000477,7773,NNB,C,16
16,test,3,1.0,1-Back,1.0,z,Tue Mar 24 2026 09:27:12 GMT-0500 (Central Daylight Time),273754.10000014305,130_o_f_n_a.png,O,z,1081,1,1,2091.9000000953674,271662.2000000477,7773,NNB,C,17
0,test,4,1.0,1-Back,,,Tue Mar 24 2026 09:27:12 GMT-0500 (Central Daylight Time),273754.10000014305,093_m_f_n_a.png,O,space,1598,1,1,2091.9000000953674,271662.2000000477,7773,NNB,C,0
1,test,4,0.0,1-Back,1.0,m,Tue Mar 24 2026 09:27:12 GMT-0500 (Central Daylight Time),278901.7000000477,146_o_m_n_a.png,O,m,437,2,1,1458.5999999046326,277443.10000014305,7773,NNB,C,1
1,test,4,0.0,1-Back,0.0,m,Tue Mar 24 2026 09:27:12 GMT-0500 (Central Daylight Time),280587.2000000477,093_m_f_n_a.png,O,z,669,3,1,1678.9000000953674,278908.2999999523,7773,NNB,C,2
2,test,4,0.0,1-Back,1.0,m,Tue Mar 24 2026 09:27:12 GMT-0500 (Central Daylight Time),282267.2000000477,030_o_f_n_a.png,O,m,656,4,1,1671.2000000476837,280596.0,7773,NNB,C,3
3,test,4,1.0,1-Back,1.0,z,Tue Mar 24 2026 09:27:12 GMT-0500 (Central Daylight Time),284082.7999999523,030_o_f_n_a.png,O,z,788,5,1,1808.2999999523163,282274.5,7773,NNB,C,4
4,test,4,0.0,1-Back,1.0,m,Tue Mar 24 2026 09:27:12 GMT-0500 (Central Daylight Time),286032.2999999523,098_y_f_n_a.png,O,m,929,6,1,1943.3999998569489,284088.90000009537,7773,NNB,C,5
5,test,4,0.0,1-Back,1.0,m,Tue Mar 24 2026 09:27:12 GMT-0500 (Central Daylight Time),287732.10000014305,057_y_m_n_a.png,O,m,679,7,1,1694.5,286037.60000014305,7773,NNB,C,6
6,test,4,1.0,1-Back,1.0,z,Tue Mar 24 2026 09:27:12 GMT-0500 (Central Daylight Time),289331.10000014305,057_y_m_n_a.png,O,z,577,8,1,1592.6000001430511,287738.5,7773,NNB,C,7
7,test,4,0.0,1-Back,1.0,m,Tue Mar 24 2026 09:27:12 GMT-0500 (Central Daylight Time),290965.7000000477,098_y_f_n_a.png,O,m,603,9,1,1631.2999999523163,289334.40000009537,7773,NNB,C,8
8,test,4,0.0,1-Back,1.0,m,Tue Mar 24 2026 09:27:12 GMT-0500 (Central Daylight Time),292698.2999999523,082_m_m_n_a.png,O,m,716,10,1,1726.0999999046326,290972.2000000477,7773,NNB,C,9
9,test,4,1.0,1-Back,1.0,z,Tue Mar 24 2026 09:27:12 GMT-0500 (Central Daylight Time),294296.0,082_m_m_n_a.png,O,z,573,11,1,1592.0999999046326,292703.90000009537,7773,NNB,C,10
10,test,4,0.0,1-Back,1.0,m,Tue Mar 24 2026 09:27:12 GMT-0500 (Central Daylight Time),295813.7000000477,130_o_f_n_a.png,O,m,488,12,1,1510.9000000953674,294302.7999999523,7773,NNB,C,11
11,test,4,0.0,1-Back,1.0,m,Tue Mar 24 2026 09:27:12 GMT-0500 (Central Daylight Time),297480.2999999523,059_o_m_n_a.png,O,m,633,13,1,1660.1999998092651,295820.10000014305,7773,NNB,C,12
12,test,4,0.0,1-Back,1.0,m,Tue Mar 24 2026 09:27:12 GMT-0500 (Central Daylight Time),299812.10000014305,130_o_f_n_a.png,O,m,1304,14,1,2325.4000000953674,297486.7000000477,7773,NNB,C,13
13,test,4,0.0,1-Back,1.0,m,Tue Mar 24 2026 09:27:12 GMT-0500 (Central Daylight Time),301678.60000014305,028_y_f_n_a.png,O,m,845,15,1,1859.9000000953674,299818.7000000477,7773,NNB,C,14
14,test,4,1.0,1-Back,1.0,z,Tue Mar 24 2026 09:27:12 GMT-0500 (Central Daylight Time),303160.90000009537,028_y_f_n_a.png,O,z,459,16,1,1474.2999999523163,301686.60000014305,7773,NNB,C,15
15,test,4,0.0,1-Back,1.0,m,Tue Mar 24 2026 09:27:12 GMT-0500 (Central Daylight Time),304728.90000009537,006_m_f_n_a.png,O,m,544,17,1,1563.6000001430511,303165.2999999523,7773,NNB,C,16
16,test,4,1.0,1-Back,1.0,z,Tue Mar 24 2026 09:27:12 GMT-0500 (Central Daylight Time),306310.40000009537,006_m_f_n_a.png,O,z,559,18,1,1576.2000000476837,304734.2000000477,7773,NNB,C,17
0,test,5,1.0,1-Back,,,Tue Mar 24 2026 09:27:12 GMT-0500 (Central Daylight Time),306310.40000009537,059_o_m_n_a.png,O,space,1585,1,1,1576.2000000476837,304734.2000000477,7773,NNB,C,0
1,test,5,1.0,1-Back,1.0,z,Tue Mar 24 2026 09:27:12 GMT-0500 (Central Daylight Time),311674.5,059_o_m_n_a.png,O,z,722,2,1,1741.2000000476837,309933.2999999523,7773,NNB,C,1
2,test,5,0.0,1-Back,1.0,m,Tue Mar 24 2026 09:27:12 GMT-0500 (Central Daylight Time),313442.0,098_y_f_n_a.png,O,m,740,3,1,1760.2000000476837,311681.7999999523,7773,NNB,C,2
3,test,5,0.0,1-Back,1.0,m,Tue Mar 24 2026 09:27:12 GMT-0500 (Central Daylight Time),315122.2000000477,057_y_m_n_a.png,O,m,653,4,1,1675.2999999523163,313446.90000009537,7773,NNB,C,3
4,test,5,0.0,1-Back,1.0,m,Tue Mar 24 2026 09:27:12 GMT-0500 (Central Daylight Time),317155.7000000477,098_y_f_n_a.png,O,m,1003,5,1,2027.0,315128.7000000477,7773,NNB,C,4
5,test,5,0.0,1-Back,1.0,m,Tue Mar 24 2026 09:27:12 GMT-0500 (Central Daylight Time),318972.60000014305,092_m_m_n_a.png,O,m,787,6,1,1812.8000001907349,317159.7999999523,7773,NNB,C,5
6,test,5,1.0,1-Back,1.0,z,Tue Mar 24 2026 09:27:12 GMT-0500 (Central Daylight Time),320753.90000009537,092_m_m_n_a.png,O,z,749,7,1,1774.7999999523163,318979.10000014305,7773,NNB,C,6
7,test,5,0.0,1-Back,1.0,m,Tue Mar 24 2026 09:27:12 GMT-0500 (Central Daylight Time),322304.0,028_y_f_n_a.png,O,m,524,8,1,1544.5999999046326,320759.40000009537,7773,NNB,C,7
8,test,5,0.0,1-Back,1.0,m,Tue Mar 24 2026 09:27:12 GMT-0500 (Central Daylight Time),323937.7999999523,031_y_m_n_a.png,O,m,608,9,1,1627.5999999046326,322310.2000000477,7773,NNB,C,8
9,test,5,0.0,1-Back,1.0,m,Tue Mar 24 2026 09:27:12 GMT-0500 (Central Daylight Time),326037.0,028_y_f_n_a.png,O,m,1069,10,1,2091.7000000476837,323945.2999999523,7773,NNB,C,9
10,test,5,0.0,1-Back,1.0,m,Tue Mar 24 2026 09:27:12 GMT-0500 (Central Daylight Time),327919.60000014305,130_o_f_n_a.png,O,m,859,11,1,1875.8000001907349,326043.7999999523,7773,NNB,C,10
11,test,5,1.0,1-Back,1.0,z,Tue Mar 24 2026 09:27:12 GMT-0500 (Central Daylight Time),329903.0,130_o_f_n_a.png,O,z,959,12,1,1977.5999999046326,327925.40000009537,7773,NNB,C,11
12,test,5,0.0,1-Back,1.0,m,Tue Mar 24 2026 09:27:12 GMT-0500 (Central Daylight Time),331636.7999999523,146_o_m_n_a.png,O,m,717,13,1,1727.3999998569489,329909.40000009537,7773,NNB,C,12
13,test,5,0.0,1-Back,1.0,m,Tue Mar 24 2026 09:27:12 GMT-0500 (Central Daylight Time),333401.40000009537,093_m_f_n_a.png,O,m,742,14,1,1757.1000001430511,331644.2999999523,7773,NNB,C,13
14,test,5,1.0,1-Back,1.0,z,Tue Mar 24 2026 09:27:12 GMT-0500 (Central Daylight Time),335383.2999999523,093_m_f_n_a.png,O,z,958,15,1,1976.5,333406.7999999523,7773,NNB,C,14
15,test,5,0.0,1-Back,1.0,m,Tue Mar 24 2026 09:27:12 GMT-0500 (Central Daylight Time),337483.2000000477,146_o_m_n_a.png,O,m,1067,16,1,2096.5,335386.7000000477,7773,NNB,C,15
16,test,5,0.0,1-Back,1.0,m,Tue Mar 24 2026 09:27:12 GMT-0500 (Central Daylight Time),339217.10000014305,006_m_f_n_a.png,O,m,709,17,1,1726.1000001430511,337491.0,7773,NNB,C,16
17,test,5,0.0,1-Back,1.0,m,Tue Mar 24 2026 09:27:12 GMT-0500 (Central Daylight Time),341132.0,082_m_m_n_a.png,O,m,889,18,1,1910.5999999046326,339221.40000009537,7773,NNB,C,17
0,prac,1,0.0,2-Back,,,Tue Mar 24 2026 09:27:12 GMT-0500 (Central Daylight Time),341132.0,031_y_m_n_a.png,O,space,11693,1,1,1910.5999999046326,339221.40000009537,7773,NNB,C,0
0,prac,1,0.0,2-Back,,,Tue Mar 24 2026 09:27:12 GMT-0500 (Central Daylight Time),341132.0,006_m_f_n_a.png,O,space,11693,2,1,1910.5999999046326,339221.40000009537,7773,NNB,C,0
1,prac,1,1.0,2-Back,1.0,m,Tue Mar 24 2026 09:27:12 GMT-0500 (Central Daylight Time),562894.5,146_o_m_n_a.png,O,m,1879,3,1,2737.5,560157.0,7773,NNB,C,1
2,prac,1,0.0,2-Back,1.0,m,Tue Mar 24 2026 09:27:12 GMT-0500 (Central Daylight Time),565343.9000000954,130_o_f_n_a.png,O,m,1577,4,1,2439.2000000476837,562904.7000000477,7773,NNB,C,2
2,prac,1,0.0,2-Back,0.0,z,Tue Mar 24 2026 09:27:12 GMT-0500 (Central Daylight Time),568127.5,146_o_m_n_a.png,O,None,2006,5,1,2772.7999999523163,565354.7000000477,7773,NNB,C,3
2,prac,1,1.0,2-Back,0.0,z,Tue Mar 24 2026 09:27:12 GMT-0500 (Central Daylight Time),570909.2999999523,130_o_f_n_a.png,O,None,2005,6,1,2772.2999999523163,568137.0,7773,NNB,C,4
3,prac,1,0.0,2-Back,1.0,m,Tue Mar 24 2026 09:27:12 GMT-0500 (Central Daylight Time),572475.2999999523,082_m_m_n_a.png,O,m,785,7,1,1556.0,570919.2999999523,7773,NNB,C,5
4,prac,1,0.0,2-Back,1.0,m,Tue Mar 24 2026 09:27:12 GMT-0500 (Central Daylight Time),574408.0,059_o_m_n_a.png,O,m,1083,8,1,1923.0,572485.0,7773,NNB,C,6
5,prac,1,0.0,2-Back,1.0,m,Tue Mar 24 2026 09:27:12 GMT-0500 (Central Daylight Time),576558.5,028_y_f_n_a.png,O,m,1288,9,1,2140.7999999523163,574417.7000000477,7773,NNB,C,7
6,prac,1,1.0,2-Back,1.0,z,Tue Mar 24 2026 09:27:12 GMT-0500 (Central Daylight Time),578707.9000000954,059_o_m_n_a.png,O,z,1362,10,1,2140.2000000476837,576567.7000000477,7773,NNB,C,8
7,prac,1,0.0,2-Back,1.0,m,Tue Mar 24 2026 09:27:12 GMT-0500 (Central Daylight Time),580541.0,098_y_f_n_a.png,O,m,987,11,1,1823.5,578717.5,7773,NNB,C,9
8,prac,1,0.0,2-Back,1.0,m,Tue Mar 24 2026 09:27:12 GMT-0500 (Central Daylight Time),582338.100000143,082_m_m_n_a.png,O,m,1010,12,1,1786.0,580552.100000143,7773,NNB,C,10
0,test,1,0.0,2-Back,,,Tue Mar 24 2026 09:27:12 GMT-0500 (Central Daylight Time),582338.100000143,057_y_m_n_a.png,O,space,13059,1,1,1786.0,580552.100000143,7773,NNB,C,0
0,test,1,0.0,2-Back,,,Tue Mar 24 2026 09:27:12 GMT-0500 (Central Daylight Time),582338.100000143,057_y_m_n_a.png,O,space,13059,2,1,1786.0,580552.100000143,7773,NNB,C,0
1,test,1,0.0,2-Back,1.0,m,Tue Mar 24 2026 09:27:12 GMT-0500 (Central Daylight Time),612878.7000000477,130_o_f_n_a.png,O,m,1744,3,1,2770.9000000953674,610107.7999999523,7773,NNB,C,1
2,test,1,0.0,2-Back,1.0,m,Tue Mar 24 2026 09:27:12 GMT-0500 (Central Daylight Time),614863.600000143,092_m_m_n_a.png,O,m,955,4,1,1979.8000001907349,612883.7999999523,7773,NNB,C,2
3,test,1,1.0,2-Back,1.0,z,Tue Mar 24 2026 09:27:12 GMT-0500 (Central Daylight Time),616579.600000143,130_o_f_n_a.png,O,z,700,5,1,1709.0,614870.600000143,7773,NNB,C,3
4,test,1,0.0,2-Back,1.0,m,Tue Mar 24 2026 09:27:12 GMT-0500 (Central Daylight Time),618343.7000000477,098_y_f_n_a.png,O,m,743,6,1,1758.2000000476837,616585.5,7773,NNB,C,4
4,test,1,0.0,2-Back,0.0,m,Tue Mar 24 2026 09:27:12 GMT-0500 (Central Daylight Time),620509.7999999523,092_m_m_n_a.png,O,z,1135,7,1,2159.399999856949,618350.4000000954,7773,NNB,C,5
5,test,1,1.0,2-Back,1.0,z,Tue Mar 24 2026 09:27:12 GMT-0500 (Central Daylight Time),622526.0,098_y_f_n_a.png,O,z,986,8,1,2009.5,620516.5,7773,NNB,C,6
6,test,1,0.0,2-Back,1.0,m,Tue Mar 24 2026 09:27:12 GMT-0500 (Central Daylight Time),624511.100000143,031_y_m_n_a.png,O,m,954,9,1,1978.3000001907349,622532.7999999523,7773,NNB,C,7
7,test,1,0.0,2-Back,1.0,m,Tue Mar 24 2026 09:27:12 GMT-0500 (Central Daylight Time),626524.9000000954,030_o_f_n_a.png,O,m,989,10,1,2006.7000000476837,624518.2000000477,7773,NNB,C,8
8,test,1,1.0,2-Back,1.0,z,Tue Mar 24 2026 09:27:12 GMT-0500 (Central Daylight Time),628425.5,031_y_m_n_a.png,O,z,876,11,1,1894.7999999523163,626530.7000000477,7773,NNB,C,9
9,test,1,0.0,2-Back,1.0,m,Tue Mar 24 2026 09:27:12 GMT-0500 (Central Daylight Time),630140.7000000477,006_m_f_n_a.png,O,m,690,12,1,1710.2000000476837,628430.5,7773,NNB,C,10
10,test,1,0.0,2-Back,1.0,m,Tue Mar 24 2026 09:27:12 GMT-0500 (Central Daylight Time),632589.2000000477,006_m_f_n_a.png,O,m,1419,13,1,2442.4000000953674,630146.7999999523,7773,NNB,C,11
11,test,1,0.0,2-Back,1.0,m,Tue Mar 24 2026 09:27:12 GMT-0500 (Central Daylight Time),634720.2999999523,146_o_m_n_a.png,O,m,1097,14,1,2124.699999809265,632595.600000143,7773,NNB,C,12
12,test,1,0.0,2-Back,1.0,m,Tue Mar 24 2026 09:27:12 GMT-0500 (Central Daylight Time),636821.4000000954,030_o_f_n_a.png,O,m,1085,15,1,2098.5,634722.9000000954,7773,NNB,C,13
13,test,1,1.0,2-Back,1.0,z,Tue Mar 24 2026 09:27:12 GMT-0500 (Central Daylight Time),638521.7000000477,146_o_m_n_a.png,O,z,667,16,1,1693.2999999523163,636828.4000000954,7773,NNB,C,14
14,test,1,0.0,2-Back,1.0,m,Tue Mar 24 2026 09:27:12 GMT-0500 (Central Daylight Time),640271.4000000954,093_m_f_n_a.png,O,m,718,17,1,1743.5,638527.9000000954,7773,NNB,C,15
15,test,1,0.0,2-Back,1.0,m,Tue Mar 24 2026 09:27:12 GMT-0500 (Central Daylight Time),642122.100000143,082_m_m_n_a.png,O,m,834,18,1,1844.1000001430511,640278.0,7773,NNB,C,16
0,test,2,0.0,2-Back,,,Tue Mar 24 2026 09:27:12 GMT-0500 (Central Daylight Time),642122.100000143,082_m_m_n_a.png,O,space,2558,1,1,1844.1000001430511,640278.0,7773,NNB,C,0
0,test,2,0.0,2-Back,,,Tue Mar 24 2026 09:27:12 GMT-0500 (Central Daylight Time),642122.100000143,028_y_f_n_a.png,O,space,2558,2,1,1844.1000001430511,640278.0,7773,NNB,C,0
1,test,2,1.0,2-Back,1.0,z,Tue Mar 24 2026 09:27:12 GMT-0500 (Central Daylight Time),651732.5,082_m_m_n_a.png,O,z,904,3,1,1926.3999998569489,649806.100000143,7773,NNB,C,1
2,test,2,0.0,2-Back,1.0,m,Tue Mar 24 2026 09:27:12 GMT-0500 (Central Daylight Time),653398.7999999523,093_m_f_n_a.png,O,m,641,4,1,1663.2999999523163,651735.5,7773,NNB,C,2
2,test,2,0.0,2-Back,0.0,m,Tue Mar 24 2026 09:27:12 GMT-0500 (Central Daylight Time),655348.4000000954,028_y_f_n_a.png,O,z,928,5,1,1946.0,653402.4000000954,7773,NNB,C,3
3,test,2,0.0,2-Back,1.0,m,Tue Mar 24 2026 09:27:12 GMT-0500 (Central Daylight Time),657249.600000143,146_o_m_n_a.png,O,m,868,6,1,1897.0,655352.600000143,7773,NNB,C,4
4,test,2,0.0,2-Back,1.0,m,Tue Mar 24 2026 09:27:12 GMT-0500 (Central Daylight Time),659248.7000000477,098_y_f_n_a.png,O,m,967,7,1,1992.9000000953674,657255.7999999523,7773,NNB,C,5
5,test,2,1.0,2-Back,1.0,z,Tue Mar 24 2026 09:27:12 GMT-0500 (Central Daylight Time),660912.2999999523,146_o_m_n_a.png,O,z,639,8,1,1656.0999999046326,659256.2000000477,7773,NNB,C,6
6,test,2,0.0,2-Back,1.0,m,Tue Mar 24 2026 09:27:12 GMT-0500 (Central Daylight Time),662613.5,031_y_m_n_a.png,O,m,668,9,1,1697.2000000476837,660916.2999999523,7773,NNB,C,7
7,test,2,0.0,2-Back,1.0,m,Tue Mar 24 2026 09:27:12 GMT-0500 (Central Daylight Time),664613.4000000954,031_y_m_n_a.png,O,m,982,10,1,1994.6000001430511,662618.7999999523,7773,NNB,C,8
8,test,2,0.0,2-Back,1.0,m,Tue Mar 24 2026 09:27:12 GMT-0500 (Central Daylight Time),667027.600000143,006_m_f_n_a.png,O,m,1395,11,1,2406.4000000953674,664621.2000000477,7773,NNB,C,9
8,test,2,0.0,2-Back,0.0,m,Tue Mar 24 2026 09:27:12 GMT-0500 (Central Daylight Time),668911.0,028_y_f_n_a.png,O,z,851,12,1,1878.3999998569489,667032.600000143,7773,NNB,C,10
9,test,2,1.0,2-Back,1.0,z,Tue Mar 24 2026 09:27:12 GMT-0500 (Central Daylight Time),670810.9000000954,006_m_f_n_a.png,O,z,883,13,1,1893.5,668917.4000000954,7773,NNB,C,11
10,test,2,0.0,2-Back,1.0,m,Tue Mar 24 2026 09:27:12 GMT-0500 (Central Daylight Time),672444.2999999523,059_o_m_n_a.png,O,m,616,14,1,1628.7999999523163,670815.5,7773,NNB,C,12
11,test,2,0.0,2-Back,1.0,m,Tue Mar 24 2026 09:27:12 GMT-0500 (Central Daylight Time),674659.9000000954,059_o_m_n_a.png,O,m,1189,15,1,2207.9000000953674,672452.0,7773,NNB,C,13
12,test,2,0.0,2-Back,1.0,m,Tue Mar 24 2026 09:27:12 GMT-0500 (Central Daylight Time),676792.0,030_o_f_n_a.png,O,m,1115,16,1,2126.899999856949,674665.100000143,7773,NNB,C,14
13,test,2,0.0,2-Back,1.0,m,Tue Mar 24 2026 09:27:12 GMT-0500 (Central Daylight Time),678824.5,092_m_m_n_a.png,O,m,1006,17,1,2027.2000000476837,676797.2999999523,7773,NNB,C,15
14,test,2,1.0,2-Back,1.0,z,Tue Mar 24 2026 09:27:12 GMT-0500 (Central Daylight Time),680723.9000000954,030_o_f_n_a.png,O,z,881,18,1,1893.7000000476837,678830.2000000477,7773,NNB,C,16
0,test,3,1.0,2-Back,,,Tue Mar 24 2026 09:27:12 GMT-0500 (Central Daylight Time),680723.9000000954,057_y_m_n_a.png,O,space,2516,1,1,1893.7000000476837,678830.2000000477,7773,NNB,C,0
0,test,3,1.0,2-Back,,,Tue Mar 24 2026 09:27:12 GMT-0500 (Central Daylight Time),680723.9000000954,057_y_m_n_a.png,O,space,2516,2,1,1893.7000000476837,678830.2000000477,7773,NNB,C,0
1,test,3,0.0,2-Back,1.0,m,Tue Mar 24 2026 09:27:12 GMT-0500 (Central Daylight Time),690357.4000000954,030_o_f_n_a.png,O,m,981,3,1,1994.6000001430511,688362.7999999523,7773,NNB,C,1
2,test,3,0.0,2-Back,1.0,m,Tue Mar 24 2026 09:27:12 GMT-0500 (Central Daylight Time),692371.600000143,082_m_m_n_a.png,O,m,1000,4,1,2007.7000000476837,690363.9000000954,7773,NNB,C,2
3,test,3,1.0,2-Back,1.0,z,Tue Mar 24 2026 09:27:12 GMT-0500 (Central Daylight Time),694020.2000000477,030_o_f_n_a.png,O,z,621,5,1,1641.7999999523163,692378.4000000954,7773,NNB,C,3
4,test,3,0.0,2-Back,1.0,m,Tue Mar 24 2026 09:27:12 GMT-0500 (Central Daylight Time),695903.2999999523,031_y_m_n_a.png,O,m,851,6,1,1875.0,694028.2999999523,7773,NNB,C,4
4,test,3,0.0,2-Back,0.0,m,Tue Mar 24 2026 09:27:12 GMT-0500 (Central Daylight Time),698235.5,082_m_m_n_a.png,O,z,1306,7,1,2325.2000000476837,695910.2999999523,7773,NNB,C,5
4,test,3,1.0,2-Back,0.0,z,Tue Mar 24 2026 09:27:12 GMT-0500 (Central Daylight Time),700100.600000143,031_y_m_n_a.png,O,m,836,8,1,1861.8000001907349,698238.7999999523,7773,NNB,C,6
5,test,3,0.0,2-Back,1.0,m,Tue Mar 24 2026 09:27:12 GMT-0500 (Central Daylight Time),702100.100000143,028_y_f_n_a.png,O,m,978,9,1,1994.1000001430511,700106.0,7773,NNB,C,7
5,test,3,0.0,2-Back,0.0,m,Tue Mar 24 2026 09:27:12 GMT-0500 (Central Daylight Time),704183.4000000954,092_m_m_n_a.png,O,z,1052,10,1,2077.0,702106.4000000954,7773,NNB,C,8
6,test,3,1.0,2-Back,1.0,z,Tue Mar 24 2026 09:27:12 GMT-0500 (Central Daylight Time),706298.4000000954,028_y_f_n_a.png,O,z,1096,11,1,2107.600000143051,704190.7999999523,7773,NNB,C,9
6,test,3,1.0,2-Back,0.0,z,Tue Mar 24 2026 09:27:12 GMT-0500 (Central Daylight Time),708165.2999999523,092_m_m_n_a.png,O,m,846,12,1,1863.5,706301.7999999523,7773,NNB,C,10
7,test,3,0.0,2-Back,1.0,m,Tue Mar 24 2026 09:27:12 GMT-0500 (Central Daylight Time),710231.2000000477,030_o_f_n_a.png,O,m,1033,13,1,2058.0999999046326,708173.100000143,7773,NNB,C,11
8,test,3,0.0,2-Back,1.0,m,Tue Mar 24 2026 09:27:12 GMT-0500 (Central Daylight Time),712312.2000000477,093_m_f_n_a.png,O,m,1064,14,1,2072.0999999046326,710240.100000143,7773,NNB,C,12
9,test,3,0.0,2-Back,1.0,m,Tue Mar 24 2026 09:27:12 GMT-0500 (Central Daylight Time),714396.7999999523,146_o_m_n_a.png,O,m,1059,15,1,2080.899999856949,712315.9000000954,7773,NNB,C,13
10,test,3,1.0,2-Back,1.0,z,Tue Mar 24 2026 09:27:12 GMT-0500 (Central Daylight Time),716479.4000000954,093_m_f_n_a.png,O,z,1060,16,1,2075.100000143051,714404.2999999523,7773,NNB,C,14
11,test,3,0.0,2-Back,1.0,m,Tue Mar 24 2026 09:27:12 GMT-0500 (Central Daylight Time),718411.600000143,130_o_f_n_a.png,O,m,904,17,1,1926.5,716485.100000143,7773,NNB,C,15
11,test,3,0.0,2-Back,0.0,m,Tue Mar 24 2026 09:27:12 GMT-0500 (Central Daylight Time),720410.9000000954,130_o_f_n_a.png,O,z,973,18,1,1990.5,718420.4000000954,7773,NNB,C,16
0,test,4,0.0,2-Back,,,Tue Mar 24 2026 09:27:12 GMT-0500 (Central Daylight Time),720410.9000000954,059_o_m_n_a.png,O,space,1894,1,1,1990.5,718420.4000000954,7773,NNB,C,0
0,test,4,0.0,2-Back,,,Tue Mar 24 2026 09:27:12 GMT-0500 (Central Daylight Time),720410.9000000954,098_y_f_n_a.png,O,space,1894,2,1,1990.5,718420.4000000954,7773,NNB,C,0
1,test,4,1.0,2-Back,1.0,z,Tue Mar 24 2026 09:27:12 GMT-0500 (Central Daylight Time),728980.4000000954,059_o_m_n_a.png,O,z,473,3,1,1499.1000001430511,727481.2999999523,7773,NNB,C,1
2,test,4,1.0,2-Back,1.0,z,Tue Mar 24 2026 09:27:12 GMT-0500 (Central Daylight Time),731225.100000143,098_y_f_n_a.png,O,z,1225,4,1,2240.800000190735,728984.2999999523,7773,NNB,C,2
3,test,4,0.0,2-Back,1.0,m,Tue Mar 24 2026 09:27:12 GMT-0500 (Central Daylight Time),733058.600000143,030_o_f_n_a.png,O,m,799,5,1,1825.4000000953674,731233.2000000477,7773,NNB,C,3
4,test,4,0.0,2-Back,1.0,m,Tue Mar 24 2026 09:27:12 GMT-0500 (Central Daylight Time),735006.4000000954,030_o_f_n_a.png,O,m,918,6,1,1941.2999999523163,733065.100000143,7773,NNB,C,4
5,test,4,0.0,2-Back,1.0,m,Tue Mar 24 2026 09:27:12 GMT-0500 (Central Daylight Time),736972.600000143,006_m_f_n_a.png,O,m,946,7,1,1959.5,735013.100000143,7773,NNB,C,5
6,test,4,0.0,2-Back,1.0,m,Tue Mar 24 2026 09:27:12 GMT-0500 (Central Daylight Time),738873.600000143,031_y_m_n_a.png,O,m,883,8,1,1897.2000000476837,736976.4000000954,7773,NNB,C,6
7,test,4,1.0,2-Back,1.0,z,Tue Mar 24 2026 09:27:12 GMT-0500 (Central Daylight Time),740671.9000000954,006_m_f_n_a.png,O,z,774,9,1,1790.7000000476837,738881.2000000477,7773,NNB,C,7
8,test,4,0.0,2-Back,1.0,m,Tue Mar 24 2026 09:27:12 GMT-0500 (Central Daylight Time),742506.100000143,092_m_m_n_a.png,O,m,811,10,1,1827.2000000476837,740678.9000000954,7773,NNB,C,8
8,test,4,0.0,2-Back,0.0,m,Tue Mar 24 2026 09:27:12 GMT-0500 (Central Daylight Time),744354.600000143,031_y_m_n_a.png,O,z,824,11,1,1840.4000000953674,742514.2000000477,7773,NNB,C,9
9,test,4,0.0,2-Back,1.0,m,Tue Mar 24 2026 09:27:12 GMT-0500 (Central Daylight Time),746220.4000000954,130_o_f_n_a.png,O,m,833,12,1,1859.5,744360.9000000954,7773,NNB,C,10
10,test,4,0.0,2-Back,1.0,m,Tue Mar 24 2026 09:27:12 GMT-0500 (Central Daylight Time),748103.0,057_y_m_n_a.png,O,m,852,13,1,1875.7999999523163,746227.2000000477,7773,NNB,C,11
11,test,4,1.0,2-Back,1.0,z,Tue Mar 24 2026 09:27:12 GMT-0500 (Central Daylight Time),749951.7999999523,130_o_f_n_a.png,O,z,827,14,1,1842.5,748109.2999999523,7773,NNB,C,12
12,test,4,1.0,2-Back,1.0,z,Tue Mar 24 2026 09:27:12 GMT-0500 (Central Daylight Time),752002.7000000477,057_y_m_n_a.png,O,z,1032,15,1,2045.5,749957.2000000477,7773,NNB,C,13
13,test,4,0.0,2-Back,1.0,m,Tue Mar 24 2026 09:27:12 GMT-0500 (Central Daylight Time),753700.9000000954,082_m_m_n_a.png,O,m,671,16,1,1692.7999999523163,752008.100000143,7773,NNB,C,14
14,test,4,0.0,2-Back,1.0,m,Tue Mar 24 2026 09:27:12 GMT-0500 (Central Daylight Time),755434.2000000477,093_m_f_n_a.png,O,m,707,17,1,1727.2999999523163,753706.9000000954,7773,NNB,C,15
15,test,4,1.0,2-Back,1.0,z,Tue Mar 24 2026 09:27:12 GMT-0500 (Central Daylight Time),757399.9000000954,082_m_m_n_a.png,O,z,943,18,1,1959.9000000953674,755440.0,7773,NNB,C,16
0,test,5,1.0,2-Back,,,Tue Mar 24 2026 09:27:12 GMT-0500 (Central Daylight Time),757399.9000000954,057_y_m_n_a.png,O,space,1698,1,1,1959.9000000953674,755440.0,7773,NNB,C,0
0,test,5,1.0,2-Back,,,Tue Mar 24 2026 09:27:12 GMT-0500 (Central Daylight Time),757399.9000000954,093_m_f_n_a.png,O,space,1698,2,1,1959.9000000953674,755440.0,7773,NNB,C,0
1,test,5,1.0,2-Back,1.0,z,Tue Mar 24 2026 09:27:12 GMT-0500 (Central Daylight Time),765780.0,057_y_m_n_a.png,O,z,611,3,1,1624.5999999046326,764155.4000000954,7773,NNB,C,1
2,test,5,1.0,2-Back,1.0,z,Tue Mar 24 2026 09:27:12 GMT-0500 (Central Daylight Time),767664.0,093_m_f_n_a.png,O,z,852,4,1,1879.7000000476837,765784.2999999523,7773,NNB,C,2
3,test,5,0.0,2-Back,1.0,m,Tue Mar 24 2026 09:27:12 GMT-0500 (Central Daylight Time),769446.2000000477,130_o_f_n_a.png,O,m,754,5,1,1775.2000000476837,767671.0,7773,NNB,C,3
4,test,5,0.0,2-Back,1.0,m,Tue Mar 24 2026 09:27:12 GMT-0500 (Central Daylight Time),771596.2999999523,057_y_m_n_a.png,O,m,1133,6,1,2143.7999999523163,769452.5,7773,NNB,C,4
5,test,5,0.0,2-Back,1.0,m,Tue Mar 24 2026 09:27:12 GMT-0500 (Central Daylight Time),773412.0,028_y_f_n_a.png,O,m,800,7,1,1809.7999999523163,771602.2000000477,7773,NNB,C,5
6,test,5,0.0,2-Back,1.0,m,Tue Mar 24 2026 09:27:12 GMT-0500 (Central Daylight Time),775510.2999999523,130_o_f_n_a.png,O,m,1077,8,1,2092.5999999046326,773417.7000000477,7773,NNB,C,6
7,test,5,1.0,2-Back,1.0,z,Tue Mar 24 2026 09:27:12 GMT-0500 (Central Daylight Time),777410.7000000477,028_y_f_n_a.png,O,z,881,9,1,1893.0999999046326,775517.600000143,7773,NNB,C,7
8,test,5,0.0,2-Back,1.0,m,Tue Mar 24 2026 09:27:12 GMT-0500 (Central Daylight Time),779027.0,146_o_m_n_a.png,O,m,592,10,1,1609.5999999046326,777417.4000000954,7773,NNB,C,8
9,test,5,0.0,2-Back,1.0,m,Tue Mar 24 2026 09:27:12 GMT-0500 (Central Daylight Time),780742.2000000477,006_m_f_n_a.png,O,m,693,11,1,1708.5999999046326,779033.600000143,7773,NNB,C,9
10,test,5,0.0,2-Back,1.0,m,Tue Mar 24 2026 09:27:12 GMT-0500 (Central Daylight Time),782592.7000000477,092_m_m_n_a.png,O,m,818,12,1,1843.9000000953674,780748.7999999523,7773,NNB,C,10
11,test,5,0.0,2-Back,1.0,m,Tue Mar 24 2026 09:27:12 GMT-0500 (Central Daylight Time),784774.4000000954,146_o_m_n_a.png,O,m,1159,13,1,2174.7999999523163,782599.600000143,7773,NNB,C,11
12,test,5,1.0,2-Back,1.0,z,Tue Mar 24 2026 09:27:12 GMT-0500 (Central Daylight Time),786690.7000000477,092_m_m_n_a.png,O,z,893,14,1,1913.2999999523163,784777.4000000954,7773,NNB,C,12
13,test,5,0.0,2-Back,1.0,m,Tue Mar 24 2026 09:27:12 GMT-0500 (Central Daylight Time),788206.9000000954,098_y_f_n_a.png,O,m,486,15,1,1509.2999999523163,786697.600000143,7773,NNB,C,13
14,test,5,0.0,2-Back,1.0,m,Tue Mar 24 2026 09:27:12 GMT-0500 (Central Daylight Time),790123.7000000477,059_o_m_n_a.png,O,m,891,16,1,1910.0999999046326,788213.600000143,7773,NNB,C,14
15,test,5,0.0,2-Back,1.0,m,Tue Mar 24 2026 09:27:12 GMT-0500 (Central Daylight Time),791956.5,006_m_f_n_a.png,O,m,806,17,1,1827.0999999046326,790129.4000000954,7773,NNB,C,15
16,test,5,1.0,2-Back,1.0,z,Tue Mar 24 2026 09:27:12 GMT-0500 (Central Daylight Time),793772.7999999523,059_o_m_n_a.png,O,z,801,18,1,1810.5,791962.2999999523,7773,NNB,C,16
