block_c,block_dur,condition,countdown,datetime,endtime,list,multichar_response,project,response,response_time,session_number,start_end,starttime,subject_id,task,task_vers,trial
,,,,Thu Aug 08 2024 15:05:08 GMT-0500 (Central Daylight Time),,,,O,space,551,1,,,7010,WL,A,
prac,,0,,Thu Aug 08 2024 15:05:08 GMT-0500 (Central Daylight Time),,NA,b,O,b,5114,1,,,7010,WL,A,1.0
prac,,0,,Thu Aug 08 2024 15:05:08 GMT-0500 (Central Daylight Time),,NA,bo,O,o,1256,1,,,7010,WL,A,1.0
prac,,0,,Thu Aug 08 2024 15:05:08 GMT-0500 (Central Daylight Time),,NA,boo,O,o,155,1,,,7010,WL,A,1.0
prac,,0,,Thu Aug 08 2024 15:05:08 GMT-0500 (Central Daylight Time),,NA,boos,O,s,221,1,,,7010,WL,A,1.0
prac,,0,,Thu Aug 08 2024 15:05:08 GMT-0500 (Central Daylight Time),,NA,boost,O,t,260,1,,,7010,WL,A,1.0
prac,,0,,Thu Aug 08 2024 15:05:08 GMT-0500 (Central Daylight Time),,NA,boostenter,O,enter,4328,1,,,7010,WL,A,1.0
1,0.9790000915527344,learn,59020.999908447266,Thu Aug 08 2024 15:05:08 GMT-0500 (Central Daylight Time),131757.19999999553,A,b,O,b,956,1,977.3999999985099,130779.79999999702,7010,WL,A,1.0
1,1.0829999446868896,learn,58917.00005531311,Thu Aug 08 2024 15:05:08 GMT-0500 (Central Daylight Time),131860.69999999553,A,bo,O,o,95,1,1080.8999999985099,130779.79999999702,7010,WL,A,1.0
1,1.2330000400543213,learn,58766.99995994568,Thu Aug 08 2024 15:05:08 GMT-0500 (Central Daylight Time),132010.29999999702,A,boo,O,o,144,1,1230.5,130779.79999999702,7010,WL,A,1.0
1,1.4159998893737793,learn,58584.00011062622,Thu Aug 08 2024 15:05:08 GMT-0500 (Central Daylight Time),132193.69999999553,A,book,O,k,170,1,1413.8999999985099,130779.79999999702,7010,WL,A,1.0
1,1.6159999370574951,learn,58384.000062942505,Thu Aug 08 2024 15:05:08 GMT-0500 (Central Daylight Time),132394.0,A,bookenter,O,enter,179,1,1614.2000000029802,130779.79999999702,7010,WL,A,1.0
1,2.7829999923706055,learn,57217.000007629395,Thu Aug 08 2024 15:05:08 GMT-0500 (Central Daylight Time),133560.29999999702,A,r,O,r,1147,1,1165.7999999970198,132394.5,7010,WL,A,2.0
1,2.9660000801086426,learn,57033.99991989136,Thu Aug 08 2024 15:05:08 GMT-0500 (Central Daylight Time),133743.3999999985,A,ru,O,u,173,1,1348.8999999985099,132394.5,7010,WL,A,2.0
1,3.2320001125335693,learn,56767.99988746643,Thu Aug 08 2024 15:05:08 GMT-0500 (Central Daylight Time),134009.8999999985,A,rug,O,g,253,1,1615.3999999985099,132394.5,7010,WL,A,2.0
1,3.3989999294281006,learn,56601.0000705719,Thu Aug 08 2024 15:05:08 GMT-0500 (Central Daylight Time),134176.5,A,rugenter,O,enter,155,1,1782.0,132394.5,7010,WL,A,2.0
1,3.865000009536743,learn,56134.99999046326,Thu Aug 08 2024 15:05:08 GMT-0500 (Central Daylight Time),134642.8999999985,A,l,O,l,461,1,466.0,134176.8999999985,7010,WL,A,3.0
1,4.082000017166138,learn,55917.99998283386,Thu Aug 08 2024 15:05:08 GMT-0500 (Central Daylight Time),134859.69999999553,A,lo,O,o,202,1,682.7999999970198,134176.8999999985,7010,WL,A,3.0
1,4.29800009727478,learn,55701.99990272522,Thu Aug 08 2024 15:05:08 GMT-0500 (Central Daylight Time),135076.19999999553,A,log,O,g,209,1,899.2999999970198,134176.8999999985,7010,WL,A,3.0
1,4.431999921798706,learn,55568.000078201294,Thu Aug 08 2024 15:05:08 GMT-0500 (Central Daylight Time),135209.6000000015,A,logenter,O,enter,120,1,1032.7000000029802,134176.8999999985,7010,WL,A,3.0
1,4.697999954223633,learn,55302.00004577637,Thu Aug 08 2024 15:05:08 GMT-0500 (Central Daylight Time),135476.1000000015,A,m,O,m,260,1,266.1000000014901,135210.0,7010,WL,A,4.0
1,4.865000009536743,learn,55134.99999046326,Thu Aug 08 2024 15:05:08 GMT-0500 (Central Daylight Time),135642.6000000015,A,me,O,e,145,1,432.6000000014901,135210.0,7010,WL,A,4.0
1,5.082000017166138,learn,54917.99998283386,Thu Aug 08 2024 15:05:08 GMT-0500 (Central Daylight Time),135859.3999999985,A,mea,O,a,202,1,649.3999999985099,135210.0,7010,WL,A,4.0
1,5.2809998989105225,learn,54719.00010108948,Thu Aug 08 2024 15:05:08 GMT-0500 (Central Daylight Time),136059.19999999553,A,mead,O,d,186,1,849.1999999955297,135210.0,7010,WL,A,4.0
1,5.414999961853027,learn,54585.00003814697,Thu Aug 08 2024 15:05:08 GMT-0500 (Central Daylight Time),136192.5,A,meado,O,o,114,1,982.5,135210.0,7010,WL,A,4.0
1,6.081000089645386,learn,53918.999910354614,Thu Aug 08 2024 15:05:08 GMT-0500 (Central Daylight Time),136858.8999999985,A,meadow,O,w,661,1,1648.8999999985099,135210.0,7010,WL,A,4.0
1,6.265000104904175,learn,53734.999895095825,Thu Aug 08 2024 15:05:08 GMT-0500 (Central Daylight Time),137042.3999999985,A,meadowenter,O,enter,178,1,1832.3999999985099,135210.0,7010,WL,A,4.0
1,6.497999906539917,learn,53502.00009346008,Thu Aug 08 2024 15:05:08 GMT-0500 (Central Daylight Time),137275.69999999553,A,s,O,s,227,1,233.0,137042.69999999553,7010,WL,A,5.0
1,6.697999954223633,learn,53302.00004577637,Thu Aug 08 2024 15:05:08 GMT-0500 (Central Daylight Time),137475.6000000015,A,sa,O,a,185,1,432.90000000596046,137042.69999999553,7010,WL,A,5.0
1,6.947999954223633,learn,53052.00004577637,Thu Aug 08 2024 15:05:08 GMT-0500 (Central Daylight Time),137725.3999999985,A,sal,O,l,242,1,682.7000000029802,137042.69999999553,7010,WL,A,5.0
1,7.247999906539917,learn,52752.00009346008,Thu Aug 08 2024 15:05:08 GMT-0500 (Central Daylight Time),138025.3999999985,A,salt,O,t,280,1,982.7000000029802,137042.69999999553,7010,WL,A,5.0
1,7.496999979019165,learn,52503.000020980835,Thu Aug 08 2024 15:05:08 GMT-0500 (Central Daylight Time),138275.1000000015,A,saltenter,O,enter,244,1,1232.4000000059605,137042.69999999553,7010,WL,A,5.0
1,10.746999979019165,learn,49253.000020980835,Thu Aug 08 2024 15:05:08 GMT-0500 (Central Daylight Time),141524.29999999702,A,r,O,r,3234,1,3249.0,138275.29999999702,7010,WL,A,6.0
1,11.095999956130981,learn,48904.00004386902,Thu Aug 08 2024 15:05:08 GMT-0500 (Central Daylight Time),141874.1000000015,A,ru,O,u,345,1,3598.8000000044703,138275.29999999702,7010,WL,A,6.0
1,11.230000019073486,learn,48769.999980926514,Thu Aug 08 2024 15:05:08 GMT-0500 (Central Daylight Time),142007.29999999702,A,rug,O,g,115,1,3732.0,138275.29999999702,7010,WL,A,6.0
1,11.345999956130981,learn,48654.00004386902,Thu Aug 08 2024 15:05:08 GMT-0500 (Central Daylight Time),142124.1000000015,A,rugenter,O,enter,110,1,3848.8000000044703,138275.29999999702,7010,WL,A,6.0
1,16.32800006866455,learn,43671.99993133545,Thu Aug 08 2024 15:05:08 GMT-0500 (Central Daylight Time),147105.79999999702,A,b,O,b,4961,1,4981.29999999702,142124.5,7010,WL,A,7.0
1,16.543999910354614,learn,43456.000089645386,Thu Aug 08 2024 15:05:08 GMT-0500 (Central Daylight Time),147322.29999999702,A,bo,O,o,211,1,5197.79999999702,142124.5,7010,WL,A,7.0
1,16.694999933242798,learn,43305.0000667572,Thu Aug 08 2024 15:05:08 GMT-0500 (Central Daylight Time),147472.29999999702,A,boo,O,o,139,1,5347.79999999702,142124.5,7010,WL,A,7.0
1,16.92799997329712,learn,43072.00002670288,Thu Aug 08 2024 15:05:08 GMT-0500 (Central Daylight Time),147705.6000000015,A,book,O,k,213,1,5581.10000000149,142124.5,7010,WL,A,7.0
1,17.061000108718872,learn,42938.99989128113,Thu Aug 08 2024 15:05:08 GMT-0500 (Central Daylight Time),147839.0,A,bookenter,O,enter,116,1,5714.5,142124.5,7010,WL,A,7.0
1,25.108999967575073,learn,34891.00003242493,Thu Aug 08 2024 15:05:08 GMT-0500 (Central Daylight Time),155886.3999999985,A,g,O,g,8029,1,8047.10000000149,147839.29999999702,7010,WL,A,8.0
1,25.242000102996826,learn,34757.999897003174,Thu Aug 08 2024 15:05:08 GMT-0500 (Central Daylight Time),156019.6000000015,A,go,O,o,119,1,8180.30000000447,147839.29999999702,7010,WL,A,8.0
1,25.407999992370605,learn,34592.000007629395,Thu Aug 08 2024 15:05:08 GMT-0500 (Central Daylight Time),156186.19999999553,A,gol,O,l,162,1,8346.89999999851,147839.29999999702,7010,WL,A,8.0
1,25.55999994277954,learn,34440.00005722046,Thu Aug 08 2024 15:05:08 GMT-0500 (Central Daylight Time),156337.5,A,gold,O,d,139,1,8498.20000000298,147839.29999999702,7010,WL,A,8.0
1,25.70799994468689,learn,34292.00005531311,Thu Aug 08 2024 15:05:08 GMT-0500 (Central Daylight Time),156486.0,A,goldenter,O,enter,132,1,8646.70000000298,147839.29999999702,7010,WL,A,8.0
1,30.506999969482422,learn,29493.000030517578,Thu Aug 08 2024 15:05:08 GMT-0500 (Central Daylight Time),161284.8999999985,A,r,O,r,4791,1,4798.5,156486.3999999985,7010,WL,A,9.0
1,30.657000064849854,learn,29342.999935150146,Thu Aug 08 2024 15:05:08 GMT-0500 (Central Daylight Time),161434.5,A,ra,O,a,142,1,4948.10000000149,156486.3999999985,7010,WL,A,9.0
1,30.872999906539917,learn,29127.000093460083,Thu Aug 08 2024 15:05:08 GMT-0500 (Central Daylight Time),161651.19999999553,A,rat,O,t,211,1,5164.79999999702,156486.3999999985,7010,WL,A,9.0
1,31.02300000190735,learn,28976.99999809265,Thu Aug 08 2024 15:05:08 GMT-0500 (Central Daylight Time),161801.1000000015,A,ratt,O,t,130,1,5314.70000000298,156486.3999999985,7010,WL,A,9.0
1,31.641000032424927,learn,28358.999967575073,Thu Aug 08 2024 15:05:08 GMT-0500 (Central Daylight Time),162419.0,A,rattt,O,t,604,1,5932.60000000149,156486.3999999985,7010,WL,A,9.0
1,32.07299995422363,learn,27927.000045776367,Thu Aug 08 2024 15:05:08 GMT-0500 (Central Daylight Time),162850.8999999985,A,ratt,O,backspace,410,1,6364.5,156486.3999999985,7010,WL,A,9.0
1,32.27300000190735,learn,27726.99999809265,Thu Aug 08 2024 15:05:08 GMT-0500 (Central Daylight Time),163050.6000000015,A,rattl,O,l,195,1,6564.20000000298,156486.3999999985,7010,WL,A,9.0
1,32.62299990653992,learn,27377.000093460083,Thu Aug 08 2024 15:05:08 GMT-0500 (Central Daylight Time),163400.79999999702,A,rattle,O,e,339,1,6914.39999999851,156486.3999999985,7010,WL,A,9.0
1,32.77300000190735,learn,27226.99999809265,Thu Aug 08 2024 15:05:08 GMT-0500 (Central Daylight Time),163550.3999999985,A,rattleenter,O,enter,133,1,7064.0,156486.3999999985,7010,WL,A,9.0
1,47.117000102996826,learn,12882.999897003174,Thu Aug 08 2024 15:05:08 GMT-0500 (Central Daylight Time),177896.1000000015,A,enter,O,enter,14335,1,14345.5,163550.6000000015,7010,WL,A,10.0
1,49.282999992370605,learn,10717.000007629395,Thu Aug 08 2024 15:05:08 GMT-0500 (Central Daylight Time),180062.1000000015,A,enter,O,enter,2157,1,2165.60000000149,177896.5,7010,WL,A,11.0
1,52.699000120162964,learn,7300.999879837036,Thu Aug 08 2024 15:05:08 GMT-0500 (Central Daylight Time),183477.8999999985,A,enter,O,enter,3407,1,3415.39999999851,180062.5,7010,WL,A,12.0
1,52.931999921798706,learn,7068.000078201294,Thu Aug 08 2024 15:05:08 GMT-0500 (Central Daylight Time),183711.0,A,enter,O,enter,215,1,232.80000000447035,183478.19999999553,7010,WL,A,13.0
1,53.19799995422363,learn,6802.000045776367,Thu Aug 08 2024 15:05:08 GMT-0500 (Central Daylight Time),183977.5,A,enter,O,enter,246,1,266.0,183711.5,7010,WL,A,14.0
1,53.71499991416931,learn,6285.0000858306885,Thu Aug 08 2024 15:05:08 GMT-0500 (Central Daylight Time),184494.19999999553,A,enter,O,enter,508,1,516.1999999955297,183978.0,7010,WL,A,15.0
2,0.5669999122619629,learn,59433.00008773804,Thu Aug 08 2024 15:05:08 GMT-0500 (Central Daylight Time),263169.19999999553,A,g,O,g,555,1,566.1999999955297,262603.0,7010,WL,A,1.0
2,0.6840000152587891,learn,59315.99998474121,Thu Aug 08 2024 15:05:08 GMT-0500 (Central Daylight Time),263286.299999997,A,go,O,o,99,1,683.2999999970198,262603.0,7010,WL,A,1.0
2,0.8499999046325684,learn,59150.00009536743,Thu Aug 08 2024 15:05:08 GMT-0500 (Central Daylight Time),263452.6000000015,A,gol,O,l,159,1,849.6000000014901,262603.0,7010,WL,A,1.0
2,1.1670000553131104,learn,58832.99994468689,Thu Aug 08 2024 15:05:08 GMT-0500 (Central Daylight Time),263769.1000000015,A,gold,O,d,305,1,1166.1000000014901,262603.0,7010,WL,A,1.0
2,1.2999999523162842,learn,58700.000047683716,Thu Aug 08 2024 15:05:08 GMT-0500 (Central Daylight Time),263902.3999999985,A,goldenter,O,enter,116,1,1299.3999999985099,262603.0,7010,WL,A,1.0
2,1.5,learn,58500.0,Thu Aug 08 2024 15:05:08 GMT-0500 (Central Daylight Time),264102.299999997,A,r,O,r,183,1,199.60000000149012,263902.69999999553,7010,WL,A,2.0
2,1.75,learn,58250.0,Thu Aug 08 2024 15:05:08 GMT-0500 (Central Daylight Time),264352.3999999985,A,ra,O,a,239,1,449.70000000298023,263902.69999999553,7010,WL,A,2.0
2,2.049999952316284,learn,57950.000047683716,Thu Aug 08 2024 15:05:08 GMT-0500 (Central Daylight Time),264652.19999999553,A,rat,O,t,285,1,749.5,263902.69999999553,7010,WL,A,2.0
2,2.2160000801086426,learn,57783.99991989136,Thu Aug 08 2024 15:05:08 GMT-0500 (Central Daylight Time),264818.69999999553,A,ratt,O,t,161,1,916.0,263902.69999999553,7010,WL,A,2.0
2,2.365999937057495,learn,57634.000062942505,Thu Aug 08 2024 15:05:08 GMT-0500 (Central Daylight Time),264968.8999999985,A,rattl,O,l,131,1,1066.2000000029802,263902.69999999553,7010,WL,A,2.0
2,2.499000072479248,learn,57500.99992752075,Thu Aug 08 2024 15:05:08 GMT-0500 (Central Daylight Time),265102.0,A,rattle,O,e,116,1,1199.3000000044703,263902.69999999553,7010,WL,A,2.0
2,2.6989998817443848,learn,57301.000118255615,Thu Aug 08 2024 15:05:08 GMT-0500 (Central Daylight Time),265302.0,A,rattleenter,O,enter,192,1,1399.3000000044703,263902.69999999553,7010,WL,A,2.0
2,2.9830000400543213,learn,57016.99995994568,Thu Aug 08 2024 15:05:08 GMT-0500 (Central Daylight Time),265585.19999999553,A,r,O,r,271,1,282.79999999701977,265302.3999999985,7010,WL,A,3.0
2,3.2660000324249268,learn,56733.99996757507,Thu Aug 08 2024 15:05:08 GMT-0500 (Central Daylight Time),265868.69999999553,A,ru,O,u,268,1,566.2999999970198,265302.3999999985,7010,WL,A,3.0
2,3.5160000324249268,learn,56483.99996757507,Thu Aug 08 2024 15:05:08 GMT-0500 (Central Daylight Time),266118.3999999985,A,rug,O,g,233,1,816.0,265302.3999999985,7010,WL,A,3.0
2,4.115999937057495,learn,55884.000062942505,Thu Aug 08 2024 15:05:08 GMT-0500 (Central Daylight Time),266718.299999997,A,rugl,O,l,591,1,1415.8999999985099,265302.3999999985,7010,WL,A,3.0
2,4.348999977111816,learn,55651.00002288818,Thu Aug 08 2024 15:05:08 GMT-0500 (Central Daylight Time),266951.5,A,ruglo,O,o,215,1,1649.1000000014901,265302.3999999985,7010,WL,A,3.0
2,4.865999937057495,learn,55134.000062942505,Thu Aug 08 2024 15:05:08 GMT-0500 (Central Daylight Time),267468.299999997,A,ruglog,O,g,510,1,2165.89999999851,265302.3999999985,7010,WL,A,3.0
2,5.098999977111816,learn,54901.00002288818,Thu Aug 08 2024 15:05:08 GMT-0500 (Central Daylight Time),267701.19999999553,A,ruglogenter,O,enter,217,1,2398.7999999970198,265302.3999999985,7010,WL,A,3.0
2,6.447999954223633,learn,53552.00004577637,Thu Aug 08 2024 15:05:08 GMT-0500 (Central Daylight Time),269051.1000000015,A,r,O,r,1336,1,1349.6000000014901,267701.5,7010,WL,A,4.0
2,6.582000017166138,learn,53417.99998283386,Thu Aug 08 2024 15:05:08 GMT-0500 (Central Daylight Time),269184.19999999553,A,ru,O,u,122,1,1482.6999999955297,267701.5,7010,WL,A,4.0
2,6.747999906539917,learn,53252.00009346008,Thu Aug 08 2024 15:05:08 GMT-0500 (Central Daylight Time),269350.799999997,A,rug,O,g,149,1,1649.2999999970198,267701.5,7010,WL,A,4.0
2,6.947999954223633,learn,53052.00004577637,Thu Aug 08 2024 15:05:08 GMT-0500 (Central Daylight Time),269550.69999999553,A,rugenter,O,enter,191,1,1849.1999999955297,267701.5,7010,WL,A,4.0
2,7.365000009536743,learn,52634.99999046326,Thu Aug 08 2024 15:05:08 GMT-0500 (Central Daylight Time),269967.19999999553,A,l,O,l,399,1,416.19999999552965,269551.0,7010,WL,A,5.0
2,7.581000089645386,learn,52418.999910354614,Thu Aug 08 2024 15:05:08 GMT-0500 (Central Daylight Time),270184.0,A,lo,O,o,206,1,633.0,269551.0,7010,WL,A,5.0
2,7.832000017166138,learn,52167.99998283386,Thu Aug 08 2024 15:05:08 GMT-0500 (Central Daylight Time),270434.19999999553,A,log,O,g,245,1,883.1999999955297,269551.0,7010,WL,A,5.0
2,8.030999898910522,learn,51969.00010108948,Thu Aug 08 2024 15:05:08 GMT-0500 (Central Daylight Time),270633.799999997,A,logenter,O,enter,180,1,1082.7999999970198,269551.0,7010,WL,A,5.0
2,8.364000082015991,learn,51635.99991798401,Thu Aug 08 2024 15:05:08 GMT-0500 (Central Daylight Time),270967.0,A,k,O,k,316,1,332.80000000447035,270634.19999999553,7010,WL,A,6.0
2,8.513999938964844,learn,51486.000061035156,Thu Aug 08 2024 15:05:08 GMT-0500 (Central Daylight Time),271117.0,A,ke,O,e,135,1,482.80000000447035,270634.19999999553,7010,WL,A,6.0
2,8.746999979019165,learn,51253.000020980835,Thu Aug 08 2024 15:05:08 GMT-0500 (Central Daylight Time),271350.0,A,key,O,y,225,1,715.8000000044703,270634.19999999553,7010,WL,A,6.0
2,9.030999898910522,learn,50969.00010108948,Thu Aug 08 2024 15:05:08 GMT-0500 (Central Daylight Time),271633.299999997,A,keyenter,O,enter,263,1,999.1000000014901,270634.19999999553,7010,WL,A,6.0
2,9.879999876022339,learn,50120.00012397766,Thu Aug 08 2024 15:05:08 GMT-0500 (Central Daylight Time),272482.8999999985,A,f,O,f,844,1,849.2999999970198,271633.6000000015,7010,WL,A,7.0
2,10.081000089645386,learn,49918.999910354614,Thu Aug 08 2024 15:05:08 GMT-0500 (Central Daylight Time),272683.299999997,A,fi,O,i,187,1,1049.6999999955297,271633.6000000015,7010,WL,A,7.0
2,10.441999912261963,learn,49558.00008773804,Thu Aug 08 2024 15:05:08 GMT-0500 (Central Daylight Time),273044.299999997,A,fin,O,n,209,1,1410.6999999955297,271633.6000000015,7010,WL,A,7.0
2,10.516000032424927,learn,49483.99996757507,Thu Aug 08 2024 15:05:08 GMT-0500 (Central Daylight Time),273118.1000000015,A,fing,O,g,57,1,1484.5,271633.6000000015,7010,WL,A,7.0
2,10.69700002670288,learn,49302.99997329712,Thu Aug 08 2024 15:05:08 GMT-0500 (Central Daylight Time),273299.5,A,finge,O,e,165,1,1665.8999999985099,271633.6000000015,7010,WL,A,7.0
2,10.846999883651733,learn,49153.00011634827,Thu Aug 08 2024 15:05:08 GMT-0500 (Central Daylight Time),273449.5,A,finger,O,r,130,1,1815.8999999985099,271633.6000000015,7010,WL,A,7.0
2,11.030999898910522,learn,48969.00010108948,Thu Aug 08 2024 15:05:08 GMT-0500 (Central Daylight Time),273633.799999997,A,fingerenter,O,enter,164,1,2000.1999999955297,271633.6000000015,7010,WL,A,7.0
2,11.730000019073486,learn,48269.999980926514,Thu Aug 08 2024 15:05:08 GMT-0500 (Central Daylight Time),274332.6000000015,A,b,O,b,691,1,698.5,273634.1000000015,7010,WL,A,8.0
2,11.912999868392944,learn,48087.000131607056,Thu Aug 08 2024 15:05:08 GMT-0500 (Central Daylight Time),274515.8999999985,A,bo,O,o,177,1,881.7999999970198,273634.1000000015,7010,WL,A,8.0
2,12.02999997138977,learn,47970.00002861023,Thu Aug 08 2024 15:05:08 GMT-0500 (Central Daylight Time),274632.3999999985,A,boo,O,o,98,1,998.2999999970198,273634.1000000015,7010,WL,A,8.0
2,12.213000059127808,learn,47786.99994087219,Thu Aug 08 2024 15:05:08 GMT-0500 (Central Daylight Time),274815.8999999985,A,book,O,k,165,1,1181.7999999970198,273634.1000000015,7010,WL,A,8.0
2,12.397000074386597,learn,47602.9999256134,Thu Aug 08 2024 15:05:08 GMT-0500 (Central Daylight Time),274999.19999999553,A,bookenter,O,enter,174,1,1365.0999999940395,273634.1000000015,7010,WL,A,8.0
2,12.779000043869019,learn,47220.99995613098,Thu Aug 08 2024 15:05:08 GMT-0500 (Central Daylight Time),275381.8999999985,A,f,O,f,367,1,382.3999999985099,274999.5,7010,WL,A,9.0
2,12.912999868392944,learn,47087.000131607056,Thu Aug 08 2024 15:05:08 GMT-0500 (Central Daylight Time),275515.3999999985,A,fl,O,l,120,1,515.8999999985099,274999.5,7010,WL,A,9.0
2,13.095999956130981,learn,46904.00004386902,Thu Aug 08 2024 15:05:08 GMT-0500 (Central Daylight Time),275698.799999997,A,flo,O,o,170,1,699.2999999970198,274999.5,7010,WL,A,9.0
2,13.263000011444092,learn,46736.99998855591,Thu Aug 08 2024 15:05:08 GMT-0500 (Central Daylight Time),275865.299999997,A,flow,O,w,147,1,865.7999999970198,274999.5,7010,WL,A,9.0
2,13.379999876022339,learn,46620.00012397766,Thu Aug 08 2024 15:05:08 GMT-0500 (Central Daylight Time),275982.19999999553,A,flowe,O,e,108,1,982.6999999955297,274999.5,7010,WL,A,9.0
2,13.61299991607666,learn,46387.00008392334,Thu Aug 08 2024 15:05:08 GMT-0500 (Central Daylight Time),276215.299999997,A,flower,O,r,215,1,1215.7999999970198,274999.5,7010,WL,A,9.0
2,13.779000043869019,learn,46220.99995613098,Thu Aug 08 2024 15:05:08 GMT-0500 (Central Daylight Time),276382.0,A,flowerenter,O,enter,150,1,1382.5,274999.5,7010,WL,A,9.0
2,14.128999948501587,learn,45871.00005149841,Thu Aug 08 2024 15:05:08 GMT-0500 (Central Daylight Time),276732.0,A,m,O,m,344,1,349.70000000298023,276382.299999997,7010,WL,A,10.0
2,14.378999948501587,learn,45621.00005149841,Thu Aug 08 2024 15:05:08 GMT-0500 (Central Daylight Time),276981.8999999985,A,me,O,e,242,1,599.6000000014901,276382.299999997,7010,WL,A,10.0
2,14.595999956130981,learn,45404.00004386902,Thu Aug 08 2024 15:05:08 GMT-0500 (Central Daylight Time),277198.3999999985,A,mea,O,a,200,1,816.1000000014901,276382.299999997,7010,WL,A,10.0
2,14.796000003814697,learn,45203.9999961853,Thu Aug 08 2024 15:05:08 GMT-0500 (Central Daylight Time),277398.299999997,A,mead,O,d,191,1,1016.0,276382.299999997,7010,WL,A,10.0
2,15.01200008392334,learn,44987.99991607666,Thu Aug 08 2024 15:05:08 GMT-0500 (Central Daylight Time),277614.799999997,A,meado,O,o,207,1,1232.5,276382.299999997,7010,WL,A,10.0
2,15.211999893188477,learn,44788.00010681152,Thu Aug 08 2024 15:05:08 GMT-0500 (Central Daylight Time),277814.6000000015,A,meadow,O,w,191,1,1432.3000000044703,276382.299999997,7010,WL,A,10.0
2,15.378999948501587,learn,44621.00005149841,Thu Aug 08 2024 15:05:08 GMT-0500 (Central Daylight Time),277981.299999997,A,meadowenter,O,enter,159,1,1599.0,276382.299999997,7010,WL,A,10.0
2,18.810999870300293,learn,41189.00012969971,Thu Aug 08 2024 15:05:08 GMT-0500 (Central Daylight Time),281413.5,A,f,O,f,3424,1,3431.7000000029802,277981.799999997,7010,WL,A,11.0
2,18.91100001335144,learn,41088.99998664856,Thu Aug 08 2024 15:05:08 GMT-0500 (Central Daylight Time),281513.8999999985,A,fi,O,i,80,1,3532.10000000149,277981.799999997,7010,WL,A,11.0
2,19.16100001335144,learn,40838.99998664856,Thu Aug 08 2024 15:05:08 GMT-0500 (Central Daylight Time),281763.799999997,A,fin,O,n,236,1,3782.0,277981.799999997,7010,WL,A,11.0
2,19.361000061035156,learn,40638.999938964844,Thu Aug 08 2024 15:05:08 GMT-0500 (Central Daylight Time),281963.3999999985,A,fing,O,g,186,1,3981.60000000149,277981.799999997,7010,WL,A,11.0
2,19.64400005340576,learn,40355.99994659424,Thu Aug 08 2024 15:05:08 GMT-0500 (Central Daylight Time),282246.799999997,A,finge,O,e,274,1,4265.0,277981.799999997,7010,WL,A,11.0
2,19.74399995803833,learn,40256.00004196167,Thu Aug 08 2024 15:05:08 GMT-0500 (Central Daylight Time),282346.3999999985,A,finger,O,r,95,1,4364.60000000149,277981.799999997,7010,WL,A,11.0
2,20.009999990463257,learn,39990.00000953674,Thu Aug 08 2024 15:05:08 GMT-0500 (Central Daylight Time),282613.1000000015,A,fingerenter,O,enter,259,1,4631.30000000447,277981.799999997,7010,WL,A,11.0
2,21.526999950408936,learn,38473.000049591064,Thu Aug 08 2024 15:05:08 GMT-0500 (Central Daylight Time),284129.299999997,A,h,O,h,1497,1,1516.0,282613.299999997,7010,WL,A,12.0
2,21.66000008583069,learn,38339.99991416931,Thu Aug 08 2024 15:05:08 GMT-0500 (Central Daylight Time),284262.69999999553,A,ha,O,a,116,1,1649.3999999985099,282613.299999997,7010,WL,A,12.0
2,21.91000008583069,learn,38089.99991416931,Thu Aug 08 2024 15:05:08 GMT-0500 (Central Daylight Time),284512.6000000015,A,har,O,r,231,1,1899.3000000044703,282613.299999997,7010,WL,A,12.0
2,22.0939998626709,learn,37906.0001373291,Thu Aug 08 2024 15:05:08 GMT-0500 (Central Daylight Time),284696.1000000015,A,harp,O,p,165,1,2082.8000000044703,282613.299999997,7010,WL,A,12.0
2,22.259999990463257,learn,37740.00000953674,Thu Aug 08 2024 15:05:08 GMT-0500 (Central Daylight Time),284862.8999999985,A,harpenter,O,enter,149,1,2249.60000000149,282613.299999997,7010,WL,A,12.0
2,26.424999952316284,learn,33575.000047683716,Thu Aug 08 2024 15:05:08 GMT-0500 (Central Daylight Time),289027.8999999985,A,s,O,s,4151,1,4164.70000000298,284863.19999999553,7010,WL,A,13.0
2,26.592000007629395,learn,33407.999992370605,Thu Aug 08 2024 15:05:08 GMT-0500 (Central Daylight Time),289194.3999999985,A,sa,O,a,161,1,4331.20000000298,284863.19999999553,7010,WL,A,13.0
2,26.77500009536743,learn,33224.99990463257,Thu Aug 08 2024 15:05:08 GMT-0500 (Central Daylight Time),289377.8999999985,A,sal,O,l,163,1,4514.70000000298,284863.19999999553,7010,WL,A,13.0
2,27.14199995994568,learn,32858.00004005432,Thu Aug 08 2024 15:05:08 GMT-0500 (Central Daylight Time),289744.19999999553,A,salt,O,t,356,1,4881.0,284863.19999999553,7010,WL,A,13.0
2,27.35800004005432,learn,32641.99995994568,Thu Aug 08 2024 15:05:08 GMT-0500 (Central Daylight Time),289961.1000000015,A,saltenter,O,enter,205,1,5097.9000000059605,284863.19999999553,7010,WL,A,13.0
2,30.35800004005432,learn,29641.99995994568,Thu Aug 08 2024 15:05:08 GMT-0500 (Central Daylight Time),292960.1000000015,A,g,O,g,2989,1,2998.7000000029802,289961.3999999985,7010,WL,A,14.0
2,30.507999897003174,learn,29492.000102996826,Thu Aug 08 2024 15:05:08 GMT-0500 (Central Daylight Time),293110.19999999553,A,go,O,o,141,1,3148.7999999970198,289961.3999999985,7010,WL,A,14.0
2,30.69099998474121,learn,29309.00001525879,Thu Aug 08 2024 15:05:08 GMT-0500 (Central Daylight Time),293293.299999997,A,gol,O,l,167,1,3331.89999999851,289961.3999999985,7010,WL,A,14.0
2,30.806999921798706,learn,29193.000078201294,Thu Aug 08 2024 15:05:08 GMT-0500 (Central Daylight Time),293410.0,A,gold,O,d,113,1,3448.60000000149,289961.3999999985,7010,WL,A,14.0
2,30.957000017166138,learn,29042.999982833862,Thu Aug 08 2024 15:05:08 GMT-0500 (Central Daylight Time),293559.8999999985,A,goldenter,O,enter,140,1,3598.5,289961.3999999985,7010,WL,A,14.0
2,36.78699994087219,learn,23213.000059127808,Thu Aug 08 2024 15:05:08 GMT-0500 (Central Daylight Time),299391.19999999553,A,c,O,c,5814,1,5830.89999999851,293560.299999997,7010,WL,A,15.0
2,36.9539999961853,learn,23046.000003814697,Thu Aug 08 2024 15:05:08 GMT-0500 (Central Daylight Time),299558.1000000015,A,ch,O,h,150,1,5997.80000000447,293560.299999997,7010,WL,A,15.0
2,37.187000036239624,learn,22812.999963760376,Thu Aug 08 2024 15:05:08 GMT-0500 (Central Daylight Time),299791.299999997,A,chi,O,i,216,1,6231.0,293560.299999997,7010,WL,A,15.0
2,37.63700008392334,learn,22362.99991607666,Thu Aug 08 2024 15:05:08 GMT-0500 (Central Daylight Time),300241.0,A,chim,O,m,438,1,6680.70000000298,293560.299999997,7010,WL,A,15.0
2,37.98699998855591,learn,22013.00001144409,Thu Aug 08 2024 15:05:08 GMT-0500 (Central Daylight Time),300591.19999999553,A,chimn,O,n,333,1,7030.89999999851,293560.299999997,7010,WL,A,15.0
2,38.13700008392334,learn,21862.99991607666,Thu Aug 08 2024 15:05:08 GMT-0500 (Central Daylight Time),300741.0,A,chimne,O,e,143,1,7180.70000000298,293560.299999997,7010,WL,A,15.0
2,38.53699994087219,learn,21463.000059127808,Thu Aug 08 2024 15:05:08 GMT-0500 (Central Daylight Time),301140.799999997,A,chimney,O,y,385,1,7580.5,293560.299999997,7010,WL,A,15.0
2,39.08800005912781,learn,20911.999940872192,Thu Aug 08 2024 15:05:08 GMT-0500 (Central Daylight Time),301691.799999997,A,chimneyenter,O,enter,537,1,8131.5,293560.299999997,7010,WL,A,15.0
3,0.6500000953674316,learn,59349.99990463257,Thu Aug 08 2024 15:05:08 GMT-0500 (Central Daylight Time),369635.8999999985,A,c,O,c,644,1,649.7000000029802,368986.19999999553,7010,WL,A,1.0
3,0.817000150680542,learn,59182.99984931946,Thu Aug 08 2024 15:05:08 GMT-0500 (Central Daylight Time),369802.299999997,A,ch,O,h,161,1,816.1000000014901,368986.19999999553,7010,WL,A,1.0
3,1.3330001831054688,learn,58666.99981689453,Thu Aug 08 2024 15:05:08 GMT-0500 (Central Daylight Time),370319.0,A,chi,O,i,507,1,1332.8000000044703,368986.19999999553,7010,WL,A,1.0
3,1.6170001029968262,learn,58382.999897003174,Thu Aug 08 2024 15:05:08 GMT-0500 (Central Daylight Time),370602.299999997,A,chim,O,m,263,1,1616.1000000014901,368986.19999999553,7010,WL,A,1.0
3,1.933000087738037,learn,58066.99991226196,Thu Aug 08 2024 15:05:08 GMT-0500 (Central Daylight Time),370918.8999999985,A,chimn,O,n,307,1,1932.7000000029802,368986.19999999553,7010,WL,A,1.0
3,2.133000135421753,learn,57866.99986457825,Thu Aug 08 2024 15:05:08 GMT-0500 (Central Daylight Time),371118.8999999985,A,chimne,O,e,191,1,2132.7000000029802,368986.19999999553,7010,WL,A,1.0
3,2.2829999923706055,learn,57717.000007629395,Thu Aug 08 2024 15:05:08 GMT-0500 (Central Daylight Time),371268.799999997,A,chimney,O,y,143,1,2282.60000000149,368986.19999999553,7010,WL,A,1.0
3,2.7330000400543213,learn,57266.99995994568,Thu Aug 08 2024 15:05:08 GMT-0500 (Central Daylight Time),371718.69999999553,A,chimneyenter,O,enter,433,1,2732.5,368986.19999999553,7010,WL,A,1.0
3,3.0490000247955322,learn,56950.99997520447,Thu Aug 08 2024 15:05:08 GMT-0500 (Central Daylight Time),372035.1000000015,A,a,O,a,303,1,316.1000000014901,371719.0,7010,WL,A,2.0
3,3.199000120162964,learn,56800.999879837036,Thu Aug 08 2024 15:05:08 GMT-0500 (Central Daylight Time),372185.19999999553,A,ap,O,p,131,1,466.19999999552965,371719.0,7010,WL,A,2.0
3,3.3490002155303955,learn,56650.999784469604,Thu Aug 08 2024 15:05:08 GMT-0500 (Central Daylight Time),372335.0,A,app,O,p,133,1,616.0,371719.0,7010,WL,A,2.0
3,3.5329999923706055,learn,56467.000007629395,Thu Aug 08 2024 15:05:08 GMT-0500 (Central Daylight Time),372518.6000000015,A,appl,O,l,167,1,799.6000000014901,371719.0,7010,WL,A,2.0
3,3.882000207901001,learn,56117.999792099,Thu Aug 08 2024 15:05:08 GMT-0500 (Central Daylight Time),372868.0,A,apple,O,e,343,1,1149.0,371719.0,7010,WL,A,2.0
3,4.133000135421753,learn,55866.99986457825,Thu Aug 08 2024 15:05:08 GMT-0500 (Central Daylight Time),373118.19999999553,A,appleenter,O,enter,242,1,1399.1999999955297,371719.0,7010,WL,A,2.0
3,4.8490002155303955,learn,55150.999784469604,Thu Aug 08 2024 15:05:08 GMT-0500 (Central Daylight Time),373834.6000000015,A,k,O,k,703,1,716.1000000014901,373118.5,7010,WL,A,3.0
3,4.999000072479248,learn,55000.99992752075,Thu Aug 08 2024 15:05:08 GMT-0500 (Central Daylight Time),373984.69999999553,A,ke,O,e,139,1,866.1999999955297,373118.5,7010,WL,A,3.0
3,5.365000009536743,learn,54634.99999046326,Thu Aug 08 2024 15:05:08 GMT-0500 (Central Daylight Time),374351.0,A,key,O,y,348,1,1232.5,373118.5,7010,WL,A,3.0
3,5.699000120162964,learn,54300.999879837036,Thu Aug 08 2024 15:05:08 GMT-0500 (Central Daylight Time),374684.3999999985,A,keyenter,O,enter,318,1,1565.8999999985099,373118.5,7010,WL,A,3.0
3,6.082000017166138,learn,53917.99998283386,Thu Aug 08 2024 15:05:08 GMT-0500 (Central Daylight Time),375067.8999999985,A,l,O,l,378,1,383.29999999701977,374684.6000000015,7010,WL,A,4.0
3,6.315000057220459,learn,53684.99994277954,Thu Aug 08 2024 15:05:08 GMT-0500 (Central Daylight Time),375300.8999999985,A,lo,O,o,226,1,616.2999999970198,374684.6000000015,7010,WL,A,4.0
3,6.582000017166138,learn,53417.99998283386,Thu Aug 08 2024 15:05:08 GMT-0500 (Central Daylight Time),375567.6000000015,A,log,O,g,249,1,883.0,374684.6000000015,7010,WL,A,4.0
3,6.7820000648498535,learn,53217.99993515015,Thu Aug 08 2024 15:05:08 GMT-0500 (Central Daylight Time),375767.299999997,A,logenter,O,enter,182,1,1082.6999999955297,374684.6000000015,7010,WL,A,4.0
3,7.3480000495910645,learn,52651.999950408936,Thu Aug 08 2024 15:05:08 GMT-0500 (Central Daylight Time),376333.799999997,A,r,O,r,559,1,566.1999999955297,375767.6000000015,7010,WL,A,5.0
3,7.565999984741211,learn,52434.00001525879,Thu Aug 08 2024 15:05:08 GMT-0500 (Central Daylight Time),376551.5,A,ru,O,u,199,1,783.8999999985099,375767.6000000015,7010,WL,A,5.0
3,7.815000057220459,learn,52184.99994277954,Thu Aug 08 2024 15:05:08 GMT-0500 (Central Daylight Time),376800.3999999985,A,rug,O,g,230,1,1032.7999999970198,375767.6000000015,7010,WL,A,5.0
3,7.965000152587891,learn,52034.99984741211,Thu Aug 08 2024 15:05:08 GMT-0500 (Central Daylight Time),376950.299999997,A,rugenter,O,enter,141,1,1182.6999999955297,375767.6000000015,7010,WL,A,5.0
3,8.265000104904175,learn,51734.999895095825,Thu Aug 08 2024 15:05:08 GMT-0500 (Central Daylight Time),377250.19999999553,A,b,O,b,296,1,299.59999999403954,376950.6000000015,7010,WL,A,6.0
3,8.481000185012817,learn,51518.99981498718,Thu Aug 08 2024 15:05:08 GMT-0500 (Central Daylight Time),377466.6000000015,A,bu,O,u,211,1,516.0,376950.6000000015,7010,WL,A,6.0
3,8.698000192642212,learn,51301.99980735779,Thu Aug 08 2024 15:05:08 GMT-0500 (Central Daylight Time),377683.299999997,A,but,O,t,211,1,732.6999999955297,376950.6000000015,7010,WL,A,6.0
3,8.865000009536743,learn,51134.99999046326,Thu Aug 08 2024 15:05:08 GMT-0500 (Central Daylight Time),377850.19999999553,A,butt,O,t,154,1,899.5999999940395,376950.6000000015,7010,WL,A,6.0
3,9.081000089645386,learn,50918.999910354614,Thu Aug 08 2024 15:05:08 GMT-0500 (Central Daylight Time),378066.5,A,butto,O,o,195,1,1115.8999999985099,376950.6000000015,7010,WL,A,6.0
3,9.44700002670288,learn,50552.99997329712,Thu Aug 08 2024 15:05:08 GMT-0500 (Central Daylight Time),378433.1000000015,A,button,O,n,347,1,1482.5,376950.6000000015,7010,WL,A,6.0
3,10.147000074386597,learn,49852.9999256134,Thu Aug 08 2024 15:05:08 GMT-0500 (Central Daylight Time),379133.0,A,buttonenter,O,enter,693,1,2182.39999999851,376950.6000000015,7010,WL,A,6.0
3,12.130000114440918,learn,47869.99988555908,Thu Aug 08 2024 15:05:08 GMT-0500 (Central Daylight Time),381115.5,A,g,O,g,1968,1,1982.1000000014901,379133.3999999985,7010,WL,A,7.0
3,12.297000169754028,learn,47702.99983024597,Thu Aug 08 2024 15:05:08 GMT-0500 (Central Daylight Time),381282.1000000015,A,go,O,o,154,1,2148.7000000029802,379133.3999999985,7010,WL,A,7.0
3,12.547000169754028,learn,47452.99983024597,Thu Aug 08 2024 15:05:08 GMT-0500 (Central Daylight Time),381532.19999999553,A,gol,O,l,236,1,2398.7999999970198,379133.3999999985,7010,WL,A,7.0
3,12.69700002670288,learn,47302.99997329712,Thu Aug 08 2024 15:05:08 GMT-0500 (Central Daylight Time),381682.19999999553,A,gold,O,d,129,1,2548.7999999970198,379133.3999999985,7010,WL,A,7.0
3,12.86300015449524,learn,47136.99984550476,Thu Aug 08 2024 15:05:08 GMT-0500 (Central Daylight Time),381848.6000000015,A,goldenter,O,enter,155,1,2715.2000000029802,379133.3999999985,7010,WL,A,7.0
3,13.879000186920166,learn,46120.999813079834,Thu Aug 08 2024 15:05:08 GMT-0500 (Central Daylight Time),382865.0,A,f,O,f,997,1,1016.1000000014901,381848.8999999985,7010,WL,A,8.0
3,14.063000202178955,learn,45936.999797821045,Thu Aug 08 2024 15:05:08 GMT-0500 (Central Daylight Time),383048.299999997,A,fi,O,i,165,1,1199.3999999985099,381848.8999999985,7010,WL,A,8.0
3,14.296000003814697,learn,45703.9999961853,Thu Aug 08 2024 15:05:08 GMT-0500 (Central Daylight Time),383281.6000000015,A,fin,O,n,221,1,1432.7000000029802,381848.8999999985,7010,WL,A,8.0
3,14.662000179290771,learn,45337.99982070923,Thu Aug 08 2024 15:05:08 GMT-0500 (Central Daylight Time),383648.0,A,fing,O,g,348,1,1799.1000000014901,381848.8999999985,7010,WL,A,8.0
3,14.828999996185303,learn,45171.0000038147,Thu Aug 08 2024 15:05:08 GMT-0500 (Central Daylight Time),383814.799999997,A,finge,O,e,158,1,1965.8999999985099,381848.8999999985,7010,WL,A,8.0
3,14.92900013923645,learn,45070.99986076355,Thu Aug 08 2024 15:05:08 GMT-0500 (Central Daylight Time),383914.3999999985,A,finger,O,r,95,1,2065.5,381848.8999999985,7010,WL,A,8.0
3,15.111999988555908,learn,44888.00001144409,Thu Aug 08 2024 15:05:08 GMT-0500 (Central Daylight Time),384098.0,A,fingerenter,O,enter,180,1,2249.10000000149,381848.8999999985,7010,WL,A,8.0
3,15.745000123977661,learn,44254.99987602234,Thu Aug 08 2024 15:05:08 GMT-0500 (Central Daylight Time),384731.0,A,m,O,m,628,1,632.8000000044703,384098.19999999553,7010,WL,A,9.0
3,15.879000186920166,learn,44120.999813079834,Thu Aug 08 2024 15:05:08 GMT-0500 (Central Daylight Time),384864.3999999985,A,me,O,e,123,1,766.2000000029802,384098.19999999553,7010,WL,A,9.0
3,16.111999988555908,learn,43888.00001144409,Thu Aug 08 2024 15:05:08 GMT-0500 (Central Daylight Time),385097.69999999553,A,mea,O,a,221,1,999.5,384098.19999999553,7010,WL,A,9.0
3,16.479000091552734,learn,43520.999908447266,Thu Aug 08 2024 15:05:08 GMT-0500 (Central Daylight Time),385464.19999999553,A,mead,O,d,348,1,1366.0,384098.19999999553,7010,WL,A,9.0
3,16.629000186920166,learn,43370.999813079834,Thu Aug 08 2024 15:05:08 GMT-0500 (Central Daylight Time),385614.19999999553,A,meado,O,o,141,1,1516.0,384098.19999999553,7010,WL,A,9.0
3,16.91200017929077,learn,43087.99982070923,Thu Aug 08 2024 15:05:08 GMT-0500 (Central Daylight Time),385897.3999999985,A,meadow,O,w,272,1,1799.2000000029802,384098.19999999553,7010,WL,A,9.0
3,17.07800006866455,learn,42921.99993133545,Thu Aug 08 2024 15:05:08 GMT-0500 (Central Daylight Time),386064.0,A,meadowenter,O,enter,148,1,1965.8000000044703,384098.19999999553,7010,WL,A,9.0
3,17.761000156402588,learn,42238.99984359741,Thu Aug 08 2024 15:05:08 GMT-0500 (Central Daylight Time),386747.0,A,b,O,b,678,1,682.6000000014901,386064.3999999985,7010,WL,A,10.0
3,17.945000171661377,learn,42054.99982833862,Thu Aug 08 2024 15:05:08 GMT-0500 (Central Daylight Time),386930.5,A,bo,O,o,163,1,866.1000000014901,386064.3999999985,7010,WL,A,10.0
3,18.09500002861023,learn,41904.99997138977,Thu Aug 08 2024 15:05:08 GMT-0500 (Central Daylight Time),387080.3999999985,A,boo,O,o,131,1,1016.0,386064.3999999985,7010,WL,A,10.0
3,18.295000076293945,learn,41704.999923706055,Thu Aug 08 2024 15:05:08 GMT-0500 (Central Daylight Time),387280.299999997,A,book,O,k,189,1,1215.8999999985099,386064.3999999985,7010,WL,A,10.0
3,18.445000171661377,learn,41554.99982833862,Thu Aug 08 2024 15:05:08 GMT-0500 (Central Daylight Time),387430.299999997,A,bookenter,O,enter,133,1,1365.8999999985099,386064.3999999985,7010,WL,A,10.0
3,19.111000061035156,learn,40888.999938964844,Thu Aug 08 2024 15:05:08 GMT-0500 (Central Daylight Time),388096.799999997,A,f,O,f,647,1,666.0,387430.799999997,7010,WL,A,11.0
3,19.228000164031982,learn,40771.99983596802,Thu Aug 08 2024 15:05:08 GMT-0500 (Central Daylight Time),388213.6000000015,A,fl,O,l,109,1,782.8000000044703,387430.799999997,7010,WL,A,11.0
3,19.4280002117157,learn,40571.9997882843,Thu Aug 08 2024 15:05:08 GMT-0500 (Central Daylight Time),388413.19999999553,A,flo,O,o,184,1,982.3999999985099,387430.799999997,7010,WL,A,11.0
3,19.561000108718872,learn,40438.99989128113,Thu Aug 08 2024 15:05:08 GMT-0500 (Central Daylight Time),388546.6000000015,A,flow,O,w,120,1,1115.8000000044703,387430.799999997,7010,WL,A,11.0
3,19.66100001335144,learn,40338.99998664856,Thu Aug 08 2024 15:05:08 GMT-0500 (Central Daylight Time),388646.5,A,flowe,O,e,91,1,1215.7000000029802,387430.799999997,7010,WL,A,11.0
3,19.91100001335144,learn,40088.99998664856,Thu Aug 08 2024 15:05:08 GMT-0500 (Central Daylight Time),388896.5,A,flower,O,r,231,1,1465.7000000029802,387430.799999997,7010,WL,A,11.0
3,20.094000101089478,learn,39905.99989891052,Thu Aug 08 2024 15:05:08 GMT-0500 (Central Daylight Time),389079.8999999985,A,flowerenter,O,enter,165,1,1649.1000000014901,387430.799999997,7010,WL,A,11.0
3,24.409000158309937,learn,35590.99984169006,Thu Aug 08 2024 15:05:08 GMT-0500 (Central Daylight Time),393394.8999999985,A,s,O,s,4310,1,4314.70000000298,389080.19999999553,7010,WL,A,12.0
3,24.56000018119812,learn,35439.99981880188,Thu Aug 08 2024 15:05:08 GMT-0500 (Central Daylight Time),393545.1000000015,A,sa,O,a,139,1,4464.9000000059605,389080.19999999553,7010,WL,A,12.0
3,24.80900001525879,learn,35190.99998474121,Thu Aug 08 2024 15:05:08 GMT-0500 (Central Daylight Time),393795.0,A,sal,O,l,236,1,4714.80000000447,389080.19999999553,7010,WL,A,12.0
3,25.193000078201294,learn,34806.999921798706,Thu Aug 08 2024 15:05:08 GMT-0500 (Central Daylight Time),394178.19999999553,A,salt,O,t,371,1,5098.0,389080.19999999553,7010,WL,A,12.0
3,25.37600016593933,learn,34623.99983406067,Thu Aug 08 2024 15:05:08 GMT-0500 (Central Daylight Time),394361.6000000015,A,saltenter,O,enter,171,1,5281.4000000059605,389080.19999999553,7010,WL,A,12.0
3,30.508000135421753,learn,29491.999864578247,Thu Aug 08 2024 15:05:08 GMT-0500 (Central Daylight Time),399493.299999997,A,h,O,h,5116,1,5131.39999999851,394361.8999999985,7010,WL,A,13.0
3,30.624000072479248,learn,29375.999927520752,Thu Aug 08 2024 15:05:08 GMT-0500 (Central Daylight Time),399610.0,A,ha,O,a,112,1,5248.10000000149,394361.8999999985,7010,WL,A,13.0
3,30.907999992370605,learn,29092.000007629395,Thu Aug 08 2024 15:05:08 GMT-0500 (Central Daylight Time),399893.299999997,A,har,O,r,268,1,5531.39999999851,394361.8999999985,7010,WL,A,13.0
3,31.674000024795532,learn,28325.999975204468,Thu Aug 08 2024 15:05:08 GMT-0500 (Central Daylight Time),400659.5,A,harp,O,p,752,1,6297.60000000149,394361.8999999985,7010,WL,A,13.0
3,32.007000207901,learn,27992.999792099,Thu Aug 08 2024 15:05:08 GMT-0500 (Central Daylight Time),400992.5,A,harpenter,O,enter,322,1,6630.60000000149,394361.8999999985,7010,WL,A,13.0
3,42.920000076293945,learn,17079.999923706055,Thu Aug 08 2024 15:05:08 GMT-0500 (Central Daylight Time),411905.8999999985,A,t,O,t,10901,1,10913.20000000298,400992.69999999553,7010,WL,A,14.0
3,43.004000186920166,learn,16995.999813079834,Thu Aug 08 2024 15:05:08 GMT-0500 (Central Daylight Time),411989.19999999553,A,tr,O,r,75,1,10996.5,400992.69999999553,7010,WL,A,14.0
3,43.23699998855591,learn,16763.00001144409,Thu Aug 08 2024 15:05:08 GMT-0500 (Central Daylight Time),412222.6000000015,A,tra,O,a,225,1,11229.90000000596,400992.69999999553,7010,WL,A,14.0
3,43.38700008392334,learn,16612.99991607666,Thu Aug 08 2024 15:05:08 GMT-0500 (Central Daylight Time),412372.3999999985,A,trai,O,i,135,1,11379.70000000298,400992.69999999553,7010,WL,A,14.0
3,43.57000017166138,learn,16429.999828338623,Thu Aug 08 2024 15:05:08 GMT-0500 (Central Daylight Time),412555.69999999553,A,train,O,n,177,1,11563.0,400992.69999999553,7010,WL,A,14.0
3,43.72000002861023,learn,16279.99997138977,Thu Aug 08 2024 15:05:08 GMT-0500 (Central Daylight Time),412705.8999999985,A,trainenter,O,enter,138,1,11713.20000000298,400992.69999999553,7010,WL,A,14.0
3,60.01400017738342,learn,-14.000177383422852,Thu Aug 08 2024 15:05:08 GMT-0500 (Central Daylight Time),429001.1000000015,A,None,O,None,16290,1,16295.0,412706.1000000015,7010,WL,A,15.0
4,1.315999984741211,learn,58684.00001525879,Thu Aug 08 2024 15:05:08 GMT-0500 (Central Daylight Time),497778.8999999985,A,r,O,r,1304,1,1316.1000000014901,496462.799999997,7010,WL,A,1.0
4,1.5,learn,58500.0,Thu Aug 08 2024 15:05:08 GMT-0500 (Central Daylight Time),497962.19999999553,A,ra,O,a,178,1,1499.3999999985099,496462.799999997,7010,WL,A,1.0
4,1.7159998416900635,learn,58284.00015830994,Thu Aug 08 2024 15:05:08 GMT-0500 (Central Daylight Time),498178.69999999553,A,rat,O,t,211,1,1715.8999999985099,496462.799999997,7010,WL,A,1.0
4,1.8829998970031738,learn,58117.000102996826,Thu Aug 08 2024 15:05:08 GMT-0500 (Central Daylight Time),498345.69999999553,A,ratt,O,t,147,1,1882.8999999985099,496462.799999997,7010,WL,A,1.0
4,2.0329999923706055,learn,57967.000007629395,Thu Aug 08 2024 15:05:08 GMT-0500 (Central Daylight Time),498495.5,A,rattl,O,l,140,1,2032.7000000029802,496462.799999997,7010,WL,A,1.0
4,2.182999849319458,learn,57817.00015068054,Thu Aug 08 2024 15:05:08 GMT-0500 (Central Daylight Time),498645.3999999985,A,rattle,O,e,142,1,2182.60000000149,496462.799999997,7010,WL,A,1.0
4,2.365999937057495,learn,57634.000062942505,Thu Aug 08 2024 15:05:08 GMT-0500 (Central Daylight Time),498828.6000000015,A,rattleenter,O,enter,168,1,2365.8000000044703,496462.799999997,7010,WL,A,1.0
4,3.0820000171661377,learn,56917.99998283386,Thu Aug 08 2024 15:05:08 GMT-0500 (Central Daylight Time),499544.8999999985,A,k,O,k,705,1,716.0,498828.8999999985,7010,WL,A,2.0
4,3.4649999141693115,learn,56535.00008583069,Thu Aug 08 2024 15:05:08 GMT-0500 (Central Daylight Time),499927.799999997,A,ke,O,e,373,1,1098.8999999985099,498828.8999999985,7010,WL,A,2.0
4,3.681999921798706,learn,56318.000078201294,Thu Aug 08 2024 15:05:08 GMT-0500 (Central Daylight Time),500144.5,A,key,O,y,206,1,1315.6000000014901,498828.8999999985,7010,WL,A,2.0
4,3.9649999141693115,learn,56035.00008583069,Thu Aug 08 2024 15:05:08 GMT-0500 (Central Daylight Time),500427.69999999553,A,keyenter,O,enter,276,1,1598.7999999970198,498828.8999999985,7010,WL,A,2.0
4,4.432999849319458,learn,55567.00015068054,Thu Aug 08 2024 15:05:08 GMT-0500 (Central Daylight Time),500895.799999997,A,l,O,l,458,1,467.8999999985099,500427.8999999985,7010,WL,A,3.0
4,5.0320000648498535,learn,54967.99993515015,Thu Aug 08 2024 15:05:08 GMT-0500 (Central Daylight Time),501494.5,A,lo,O,o,589,1,1066.6000000014901,500427.8999999985,7010,WL,A,3.0
4,5.447999954223633,learn,54552.00004577637,Thu Aug 08 2024 15:05:08 GMT-0500 (Central Daylight Time),501911.0,A,log,O,g,399,1,1483.1000000014901,500427.8999999985,7010,WL,A,3.0
4,5.631999969482422,learn,54368.00003051758,Thu Aug 08 2024 15:05:08 GMT-0500 (Central Daylight Time),502094.19999999553,A,logenter,O,enter,167,1,1666.2999999970198,500427.8999999985,7010,WL,A,3.0
4,6.197999954223633,learn,53802.00004577637,Thu Aug 08 2024 15:05:08 GMT-0500 (Central Daylight Time),502660.799999997,A,c,O,c,559,1,566.1999999955297,502094.6000000015,7010,WL,A,4.0
4,6.513999938964844,learn,53486.000061035156,Thu Aug 08 2024 15:05:08 GMT-0500 (Central Daylight Time),502977.1000000015,A,ch,O,h,305,1,882.5,502094.6000000015,7010,WL,A,4.0
4,6.648000001907349,learn,53351.99999809265,Thu Aug 08 2024 15:05:08 GMT-0500 (Central Daylight Time),503110.6000000015,A,chi,O,i,116,1,1016.0,502094.6000000015,7010,WL,A,4.0
4,7.014999866485596,learn,52985.000133514404,Thu Aug 08 2024 15:05:08 GMT-0500 (Central Daylight Time),503477.1000000015,A,chim,O,m,359,1,1382.5,502094.6000000015,7010,WL,A,4.0
4,7.3480000495910645,learn,52651.999950408936,Thu Aug 08 2024 15:05:08 GMT-0500 (Central Daylight Time),503810.5,A,chimn,O,n,312,1,1715.8999999985099,502094.6000000015,7010,WL,A,4.0
4,7.547999858856201,learn,52452.0001411438,Thu Aug 08 2024 15:05:08 GMT-0500 (Central Daylight Time),504010.299999997,A,chimne,O,e,194,1,1915.6999999955297,502094.6000000015,7010,WL,A,4.0
4,7.7809998989105225,learn,52219.00010108948,Thu Aug 08 2024 15:05:08 GMT-0500 (Central Daylight Time),504243.6000000015,A,chimney,O,y,219,1,2149.0,502094.6000000015,7010,WL,A,4.0
4,8.19700002670288,learn,51802.99997329712,Thu Aug 08 2024 15:05:08 GMT-0500 (Central Daylight Time),504660.1000000015,A,chimneyenter,O,enter,410,1,2565.5,502094.6000000015,7010,WL,A,4.0
4,9.263999938964844,learn,50736.000061035156,Thu Aug 08 2024 15:05:08 GMT-0500 (Central Daylight Time),505726.3999999985,A,b,O,b,1058,1,1065.8999999985099,504660.5,7010,WL,A,5.0
4,9.513999938964844,learn,50486.000061035156,Thu Aug 08 2024 15:05:08 GMT-0500 (Central Daylight Time),505976.5,A,bu,O,u,239,1,1316.0,504660.5,7010,WL,A,5.0
4,9.746999979019165,learn,50253.000020980835,Thu Aug 08 2024 15:05:08 GMT-0500 (Central Daylight Time),506209.69999999553,A,but,O,t,221,1,1549.1999999955297,504660.5,7010,WL,A,5.0
4,9.914000034332275,learn,50085.999965667725,Thu Aug 08 2024 15:05:08 GMT-0500 (Central Daylight Time),506376.299999997,A,butt,O,t,156,1,1715.7999999970198,504660.5,7010,WL,A,5.0
4,10.063999891281128,learn,49936.00010871887,Thu Aug 08 2024 15:05:08 GMT-0500 (Central Daylight Time),506526.299999997,A,butto,O,o,133,1,1865.7999999970198,504660.5,7010,WL,A,5.0
4,10.313999891281128,learn,49686.00010871887,Thu Aug 08 2024 15:05:08 GMT-0500 (Central Daylight Time),506776.19999999553,A,button,O,n,231,1,2115.6999999955297,504660.5,7010,WL,A,5.0
4,10.54699993133545,learn,49453.00006866455,Thu Aug 08 2024 15:05:08 GMT-0500 (Central Daylight Time),507009.299999997,A,buttonenter,O,enter,214,1,2348.7999999970198,504660.5,7010,WL,A,5.0
4,11.079999923706055,learn,48920.000076293945,Thu Aug 08 2024 15:05:08 GMT-0500 (Central Daylight Time),507542.5,A,b,O,b,525,1,532.8999999985099,507009.6000000015,7010,WL,A,6.0
4,11.27999997138977,learn,48720.00002861023,Thu Aug 08 2024 15:05:08 GMT-0500 (Central Daylight Time),507742.69999999553,A,bo,O,o,183,1,733.0999999940395,507009.6000000015,7010,WL,A,6.0
4,11.430000066757202,learn,48569.9999332428,Thu Aug 08 2024 15:05:08 GMT-0500 (Central Daylight Time),507892.3999999985,A,boo,O,o,135,1,882.7999999970198,507009.6000000015,7010,WL,A,6.0
4,11.61299991607666,learn,48387.00008392334,Thu Aug 08 2024 15:05:08 GMT-0500 (Central Daylight Time),508075.69999999553,A,book,O,k,169,1,1066.0999999940395,507009.6000000015,7010,WL,A,6.0
4,12.04200005531311,learn,47957.99994468689,Thu Aug 08 2024 15:05:08 GMT-0500 (Central Daylight Time),508504.299999997,A,bookenter,O,enter,405,1,1494.6999999955297,507009.6000000015,7010,WL,A,6.0
4,12.246000051498413,learn,47753.99994850159,Thu Aug 08 2024 15:05:08 GMT-0500 (Central Daylight Time),508708.8999999985,A,f,O,f,189,1,204.39999999850988,508504.5,7010,WL,A,7.0
4,12.395999908447266,learn,47604.000091552734,Thu Aug 08 2024 15:05:08 GMT-0500 (Central Daylight Time),508858.8999999985,A,fl,O,l,145,1,354.3999999985099,508504.5,7010,WL,A,7.0
4,12.61299991607666,learn,47387.00008392334,Thu Aug 08 2024 15:05:08 GMT-0500 (Central Daylight Time),509075.3999999985,A,flo,O,o,211,1,570.8999999985099,508504.5,7010,WL,A,7.0
4,12.828999996185303,learn,47171.0000038147,Thu Aug 08 2024 15:05:08 GMT-0500 (Central Daylight Time),509292.0,A,flow,O,w,210,1,787.5,508504.5,7010,WL,A,7.0
4,12.978999853134155,learn,47021.000146865845,Thu Aug 08 2024 15:05:08 GMT-0500 (Central Daylight Time),509442.0,A,flowe,O,e,130,1,937.5,508504.5,7010,WL,A,7.0
4,13.178999900817871,learn,46821.00009918213,Thu Aug 08 2024 15:05:08 GMT-0500 (Central Daylight Time),509642.0,A,flower,O,r,180,1,1137.5,508504.5,7010,WL,A,7.0
4,13.345999956130981,learn,46654.00004386902,Thu Aug 08 2024 15:05:08 GMT-0500 (Central Daylight Time),509808.6000000015,A,flowerenter,O,enter,156,1,1304.1000000014901,508504.5,7010,WL,A,7.0
4,13.678999900817871,learn,46321.00009918213,Thu Aug 08 2024 15:05:08 GMT-0500 (Central Daylight Time),510141.799999997,A,s,O,s,325,1,332.8999999985099,509808.8999999985,7010,WL,A,8.0
4,13.878999948501587,learn,46121.00005149841,Thu Aug 08 2024 15:05:08 GMT-0500 (Central Daylight Time),510341.69999999553,A,sa,O,a,184,1,532.7999999970198,509808.8999999985,7010,WL,A,8.0
4,14.01199984550476,learn,45988.00015449524,Thu Aug 08 2024 15:05:08 GMT-0500 (Central Daylight Time),510474.799999997,A,sal,O,l,128,1,665.8999999985099,509808.8999999985,7010,WL,A,8.0
4,14.478999853134155,learn,45521.000146865845,Thu Aug 08 2024 15:05:08 GMT-0500 (Central Daylight Time),510941.5,A,salt,O,t,459,1,1132.6000000014901,509808.8999999985,7010,WL,A,8.0
4,14.678999900817871,learn,45321.00009918213,Thu Aug 08 2024 15:05:08 GMT-0500 (Central Daylight Time),511141.299999997,A,saltenter,O,enter,184,1,1332.3999999985099,509808.8999999985,7010,WL,A,8.0
4,15.34500002861023,learn,44654.99997138977,Thu Aug 08 2024 15:05:08 GMT-0500 (Central Daylight Time),511807.8999999985,A,t,O,t,648,1,666.2000000029802,511141.69999999553,7010,WL,A,9.0
4,15.59500002861023,learn,44404.99997138977,Thu Aug 08 2024 15:05:08 GMT-0500 (Central Daylight Time),512057.799999997,A,tr,O,r,237,1,916.1000000014901,511141.69999999553,7010,WL,A,9.0
4,15.894999980926514,learn,44105.000019073486,Thu Aug 08 2024 15:05:08 GMT-0500 (Central Daylight Time),512357.69999999553,A,tra,O,a,292,1,1216.0,511141.69999999553,7010,WL,A,9.0
4,16.027999877929688,learn,43972.00012207031,Thu Aug 08 2024 15:05:08 GMT-0500 (Central Daylight Time),512491.0,A,trai,O,i,120,1,1349.3000000044703,511141.69999999553,7010,WL,A,9.0
4,16.211999893188477,learn,43788.00010681152,Thu Aug 08 2024 15:05:08 GMT-0500 (Central Daylight Time),512674.3999999985,A,train,O,n,163,1,1532.7000000029802,511141.69999999553,7010,WL,A,9.0
4,16.477999925613403,learn,43522.0000743866,Thu Aug 08 2024 15:05:08 GMT-0500 (Central Daylight Time),512940.8999999985,A,trainenter,O,enter,251,1,1799.2000000029802,511141.69999999553,7010,WL,A,9.0
4,17.227999925613403,learn,42772.0000743866,Thu Aug 08 2024 15:05:08 GMT-0500 (Central Daylight Time),513690.69999999553,A,g,O,g,737,1,749.5,512941.19999999553,7010,WL,A,10.0
4,17.361999988555908,learn,42638.00001144409,Thu Aug 08 2024 15:05:08 GMT-0500 (Central Daylight Time),513824.19999999553,A,go,O,o,123,1,883.0,512941.19999999553,7010,WL,A,10.0
4,17.57800006866455,learn,42421.99993133545,Thu Aug 08 2024 15:05:08 GMT-0500 (Central Daylight Time),514040.5,A,gol,O,l,198,1,1099.3000000044703,512941.19999999553,7010,WL,A,10.0
4,17.82800006866455,learn,42171.99993133545,Thu Aug 08 2024 15:05:08 GMT-0500 (Central Daylight Time),514290.5,A,gold,O,d,229,1,1349.3000000044703,512941.19999999553,7010,WL,A,10.0
4,18.060999870300293,learn,41939.00012969971,Thu Aug 08 2024 15:05:08 GMT-0500 (Central Daylight Time),514523.69999999553,A,goldenter,O,enter,219,1,1582.5,512941.19999999553,7010,WL,A,10.0
4,18.310999870300293,learn,41689.00012969971,Thu Aug 08 2024 15:05:08 GMT-0500 (Central Daylight Time),514773.799999997,A,k,O,k,242,1,249.79999999701977,514524.0,7010,WL,A,11.0
4,18.49399995803833,learn,41506.00004196167,Thu Aug 08 2024 15:05:08 GMT-0500 (Central Daylight Time),514957.0,A,ke,O,e,168,1,433.0,514524.0,7010,WL,A,11.0
4,18.74399995803833,learn,41256.00004196167,Thu Aug 08 2024 15:05:08 GMT-0500 (Central Daylight Time),515206.8999999985,A,key,O,y,233,1,682.8999999985099,514524.0,7010,WL,A,11.0
4,18.978999853134155,learn,41021.000146865845,Thu Aug 08 2024 15:05:08 GMT-0500 (Central Daylight Time),515441.19999999553,A,keyenter,O,enter,223,1,917.1999999955297,514524.0,7010,WL,A,11.0
4,21.55999994277954,learn,38440.00005722046,Thu Aug 08 2024 15:05:08 GMT-0500 (Central Daylight Time),518022.6000000015,A,m,O,m,2572,1,2580.9000000059605,515441.69999999553,7010,WL,A,12.0
4,21.72699999809265,learn,38273.00000190735,Thu Aug 08 2024 15:05:08 GMT-0500 (Central Daylight Time),518189.3999999985,A,me,O,e,159,1,2747.7000000029802,515441.69999999553,7010,WL,A,12.0
4,21.90999984741211,learn,38090.00015258789,Thu Aug 08 2024 15:05:08 GMT-0500 (Central Daylight Time),518372.5,A,mea,O,a,168,1,2930.8000000044703,515441.69999999553,7010,WL,A,12.0
4,22.26099991798401,learn,37739.00008201599,Thu Aug 08 2024 15:05:08 GMT-0500 (Central Daylight Time),518723.6000000015,A,mead,O,d,337,1,3281.9000000059605,515441.69999999553,7010,WL,A,12.0
4,22.925999879837036,learn,37074.000120162964,Thu Aug 08 2024 15:05:08 GMT-0500 (Central Daylight Time),519388.8999999985,A,meado,O,o,658,1,3947.2000000029802,515441.69999999553,7010,WL,A,12.0
4,23.125999927520752,learn,36874.00007247925,Thu Aug 08 2024 15:05:08 GMT-0500 (Central Daylight Time),519588.8999999985,A,meadow,O,w,193,1,4147.20000000298,515441.69999999553,7010,WL,A,12.0
4,23.30900001525879,learn,36690.99998474121,Thu Aug 08 2024 15:05:08 GMT-0500 (Central Daylight Time),519772.1000000015,A,meadowenter,O,enter,177,1,4330.4000000059605,515441.69999999553,7010,WL,A,12.0
4,28.79099988937378,learn,31209.00011062622,Thu Aug 08 2024 15:05:08 GMT-0500 (Central Daylight Time),525254.0,A,s,O,s,5474,1,5481.60000000149,519772.3999999985,7010,WL,A,13.0
4,29.007999897003174,learn,30992.000102996826,Thu Aug 08 2024 15:05:08 GMT-0500 (Central Daylight Time),525470.3999999985,A,sa,O,a,199,1,5698.0,519772.3999999985,7010,WL,A,13.0
4,29.174000024795532,learn,30825.999975204468,Thu Aug 08 2024 15:05:08 GMT-0500 (Central Daylight Time),525636.8999999985,A,sal,O,l,159,1,5864.5,519772.3999999985,7010,WL,A,13.0
4,29.5239999294281,learn,30476.0000705719,Thu Aug 08 2024 15:05:08 GMT-0500 (Central Daylight Time),525986.6999999955,A,salt,O,t,345,1,6214.29999999702,519772.3999999985,7010,WL,A,13.0
4,29.740999937057495,learn,30259.000062942505,Thu Aug 08 2024 15:05:08 GMT-0500 (Central Daylight Time),526203.3999999985,A,saltenter,O,enter,211,1,6431.0,519772.3999999985,7010,WL,A,13.0
4,30.44099998474121,learn,29559.00001525879,Thu Aug 08 2024 15:05:08 GMT-0500 (Central Daylight Time),526903.1999999955,A,t,O,t,690,1,699.5,526203.6999999955,7010,WL,A,14.0
4,30.573999881744385,learn,29426.000118255615,Thu Aug 08 2024 15:05:08 GMT-0500 (Central Daylight Time),527036.299999997,A,tr,O,r,127,1,832.6000000014901,526203.6999999955,7010,WL,A,14.0
4,30.85699987411499,learn,29143.00012588501,Thu Aug 08 2024 15:05:08 GMT-0500 (Central Daylight Time),527319.6999999955,A,tra,O,a,266,1,1116.0,526203.6999999955,7010,WL,A,14.0
4,31.006999969482422,learn,28993.000030517578,Thu Aug 08 2024 15:05:08 GMT-0500 (Central Daylight Time),527469.6999999955,A,trai,O,i,142,1,1266.0,526203.6999999955,7010,WL,A,14.0
4,31.207000017166138,learn,28792.999982833862,Thu Aug 08 2024 15:05:08 GMT-0500 (Central Daylight Time),527669.6000000015,A,train,O,n,192,1,1465.9000000059605,526203.6999999955,7010,WL,A,14.0
4,31.407000064849854,learn,28592.999935150146,Thu Aug 08 2024 15:05:08 GMT-0500 (Central Daylight Time),527869.3999999985,A,trainenter,O,enter,184,1,1665.7000000029802,526203.6999999955,7010,WL,A,14.0
4,35.60800004005432,learn,24391.99995994568,Thu Aug 08 2024 15:05:08 GMT-0500 (Central Daylight Time),532071.1000000015,A,m,O,m,4178,1,4201.30000000447,527869.799999997,7010,WL,A,15.0
4,36.539000034332275,learn,23460.999965667725,Thu Aug 08 2024 15:05:08 GMT-0500 (Central Daylight Time),533001.1999999955,A,,O,backspace,918,1,5131.39999999851,527869.799999997,7010,WL,A,15.0
4,40.88699984550476,learn,19113.00015449524,Thu Aug 08 2024 15:05:08 GMT-0500 (Central Daylight Time),537349.8999999985,A,f,O,f,4333,1,9480.10000000149,527869.799999997,7010,WL,A,15.0
4,41.22000002861023,learn,18779.99997138977,Thu Aug 08 2024 15:05:08 GMT-0500 (Central Daylight Time),537683.299999997,A,fi,O,i,320,1,9813.5,527869.799999997,7010,WL,A,15.0
4,41.40299987792969,learn,18597.000122070312,Thu Aug 08 2024 15:05:08 GMT-0500 (Central Daylight Time),537866.3999999985,A,fin,O,n,171,1,9996.60000000149,527869.799999997,7010,WL,A,15.0
4,41.63599991798401,learn,18364.00008201599,Thu Aug 08 2024 15:05:08 GMT-0500 (Central Daylight Time),538099.6000000015,A,fing,O,g,227,1,10229.80000000447,527869.799999997,7010,WL,A,15.0
4,41.80299997329712,learn,18197.00002670288,Thu Aug 08 2024 15:05:08 GMT-0500 (Central Daylight Time),538266.3999999985,A,finge,O,e,146,1,10396.60000000149,527869.799999997,7010,WL,A,15.0
4,41.90299987792969,learn,18097.000122070312,Thu Aug 08 2024 15:05:08 GMT-0500 (Central Daylight Time),538366.3999999985,A,finger,O,r,83,1,10496.60000000149,527869.799999997,7010,WL,A,15.0
4,42.003000020980835,learn,17996.999979019165,Thu Aug 08 2024 15:05:08 GMT-0500 (Central Daylight Time),538466.0,A,fingerenter,O,enter,87,1,10596.20000000298,527869.799999997,7010,WL,A,15.0
5,0.41700005531311035,learn,60000.0,Thu Aug 08 2024 15:05:08 GMT-0500 (Central Daylight Time),604029.0,A,c,O,c,410,1,416.6000000014901,603612.3999999985,7010,WL,A,1.0
5,0.5339999198913574,learn,60000.0,Thu Aug 08 2024 15:05:08 GMT-0500 (Central Daylight Time),604145.8999999985,A,ch,O,h,105,1,533.5,603612.3999999985,7010,WL,A,1.0
5,1.3329999446868896,learn,60000.0,Thu Aug 08 2024 15:05:08 GMT-0500 (Central Daylight Time),604945.1999999955,A,chi,O,i,788,1,1332.7999999970198,603612.3999999985,7010,WL,A,1.0
5,1.565999984741211,learn,60000.0,Thu Aug 08 2024 15:05:08 GMT-0500 (Central Daylight Time),605178.5,A,chim,O,m,228,1,1566.1000000014901,603612.3999999985,7010,WL,A,1.0
5,1.8499999046325684,learn,60000.0,Thu Aug 08 2024 15:05:08 GMT-0500 (Central Daylight Time),605461.799999997,A,chimn,O,n,267,1,1849.3999999985099,603612.3999999985,7010,WL,A,1.0
5,2.065999984741211,learn,60000.0,Thu Aug 08 2024 15:05:08 GMT-0500 (Central Daylight Time),605678.299999997,A,chimne,O,e,200,1,2065.89999999851,603612.3999999985,7010,WL,A,1.0
5,2.200000047683716,learn,60000.0,Thu Aug 08 2024 15:05:08 GMT-0500 (Central Daylight Time),605811.799999997,A,chimney,O,y,119,1,2199.39999999851,603612.3999999985,7010,WL,A,1.0
5,2.5329999923706055,learn,60000.0,Thu Aug 08 2024 15:05:08 GMT-0500 (Central Daylight Time),606144.799999997,A,chimneyenter,O,enter,314,1,2532.39999999851,603612.3999999985,7010,WL,A,1.0
5,3.1989998817443848,learn,60000.0,Thu Aug 08 2024 15:05:08 GMT-0500 (Central Daylight Time),606811.1999999955,A,k,O,k,661,1,666.1999999955297,606145.0,7010,WL,A,2.0
5,3.432999849319458,learn,60000.0,Thu Aug 08 2024 15:05:08 GMT-0500 (Central Daylight Time),607044.6999999955,A,ke,O,e,219,1,899.6999999955297,606145.0,7010,WL,A,2.0
5,3.6489999294281006,learn,60000.0,Thu Aug 08 2024 15:05:08 GMT-0500 (Central Daylight Time),607261.1000000015,A,key,O,y,209,1,1116.1000000014901,606145.0,7010,WL,A,2.0
5,3.865999937057495,learn,60000.0,Thu Aug 08 2024 15:05:08 GMT-0500 (Central Daylight Time),607478.0,A,keyenter,O,enter,208,1,1333.0,606145.0,7010,WL,A,2.0
5,4.4659998416900635,learn,60000.0,Thu Aug 08 2024 15:05:08 GMT-0500 (Central Daylight Time),608077.799999997,A,r,O,r,584,1,599.5,607478.299999997,7010,WL,A,3.0
5,4.631999969482422,learn,60000.0,Thu Aug 08 2024 15:05:08 GMT-0500 (Central Daylight Time),608244.299999997,A,ra,O,a,160,1,766.0,607478.299999997,7010,WL,A,3.0
5,4.999000072479248,learn,60000.0,Thu Aug 08 2024 15:05:08 GMT-0500 (Central Daylight Time),608610.8999999985,A,rat,O,t,345,1,1132.6000000014901,607478.299999997,7010,WL,A,3.0
5,5.615000009536743,learn,60000.0,Thu Aug 08 2024 15:05:08 GMT-0500 (Central Daylight Time),609227.3999999985,A,ratt,O,t,603,1,1749.1000000014901,607478.299999997,7010,WL,A,3.0
5,5.764999866485596,learn,60000.0,Thu Aug 08 2024 15:05:08 GMT-0500 (Central Daylight Time),609377.0,A,rattl,O,l,130,1,1898.7000000029802,607478.299999997,7010,WL,A,3.0
5,5.881999969482422,learn,60000.0,Thu Aug 08 2024 15:05:08 GMT-0500 (Central Daylight Time),609493.6999999955,A,rattle,O,e,109,1,2015.3999999985099,607478.299999997,7010,WL,A,3.0
5,6.115000009536743,learn,60000.0,Thu Aug 08 2024 15:05:08 GMT-0500 (Central Daylight Time),609727.1000000015,A,rattleenter,O,enter,224,1,2248.8000000044703,607478.299999997,7010,WL,A,3.0
5,6.815000057220459,learn,60000.0,Thu Aug 08 2024 15:05:08 GMT-0500 (Central Daylight Time),610426.799999997,A,g,O,g,695,1,699.3999999985099,609727.3999999985,7010,WL,A,4.0
5,6.947999954223633,learn,60000.0,Thu Aug 08 2024 15:05:08 GMT-0500 (Central Daylight Time),610560.299999997,A,go,O,o,115,1,832.8999999985099,609727.3999999985,7010,WL,A,4.0
5,7.148000001907349,learn,60000.0,Thu Aug 08 2024 15:05:08 GMT-0500 (Central Daylight Time),610760.1000000015,A,gol,O,l,189,1,1032.7000000029802,609727.3999999985,7010,WL,A,4.0
5,7.2820000648498535,learn,60000.0,Thu Aug 08 2024 15:05:08 GMT-0500 (Central Daylight Time),610893.6000000015,A,gold,O,d,126,1,1166.2000000029802,609727.3999999985,7010,WL,A,4.0
5,7.430999994277954,learn,60000.0,Thu Aug 08 2024 15:05:08 GMT-0500 (Central Daylight Time),611043.299999997,A,goldenter,O,enter,144,1,1315.8999999985099,609727.3999999985,7010,WL,A,4.0
5,8.430999994277954,learn,60000.0,Thu Aug 08 2024 15:05:08 GMT-0500 (Central Daylight Time),612043.0,A,b,O,b,987,1,999.5,611043.5,7010,WL,A,5.0
5,8.598000049591064,learn,60000.0,Thu Aug 08 2024 15:05:08 GMT-0500 (Central Daylight Time),612209.6999999955,A,bo,O,o,155,1,1166.1999999955297,611043.5,7010,WL,A,5.0
5,8.730999946594238,learn,60000.0,Thu Aug 08 2024 15:05:08 GMT-0500 (Central Daylight Time),612343.0,A,boo,O,o,124,1,1299.5,611043.5,7010,WL,A,5.0
5,8.898000001907349,learn,60000.0,Thu Aug 08 2024 15:05:08 GMT-0500 (Central Daylight Time),612509.6000000015,A,book,O,k,159,1,1466.1000000014901,611043.5,7010,WL,A,5.0
5,9.047999858856201,learn,60000.0,Thu Aug 08 2024 15:05:08 GMT-0500 (Central Daylight Time),612659.5,A,bookenter,O,enter,144,1,1616.0,611043.5,7010,WL,A,5.0
5,9.71399998664856,learn,60000.0,Thu Aug 08 2024 15:05:08 GMT-0500 (Central Daylight Time),613325.8999999985,A,f,O,f,658,1,666.1000000014901,612659.799999997,7010,WL,A,6.0
5,9.830999851226807,learn,60000.0,Thu Aug 08 2024 15:05:08 GMT-0500 (Central Daylight Time),613442.6000000015,A,fl,O,l,97,1,782.8000000044703,612659.799999997,7010,WL,A,6.0
5,10.02999997138977,learn,60000.0,Thu Aug 08 2024 15:05:08 GMT-0500 (Central Daylight Time),613642.5,A,flo,O,o,179,1,982.7000000029802,612659.799999997,7010,WL,A,6.0
5,10.263999938964844,learn,60000.0,Thu Aug 08 2024 15:05:08 GMT-0500 (Central Daylight Time),613875.799999997,A,flow,O,w,219,1,1216.0,612659.799999997,7010,WL,A,6.0
5,10.379999876022339,learn,60000.0,Thu Aug 08 2024 15:05:08 GMT-0500 (Central Daylight Time),613992.5,A,flowe,O,e,106,1,1332.7000000029802,612659.799999997,7010,WL,A,6.0
5,10.596999883651733,learn,60000.0,Thu Aug 08 2024 15:05:08 GMT-0500 (Central Daylight Time),614208.8999999985,A,flower,O,r,196,1,1549.1000000014901,612659.799999997,7010,WL,A,6.0
5,10.77999997138977,learn,60000.0,Thu Aug 08 2024 15:05:08 GMT-0500 (Central Daylight Time),614392.299999997,A,flowerenter,O,enter,173,1,1732.5,612659.799999997,7010,WL,A,6.0
5,11.596999883651733,learn,60000.0,Thu Aug 08 2024 15:05:08 GMT-0500 (Central Daylight Time),615208.799999997,A,m,O,m,798,1,816.1999999955297,614392.6000000015,7010,WL,A,7.0
5,11.71399998664856,learn,60000.0,Thu Aug 08 2024 15:05:08 GMT-0500 (Central Daylight Time),615325.6000000015,A,me,O,e,101,1,933.0,614392.6000000015,7010,WL,A,7.0
5,11.879999876022339,learn,60000.0,Thu Aug 08 2024 15:05:08 GMT-0500 (Central Daylight Time),615491.8999999985,A,mea,O,a,160,1,1099.2999999970198,614392.6000000015,7010,WL,A,7.0
5,12.19700002670288,learn,60000.0,Thu Aug 08 2024 15:05:08 GMT-0500 (Central Daylight Time),615808.5,A,mead,O,d,306,1,1415.8999999985099,614392.6000000015,7010,WL,A,7.0
5,12.430000066757202,learn,60000.0,Thu Aug 08 2024 15:05:08 GMT-0500 (Central Daylight Time),616041.6000000015,A,meado,O,o,213,1,1649.0,614392.6000000015,7010,WL,A,7.0
5,12.746000051498413,learn,60000.0,Thu Aug 08 2024 15:05:08 GMT-0500 (Central Daylight Time),616358.3999999985,A,meadow,O,w,308,1,1965.7999999970198,614392.6000000015,7010,WL,A,7.0
5,12.879999876022339,learn,60000.0,Thu Aug 08 2024 15:05:08 GMT-0500 (Central Daylight Time),616491.6000000015,A,meadowenter,O,enter,119,1,2099.0,614392.6000000015,7010,WL,A,7.0
5,13.546000003814697,learn,60000.0,Thu Aug 08 2024 15:05:08 GMT-0500 (Central Daylight Time),617158.1999999955,A,s,O,s,658,1,666.1999999955297,616492.0,7010,WL,A,8.0
5,13.730999946594238,learn,60000.0,Thu Aug 08 2024 15:05:08 GMT-0500 (Central Daylight Time),617342.6000000015,A,sa,O,a,167,1,850.6000000014901,616492.0,7010,WL,A,8.0
5,13.895999908447266,learn,60000.0,Thu Aug 08 2024 15:05:08 GMT-0500 (Central Daylight Time),617508.1999999955,A,sal,O,l,151,1,1016.1999999955297,616492.0,7010,WL,A,8.0
5,14.162999868392944,learn,60000.0,Thu Aug 08 2024 15:05:08 GMT-0500 (Central Daylight Time),617774.6999999955,A,salt,O,t,258,1,1282.6999999955297,616492.0,7010,WL,A,8.0
5,14.378999948501587,learn,60000.0,Thu Aug 08 2024 15:05:08 GMT-0500 (Central Daylight Time),617991.1000000015,A,saltenter,O,enter,207,1,1499.1000000014901,616492.0,7010,WL,A,8.0
5,14.978999853134155,learn,60000.0,Thu Aug 08 2024 15:05:08 GMT-0500 (Central Daylight Time),618591.0,A,l,O,l,590,1,599.3000000044703,617991.6999999955,7010,WL,A,9.0
5,15.19599986076355,learn,60000.0,Thu Aug 08 2024 15:05:08 GMT-0500 (Central Daylight Time),618807.6000000015,A,lo,O,o,207,1,815.9000000059605,617991.6999999955,7010,WL,A,9.0
5,15.461999893188477,learn,60000.0,Thu Aug 08 2024 15:05:08 GMT-0500 (Central Daylight Time),619073.8999999985,A,log,O,g,246,1,1082.2000000029802,617991.6999999955,7010,WL,A,9.0
5,15.644999980926514,learn,60000.0,Thu Aug 08 2024 15:05:08 GMT-0500 (Central Daylight Time),619257.5,A,logenter,O,enter,171,1,1265.8000000044703,617991.6999999955,7010,WL,A,9.0
5,16.194999933242798,learn,60000.0,Thu Aug 08 2024 15:05:08 GMT-0500 (Central Daylight Time),619807.1000000015,A,k,O,k,532,1,549.3000000044703,619257.799999997,7010,WL,A,10.0
5,16.378000020980835,learn,60000.0,Thu Aug 08 2024 15:05:08 GMT-0500 (Central Daylight Time),619990.5,A,ke,O,e,175,1,732.7000000029802,619257.799999997,7010,WL,A,10.0
5,16.611999988555908,learn,60000.0,Thu Aug 08 2024 15:05:08 GMT-0500 (Central Daylight Time),620223.799999997,A,key,O,y,215,1,966.0,619257.799999997,7010,WL,A,10.0
5,16.961999893188477,learn,60000.0,Thu Aug 08 2024 15:05:08 GMT-0500 (Central Daylight Time),620573.799999997,A,keyenter,O,enter,334,1,1316.0,619257.799999997,7010,WL,A,10.0
5,18.294999837875366,learn,60000.0,Thu Aug 08 2024 15:05:08 GMT-0500 (Central Daylight Time),621906.6999999955,A,t,O,t,1320,1,1332.5999999940395,620574.1000000015,7010,WL,A,11.0
5,18.444999933242798,learn,60000.0,Thu Aug 08 2024 15:05:08 GMT-0500 (Central Daylight Time),622056.6000000015,A,tr,O,r,131,1,1482.5,620574.1000000015,7010,WL,A,11.0
5,18.694000005722046,learn,60000.0,Thu Aug 08 2024 15:05:08 GMT-0500 (Central Daylight Time),622306.3999999985,A,tra,O,a,237,1,1732.2999999970198,620574.1000000015,7010,WL,A,11.0
5,19.027999877929688,learn,60000.0,Thu Aug 08 2024 15:05:08 GMT-0500 (Central Daylight Time),622639.8999999985,A,trai,O,i,315,1,2065.7999999970198,620574.1000000015,7010,WL,A,11.0
5,19.26099991798401,learn,60000.0,Thu Aug 08 2024 15:05:08 GMT-0500 (Central Daylight Time),622873.1000000015,A,train,O,n,222,1,2299.0,620574.1000000015,7010,WL,A,11.0
5,19.776999950408936,learn,60000.0,Thu Aug 08 2024 15:05:08 GMT-0500 (Central Daylight Time),623389.3999999985,A,trainenter,O,enter,509,1,2815.2999999970198,620574.1000000015,7010,WL,A,11.0
5,20.72699999809265,learn,60000.0,Thu Aug 08 2024 15:05:08 GMT-0500 (Central Daylight Time),624339.1000000015,A,m,O,m,937,1,949.4000000059605,623389.6999999955,7010,WL,A,12.0
5,20.960000038146973,learn,60000.0,Thu Aug 08 2024 15:05:08 GMT-0500 (Central Daylight Time),624572.3999999985,A,me,O,e,226,1,1182.7000000029802,623389.6999999955,7010,WL,A,12.0
5,21.109999895095825,learn,60000.0,Thu Aug 08 2024 15:05:08 GMT-0500 (Central Daylight Time),624722.299999997,A,mea,O,a,129,1,1332.6000000014901,623389.6999999955,7010,WL,A,12.0
5,21.30999994277954,learn,60000.0,Thu Aug 08 2024 15:05:08 GMT-0500 (Central Daylight Time),624922.3999999985,A,mead,O,d,179,1,1532.7000000029802,623389.6999999955,7010,WL,A,12.0
5,21.460000038146973,learn,60000.0,Thu Aug 08 2024 15:05:08 GMT-0500 (Central Daylight Time),625072.299999997,A,meado,O,o,139,1,1682.6000000014901,623389.6999999955,7010,WL,A,12.0
5,21.609999895095825,learn,60000.0,Thu Aug 08 2024 15:05:08 GMT-0500 (Central Daylight Time),625222.3999999985,A,meadow,O,w,141,1,1832.7000000029802,623389.6999999955,7010,WL,A,12.0
5,21.759999990463257,learn,60000.0,Thu Aug 08 2024 15:05:08 GMT-0500 (Central Daylight Time),625371.8999999985,A,meadowenter,O,enter,143,1,1982.2000000029802,623389.6999999955,7010,WL,A,12.0
5,22.50600004196167,learn,60000.0,Thu Aug 08 2024 15:05:08 GMT-0500 (Central Daylight Time),626118.299999997,A,a,O,a,742,1,746.1999999955297,625372.1000000015,7010,WL,A,13.0
5,22.65400004386902,learn,60000.0,Thu Aug 08 2024 15:05:08 GMT-0500 (Central Daylight Time),626266.1999999955,A,ap,O,p,143,1,894.0999999940395,625372.1000000015,7010,WL,A,13.0
5,22.743000030517578,learn,60000.0,Thu Aug 08 2024 15:05:08 GMT-0500 (Central Daylight Time),626354.8999999985,A,app,O,p,84,1,982.7999999970198,625372.1000000015,7010,WL,A,13.0
5,22.942999839782715,learn,60000.0,Thu Aug 08 2024 15:05:08 GMT-0500 (Central Daylight Time),626555.1000000015,A,appl,O,l,195,1,1183.0,625372.1000000015,7010,WL,A,13.0
5,23.175999879837036,learn,60000.0,Thu Aug 08 2024 15:05:08 GMT-0500 (Central Daylight Time),626788.1999999955,A,apple,O,e,219,1,1416.0999999940395,625372.1000000015,7010,WL,A,13.0
5,23.325999975204468,learn,60000.0,Thu Aug 08 2024 15:05:08 GMT-0500 (Central Daylight Time),626938.5,A,appleenter,O,enter,129,1,1566.3999999985099,625372.1000000015,7010,WL,A,13.0
5,24.210000038146973,learn,60000.0,Thu Aug 08 2024 15:05:08 GMT-0500 (Central Daylight Time),627821.5,A,b,O,b,876,1,882.8000000044703,626938.6999999955,7010,WL,A,14.0
5,24.39299988746643,learn,60000.0,Thu Aug 08 2024 15:05:08 GMT-0500 (Central Daylight Time),628004.799999997,A,bu,O,u,176,1,1066.1000000014901,626938.6999999955,7010,WL,A,14.0
5,24.608999967575073,learn,60000.0,Thu Aug 08 2024 15:05:08 GMT-0500 (Central Daylight Time),628221.299999997,A,but,O,t,201,1,1282.6000000014901,626938.6999999955,7010,WL,A,14.0
5,24.776000022888184,learn,60000.0,Thu Aug 08 2024 15:05:08 GMT-0500 (Central Daylight Time),628387.799999997,A,butt,O,t,153,1,1449.1000000014901,626938.6999999955,7010,WL,A,14.0
5,24.89199995994568,learn,60000.0,Thu Aug 08 2024 15:05:08 GMT-0500 (Central Daylight Time),628504.299999997,A,butto,O,o,98,1,1565.6000000014901,626938.6999999955,7010,WL,A,14.0
5,25.14299988746643,learn,60000.0,Thu Aug 08 2024 15:05:08 GMT-0500 (Central Daylight Time),628754.5,A,button,O,n,238,1,1815.8000000044703,626938.6999999955,7010,WL,A,14.0
5,25.359999895095825,learn,60000.0,Thu Aug 08 2024 15:05:08 GMT-0500 (Central Daylight Time),628972.1999999955,A,buttonenter,O,enter,211,1,2033.5,626938.6999999955,7010,WL,A,14.0
5,32.4229998588562,learn,60000.0,Thu Aug 08 2024 15:05:08 GMT-0500 (Central Daylight Time),636035.3999999985,A,g,O,g,7050,1,7062.89999999851,628972.5,7010,WL,A,15.0
5,32.58999991416931,learn,60000.0,Thu Aug 08 2024 15:05:08 GMT-0500 (Central Daylight Time),636202.1999999955,A,go,O,o,146,1,7229.69999999553,628972.5,7010,WL,A,15.0
5,32.75699996948242,learn,60000.0,Thu Aug 08 2024 15:05:08 GMT-0500 (Central Daylight Time),636368.6999999955,A,gol,O,l,147,1,7396.19999999553,628972.5,7010,WL,A,15.0
5,32.90700006484985,learn,60000.0,Thu Aug 08 2024 15:05:08 GMT-0500 (Central Daylight Time),636519.0,A,gold,O,d,133,1,7546.5,628972.5,7010,WL,A,15.0
5,33.03999996185303,learn,60000.0,Thu Aug 08 2024 15:05:08 GMT-0500 (Central Daylight Time),636652.0,A,goldenter,O,enter,119,1,7679.5,628972.5,7010,WL,A,15.0
6,0.6830000877380371,distr,59316.99991226196,Thu Aug 08 2024 15:05:08 GMT-0500 (Central Daylight Time),708379.299999997,B,m,O,m,669,1,682.8999999985099,707696.3999999985,7010,WL,A,1.0
6,0.7829999923706055,distr,59217.000007629395,Thu Aug 08 2024 15:05:08 GMT-0500 (Central Daylight Time),708479.299999997,B,me,O,e,82,1,782.8999999985099,707696.3999999985,7010,WL,A,1.0
6,0.9830000400543213,distr,59016.99995994568,Thu Aug 08 2024 15:05:08 GMT-0500 (Central Daylight Time),708679.1999999955,B,mea,O,a,182,1,982.7999999970198,707696.3999999985,7010,WL,A,1.0
6,1.1160001754760742,distr,58883.999824523926,Thu Aug 08 2024 15:05:08 GMT-0500 (Central Daylight Time),708812.6000000015,B,meal,O,l,127,1,1116.2000000029802,707696.3999999985,7010,WL,A,1.0
6,1.3990001678466797,distr,58600.99983215332,Thu Aug 08 2024 15:05:08 GMT-0500 (Central Daylight Time),709096.0,B,mealenter,O,enter,265,1,1399.6000000014901,707696.3999999985,7010,WL,A,1.0
6,2.065999984741211,distr,57934.00001525879,Thu Aug 08 2024 15:05:08 GMT-0500 (Central Daylight Time),709762.5,B,c,O,c,646,1,666.2000000029802,709096.299999997,7010,WL,A,2.0
6,2.2660000324249268,distr,57733.99996757507,Thu Aug 08 2024 15:05:08 GMT-0500 (Central Daylight Time),709962.299999997,B,co,O,o,179,1,866.0,709096.299999997,7010,WL,A,2.0
6,2.3990001678466797,distr,57600.99983215332,Thu Aug 08 2024 15:05:08 GMT-0500 (Central Daylight Time),710095.5,B,coa,O,a,115,1,999.2000000029802,709096.299999997,7010,WL,A,2.0
6,2.7820000648498535,distr,57217.99993515015,Thu Aug 08 2024 15:05:08 GMT-0500 (Central Daylight Time),710478.799999997,B,coat,O,t,374,1,1382.5,709096.299999997,7010,WL,A,2.0
6,2.949000120162964,distr,57050.999879837036,Thu Aug 08 2024 15:05:08 GMT-0500 (Central Daylight Time),710645.3999999985,B,coatenter,O,enter,151,1,1549.1000000014901,709096.299999997,7010,WL,A,2.0
6,3.2820000648498535,distr,56717.99993515015,Thu Aug 08 2024 15:05:08 GMT-0500 (Central Daylight Time),710978.8999999985,B,b,O,b,313,1,333.20000000298023,710645.6999999955,7010,WL,A,3.0
6,3.7150001525878906,distr,56284.99984741211,Thu Aug 08 2024 15:05:08 GMT-0500 (Central Daylight Time),711411.8999999985,B,bo,O,o,427,1,766.2000000029802,710645.6999999955,7010,WL,A,3.0
6,3.948000192642212,distr,56051.99980735779,Thu Aug 08 2024 15:05:08 GMT-0500 (Central Daylight Time),711645.1000000015,B,bow,O,w,226,1,999.4000000059605,710645.6999999955,7010,WL,A,3.0
6,4.115000009536743,distr,55884.99999046326,Thu Aug 08 2024 15:05:08 GMT-0500 (Central Daylight Time),711811.799999997,B,bowl,O,l,161,1,1166.1000000014901,710645.6999999955,7010,WL,A,3.0
6,4.4150002002716064,distr,55584.99979972839,Thu Aug 08 2024 15:05:08 GMT-0500 (Central Daylight Time),712111.6000000015,B,bowlenter,O,enter,290,1,1465.9000000059605,710645.6999999955,7010,WL,A,3.0
6,4.698000192642212,distr,55301.99980735779,Thu Aug 08 2024 15:05:08 GMT-0500 (Central Daylight Time),712394.8999999985,B,d,O,d,270,1,283.0,712111.8999999985,7010,WL,A,4.0
6,4.881999969482422,distr,55118.00003051758,Thu Aug 08 2024 15:05:08 GMT-0500 (Central Daylight Time),712578.299999997,B,da,O,a,171,1,466.3999999985099,712111.8999999985,7010,WL,A,4.0
6,5.180999994277954,distr,54819.000005722046,Thu Aug 08 2024 15:05:08 GMT-0500 (Central Daylight Time),712878.1000000015,B,daw,O,w,291,1,766.2000000029802,712111.8999999985,7010,WL,A,4.0
6,5.498000144958496,distr,54501.999855041504,Thu Aug 08 2024 15:05:08 GMT-0500 (Central Daylight Time),713194.5,B,dawn,O,n,304,1,1082.6000000014901,712111.8999999985,7010,WL,A,4.0
6,5.831000089645386,distr,54168.999910354614,Thu Aug 08 2024 15:05:08 GMT-0500 (Central Daylight Time),713528.0,B,dawnenter,O,enter,315,1,1416.1000000014901,712111.8999999985,7010,WL,A,4.0
6,6.180999994277954,distr,53819.000005722046,Thu Aug 08 2024 15:05:08 GMT-0500 (Central Daylight Time),713877.8999999985,B,p,O,p,333,1,349.5,713528.3999999985,7010,WL,A,5.0
6,6.398000001907349,distr,53601.99999809265,Thu Aug 08 2024 15:05:08 GMT-0500 (Central Daylight Time),714094.299999997,B,pe,O,e,200,1,565.8999999985099,713528.3999999985,7010,WL,A,5.0
6,6.5980000495910645,distr,53401.999950408936,Thu Aug 08 2024 15:05:08 GMT-0500 (Central Daylight Time),714294.299999997,B,pea,O,a,184,1,765.8999999985099,713528.3999999985,7010,WL,A,5.0
6,6.8480000495910645,distr,53151.999950408936,Thu Aug 08 2024 15:05:08 GMT-0500 (Central Daylight Time),714544.1999999955,B,peac,O,c,240,1,1015.7999999970198,713528.3999999985,7010,WL,A,5.0
6,7.113000154495239,distr,52886.99984550476,Thu Aug 08 2024 15:05:08 GMT-0500 (Central Daylight Time),714810.6000000015,B,peach,O,h,253,1,1282.2000000029802,713528.3999999985,7010,WL,A,5.0
6,7.797000169754028,distr,52202.99983024597,Thu Aug 08 2024 15:05:08 GMT-0500 (Central Daylight Time),715494.1999999955,B,peachenter,O,enter,667,1,1965.7999999970198,713528.3999999985,7010,WL,A,5.0
6,8.27999997138977,distr,51720.00002861023,Thu Aug 08 2024 15:05:08 GMT-0500 (Central Daylight Time),715977.1999999955,B,enter,O,enter,472,1,482.69999999552965,715494.5,7010,WL,A,6.0
6,8.630000114440918,distr,51369.99988555908,Thu Aug 08 2024 15:05:08 GMT-0500 (Central Daylight Time),716326.8999999985,B,enter,O,enter,340,1,349.3999999985099,715977.5,7010,WL,A,7.0
6,8.84600019454956,distr,51153.99980545044,Thu Aug 08 2024 15:05:08 GMT-0500 (Central Daylight Time),716543.6999999955,B,enter,O,enter,207,1,216.59999999403954,716327.1000000015,7010,WL,A,8.0
6,9.013000011444092,distr,50986.99998855591,Thu Aug 08 2024 15:05:08 GMT-0500 (Central Daylight Time),716710.1000000015,B,enter,O,enter,158,1,166.10000000149012,716544.0,7010,WL,A,9.0
6,9.196000099182129,distr,50803.99990081787,Thu Aug 08 2024 15:05:08 GMT-0500 (Central Daylight Time),716893.299999997,B,enter,O,enter,168,1,182.89999999850988,716710.3999999985,7010,WL,A,10.0
6,9.396000146865845,distr,50603.999853134155,Thu Aug 08 2024 15:05:08 GMT-0500 (Central Daylight Time),717093.5,B,enter,O,enter,184,1,199.80000000447035,716893.6999999955,7010,WL,A,11.0
6,9.796000003814697,distr,50203.9999961853,Thu Aug 08 2024 15:05:08 GMT-0500 (Central Daylight Time),717493.299999997,B,enter,O,enter,392,1,399.3999999985099,717093.8999999985,7010,WL,A,12.0
6,10.078999996185303,distr,49921.0000038147,Thu Aug 08 2024 15:05:08 GMT-0500 (Central Daylight Time),717776.5,B,enter,O,enter,264,1,282.80000000447035,717493.6999999955,7010,WL,A,13.0
6,10.379000186920166,distr,49620.999813079834,Thu Aug 08 2024 15:05:08 GMT-0500 (Central Daylight Time),718076.1999999955,B,enter,O,enter,286,1,299.3999999985099,717776.799999997,7010,WL,A,14.0
6,10.828999996185303,distr,49171.0000038147,Thu Aug 08 2024 15:05:08 GMT-0500 (Central Daylight Time),718526.1999999955,B,enter,O,enter,442,1,449.59999999403954,718076.6000000015,7010,WL,A,15.0
7,1.0839998722076416,immed,58916.00012779236,Thu Aug 08 2024 15:05:08 GMT-0500 (Central Daylight Time),737353.8999999985,A,b,O,b,1064,1,1083.0,736270.8999999985,7010,WL,A,1.0
7,1.2829999923706055,immed,58717.000007629395,Thu Aug 08 2024 15:05:08 GMT-0500 (Central Daylight Time),737553.6000000015,A,bo,O,o,180,1,1282.7000000029802,736270.8999999985,7010,WL,A,1.0
7,1.432999849319458,immed,58567.00015068054,Thu Aug 08 2024 15:05:08 GMT-0500 (Central Daylight Time),737703.5,A,boo,O,o,140,1,1432.6000000014901,736270.8999999985,7010,WL,A,1.0
7,1.616999864578247,immed,58383.00013542175,Thu Aug 08 2024 15:05:08 GMT-0500 (Central Daylight Time),737886.8999999985,A,book,O,k,174,1,1616.0,736270.8999999985,7010,WL,A,1.0
7,1.8499999046325684,immed,58150.00009536743,Thu Aug 08 2024 15:05:08 GMT-0500 (Central Daylight Time),738120.1000000015,A,bookenter,O,enter,215,1,1849.2000000029802,736270.8999999985,7010,WL,A,1.0
7,2.5829999446868896,immed,57417.00005531311,Thu Aug 08 2024 15:05:08 GMT-0500 (Central Daylight Time),738853.1999999955,A,f,O,f,726,1,732.7999999970198,738120.3999999985,7010,WL,A,2.0
7,2.7159998416900635,immed,57284.00015830994,Thu Aug 08 2024 15:05:08 GMT-0500 (Central Daylight Time),738986.5,A,fl,O,l,120,1,866.1000000014901,738120.3999999985,7010,WL,A,2.0
7,2.9159998893737793,immed,57084.00011062622,Thu Aug 08 2024 15:05:08 GMT-0500 (Central Daylight Time),739186.5,A,flo,O,o,179,1,1066.1000000014901,738120.3999999985,7010,WL,A,2.0
7,3.9489998817443848,immed,56051.000118255615,Thu Aug 08 2024 15:05:08 GMT-0500 (Central Daylight Time),740219.5,A,flow,O,w,1019,1,2099.10000000149,738120.3999999985,7010,WL,A,2.0
7,4.515999794006348,immed,55484.00020599365,Thu Aug 08 2024 15:05:08 GMT-0500 (Central Daylight Time),740785.8999999985,A,flowe,O,e,554,1,2665.5,738120.3999999985,7010,WL,A,2.0
7,4.748999834060669,immed,55251.00016593933,Thu Aug 08 2024 15:05:08 GMT-0500 (Central Daylight Time),741018.8999999985,A,flower,O,r,228,1,2898.5,738120.3999999985,7010,WL,A,2.0
7,5.198999881744385,immed,54801.000118255615,Thu Aug 08 2024 15:05:08 GMT-0500 (Central Daylight Time),741469.0,A,flowerenter,O,enter,443,1,3348.60000000149,738120.3999999985,7010,WL,A,2.0
7,7.23199987411499,immed,52768.00012588501,Thu Aug 08 2024 15:05:08 GMT-0500 (Central Daylight Time),743501.6999999955,A,m,O,m,2017,1,2032.3999999985099,741469.299999997,7010,WL,A,3.0
7,7.347999811172485,immed,52652.000188827515,Thu Aug 08 2024 15:05:08 GMT-0500 (Central Daylight Time),743618.299999997,A,me,O,e,112,1,2149.0,741469.299999997,7010,WL,A,3.0
7,7.593999862670898,immed,52406.0001373291,Thu Aug 08 2024 15:05:08 GMT-0500 (Central Daylight Time),743863.8999999985,A,mea,O,a,241,1,2394.60000000149,741469.299999997,7010,WL,A,3.0
7,7.85099983215332,immed,52149.00016784668,Thu Aug 08 2024 15:05:08 GMT-0500 (Central Daylight Time),744121.1000000015,A,mead,O,d,237,1,2651.8000000044703,741469.299999997,7010,WL,A,3.0
7,7.9649999141693115,immed,52035.00008583069,Thu Aug 08 2024 15:05:08 GMT-0500 (Central Daylight Time),744234.8999999985,A,meado,O,o,101,1,2765.60000000149,741469.299999997,7010,WL,A,3.0
7,8.180999994277954,immed,51819.000005722046,Thu Aug 08 2024 15:05:08 GMT-0500 (Central Daylight Time),744451.5,A,meadow,O,w,211,1,2982.2000000029802,741469.299999997,7010,WL,A,3.0
7,8.363999843597412,immed,51636.00015640259,Thu Aug 08 2024 15:05:08 GMT-0500 (Central Daylight Time),744634.6000000015,A,meadowenter,O,enter,178,1,3165.3000000044703,741469.299999997,7010,WL,A,3.0
7,9.330999851226807,immed,50669.00014877319,Thu Aug 08 2024 15:05:08 GMT-0500 (Central Daylight Time),745601.1000000015,A,t,O,t,955,1,966.2000000029802,744634.8999999985,7010,WL,A,4.0
7,9.480999946594238,immed,50519.00005340576,Thu Aug 08 2024 15:05:08 GMT-0500 (Central Daylight Time),745751.1000000015,A,tr,O,r,140,1,1116.2000000029802,744634.8999999985,7010,WL,A,4.0
7,9.813999891281128,immed,50186.00010871887,Thu Aug 08 2024 15:05:08 GMT-0500 (Central Daylight Time),746084.5,A,tra,O,a,319,1,1449.6000000014901,744634.8999999985,7010,WL,A,4.0
7,9.913999795913696,immed,50086.000204086304,Thu Aug 08 2024 15:05:08 GMT-0500 (Central Daylight Time),746184.299999997,A,trai,O,i,89,1,1549.3999999985099,744634.8999999985,7010,WL,A,4.0
7,10.097999811172485,immed,49902.000188827515,Thu Aug 08 2024 15:05:08 GMT-0500 (Central Daylight Time),746368.5,A,train,O,n,174,1,1733.6000000014901,744634.8999999985,7010,WL,A,4.0
7,10.563999891281128,immed,49436.00010871887,Thu Aug 08 2024 15:05:08 GMT-0500 (Central Daylight Time),746834.1999999955,A,trainenter,O,enter,461,1,2199.2999999970198,744634.8999999985,7010,WL,A,4.0
7,11.229999780654907,immed,48770.00021934509,Thu Aug 08 2024 15:05:08 GMT-0500 (Central Daylight Time),747500.3999999985,A,a,O,a,651,1,665.8999999985099,746834.5,7010,WL,A,5.0
7,11.396999835968018,immed,48603.00016403198,Thu Aug 08 2024 15:05:08 GMT-0500 (Central Daylight Time),747667.1999999955,A,ap,O,p,153,1,832.6999999955297,746834.5,7010,WL,A,5.0
7,11.563999891281128,immed,48436.00010871887,Thu Aug 08 2024 15:05:08 GMT-0500 (Central Daylight Time),747833.6999999955,A,app,O,p,146,1,999.1999999955297,746834.5,7010,WL,A,5.0
7,11.77999997138977,immed,48220.00002861023,Thu Aug 08 2024 15:05:08 GMT-0500 (Central Daylight Time),748050.299999997,A,appl,O,l,204,1,1215.7999999970198,746834.5,7010,WL,A,5.0
7,11.946999788284302,immed,48053.0002117157,Thu Aug 08 2024 15:05:08 GMT-0500 (Central Daylight Time),748217.1000000015,A,apple,O,e,156,1,1382.6000000014901,746834.5,7010,WL,A,5.0
7,12.146999835968018,immed,47853.00016403198,Thu Aug 08 2024 15:05:08 GMT-0500 (Central Daylight Time),748416.8999999985,A,appleenter,O,enter,189,1,1582.3999999985099,746834.5,7010,WL,A,5.0
7,12.912999868392944,immed,47087.000131607056,Thu Aug 08 2024 15:05:08 GMT-0500 (Central Daylight Time),749183.1999999955,A,b,O,b,749,1,765.8999999985099,748417.299999997,7010,WL,A,6.0
7,13.162999868392944,immed,46837.000131607056,Thu Aug 08 2024 15:05:08 GMT-0500 (Central Daylight Time),749433.1999999955,A,bu,O,u,231,1,1015.8999999985099,748417.299999997,7010,WL,A,6.0
7,13.36299991607666,immed,46637.00008392334,Thu Aug 08 2024 15:05:08 GMT-0500 (Central Daylight Time),749633.1000000015,A,but,O,t,189,1,1215.8000000044703,748417.299999997,7010,WL,A,6.0
7,13.52999997138977,immed,46470.00002861023,Thu Aug 08 2024 15:05:08 GMT-0500 (Central Daylight Time),749799.799999997,A,butt,O,t,149,1,1382.5,748417.299999997,7010,WL,A,6.0
7,14.562999963760376,immed,45437.000036239624,Thu Aug 08 2024 15:05:08 GMT-0500 (Central Daylight Time),750832.8999999985,A,butto,O,o,1022,1,2415.60000000149,748417.299999997,7010,WL,A,6.0
7,15.095999956130981,immed,44904.00004386902,Thu Aug 08 2024 15:05:08 GMT-0500 (Central Daylight Time),751366.0,A,button,O,n,517,1,2948.7000000029802,748417.299999997,7010,WL,A,6.0
7,15.461999893188477,immed,44538.00010681152,Thu Aug 08 2024 15:05:08 GMT-0500 (Central Daylight Time),751732.1000000015,A,buttonenter,O,enter,360,1,3314.8000000044703,748417.299999997,7010,WL,A,6.0
7,16.311999797821045,immed,43688.000202178955,Thu Aug 08 2024 15:05:08 GMT-0500 (Central Daylight Time),752582.1999999955,A,l,O,l,842,1,849.7999999970198,751732.3999999985,7010,WL,A,7.0
7,16.561999797821045,immed,43438.000202178955,Thu Aug 08 2024 15:05:08 GMT-0500 (Central Daylight Time),752832.0,A,lo,O,o,240,1,1099.6000000014901,751732.3999999985,7010,WL,A,7.0
7,16.728999853134155,immed,43271.000146865845,Thu Aug 08 2024 15:05:08 GMT-0500 (Central Daylight Time),752998.6999999955,A,log,O,g,158,1,1266.2999999970198,751732.3999999985,7010,WL,A,7.0
7,17.144999980926514,immed,42855.000019073486,Thu Aug 08 2024 15:05:08 GMT-0500 (Central Daylight Time),753415.1999999955,A,logenter,O,enter,399,1,1682.7999999970198,751732.3999999985,7010,WL,A,7.0
7,17.894999980926514,immed,42105.000019073486,Thu Aug 08 2024 15:05:08 GMT-0500 (Central Daylight Time),754165.1000000015,A,k,O,k,735,1,749.6000000014901,753415.5,7010,WL,A,8.0
7,18.127999782562256,immed,41872.000217437744,Thu Aug 08 2024 15:05:08 GMT-0500 (Central Daylight Time),754398.1999999955,A,ke,O,e,225,1,982.6999999955297,753415.5,7010,WL,A,8.0
7,18.777999877929688,immed,41222.00012207031,Thu Aug 08 2024 15:05:08 GMT-0500 (Central Daylight Time),755048.299999997,A,key,O,y,639,1,1632.7999999970198,753415.5,7010,WL,A,8.0
7,19.244999885559082,immed,40755.00011444092,Thu Aug 08 2024 15:05:08 GMT-0500 (Central Daylight Time),755514.6999999955,A,keyenter,O,enter,461,1,2099.1999999955297,753415.5,7010,WL,A,8.0
7,19.91099977493286,immed,40089.00022506714,Thu Aug 08 2024 15:05:08 GMT-0500 (Central Daylight Time),756181.1999999955,A,f,O,f,659,1,666.1999999955297,755515.0,7010,WL,A,9.0
7,20.07699990272522,immed,39923.00009727478,Thu Aug 08 2024 15:05:08 GMT-0500 (Central Daylight Time),756347.6000000015,A,fi,O,i,152,1,832.6000000014901,755515.0,7010,WL,A,9.0
7,20.276999950408936,immed,39723.000049591064,Thu Aug 08 2024 15:05:08 GMT-0500 (Central Daylight Time),756547.6999999955,A,fin,O,n,194,1,1032.6999999955297,755515.0,7010,WL,A,9.0
7,20.57699990272522,immed,39423.00009727478,Thu Aug 08 2024 15:05:08 GMT-0500 (Central Daylight Time),756847.5,A,fing,O,g,282,1,1332.5,755515.0,7010,WL,A,9.0
7,20.810999870300293,immed,39189.00012969971,Thu Aug 08 2024 15:05:08 GMT-0500 (Central Daylight Time),757080.799999997,A,finge,O,e,214,1,1565.7999999970198,755515.0,7010,WL,A,9.0
7,20.992999792099,immed,39007.000207901,Thu Aug 08 2024 15:05:08 GMT-0500 (Central Daylight Time),757263.6000000015,A,finger,O,r,165,1,1748.6000000014901,755515.0,7010,WL,A,9.0
7,21.477999925613403,immed,38522.0000743866,Thu Aug 08 2024 15:05:08 GMT-0500 (Central Daylight Time),757748.3999999985,A,fingerenter,O,enter,477,1,2233.39999999851,755515.0,7010,WL,A,9.0
7,22.143999814987183,immed,37856.00018501282,Thu Aug 08 2024 15:05:08 GMT-0500 (Central Daylight Time),758413.799999997,A,m,O,m,649,1,665.1999999955297,757748.6000000015,7010,WL,A,10.0
7,22.293999910354614,immed,37706.000089645386,Thu Aug 08 2024 15:05:08 GMT-0500 (Central Daylight Time),758563.8999999985,A,me,O,e,144,1,815.2999999970198,757748.6000000015,7010,WL,A,10.0
7,22.509999990463257,immed,37490.00000953674,Thu Aug 08 2024 15:05:08 GMT-0500 (Central Daylight Time),758780.299999997,A,mea,O,a,210,1,1031.6999999955297,757748.6000000015,7010,WL,A,10.0
7,22.709999799728394,immed,37290.00020027161,Thu Aug 08 2024 15:05:08 GMT-0500 (Central Daylight Time),758980.0,A,mead,O,d,193,1,1231.3999999985099,757748.6000000015,7010,WL,A,10.0
7,22.876999855041504,immed,37123.000144958496,Thu Aug 08 2024 15:05:08 GMT-0500 (Central Daylight Time),759146.6999999955,A,meado,O,o,162,1,1398.0999999940395,757748.6000000015,7010,WL,A,10.0
7,23.05999994277954,immed,36940.00005722046,Thu Aug 08 2024 15:05:08 GMT-0500 (Central Daylight Time),759330.1999999955,A,meadow,O,w,163,1,1581.5999999940395,757748.6000000015,7010,WL,A,10.0
7,23.30999994277954,immed,36690.00005722046,Thu Aug 08 2024 15:05:08 GMT-0500 (Central Daylight Time),759580.0,A,meadowenter,O,enter,243,1,1831.3999999985099,757748.6000000015,7010,WL,A,10.0
7,25.342000007629395,immed,34657.999992370605,Thu Aug 08 2024 15:05:08 GMT-0500 (Central Daylight Time),761612.6000000015,A,b,O,b,2018,1,2032.2000000029802,759580.3999999985,7010,WL,A,11.0
7,25.49399995803833,immed,34506.00004196167,Thu Aug 08 2024 15:05:08 GMT-0500 (Central Daylight Time),761763.6999999955,A,bu,O,u,145,1,2183.2999999970198,759580.3999999985,7010,WL,A,11.0
7,25.64299988746643,immed,34357.00011253357,Thu Aug 08 2024 15:05:08 GMT-0500 (Central Daylight Time),761912.6999999955,A,but,O,t,130,1,2332.2999999970198,759580.3999999985,7010,WL,A,11.0
7,25.80899977684021,immed,34191.00022315979,Thu Aug 08 2024 15:05:08 GMT-0500 (Central Daylight Time),762079.1000000015,A,butt,O,t,157,1,2498.7000000029802,759580.3999999985,7010,WL,A,11.0
7,25.908999919891357,immed,34091.00008010864,Thu Aug 08 2024 15:05:08 GMT-0500 (Central Daylight Time),762179.0,A,butto,O,o,95,1,2598.60000000149,759580.3999999985,7010,WL,A,11.0
7,26.575999975204468,immed,33424.00002479553,Thu Aug 08 2024 15:05:08 GMT-0500 (Central Daylight Time),762845.6999999955,A,button,O,n,651,1,3265.2999999970198,759580.3999999985,7010,WL,A,11.0
7,27.108999967575073,immed,32891.00003242493,Thu Aug 08 2024 15:05:08 GMT-0500 (Central Daylight Time),763378.8999999985,A,buttonenter,O,enter,520,1,3798.5,759580.3999999985,7010,WL,A,11.0
7,27.857999801635742,immed,32142.000198364258,Thu Aug 08 2024 15:05:08 GMT-0500 (Central Daylight Time),764128.6000000015,A,g,O,g,731,1,749.3000000044703,763379.299999997,7010,WL,A,12.0
7,28.007999897003174,immed,31992.000102996826,Thu Aug 08 2024 15:05:08 GMT-0500 (Central Daylight Time),764278.6999999955,A,go,O,o,141,1,899.3999999985099,763379.299999997,7010,WL,A,12.0
7,28.241999864578247,immed,31758.000135421753,Thu Aug 08 2024 15:05:08 GMT-0500 (Central Daylight Time),764512.0,A,gol,O,l,215,1,1132.7000000029802,763379.299999997,7010,WL,A,12.0
7,28.424999952316284,immed,31575.000047683716,Thu Aug 08 2024 15:05:08 GMT-0500 (Central Daylight Time),764695.0,A,gold,O,d,173,1,1315.7000000029802,763379.299999997,7010,WL,A,12.0
7,28.775999784469604,immed,31224.000215530396,Thu Aug 08 2024 15:05:08 GMT-0500 (Central Daylight Time),765046.1999999955,A,goldenter,O,enter,335,1,1666.8999999985099,763379.299999997,7010,WL,A,12.0
7,29.990999937057495,immed,30009.000062942505,Thu Aug 08 2024 15:05:08 GMT-0500 (Central Daylight Time),766261.1999999955,A,k,O,k,1208,1,1214.5999999940395,765046.6000000015,7010,WL,A,13.0
7,30.107999801635742,immed,29892.000198364258,Thu Aug 08 2024 15:05:08 GMT-0500 (Central Daylight Time),766378.1000000015,A,ke,O,e,96,1,1331.5,765046.6000000015,7010,WL,A,13.0
7,30.357999801635742,immed,29642.000198364258,Thu Aug 08 2024 15:05:08 GMT-0500 (Central Daylight Time),766627.799999997,A,key,O,y,244,1,1581.1999999955297,765046.6000000015,7010,WL,A,13.0
7,30.62399983406067,immed,29376.00016593933,Thu Aug 08 2024 15:05:08 GMT-0500 (Central Daylight Time),766894.299999997,A,keyenter,O,enter,258,1,1847.6999999955297,765046.6000000015,7010,WL,A,13.0
7,31.889999866485596,immed,28110.000133514404,Thu Aug 08 2024 15:05:08 GMT-0500 (Central Daylight Time),768160.5,A,l,O,l,1256,1,1265.8999999985099,766894.6000000015,7010,WL,A,14.0
7,32.10699987411499,immed,27893.00012588501,Thu Aug 08 2024 15:05:08 GMT-0500 (Central Daylight Time),768377.1999999955,A,lo,O,o,205,1,1482.5999999940395,766894.6000000015,7010,WL,A,14.0
7,32.24000000953674,immed,27759.999990463257,Thu Aug 08 2024 15:05:08 GMT-0500 (Central Daylight Time),768510.6000000015,A,log,O,g,125,1,1616.0,766894.6000000015,7010,WL,A,14.0
7,32.45699977874756,immed,27543.00022125244,Thu Aug 08 2024 15:05:08 GMT-0500 (Central Daylight Time),768727.1000000015,A,logenter,O,enter,199,1,1832.5,766894.6000000015,7010,WL,A,14.0
7,37.5719997882843,immed,22428.0002117157,Thu Aug 08 2024 15:05:08 GMT-0500 (Central Daylight Time),773842.299999997,A,c,O,c,5103,1,5114.79999999702,768727.5,7010,WL,A,15.0
7,37.72199988365173,immed,22278.000116348267,Thu Aug 08 2024 15:05:08 GMT-0500 (Central Daylight Time),773991.8999999985,A,ch,O,h,139,1,5264.39999999851,768727.5,7010,WL,A,15.0
7,37.888999938964844,immed,22111.000061035156,Thu Aug 08 2024 15:05:08 GMT-0500 (Central Daylight Time),774158.8999999985,A,chi,O,i,158,1,5431.39999999851,768727.5,7010,WL,A,15.0
7,39.020999908447266,immed,20979.000091552734,Thu Aug 08 2024 15:05:08 GMT-0500 (Central Daylight Time),775291.8999999985,A,chim,O,m,1119,1,6564.39999999851,768727.5,7010,WL,A,15.0
7,39.38799977302551,immed,20612.000226974487,Thu Aug 08 2024 15:05:08 GMT-0500 (Central Daylight Time),775658.299999997,A,chimn,O,n,362,1,6930.79999999702,768727.5,7010,WL,A,15.0
7,40.2039999961853,immed,19796.000003814697,Thu Aug 08 2024 15:05:08 GMT-0500 (Central Daylight Time),776474.6999999955,A,chimne,O,e,804,1,7747.19999999553,768727.5,7010,WL,A,15.0
7,40.30399990081787,immed,19696.00009918213,Thu Aug 08 2024 15:05:08 GMT-0500 (Central Daylight Time),776574.6000000015,A,chimney,O,y,83,1,7847.10000000149,768727.5,7010,WL,A,15.0
7,40.669999837875366,immed,19330.000162124634,Thu Aug 08 2024 15:05:08 GMT-0500 (Central Daylight Time),776941.1999999955,A,chimneyenter,O,enter,351,1,8213.69999999553,768727.5,7010,WL,A,15.0
