acc_sum,block_c,block_dur,condition,correct,correct_response,countdown,datetime,endtime,project,response,response_time,response_time_test1_response,response_time_test2_response,row_sel,same,session_number,start_end,starttime,stim1,stim2,subject_id,task,task_vers,time_test1,time_test2,trial
1,1,0.0,prac,1,z,30000.0,Thu Jun 04 2026 13:15:27 GMT-0400 (Eastern Daylight Time),66008.89999999944,I,z,1135,,,5,yes,2,2658.699999999255,63350.200000000186,practrial5.png,practrial5.png,9073,PC,C,,,1
1,1,0.0,prac,0,m,30000.0,Thu Jun 04 2026 13:15:27 GMT-0400 (Eastern Daylight Time),68475.29999999981,I,z,931,,,6,no,2,2457.5999999996275,66017.70000000019,practrial6.png,practrial6b.png,9073,PC,C,,,2
2,1,0.0,prac,1,z,30000.0,Thu Jun 04 2026 13:15:27 GMT-0400 (Eastern Daylight Time),70892.09999999963,I,z,889,,,3,yes,2,2408.2999999998137,68483.79999999981,practrial3.png,practrial3.png,9073,PC,C,,,3
3,1,0.0,prac,1,z,30000.0,Thu Jun 04 2026 13:15:27 GMT-0400 (Eastern Daylight Time),73458.79999999981,I,z,1024,,,1,yes,2,2558.0,70900.79999999981,practrial1.png,practrial1.png,9073,PC,C,,,4
4,1,0.0,prac,1,m,30000.0,Thu Jun 04 2026 13:15:27 GMT-0400 (Eastern Daylight Time),76208.20000000019,I,m,1218,,,4,no,2,2741.5,73466.70000000019,practrial4.png,practrial4b.png,9073,PC,C,,,5
5,1,0.0,prac,1,m,30000.0,Thu Jun 04 2026 13:15:27 GMT-0400 (Eastern Daylight Time),78742.20000000019,I,m,999,,,2,no,2,2528.800000000745,76213.39999999944,practrial2.png,practrial2b.png,9073,PC,C,,,6
1,1,1.7659997940063477,test,1,z,28234.000205993652,Thu Jun 04 2026 13:15:27 GMT-0400 (Eastern Daylight Time),92159.20000000019,I,z,1751,1751,,1,yes,2,1760.800000000745,90398.39999999944,test1trial1.png,test1trial1.png,9073,PC,C,88064,,1
2,1,2.8999998569488525,test,1,m,27100.000143051147,Thu Jun 04 2026 13:15:27 GMT-0400 (Eastern Daylight Time),93292.20000000019,I,m,1120,1120,,2,no,2,1127.2000000001863,92165.0,test1trial2.png,test1trial2b.png,9073,PC,C,89831,,2
3,1,3.982999801635742,test,1,z,26017.000198364258,Thu Jun 04 2026 13:15:27 GMT-0400 (Eastern Daylight Time),94375.39999999944,I,z,1066,1066,,3,yes,2,1076.699999999255,93298.70000000019,test1trial3.png,test1trial3.png,9073,PC,C,90965,,3
4,1,4.949999809265137,test,1,m,25050.000190734863,Thu Jun 04 2026 13:15:27 GMT-0400 (Eastern Daylight Time),95342.09999999963,I,m,947,947,,4,no,2,957.0,94385.09999999963,test1trial4.png,test1trial4b.png,9073,PC,C,92052,,4
5,1,6.049999952316284,test,1,z,23950.000047683716,Thu Jun 04 2026 13:15:27 GMT-0400 (Eastern Daylight Time),96442.20000000019,I,z,1088,1088,,5,yes,2,1093.0,95349.20000000019,test1trial5.png,test1trial5.png,9073,PC,C,93015,,5
6,1,7.1499998569488525,test,1,m,22850.000143051147,Thu Jun 04 2026 13:15:27 GMT-0400 (Eastern Daylight Time),97542.20000000019,I,m,1076,1076,,6,no,2,1092.6000000005588,96449.59999999963,test1trial6.png,test1trial6b.png,9073,PC,C,94115,,6
7,1,8.115999937057495,test,1,z,21884.000062942505,Thu Jun 04 2026 13:15:27 GMT-0400 (Eastern Daylight Time),98508.89999999944,I,z,953,953,,7,yes,2,961.1999999992549,97547.70000000019,test1trial7.png,test1trial7.png,9073,PC,C,95214,,7
8,1,9.532999992370605,test,1,m,20467.000007629395,Thu Jun 04 2026 13:15:27 GMT-0400 (Eastern Daylight Time),99925.5,I,m,1393,1393,,8,no,2,1409.7000000001863,98515.79999999981,test1trial8.png,test1trial8b.png,9073,PC,C,96182,,8
9,1,10.565999984741211,test,1,z,19434.00001525879,Thu Jun 04 2026 13:15:27 GMT-0400 (Eastern Daylight Time),100959.09999999963,I,z,1024,1024,,9,yes,2,1026.5999999996275,99932.5,test1trial9.png,test1trial9.png,9073,PC,C,97599,,9
10,1,11.66599988937378,test,1,m,18334.00011062622,Thu Jun 04 2026 13:15:27 GMT-0400 (Eastern Daylight Time),102058.79999999981,I,m,1078,1078,,10,no,2,1092.2000000001863,100966.59999999963,test1trial10.png,test1trial10b.png,9073,PC,C,98633,,10
11,1,13.08299994468689,test,1,z,16917.00005531311,Thu Jun 04 2026 13:15:27 GMT-0400 (Eastern Daylight Time),103475.39999999944,I,z,1395,1395,,11,yes,2,1409.199999999255,102066.20000000019,test1trial11.png,test1trial11.png,9073,PC,C,99732,,11
12,1,14.949999809265137,test,1,m,15050.000190734863,Thu Jun 04 2026 13:15:27 GMT-0400 (Eastern Daylight Time),105342.29999999981,I,m,1850,1850,,12,no,2,1859.2999999998137,103483.0,test1trial12.png,test1trial12b.png,9073,PC,C,101149,,12
13,1,16.432999849319458,test,1,m,13567.000150680542,Thu Jun 04 2026 13:15:27 GMT-0400 (Eastern Daylight Time),106825.5,I,m,1463,1463,,13,no,2,1476.2000000001863,105349.29999999981,test1trial13.png,test1trial13b.png,9073,PC,C,103016,,13
14,1,17.932999849319458,test,1,m,12067.000150680542,Thu Jun 04 2026 13:15:27 GMT-0400 (Eastern Daylight Time),108325.39999999944,I,m,1484,1484,,14,no,2,1492.5,106832.89999999944,test1trial14.png,test1trial14b.png,9073,PC,C,104499,,14
15,1,18.982999801635742,test,1,z,11017.000198364258,Thu Jun 04 2026 13:15:27 GMT-0400 (Eastern Daylight Time),109375.29999999981,I,z,1032,1032,,15,yes,2,1042.5,108332.79999999981,test1trial15.png,test1trial15.png,9073,PC,C,105998,,15
16,1,20.131999969482422,test,1,m,9868.000030517578,Thu Jun 04 2026 13:15:27 GMT-0400 (Eastern Daylight Time),110525.0,I,m,1133,1133,,16,no,2,1142.2999999998137,109382.70000000019,test1trial16.png,test1trial16b.png,9073,PC,C,107049,,16
17,1,21.5,test,1,z,8500.0,Thu Jun 04 2026 13:15:27 GMT-0400 (Eastern Daylight Time),111892.29999999981,I,z,1357,1357,,17,yes,2,1363.7000000001863,110528.59999999963,test1trial17.png,test1trial17.png,9073,PC,C,108194,,17
18,1,22.66599988937378,test,1,m,7334.000110626221,Thu Jun 04 2026 13:15:27 GMT-0400 (Eastern Daylight Time),113058.70000000019,I,m,1145,1145,,18,no,2,1159.0,111899.70000000019,test1trial18.png,test1trial18b.png,9073,PC,C,109566,,18
19,1,24.215999841690063,test,1,m,5784.0001583099365,Thu Jun 04 2026 13:15:27 GMT-0400 (Eastern Daylight Time),114608.79999999981,I,m,1538,1538,,19,no,2,1542.7000000001863,113066.09999999963,test1trial19.png,test1trial19b.png,9073,PC,C,110732,,19
20,1,25.33299994468689,test,1,z,4667.00005531311,Thu Jun 04 2026 13:15:27 GMT-0400 (Eastern Daylight Time),115725.39999999944,I,z,1090,1090,,20,yes,2,1107.5,114617.89999999944,test1trial20.png,test1trial20.png,9073,PC,C,112284,,20
21,1,26.382999897003174,test,1,z,3617.000102996826,Thu Jun 04 2026 13:15:27 GMT-0400 (Eastern Daylight Time),116775.20000000019,I,z,1040,1040,,21,yes,2,1042.2000000001863,115733.0,test1trial21.png,test1trial21.png,9073,PC,C,113399,,21
22,1,27.848999977111816,test,1,z,2151.0000228881836,Thu Jun 04 2026 13:15:27 GMT-0400 (Eastern Daylight Time),118241.59999999963,I,z,1445,1445,,22,yes,2,1457.2000000001863,116784.39999999944,test1trial22.png,test1trial22.png,9073,PC,C,114450,,22
23,1,29.048999786376953,test,1,z,951.0002136230469,Thu Jun 04 2026 13:15:27 GMT-0400 (Eastern Daylight Time),119442.09999999963,I,z,1183,1183,,23,yes,2,1196.5,118245.59999999963,test1trial23.png,test1trial23.png,9073,PC,C,115911,,23
23,1,30.015999794006348,test,0,z,-15.999794006347656,Thu Jun 04 2026 13:15:27 GMT-0400 (Eastern Daylight Time),120408.89999999944,I,None,960,960,,24,yes,2,960.5999999996275,119448.29999999981,test1trial24.png,test1trial24.png,9073,PC,C,117114,,24
1,2,1.25,test,1,m,28750.0,Thu Jun 04 2026 13:15:27 GMT-0400 (Eastern Daylight Time),129975.59999999963,I,m,1238,,1238.0,1,no,2,10527.299999999814,119448.29999999981,test2trial1.png,test2trial1b.png,9073,PC,C,,126401.0,1
2,2,2.682999849319458,test,1,m,27317.000150680542,Thu Jun 04 2026 13:15:27 GMT-0400 (Eastern Daylight Time),131408.7000000002,I,m,1422,,1422.0,2,no,2,11960.400000000373,119448.29999999981,test2trial2.png,test2trial2b.png,9073,PC,C,,127649.0,2
3,2,4.016999959945679,test,1,z,25983.00004005432,Thu Jun 04 2026 13:15:27 GMT-0400 (Eastern Daylight Time),132742.2999999998,I,z,1326,,1326.0,3,yes,2,13294.0,119448.29999999981,test2trial3.png,test2trial3.png,9073,PC,C,,129081.0,3
4,2,5.049999952316284,test,1,z,24950.000047683716,Thu Jun 04 2026 13:15:27 GMT-0400 (Eastern Daylight Time),133775.39999999944,I,z,1016,,1016.0,4,yes,2,14327.099999999627,119448.29999999981,test2trial4.png,test2trial4.png,9073,PC,C,,130415.0,4
5,2,6.182999849319458,test,1,z,23817.000150680542,Thu Jun 04 2026 13:15:27 GMT-0400 (Eastern Daylight Time),134908.7999999998,I,z,1111,,1111.0,5,yes,2,15460.5,119448.29999999981,test2trial5.png,test2trial5.png,9073,PC,C,,131448.0,5
6,2,7.382999897003174,test,1,z,22617.000102996826,Thu Jun 04 2026 13:15:27 GMT-0400 (Eastern Daylight Time),136108.7999999998,I,z,1186,,1186.0,6,yes,2,16660.5,119448.29999999981,test2trial6.png,test2trial6.png,9073,PC,C,,132581.0,6
7,2,8.532999992370605,test,1,m,21467.000007629395,Thu Jun 04 2026 13:15:27 GMT-0400 (Eastern Daylight Time),137258.7999999998,I,m,1127,,1127.0,7,no,2,17810.5,119448.29999999981,test2trial7.png,test2trial7b.png,9073,PC,C,,133784.0,7
8,2,9.599999904632568,test,1,m,20400.00009536743,Thu Jun 04 2026 13:15:27 GMT-0400 (Eastern Daylight Time),138325.2999999998,I,m,1052,,1052.0,8,no,2,18877.0,119448.29999999981,test2trial8.png,test2trial8b.png,9073,PC,C,,134931.0,8
9,2,11.200000047683716,test,1,z,18799.999952316284,Thu Jun 04 2026 13:15:27 GMT-0400 (Eastern Daylight Time),139925.5,I,z,1577,,1577.0,9,yes,2,20477.200000000186,119448.29999999981,test2trial9.png,test2trial9.png,9073,PC,C,,135998.0,9
10,2,12.41599988937378,test,1,z,17584.00011062622,Thu Jun 04 2026 13:15:27 GMT-0400 (Eastern Daylight Time),141142.0,I,z,1201,,1201.0,10,yes,2,21693.700000000186,119448.29999999981,test2trial10.png,test2trial10.png,9073,PC,C,,137598.0,10
11,2,13.467000007629395,test,1,m,16532.999992370605,Thu Jun 04 2026 13:15:27 GMT-0400 (Eastern Daylight Time),142192.2000000002,I,m,1032,,1032.0,11,no,2,22743.900000000373,119448.29999999981,test2trial11.png,test2trial11b.png,9073,PC,C,,138815.0,11
12,2,15.200000047683716,test,1,m,14799.999952316284,Thu Jun 04 2026 13:15:27 GMT-0400 (Eastern Daylight Time),143925.2999999998,I,m,1709,,1709.0,12,no,2,24477.0,119448.29999999981,test2trial12.png,test2trial12b.png,9073,PC,C,,139866.0,12
12,2,16.649999856948853,test,0,z,13350.000143051147,Thu Jun 04 2026 13:15:27 GMT-0400 (Eastern Daylight Time),145375.2000000002,I,m,1441,,1441.0,13,yes,2,25926.900000000373,119448.29999999981,test2trial13.png,test2trial13.png,9073,PC,C,,141598.0,13
13,2,19.25,test,1,m,10750.0,Thu Jun 04 2026 13:15:27 GMT-0400 (Eastern Daylight Time),147975.2999999998,I,m,2584,,2584.0,14,no,2,28527.0,119448.29999999981,test2trial14.png,test2trial14b.png,9073,PC,C,,143047.0,14
14,2,20.149999856948853,test,1,m,9850.000143051147,Thu Jun 04 2026 13:15:27 GMT-0400 (Eastern Daylight Time),148875.2999999998,I,m,879,,879.0,15,no,2,29427.0,119448.29999999981,test2trial15.png,test2trial15b.png,9073,PC,C,,145648.0,15
15,2,21.6489999294281,test,1,m,8351.0000705719,Thu Jun 04 2026 13:15:27 GMT-0400 (Eastern Daylight Time),150375.09999999963,I,m,1491,,1491.0,16,no,2,30926.799999999814,119448.29999999981,test2trial16.png,test2trial16b.png,9073,PC,C,,146548.0,16
16,2,23.032999992370605,test,1,z,6967.0000076293945,Thu Jun 04 2026 13:15:27 GMT-0400 (Eastern Daylight Time),151758.7999999998,I,z,1367,,1367.0,17,yes,2,32310.5,119448.29999999981,test2trial17.png,test2trial17.png,9073,PC,C,,148048.0,17
17,2,24.59999990463257,test,1,z,5400.000095367432,Thu Jun 04 2026 13:15:27 GMT-0400 (Eastern Daylight Time),153325.2999999998,I,z,1549,,1549.0,18,yes,2,33877.0,119448.29999999981,test2trial18.png,test2trial18.png,9073,PC,C,,149434.0,18
18,2,26.700000047683716,test,1,z,3299.999952316284,Thu Jun 04 2026 13:15:27 GMT-0400 (Eastern Daylight Time),155425.2999999998,I,z,2089,,2089.0,19,yes,2,35977.0,119448.29999999981,test2trial19.png,test2trial19.png,9073,PC,C,,150997.0,19
19,2,28.016000032424927,test,1,z,1983.9999675750732,Thu Jun 04 2026 13:15:27 GMT-0400 (Eastern Daylight Time),156742.09999999963,I,z,1301,,1301.0,20,yes,2,37293.799999999814,119448.29999999981,test2trial20.png,test2trial20.png,9073,PC,C,,153098.0,20
19,2,30.016000032424927,test,0,z,-16.000032424926758,Thu Jun 04 2026 13:15:27 GMT-0400 (Eastern Daylight Time),158742.0,I,None,1992,,1992.0,21,yes,2,39293.700000000186,119448.29999999981,test2trial21.png,test2trial21.png,9073,PC,C,,154415.0,21
