block_c,block_dur,condition,countdown,datetime,endtime,list,multichar_response,project,response,response_time,session_number,start_end,starttime,subject_id,task,task_vers,trial
,,,,Thu Mar 12 2026 14:39:46 GMT-0500 (Central Daylight Time),,,,O,space,448,1,,,7768,WL,A,
prac,,0,,Thu Mar 12 2026 14:39:46 GMT-0500 (Central Daylight Time),,NA,b,O,b,14189,1,,,7768,WL,A,1.0
prac,,0,,Thu Mar 12 2026 14:39:46 GMT-0500 (Central Daylight Time),,NA,bo,O,o,338,1,,,7768,WL,A,1.0
prac,,0,,Thu Mar 12 2026 14:39:46 GMT-0500 (Central Daylight Time),,NA,boo,O,o,121,1,,,7768,WL,A,1.0
prac,,0,,Thu Mar 12 2026 14:39:46 GMT-0500 (Central Daylight Time),,NA,boos,O,s,241,1,,,7768,WL,A,1.0
prac,,0,,Thu Mar 12 2026 14:39:46 GMT-0500 (Central Daylight Time),,NA,boost,O,t,267,1,,,7768,WL,A,1.0
prac,,0,,Thu Mar 12 2026 14:39:46 GMT-0500 (Central Daylight Time),,NA,boostenter,O,enter,3059,1,,,7768,WL,A,1.0
1,2.184000015258789,learn,57815.99998474121,Thu Mar 12 2026 14:39:46 GMT-0500 (Central Daylight Time),146800.59999990463,A,b,O,b,2173,1,2183.399999856949,144617.20000004768,7768,WL,A,1.0
1,2.617000102996826,learn,57382.999897003174,Thu Mar 12 2026 14:39:46 GMT-0500 (Central Daylight Time),147233.70000004768,A,bo,O,o,390,1,2616.5,144617.20000004768,7768,WL,A,1.0
1,2.75,learn,57250.0,Thu Mar 12 2026 14:39:46 GMT-0500 (Central Daylight Time),147366.5,A,boo,O,o,108,1,2749.2999999523163,144617.20000004768,7768,WL,A,1.0
1,3.0,learn,57000.0,Thu Mar 12 2026 14:39:46 GMT-0500 (Central Daylight Time),147616.70000004768,A,book,O,k,210,1,2999.5,144617.20000004768,7768,WL,A,1.0
1,3.5990002155303955,learn,56400.999784469604,Thu Mar 12 2026 14:39:46 GMT-0500 (Central Daylight Time),148215.59999990463,A,bookenter,O,enter,565,1,3598.399999856949,144617.20000004768,7768,WL,A,1.0
1,11.064000129699707,learn,48935.99987030029,Thu Mar 12 2026 14:39:46 GMT-0500 (Central Daylight Time),155680.70000004768,A,f,O,f,7455,1,7464.799999952316,148215.90000009537,7768,WL,A,2.0
1,11.28000020980835,learn,48719.99979019165,Thu Mar 12 2026 14:39:46 GMT-0500 (Central Daylight Time),155897.0,A,fl,O,l,176,1,7681.099999904633,148215.90000009537,7768,WL,A,2.0
1,11.61300015449524,learn,48386.99984550476,Thu Mar 12 2026 14:39:46 GMT-0500 (Central Daylight Time),156229.79999995232,A,flo,O,o,302,1,8013.899999856949,148215.90000009537,7768,WL,A,2.0
1,12.11300015449524,learn,47886.99984550476,Thu Mar 12 2026 14:39:46 GMT-0500 (Central Daylight Time),156730.40000009537,A,flow,O,w,484,1,8514.5,148215.90000009537,7768,WL,A,2.0
1,12.347000122070312,learn,47652.99987792969,Thu Mar 12 2026 14:39:46 GMT-0500 (Central Daylight Time),156964.0,A,flowe,O,e,191,1,8748.099999904633,148215.90000009537,7768,WL,A,2.0
1,12.546000003814697,learn,47453.9999961853,Thu Mar 12 2026 14:39:46 GMT-0500 (Central Daylight Time),157162.90000009537,A,flower,O,r,153,1,8947.0,148215.90000009537,7768,WL,A,2.0
1,13.92900013923645,learn,46070.99986076355,Thu Mar 12 2026 14:39:46 GMT-0500 (Central Daylight Time),158545.5,A,flowerenter,O,enter,1362,1,10329.599999904633,148215.90000009537,7768,WL,A,2.0
1,14.463000059127808,learn,45536.99994087219,Thu Mar 12 2026 14:39:46 GMT-0500 (Central Daylight Time),159079.59999990463,A,t,O,t,525,1,533.7999999523163,158545.79999995232,7768,WL,A,3.0
1,14.678000211715698,learn,45321.9997882843,Thu Mar 12 2026 14:39:46 GMT-0500 (Central Daylight Time),159295.29999995232,A,tr,O,r,186,1,749.5,158545.79999995232,7768,WL,A,3.0
1,15.412000179290771,learn,44587.99982070923,Thu Mar 12 2026 14:39:46 GMT-0500 (Central Daylight Time),160029.29999995232,A,tra,O,a,722,1,1483.5,158545.79999995232,7768,WL,A,3.0
1,15.662000179290771,learn,44337.99982070923,Thu Mar 12 2026 14:39:46 GMT-0500 (Central Daylight Time),160278.90000009537,A,trai,O,i,234,1,1733.1000001430511,158545.79999995232,7768,WL,A,3.0
1,15.962000131607056,learn,44037.999868392944,Thu Mar 12 2026 14:39:46 GMT-0500 (Central Daylight Time),160579.20000004768,A,train,O,n,267,1,2033.4000000953674,158545.79999995232,7768,WL,A,3.0
1,16.878000020980835,learn,43121.999979019165,Thu Mar 12 2026 14:39:46 GMT-0500 (Central Daylight Time),161494.59999990463,A,trainenter,O,enter,877,1,2948.7999999523163,158545.79999995232,7768,WL,A,3.0
1,18.361000061035156,learn,41638.999938964844,Thu Mar 12 2026 14:39:46 GMT-0500 (Central Daylight Time),162977.5,A,m,O,m,1463,1,1482.5999999046326,161494.90000009537,7768,WL,A,4.0
1,18.82800006866455,learn,41171.99993133545,Thu Mar 12 2026 14:39:46 GMT-0500 (Central Daylight Time),163444.79999995232,A,me,O,e,440,1,1949.8999998569489,161494.90000009537,7768,WL,A,4.0
1,19.228000164031982,learn,40771.99983596802,Thu Mar 12 2026 14:39:46 GMT-0500 (Central Daylight Time),163844.79999995232,A,mea,O,a,359,1,2349.899999856949,161494.90000009537,7768,WL,A,4.0
1,19.594000101089478,learn,40405.99989891052,Thu Mar 12 2026 14:39:46 GMT-0500 (Central Daylight Time),164211.20000004768,A,mead,O,d,333,1,2716.2999999523163,161494.90000009537,7768,WL,A,4.0
1,19.97699999809265,learn,40023.00000190735,Thu Mar 12 2026 14:39:46 GMT-0500 (Central Daylight Time),164593.90000009537,A,meado,O,o,352,1,3099.0,161494.90000009537,7768,WL,A,4.0
1,20.1780002117157,learn,39821.9997882843,Thu Mar 12 2026 14:39:46 GMT-0500 (Central Daylight Time),164795.0,A,meadow,O,w,176,1,3300.0999999046326,161494.90000009537,7768,WL,A,4.0
1,21.460000038146973,learn,38539.99996185303,Thu Mar 12 2026 14:39:46 GMT-0500 (Central Daylight Time),166076.40000009537,A,meadowenter,O,enter,1247,1,4581.5,161494.90000009537,7768,WL,A,4.0
1,22.12600016593933,learn,37873.99983406067,Thu Mar 12 2026 14:39:46 GMT-0500 (Central Daylight Time),166742.79999995232,A,r,O,r,656,1,666.0999999046326,166076.70000004768,7768,WL,A,5.0
1,22.377000093460083,learn,37622.99990653992,Thu Mar 12 2026 14:39:46 GMT-0500 (Central Daylight Time),166993.79999995232,A,ru,O,u,235,1,917.0999999046326,166076.70000004768,7768,WL,A,5.0
1,22.610000133514404,learn,37389.999866485596,Thu Mar 12 2026 14:39:46 GMT-0500 (Central Daylight Time),167226.90000009537,A,rug,O,g,201,1,1150.2000000476837,166076.70000004768,7768,WL,A,5.0
1,23.576000213623047,learn,36423.99978637695,Thu Mar 12 2026 14:39:46 GMT-0500 (Central Daylight Time),168192.29999995232,A,rugenter,O,enter,925,1,2115.5999999046326,166076.70000004768,7768,WL,A,5.0
1,25.04100012779236,learn,34958.99987220764,Thu Mar 12 2026 14:39:46 GMT-0500 (Central Daylight Time),169658.29999995232,A,g,O,g,1452,1,1465.5999999046326,168192.70000004768,7768,WL,A,6.0
1,25.35800004005432,learn,34641.99995994568,Thu Mar 12 2026 14:39:46 GMT-0500 (Central Daylight Time),169975.20000004768,A,go,O,o,299,1,1782.5,168192.70000004768,7768,WL,A,6.0
1,26.109000205993652,learn,33890.99979400635,Thu Mar 12 2026 14:39:46 GMT-0500 (Central Daylight Time),170726.0,A,gol,O,l,731,1,2533.2999999523163,168192.70000004768,7768,WL,A,6.0
1,26.392000198364258,learn,33607.99980163574,Thu Mar 12 2026 14:39:46 GMT-0500 (Central Daylight Time),171009.40000009537,A,gold,O,d,248,1,2816.7000000476837,168192.70000004768,7768,WL,A,6.0
1,27.52400016784668,learn,32475.99983215332,Thu Mar 12 2026 14:39:46 GMT-0500 (Central Daylight Time),172140.79999995232,A,goldenter,O,enter,1095,1,3948.0999999046326,168192.70000004768,7768,WL,A,6.0
1,28.141000032424927,learn,31858.999967575073,Thu Mar 12 2026 14:39:46 GMT-0500 (Central Daylight Time),172758.09999990463,A,k,O,k,608,1,617.0,172141.09999990463,7768,WL,A,7.0
1,28.375,learn,31625.0,Thu Mar 12 2026 14:39:46 GMT-0500 (Central Daylight Time),172991.70000004768,A,ke,O,e,204,1,850.6000001430511,172141.09999990463,7768,WL,A,7.0
1,28.70800018310547,learn,31291.99981689453,Thu Mar 12 2026 14:39:46 GMT-0500 (Central Daylight Time),173325.09999990463,A,key,O,y,300,1,1184.0,172141.09999990463,7768,WL,A,7.0
1,29.557000160217285,learn,30442.999839782715,Thu Mar 12 2026 14:39:46 GMT-0500 (Central Daylight Time),174173.70000004768,A,keyenter,O,enter,814,1,2032.6000001430511,172141.09999990463,7768,WL,A,7.0
1,47.30200004577637,learn,12697.999954223633,Thu Mar 12 2026 14:39:46 GMT-0500 (Central Daylight Time),191917.90000009537,A,enter,O,enter,17735,1,17743.900000095367,174174.0,7768,WL,A,8.0
1,50.43500018119812,learn,9564.99981880188,Thu Mar 12 2026 14:39:46 GMT-0500 (Central Daylight Time),195050.29999995232,A,enter,O,enter,3119,1,3132.0999999046326,191918.20000004768,7768,WL,A,9.0
1,50.68500018119812,learn,9314.99981880188,Thu Mar 12 2026 14:39:46 GMT-0500 (Central Daylight Time),195300.09999990463,A,enter,O,enter,235,1,249.5,195050.59999990463,7768,WL,A,10.0
1,50.95100021362305,learn,9048.999786376953,Thu Mar 12 2026 14:39:46 GMT-0500 (Central Daylight Time),195566.70000004768,A,enter,O,enter,249,1,266.2000000476837,195300.5,7768,WL,A,11.0
1,51.33400011062622,learn,8665.99988937378,Thu Mar 12 2026 14:39:46 GMT-0500 (Central Daylight Time),195949.90000009537,A,enter,O,enter,374,1,382.90000009536743,195567.0,7768,WL,A,12.0
1,51.53400015830994,learn,8465.999841690063,Thu Mar 12 2026 14:39:46 GMT-0500 (Central Daylight Time),196149.70000004768,A,enter,O,enter,191,1,199.40000009536743,195950.29999995232,7768,WL,A,13.0
1,51.86800003051758,learn,8131.999969482422,Thu Mar 12 2026 14:39:46 GMT-0500 (Central Daylight Time),196483.0,A,enter,O,enter,319,1,333.0,196150.0,7768,WL,A,14.0
1,52.20100021362305,learn,7798.999786376953,Thu Mar 12 2026 14:39:46 GMT-0500 (Central Daylight Time),196816.29999995232,A,enter,O,enter,322,1,333.0,196483.29999995232,7768,WL,A,15.0
2,1.383000135421753,learn,58616.99986457825,Thu Mar 12 2026 14:39:46 GMT-0500 (Central Daylight Time),279989.90000009537,A,k,O,k,1362,1,1382.3000001907349,278607.59999990463,7768,WL,A,1.0
2,1.683000087738037,learn,58316.99991226196,Thu Mar 12 2026 14:39:46 GMT-0500 (Central Daylight Time),280290.0,A,ke,O,e,276,1,1682.4000000953674,278607.59999990463,7768,WL,A,1.0
2,1.8660001754760742,learn,58133.999824523926,Thu Mar 12 2026 14:39:46 GMT-0500 (Central Daylight Time),280473.09999990463,A,key,O,y,160,1,1865.5,278607.59999990463,7768,WL,A,1.0
2,2.864000082015991,learn,57135.99991798401,Thu Mar 12 2026 14:39:46 GMT-0500 (Central Daylight Time),281471.7000000477,A,keyenter,O,enter,961,1,2864.100000143051,278607.59999990463,7768,WL,A,1.0
2,3.865000009536743,learn,56134.99999046326,Thu Mar 12 2026 14:39:46 GMT-0500 (Central Daylight Time),282472.09999990463,A,t,O,t,984,1,1000.1999998092651,281471.90000009537,7768,WL,A,2.0
2,4.082000017166138,learn,55917.99998283386,Thu Mar 12 2026 14:39:46 GMT-0500 (Central Daylight Time),282689.0,A,tr,O,r,190,1,1217.0999999046326,281471.90000009537,7768,WL,A,2.0
2,4.981000185012817,learn,55018.99981498718,Thu Mar 12 2026 14:39:46 GMT-0500 (Central Daylight Time),283588.0,A,tra,O,a,862,1,2116.0999999046326,281471.90000009537,7768,WL,A,2.0
2,5.29800009727478,learn,54701.99990272522,Thu Mar 12 2026 14:39:46 GMT-0500 (Central Daylight Time),283905.40000009537,A,trai,O,i,290,1,2433.5,281471.90000009537,7768,WL,A,2.0
2,5.6650002002716064,learn,54334.99979972839,Thu Mar 12 2026 14:39:46 GMT-0500 (Central Daylight Time),284271.90000009537,A,train,O,n,331,1,2800.0,281471.90000009537,7768,WL,A,2.0
2,6.180000066757202,learn,53819.9999332428,Thu Mar 12 2026 14:39:46 GMT-0500 (Central Daylight Time),284787.40000009537,A,trainenter,O,enter,476,1,3315.5,281471.90000009537,7768,WL,A,2.0
2,7.147000074386597,learn,52852.9999256134,Thu Mar 12 2026 14:39:46 GMT-0500 (Central Daylight Time),285754.40000009537,A,b,O,b,955,1,966.8000001907349,284787.59999990463,7768,WL,A,3.0
2,7.531000137329102,learn,52468.9998626709,Thu Mar 12 2026 14:39:46 GMT-0500 (Central Daylight Time),286137.7999999523,A,bo,O,o,359,1,1350.2000000476837,284787.59999990463,7768,WL,A,3.0
2,7.71399998664856,learn,52286.00001335144,Thu Mar 12 2026 14:39:46 GMT-0500 (Central Daylight Time),286321.09999990463,A,boo,O,o,148,1,1533.5,284787.59999990463,7768,WL,A,3.0
2,8.414000034332275,learn,51585.999965667725,Thu Mar 12 2026 14:39:46 GMT-0500 (Central Daylight Time),287020.7999999523,A,book,O,k,662,1,2233.2000000476837,284787.59999990463,7768,WL,A,3.0
2,9.379000186920166,learn,50620.999813079834,Thu Mar 12 2026 14:39:46 GMT-0500 (Central Daylight Time),287986.2999999523,A,bookenter,O,enter,927,1,3198.7000000476837,284787.59999990463,7768,WL,A,3.0
2,10.312999963760376,learn,49687.000036239624,Thu Mar 12 2026 14:39:46 GMT-0500 (Central Daylight Time),288919.7999999523,A,h,O,h,924,1,933.2000000476837,287986.59999990463,7768,WL,A,4.0
2,10.546000003814697,learn,49453.9999961853,Thu Mar 12 2026 14:39:46 GMT-0500 (Central Daylight Time),289153.59999990463,A,ha,O,a,206,1,1167.0,287986.59999990463,7768,WL,A,4.0
2,10.861999988555908,learn,49138.00001144409,Thu Mar 12 2026 14:39:46 GMT-0500 (Central Daylight Time),289469.2999999523,A,har,O,r,282,1,1482.7000000476837,287986.59999990463,7768,WL,A,4.0
2,11.462000131607056,learn,48537.999868392944,Thu Mar 12 2026 14:39:46 GMT-0500 (Central Daylight Time),290069.7999999523,A,harp,O,p,590,1,2083.2000000476837,287986.59999990463,7768,WL,A,4.0
2,12.295000076293945,learn,47704.999923706055,Thu Mar 12 2026 14:39:46 GMT-0500 (Central Daylight Time),290902.09999990463,A,harpenter,O,enter,804,1,2915.5,287986.59999990463,7768,WL,A,4.0
2,12.912000179290771,learn,47087.99982070923,Thu Mar 12 2026 14:39:46 GMT-0500 (Central Daylight Time),291519.5,A,g,O,g,609,1,617.0999999046326,290902.40000009537,7768,WL,A,5.0
2,13.129000186920166,learn,46870.999813079834,Thu Mar 12 2026 14:39:46 GMT-0500 (Central Daylight Time),291736.0,A,go,O,o,188,1,833.5999999046326,290902.40000009537,7768,WL,A,5.0
2,13.379000186920166,learn,46620.999813079834,Thu Mar 12 2026 14:39:46 GMT-0500 (Central Daylight Time),291986.09999990463,A,gol,O,l,213,1,1083.6999998092651,290902.40000009537,7768,WL,A,5.0
2,13.528000116348267,learn,46471.99988365173,Thu Mar 12 2026 14:39:46 GMT-0500 (Central Daylight Time),292135.2000000477,A,gold,O,d,113,1,1232.7999999523163,290902.40000009537,7768,WL,A,5.0
2,14.294000148773193,learn,45705.99985122681,Thu Mar 12 2026 14:39:46 GMT-0500 (Central Daylight Time),292901.40000009537,A,goldenter,O,enter,752,1,1999.0,290902.40000009537,7768,WL,A,5.0
2,15.17799997329712,learn,44822.00002670288,Thu Mar 12 2026 14:39:46 GMT-0500 (Central Daylight Time),293785.2999999523,A,k,O,k,864,1,883.5,292901.7999999523,7768,WL,A,6.0
2,15.445000171661377,learn,44554.99982833862,Thu Mar 12 2026 14:39:46 GMT-0500 (Central Daylight Time),294052.0,A,ke,O,e,238,1,1150.2000000476837,292901.7999999523,7768,WL,A,6.0
2,15.644000053405762,learn,44355.99994659424,Thu Mar 12 2026 14:39:46 GMT-0500 (Central Daylight Time),294251.59999990463,A,key,O,y,169,1,1349.7999999523163,292901.7999999523,7768,WL,A,6.0
2,16.243000030517578,learn,43756.99996948242,Thu Mar 12 2026 14:39:46 GMT-0500 (Central Daylight Time),294850.5,A,keyenter,O,enter,580,1,1948.7000000476837,292901.7999999523,7768,WL,A,6.0
2,17.759999990463257,learn,42240.00000953674,Thu Mar 12 2026 14:39:46 GMT-0500 (Central Daylight Time),296367.59999990463,A,f,O,f,1500,1,1516.6999998092651,294850.90000009537,7768,WL,A,7.0
2,18.011000156402588,learn,41988.99984359741,Thu Mar 12 2026 14:39:46 GMT-0500 (Central Daylight Time),296617.7999999523,A,fi,O,i,224,1,1766.8999998569489,294850.90000009537,7768,WL,A,7.0
2,18.31000018119812,learn,41689.99981880188,Thu Mar 12 2026 14:39:46 GMT-0500 (Central Daylight Time),296917.2999999523,A,fin,O,n,274,1,2066.399999856949,294850.90000009537,7768,WL,A,7.0
2,18.57800006866455,learn,41421.99993133545,Thu Mar 12 2026 14:39:46 GMT-0500 (Central Daylight Time),297183.7000000477,A,fing,O,g,249,1,2332.7999999523163,294850.90000009537,7768,WL,A,7.0
2,19.01200008392334,learn,40987.99991607666,Thu Mar 12 2026 14:39:46 GMT-0500 (Central Daylight Time),297617.5,A,finge,O,e,402,1,2766.5999999046326,294850.90000009537,7768,WL,A,7.0
2,19.228000164031982,learn,40771.99983596802,Thu Mar 12 2026 14:39:46 GMT-0500 (Central Daylight Time),297834.09999990463,A,finger,O,r,180,1,2983.199999809265,294850.90000009537,7768,WL,A,7.0
2,20.31000018119812,learn,39689.99981880188,Thu Mar 12 2026 14:39:46 GMT-0500 (Central Daylight Time),298916.0,A,fingerenter,O,enter,1059,1,4065.0999999046326,294850.90000009537,7768,WL,A,7.0
2,20.861000061035156,learn,39138.999938964844,Thu Mar 12 2026 14:39:46 GMT-0500 (Central Daylight Time),299467.2000000477,A,r,O,r,531,1,550.9000000953674,298916.2999999523,7768,WL,A,8.0
2,21.042999982833862,learn,38957.00001716614,Thu Mar 12 2026 14:39:46 GMT-0500 (Central Daylight Time),299649.40000009537,A,ru,O,u,143,1,733.1000001430511,298916.2999999523,7768,WL,A,8.0
2,21.611000061035156,learn,38388.999938964844,Thu Mar 12 2026 14:39:46 GMT-0500 (Central Daylight Time),300216.5,A,rug,O,g,549,1,1300.2000000476837,298916.2999999523,7768,WL,A,8.0
2,22.493000030517578,learn,37506.99996948242,Thu Mar 12 2026 14:39:46 GMT-0500 (Central Daylight Time),301098.7000000477,A,rugenter,O,enter,843,1,2182.4000000953674,298916.2999999523,7768,WL,A,8.0
2,24.493000030517578,learn,35506.99996948242,Thu Mar 12 2026 14:39:46 GMT-0500 (Central Daylight Time),303098.7999999523,A,c,O,c,1979,1,1999.7999999523163,301099.0,7768,WL,A,9.0
2,24.676000118255615,learn,35323.999881744385,Thu Mar 12 2026 14:39:46 GMT-0500 (Central Daylight Time),303282.2000000477,A,ch,O,h,154,1,2183.2000000476837,301099.0,7768,WL,A,9.0
2,25.325000047683716,learn,34674.999952316284,Thu Mar 12 2026 14:39:46 GMT-0500 (Central Daylight Time),303931.0,A,chi,O,i,615,1,2832.0,301099.0,7768,WL,A,9.0
2,26.35800004005432,learn,33641.99995994568,Thu Mar 12 2026 14:39:46 GMT-0500 (Central Daylight Time),304964.2000000477,A,chim,O,m,1023,1,3865.2000000476837,301099.0,7768,WL,A,9.0
2,26.659000158309937,learn,33340.99984169006,Thu Mar 12 2026 14:39:46 GMT-0500 (Central Daylight Time),305265.0,A,chimn,O,n,288,1,4166.0,301099.0,7768,WL,A,9.0
2,27.241000175476074,learn,32758.999824523926,Thu Mar 12 2026 14:39:46 GMT-0500 (Central Daylight Time),305847.2999999523,A,chimne,O,e,547,1,4748.299999952316,301099.0,7768,WL,A,9.0
2,27.45800018310547,learn,32541.99981689453,Thu Mar 12 2026 14:39:46 GMT-0500 (Central Daylight Time),306063.90000009537,A,chimney,O,y,191,1,4964.900000095367,301099.0,7768,WL,A,9.0
2,28.756999969482422,learn,31243.000030517578,Thu Mar 12 2026 14:39:46 GMT-0500 (Central Daylight Time),307363.2999999523,A,chimneyenter,O,enter,1282,1,6264.299999952316,301099.0,7768,WL,A,9.0
2,41.004000186920166,learn,18995.999813079834,Thu Mar 12 2026 14:39:46 GMT-0500 (Central Daylight Time),319610.5,A,r,O,r,12235,1,12246.900000095367,307363.59999990463,7768,WL,A,10.0
2,41.48800015449524,learn,18511.99984550476,Thu Mar 12 2026 14:39:46 GMT-0500 (Central Daylight Time),320093.59999990463,A,ra,O,a,442,1,12730.0,307363.59999990463,7768,WL,A,10.0
2,41.854000091552734,learn,18145.999908447266,Thu Mar 12 2026 14:39:46 GMT-0500 (Central Daylight Time),320459.7000000477,A,rat,O,t,336,1,13096.100000143051,307363.59999990463,7768,WL,A,10.0
2,42.021000146865845,learn,17978.999853134155,Thu Mar 12 2026 14:39:46 GMT-0500 (Central Daylight Time),320626.5,A,ratt,O,t,128,1,13262.900000095367,307363.59999990463,7768,WL,A,10.0
2,42.337000131607056,learn,17662.999868392944,Thu Mar 12 2026 14:39:46 GMT-0500 (Central Daylight Time),320943.09999990463,A,rattl,O,l,281,1,13579.5,307363.59999990463,7768,WL,A,10.0
2,42.53700017929077,learn,17462.99982070923,Thu Mar 12 2026 14:39:46 GMT-0500 (Central Daylight Time),321143.09999990463,A,rattle,O,e,165,1,13779.5,307363.59999990463,7768,WL,A,10.0
2,43.503000020980835,learn,16496.999979019165,Thu Mar 12 2026 14:39:46 GMT-0500 (Central Daylight Time),322108.40000009537,A,rattleenter,O,enter,940,1,14744.800000190735,307363.59999990463,7768,WL,A,10.0
2,52.3510000705719,learn,7648.999929428101,Thu Mar 12 2026 14:39:46 GMT-0500 (Central Daylight Time),330956.7000000477,A,s,O,s,8825,1,8848.0,322108.7000000477,7768,WL,A,11.0
2,52.58300018310547,learn,7416.999816894531,Thu Mar 12 2026 14:39:46 GMT-0500 (Central Daylight Time),331189.2000000477,A,sa,O,a,206,1,9080.5,322108.7000000477,7768,WL,A,11.0
2,52.950000047683716,learn,7049.999952316284,Thu Mar 12 2026 14:39:46 GMT-0500 (Central Daylight Time),331556.09999990463,A,sal,O,l,336,1,9447.399999856949,322108.7000000477,7768,WL,A,11.0
2,53.28400015830994,learn,6715.9998416900635,Thu Mar 12 2026 14:39:46 GMT-0500 (Central Daylight Time),331889.59999990463,A,salt,O,t,299,1,9780.899999856949,322108.7000000477,7768,WL,A,11.0
2,53.83300018310547,learn,6166.999816894531,Thu Mar 12 2026 14:39:46 GMT-0500 (Central Daylight Time),332438.40000009537,A,saltenter,O,enter,521,1,10329.700000047684,322108.7000000477,7768,WL,A,11.0
2,60.015000104904175,learn,-15.000104904174805,Thu Mar 12 2026 14:39:46 GMT-0500 (Central Daylight Time),338620.7000000477,A,None,O,None,6176,1,6181.900000095367,332438.7999999523,7768,WL,A,12.0
3,1.568000078201294,learn,58431.999921798706,Thu Mar 12 2026 14:39:46 GMT-0500 (Central Daylight Time),418661.0,A,k,O,k,1544,1,1566.2000000476837,417094.7999999523,7768,WL,A,1.0
3,1.9000000953674316,learn,58099.99990463257,Thu Mar 12 2026 14:39:46 GMT-0500 (Central Daylight Time),418993.7000000477,A,ke,O,e,302,1,1898.9000000953674,417094.7999999523,7768,WL,A,1.0
3,2.0840001106262207,learn,57915.99988937378,Thu Mar 12 2026 14:39:46 GMT-0500 (Central Daylight Time),419177.7000000477,A,key,O,y,169,1,2082.9000000953674,417094.7999999523,7768,WL,A,1.0
3,2.5830001831054688,learn,57416.99981689453,Thu Mar 12 2026 14:39:46 GMT-0500 (Central Daylight Time),419676.40000009537,A,keyenter,O,enter,466,1,2581.600000143051,417094.7999999523,7768,WL,A,1.0
3,3.0510001182556152,learn,56948.999881744385,Thu Mar 12 2026 14:39:46 GMT-0500 (Central Daylight Time),420143.90000009537,A,r,O,r,458,1,467.2000000476837,419676.7000000477,7768,WL,A,2.0
3,3.4830000400543213,learn,56516.99995994568,Thu Mar 12 2026 14:39:46 GMT-0500 (Central Daylight Time),420576.7000000477,A,ra,O,a,407,1,900.0,419676.7000000477,7768,WL,A,2.0
3,3.8489999771118164,learn,56151.00002288818,Thu Mar 12 2026 14:39:46 GMT-0500 (Central Daylight Time),420942.7000000477,A,rat,O,t,340,1,1266.0,419676.7000000477,7768,WL,A,2.0
3,4.0,learn,56000.0,Thu Mar 12 2026 14:39:46 GMT-0500 (Central Daylight Time),421093.09999990463,A,ratt,O,t,134,1,1416.3999998569489,419676.7000000477,7768,WL,A,2.0
3,4.25,learn,55750.0,Thu Mar 12 2026 14:39:46 GMT-0500 (Central Daylight Time),421343.40000009537,A,rattl,O,l,230,1,1666.7000000476837,419676.7000000477,7768,WL,A,2.0
3,4.416000127792358,learn,55583.99987220764,Thu Mar 12 2026 14:39:46 GMT-0500 (Central Daylight Time),421509.7000000477,A,rattle,O,e,144,1,1833.0,419676.7000000477,7768,WL,A,2.0
3,5.0320000648498535,learn,54967.99993515015,Thu Mar 12 2026 14:39:46 GMT-0500 (Central Daylight Time),422125.59999990463,A,rattleenter,O,enter,582,1,2448.899999856949,419676.7000000477,7768,WL,A,2.0
3,5.483000040054321,learn,54516.99995994568,Thu Mar 12 2026 14:39:46 GMT-0500 (Central Daylight Time),422576.2999999523,A,a,O,a,433,1,450.5,422125.7999999523,7768,WL,A,3.0
3,5.883000135421753,learn,54116.99986457825,Thu Mar 12 2026 14:39:46 GMT-0500 (Central Daylight Time),422976.2999999523,A,ap,O,p,362,1,850.5,422125.7999999523,7768,WL,A,3.0
3,6.0329999923706055,learn,53967.000007629395,Thu Mar 12 2026 14:39:46 GMT-0500 (Central Daylight Time),423126.2000000477,A,app,O,p,115,1,1000.4000000953674,422125.7999999523,7768,WL,A,3.0
3,6.249000072479248,learn,53750.99992752075,Thu Mar 12 2026 14:39:46 GMT-0500 (Central Daylight Time),423342.59999990463,A,appl,O,l,190,1,1216.7999999523163,422125.7999999523,7768,WL,A,3.0
3,6.416000127792358,learn,53583.99987220764,Thu Mar 12 2026 14:39:46 GMT-0500 (Central Daylight Time),423509.7999999523,A,apple,O,e,142,1,1384.0,422125.7999999523,7768,WL,A,3.0
3,6.965000152587891,learn,53034.99984741211,Thu Mar 12 2026 14:39:46 GMT-0500 (Central Daylight Time),424058.2999999523,A,appleenter,O,enter,515,1,1932.5,422125.7999999523,7768,WL,A,3.0
3,7.631999969482422,learn,52368.00003051758,Thu Mar 12 2026 14:39:46 GMT-0500 (Central Daylight Time),424725.59999990463,A,f,O,f,653,1,667.0999999046326,424058.5,7768,WL,A,4.0
3,7.914999961853027,learn,52085.00003814697,Thu Mar 12 2026 14:39:46 GMT-0500 (Central Daylight Time),425008.5,A,fi,O,i,245,1,950.0,424058.5,7768,WL,A,4.0
3,8.199000120162964,learn,51800.999879837036,Thu Mar 12 2026 14:39:46 GMT-0500 (Central Daylight Time),425292.0,A,fin,O,n,263,1,1233.5,424058.5,7768,WL,A,4.0
3,8.416000127792358,learn,51583.99987220764,Thu Mar 12 2026 14:39:46 GMT-0500 (Central Daylight Time),425508.90000009537,A,fing,O,g,192,1,1450.4000000953674,424058.5,7768,WL,A,4.0
3,8.682000160217285,learn,51317.999839782715,Thu Mar 12 2026 14:39:46 GMT-0500 (Central Daylight Time),425775.2000000477,A,finge,O,e,240,1,1716.7000000476837,424058.5,7768,WL,A,4.0
3,8.881999969482422,learn,51118.00003051758,Thu Mar 12 2026 14:39:46 GMT-0500 (Central Daylight Time),425975.2999999523,A,finger,O,r,167,1,1916.7999999523163,424058.5,7768,WL,A,4.0
3,9.414000034332275,learn,50585.999965667725,Thu Mar 12 2026 14:39:46 GMT-0500 (Central Daylight Time),426507.5,A,fingerenter,O,enter,501,1,2449.0,424058.5,7768,WL,A,4.0
3,9.898000001907349,learn,50101.99999809265,Thu Mar 12 2026 14:39:46 GMT-0500 (Central Daylight Time),426991.2999999523,A,c,O,c,475,1,483.59999990463257,426507.7000000477,7768,WL,A,5.0
3,10.180999994277954,learn,49819.000005722046,Thu Mar 12 2026 14:39:46 GMT-0500 (Central Daylight Time),427274.2999999523,A,ch,O,h,249,1,766.5999999046326,426507.7000000477,7768,WL,A,5.0
3,10.565000057220459,learn,49434.99994277954,Thu Mar 12 2026 14:39:46 GMT-0500 (Central Daylight Time),427658.2000000477,A,chi,O,i,369,1,1150.5,426507.7000000477,7768,WL,A,5.0
3,11.180999994277954,learn,48819.000005722046,Thu Mar 12 2026 14:39:46 GMT-0500 (Central Daylight Time),428274.5,A,chim,O,m,587,1,1766.7999999523163,426507.7000000477,7768,WL,A,5.0
3,11.398000001907349,learn,48601.99999809265,Thu Mar 12 2026 14:39:46 GMT-0500 (Central Daylight Time),428491.0,A,chimn,O,n,189,1,1983.2999999523163,426507.7000000477,7768,WL,A,5.0
3,12.297000169754028,learn,47702.99983024597,Thu Mar 12 2026 14:39:46 GMT-0500 (Central Daylight Time),429390.5,A,chimne,O,e,872,1,2882.7999999523163,426507.7000000477,7768,WL,A,5.0
3,12.514000177383423,learn,47485.99982261658,Thu Mar 12 2026 14:39:46 GMT-0500 (Central Daylight Time),429607.09999990463,A,chimney,O,y,181,1,3099.399999856949,426507.7000000477,7768,WL,A,5.0
3,13.062999963760376,learn,46937.000036239624,Thu Mar 12 2026 14:39:46 GMT-0500 (Central Daylight Time),430156.2000000477,A,chimneyenter,O,enter,534,1,3648.5,426507.7000000477,7768,WL,A,5.0
3,13.680999994277954,learn,46319.000005722046,Thu Mar 12 2026 14:39:46 GMT-0500 (Central Daylight Time),430773.90000009537,A,f,O,f,611,1,617.4000000953674,430156.5,7768,WL,A,6.0
3,13.880000114440918,learn,46119.99988555908,Thu Mar 12 2026 14:39:46 GMT-0500 (Central Daylight Time),430972.7999999523,A,fl,O,l,175,1,816.2999999523163,430156.5,7768,WL,A,6.0
3,14.095999956130981,learn,45904.00004386902,Thu Mar 12 2026 14:39:46 GMT-0500 (Central Daylight Time),431189.7999999523,A,flo,O,o,203,1,1033.2999999523163,430156.5,7768,WL,A,6.0
3,14.297000169754028,learn,45702.99983024597,Thu Mar 12 2026 14:39:46 GMT-0500 (Central Daylight Time),431390.2999999523,A,flow,O,w,167,1,1233.7999999523163,430156.5,7768,WL,A,6.0
3,14.496000051498413,learn,45503.99994850159,Thu Mar 12 2026 14:39:46 GMT-0500 (Central Daylight Time),431589.7000000477,A,flowe,O,e,175,1,1433.2000000476837,430156.5,7768,WL,A,6.0
3,14.729000091552734,learn,45270.999908447266,Thu Mar 12 2026 14:39:46 GMT-0500 (Central Daylight Time),431822.5,A,flower,O,r,197,1,1666.0,430156.5,7768,WL,A,6.0
3,15.396000146865845,learn,44603.999853134155,Thu Mar 12 2026 14:39:46 GMT-0500 (Central Daylight Time),432488.7999999523,A,flowerenter,O,enter,644,1,2332.2999999523163,430156.5,7768,WL,A,6.0
3,16.879000186920166,learn,43120.999813079834,Thu Mar 12 2026 14:39:46 GMT-0500 (Central Daylight Time),433972.2000000477,A,r,O,r,1461,1,1483.0,432489.2000000477,7768,WL,A,7.0
3,17.144999980926514,learn,42855.000019073486,Thu Mar 12 2026 14:39:46 GMT-0500 (Central Daylight Time),434238.2999999523,A,ru,O,u,234,1,1749.0999999046326,432489.2000000477,7768,WL,A,7.0
3,17.42900013923645,learn,42570.99986076355,Thu Mar 12 2026 14:39:46 GMT-0500 (Central Daylight Time),434522.5,A,rug,O,g,271,1,2033.2999999523163,432489.2000000477,7768,WL,A,7.0
3,18.061000108718872,learn,41938.99989128113,Thu Mar 12 2026 14:39:46 GMT-0500 (Central Daylight Time),435154.59999990463,A,rugenter,O,enter,593,1,2665.399999856949,432489.2000000477,7768,WL,A,7.0
3,18.944000005722046,learn,41055.999994277954,Thu Mar 12 2026 14:39:46 GMT-0500 (Central Daylight Time),436037.7999999523,A,b,O,b,868,1,883.0,435154.7999999523,7768,WL,A,8.0
3,19.295000076293945,learn,40704.999923706055,Thu Mar 12 2026 14:39:46 GMT-0500 (Central Daylight Time),436388.59999990463,A,bo,O,o,334,1,1233.7999999523163,435154.7999999523,7768,WL,A,8.0
3,19.462000131607056,learn,40537.999868392944,Thu Mar 12 2026 14:39:46 GMT-0500 (Central Daylight Time),436554.90000009537,A,boo,O,o,128,1,1400.1000001430511,435154.7999999523,7768,WL,A,8.0
3,19.74500012397766,learn,40254.99987602234,Thu Mar 12 2026 14:39:46 GMT-0500 (Central Daylight Time),436838.0,A,book,O,k,260,1,1683.2000000476837,435154.7999999523,7768,WL,A,8.0
3,20.210000038146973,learn,39789.99996185303,Thu Mar 12 2026 14:39:46 GMT-0500 (Central Daylight Time),437303.7000000477,A,bookenter,O,enter,435,1,2148.9000000953674,435154.7999999523,7768,WL,A,8.0
3,21.028000116348267,learn,38971.99988365173,Thu Mar 12 2026 14:39:46 GMT-0500 (Central Daylight Time),438121.2999999523,A,t,O,t,800,1,817.2999999523163,437304.0,7768,WL,A,9.0
3,21.228000164031982,learn,38771.99983596802,Thu Mar 12 2026 14:39:46 GMT-0500 (Central Daylight Time),438321.2000000477,A,tr,O,r,172,1,1017.2000000476837,437304.0,7768,WL,A,9.0
3,21.729000091552734,learn,38270.999908447266,Thu Mar 12 2026 14:39:46 GMT-0500 (Central Daylight Time),438821.7999999523,A,tra,O,a,476,1,1517.7999999523163,437304.0,7768,WL,A,9.0
3,22.011000156402588,learn,37988.99984359741,Thu Mar 12 2026 14:39:46 GMT-0500 (Central Daylight Time),439104.40000009537,A,trai,O,i,247,1,1800.4000000953674,437304.0,7768,WL,A,9.0
3,22.344000101089478,learn,37655.99989891052,Thu Mar 12 2026 14:39:46 GMT-0500 (Central Daylight Time),439437.7999999523,A,train,O,n,311,1,2133.7999999523163,437304.0,7768,WL,A,9.0
3,23.694000005722046,learn,36305.999994277954,Thu Mar 12 2026 14:39:46 GMT-0500 (Central Daylight Time),440787.40000009537,A,trainenter,O,enter,1322,1,3483.4000000953674,437304.0,7768,WL,A,9.0
3,24.259000062942505,learn,35740.999937057495,Thu Mar 12 2026 14:39:46 GMT-0500 (Central Daylight Time),441352.7999999523,A,h,O,h,554,1,565.0999999046326,440787.7000000477,7768,WL,A,10.0
3,24.45900011062622,learn,35540.99988937378,Thu Mar 12 2026 14:39:46 GMT-0500 (Central Daylight Time),441552.59999990463,A,ha,O,a,175,1,764.8999998569489,440787.7000000477,7768,WL,A,10.0
3,24.777000188827515,learn,35222.999811172485,Thu Mar 12 2026 14:39:46 GMT-0500 (Central Daylight Time),441870.2000000477,A,har,O,r,302,1,1082.5,440787.7000000477,7768,WL,A,10.0
3,25.360000133514404,learn,34639.999866485596,Thu Mar 12 2026 14:39:46 GMT-0500 (Central Daylight Time),442453.2000000477,A,harp,O,p,559,1,1665.5,440787.7000000477,7768,WL,A,10.0
3,28.944000005722046,learn,31055.999994277954,Thu Mar 12 2026 14:39:46 GMT-0500 (Central Daylight Time),446036.90000009537,A,harpg,O,g,3560,1,5249.200000047684,440787.7000000477,7768,WL,A,10.0
3,29.108999967575073,learn,30891.000032424927,Thu Mar 12 2026 14:39:46 GMT-0500 (Central Daylight Time),446202.2999999523,A,harpgo,O,o,132,1,5414.599999904633,440787.7000000477,7768,WL,A,10.0
3,29.342000007629395,learn,30657.999992370605,Thu Mar 12 2026 14:39:46 GMT-0500 (Central Daylight Time),446435.5,A,harpgol,O,l,192,1,5647.799999952316,440787.7000000477,7768,WL,A,10.0
3,29.44099998474121,learn,30559.00001525879,Thu Mar 12 2026 14:39:46 GMT-0500 (Central Daylight Time),446534.59999990463,A,harpgold,O,d,73,1,5746.899999856949,440787.7000000477,7768,WL,A,10.0
3,30.60700011253357,learn,29392.99988746643,Thu Mar 12 2026 14:39:46 GMT-0500 (Central Daylight Time),447700.59999990463,A,harpgoldenter,O,enter,1143,1,6912.899999856949,440787.7000000477,7768,WL,A,10.0
3,31.02500009536743,learn,28974.99990463257,Thu Mar 12 2026 14:39:46 GMT-0500 (Central Daylight Time),448117.7999999523,A,k,O,k,410,1,417.0,447700.7999999523,7768,WL,A,11.0
3,31.258000135421753,learn,28741.999864578247,Thu Mar 12 2026 14:39:46 GMT-0500 (Central Daylight Time),448351.2999999523,A,ke,O,e,198,1,650.5,447700.7999999523,7768,WL,A,11.0
3,31.52500009536743,learn,28474.99990463257,Thu Mar 12 2026 14:39:46 GMT-0500 (Central Daylight Time),448617.90000009537,A,key,O,y,227,1,917.1000001430511,447700.7999999523,7768,WL,A,11.0
3,31.973999977111816,learn,28026.000022888184,Thu Mar 12 2026 14:39:46 GMT-0500 (Central Daylight Time),449066.90000009537,A,keyenter,O,enter,409,1,1366.1000001430511,447700.7999999523,7768,WL,A,11.0
3,43.837000131607056,learn,16162.999868392944,Thu Mar 12 2026 14:39:46 GMT-0500 (Central Daylight Time),460930.5,A,s,O,s,11852,1,11863.299999952316,449067.2000000477,7768,WL,A,12.0
3,44.23699998855591,learn,15763.000011444092,Thu Mar 12 2026 14:39:46 GMT-0500 (Central Daylight Time),461330.40000009537,A,sa,O,a,360,1,12263.200000047684,449067.2000000477,7768,WL,A,12.0
3,44.753000020980835,learn,15246.999979019165,Thu Mar 12 2026 14:39:46 GMT-0500 (Central Daylight Time),461846.40000009537,A,sal,O,l,490,1,12779.200000047684,449067.2000000477,7768,WL,A,12.0
3,44.98699998855591,learn,15013.000011444092,Thu Mar 12 2026 14:39:46 GMT-0500 (Central Daylight Time),462080.2999999523,A,salt,O,t,212,1,13013.099999904633,449067.2000000477,7768,WL,A,12.0
3,45.50200009346008,learn,14497.999906539917,Thu Mar 12 2026 14:39:46 GMT-0500 (Central Daylight Time),462595.59999990463,A,saltenter,O,enter,490,1,13528.399999856949,449067.2000000477,7768,WL,A,12.0
3,51.66700005531311,learn,8332.99994468689,Thu Mar 12 2026 14:39:46 GMT-0500 (Central Daylight Time),468760.2000000477,A,n,O,n,6154,1,6164.400000095367,462595.7999999523,7768,WL,A,13.0
3,52.95099997520447,learn,7049.000024795532,Thu Mar 12 2026 14:39:46 GMT-0500 (Central Daylight Time),470044.2999999523,A,,O,backspace,1269,1,7448.5,462595.7999999523,7768,WL,A,13.0
3,53.532999992370605,learn,6467.0000076293945,Thu Mar 12 2026 14:39:46 GMT-0500 (Central Daylight Time),470626.2999999523,A,m,O,m,552,1,8030.5,462595.7999999523,7768,WL,A,13.0
3,53.76699995994568,learn,6233.000040054321,Thu Mar 12 2026 14:39:46 GMT-0500 (Central Daylight Time),470860.59999990463,A,me,O,e,226,1,8264.799999952316,462595.7999999523,7768,WL,A,13.0
3,54.06700015068054,learn,5932.999849319458,Thu Mar 12 2026 14:39:46 GMT-0500 (Central Daylight Time),471160.5,A,mea,O,a,269,1,8564.700000047684,462595.7999999523,7768,WL,A,13.0
3,54.91700005531311,learn,5082.99994468689,Thu Mar 12 2026 14:39:46 GMT-0500 (Central Daylight Time),472010.2000000477,A,mead,O,d,811,1,9414.400000095367,462595.7999999523,7768,WL,A,13.0
3,55.13300013542175,learn,4866.999864578247,Thu Mar 12 2026 14:39:46 GMT-0500 (Central Daylight Time),472226.7999999523,A,meado,O,o,178,1,9631.0,462595.7999999523,7768,WL,A,13.0
3,55.282999992370605,learn,4717.0000076293945,Thu Mar 12 2026 14:39:46 GMT-0500 (Central Daylight Time),472376.2999999523,A,meadow,O,w,125,1,9780.5,462595.7999999523,7768,WL,A,13.0
3,55.848999977111816,learn,4151.000022888184,Thu Mar 12 2026 14:39:46 GMT-0500 (Central Daylight Time),472942.2999999523,A,meadowenter,O,enter,534,1,10346.5,462595.7999999523,7768,WL,A,13.0
3,60.015000104904175,learn,-15.000104904174805,Thu Mar 12 2026 14:39:46 GMT-0500 (Central Daylight Time),477108.7000000477,A,None,O,None,4160,1,4166.200000047684,472942.5,7768,WL,A,14.0
4,0.7840001583099365,learn,59215.99984169006,Thu Mar 12 2026 14:39:46 GMT-0500 (Central Daylight Time),565696.4000000954,A,g,O,g,758,1,782.7000000476837,564913.7000000477,7768,WL,A,1.0
4,1.1500000953674316,learn,58849.99990463257,Thu Mar 12 2026 14:39:46 GMT-0500 (Central Daylight Time),566063.0,A,go,O,o,329,1,1149.2999999523163,564913.7000000477,7768,WL,A,1.0
4,1.4000000953674316,learn,58599.99990463257,Thu Mar 12 2026 14:39:46 GMT-0500 (Central Daylight Time),566312.7000000477,A,gol,O,l,215,1,1399.0,564913.7000000477,7768,WL,A,1.0
4,1.5829999446868896,learn,58417.00005531311,Thu Mar 12 2026 14:39:46 GMT-0500 (Central Daylight Time),566496.0,A,gold,O,d,164,1,1582.2999999523163,564913.7000000477,7768,WL,A,1.0
4,2.365000009536743,learn,57634.99999046326,Thu Mar 12 2026 14:39:46 GMT-0500 (Central Daylight Time),567277.9000000954,A,goldenter,O,enter,756,1,2364.2000000476837,564913.7000000477,7768,WL,A,1.0
4,3.5160000324249268,learn,56483.99996757507,Thu Mar 12 2026 14:39:46 GMT-0500 (Central Daylight Time),568428.5999999046,A,k,O,k,1137,1,1150.3999998569489,567278.2000000477,7768,WL,A,2.0
4,3.8320000171661377,learn,56167.99998283386,Thu Mar 12 2026 14:39:46 GMT-0500 (Central Daylight Time),568745.0,A,ke,O,e,288,1,1466.7999999523163,567278.2000000477,7768,WL,A,2.0
4,4.082000017166138,learn,55917.99998283386,Thu Mar 12 2026 14:39:46 GMT-0500 (Central Daylight Time),568994.4000000954,A,key,O,y,210,1,1716.2000000476837,567278.2000000477,7768,WL,A,2.0
4,4.648000001907349,learn,55351.99999809265,Thu Mar 12 2026 14:39:46 GMT-0500 (Central Daylight Time),569560.5999999046,A,keyenter,O,enter,534,1,2282.399999856949,567278.2000000477,7768,WL,A,2.0
4,5.197999954223633,learn,54802.00004577637,Thu Mar 12 2026 14:39:46 GMT-0500 (Central Daylight Time),570111.2999999523,A,r,O,r,535,1,550.3999998569489,569560.9000000954,7768,WL,A,3.0
4,5.615000009536743,learn,54384.99999046326,Thu Mar 12 2026 14:39:46 GMT-0500 (Central Daylight Time),570528.0,A,ra,O,a,380,1,967.0999999046326,569560.9000000954,7768,WL,A,3.0
4,6.015000104904175,learn,53984.999895095825,Thu Mar 12 2026 14:39:46 GMT-0500 (Central Daylight Time),570927.5999999046,A,rat,O,t,366,1,1366.6999998092651,569560.9000000954,7768,WL,A,3.0
4,6.182000160217285,learn,53817.999839782715,Thu Mar 12 2026 14:39:46 GMT-0500 (Central Daylight Time),571094.4000000954,A,ratt,O,t,134,1,1533.5,569560.9000000954,7768,WL,A,3.0
4,6.398000001907349,learn,53601.99999809265,Thu Mar 12 2026 14:39:46 GMT-0500 (Central Daylight Time),571310.9000000954,A,rattl,O,l,198,1,1750.0,569560.9000000954,7768,WL,A,3.0
4,6.565000057220459,learn,53434.99994277954,Thu Mar 12 2026 14:39:46 GMT-0500 (Central Daylight Time),571478.0999999046,A,rattle,O,e,142,1,1917.1999998092651,569560.9000000954,7768,WL,A,3.0
4,7.0299999713897705,learn,52970.00002861023,Thu Mar 12 2026 14:39:46 GMT-0500 (Central Daylight Time),571943.0999999046,A,rattleenter,O,enter,436,1,2382.199999809265,569560.9000000954,7768,WL,A,3.0
4,7.831000089645386,learn,52168.999910354614,Thu Mar 12 2026 14:39:46 GMT-0500 (Central Daylight Time),572743.7999999523,A,l,O,l,784,1,800.3999998569489,571943.4000000954,7768,WL,A,4.0
4,8.04800009727478,learn,51951.99990272522,Thu Mar 12 2026 14:39:46 GMT-0500 (Central Daylight Time),572960.4000000954,A,lo,O,o,188,1,1017.0,571943.4000000954,7768,WL,A,4.0
4,8.281000137329102,learn,51718.9998626709,Thu Mar 12 2026 14:39:46 GMT-0500 (Central Daylight Time),573193.7000000477,A,log,O,g,196,1,1250.2999999523163,571943.4000000954,7768,WL,A,4.0
4,8.77999997138977,learn,51220.00002861023,Thu Mar 12 2026 14:39:46 GMT-0500 (Central Daylight Time),573692.5,A,logenter,O,enter,473,1,1749.0999999046326,571943.4000000954,7768,WL,A,4.0
4,9.19700002670288,learn,50802.99997329712,Thu Mar 12 2026 14:39:46 GMT-0500 (Central Daylight Time),574110.0999999046,A,b,O,b,402,1,417.2999999523163,573692.7999999523,7768,WL,A,5.0
4,9.647000074386597,learn,50352.9999256134,Thu Mar 12 2026 14:39:46 GMT-0500 (Central Daylight Time),574559.7999999523,A,bu,O,u,423,1,867.0,573692.7999999523,7768,WL,A,5.0
4,9.94700002670288,learn,50052.99997329712,Thu Mar 12 2026 14:39:46 GMT-0500 (Central Daylight Time),574859.5999999046,A,but,O,t,266,1,1166.7999999523163,573692.7999999523,7768,WL,A,5.0
4,10.097000122070312,learn,49902.99987792969,Thu Mar 12 2026 14:39:46 GMT-0500 (Central Daylight Time),575009.5999999046,A,butt,O,t,121,1,1316.7999999523163,573692.7999999523,7768,WL,A,5.0
4,10.496999979019165,learn,49503.000020980835,Thu Mar 12 2026 14:39:46 GMT-0500 (Central Daylight Time),575409.5,A,butto,O,o,377,1,1716.7000000476837,573692.7999999523,7768,WL,A,5.0
4,10.830000162124634,learn,49169.999837875366,Thu Mar 12 2026 14:39:46 GMT-0500 (Central Daylight Time),575742.2999999523,A,button,O,n,309,1,2049.5,573692.7999999523,7768,WL,A,5.0
4,11.312000036239624,learn,48687.999963760376,Thu Mar 12 2026 14:39:46 GMT-0500 (Central Daylight Time),576225.0,A,buttonenter,O,enter,452,1,2532.2000000476837,573692.7999999523,7768,WL,A,5.0
4,11.911999940872192,learn,48088.00005912781,Thu Mar 12 2026 14:39:46 GMT-0500 (Central Daylight Time),576824.9000000954,A,c,O,c,581,1,599.7000000476837,576225.2000000477,7768,WL,A,6.0
4,12.163000106811523,learn,47836.99989318848,Thu Mar 12 2026 14:39:46 GMT-0500 (Central Daylight Time),577075.5999999046,A,ch,O,h,234,1,850.3999998569489,576225.2000000477,7768,WL,A,6.0
4,12.562999963760376,learn,47437.000036239624,Thu Mar 12 2026 14:39:46 GMT-0500 (Central Daylight Time),577475.9000000954,A,chi,O,i,362,1,1250.7000000476837,576225.2000000477,7768,WL,A,6.0
4,13.312999963760376,learn,46687.000036239624,Thu Mar 12 2026 14:39:46 GMT-0500 (Central Daylight Time),578225.2999999523,A,chim,O,m,721,1,2000.0999999046326,576225.2000000477,7768,WL,A,6.0
4,13.57800006866455,learn,46421.99993133545,Thu Mar 12 2026 14:39:46 GMT-0500 (Central Daylight Time),578490.9000000954,A,chimn,O,n,235,1,2265.7000000476837,576225.2000000477,7768,WL,A,6.0
4,13.996000051498413,learn,46003.99994850159,Thu Mar 12 2026 14:39:46 GMT-0500 (Central Daylight Time),578908.4000000954,A,chimne,O,e,400,1,2683.2000000476837,576225.2000000477,7768,WL,A,6.0
4,14.246000051498413,learn,45753.99994850159,Thu Mar 12 2026 14:39:46 GMT-0500 (Central Daylight Time),579158.2999999523,A,chimney,O,y,221,1,2933.0999999046326,576225.2000000477,7768,WL,A,6.0
4,14.778000116348267,learn,45221.99988365173,Thu Mar 12 2026 14:39:46 GMT-0500 (Central Daylight Time),579690.5,A,chimneyenter,O,enter,502,1,3465.2999999523163,576225.2000000477,7768,WL,A,6.0
4,15.361999988555908,learn,44638.00001144409,Thu Mar 12 2026 14:39:46 GMT-0500 (Central Daylight Time),580274.5999999046,A,f,O,f,565,1,583.7999999523163,579690.7999999523,7768,WL,A,7.0
4,15.59500002861023,learn,44404.99997138977,Thu Mar 12 2026 14:39:46 GMT-0500 (Central Daylight Time),580508.0,A,fi,O,i,194,1,817.2000000476837,579690.7999999523,7768,WL,A,7.0
4,15.894999980926514,learn,44105.000019073486,Thu Mar 12 2026 14:39:46 GMT-0500 (Central Daylight Time),580807.7000000477,A,fin,O,n,266,1,1116.9000000953674,579690.7999999523,7768,WL,A,7.0
4,16.511000156402588,learn,43488.99984359741,Thu Mar 12 2026 14:39:46 GMT-0500 (Central Daylight Time),581423.2999999523,A,fing,O,g,580,1,1732.5,579690.7999999523,7768,WL,A,7.0
4,16.761000156402588,learn,43238.99984359741,Thu Mar 12 2026 14:39:46 GMT-0500 (Central Daylight Time),581673.2000000477,A,finge,O,e,229,1,1982.4000000953674,579690.7999999523,7768,WL,A,7.0
4,16.91100001335144,learn,43088.99998664856,Thu Mar 12 2026 14:39:46 GMT-0500 (Central Daylight Time),581823.7999999523,A,finger,O,r,130,1,2133.0,579690.7999999523,7768,WL,A,7.0
4,17.594000101089478,learn,42405.99989891052,Thu Mar 12 2026 14:39:46 GMT-0500 (Central Daylight Time),582506.2999999523,A,fingerenter,O,enter,651,1,2815.5,579690.7999999523,7768,WL,A,7.0
4,18.210999965667725,learn,41789.000034332275,Thu Mar 12 2026 14:39:46 GMT-0500 (Central Daylight Time),583123.9000000954,A,a,O,a,596,1,617.4000000953674,582506.5,7768,WL,A,8.0
4,18.594000101089478,learn,41405.99989891052,Thu Mar 12 2026 14:39:46 GMT-0500 (Central Daylight Time),583506.7999999523,A,ap,O,p,354,1,1000.2999999523163,582506.5,7768,WL,A,8.0
4,18.759999990463257,learn,41240.00000953674,Thu Mar 12 2026 14:39:46 GMT-0500 (Central Daylight Time),583672.7999999523,A,app,O,p,129,1,1166.2999999523163,582506.5,7768,WL,A,8.0
4,19.011000156402588,learn,40988.99984359741,Thu Mar 12 2026 14:39:46 GMT-0500 (Central Daylight Time),583923.5999999046,A,appl,O,l,219,1,1417.0999999046326,582506.5,7768,WL,A,8.0
4,19.259999990463257,learn,40740.00000953674,Thu Mar 12 2026 14:39:46 GMT-0500 (Central Daylight Time),584173.0,A,apple,O,e,210,1,1666.5,582506.5,7768,WL,A,8.0
4,19.80999994277954,learn,40190.00005722046,Thu Mar 12 2026 14:39:46 GMT-0500 (Central Daylight Time),584722.0999999046,A,appleenter,O,enter,518,1,2215.5999999046326,582506.5,7768,WL,A,8.0
4,20.776999950408936,learn,39223.000049591064,Thu Mar 12 2026 14:39:46 GMT-0500 (Central Daylight Time),585689.5,A,s,O,s,957,1,967.0999999046326,584722.4000000954,7768,WL,A,9.0
4,21.026999950408936,learn,38973.000049591064,Thu Mar 12 2026 14:39:46 GMT-0500 (Central Daylight Time),585939.2999999523,A,sa,O,a,215,1,1216.8999998569489,584722.4000000954,7768,WL,A,9.0
4,21.342999935150146,learn,38657.00006484985,Thu Mar 12 2026 14:39:46 GMT-0500 (Central Daylight Time),586255.9000000954,A,sal,O,l,291,1,1533.5,584722.4000000954,7768,WL,A,9.0
4,21.792999982833862,learn,38207.00001716614,Thu Mar 12 2026 14:39:46 GMT-0500 (Central Daylight Time),586705.9000000954,A,salt,O,t,417,1,1983.5,584722.4000000954,7768,WL,A,9.0
4,22.342000007629395,learn,37657.999992370605,Thu Mar 12 2026 14:39:46 GMT-0500 (Central Daylight Time),587254.7999999523,A,saltenter,O,enter,524,1,2532.399999856949,584722.4000000954,7768,WL,A,9.0
4,24.242000102996826,learn,35757.999897003174,Thu Mar 12 2026 14:39:46 GMT-0500 (Central Daylight Time),589154.7999999523,A,m,O,m,1888,1,1899.7999999523163,587255.0,7768,WL,A,10.0
4,24.493000030517578,learn,35506.99996948242,Thu Mar 12 2026 14:39:46 GMT-0500 (Central Daylight Time),589405.2000000477,A,me,O,e,232,1,2150.2000000476837,587255.0,7768,WL,A,10.0
4,24.740999937057495,learn,35259.000062942505,Thu Mar 12 2026 14:39:46 GMT-0500 (Central Daylight Time),589654.0,A,mea,O,a,217,1,2399.0,587255.0,7768,WL,A,10.0
4,25.2739999294281,learn,34726.0000705719,Thu Mar 12 2026 14:39:46 GMT-0500 (Central Daylight Time),590187.0999999046,A,mead,O,d,516,1,2932.0999999046326,587255.0,7768,WL,A,10.0
4,25.492000102996826,learn,34507.999897003174,Thu Mar 12 2026 14:39:46 GMT-0500 (Central Daylight Time),590404.7000000477,A,meado,O,o,208,1,3149.7000000476837,587255.0,7768,WL,A,10.0
4,25.70799994468689,learn,34292.00005531311,Thu Mar 12 2026 14:39:46 GMT-0500 (Central Daylight Time),590621.0,A,meadow,O,w,182,1,3366.0,587255.0,7768,WL,A,10.0
4,27.09000015258789,learn,32909.99984741211,Thu Mar 12 2026 14:39:46 GMT-0500 (Central Daylight Time),592003.0999999046,A,meadowenter,O,enter,1343,1,4748.099999904633,587255.0,7768,WL,A,10.0
4,28.29100012779236,learn,31708.99987220764,Thu Mar 12 2026 14:39:46 GMT-0500 (Central Daylight Time),593203.7999999523,A,b,O,b,1188,1,1200.3999998569489,592003.4000000954,7768,WL,A,11.0
4,28.70799994468689,learn,31292.00005531311,Thu Mar 12 2026 14:39:46 GMT-0500 (Central Daylight Time),593620.2000000477,A,bo,O,o,385,1,1616.7999999523163,592003.4000000954,7768,WL,A,11.0
4,28.874000072479248,learn,31125.999927520752,Thu Mar 12 2026 14:39:46 GMT-0500 (Central Daylight Time),593787.2999999523,A,boo,O,o,127,1,1783.8999998569489,592003.4000000954,7768,WL,A,11.0
4,29.10700011253357,learn,30892.99988746643,Thu Mar 12 2026 14:39:46 GMT-0500 (Central Daylight Time),594019.9000000954,A,book,O,k,197,1,2016.5,592003.4000000954,7768,WL,A,11.0
4,29.572999954223633,learn,30427.000045776367,Thu Mar 12 2026 14:39:46 GMT-0500 (Central Daylight Time),594485.7000000477,A,bookenter,O,enter,439,1,2482.2999999523163,592003.4000000954,7768,WL,A,11.0
4,31.072999954223633,learn,28927.000045776367,Thu Mar 12 2026 14:39:46 GMT-0500 (Central Daylight Time),595985.9000000954,A,r,O,r,1488,1,1499.9000000953674,594486.0,7768,WL,A,12.0
4,31.289999961853027,learn,28710.000038146973,Thu Mar 12 2026 14:39:46 GMT-0500 (Central Daylight Time),596202.9000000954,A,ru,O,u,197,1,1716.9000000953674,594486.0,7768,WL,A,12.0
4,31.85599994659424,learn,28144.00005340576,Thu Mar 12 2026 14:39:46 GMT-0500 (Central Daylight Time),596769.2000000477,A,rug,O,g,539,1,2283.2000000476837,594486.0,7768,WL,A,12.0
4,32.557000160217285,learn,27442.999839782715,Thu Mar 12 2026 14:39:46 GMT-0500 (Central Daylight Time),597468.0999999046,A,rugenter,O,enter,675,1,2982.0999999046326,594486.0,7768,WL,A,12.0
4,33.45700001716614,learn,26542.999982833862,Thu Mar 12 2026 14:39:46 GMT-0500 (Central Daylight Time),598368.7999999523,A,t,O,t,883,1,900.5,597468.2999999523,7768,WL,A,13.0
4,33.65700006484985,learn,26342.999935150146,Thu Mar 12 2026 14:39:46 GMT-0500 (Central Daylight Time),598568.5999999046,A,tr,O,r,164,1,1100.2999999523163,597468.2999999523,7768,WL,A,13.0
4,34.10700011253357,learn,25892.99988746643,Thu Mar 12 2026 14:39:46 GMT-0500 (Central Daylight Time),599018.4000000954,A,tra,O,a,421,1,1550.1000001430511,597468.2999999523,7768,WL,A,13.0
4,34.35599994659424,learn,25644.00005340576,Thu Mar 12 2026 14:39:46 GMT-0500 (Central Daylight Time),599267.2999999523,A,trai,O,i,216,1,1799.0,597468.2999999523,7768,WL,A,13.0
4,34.70700001716614,learn,25292.999982833862,Thu Mar 12 2026 14:39:46 GMT-0500 (Central Daylight Time),599618.2999999523,A,train,O,n,328,1,2150.0,597468.2999999523,7768,WL,A,13.0
4,35.33899998664856,learn,24661.00001335144,Thu Mar 12 2026 14:39:46 GMT-0500 (Central Daylight Time),600250.4000000954,A,trainenter,O,enter,594,1,2782.100000143051,597468.2999999523,7768,WL,A,13.0
4,44.00399994850159,learn,15996.000051498413,Thu Mar 12 2026 14:39:46 GMT-0500 (Central Daylight Time),608915.4000000954,A,f,O,f,8645,1,8664.700000047684,600250.7000000477,7768,WL,A,14.0
4,44.22000002861023,learn,15779.99997138977,Thu Mar 12 2026 14:39:46 GMT-0500 (Central Daylight Time),609131.7999999523,A,fl,O,l,175,1,8881.099999904633,600250.7000000477,7768,WL,A,14.0
4,44.420000076293945,learn,15579.999923706055,Thu Mar 12 2026 14:39:46 GMT-0500 (Central Daylight Time),609331.7999999523,A,flo,O,o,160,1,9081.099999904633,600250.7000000477,7768,WL,A,14.0
4,44.70300006866455,learn,15296.99993133545,Thu Mar 12 2026 14:39:46 GMT-0500 (Central Daylight Time),609614.7000000477,A,flow,O,w,255,1,9364.0,600250.7000000477,7768,WL,A,14.0
4,44.920000076293945,learn,15079.999923706055,Thu Mar 12 2026 14:39:46 GMT-0500 (Central Daylight Time),609831.5999999046,A,flowe,O,e,183,1,9580.899999856949,600250.7000000477,7768,WL,A,14.0
4,45.11899995803833,learn,14881.00004196167,Thu Mar 12 2026 14:39:46 GMT-0500 (Central Daylight Time),610030.4000000954,A,flower,O,r,173,1,9779.700000047684,600250.7000000477,7768,WL,A,14.0
4,45.651999950408936,learn,14348.000049591064,Thu Mar 12 2026 14:39:46 GMT-0500 (Central Daylight Time),610563.7000000477,A,flowerenter,O,enter,518,1,10313.0,600250.7000000477,7768,WL,A,14.0
4,55.08299994468689,learn,4917.00005531311,Thu Mar 12 2026 14:39:46 GMT-0500 (Central Daylight Time),619994.2000000477,A,h,O,h,9419,1,9430.299999952316,610563.9000000954,7768,WL,A,15.0
4,55.26699995994568,learn,4733.000040054321,Thu Mar 12 2026 14:39:46 GMT-0500 (Central Daylight Time),620178.2000000477,A,ha,O,a,169,1,9614.299999952316,610563.9000000954,7768,WL,A,15.0
4,55.63300013542175,learn,4366.999864578247,Thu Mar 12 2026 14:39:46 GMT-0500 (Central Daylight Time),620543.7999999523,A,har,O,r,331,1,9979.899999856949,610563.9000000954,7768,WL,A,15.0
4,56.049999952316284,learn,3950.000047683716,Thu Mar 12 2026 14:39:46 GMT-0500 (Central Daylight Time),620961.4000000954,A,harp,O,p,395,1,10397.5,610563.9000000954,7768,WL,A,15.0
4,56.598999977111816,learn,3401.0000228881836,Thu Mar 12 2026 14:39:46 GMT-0500 (Central Daylight Time),621510.2000000477,A,harpenter,O,enter,514,1,10946.299999952316,610563.9000000954,7768,WL,A,15.0
5,1.2330000400543213,learn,60000.0,Thu Mar 12 2026 14:39:46 GMT-0500 (Central Daylight Time),694987.4000000954,A,g,O,g,1196,1,1232.9000000953674,693754.5,7768,WL,A,1.0
5,1.5490000247955322,learn,60000.0,Thu Mar 12 2026 14:39:46 GMT-0500 (Central Daylight Time),695303.2000000477,A,go,O,o,285,1,1548.7000000476837,693754.5,7768,WL,A,1.0
5,1.815999984741211,learn,60000.0,Thu Mar 12 2026 14:39:46 GMT-0500 (Central Daylight Time),695569.7999999523,A,gol,O,l,232,1,1815.2999999523163,693754.5,7768,WL,A,1.0
5,2.0989999771118164,learn,60000.0,Thu Mar 12 2026 14:39:46 GMT-0500 (Central Daylight Time),695853.0999999046,A,gold,O,d,252,1,2098.5999999046326,693754.5,7768,WL,A,1.0
5,2.6480000019073486,learn,60000.0,Thu Mar 12 2026 14:39:46 GMT-0500 (Central Daylight Time),696402.2000000477,A,goldenter,O,enter,523,1,2647.7000000476837,693754.5,7768,WL,A,1.0
5,3.315000057220459,learn,60000.0,Thu Mar 12 2026 14:39:46 GMT-0500 (Central Daylight Time),697069.4000000954,A,r,O,r,660,1,666.9000000953674,696402.5,7768,WL,A,2.0
5,3.7149999141693115,learn,60000.0,Thu Mar 12 2026 14:39:46 GMT-0500 (Central Daylight Time),697469.5999999046,A,ra,O,a,359,1,1067.0999999046326,696402.5,7768,WL,A,2.0
5,4.08299994468689,learn,60000.0,Thu Mar 12 2026 14:39:46 GMT-0500 (Central Daylight Time),697836.7000000477,A,rat,O,t,335,1,1434.2000000476837,696402.5,7768,WL,A,2.0
5,4.2149999141693115,learn,60000.0,Thu Mar 12 2026 14:39:46 GMT-0500 (Central Daylight Time),697969.5999999046,A,ratt,O,t,103,1,1567.0999999046326,696402.5,7768,WL,A,2.0
5,4.450000047683716,learn,60000.0,Thu Mar 12 2026 14:39:46 GMT-0500 (Central Daylight Time),698203.7999999523,A,rattl,O,l,204,1,1801.2999999523163,696402.5,7768,WL,A,2.0
5,4.63100004196167,learn,60000.0,Thu Mar 12 2026 14:39:46 GMT-0500 (Central Daylight Time),698385.5999999046,A,rattle,O,e,153,1,1983.0999999046326,696402.5,7768,WL,A,2.0
5,5.346999883651733,learn,60000.0,Thu Mar 12 2026 14:39:46 GMT-0500 (Central Daylight Time),699101.4000000954,A,rattleenter,O,enter,680,1,2698.9000000953674,696402.5,7768,WL,A,2.0
5,6.38100004196167,learn,60000.0,Thu Mar 12 2026 14:39:46 GMT-0500 (Central Daylight Time),700135.5,A,f,O,f,1018,1,1033.9000000953674,699101.5999999046,7768,WL,A,3.0
5,6.5309998989105225,learn,60000.0,Thu Mar 12 2026 14:39:46 GMT-0500 (Central Daylight Time),700285.2000000477,A,fi,O,i,118,1,1183.6000001430511,699101.5999999046,7768,WL,A,3.0
5,6.829999923706055,learn,60000.0,Thu Mar 12 2026 14:39:46 GMT-0500 (Central Daylight Time),700584.4000000954,A,fin,O,n,264,1,1482.8000001907349,699101.5999999046,7768,WL,A,3.0
5,7.396999835968018,learn,60000.0,Thu Mar 12 2026 14:39:46 GMT-0500 (Central Daylight Time),701151.7000000477,A,fing,O,g,546,1,2050.100000143051,699101.5999999046,7768,WL,A,3.0
5,7.680999994277954,learn,60000.0,Thu Mar 12 2026 14:39:46 GMT-0500 (Central Daylight Time),701435.2999999523,A,finge,O,e,246,1,2333.7000000476837,699101.5999999046,7768,WL,A,3.0
5,7.863999843597412,learn,60000.0,Thu Mar 12 2026 14:39:46 GMT-0500 (Central Daylight Time),701618.2000000477,A,finger,O,r,145,1,2516.600000143051,699101.5999999046,7768,WL,A,3.0
5,9.312999963760376,learn,60000.0,Thu Mar 12 2026 14:39:46 GMT-0500 (Central Daylight Time),703066.7000000477,A,fingerenter,O,enter,1415,1,3965.100000143051,699101.5999999046,7768,WL,A,3.0
5,9.912999868392944,learn,60000.0,Thu Mar 12 2026 14:39:46 GMT-0500 (Central Daylight Time),703667.5999999046,A,b,O,b,580,1,600.6999998092651,703066.9000000954,7768,WL,A,4.0
5,10.19599986076355,learn,60000.0,Thu Mar 12 2026 14:39:46 GMT-0500 (Central Daylight Time),703950.4000000954,A,bu,O,u,258,1,883.5,703066.9000000954,7768,WL,A,4.0
5,10.480000019073486,learn,60000.0,Thu Mar 12 2026 14:39:46 GMT-0500 (Central Daylight Time),704233.7999999523,A,but,O,t,255,1,1166.8999998569489,703066.9000000954,7768,WL,A,4.0
5,10.645999908447266,learn,60000.0,Thu Mar 12 2026 14:39:46 GMT-0500 (Central Daylight Time),704400.0,A,butt,O,t,131,1,1333.0999999046326,703066.9000000954,7768,WL,A,4.0
5,10.812999963760376,learn,60000.0,Thu Mar 12 2026 14:39:46 GMT-0500 (Central Daylight Time),704567.0999999046,A,butto,O,o,143,1,1500.1999998092651,703066.9000000954,7768,WL,A,4.0
5,11.129999876022339,learn,60000.0,Thu Mar 12 2026 14:39:46 GMT-0500 (Central Daylight Time),704883.7000000477,A,button,O,n,285,1,1816.7999999523163,703066.9000000954,7768,WL,A,4.0
5,11.51199984550476,learn,60000.0,Thu Mar 12 2026 14:39:46 GMT-0500 (Central Daylight Time),705265.9000000954,A,buttonenter,O,enter,360,1,2199.0,703066.9000000954,7768,WL,A,4.0
5,12.062999963760376,learn,60000.0,Thu Mar 12 2026 14:39:46 GMT-0500 (Central Daylight Time),705816.7000000477,A,l,O,l,533,1,550.5,705266.2000000477,7768,WL,A,5.0
5,12.277999877929688,learn,60000.0,Thu Mar 12 2026 14:39:46 GMT-0500 (Central Daylight Time),706032.2999999523,A,lo,O,o,179,1,766.0999999046326,705266.2000000477,7768,WL,A,5.0
5,12.513000011444092,learn,60000.0,Thu Mar 12 2026 14:39:46 GMT-0500 (Central Daylight Time),706266.7000000477,A,log,O,g,199,1,1000.5,705266.2000000477,7768,WL,A,5.0
5,13.128000020980835,learn,60000.0,Thu Mar 12 2026 14:39:46 GMT-0500 (Central Daylight Time),706882.0999999046,A,logenter,O,enter,576,1,1615.8999998569489,705266.2000000477,7768,WL,A,5.0
5,13.628000020980835,learn,60000.0,Thu Mar 12 2026 14:39:46 GMT-0500 (Central Daylight Time),707382.5,A,c,O,c,493,1,500.2000000476837,706882.2999999523,7768,WL,A,6.0
5,13.861000061035156,learn,60000.0,Thu Mar 12 2026 14:39:46 GMT-0500 (Central Daylight Time),707615.2000000477,A,ch,O,h,205,1,732.9000000953674,706882.2999999523,7768,WL,A,6.0
5,14.312000036239624,learn,60000.0,Thu Mar 12 2026 14:39:46 GMT-0500 (Central Daylight Time),708066.0,A,chi,O,i,429,1,1183.7000000476837,706882.2999999523,7768,WL,A,6.0
5,14.744999885559082,learn,60000.0,Thu Mar 12 2026 14:39:46 GMT-0500 (Central Daylight Time),708499.4000000954,A,chim,O,m,393,1,1617.1000001430511,706882.2999999523,7768,WL,A,6.0
5,14.994999885559082,learn,60000.0,Thu Mar 12 2026 14:39:46 GMT-0500 (Central Daylight Time),708749.5,A,chimn,O,n,218,1,1867.2000000476837,706882.2999999523,7768,WL,A,6.0
5,15.312000036239624,learn,60000.0,Thu Mar 12 2026 14:39:46 GMT-0500 (Central Daylight Time),709065.7000000477,A,chimne,O,e,283,1,2183.4000000953674,706882.2999999523,7768,WL,A,6.0
5,15.510999917984009,learn,60000.0,Thu Mar 12 2026 14:39:46 GMT-0500 (Central Daylight Time),709265.2000000477,A,chimney,O,y,171,1,2382.9000000953674,706882.2999999523,7768,WL,A,6.0
5,16.07699990272522,learn,60000.0,Thu Mar 12 2026 14:39:46 GMT-0500 (Central Daylight Time),709831.0,A,chimneyenter,O,enter,538,1,2948.7000000476837,706882.2999999523,7768,WL,A,6.0
5,17.64299988746643,learn,60000.0,Thu Mar 12 2026 14:39:46 GMT-0500 (Central Daylight Time),711397.2999999523,A,s,O,s,1558,1,1566.0,709831.2999999523,7768,WL,A,7.0
5,17.876999855041504,learn,60000.0,Thu Mar 12 2026 14:39:46 GMT-0500 (Central Daylight Time),711631.2999999523,A,sa,O,a,215,1,1800.0,709831.2999999523,7768,WL,A,7.0
5,18.293999910354614,learn,60000.0,Thu Mar 12 2026 14:39:46 GMT-0500 (Central Daylight Time),712048.0,A,sal,O,l,382,1,2216.7000000476837,709831.2999999523,7768,WL,A,7.0
5,18.64400005340576,learn,60000.0,Thu Mar 12 2026 14:39:46 GMT-0500 (Central Daylight Time),712397.7999999523,A,salt,O,t,317,1,2566.5,709831.2999999523,7768,WL,A,7.0
5,19.175999879837036,learn,60000.0,Thu Mar 12 2026 14:39:46 GMT-0500 (Central Daylight Time),712930.2000000477,A,saltenter,O,enter,491,1,3098.9000000953674,709831.2999999523,7768,WL,A,7.0
5,19.859999895095825,learn,60000.0,Thu Mar 12 2026 14:39:46 GMT-0500 (Central Daylight Time),713614.2000000477,A,h,O,h,668,1,683.7999999523163,712930.4000000954,7768,WL,A,8.0
5,20.026999950408936,learn,60000.0,Thu Mar 12 2026 14:39:46 GMT-0500 (Central Daylight Time),713780.7000000477,A,ha,O,a,141,1,850.2999999523163,712930.4000000954,7768,WL,A,8.0
5,20.375999927520752,learn,60000.0,Thu Mar 12 2026 14:39:46 GMT-0500 (Central Daylight Time),714130.5,A,har,O,r,321,1,1200.0999999046326,712930.4000000954,7768,WL,A,8.0
5,20.960000038146973,learn,60000.0,Thu Mar 12 2026 14:39:46 GMT-0500 (Central Daylight Time),714713.7999999523,A,harp,O,p,554,1,1783.3999998569489,712930.4000000954,7768,WL,A,8.0
5,21.691999912261963,learn,60000.0,Thu Mar 12 2026 14:39:46 GMT-0500 (Central Daylight Time),715445.9000000954,A,harpenter,O,enter,700,1,2515.5,712930.4000000954,7768,WL,A,8.0
5,23.743000030517578,learn,60000.0,Thu Mar 12 2026 14:39:46 GMT-0500 (Central Daylight Time),717496.2999999523,A,t,O,t,2034,1,2050.0999999046326,715446.2000000477,7768,WL,A,9.0
5,23.942999839782715,learn,60000.0,Thu Mar 12 2026 14:39:46 GMT-0500 (Central Daylight Time),717696.0,A,tr,O,r,173,1,2249.7999999523163,715446.2000000477,7768,WL,A,9.0
5,24.55999994277954,learn,60000.0,Thu Mar 12 2026 14:39:46 GMT-0500 (Central Daylight Time),718312.5999999046,A,tra,O,a,580,1,2866.399999856949,715446.2000000477,7768,WL,A,9.0
5,24.80999994277954,learn,60000.0,Thu Mar 12 2026 14:39:46 GMT-0500 (Central Daylight Time),718562.4000000954,A,trai,O,i,221,1,3116.2000000476837,715446.2000000477,7768,WL,A,9.0
5,25.108999967575073,learn,60000.0,Thu Mar 12 2026 14:39:46 GMT-0500 (Central Daylight Time),718862.2000000477,A,train,O,n,266,1,3416.0,715446.2000000477,7768,WL,A,9.0
5,25.55900001525879,learn,60000.0,Thu Mar 12 2026 14:39:46 GMT-0500 (Central Daylight Time),719311.2999999523,A,trainenter,O,enter,427,1,3865.0999999046326,715446.2000000477,7768,WL,A,9.0
5,26.625999927520752,learn,60000.0,Thu Mar 12 2026 14:39:46 GMT-0500 (Central Daylight Time),720378.7000000477,A,r,O,r,1048,1,1067.0,719311.7000000477,7768,WL,A,10.0
5,26.924999952316284,learn,60000.0,Thu Mar 12 2026 14:39:46 GMT-0500 (Central Daylight Time),720678.2000000477,A,ru,O,u,275,1,1366.5,719311.7000000477,7768,WL,A,10.0
5,27.223999977111816,learn,60000.0,Thu Mar 12 2026 14:39:46 GMT-0500 (Central Daylight Time),720977.2999999523,A,rug,O,g,268,1,1665.5999999046326,719311.7000000477,7768,WL,A,10.0
5,27.674000024795532,learn,60000.0,Thu Mar 12 2026 14:39:46 GMT-0500 (Central Daylight Time),721427.2999999523,A,rugenter,O,enter,427,1,2115.5999999046326,719311.7000000477,7768,WL,A,10.0
5,28.491999864578247,learn,60000.0,Thu Mar 12 2026 14:39:46 GMT-0500 (Central Daylight Time),722244.5,A,m,O,m,804,1,817.0,721427.5,7768,WL,A,11.0
5,28.774999856948853,learn,60000.0,Thu Mar 12 2026 14:39:46 GMT-0500 (Central Daylight Time),722527.5999999046,A,me,O,e,258,1,1100.0999999046326,721427.5,7768,WL,A,11.0
5,29.057999849319458,learn,60000.0,Thu Mar 12 2026 14:39:46 GMT-0500 (Central Daylight Time),722810.5,A,mea,O,a,263,1,1383.0,721427.5,7768,WL,A,11.0
5,29.325000047683716,learn,60000.0,Thu Mar 12 2026 14:39:46 GMT-0500 (Central Daylight Time),723077.5,A,mead,O,d,246,1,1650.0,721427.5,7768,WL,A,11.0
5,29.674999952316284,learn,60000.0,Thu Mar 12 2026 14:39:46 GMT-0500 (Central Daylight Time),723427.9000000954,A,meado,O,o,311,1,2000.4000000953674,721427.5,7768,WL,A,11.0
5,29.840999841690063,learn,60000.0,Thu Mar 12 2026 14:39:46 GMT-0500 (Central Daylight Time),723594.0999999046,A,meadow,O,w,130,1,2166.5999999046326,721427.5,7768,WL,A,11.0
5,30.424000024795532,learn,60000.0,Thu Mar 12 2026 14:39:46 GMT-0500 (Central Daylight Time),724176.5,A,meadowenter,O,enter,556,1,2749.0,721427.5,7768,WL,A,11.0
5,32.07299995422363,learn,60000.0,Thu Mar 12 2026 14:39:46 GMT-0500 (Central Daylight Time),725825.7999999523,A,b,O,b,1628,1,1649.0999999046326,724176.7000000477,7768,WL,A,12.0
5,32.54099988937378,learn,60000.0,Thu Mar 12 2026 14:39:46 GMT-0500 (Central Daylight Time),726294.0,A,bo,O,o,458,1,2117.2999999523163,724176.7000000477,7768,WL,A,12.0
5,32.723000049591064,learn,60000.0,Thu Mar 12 2026 14:39:46 GMT-0500 (Central Daylight Time),726476.0999999046,A,boo,O,o,152,1,2299.399999856949,724176.7000000477,7768,WL,A,12.0
5,32.973000049591064,learn,60000.0,Thu Mar 12 2026 14:39:46 GMT-0500 (Central Daylight Time),726726.2000000477,A,book,O,k,233,1,2549.5,724176.7000000477,7768,WL,A,12.0
5,33.723000049591064,learn,60000.0,Thu Mar 12 2026 14:39:46 GMT-0500 (Central Daylight Time),727475.4000000954,A,bookenter,O,enter,725,1,3298.7000000476837,724176.7000000477,7768,WL,A,12.0
5,34.57299995422363,learn,60000.0,Thu Mar 12 2026 14:39:46 GMT-0500 (Central Daylight Time),728326.2999999523,A,f,O,f,836,1,850.7000000476837,727475.5999999046,7768,WL,A,13.0
5,34.75600004196167,learn,60000.0,Thu Mar 12 2026 14:39:46 GMT-0500 (Central Daylight Time),728508.9000000954,A,fl,O,l,149,1,1033.3000001907349,727475.5999999046,7768,WL,A,13.0
5,34.95599985122681,learn,60000.0,Thu Mar 12 2026 14:39:46 GMT-0500 (Central Daylight Time),728709.2000000477,A,flo,O,o,168,1,1233.6000001430511,727475.5999999046,7768,WL,A,13.0
5,35.223000049591064,learn,60000.0,Thu Mar 12 2026 14:39:46 GMT-0500 (Central Daylight Time),728975.7999999523,A,flow,O,w,233,1,1500.2000000476837,727475.5999999046,7768,WL,A,13.0
5,35.4229998588562,learn,60000.0,Thu Mar 12 2026 14:39:46 GMT-0500 (Central Daylight Time),729175.5999999046,A,flowe,O,e,174,1,1700.0,727475.5999999046,7768,WL,A,13.0
5,35.638999938964844,learn,60000.0,Thu Mar 12 2026 14:39:46 GMT-0500 (Central Daylight Time),729391.5999999046,A,flower,O,r,182,1,1916.0,727475.5999999046,7768,WL,A,13.0
5,36.25499987602234,learn,60000.0,Thu Mar 12 2026 14:39:46 GMT-0500 (Central Daylight Time),730007.7999999523,A,flowerenter,O,enter,592,1,2532.2000000476837,727475.5999999046,7768,WL,A,13.0
5,50.73399996757507,learn,60000.0,Thu Mar 12 2026 14:39:46 GMT-0500 (Central Daylight Time),744487.2999999523,A,a,O,a,14463,1,14479.099999904633,730008.2000000477,7768,WL,A,14.0
5,51.08399987220764,learn,60000.0,Thu Mar 12 2026 14:39:46 GMT-0500 (Central Daylight Time),744837.2000000477,A,ap,O,p,325,1,14829.0,730008.2000000477,7768,WL,A,14.0
5,51.25099992752075,learn,60000.0,Thu Mar 12 2026 14:39:46 GMT-0500 (Central Daylight Time),745003.9000000954,A,app,O,p,140,1,14995.700000047684,730008.2000000477,7768,WL,A,14.0
5,51.45099997520447,learn,60000.0,Thu Mar 12 2026 14:39:46 GMT-0500 (Central Daylight Time),745203.7999999523,A,appl,O,l,170,1,15195.599999904633,730008.2000000477,7768,WL,A,14.0
5,51.58399987220764,learn,60000.0,Thu Mar 12 2026 14:39:46 GMT-0500 (Central Daylight Time),745336.7000000477,A,apple,O,e,106,1,15328.5,730008.2000000477,7768,WL,A,14.0
5,52.14999985694885,learn,60000.0,Thu Mar 12 2026 14:39:46 GMT-0500 (Central Daylight Time),745902.7000000477,A,appleenter,O,enter,525,1,15894.5,730008.2000000477,7768,WL,A,14.0
5,60.23099994659424,learn,60000.0,Thu Mar 12 2026 14:39:46 GMT-0500 (Central Daylight Time),753984.2999999523,A,l,O,l,8073,1,8081.299999952316,745903.0,7768,WL,A,15.0
6,1.9670000076293945,distr,58032.999992370605,Thu Mar 12 2026 14:39:46 GMT-0500 (Central Daylight Time),840689.2000000477,B,j,O,j,1954,1,1966.7000000476837,838722.5,7768,WL,A,1.0
6,2.182000160217285,distr,57817.999839782715,Thu Mar 12 2026 14:39:46 GMT-0500 (Central Daylight Time),840904.7000000477,B,ju,O,u,181,1,2182.2000000476837,838722.5,7768,WL,A,1.0
6,2.567000150680542,distr,57432.99984931946,Thu Mar 12 2026 14:39:46 GMT-0500 (Central Daylight Time),841289.2000000477,B,jud,O,d,373,1,2566.7000000476837,838722.5,7768,WL,A,1.0
6,2.817000150680542,distr,57182.99984931946,Thu Mar 12 2026 14:39:46 GMT-0500 (Central Daylight Time),841538.9000000954,B,judg,O,g,216,1,2816.4000000953674,838722.5,7768,WL,A,1.0
6,3.049999952316284,distr,56950.000047683716,Thu Mar 12 2026 14:39:46 GMT-0500 (Central Daylight Time),841772.0,B,judge,O,e,202,1,3049.5,838722.5,7768,WL,A,1.0
6,3.682000160217285,distr,56317.999839782715,Thu Mar 12 2026 14:39:46 GMT-0500 (Central Daylight Time),842404.2000000477,B,judgeenter,O,enter,600,1,3681.7000000476837,838722.5,7768,WL,A,1.0
6,4.332000017166138,distr,55667.99998283386,Thu Mar 12 2026 14:39:46 GMT-0500 (Central Daylight Time),843054.7000000477,B,d,O,d,634,1,650.2000000476837,842404.5,7768,WL,A,2.0
6,4.716000080108643,distr,55283.99991989136,Thu Mar 12 2026 14:39:46 GMT-0500 (Central Daylight Time),843437.7999999523,B,da,O,a,356,1,1033.2999999523163,842404.5,7768,WL,A,2.0
6,4.999000072479248,distr,55000.99992752075,Thu Mar 12 2026 14:39:46 GMT-0500 (Central Daylight Time),843721.4000000954,B,daw,O,w,245,1,1316.9000000953674,842404.5,7768,WL,A,2.0
6,5.631999969482422,distr,54368.00003051758,Thu Mar 12 2026 14:39:46 GMT-0500 (Central Daylight Time),844354.4000000954,B,dawn,O,n,604,1,1949.9000000953674,842404.5,7768,WL,A,2.0
6,6.248000144958496,distr,53751.999855041504,Thu Mar 12 2026 14:39:46 GMT-0500 (Central Daylight Time),844970.0999999046,B,dawnenter,O,enter,578,1,2565.5999999046326,842404.5,7768,WL,A,2.0
6,7.082000017166138,distr,52917.99998283386,Thu Mar 12 2026 14:39:46 GMT-0500 (Central Daylight Time),845804.2999999523,B,b,O,b,812,1,834.0,844970.2999999523,7768,WL,A,3.0
6,7.332000017166138,distr,52667.99998283386,Thu Mar 12 2026 14:39:46 GMT-0500 (Central Daylight Time),846053.7999999523,B,bo,O,o,224,1,1083.5,844970.2999999523,7768,WL,A,3.0
6,7.732000112533569,distr,52267.99988746643,Thu Mar 12 2026 14:39:46 GMT-0500 (Central Daylight Time),846453.7999999523,B,bow,O,w,377,1,1483.5,844970.2999999523,7768,WL,A,3.0
6,7.898000001907349,distr,52101.99999809265,Thu Mar 12 2026 14:39:46 GMT-0500 (Central Daylight Time),846620.2000000477,B,bowl,O,l,126,1,1649.9000000953674,844970.2999999523,7768,WL,A,3.0
6,8.664000034332275,distr,51335.999965667725,Thu Mar 12 2026 14:39:46 GMT-0500 (Central Daylight Time),847385.9000000954,B,bowlenter,O,enter,736,1,2415.600000143051,844970.2999999523,7768,WL,A,3.0
6,9.764000177383423,distr,50235.99982261658,Thu Mar 12 2026 14:39:46 GMT-0500 (Central Daylight Time),848486.2000000477,B,s,O,s,1094,1,1100.1000001430511,847386.0999999046,7768,WL,A,4.0
6,10.014000177383423,distr,49985.99982261658,Thu Mar 12 2026 14:39:46 GMT-0500 (Central Daylight Time),848736.5,B,sh,O,h,218,1,1350.4000000953674,847386.0999999046,7768,WL,A,4.0
6,10.27999997138977,distr,49720.00002861023,Thu Mar 12 2026 14:39:46 GMT-0500 (Central Daylight Time),849002.0999999046,B,she,O,e,232,1,1616.0,847386.0999999046,7768,WL,A,4.0
6,10.430000066757202,distr,49569.9999332428,Thu Mar 12 2026 14:39:46 GMT-0500 (Central Daylight Time),849152.0,B,shee,O,e,137,1,1765.9000000953674,847386.0999999046,7768,WL,A,4.0
6,10.814000129699707,distr,49185.99987030029,Thu Mar 12 2026 14:39:46 GMT-0500 (Central Daylight Time),849536.4000000954,B,sheep,O,p,364,1,2150.300000190735,847386.0999999046,7768,WL,A,4.0
6,11.312999963760376,distr,48687.000036239624,Thu Mar 12 2026 14:39:46 GMT-0500 (Central Daylight Time),850035.0,B,sheepenter,O,enter,459,1,2648.9000000953674,847386.0999999046,7768,WL,A,4.0
6,11.664000034332275,distr,48335.999965667725,Thu Mar 12 2026 14:39:46 GMT-0500 (Central Daylight Time),850385.9000000954,B,s,O,s,341,1,350.60000014305115,850035.2999999523,7768,WL,A,5.0
6,11.94700002670288,distr,48052.99997329712,Thu Mar 12 2026 14:39:46 GMT-0500 (Central Daylight Time),850669.0999999046,B,se,O,e,259,1,633.7999999523163,850035.2999999523,7768,WL,A,5.0
6,12.11300015449524,distr,47886.99984550476,Thu Mar 12 2026 14:39:46 GMT-0500 (Central Daylight Time),850835.7000000477,B,see,O,e,127,1,800.4000000953674,850035.2999999523,7768,WL,A,5.0
6,12.312999963760376,distr,47687.000036239624,Thu Mar 12 2026 14:39:46 GMT-0500 (Central Daylight Time),851035.5,B,seed,O,d,161,1,1000.2000000476837,850035.2999999523,7768,WL,A,5.0
6,12.979000091552734,distr,47020.999908447266,Thu Mar 12 2026 14:39:46 GMT-0500 (Central Daylight Time),851701.2000000477,B,seedenter,O,enter,635,1,1665.9000000953674,850035.2999999523,7768,WL,A,5.0
6,13.562999963760376,distr,46437.000036239624,Thu Mar 12 2026 14:39:46 GMT-0500 (Central Daylight Time),852285.2999999523,B,c,O,c,570,1,583.8999998569489,851701.4000000954,7768,WL,A,6.0
6,13.796000003814697,distr,46203.9999961853,Thu Mar 12 2026 14:39:46 GMT-0500 (Central Daylight Time),852518.5,B,ch,O,h,200,1,817.0999999046326,851701.4000000954,7768,WL,A,6.0
6,13.946000099182129,distr,46053.99990081787,Thu Mar 12 2026 14:39:46 GMT-0500 (Central Daylight Time),852668.7000000477,B,cha,O,a,117,1,967.2999999523163,851701.4000000954,7768,WL,A,6.0
6,14.17900013923645,distr,45820.99986076355,Thu Mar 12 2026 14:39:46 GMT-0500 (Central Daylight Time),852901.7000000477,B,chai,O,i,208,1,1200.2999999523163,851701.4000000954,7768,WL,A,6.0
6,14.378999948501587,distr,45621.00005149841,Thu Mar 12 2026 14:39:46 GMT-0500 (Central Daylight Time),853100.9000000954,B,chair,O,r,167,1,1399.5,851701.4000000954,7768,WL,A,6.0
6,14.92799997329712,distr,45072.00002670288,Thu Mar 12 2026 14:39:46 GMT-0500 (Central Daylight Time),853650.2999999523,B,chairenter,O,enter,533,1,1948.8999998569489,851701.4000000954,7768,WL,A,6.0
6,17.044000148773193,distr,42955.99985122681,Thu Mar 12 2026 14:39:46 GMT-0500 (Central Daylight Time),855766.4000000954,B,i,O,i,2108,1,2115.800000190735,853650.5999999046,7768,WL,A,7.0
6,17.312000036239624,distr,42687.999963760376,Thu Mar 12 2026 14:39:46 GMT-0500 (Central Daylight Time),856034.0,B,in,O,n,253,1,2383.4000000953674,853650.5999999046,7768,WL,A,7.0
6,17.74399995803833,distr,42256.00004196167,Thu Mar 12 2026 14:39:46 GMT-0500 (Central Daylight Time),856466.4000000954,B,ins,O,s,395,1,2815.800000190735,853650.5999999046,7768,WL,A,7.0
6,18.026999950408936,distr,41973.000049591064,Thu Mar 12 2026 14:39:46 GMT-0500 (Central Daylight Time),856749.5,B,inse,O,e,261,1,3098.9000000953674,853650.5999999046,7768,WL,A,7.0
6,18.49500012397766,distr,41504.99987602234,Thu Mar 12 2026 14:39:46 GMT-0500 (Central Daylight Time),857217.0,B,insec,O,c,449,1,3566.4000000953674,853650.5999999046,7768,WL,A,7.0
6,18.74399995803833,distr,41256.00004196167,Thu Mar 12 2026 14:39:46 GMT-0500 (Central Daylight Time),857466.0999999046,B,insect,O,t,213,1,3815.5,853650.5999999046,7768,WL,A,7.0
6,19.360000133514404,distr,40639.999866485596,Thu Mar 12 2026 14:39:46 GMT-0500 (Central Daylight Time),858082.5,B,insectenter,O,enter,595,1,4431.900000095367,853650.5999999046,7768,WL,A,7.0
6,41.18600010871887,distr,18813.999891281128,Thu Mar 12 2026 14:39:46 GMT-0500 (Central Daylight Time),879908.4000000954,B,enter,O,enter,21819,1,21825.700000047684,858082.7000000477,7768,WL,A,8.0
6,41.57000017166138,distr,18429.999828338623,Thu Mar 12 2026 14:39:46 GMT-0500 (Central Daylight Time),880291.7000000477,B,enter,O,enter,359,1,382.7999999523163,879908.9000000954,7768,WL,A,9.0
6,41.90300011634827,distr,18096.999883651733,Thu Mar 12 2026 14:39:46 GMT-0500 (Central Daylight Time),880625.0,B,enter,O,enter,314,1,333.0,880292.0,7768,WL,A,10.0
6,42.18600010871887,distr,17813.999891281128,Thu Mar 12 2026 14:39:46 GMT-0500 (Central Daylight Time),880908.2999999523,B,enter,O,enter,268,1,282.89999985694885,880625.4000000954,7768,WL,A,11.0
6,42.50200009346008,distr,17497.999906539917,Thu Mar 12 2026 14:39:46 GMT-0500 (Central Daylight Time),881224.5999999046,B,enter,O,enter,305,1,316.0,880908.5999999046,7768,WL,A,12.0
6,42.75200009346008,distr,17247.999906539917,Thu Mar 12 2026 14:39:46 GMT-0500 (Central Daylight Time),881474.7000000477,B,enter,O,enter,229,1,249.79999995231628,881224.9000000954,7768,WL,A,13.0
6,42.93600010871887,distr,17063.999891281128,Thu Mar 12 2026 14:39:46 GMT-0500 (Central Daylight Time),881658.0,B,enter,O,enter,161,1,183.09999990463257,881474.9000000954,7768,WL,A,14.0
6,43.10199999809265,distr,16898.00000190735,Thu Mar 12 2026 14:39:46 GMT-0500 (Central Daylight Time),881824.5999999046,B,enter,O,enter,155,1,166.29999995231628,881658.2999999523,7768,WL,A,15.0
7,1.5,immed,58500.0,Thu Mar 12 2026 14:39:46 GMT-0500 (Central Daylight Time),893771.5999999046,A,r,O,r,1477,1,1500.1999998092651,892271.4000000954,7768,WL,A,1.0
7,1.6500000953674316,immed,58349.99990463257,Thu Mar 12 2026 14:39:46 GMT-0500 (Central Daylight Time),893920.9000000954,A,ru,O,u,121,1,1649.5,892271.4000000954,7768,WL,A,1.0
7,1.9170000553131104,immed,58082.99994468689,Thu Mar 12 2026 14:39:46 GMT-0500 (Central Daylight Time),894188.0,A,rug,O,g,249,1,1916.5999999046326,892271.4000000954,7768,WL,A,1.0
7,2.565999984741211,immed,57434.00001525879,Thu Mar 12 2026 14:39:46 GMT-0500 (Central Daylight Time),894837.0,A,rugenter,O,enter,616,1,2565.5999999046326,892271.4000000954,7768,WL,A,1.0
7,3.1000001430511475,immed,56899.99985694885,Thu Mar 12 2026 14:39:46 GMT-0500 (Central Daylight Time),895371.0,A,b,O,b,522,1,533.5999999046326,894837.4000000954,7768,WL,A,2.0
7,3.5829999446868896,immed,56417.00005531311,Thu Mar 12 2026 14:39:46 GMT-0500 (Central Daylight Time),895854.0,A,bo,O,o,458,1,1016.5999999046326,894837.4000000954,7768,WL,A,2.0
7,3.75,immed,56250.0,Thu Mar 12 2026 14:39:46 GMT-0500 (Central Daylight Time),896020.9000000954,A,boo,O,o,138,1,1183.5,894837.4000000954,7768,WL,A,2.0
7,3.9670000076293945,immed,56032.999992370605,Thu Mar 12 2026 14:39:46 GMT-0500 (Central Daylight Time),896237.7999999523,A,book,O,k,193,1,1400.3999998569489,894837.4000000954,7768,WL,A,2.0
7,4.348999977111816,immed,55651.00002288818,Thu Mar 12 2026 14:39:46 GMT-0500 (Central Daylight Time),896619.7999999523,A,bookenter,O,enter,341,1,1782.3999998569489,894837.4000000954,7768,WL,A,2.0
7,4.765000104904175,immed,55234.999895095825,Thu Mar 12 2026 14:39:46 GMT-0500 (Central Daylight Time),897036.5,A,t,O,t,401,1,416.5,896620.0,7768,WL,A,3.0
7,4.949000120162964,immed,55050.999879837036,Thu Mar 12 2026 14:39:46 GMT-0500 (Central Daylight Time),897220.2999999523,A,tr,O,r,168,1,600.2999999523163,896620.0,7768,WL,A,3.0
7,5.315999984741211,immed,54684.00001525879,Thu Mar 12 2026 14:39:46 GMT-0500 (Central Daylight Time),897586.0,A,tra,O,a,335,1,966.0,896620.0,7768,WL,A,3.0
7,5.584000110626221,immed,54415.99988937378,Thu Mar 12 2026 14:39:46 GMT-0500 (Central Daylight Time),897853.9000000954,A,trai,O,i,257,1,1233.9000000953674,896620.0,7768,WL,A,3.0
7,5.865999937057495,immed,54134.000062942505,Thu Mar 12 2026 14:39:46 GMT-0500 (Central Daylight Time),898135.7999999523,A,train,O,n,246,1,1515.7999999523163,896620.0,7768,WL,A,3.0
7,6.2829999923706055,immed,53717.000007629395,Thu Mar 12 2026 14:39:46 GMT-0500 (Central Daylight Time),898552.5,A,trainenter,O,enter,397,1,1932.5,896620.0,7768,WL,A,3.0
7,6.949000120162964,immed,53050.999879837036,Thu Mar 12 2026 14:39:46 GMT-0500 (Central Daylight Time),899218.9000000954,A,m,O,m,645,1,666.1000001430511,898552.7999999523,7768,WL,A,4.0
7,7.200000047683716,immed,52799.999952316284,Thu Mar 12 2026 14:39:46 GMT-0500 (Central Daylight Time),899469.7999999523,A,me,O,e,241,1,917.0,898552.7999999523,7768,WL,A,4.0
7,7.449000120162964,immed,52550.999879837036,Thu Mar 12 2026 14:39:46 GMT-0500 (Central Daylight Time),899718.7000000477,A,mea,O,a,223,1,1165.9000000953674,898552.7999999523,7768,WL,A,4.0
7,7.832000017166138,immed,52167.99998283386,Thu Mar 12 2026 14:39:46 GMT-0500 (Central Daylight Time),900102.5,A,mead,O,d,373,1,1549.7000000476837,898552.7999999523,7768,WL,A,4.0
7,8.166000127792358,immed,51833.99987220764,Thu Mar 12 2026 14:39:46 GMT-0500 (Central Daylight Time),900436.4000000954,A,meado,O,o,294,1,1883.6000001430511,898552.7999999523,7768,WL,A,4.0
7,8.332000017166138,immed,51667.99998283386,Thu Mar 12 2026 14:39:46 GMT-0500 (Central Daylight Time),900601.7999999523,A,meadow,O,w,142,1,2049.0,898552.7999999523,7768,WL,A,4.0
7,8.998000144958496,immed,51001.999855041504,Thu Mar 12 2026 14:39:46 GMT-0500 (Central Daylight Time),901268.2000000477,A,meadowenter,O,enter,659,1,2715.4000000953674,898552.7999999523,7768,WL,A,4.0
7,9.598000049591064,immed,50401.999950408936,Thu Mar 12 2026 14:39:46 GMT-0500 (Central Daylight Time),901868.0,A,c,O,c,593,1,599.5999999046326,901268.4000000954,7768,WL,A,5.0
7,9.815999984741211,immed,50184.00001525879,Thu Mar 12 2026 14:39:46 GMT-0500 (Central Daylight Time),902085.5999999046,A,ch,O,h,199,1,817.1999998092651,901268.4000000954,7768,WL,A,5.0
7,10.164000034332275,immed,49835.999965667725,Thu Mar 12 2026 14:39:46 GMT-0500 (Central Daylight Time),902434.5,A,chi,O,i,318,1,1166.0999999046326,901268.4000000954,7768,WL,A,5.0
7,10.532000064849854,immed,49467.99993515015,Thu Mar 12 2026 14:39:46 GMT-0500 (Central Daylight Time),902801.7000000477,A,chim,O,m,352,1,1533.2999999523163,901268.4000000954,7768,WL,A,5.0
7,11.832000017166138,immed,48167.99998283386,Thu Mar 12 2026 14:39:46 GMT-0500 (Central Daylight Time),904101.9000000954,A,chimn,O,n,1276,1,2833.5,901268.4000000954,7768,WL,A,5.0
7,12.29699993133545,immed,47703.00006866455,Thu Mar 12 2026 14:39:46 GMT-0500 (Central Daylight Time),904567.2999999523,A,chimne,O,e,439,1,3298.899999856949,901268.4000000954,7768,WL,A,5.0
7,12.480999946594238,immed,47519.00005340576,Thu Mar 12 2026 14:39:46 GMT-0500 (Central Daylight Time),904751.2999999523,A,chimney,O,y,164,1,3482.899999856949,901268.4000000954,7768,WL,A,5.0
7,13.79699993133545,immed,46203.00006866455,Thu Mar 12 2026 14:39:46 GMT-0500 (Central Daylight Time),906066.7000000477,A,chimneyenter,O,enter,1283,1,4798.299999952316,901268.4000000954,7768,WL,A,5.0
7,14.281000137329102,immed,45718.9998626709,Thu Mar 12 2026 14:39:46 GMT-0500 (Central Daylight Time),906550.9000000954,A,f,O,f,469,1,484.0,906066.9000000954,7768,WL,A,6.0
7,14.480999946594238,immed,45519.00005340576,Thu Mar 12 2026 14:39:46 GMT-0500 (Central Daylight Time),906750.7999999523,A,fi,O,i,173,1,683.8999998569489,906066.9000000954,7768,WL,A,6.0
7,14.746999979019165,immed,45253.000020980835,Thu Mar 12 2026 14:39:46 GMT-0500 (Central Daylight Time),907017.2999999523,A,fin,O,n,239,1,950.3999998569489,906066.9000000954,7768,WL,A,6.0
7,15.013999938964844,immed,44986.000061035156,Thu Mar 12 2026 14:39:46 GMT-0500 (Central Daylight Time),907283.7999999523,A,fing,O,g,229,1,1216.8999998569489,906066.9000000954,7768,WL,A,6.0
7,15.246999979019165,immed,44753.000020980835,Thu Mar 12 2026 14:39:46 GMT-0500 (Central Daylight Time),907517.0999999046,A,finge,O,e,195,1,1450.1999998092651,906066.9000000954,7768,WL,A,6.0
7,15.397000074386597,immed,44602.9999256134,Thu Mar 12 2026 14:39:46 GMT-0500 (Central Daylight Time),907667.0,A,finger,O,r,112,1,1600.0999999046326,906066.9000000954,7768,WL,A,6.0
7,15.963000059127808,immed,44036.99994087219,Thu Mar 12 2026 14:39:46 GMT-0500 (Central Daylight Time),908232.5999999046,A,fingerenter,O,enter,527,1,2165.699999809265,906066.9000000954,7768,WL,A,6.0
7,16.430000066757202,immed,43569.9999332428,Thu Mar 12 2026 14:39:46 GMT-0500 (Central Daylight Time),908700.2000000477,A,a,O,a,445,1,467.40000009536743,908232.7999999523,7768,WL,A,7.0
7,16.847000122070312,immed,43152.99987792969,Thu Mar 12 2026 14:39:46 GMT-0500 (Central Daylight Time),909117.0999999046,A,ap,O,p,393,1,884.2999999523163,908232.7999999523,7768,WL,A,7.0
7,17.013000011444092,immed,42986.99998855591,Thu Mar 12 2026 14:39:46 GMT-0500 (Central Daylight Time),909283.0,A,app,O,p,138,1,1050.2000000476837,908232.7999999523,7768,WL,A,7.0
7,17.230000019073486,immed,42769.999980926514,Thu Mar 12 2026 14:39:46 GMT-0500 (Central Daylight Time),909499.7999999523,A,appl,O,l,174,1,1267.0,908232.7999999523,7768,WL,A,7.0
7,17.36300015449524,immed,42636.99984550476,Thu Mar 12 2026 14:39:46 GMT-0500 (Central Daylight Time),909633.0999999046,A,apple,O,e,98,1,1400.2999999523163,908232.7999999523,7768,WL,A,7.0
7,17.644999980926514,immed,42355.000019073486,Thu Mar 12 2026 14:39:46 GMT-0500 (Central Daylight Time),909915.5,A,appleenter,O,enter,259,1,1682.7000000476837,908232.7999999523,7768,WL,A,7.0
7,18.144999980926514,immed,41855.000019073486,Thu Mar 12 2026 14:39:46 GMT-0500 (Central Daylight Time),910415.2999999523,A,s,O,s,482,1,499.7000000476837,909915.5999999046,7768,WL,A,8.0
7,18.34599995613098,immed,41654.00004386902,Thu Mar 12 2026 14:39:46 GMT-0500 (Central Daylight Time),910616.4000000954,A,sa,O,a,182,1,700.8000001907349,909915.5999999046,7768,WL,A,8.0
7,18.59500002861023,immed,41404.99997138977,Thu Mar 12 2026 14:39:46 GMT-0500 (Central Daylight Time),910865.4000000954,A,sal,O,l,222,1,949.8000001907349,909915.5999999046,7768,WL,A,8.0
7,19.628999948501587,immed,40371.00005149841,Thu Mar 12 2026 14:39:46 GMT-0500 (Central Daylight Time),911899.0,A,sa,O,backspace,1015,1,1983.4000000953674,909915.5999999046,7768,WL,A,8.0
7,20.82800006866455,immed,39171.99993133545,Thu Mar 12 2026 14:39:46 GMT-0500 (Central Daylight Time),913098.2999999523,A,sal,O,l,1171,1,3182.7000000476837,909915.5999999046,7768,WL,A,8.0
7,21.144999980926514,immed,38855.000019073486,Thu Mar 12 2026 14:39:46 GMT-0500 (Central Daylight Time),913414.7999999523,A,salt,O,t,296,1,3499.2000000476837,909915.5999999046,7768,WL,A,8.0
7,22.094000101089478,immed,37905.99989891052,Thu Mar 12 2026 14:39:46 GMT-0500 (Central Daylight Time),914363.9000000954,A,saltenter,O,enter,917,1,4448.300000190735,909915.5999999046,7768,WL,A,8.0
7,22.694000005722046,immed,37305.999994277954,Thu Mar 12 2026 14:39:46 GMT-0500 (Central Daylight Time),914963.7999999523,A,l,O,l,585,1,599.5999999046326,914364.2000000477,7768,WL,A,9.0
7,22.91000008583069,immed,37089.99991416931,Thu Mar 12 2026 14:39:46 GMT-0500 (Central Daylight Time),915180.2999999523,A,lo,O,o,204,1,816.0999999046326,914364.2000000477,7768,WL,A,9.0
7,23.16000008583069,immed,36839.99991416931,Thu Mar 12 2026 14:39:46 GMT-0500 (Central Daylight Time),915430.4000000954,A,log,O,g,240,1,1066.2000000476837,914364.2000000477,7768,WL,A,9.0
7,23.55999994277954,immed,36440.00005722046,Thu Mar 12 2026 14:39:46 GMT-0500 (Central Daylight Time),915830.0999999046,A,logenter,O,enter,370,1,1465.8999998569489,914364.2000000477,7768,WL,A,9.0
7,24.05999994277954,immed,35940.00005722046,Thu Mar 12 2026 14:39:46 GMT-0500 (Central Daylight Time),916329.9000000954,A,g,O,g,487,1,499.5,915830.4000000954,7768,WL,A,10.0
7,24.292999982833862,immed,35707.00001716614,Thu Mar 12 2026 14:39:46 GMT-0500 (Central Daylight Time),916563.4000000954,A,go,O,o,218,1,733.0,915830.4000000954,7768,WL,A,10.0
7,24.526000022888184,immed,35473.99997711182,Thu Mar 12 2026 14:39:46 GMT-0500 (Central Daylight Time),916796.4000000954,A,gol,O,l,214,1,966.0,915830.4000000954,7768,WL,A,10.0
7,24.743000030517578,immed,35256.99996948242,Thu Mar 12 2026 14:39:46 GMT-0500 (Central Daylight Time),917013.0,A,gold,O,d,200,1,1182.5999999046326,915830.4000000954,7768,WL,A,10.0
7,25.009999990463257,immed,34990.00000953674,Thu Mar 12 2026 14:39:46 GMT-0500 (Central Daylight Time),917279.5999999046,A,goldenter,O,enter,255,1,1449.1999998092651,915830.4000000954,7768,WL,A,10.0
7,26.242000102996826,immed,33757.999897003174,Thu Mar 12 2026 14:39:46 GMT-0500 (Central Daylight Time),918512.4000000954,A,k,O,k,1213,1,1232.6000001430511,917279.7999999523,7768,WL,A,11.0
7,26.427000045776367,immed,33572.99995422363,Thu Mar 12 2026 14:39:46 GMT-0500 (Central Daylight Time),918696.7999999523,A,ke,O,e,166,1,1417.0,917279.7999999523,7768,WL,A,11.0
7,26.64300012588501,immed,33356.99987411499,Thu Mar 12 2026 14:39:46 GMT-0500 (Central Daylight Time),918912.7000000477,A,key,O,y,189,1,1632.9000000953674,917279.7999999523,7768,WL,A,11.0
7,27.125,immed,32875.0,Thu Mar 12 2026 14:39:46 GMT-0500 (Central Daylight Time),919395.4000000954,A,keyenter,O,enter,457,1,2115.600000143051,917279.7999999523,7768,WL,A,11.0
7,29.926000118255615,immed,30073.999881744385,Thu Mar 12 2026 14:39:46 GMT-0500 (Central Daylight Time),922195.7000000477,A,r,O,r,2787,1,2800.0,919395.7000000477,7768,WL,A,12.0
7,30.325000047683716,immed,29674.999952316284,Thu Mar 12 2026 14:39:46 GMT-0500 (Central Daylight Time),922595.5,A,ra,O,a,371,1,3199.7999999523163,919395.7000000477,7768,WL,A,12.0
7,30.692000150680542,immed,29307.999849319458,Thu Mar 12 2026 14:39:46 GMT-0500 (Central Daylight Time),922962.0999999046,A,rat,O,t,330,1,3566.399999856949,919395.7000000477,7768,WL,A,12.0
7,30.858999967575073,immed,29141.000032424927,Thu Mar 12 2026 14:39:46 GMT-0500 (Central Daylight Time),923128.7000000477,A,ratt,O,t,129,1,3733.0,919395.7000000477,7768,WL,A,12.0
7,31.27500009536743,immed,28724.99990463257,Thu Mar 12 2026 14:39:46 GMT-0500 (Central Daylight Time),923545.0999999046,A,rattl,O,l,380,1,4149.399999856949,919395.7000000477,7768,WL,A,12.0
7,31.407999992370605,immed,28592.000007629395,Thu Mar 12 2026 14:39:46 GMT-0500 (Central Daylight Time),923678.0999999046,A,rattle,O,e,110,1,4282.399999856949,919395.7000000477,7768,WL,A,12.0
7,32.34100008010864,immed,27658.999919891357,Thu Mar 12 2026 14:39:46 GMT-0500 (Central Daylight Time),924610.5999999046,A,rattleenter,O,enter,900,1,5214.899999856949,919395.7000000477,7768,WL,A,12.0
7,38.02300000190735,immed,21976.99999809265,Thu Mar 12 2026 14:39:46 GMT-0500 (Central Daylight Time),930293.0,A,h,O,h,5661,1,5682.200000047684,924610.7999999523,7768,WL,A,13.0
7,38.1560001373291,immed,21843.9998626709,Thu Mar 12 2026 14:39:46 GMT-0500 (Central Daylight Time),930426.4000000954,A,ha,O,a,106,1,5815.600000143051,924610.7999999523,7768,WL,A,13.0
7,38.43900012969971,immed,21560.999870300293,Thu Mar 12 2026 14:39:46 GMT-0500 (Central Daylight Time),930708.7000000477,A,har,O,r,254,1,6097.900000095367,924610.7999999523,7768,WL,A,13.0
7,38.937999963760376,immed,21062.000036239624,Thu Mar 12 2026 14:39:46 GMT-0500 (Central Daylight Time),931208.2999999523,A,harp,O,p,475,1,6597.5,924610.7999999523,7768,WL,A,13.0
7,39.73800015449524,immed,20261.99984550476,Thu Mar 12 2026 14:39:46 GMT-0500 (Central Daylight Time),932008.2000000477,A,harpenter,O,enter,786,1,7397.400000095367,924610.7999999523,7768,WL,A,13.0
7,60.01600003242493,immed,-16.000032424926758,Thu Mar 12 2026 14:39:46 GMT-0500 (Central Daylight Time),952285.9000000954,A,None,O,None,20271,1,20277.5,932008.4000000954,7768,WL,A,14.0
