acc_sum,block,block_c,condition,correct,correct_response,datetime,endtime,flanker,jitter,project,response,response_test_buffer_response,response_test_target_response,response_time,response_time_test_buffer_response,response_time_test_target_response,row_sel,session_number,start_end,starttime,subject_id,target,task,task_vers,time_test_buffer,time_test_buffer_response,time_test_constants,time_test_flanker,time_test_jitter,time_test_logger,time_test_target,time_test_target_response,time_test_variables,trial
1,prac,1,inc,1,m,Fri Jul 18 2025 14:13:23 GMT-0500 (Central Daylight Time),55486.0,elated,900,I,m,,,633,,,6,2,2828.8000000715256,52657.199999928474,8038,napkin,AF,A,,,,,,,,,,1
2,prac,1,con,1,m,Fri Jul 18 2025 14:13:23 GMT-0500 (Central Daylight Time),58385.10000002384,remote,1000,I,m,,,607,,,7,2,2894.0,55491.10000002384,8038,remote,AF,A,,,,,,,,,,2
3,prac,1,inc,1,z,Fri Jul 18 2025 14:13:23 GMT-0500 (Central Daylight Time),61234.699999928474,window,1100,I,z,,,438,,,16,2,2843.6999999284744,58391.0,8038,temper,AF,A,,,,,,,,,,3
4,prac,1,con,1,z,Fri Jul 18 2025 14:13:23 GMT-0500 (Central Daylight Time),63766.0,brutal,800,I,z,,,417,,,13,2,2525.399999976158,61240.60000002384,8038,brutal,AF,A,,,,,,,,,,4
5,prac,1,con,1,z,Fri Jul 18 2025 14:13:23 GMT-0500 (Central Daylight Time),66548.10000002384,rage,1000,I,z,,,477,,,15,2,2777.0,63771.10000002384,8038,rage,AF,A,,,,,,,,,,5
6,prac,1,con,1,z,Fri Jul 18 2025 14:13:23 GMT-0500 (Central Daylight Time),69413.89999997616,love,1000,I,z,,,574,,,11,2,2861.2000000476837,66552.69999992847,8038,love,AF,A,,,,,,,,,,6
7,prac,1,con,1,m,Fri Jul 18 2025 14:13:23 GMT-0500 (Central Daylight Time),72180.5,step,800,I,m,,,663,,,1,2,2760.8000000715256,69419.69999992847,8038,step,AF,A,,,,,,,,,,7
8,prac,1,inc,1,z,Fri Jul 18 2025 14:13:23 GMT-0500 (Central Daylight Time),74929.19999992847,film,900,I,z,,,549,,,14,2,2744.0999999046326,72185.10000002384,8038,hate,AF,A,,,,,,,,,,8
9,prac,1,con,1,m,Fri Jul 18 2025 14:13:23 GMT-0500 (Central Daylight Time),77563.10000002384,jacket,800,I,m,,,522,,,5,2,2628.2000000476837,74934.89999997616,8038,jacket,AF,A,,,,,,,,,,9
10,prac,1,con,1,m,Fri Jul 18 2025 14:13:23 GMT-0500 (Central Daylight Time),80261.89999997616,bell,1000,I,m,,,385,,,3,2,2693.0,77568.89999997616,8038,bell,AF,A,,,,,,,,,,10
11,prac,1,inc,1,m,Fri Jul 18 2025 14:13:23 GMT-0500 (Central Daylight Time),83210.5,hate,1100,I,m,,,538,,,4,2,2944.2000000476837,80266.29999995232,8038,film,AF,A,,,,,,,,,,11
12,prac,1,inc,1,m,Fri Jul 18 2025 14:13:23 GMT-0500 (Central Daylight Time),86125.79999995232,kind,900,I,m,,,709,,,2,2,2909.7999999523163,83216.0,8038,rock,AF,A,,,,,,,,,,12
13,prac,1,con,1,z,Fri Jul 18 2025 14:13:23 GMT-0500 (Central Daylight Time),88657.10000002384,elated,800,I,z,,,417,,,9,2,2525.9000000953674,86131.19999992847,8038,elated,AF,A,,,,,,,,,,13
14,prac,1,inc,1,m,Fri Jul 18 2025 14:13:23 GMT-0500 (Central Daylight Time),91907.79999995232,brutal,1100,I,m,,,863,,,8,2,3247.5,88660.29999995232,8038,window,AF,A,,,,,,,,,,14
15,prac,1,inc,1,z,Fri Jul 18 2025 14:13:23 GMT-0500 (Central Daylight Time),94923.5,napkin,1100,I,z,,,617,,,12,2,3010.5,91913.0,8038,friend,AF,A,,,,,,,,,,15
16,prac,1,inc,1,z,Fri Jul 18 2025 14:13:23 GMT-0500 (Central Daylight Time),98056.39999997616,rock,900,I,z,,,917,,,10,2,3127.2000000476837,94929.19999992847,8038,kind,AF,A,,,,,,,,,,16
1,test,1,con,1,z,Fri Jul 18 2025 14:13:23 GMT-0500 (Central Daylight Time),107801.10000002384,brutal,1000,I,z,z,None,473,273.0,200.0,35,2,2011.8000000715256,105789.29999995232,8038,brutal,AF,A,105557,105557,103826,104840,103827,105838,105357,105357,105838,1
2,test,1,con,1,m,Fri Jul 18 2025 14:13:23 GMT-0500 (Central Daylight Time),109917.5,film,1100,I,m,m,None,484,284.0,200.0,92,2,2111.399999976158,107806.10000002384,8038,film,AF,A,107657,107657,105843,106955,105844,107955,107457,107457,107954,2
3,test,1,con,1,m,Fri Jul 18 2025 14:13:23 GMT-0500 (Central Daylight Time),111967.5,step,1000,I,m,m,None,508,309.0,199.0,67,2,2045.5,109922.0,8038,step,AF,A,109689,109689,107959,108973,107960,110005,109489,109489,110004,3
4,test,1,con,1,m,Fri Jul 18 2025 14:13:23 GMT-0500 (Central Daylight Time),113749.5,rock,800,I,m,m,None,445,245.0,200.0,73,2,1774.5,111975.0,8038,rock,AF,A,111538,111538,110012,110822,110012,111787,111338,111338,111787,4
5,test,1,inc,1,z,Fri Jul 18 2025 14:13:23 GMT-0500 (Central Daylight Time),115834.10000002384,window,1100,I,z,z,None,434,235.0,199.0,8,2,2080.2000000476837,113753.89999997616,8038,elated,AF,A,113621,113621,111791,112904,111791,113871,113422,113422,113871,5
6,test,1,con,1,m,Fri Jul 18 2025 14:13:23 GMT-0500 (Central Daylight Time),117962.60000002384,jacket,1100,I,m,m,None,490,291.0,199.0,100,2,2123.600000023842,115839.0,8038,jacket,AF,A,115700,115700,113876,114986,113876,116000,115500,115500,116000,6
7,test,1,con,1,z,Fri Jul 18 2025 14:13:23 GMT-0500 (Central Daylight Time),119812.5,elated,900,I,z,z,None,404,205.0,199.0,2,2,1840.2000000476837,117972.29999995232,8038,elated,AF,A,117634,117634,116009,116917,116010,117850,117434,117434,117849,7
8,test,1,inc,1,z,Fri Jul 18 2025 14:13:23 GMT-0500 (Central Daylight Time),121664.39999997616,step,800,I,z,z,None,516,317.0,199.0,21,2,1843.7999999523163,119820.60000002384,8038,love,AF,A,119369,119369,117858,118668,117858,119701,119169,119169,119701,8
9,test,1,con,1,m,Fri Jul 18 2025 14:13:23 GMT-0500 (Central Daylight Time),123680.60000002384,remote,900,I,m,m,None,566,352.0,214.0,114,2,2009.3000000715256,121671.29999995232,8038,remote,AF,A,121351,121351,119708,120618,119709,121718,121136,121136,121718,9
10,test,1,inc,1,m,Fri Jul 18 2025 14:13:23 GMT-0500 (Central Daylight Time),125763.39999997616,temper,1000,I,m,m,None,532,333.0,199.0,111,2,2077.0,123686.39999997616,8038,napkin,AF,A,123452,123452,121723,122735,121724,123801,123252,123252,123800,10
11,test,1,con,1,m,Fri Jul 18 2025 14:13:23 GMT-0500 (Central Daylight Time),127845.10000002384,napkin,1100,I,m,m,None,445,245.0,200.0,108,2,2075.4000000953674,125769.69999992847,8038,napkin,AF,A,125634,125634,123807,124916,123807,125882,125433,125433,125882,11
12,test,1,inc,1,z,Fri Jul 18 2025 14:13:23 GMT-0500 (Central Daylight Time),129844.69999992847,bell,1000,I,z,z,None,462,246.0,216.0,47,2,1994.8999999761581,127849.79999995232,8038,hate,AF,A,127633,127633,125887,126900,125887,127882,127416,127417,127882,12
12,test,1,con,0,m,Fri Jul 18 2025 14:13:23 GMT-0500 (Central Daylight Time),131943.69999992847,remote,1000,I,z,z,None,551,350.0,201.0,115,2,2091.2999999523163,129852.39999997616,8038,remote,AF,A,129617,129617,127889,128899,127890,129981,129415,129415,129981,13
13,test,1,con,1,m,Fri Jul 18 2025 14:13:23 GMT-0500 (Central Daylight Time),134144.19999992847,rock,1100,I,m,m,None,556,342.0,214.0,76,2,2192.5999999046326,131951.60000002384,8038,rock,AF,A,131832,131832,129989,131098,129989,132181,131617,131617,132181,14
14,test,1,inc,1,z,Fri Jul 18 2025 14:13:23 GMT-0500 (Central Daylight Time),136043.79999995232,rock,900,I,z,z,None,455,254.0,201.0,22,2,1891.7999999523163,134152.0,8038,love,AF,A,133816,133816,132189,133098,132190,134081,133614,133614,134081,15
15,test,1,inc,1,z,Fri Jul 18 2025 14:13:23 GMT-0500 (Central Daylight Time),138243.10000002384,film,1100,I,z,z,None,550,350.0,200.0,56,2,2192.2000000476837,136050.89999997616,8038,rage,AF,A,135913,135914,134088,135198,134088,136280,135713,135713,136280,16
16,test,1,con,1,m,Fri Jul 18 2025 14:13:23 GMT-0500 (Central Daylight Time),140208.39999997616,rock,900,I,m,m,None,540,341.0,199.0,74,2,1960.0,138248.39999997616,8038,rock,AF,A,137896,137897,136285,137196,136286,138245,137697,137697,138245,17
17,test,1,inc,1,m,Fri Jul 18 2025 14:13:23 GMT-0500 (Central Daylight Time),142307.39999997616,temper,1000,I,m,m,None,550,350.0,200.0,103,2,2091.5,140215.89999997616,8038,jacket,AF,A,139980,139980,138253,139262,138253,140344,139779,139779,140344,18
18,test,1,inc,1,z,Fri Jul 18 2025 14:13:23 GMT-0500 (Central Daylight Time),144273.79999995232,bell,1000,I,z,z,None,420,218.0,202.0,23,2,1961.6000000238419,142312.19999992847,8038,love,AF,A,142078,142078,140349,141360,140350,142311,141876,141876,142311,19
19,test,1,con,1,m,Fri Jul 18 2025 14:13:23 GMT-0500 (Central Daylight Time),146438.19999992847,film,1000,I,m,m,None,628,427.0,201.0,91,2,2160.0999999046326,144278.10000002384,8038,film,AF,A,144044,144044,142315,143327,142315,144475,143843,143843,144475,20
20,test,1,inc,1,z,Fri Jul 18 2025 14:13:23 GMT-0500 (Central Daylight Time),148505.79999995232,film,1100,I,z,z,None,423,223.0,200.0,48,2,2063.2999999523163,146442.5,8038,hate,AF,A,146311,146311,144480,145593,144480,146543,146110,146110,146543,21
21,test,1,inc,1,z,Fri Jul 18 2025 14:13:23 GMT-0500 (Central Daylight Time),150587.60000002384,rock,900,I,z,z,None,636,437.0,199.0,46,2,2077.600000023842,148510.0,8038,hate,AF,A,148176,148176,146547,147460,146547,148625,147976,147976,148625,22
22,test,1,inc,1,m,Fri Jul 18 2025 14:13:23 GMT-0500 (Central Daylight Time),152504.39999997616,elated,800,I,m,m,None,573,373.0,200.0,109,2,1911.7000000476837,150592.69999992847,8038,napkin,AF,A,150161,150161,148630,149441,148630,150542,149960,149960,150541,23
23,test,1,inc,1,m,Fri Jul 18 2025 14:13:23 GMT-0500 (Central Daylight Time),154703.89999997616,friend,1100,I,m,m,None,551,351.0,200.0,112,2,2194.5,152509.39999997616,8038,napkin,AF,A,152375,152375,150546,151658,150547,152741,152175,152175,152741,24
24,test,1,con,1,z,Fri Jul 18 2025 14:13:23 GMT-0500 (Central Daylight Time),156652.29999995232,kind,800,I,z,z,None,611,396.0,215.0,9,2,1943.3999999761581,154708.89999997616,8038,kind,AF,A,154290,154291,152746,153558,152746,154689,154075,154075,154689,25
25,test,1,inc,1,z,Fri Jul 18 2025 14:13:23 GMT-0500 (Central Daylight Time),158653.0,napkin,900,I,z,z,None,553,354.0,199.0,38,2,1996.0,156657.0,8038,brutal,AF,A,156324,156324,154694,155608,154695,156690,156123,156124,156690,26
26,test,1,con,1,m,Fri Jul 18 2025 14:13:23 GMT-0500 (Central Daylight Time),160651.5,bell,1000,I,m,m,None,465,264.0,201.0,83,2,1993.8999999761581,158657.60000002384,8038,bell,AF,A,158424,158424,156695,157706,156695,158689,158223,158223,158688,27
27,test,1,inc,1,m,Fri Jul 18 2025 14:13:23 GMT-0500 (Central Daylight Time),162618.79999995232,brutal,900,I,m,m,None,515,300.0,215.0,110,2,1963.3999999761581,160655.39999997616,8038,napkin,AF,A,160339,160339,158692,159606,158693,160656,160123,160123,160656,28
28,test,1,con,1,z,Fri Jul 18 2025 14:13:23 GMT-0500 (Central Daylight Time),164850.39999997616,hate,1100,I,z,z,None,586,386.0,200.0,44,2,2224.2000000476837,162626.19999992847,8038,hate,AF,A,162488,162488,160663,161773,160664,162887,162287,162287,162887,29
29,test,1,con,1,z,Fri Jul 18 2025 14:13:23 GMT-0500 (Central Daylight Time),166883.89999997616,elated,1000,I,z,z,None,484,285.0,199.0,3,2,2028.7000000476837,164855.19999992847,8038,elated,AF,A,164621,164621,162892,163905,162893,164921,164422,164422,164921,30
30,test,1,inc,1,z,Fri Jul 18 2025 14:13:23 GMT-0500 (Central Daylight Time),168799.5,jacket,800,I,z,z,None,576,377.0,199.0,61,2,1907.7000000476837,166891.79999995232,8038,temper,AF,A,166454,166454,164929,165737,164929,166837,166254,166254,166836,31
31,test,1,con,1,z,Fri Jul 18 2025 14:13:23 GMT-0500 (Central Daylight Time),170781.60000002384,hate,800,I,z,z,None,635,436.0,199.0,41,2,1977.3000000715256,168804.29999995232,8038,hate,AF,A,168370,168370,166841,167653,166842,168819,168170,168170,168819,32
32,test,1,inc,1,m,Fri Jul 18 2025 14:13:23 GMT-0500 (Central Daylight Time),172647.0,elated,800,I,m,m,None,524,324.0,200.0,117,2,1860.3999999761581,170786.60000002384,8038,remote,AF,A,170354,170354,168824,169636,168824,170684,170154,170154,170684,33
33,test,1,inc,1,m,Fri Jul 18 2025 14:13:23 GMT-0500 (Central Daylight Time),174899.79999995232,hate,1100,I,m,m,None,600,401.0,199.0,88,2,2249.0,172650.79999995232,8038,bell,AF,A,172519,172519,170688,171802,170688,172937,172320,172320,172937,34
34,test,1,con,1,m,Fri Jul 18 2025 14:13:23 GMT-0500 (Central Daylight Time),176996.5,step,900,I,m,m,None,680,465.0,215.0,66,2,2092.3000000715256,174904.19999992847,8038,step,AF,A,174568,174568,172941,173851,172942,175034,174352,174352,175033,35
35,test,1,inc,1,m,Fri Jul 18 2025 14:13:23 GMT-0500 (Central Daylight Time),178812.39999997616,elated,800,I,m,m,None,470,269.0,201.0,125,2,1812.1000000238419,177000.29999995232,8038,window,AF,A,176569,176569,175037,175851,175038,176849,176367,176367,176849,36
36,test,1,con,1,z,Fri Jul 18 2025 14:13:23 GMT-0500 (Central Daylight Time),180812.10000002384,love,1000,I,z,z,None,481,266.0,215.0,19,2,1995.1000000238419,178817.0,8038,love,AF,A,178583,178583,176854,177866,176854,178849,178368,178368,178849,37
37,test,1,con,1,m,Fri Jul 18 2025 14:13:23 GMT-0500 (Central Daylight Time),182910.5,napkin,900,I,m,m,None,650,451.0,199.0,106,2,2093.3000000715256,180817.19999992847,8038,napkin,AF,A,180482,180482,178854,179766,178855,180948,180283,180283,180947,38
38,test,1,con,1,m,Fri Jul 18 2025 14:13:23 GMT-0500 (Central Daylight Time),184793.69999992847,bell,900,I,m,m,None,450,251.0,199.0,82,2,1878.6999999284744,182915.0,8038,bell,AF,A,182565,182565,180952,181864,180952,182831,182366,182366,182831,39
39,test,1,con,1,m,Fri Jul 18 2025 14:13:23 GMT-0500 (Central Daylight Time),186975.69999992847,step,1100,I,m,m,None,541,342.0,199.0,68,2,2177.399999976158,184798.29999995232,8038,step,AF,A,184664,184664,182835,183948,182836,185013,184465,184465,185013,40
40,test,1,con,1,m,Fri Jul 18 2025 14:13:23 GMT-0500 (Central Daylight Time),189059.69999992847,jacket,1000,I,m,m,None,532,317.0,215.0,99,2,2080.5,186979.19999992847,8038,jacket,AF,A,186764,186764,185016,186031,185017,187097,186549,186549,187097,41
41,test,1,con,1,z,Fri Jul 18 2025 14:13:23 GMT-0500 (Central Daylight Time),191091.5,love,1100,I,z,z,None,388,172.0,216.0,20,2,2026.8000000715256,189064.69999992847,8038,love,AF,A,188946,188946,187102,188213,187102,189129,188730,188730,189128,42
42,test,1,inc,1,z,Fri Jul 18 2025 14:13:23 GMT-0500 (Central Daylight Time),193258.19999992847,window,1100,I,z,z,None,515,315.0,200.0,32,2,2162.5,191095.69999992847,8038,friend,AF,A,190964,190964,189133,190246,189133,191295,190763,190763,191295,43
42,test,1,inc,0,z,Fri Jul 18 2025 14:13:23 GMT-0500 (Central Daylight Time),195423.29999995232,remote,1000,I,m,m,None,625,425.0,200.0,63,2,2160.6999999284744,193262.60000002384,8038,temper,AF,A,193029,193029,191300,192312,191300,193460,192829,192829,193460,44
43,test,1,inc,1,m,Fri Jul 18 2025 14:13:23 GMT-0500 (Central Daylight Time),197657.79999995232,kind,900,I,m,m,None,792,592.0,200.0,78,2,2229.899999976158,195427.89999997616,8038,rock,AF,A,195094,195094,193465,194378,193465,195695,194894,194894,195695,45
44,test,1,con,1,z,Fri Jul 18 2025 14:13:23 GMT-0500 (Central Daylight Time),200071.79999995232,brutal,1100,I,z,z,None,766,567.0,199.0,36,2,2409.7999999523163,197662.0,8038,brutal,AF,A,197527,197527,195699,196810,195700,198109,197328,197328,198109,46
45,test,1,inc,1,m,Fri Jul 18 2025 14:13:23 GMT-0500 (Central Daylight Time),202189.0,love,1000,I,m,m,None,570,354.0,216.0,87,2,2112.100000023842,200076.89999997616,8038,bell,AF,A,199860,199860,198114,199128,198114,200226,199643,199643,200226,47
46,test,1,con,1,m,Fri Jul 18 2025 14:13:23 GMT-0500 (Central Daylight Time),204371.39999997616,window,1100,I,m,m,None,550,350.0,200.0,124,2,2178.7000000476837,202192.69999992847,8038,window,AF,A,202043,202043,200230,201340,200230,202408,201842,201842,202408,48
47,test,1,inc,1,m,Fri Jul 18 2025 14:13:23 GMT-0500 (Central Daylight Time),206204.0,elated,800,I,m,m,None,502,288.0,214.0,101,2,1827.8000000715256,204376.19999992847,8038,jacket,AF,A,203942,203942,202413,203224,202414,204241,203727,203727,204241,49
48,test,1,con,1,m,Fri Jul 18 2025 14:13:23 GMT-0500 (Central Daylight Time),208136.89999997616,jacket,900,I,m,m,None,491,276.0,215.0,98,2,1928.1000000238419,206208.79999995232,8038,jacket,AF,A,205890,205890,204246,205160,204246,206174,205674,205674,206174,50
49,test,1,con,1,z,Fri Jul 18 2025 14:13:23 GMT-0500 (Central Daylight Time),209967.5,love,900,I,z,z,None,392,190.0,202.0,18,2,1826.1000000238419,208141.39999997616,8038,love,AF,A,207808,207808,206178,207091,206179,208005,207605,207605,208005,51
50,test,1,con,1,z,Fri Jul 18 2025 14:13:23 GMT-0500 (Central Daylight Time),211820.79999995232,brutal,900,I,z,z,None,401,201.0,200.0,34,2,1849.6000000238419,209971.19999992847,8038,brutal,AF,A,209640,209641,208008,208925,208009,209858,209440,209440,209858,52
50,test,1,con,0,m,Fri Jul 18 2025 14:13:23 GMT-0500 (Central Daylight Time),213618.10000002384,remote,800,I,z,z,None,449,233.0,216.0,113,2,1793.3000000715256,211824.79999995232,8038,remote,AF,A,211406,211406,209862,210672,209862,211655,211190,211190,211655,53
51,test,1,con,1,z,Fri Jul 18 2025 14:13:23 GMT-0500 (Central Daylight Time),215551.0,kind,900,I,z,z,None,485,285.0,200.0,10,2,1926.7000000476837,213624.29999995232,8038,kind,AF,A,213289,213289,211661,212573,211662,213588,213088,213088,213588,54
52,test,1,con,1,z,Fri Jul 18 2025 14:13:23 GMT-0500 (Central Daylight Time),217832.79999995232,friend,900,I,z,z,None,841,624.0,217.0,26,2,2276.2999999523163,215556.5,8038,friend,AF,A,215238,215238,213594,214506,213594,215870,215021,215021,215870,55
53,test,1,con,1,z,Fri Jul 18 2025 14:13:23 GMT-0500 (Central Daylight Time),219582.29999995232,rage,800,I,z,z,None,418,218.0,200.0,49,2,1745.2999999523163,217837.0,8038,rage,AF,A,217388,217388,215874,216687,215874,217619,217188,217188,217619,56
54,test,1,con,1,m,Fri Jul 18 2025 14:13:23 GMT-0500 (Central Daylight Time),221397.19999992847,napkin,800,I,m,m,None,491,292.0,199.0,105,2,1809.5999999046326,219587.60000002384,8038,napkin,AF,A,219137,219137,217625,218434,217625,219434,218937,218937,219434,57
55,test,1,con,1,z,Fri Jul 18 2025 14:13:23 GMT-0500 (Central Daylight Time),223464.5,rage,1000,I,z,z,None,528,329.0,199.0,51,2,2063.8000000715256,221400.69999992847,8038,rage,AF,A,221166,221166,219438,220454,219438,221502,220967,220967,221502,58
56,test,1,inc,1,m,Fri Jul 18 2025 14:13:23 GMT-0500 (Central Daylight Time),225562.10000002384,brutal,900,I,m,m,None,662,445.0,217.0,102,2,2092.100000023842,223470.0,8038,jacket,AF,A,223152,223152,221507,222420,221508,223599,222935,222935,223599,59
57,test,1,con,1,m,Fri Jul 18 2025 14:13:23 GMT-0500 (Central Daylight Time),227596.39999997616,remote,1100,I,m,m,None,399,198.0,201.0,116,2,2031.3999999761581,225565.0,8038,remote,AF,A,225435,225435,223602,224719,223602,225633,225234,225234,225633,60
58,test,1,con,1,m,Fri Jul 18 2025 14:13:23 GMT-0500 (Central Daylight Time),229512.69999992847,step,800,I,m,m,None,565,365.0,200.0,65,2,1912.6999999284744,227600.0,8038,step,AF,A,227168,227168,225637,226451,225637,227550,226967,226967,227550,61
59,test,1,inc,1,z,Fri Jul 18 2025 14:13:23 GMT-0500 (Central Daylight Time),231593.10000002384,film,1100,I,z,z,None,444,231.0,213.0,24,2,2076.2000000476837,229516.89999997616,8038,love,AF,A,229398,229398,227554,228667,227554,229630,229185,229185,229630,62
60,test,1,inc,1,z,Fri Jul 18 2025 14:13:23 GMT-0500 (Central Daylight Time),233794.19999992847,film,1100,I,z,z,None,556,356.0,200.0,16,2,2197.6999999284744,231596.5,8038,kind,AF,A,231466,231466,229634,230750,229634,231831,231266,231266,231831,63
61,test,1,inc,1,m,Fri Jul 18 2025 14:13:23 GMT-0500 (Central Daylight Time),235761.29999995232,rage,800,I,m,m,None,617,417.0,200.0,85,2,1962.8999999761581,233798.39999997616,8038,bell,AF,A,233366,233366,231835,232651,231836,233798,233166,233166,233798,64
62,test,1,inc,1,z,Fri Jul 18 2025 14:13:23 GMT-0500 (Central Daylight Time),237694.10000002384,step,800,I,z,z,None,594,395.0,199.0,53,2,1927.3000000715256,235766.79999995232,8038,rage,AF,A,235331,235331,233804,234616,233804,235731,235132,235132,235731,65
63,test,1,inc,1,m,Fri Jul 18 2025 14:13:23 GMT-0500 (Central Daylight Time),239843.19999992847,rage,800,I,m,m,None,800,600.0,200.0,77,2,2144.7999999523163,237698.39999997616,8038,rock,AF,A,237265,237265,235735,236548,235736,237880,237065,237065,237880,66
64,test,1,con,1,z,Fri Jul 18 2025 14:13:23 GMT-0500 (Central Daylight Time),242123.19999992847,kind,1100,I,z,z,None,644,444.0,200.0,12,2,2275.5999999046326,239847.60000002384,8038,kind,AF,A,239713,239713,237885,238999,237885,240160,239512,239512,240160,67
65,test,1,con,1,z,Fri Jul 18 2025 14:13:23 GMT-0500 (Central Daylight Time),244274.60000002384,hate,1000,I,z,z,None,604,389.0,215.0,43,2,2148.2000000476837,242126.39999997616,8038,hate,AF,A,241913,241913,240163,241180,240164,242312,241696,241697,242312,68
66,test,1,inc,1,z,Fri Jul 18 2025 14:13:23 GMT-0500 (Central Daylight Time),246340.19999992847,napkin,900,I,z,z,None,628,428.0,200.0,6,2,2059.7999999523163,244280.39999997616,8038,elated,AF,A,243946,243946,242317,243230,242318,244377,243745,243745,244377,69
67,test,1,inc,1,m,Fri Jul 18 2025 14:13:23 GMT-0500 (Central Daylight Time),248507.10000002384,kind,900,I,m,m,None,722,522.0,200.0,70,2,2162.5,246344.60000002384,8038,step,AF,A,246012,246012,244382,245294,244382,246544,245811,245811,246544,70
68,test,1,con,1,m,Fri Jul 18 2025 14:13:23 GMT-0500 (Central Daylight Time),250289.39999997616,film,800,I,m,m,None,449,233.0,216.0,89,2,1776.2999999523163,248513.10000002384,8038,film,AF,A,248079,248079,246550,247360,246550,248326,247862,247862,248326,71
69,test,1,inc,1,z,Fri Jul 18 2025 14:13:23 GMT-0500 (Central Daylight Time),252089.60000002384,jacket,800,I,z,z,None,450,250.0,200.0,37,2,1795.5,250294.10000002384,8038,brutal,AF,A,249861,249861,248331,249144,248332,250127,249660,249660,250127,72
70,test,1,inc,1,m,Fri Jul 18 2025 14:13:23 GMT-0500 (Central Daylight Time),254122.5,brutal,900,I,m,m,None,598,399.0,199.0,126,2,2027.3000000715256,252095.19999992847,8038,window,AF,A,251759,251760,250132,251044,250132,252160,251560,251560,252160,73
71,test,1,con,1,z,Fri Jul 18 2025 14:13:23 GMT-0500 (Central Daylight Time),256554.69999992847,friend,1100,I,z,z,None,788,589.0,199.0,28,2,2428.1999999284744,254126.5,8038,friend,AF,A,253993,253993,252164,253275,252164,254592,253793,253793,254592,74
72,test,1,con,1,m,Fri Jul 18 2025 14:13:23 GMT-0500 (Central Daylight Time),258670.19999992847,window,1000,I,m,m,None,566,366.0,200.0,123,2,2110.0,256560.19999992847,8038,window,AF,A,256327,256327,254597,255609,254598,256707,256126,256126,256707,75
73,test,1,inc,1,z,Fri Jul 18 2025 14:13:23 GMT-0500 (Central Daylight Time),260736.89999997616,remote,1000,I,z,z,None,516,317.0,199.0,31,2,2061.600000023842,258675.29999995232,8038,friend,AF,A,258441,258441,256712,257726,256713,258774,258241,258241,258774,76
74,test,1,inc,1,z,Fri Jul 18 2025 14:13:23 GMT-0500 (Central Daylight Time),263402.1999999285,rock,900,I,z,z,None,1220,1021.0,199.0,54,2,2661.1999999284744,260741.0,8038,rage,AF,A,260408,260408,258778,259691,258778,261439,260208,260208,261439,77
75,test,1,inc,1,m,Fri Jul 18 2025 14:13:23 GMT-0500 (Central Daylight Time),265616.89999997616,friend,1100,I,m,m,None,574,373.0,201.0,104,2,2209.600000023842,263407.2999999523,8038,jacket,AF,A,263272,263272,261444,262555,261445,263654,263070,263070,263654,78
76,test,1,con,1,m,Fri Jul 18 2025 14:13:23 GMT-0500 (Central Daylight Time),267583.60000002384,jacket,800,I,m,m,None,642,443.0,199.0,97,2,1963.4000000953674,265620.1999999285,8038,jacket,AF,A,265172,265172,263657,264470,263658,265621,264973,264973,265621,79
77,test,1,con,1,z,Fri Jul 18 2025 14:13:23 GMT-0500 (Central Daylight Time),269832.0,temper,1100,I,z,z,None,607,408.0,199.0,60,2,2242.600000023842,267589.39999997616,8038,temper,AF,A,267454,267454,265626,266738,265627,267869,267255,267255,267869,80
78,test,1,inc,1,m,Fri Jul 18 2025 14:13:23 GMT-0500 (Central Daylight Time),272099.5,friend,1100,I,m,m,None,615,416.0,199.0,128,2,2264.899999976158,269834.60000002384,8038,window,AF,A,269704,269704,267872,268988,267872,270137,269505,269505,270136,81
79,test,1,inc,1,z,Fri Jul 18 2025 14:13:23 GMT-0500 (Central Daylight Time),273964.60000002384,step,800,I,z,z,None,518,319.0,199.0,45,2,1860.0,272104.60000002384,8038,hate,AF,A,271671,271671,270142,270954,270142,272002,271471,271471,272002,82
80,test,1,con,1,z,Fri Jul 18 2025 14:13:23 GMT-0500 (Central Daylight Time),275714.89999997616,elated,800,I,z,z,None,405,205.0,200.0,1,2,1743.7999999523163,273971.10000002384,8038,elated,AF,A,273537,273537,272008,272820,272009,273752,273336,273336,273752,83
81,test,1,con,1,z,Fri Jul 18 2025 14:13:23 GMT-0500 (Central Daylight Time),277731.0,friend,1000,I,z,z,None,473,274.0,199.0,27,2,2010.8000000715256,275720.1999999285,8038,friend,AF,A,275485,275485,273757,274769,273757,275768,275286,275286,275768,84
82,test,1,con,1,z,Fri Jul 18 2025 14:13:23 GMT-0500 (Central Daylight Time),279563.39999997616,friend,800,I,z,z,None,489,288.0,201.0,25,2,1827.2999999523163,277736.10000002384,8038,friend,AF,A,277302,277302,275773,276584,275773,277600,277101,277101,277600,85
83,test,1,inc,1,z,Fri Jul 18 2025 14:13:23 GMT-0500 (Central Daylight Time),281682.39999997616,bell,1000,I,z,z,None,591,391.0,200.0,15,2,2113.5,279568.89999997616,8038,kind,AF,A,279318,279318,277606,278616,277606,279719,279118,279118,279719,86
84,test,1,con,1,z,Fri Jul 18 2025 14:13:23 GMT-0500 (Central Daylight Time),283729.39999997616,kind,1000,I,z,z,None,522,309.0,213.0,11,2,2042.8999999761581,281686.5,8038,kind,AF,A,281450,281450,279724,280734,279724,281766,281236,281236,281766,87
85,test,1,inc,1,m,Fri Jul 18 2025 14:13:23 GMT-0500 (Central Daylight Time),285711.39999997616,love,1000,I,m,m,None,444,244.0,200.0,79,2,1976.5,283734.89999997616,8038,rock,AF,A,283499,283499,281772,282783,281772,283749,283299,283299,283748,88
86,test,1,con,1,z,Fri Jul 18 2025 14:13:23 GMT-0500 (Central Daylight Time),287928.7999999523,elated,1100,I,z,z,None,575,376.0,199.0,4,2,2213.2999999523163,285715.5,8038,elated,AF,A,285583,285583,283753,284866,283753,285966,285383,285383,285966,89
87,test,1,inc,1,z,Fri Jul 18 2025 14:13:23 GMT-0500 (Central Daylight Time),289963.0,napkin,900,I,z,z,None,582,368.0,214.0,62,2,2029.6000000238419,287933.39999997616,8038,temper,AF,A,287614,287614,285970,286882,285971,288000,287400,287400,288000,90
88,test,1,con,1,m,Fri Jul 18 2025 14:13:23 GMT-0500 (Central Daylight Time),291759.10000002384,bell,800,I,m,m,None,457,242.0,215.0,81,2,1790.4000000953674,289968.6999999285,8038,bell,AF,A,289548,289548,288006,288815,288006,289796,289332,289332,289796,91
89,test,1,con,1,m,Fri Jul 18 2025 14:13:23 GMT-0500 (Central Daylight Time),293609.89999997616,window,900,I,m,m,None,407,208.0,199.0,122,2,1846.3999999761581,291763.5,8038,window,AF,A,291430,291430,289801,290715,289801,291647,291231,291231,291647,92
90,test,1,inc,1,z,Fri Jul 18 2025 14:13:23 GMT-0500 (Central Daylight Time),295757.89999997616,bell,1000,I,z,z,None,607,393.0,214.0,55,2,2142.899999976158,293615.0,8038,rage,AF,A,293397,293397,291652,292663,291652,293795,293182,293182,293795,93
91,test,1,inc,1,m,Fri Jul 18 2025 14:13:23 GMT-0500 (Central Daylight Time),298106.89999997616,brutal,900,I,m,m,None,903,688.0,215.0,118,2,2344.0,295762.89999997616,8038,remote,AF,A,295445,295445,293800,294713,293800,296144,295229,295229,296144,94
92,test,1,inc,1,m,Fri Jul 18 2025 14:13:23 GMT-0500 (Central Daylight Time),300306.7999999523,hate,1100,I,m,m,None,553,352.0,201.0,96,2,2194.6999999284744,298112.10000002384,8038,film,AF,A,297978,297978,296149,297262,296150,298344,297777,297777,298344,95
93,test,1,inc,1,m,Fri Jul 18 2025 14:13:23 GMT-0500 (Central Daylight Time),302522.0,hate,1100,I,m,m,None,567,366.0,201.0,72,2,2209.3000000715256,300312.6999999285,8038,step,AF,A,300178,300178,298350,299462,298350,300559,299977,299977,300559,96
94,test,1,inc,1,m,Fri Jul 18 2025 14:13:23 GMT-0500 (Central Daylight Time),304589.0,temper,1000,I,m,m,None,520,321.0,199.0,119,2,2062.8000000715256,302526.1999999285,8038,remote,AF,A,302293,302293,300563,301577,300564,302626,302094,302094,302626,97
95,test,1,inc,1,m,Fri Jul 18 2025 14:13:23 GMT-0500 (Central Daylight Time),306554.60000002384,rage,800,I,m,m,None,616,417.0,199.0,69,2,1961.3000000715256,304593.2999999523,8038,step,AF,A,304160,304160,302630,303446,302631,304592,303960,303960,304592,98
96,test,1,inc,1,z,Fri Jul 18 2025 14:13:23 GMT-0500 (Central Daylight Time),308821.0,window,1100,I,z,z,None,620,404.0,216.0,40,2,2263.5,306557.5,8038,brutal,AF,A,306442,306442,304595,305710,304595,306858,306226,306226,306858,99
97,test,1,inc,1,m,Fri Jul 18 2025 14:13:23 GMT-0500 (Central Daylight Time),310969.6999999285,love,1000,I,m,m,None,606,405.0,201.0,95,2,2143.7999999523163,308825.89999997616,8038,film,AF,A,308593,308593,306863,307875,306863,309007,308392,308392,309007,100
98,test,1,con,1,z,Fri Jul 18 2025 14:13:23 GMT-0500 (Central Daylight Time),312969.2999999523,temper,1000,I,z,z,None,458,257.0,201.0,59,2,1994.1999999284744,310975.10000002384,8038,temper,AF,A,310741,310741,309012,310026,309012,311006,310540,310540,311006,101
99,test,1,con,1,z,Fri Jul 18 2025 14:13:23 GMT-0500 (Central Daylight Time),314785.60000002384,temper,800,I,z,z,None,463,249.0,214.0,57,2,1811.9000000953674,312973.6999999285,8038,temper,AF,A,312558,312558,311011,311824,311011,312823,312343,312343,312823,102
100,test,1,inc,1,z,Fri Jul 18 2025 14:13:23 GMT-0500 (Central Daylight Time),316619.60000002384,jacket,800,I,z,z,None,505,306.0,199.0,29,2,1829.3000000715256,314790.2999999523,8038,friend,AF,A,314340,314340,312827,313639,312828,314657,314141,314141,314657,103
101,test,1,inc,1,m,Fri Jul 18 2025 14:13:23 GMT-0500 (Central Daylight Time),318651.10000002384,kind,900,I,m,m,None,615,414.0,201.0,94,2,2025.2000000476837,316625.89999997616,8038,film,AF,A,316274,316274,314663,315572,314663,316688,316073,316073,316688,104
102,test,1,con,1,z,Fri Jul 18 2025 14:13:23 GMT-0500 (Central Daylight Time),320752.2999999523,rage,1100,I,z,z,None,459,245.0,214.0,52,2,2096.6999999284744,318655.60000002384,8038,rage,AF,A,318537,318537,316693,317806,316693,318789,318323,318323,318789,105
103,test,1,inc,1,z,Fri Jul 18 2025 14:13:23 GMT-0500 (Central Daylight Time),322965.7999999523,remote,1000,I,z,z,None,667,452.0,215.0,39,2,2208.399999976158,320757.39999997616,8038,brutal,AF,A,320538,320538,318794,319805,318795,321003,320323,320323,321003,106
104,test,1,con,1,m,Fri Jul 18 2025 14:13:23 GMT-0500 (Central Daylight Time),325114.2999999523,napkin,1000,I,m,m,None,615,414.0,201.0,107,2,2143.899999976158,322970.39999997616,8038,napkin,AF,A,322736,322736,321007,322019,321008,323151,322535,322535,323151,107
105,test,1,inc,1,z,Fri Jul 18 2025 14:13:23 GMT-0500 (Central Daylight Time),327381.10000002384,remote,1000,I,z,z,None,729,530.0,199.0,7,2,2263.3000000715256,325117.7999999523,8038,elated,AF,A,324884,324884,323155,324168,323155,325418,324685,324685,325418,108
106,test,1,con,1,z,Fri Jul 18 2025 14:13:23 GMT-0500 (Central Daylight Time),329232.60000002384,hate,900,I,z,z,None,406,193.0,213.0,42,2,1846.4000000953674,327386.1999999285,8038,hate,AF,A,327069,327069,325423,326337,325424,327270,326856,326856,327270,109
107,test,1,inc,1,m,Fri Jul 18 2025 14:13:23 GMT-0500 (Central Daylight Time),331380.39999997616,hate,1100,I,m,m,None,517,318.0,199.0,80,2,2144.5,329235.89999997616,8038,rock,AF,A,329084,329084,327273,328383,327273,329418,328885,328885,329417,110
108,test,1,con,1,m,Fri Jul 18 2025 14:13:23 GMT-0500 (Central Daylight Time),333448.0,rock,1000,I,m,m,None,534,318.0,216.0,75,2,2062.600000023842,331385.39999997616,8038,rock,AF,A,331151,331151,329422,330434,329423,331485,330935,330935,331485,111
109,test,1,con,1,m,Fri Jul 18 2025 14:13:23 GMT-0500 (Central Daylight Time),335328.5,film,900,I,m,m,None,440,240.0,200.0,90,2,1876.5,333452.0,8038,film,AF,A,333117,333117,331489,332401,331489,333366,332917,332917,333366,112
110,test,1,con,1,z,Fri Jul 18 2025 14:13:23 GMT-0500 (Central Daylight Time),337277.7999999523,temper,900,I,z,z,None,517,318.0,199.0,58,2,1944.1999999284744,335333.60000002384,8038,temper,AF,A,334983,334984,333371,334283,333371,335315,334784,334784,335315,113
111,test,1,inc,1,z,Fri Jul 18 2025 14:13:23 GMT-0500 (Central Daylight Time),339394.60000002384,napkin,900,I,z,z,None,689,490.0,199.0,30,2,2111.0,337283.60000002384,8038,friend,AF,A,336932,336932,335321,336232,335321,337432,336733,336733,337432,114
112,test,1,inc,1,m,Fri Jul 18 2025 14:13:23 GMT-0500 (Central Daylight Time),341310.10000002384,rage,800,I,m,m,None,577,375.0,202.0,93,2,1910.3000000715256,339399.7999999523,8038,film,AF,A,338967,338967,337437,338249,337437,339347,338765,338765,339347,115
113,test,1,con,1,z,Fri Jul 18 2025 14:13:23 GMT-0500 (Central Daylight Time),343292.89999997616,brutal,800,I,z,z,None,636,435.0,201.0,33,2,1978.3999999761581,341314.5,8038,brutal,AF,A,340883,340883,339352,340165,339352,341330,340682,340682,341330,116
114,test,1,inc,1,z,Fri Jul 18 2025 14:13:23 GMT-0500 (Central Daylight Time),345211.60000002384,jacket,800,I,z,z,None,573,373.0,200.0,5,2,1914.9000000953674,343296.6999999285,8038,elated,AF,A,342865,342865,341334,342147,341334,343249,342664,342664,343249,117
115,test,1,inc,1,z,Fri Jul 18 2025 14:13:23 GMT-0500 (Central Daylight Time),347275.1999999285,step,800,I,z,z,None,718,519.0,199.0,13,2,2058.899999976158,345216.2999999523,8038,kind,AF,A,344778,344778,343253,344062,343254,345312,344578,344578,345312,118
116,test,1,inc,1,z,Fri Jul 18 2025 14:13:23 GMT-0500 (Central Daylight Time),349157.7999999523,rock,900,I,z,z,None,462,262.0,200.0,14,2,1877.1999999284744,347280.60000002384,8038,kind,AF,A,346929,346929,345318,346228,345318,347195,346729,346729,347195,119
117,test,1,con,1,z,Fri Jul 18 2025 14:13:23 GMT-0500 (Central Daylight Time),351157.0,rage,900,I,z,z,None,565,366.0,199.0,50,2,1994.6000000238419,349162.39999997616,8038,rage,AF,A,348828,348828,347199,348115,347200,349194,348629,348629,349194,120
118,test,1,con,1,m,Fri Jul 18 2025 14:13:23 GMT-0500 (Central Daylight Time),353374.10000002384,bell,1100,I,m,m,None,581,366.0,215.0,84,2,2211.7000000476837,351162.39999997616,8038,bell,AF,A,351045,351045,349199,350316,349200,351411,350829,350829,351411,121
119,test,1,con,1,z,Fri Jul 18 2025 14:13:23 GMT-0500 (Central Daylight Time),355122.89999997616,love,800,I,z,z,None,404,204.0,200.0,17,2,1743.6000000238419,353379.2999999523,8038,love,AF,A,352945,352945,351416,352229,351417,353160,352745,352745,353160,122
120,test,1,inc,1,m,Fri Jul 18 2025 14:13:23 GMT-0500 (Central Daylight Time),357123.5,kind,900,I,m,m,None,567,353.0,214.0,86,2,1996.5,355127.0,8038,bell,AF,A,354793,354793,353164,354077,353164,355161,354579,354579,355161,123
121,test,1,inc,1,m,Fri Jul 18 2025 14:13:23 GMT-0500 (Central Daylight Time),359137.39999997616,temper,1000,I,m,m,None,472,273.0,199.0,127,2,2008.2999999523163,357129.10000002384,8038,window,AF,A,356893,356893,355166,356176,355166,357175,356693,356693,357174,124
122,test,1,inc,1,m,Fri Jul 18 2025 14:13:23 GMT-0500 (Central Daylight Time),361270.6999999285,love,1000,I,m,m,None,593,394.0,199.0,71,2,2128.6999999284744,359142.0,8038,step,AF,A,358909,358909,357179,358193,357179,359308,358710,358710,359308,125
123,test,1,inc,1,z,Fri Jul 18 2025 14:13:23 GMT-0500 (Central Daylight Time),363455.1999999285,window,1100,I,z,z,None,545,346.0,199.0,64,2,2180.2999999523163,361274.89999997616,8038,temper,AF,A,361142,361142,359312,360425,359312,361492,360943,360943,361492,126
124,test,1,inc,1,m,Fri Jul 18 2025 14:13:23 GMT-0500 (Central Daylight Time),365803.60000002384,friend,1100,I,m,m,None,702,502.0,200.0,120,2,2343.0,363460.60000002384,8038,remote,AF,A,363324,363324,361498,362606,361498,363841,363123,363123,363841,127
125,test,1,con,1,m,Fri Jul 18 2025 14:13:23 GMT-0500 (Central Daylight Time),367868.7999999523,window,800,I,m,m,None,723,522.0,201.0,121,2,2058.7999999523163,365810.0,8038,window,AF,A,365372,365372,363847,364657,363847,365906,365171,365171,365906,128
