acc_sum,block,block_c,condition,correct,correct_response,datetime,endtime,flanker,jitter,project,response,response_test_buffer_response,response_test_target_response,response_time,response_time_test_buffer_response,response_time_test_target_response,row_sel,session_number,start_end,starttime,subject_id,target,task,task_vers,time_test_buffer,time_test_buffer_response,time_test_constants,time_test_flanker,time_test_jitter,time_test_logger,time_test_target,time_test_target_response,time_test_variables,trial
0,prac,1,con,0,z,Tue Mar 10 2026 13:37:05 GMT-0500 (Central Daylight Time),154128.40000000037,banana,800,I,None,,,1800,,,1,1,4861.300000000745,149267.09999999963,7776,banana,NF,C,,,,,,,,,,1
1,prac,1,inc,1,z,Tue Mar 10 2026 13:37:05 GMT-0500 (Central Daylight Time),157593.80000000075,lead,1100,I,z,,,1049,,,8,1,3461.5,154132.30000000075,7776,plum,NF,C,,,,,,,,,,2
2,prac,1,inc,1,z,Tue Mar 10 2026 13:37:05 GMT-0500 (Central Daylight Time),160577.30000000075,iron,900,I,z,,,768,,,6,1,2980.2000000011176,157597.09999999963,7776,pear,NF,C,,,,,,,,,,3
3,prac,1,inc,1,z,Tue Mar 10 2026 13:37:05 GMT-0500 (Central Daylight Time),163425.30000000075,copper,900,I,z,,,632,,,2,1,2843.9000000003725,160581.40000000037,7776,cherry,NF,C,,,,,,,,,,4
4,prac,1,con,1,z,Tue Mar 10 2026 13:37:05 GMT-0500 (Central Daylight Time),166308.59999999963,kiwi,1000,I,z,,,566,,,7,1,2880.0999999996275,163428.5,7776,kiwi,NF,C,,,,,,,,,,5
5,prac,1,con,1,z,Tue Mar 10 2026 13:37:05 GMT-0500 (Central Daylight Time),169140.80000000075,orange,1000,I,z,,,529,,,3,1,2828.7000000011176,166312.09999999963,7776,orange,NF,C,,,,,,,,,,6
6,prac,1,inc,1,m,Tue Mar 10 2026 13:37:05 GMT-0500 (Central Daylight Time),172006.59999999963,plum,1100,I,m,,,454,,,16,1,2862.2999999988824,169144.30000000075,7776,lead,NF,C,,,,,,,,,,7
7,prac,1,con,1,z,Tue Mar 10 2026 13:37:05 GMT-0500 (Central Daylight Time),174738.19999999925,lime,800,I,z,,,623,,,5,1,2728.39999999851,172009.80000000075,7776,lime,NF,C,,,,,,,,,,8
8,prac,1,con,1,m,Tue Mar 10 2026 13:37:05 GMT-0500 (Central Daylight Time),177554.30000000075,zinc,1000,I,m,,,508,,,15,1,2812.7000000011176,174741.59999999963,7776,zinc,NF,C,,,,,,,,,,9
9,prac,1,con,1,m,Tue Mar 10 2026 13:37:05 GMT-0500 (Central Daylight Time),180437.59999999963,silver,1000,I,m,,,596,,,11,1,2879.9000000003725,177557.69999999925,7776,silver,NF,C,,,,,,,,,,10
10,prac,1,inc,1,m,Tue Mar 10 2026 13:37:05 GMT-0500 (Central Daylight Time),183169.40000000037,pear,900,I,m,,,533,,,14,1,2728.5999999996275,180440.80000000075,7776,iron,NF,C,,,,,,,,,,11
11,prac,1,inc,1,m,Tue Mar 10 2026 13:37:05 GMT-0500 (Central Daylight Time),185901.30000000075,cherry,900,I,m,,,519,,,10,1,2728.300000000745,183173.0,7776,copper,NF,C,,,,,,,,,,12
12,prac,1,inc,1,z,Tue Mar 10 2026 13:37:05 GMT-0500 (Central Daylight Time),188933.69999999925,cobalt,1100,I,z,,,629,,,4,1,3029.0999999996275,185904.59999999963,7776,raisin,NF,C,,,,,,,,,,13
13,prac,1,con,1,m,Tue Mar 10 2026 13:37:05 GMT-0500 (Central Daylight Time),191483.09999999963,bronze,800,I,m,,,447,,,9,1,2546.4000000003725,188936.69999999925,7776,bronze,NF,C,,,,,,,,,,14
14,prac,1,inc,1,m,Tue Mar 10 2026 13:37:05 GMT-0500 (Central Daylight Time),194433.30000000075,raisin,1100,I,m,,,543,,,12,1,2946.9000000003725,191486.40000000037,7776,cobalt,NF,C,,,,,,,,,,15
15,prac,1,con,1,m,Tue Mar 10 2026 13:37:05 GMT-0500 (Central Daylight Time),196981.40000000037,gold,800,I,m,,,446,,,13,1,2544.300000000745,194437.09999999963,7776,gold,NF,C,,,,,,,,,,16
1,test,1,con,1,z,Tue Mar 10 2026 13:37:05 GMT-0500 (Central Daylight Time),216475.09999999963,orange,800,I,z,z,None,601,401.0,200.0,17,1,1946.0,214529.09999999963,7776,orange,NF,C,206839,206839,205309,206123,205310,207255,206639,206639,207255,1
2,test,1,inc,1,z,Tue Mar 10 2026 13:37:05 GMT-0500 (Central Daylight Time),218641.19999999925,cobalt,1100,I,z,z,None,527,327.0,200.0,8,1,2162.89999999851,216478.30000000075,7776,banana,NF,C,209088,209088,207258,208372,207259,209421,208888,208888,209421,2
3,test,1,inc,1,m,Tue Mar 10 2026 13:37:05 GMT-0500 (Central Daylight Time),220723.5,orange,1000,I,m,m,None,541,336.0,205.0,71,1,2078.300000000745,218645.19999999925,7776,bronze,NF,C,211159,211159,209425,210438,209425,211504,210954,210954,211503,3
4,test,1,inc,1,m,Tue Mar 10 2026 13:37:05 GMT-0500 (Central Daylight Time),222890.80000000075,raisin,1100,I,m,m,None,533,334.0,199.0,80,1,2164.300000000745,220726.5,7776,copper,NF,C,213337,213337,211507,212621,211507,213671,213137,213137,213671,4
5,test,1,con,1,m,Tue Mar 10 2026 13:37:05 GMT-0500 (Central Daylight Time),224922.19999999925,copper,1100,I,m,m,None,383,183.0,200.0,76,1,2028.3999999985099,222893.80000000075,7776,copper,NF,C,215504,215504,213674,214786,213674,215702,215303,215303,215702,5
6,test,1,con,1,z,Tue Mar 10 2026 13:37:05 GMT-0500 (Central Daylight Time),227038.80000000075,orange,1100,I,z,z,None,470,270.0,200.0,20,1,2113.60000000149,224925.19999999925,7776,orange,NF,C,217537,217537,215705,216821,215705,217819,217336,217336,217819,6
7,test,1,con,1,z,Tue Mar 10 2026 13:37:05 GMT-0500 (Central Daylight Time),229103.69999999925,pear,1000,I,z,z,None,519,319.0,200.0,43,1,2061.699999999255,227042.0,7776,pear,NF,C,219552,219552,217822,218836,217822,219884,219352,219352,219884,7
8,test,1,con,1,m,Tue Mar 10 2026 13:37:05 GMT-0500 (Central Daylight Time),230870.80000000075,bronze,800,I,m,m,None,420,220.0,200.0,65,1,1764.1000000014901,229106.69999999925,7776,bronze,NF,C,221419,221419,219887,220701,219887,221651,221218,221218,221651,8
9,test,1,con,1,m,Tue Mar 10 2026 13:37:05 GMT-0500 (Central Daylight Time),232637.09999999963,copper,800,I,m,m,None,423,224.0,199.0,73,1,1763.5,230873.59999999963,7776,copper,NF,C,223183,223183,221654,222467,221654,223417,222984,222984,223417,9
10,test,1,con,1,m,Tue Mar 10 2026 13:37:05 GMT-0500 (Central Daylight Time),234370.30000000075,cobalt,800,I,m,m,None,409,210.0,199.0,89,1,1730.4000000003725,232639.90000000037,7776,cobalt,NF,C,224933,224933,223420,224233,223420,225150,224734,224734,225150,10
11,test,1,inc,1,m,Tue Mar 10 2026 13:37:05 GMT-0500 (Central Daylight Time),236535.59999999963,raisin,1100,I,m,m,None,521,321.0,200.0,72,1,2161.7999999988824,234373.80000000075,7776,bronze,NF,C,226983,226983,225154,226266,225154,227316,226782,226782,227316,11
12,test,1,con,1,m,Tue Mar 10 2026 13:37:05 GMT-0500 (Central Daylight Time),238418.19999999925,bronze,900,I,m,m,None,433,218.0,215.0,66,1,1879.5,236538.69999999925,7776,bronze,NF,C,228965,228965,227319,228233,227319,229198,228750,228750,229198,12
13,test,1,con,1,m,Tue Mar 10 2026 13:37:05 GMT-0500 (Central Daylight Time),240468.90000000037,iron,1100,I,m,m,None,407,208.0,199.0,108,1,2046.9000000003725,238422.0,7776,iron,NF,C,231031,231031,229202,230315,229202,231249,230832,230832,231249,13
14,test,1,con,1,m,Tue Mar 10 2026 13:37:05 GMT-0500 (Central Daylight Time),242333.40000000037,gold,900,I,m,m,None,422,222.0,200.0,98,1,1861.2000000011176,240472.19999999925,7776,gold,NF,C,232881,232881,231252,232164,231252,233113,232681,232681,233113,14
15,test,1,con,1,m,Tue Mar 10 2026 13:37:05 GMT-0500 (Central Daylight Time),244200.09999999963,iron,900,I,m,m,None,432,220.0,212.0,106,1,1863.7999999988824,242336.30000000075,7776,iron,NF,C,234747,234747,233116,234030,233117,234980,234535,234535,234980,15
16,test,1,con,1,z,Tue Mar 10 2026 13:37:05 GMT-0500 (Central Daylight Time),246083.0,banana,900,I,z,z,None,442,243.0,199.0,2,1,1879.4000000003725,244203.59999999963,7776,banana,NF,C,236612,236612,234984,235896,234984,236863,236413,236413,236863,16
17,test,1,con,1,m,Tue Mar 10 2026 13:37:05 GMT-0500 (Central Daylight Time),247964.90000000037,copper,900,I,m,m,None,440,240.0,200.0,74,1,1878.800000000745,246086.09999999963,7776,copper,NF,C,238496,238496,236866,237779,236866,238745,238296,238296,238745,17
18,test,1,inc,1,m,Tue Mar 10 2026 13:37:05 GMT-0500 (Central Daylight Time),250082.19999999925,orange,1000,I,m,m,None,567,368.0,199.0,95,1,2114.39999999851,247967.80000000075,7776,cobalt,NF,C,240478,240479,238748,239762,238748,240862,240279,240279,240862,18
19,test,1,con,1,m,Tue Mar 10 2026 13:37:05 GMT-0500 (Central Daylight Time),252048.30000000075,gold,800,I,m,m,None,637,438.0,199.0,97,1,1963.300000000745,250085.0,7776,gold,NF,C,242377,242378,240865,241677,240865,242828,242178,242178,242828,19
20,test,1,inc,1,m,Tue Mar 10 2026 13:37:05 GMT-0500 (Central Daylight Time),254113.09999999963,pear,900,I,m,m,None,626,426.0,200.0,102,1,2061.9000000003725,252051.19999999925,7776,gold,NF,C,244461,244461,242831,243744,242832,244893,244261,244261,244893,20
21,test,1,con,1,m,Tue Mar 10 2026 13:37:05 GMT-0500 (Central Daylight Time),255995.80000000075,cobalt,900,I,m,m,None,440,240.0,200.0,90,1,1879.300000000745,254116.5,7776,cobalt,NF,C,246527,246527,244897,245809,244897,246776,246326,246326,246776,21
22,test,1,con,1,z,Tue Mar 10 2026 13:37:05 GMT-0500 (Central Daylight Time),257961.80000000075,cherry,900,I,z,z,None,533,334.0,199.0,10,1,1962.0,255999.80000000075,7776,cherry,NF,C,248393,248393,246780,247692,246780,248742,248193,248193,248742,22
23,test,1,inc,1,m,Tue Mar 10 2026 13:37:05 GMT-0500 (Central Daylight Time),259994.90000000037,kiwi,1000,I,m,m,None,484,284.0,200.0,127,1,2029.5,257965.40000000037,7776,lead,NF,C,250475,250475,248745,249759,248746,250775,250275,250275,250775,23
23,test,1,con,0,z,Tue Mar 10 2026 13:37:05 GMT-0500 (Central Daylight Time),261977.19999999925,lime,1000,I,m,m,None,435,236.0,199.0,35,1,1979.199999999255,259998.0,7776,lime,NF,C,252507,252507,250778,251792,250778,252757,252308,252308,252757,24
24,test,1,inc,1,z,Tue Mar 10 2026 13:37:05 GMT-0500 (Central Daylight Time),263893.30000000075,bronze,800,I,z,z,None,580,380.0,200.0,21,1,1913.300000000745,261980.0,7776,orange,NF,C,254291,254291,252760,253574,252760,254673,254090,254090,254673,25
25,test,1,inc,1,z,Tue Mar 10 2026 13:37:05 GMT-0500 (Central Daylight Time),266159.4000000004,lead,1100,I,z,z,None,629,429.0,200.0,40,1,2262.7000000011176,263896.69999999925,7776,lime,NF,C,256506,256506,254677,255790,254677,256940,256306,256306,256939,26
26,test,1,inc,1,z,Tue Mar 10 2026 13:37:05 GMT-0500 (Central Daylight Time),268209.0999999996,iron,900,I,z,z,None,611,411.0,200.0,38,1,2046.699999999255,266162.4000000004,7776,lime,NF,C,258572,258572,256942,257856,256943,258989,258372,258372,258989,27
27,test,1,con,1,z,Tue Mar 10 2026 13:37:05 GMT-0500 (Central Daylight Time),270108.30000000075,plum,800,I,z,z,None,556,357.0,199.0,57,1,1896.300000000745,268212.0,7776,plum,NF,C,260522,260522,258992,259806,258992,260888,260322,260322,260888,28
28,test,1,con,1,z,Tue Mar 10 2026 13:37:05 GMT-0500 (Central Daylight Time),272056.80000000075,lime,900,I,z,z,None,509,310.0,199.0,34,1,1945.6000000014901,270111.19999999925,7776,lime,NF,C,262521,262521,260891,261806,260891,262837,262322,262322,262837,29
29,test,1,inc,1,z,Tue Mar 10 2026 13:37:05 GMT-0500 (Central Daylight Time),274223.69999999925,cobalt,1100,I,z,z,None,528,329.0,199.0,16,1,2163.699999999255,272060.0,7776,cherry,NF,C,264670,264670,262840,263954,262840,265004,264471,264471,265004,30
30,test,1,con,1,z,Tue Mar 10 2026 13:37:05 GMT-0500 (Central Daylight Time),276206.30000000075,banana,1000,I,z,z,None,438,238.0,200.0,3,1,1979.800000000745,274226.5,7776,banana,NF,C,266737,266737,265007,266020,265007,266986,266537,266537,266986,31
31,test,1,inc,1,z,Tue Mar 10 2026 13:37:05 GMT-0500 (Central Daylight Time),278372.0,cobalt,1100,I,z,z,None,547,348.0,199.0,32,1,2162.800000000745,276209.19999999925,7776,raisin,NF,C,268803,268803,266989,268102,266989,269152,268603,268603,269152,32
32,test,1,con,1,m,Tue Mar 10 2026 13:37:05 GMT-0500 (Central Daylight Time),280171.80000000075,zinc,800,I,m,m,None,466,266.0,200.0,113,1,1797.2000000011176,278374.5999999996,7776,zinc,NF,C,270686,270686,269155,269969,269155,270952,270485,270485,270952,33
33,test,1,con,1,z,Tue Mar 10 2026 13:37:05 GMT-0500 (Central Daylight Time),282188.5,cherry,1000,I,z,z,None,468,267.0,201.0,11,1,2013.5999999996275,280174.9000000004,7776,cherry,NF,C,272685,272685,270955,271969,270955,272969,272484,272484,272969,34
34,test,1,inc,1,m,Tue Mar 10 2026 13:37:05 GMT-0500 (Central Daylight Time),284154.0999999996,cherry,900,I,m,m,None,518,318.0,200.0,94,1,1962.4000000003725,282191.69999999925,7776,cobalt,NF,C,274601,274601,272972,273884,272972,274934,274401,274401,274934,35
35,test,1,con,1,m,Tue Mar 10 2026 13:37:05 GMT-0500 (Central Daylight Time),286136.5999999996,bronze,1000,I,m,m,None,436,235.0,201.0,67,1,1979.2999999988824,284157.30000000075,7776,bronze,NF,C,276668,276668,274937,275951,274937,276917,276467,276467,276917,36
36,test,1,inc,1,m,Tue Mar 10 2026 13:37:05 GMT-0500 (Central Daylight Time),288102.0999999996,banana,800,I,m,m,None,620,421.0,199.0,85,1,1962.2999999988824,286139.80000000075,7776,silver,NF,C,278450,278450,276920,277733,276920,278882,278250,278250,278882,37
37,test,1,inc,1,z,Tue Mar 10 2026 13:37:05 GMT-0500 (Central Daylight Time),290269.19999999925,lead,1100,I,z,z,None,548,333.0,215.0,64,1,2164.39999999851,288104.80000000075,7776,plum,NF,C,280716,280716,278885,279999,278885,281049,280500,280500,281049,38
38,test,1,con,1,z,Tue Mar 10 2026 13:37:05 GMT-0500 (Central Daylight Time),292335.0,kiwi,1000,I,z,z,None,520,321.0,199.0,51,1,2063.199999999255,290271.80000000075,7776,kiwi,NF,C,282782,282782,281052,282065,281052,283115,282582,282582,283115,39
39,test,1,inc,1,z,Tue Mar 10 2026 13:37:05 GMT-0500 (Central Daylight Time),294333.9000000004,copper,900,I,z,z,None,555,356.0,199.0,6,1,1995.300000000745,292338.5999999996,7776,banana,NF,C,284747,284747,283119,284031,283119,285114,284548,284548,285114,40
40,test,1,inc,1,m,Tue Mar 10 2026 13:37:05 GMT-0500 (Central Daylight Time),296450.5999999996,kiwi,1000,I,m,m,None,569,368.0,201.0,111,1,2113.699999999255,294336.9000000004,7776,iron,NF,C,286847,286847,285117,286130,285117,287231,286646,286646,287231,41
41,test,1,con,1,z,Tue Mar 10 2026 13:37:05 GMT-0500 (Central Daylight Time),298482.80000000075,plum,1000,I,z,z,None,484,283.0,201.0,59,1,2029.5,296453.30000000075,7776,plum,NF,C,288964,288964,287233,288246,287233,289263,288763,288763,289263,42
42,test,1,inc,1,z,Tue Mar 10 2026 13:37:05 GMT-0500 (Central Daylight Time),300482.30000000075,iron,900,I,z,z,None,559,359.0,200.0,46,1,1996.4000000003725,298485.9000000004,7776,pear,NF,C,290895,290896,289266,290180,289266,291262,290695,290695,291262,43
43,test,1,inc,1,m,Tue Mar 10 2026 13:37:05 GMT-0500 (Central Daylight Time),302699.80000000075,plum,1100,I,m,m,None,577,377.0,200.0,120,1,2215.0,300484.80000000075,7776,zinc,NF,C,293095,293095,291265,292378,291265,293480,292895,292895,293480,44
44,test,1,inc,1,z,Tue Mar 10 2026 13:37:05 GMT-0500 (Central Daylight Time),304581.19999999925,gold,800,I,z,z,None,540,340.0,200.0,53,1,1878.5,302702.69999999925,7776,kiwi,NF,C,295011,295011,293483,294296,293483,295361,294811,294811,295361,45
45,test,1,inc,1,m,Tue Mar 10 2026 13:37:05 GMT-0500 (Central Daylight Time),306512.69999999925,lime,800,I,m,m,None,600,386.0,214.0,109,1,1928.7999999988824,304583.9000000004,7776,iron,NF,C,296893,296893,295364,296177,295364,297293,296679,296679,297293,46
46,test,1,inc,1,m,Tue Mar 10 2026 13:37:05 GMT-0500 (Central Daylight Time),308712.9000000004,raisin,1100,I,m,m,None,553,354.0,199.0,96,1,2197.300000000745,306515.5999999996,7776,cobalt,NF,C,299126,299126,297296,298410,297296,299493,298927,298927,299493,47
47,test,1,inc,1,m,Tue Mar 10 2026 13:37:05 GMT-0500 (Central Daylight Time),310562.30000000075,banana,800,I,m,m,None,509,309.0,200.0,93,1,1846.5,308715.80000000075,7776,cobalt,NF,C,301026,301026,299496,300310,299496,301342,300825,300825,301342,48
48,test,1,con,1,m,Tue Mar 10 2026 13:37:05 GMT-0500 (Central Daylight Time),312910.9000000004,gold,1100,I,m,m,None,704,504.0,200.0,100,1,2346.0999999996275,310564.80000000075,7776,gold,NF,C,303175,303175,301345,302458,301345,303691,302975,302975,303691,49
49,test,1,inc,1,m,Tue Mar 10 2026 13:37:05 GMT-0500 (Central Daylight Time),315177.69999999925,plum,1100,I,m,m,None,634,419.0,215.0,104,1,2264.2999999988824,312913.4000000004,7776,gold,NF,C,305524,305524,303693,304808,303694,305958,305309,305309,305958,50
50,test,1,inc,1,z,Tue Mar 10 2026 13:37:05 GMT-0500 (Central Daylight Time),317360.0,cobalt,1100,I,z,z,None,537,337.0,200.0,24,1,2179.4000000003725,315180.5999999996,7776,orange,NF,C,307790,307790,305961,307074,305961,308140,307590,307590,308140,51
51,test,1,inc,1,z,Tue Mar 10 2026 13:37:05 GMT-0500 (Central Daylight Time),319359.9000000004,gold,800,I,z,z,None,655,455.0,200.0,45,1,1997.4000000003725,317362.5,7776,pear,NF,C,309673,309673,308143,308956,308143,310140,309473,309473,310140,52
52,test,1,inc,1,z,Tue Mar 10 2026 13:37:05 GMT-0500 (Central Daylight Time),321392.19999999925,zinc,1000,I,z,z,None,495,295.0,200.0,39,1,2029.5999999996275,319362.5999999996,7776,lime,NF,C,311872,311872,310143,311156,310143,312172,311672,311672,312172,53
53,test,1,inc,1,z,Tue Mar 10 2026 13:37:05 GMT-0500 (Central Daylight Time),323374.9000000004,copper,900,I,z,z,None,546,346.0,200.0,30,1,1979.7000000011176,321395.19999999925,7776,raisin,NF,C,313805,313805,312175,313089,312175,314155,313605,313605,314155,54
54,test,1,con,1,m,Tue Mar 10 2026 13:37:05 GMT-0500 (Central Daylight Time),325373.30000000075,lead,900,I,m,m,None,564,364.0,200.0,122,1,1995.9000000003725,323377.4000000004,7776,lead,NF,C,315787,315787,314157,315071,314158,316153,315587,315587,316153,55
55,test,1,con,1,z,Tue Mar 10 2026 13:37:05 GMT-0500 (Central Daylight Time),327207.4000000004,kiwi,800,I,z,z,None,495,296.0,199.0,49,1,1831.5,325375.9000000004,7776,kiwi,NF,C,317687,317687,316156,316971,316156,317987,317487,317487,317987,56
56,test,1,inc,1,m,Tue Mar 10 2026 13:37:05 GMT-0500 (Central Daylight Time),329139.5999999996,lime,800,I,m,m,None,591,391.0,200.0,117,1,1929.699999999255,327209.9000000004,7776,zinc,NF,C,319520,319520,317990,318804,317990,319920,319320,319320,319920,57
57,test,1,con,1,m,Tue Mar 10 2026 13:37:05 GMT-0500 (Central Daylight Time),331221.69999999925,lead,800,I,m,m,None,762,562.0,200.0,121,1,2079.5999999996275,329142.0999999996,7776,lead,NF,C,321437,321437,319922,320736,319922,322002,321237,321237,322002,58
58,test,1,con,1,m,Tue Mar 10 2026 13:37:05 GMT-0500 (Central Daylight Time),333122.19999999925,silver,800,I,m,m,None,554,353.0,201.0,81,1,1898.0,331224.19999999925,7776,silver,NF,C,323535,323535,322004,322819,322004,323902,323334,323334,323902,59
59,test,1,inc,1,z,Tue Mar 10 2026 13:37:05 GMT-0500 (Central Daylight Time),335003.5,bronze,800,I,z,z,None,533,333.0,200.0,29,1,1878.0999999996275,333125.4000000004,7776,raisin,NF,C,325434,325434,323905,324718,323906,325784,325234,325234,325783,60
60,test,1,inc,1,m,Tue Mar 10 2026 13:37:05 GMT-0500 (Central Daylight Time),337003.80000000075,cherry,900,I,m,m,None,557,358.0,199.0,86,1,1997.5,335006.30000000075,7776,silver,NF,C,327417,327417,325786,326701,325787,327784,327218,327218,327784,61
61,test,1,con,1,z,Tue Mar 10 2026 13:37:05 GMT-0500 (Central Daylight Time),338819.69999999925,banana,800,I,z,z,None,475,275.0,200.0,1,1,1813.0999999996275,337006.5999999996,7776,banana,NF,C,329317,329317,327787,328600,327787,329600,329117,329117,329600,62
62,test,1,inc,1,m,Tue Mar 10 2026 13:37:05 GMT-0500 (Central Daylight Time),340885.5,orange,1000,I,m,m,None,516,317.0,199.0,87,1,2062.9000000003725,338822.5999999996,7776,silver,NF,C,331332,331332,329603,330616,329603,331666,331133,331133,331666,63
63,test,1,con,1,z,Tue Mar 10 2026 13:37:05 GMT-0500 (Central Daylight Time),343084.19999999925,raisin,1100,I,z,z,None,563,364.0,199.0,28,1,2196.199999999255,340888.0,7776,raisin,NF,C,333499,333499,331668,332782,331668,333864,333299,333299,333864,64
64,test,1,con,1,m,Tue Mar 10 2026 13:37:05 GMT-0500 (Central Daylight Time),345034.30000000075,zinc,900,I,m,m,None,508,309.0,199.0,114,1,1947.2000000011176,343087.0999999996,7776,zinc,NF,C,335498,335498,333867,334781,333867,335814,335299,335299,335814,65
65,test,1,inc,1,m,Tue Mar 10 2026 13:37:05 GMT-0500 (Central Daylight Time),346966.69999999925,cherry,900,I,m,m,None,489,289.0,200.0,78,1,1929.699999999255,345037.0,7776,copper,NF,C,337447,337447,335817,336730,335817,337747,337247,337247,337747,66
66,test,1,inc,1,z,Tue Mar 10 2026 13:37:05 GMT-0500 (Central Daylight Time),348950.0,copper,900,I,z,z,None,539,338.0,201.0,22,1,1979.5999999996275,346970.4000000004,7776,orange,NF,C,339381,339381,337750,338663,337751,339730,339180,339180,339730,67
67,test,1,inc,1,z,Tue Mar 10 2026 13:37:05 GMT-0500 (Central Daylight Time),350931.69999999925,iron,900,I,z,z,None,541,341.0,200.0,62,1,1979.2999999988824,348952.4000000004,7776,plum,NF,C,341362,341362,339732,340646,339733,341712,341162,341162,341712,68
68,test,1,con,1,z,Tue Mar 10 2026 13:37:05 GMT-0500 (Central Daylight Time),352832.0999999996,raisin,800,I,z,z,None,562,363.0,199.0,25,1,1897.5999999996275,350934.5,7776,raisin,NF,C,343245,343245,341715,342529,341715,343612,343046,343046,343612,69
69,test,1,inc,1,z,Tue Mar 10 2026 13:37:05 GMT-0500 (Central Daylight Time),354864.0999999996,iron,900,I,z,z,None,585,385.0,200.0,54,1,2029.199999999255,352834.9000000004,7776,kiwi,NF,C,345246,345246,343615,344529,343615,345644,345045,345045,345644,70
70,test,1,con,1,m,Tue Mar 10 2026 13:37:05 GMT-0500 (Central Daylight Time),356830.80000000075,zinc,1000,I,m,m,None,430,231.0,199.0,115,1,1963.300000000745,354867.5,7776,zinc,NF,C,347377,347377,345648,346661,345648,347611,347178,347178,347611,71
71,test,1,inc,1,m,Tue Mar 10 2026 13:37:05 GMT-0500 (Central Daylight Time),358779.80000000075,pear,900,I,m,m,None,514,315.0,199.0,110,1,1946.5,356833.30000000075,7776,iron,NF,C,349244,349244,347613,348527,347614,349560,349044,349044,349560,72
72,test,1,con,1,z,Tue Mar 10 2026 13:37:05 GMT-0500 (Central Daylight Time),360861.80000000075,raisin,1000,I,z,z,None,546,346.0,200.0,27,1,2079.4000000003725,358782.4000000004,7776,raisin,NF,C,351293,351293,349562,350577,349563,351642,351092,351092,351642,73
73,test,1,inc,1,z,Tue Mar 10 2026 13:37:05 GMT-0500 (Central Daylight Time),362828.69999999925,copper,900,I,z,z,None,522,307.0,215.0,14,1,1964.0,360864.69999999925,7776,cherry,NF,C,353292,353292,351645,352560,351645,353609,353077,353077,353609,74
74,test,1,inc,1,z,Tue Mar 10 2026 13:37:05 GMT-0500 (Central Daylight Time),364645.4000000004,bronze,800,I,z,z,None,480,281.0,199.0,13,1,1814.0,362831.4000000004,7776,cherry,NF,C,355142,355142,353611,354426,353612,355425,354942,354942,355425,75
75,test,1,inc,1,z,Tue Mar 10 2026 13:37:05 GMT-0500 (Central Daylight Time),366694.5,zinc,1000,I,z,z,None,505,306.0,199.0,55,1,2046.699999999255,364647.80000000075,7776,kiwi,NF,C,357157,357157,355428,356442,355428,357475,356958,356958,357475,76
76,test,1,con,1,m,Tue Mar 10 2026 13:37:05 GMT-0500 (Central Daylight Time),368860.0,lead,1000,I,m,m,None,625,425.0,200.0,123,1,2163.0,366697.0,7776,lead,NF,C,359207,359207,357477,358490,357477,359640,359007,359007,359640,77
77,test,1,inc,1,m,Tue Mar 10 2026 13:37:05 GMT-0500 (Central Daylight Time),371092.5999999996,plum,1100,I,m,m,None,597,382.0,215.0,112,1,2229.699999999255,368862.9000000004,7776,iron,NF,C,361489,361489,359643,360757,359643,361873,361274,361274,361873,78
78,test,1,con,1,z,Tue Mar 10 2026 13:37:05 GMT-0500 (Central Daylight Time),373191.80000000075,banana,1100,I,z,z,None,470,271.0,199.0,4,1,2096.7000000011176,371095.0999999996,7776,banana,NF,C,363689,363689,361875,362989,361875,363972,363490,363490,363972,79
79,test,1,con,1,m,Tue Mar 10 2026 13:37:05 GMT-0500 (Central Daylight Time),374975.30000000075,iron,800,I,m,m,None,445,246.0,199.0,105,1,1780.5,373194.80000000075,7776,iron,NF,C,365506,365506,363975,364789,363975,365755,365306,365306,365755,80
80,test,1,con,1,z,Tue Mar 10 2026 13:37:05 GMT-0500 (Central Daylight Time),377107.9000000004,cherry,1100,I,z,z,None,484,284.0,200.0,12,1,2130.0999999996275,374977.80000000075,7776,cherry,NF,C,367587,367587,365758,366872,365758,367888,367387,367387,367888,81
81,test,1,inc,1,z,Tue Mar 10 2026 13:37:05 GMT-0500 (Central Daylight Time),379040.69999999925,gold,800,I,z,z,None,603,404.0,199.0,37,1,1930.3999999985099,377110.30000000075,7776,lime,NF,C,369403,369403,367890,368695,367891,369821,369204,369204,369821,82
82,test,1,inc,1,m,Tue Mar 10 2026 13:37:05 GMT-0500 (Central Daylight Time),381089.0999999996,cherry,900,I,m,m,None,610,410.0,200.0,70,1,2045.699999999255,379043.4000000004,7776,bronze,NF,C,371453,371453,369823,370737,369824,371869,371252,371252,371869,83
83,test,1,con,1,z,Tue Mar 10 2026 13:37:05 GMT-0500 (Central Daylight Time),383071.5999999996,orange,1000,I,z,z,None,437,237.0,200.0,19,1,1979.9000000003725,381091.69999999925,7776,orange,NF,C,373602,373602,371872,372887,371872,373852,373402,373402,373852,84
84,test,1,con,1,z,Tue Mar 10 2026 13:37:05 GMT-0500 (Central Daylight Time),385287.80000000075,pear,1100,I,z,z,None,578,378.0,200.0,44,1,2213.4000000003725,383074.4000000004,7776,pear,NF,C,375685,375685,373854,374969,373855,376068,375485,375485,376068,85
85,test,1,inc,1,m,Tue Mar 10 2026 13:37:05 GMT-0500 (Central Daylight Time),387537.9000000004,raisin,1100,I,m,m,None,602,402.0,200.0,88,1,2247.300000000745,385290.5999999996,7776,silver,NF,C,377901,377901,376071,377185,376071,378318,377701,377701,378318,86
86,test,1,inc,1,z,Tue Mar 10 2026 13:37:05 GMT-0500 (Central Daylight Time),389770.69999999925,lead,1100,I,z,z,None,584,384.0,200.0,48,1,2230.0,387540.69999999925,7776,pear,NF,C,380151,380151,378321,379434,378321,380551,379950,379950,380551,87
86,test,1,inc,0,m,Tue Mar 10 2026 13:37:05 GMT-0500 (Central Daylight Time),391702.4000000004,banana,800,I,z,z,None,589,388.0,201.0,69,1,1928.300000000745,389774.0999999996,7776,bronze,NF,C,382083,382083,380554,381367,380554,382482,381882,381882,382482,88
87,test,1,inc,1,m,Tue Mar 10 2026 13:37:05 GMT-0500 (Central Daylight Time),393885.19999999925,kiwi,1000,I,m,m,None,649,449.0,200.0,103,1,2180.2999999988824,391704.9000000004,7776,gold,NF,C,384216,384216,382485,383499,382485,384665,384016,384016,384665,89
88,test,1,con,1,m,Tue Mar 10 2026 13:37:05 GMT-0500 (Central Daylight Time),396068.19999999925,bronze,1100,I,m,m,None,541,341.0,200.0,68,1,2180.5,393887.69999999925,7776,bronze,NF,C,386498,386498,384668,385783,384668,386848,386298,386298,386848,90
89,test,1,con,1,z,Tue Mar 10 2026 13:37:05 GMT-0500 (Central Daylight Time),398301.19999999925,lime,1100,I,z,z,None,591,390.0,201.0,36,1,2230.5,396070.69999999925,7776,lime,NF,C,388682,388682,386851,387965,386851,389081,388481,388481,389081,91
90,test,1,con,1,z,Tue Mar 10 2026 13:37:05 GMT-0500 (Central Daylight Time),400200.0,pear,800,I,z,z,None,551,336.0,215.0,41,1,1892.199999999255,398307.80000000075,7776,pear,NF,C,390631,390631,389088,389898,389088,390980,390415,390415,390980,92
91,test,1,con,1,m,Tue Mar 10 2026 13:37:05 GMT-0500 (Central Daylight Time),402499.4000000004,lead,1100,I,m,m,None,650,450.0,200.0,124,1,2296.5999999996275,400202.80000000075,7776,lead,NF,C,392813,392813,390983,392097,390983,393279,392613,392613,393279,93
92,test,1,inc,1,z,Tue Mar 10 2026 13:37:05 GMT-0500 (Central Daylight Time),404449.4000000004,gold,800,I,z,z,None,609,410.0,199.0,61,1,1947.5,402501.9000000004,7776,plum,NF,C,394813,394813,393282,394096,393282,395229,394613,394613,395229,94
93,test,1,con,1,z,Tue Mar 10 2026 13:37:05 GMT-0500 (Central Daylight Time),406448.4000000004,pear,900,I,z,z,None,552,353.0,199.0,42,1,1992.800000000745,404455.5999999996,7776,pear,NF,C,396862,396862,395236,396145,395236,397228,396663,396663,397228,95
94,test,1,inc,1,z,Tue Mar 10 2026 13:37:05 GMT-0500 (Central Daylight Time),408348.30000000075,bronze,800,I,z,z,None,550,350.0,200.0,5,1,1897.2000000011176,406451.0999999996,7776,banana,NF,C,398761,398761,397231,398046,397231,399128,398561,398561,399128,96
95,test,1,inc,1,z,Tue Mar 10 2026 13:37:05 GMT-0500 (Central Daylight Time),410479.9000000004,silver,1000,I,z,z,None,602,403.0,199.0,15,1,2129.0999999996275,408350.80000000075,7776,cherry,NF,C,400844,400844,399131,400144,399131,401260,400645,400645,401260,97
96,test,1,con,1,m,Tue Mar 10 2026 13:37:05 GMT-0500 (Central Daylight Time),412479.0999999996,cobalt,1000,I,m,m,None,454,254.0,200.0,91,1,1996.5999999996275,410482.5,7776,cobalt,NF,C,402993,402993,401263,402277,401263,403259,402793,402793,403259,98
97,test,1,con,1,m,Tue Mar 10 2026 13:37:05 GMT-0500 (Central Daylight Time),414528.80000000075,iron,1000,I,m,m,None,503,303.0,200.0,107,1,2047.1000000014901,412481.69999999925,7776,iron,NF,C,404992,404992,403262,404276,403262,405309,404792,404792,405309,99
98,test,1,inc,1,m,Tue Mar 10 2026 13:37:05 GMT-0500 (Central Daylight Time),416495.0999999996,pear,900,I,m,m,None,521,321.0,200.0,118,1,1963.0,414532.0999999996,7776,zinc,NF,C,406942,406942,405312,406226,405312,407275,406742,406742,407275,100
99,test,1,con,1,m,Tue Mar 10 2026 13:37:05 GMT-0500 (Central Daylight Time),418660.30000000075,cobalt,1100,I,m,m,None,523,323.0,200.0,92,1,2162.2000000011176,416498.0999999996,7776,cobalt,NF,C,409108,409108,407278,408392,407278,409440,408908,408908,409440,101
100,test,1,inc,1,m,Tue Mar 10 2026 13:37:05 GMT-0500 (Central Daylight Time),420793.69999999925,kiwi,1000,I,m,m,None,593,394.0,199.0,119,1,2130.7999999988824,418662.9000000004,7776,zinc,NF,C,411173,411174,409443,410458,409443,411574,410974,410974,411574,102
101,test,1,con,1,z,Tue Mar 10 2026 13:37:05 GMT-0500 (Central Daylight Time),422975.9000000004,kiwi,900,I,z,z,None,743,544.0,199.0,50,1,2179.2000000011176,420796.69999999925,7776,kiwi,NF,C,413207,413207,411577,412492,411577,413756,413007,413007,413756,103
102,test,1,inc,1,z,Tue Mar 10 2026 13:37:05 GMT-0500 (Central Daylight Time),425158.69999999925,silver,1000,I,z,z,None,638,438.0,200.0,31,1,2180.199999999255,422978.5,7776,raisin,NF,C,415489,415489,413759,414772,413759,415939,415289,415289,415939,104
103,test,1,inc,1,z,Tue Mar 10 2026 13:37:05 GMT-0500 (Central Daylight Time),427475.0999999996,lead,1100,I,z,z,None,667,467.0,200.0,56,1,2313.7999999988824,425161.30000000075,7776,kiwi,NF,C,417772,417772,415941,417055,415942,418255,417572,417572,418255,105
104,test,1,con,1,z,Tue Mar 10 2026 13:37:05 GMT-0500 (Central Daylight Time),429691.0,plum,1100,I,z,z,None,566,351.0,215.0,60,1,2213.4000000003725,427477.5999999996,7776,plum,NF,C,420104,420104,418258,419372,418258,420471,419889,419889,420471,106
105,test,1,con,1,m,Tue Mar 10 2026 13:37:05 GMT-0500 (Central Daylight Time),431823.9000000004,zinc,1100,I,m,m,None,488,289.0,199.0,116,1,2130.4000000003725,429693.5,7776,zinc,NF,C,422303,422303,420474,421587,420474,422604,422104,422104,422604,107
106,test,1,inc,1,z,Tue Mar 10 2026 13:37:05 GMT-0500 (Central Daylight Time),433856.5999999996,silver,1000,I,z,z,None,486,287.0,199.0,7,1,2029.2999999988824,431827.30000000075,7776,banana,NF,C,424337,424337,422607,423620,422607,424637,424137,424137,424637,108
107,test,1,inc,1,m,Tue Mar 10 2026 13:37:05 GMT-0500 (Central Daylight Time),435738.9000000004,banana,800,I,m,m,None,543,342.0,201.0,77,1,1879.0999999996275,433859.80000000075,7776,copper,NF,C,426170,426170,424640,425454,424640,426519,425969,425969,426519,109
108,test,1,inc,1,m,Tue Mar 10 2026 13:37:05 GMT-0500 (Central Daylight Time),437671.80000000075,pear,900,I,m,m,None,504,304.0,200.0,126,1,1930.1000000014901,435741.69999999925,7776,lead,NF,C,428135,428135,426522,427434,426522,428452,427935,427935,428452,110
109,test,1,con,1,z,Tue Mar 10 2026 13:37:05 GMT-0500 (Central Daylight Time),439688.0999999996,plum,900,I,z,z,None,579,379.0,200.0,58,1,2013.699999999255,437674.4000000004,7776,plum,NF,C,430085,430085,428454,429368,428455,430468,429885,429885,430468,111
110,test,1,con,1,z,Tue Mar 10 2026 13:37:05 GMT-0500 (Central Daylight Time),441587.30000000075,cherry,800,I,z,z,None,558,359.0,199.0,9,1,1896.5,439690.80000000075,7776,cherry,NF,C,432001,432001,430471,431284,430471,432367,431801,431801,432367,112
111,test,1,con,1,z,Tue Mar 10 2026 13:37:05 GMT-0500 (Central Daylight Time),443669.69999999925,kiwi,1100,I,z,z,None,439,239.0,200.0,52,1,2078.5,441591.19999999925,7776,kiwi,NF,C,434200,434200,432371,433485,432372,434450,434000,434000,434450,113
112,test,1,con,1,m,Tue Mar 10 2026 13:37:05 GMT-0500 (Central Daylight Time),445636.69999999925,gold,1000,I,m,m,None,425,225.0,200.0,99,1,1964.5999999996275,443672.0999999996,7776,gold,NF,C,436182,436183,434452,435466,434452,436417,435982,435982,436417,114
113,test,1,inc,1,m,Tue Mar 10 2026 13:37:05 GMT-0500 (Central Daylight Time),447601.69999999925,lime,800,I,m,m,None,618,418.0,200.0,125,1,1962.199999999255,445639.5,7776,lead,NF,C,437949,437949,436420,437232,436420,438382,437749,437749,438382,115
114,test,1,inc,1,m,Tue Mar 10 2026 13:37:05 GMT-0500 (Central Daylight Time),449451.0,lime,800,I,m,m,None,509,308.0,201.0,101,1,1846.800000000745,447604.19999999925,7776,gold,NF,C,439915,439915,438384,439198,438384,440231,439714,439714,440231,116
115,test,1,con,1,m,Tue Mar 10 2026 13:37:05 GMT-0500 (Central Daylight Time),451517.5999999996,silver,1100,I,m,m,None,424,224.0,200.0,84,1,2064.199999999255,449453.4000000004,7776,silver,NF,C,442064,442064,440233,441348,440234,442298,441864,441864,442298,117
116,test,1,inc,1,m,Tue Mar 10 2026 13:37:05 GMT-0500 (Central Daylight Time),453716.30000000075,plum,1100,I,m,m,None,558,358.0,200.0,128,1,2196.300000000745,451520.0,7776,lead,NF,C,444129,444129,442300,443414,442300,444496,443929,443929,444496,118
117,test,1,inc,1,m,Tue Mar 10 2026 13:37:05 GMT-0500 (Central Daylight Time),455815.5,orange,1000,I,m,m,None,554,354.0,200.0,79,1,2096.5,453719.0,7776,copper,NF,C,446230,446230,444499,445513,444499,446596,446030,446030,446596,119
118,test,1,con,1,z,Tue Mar 10 2026 13:37:05 GMT-0500 (Central Daylight Time),457664.9000000004,lime,800,I,z,z,None,512,311.0,201.0,33,1,1845.7000000011176,455819.19999999925,7776,lime,NF,C,448129,448129,446599,447412,446600,448445,447928,447928,448445,120
119,test,1,con,1,m,Tue Mar 10 2026 13:37:05 GMT-0500 (Central Daylight Time),459664.0999999996,silver,900,I,m,m,None,553,354.0,199.0,82,1,1996.5,457667.5999999996,7776,silver,NF,C,450077,450077,448448,449362,448448,450444,449878,449878,450444,121
120,test,1,inc,1,z,Tue Mar 10 2026 13:37:05 GMT-0500 (Central Daylight Time),461714.80000000075,zinc,1000,I,z,z,None,501,302.0,199.0,63,1,2048.10000000149,459666.69999999925,7776,plum,NF,C,452178,452178,450447,451461,450447,452495,451978,451978,452495,122
121,test,1,con,1,z,Tue Mar 10 2026 13:37:05 GMT-0500 (Central Daylight Time),463763.80000000075,orange,900,I,z,z,None,600,400.0,200.0,18,1,2042.300000000745,461721.5,7776,orange,NF,C,454127,454127,452501,453411,452502,454544,453927,453927,454544,123
122,test,1,inc,1,z,Tue Mar 10 2026 13:37:05 GMT-0500 (Central Daylight Time),465845.69999999925,zinc,1000,I,z,z,None,539,339.0,200.0,47,1,2079.39999999851,463766.30000000075,7776,pear,NF,C,456276,456276,454546,455560,454547,456626,456076,456076,456626,124
123,test,1,con,1,z,Tue Mar 10 2026 13:37:05 GMT-0500 (Central Daylight Time),468145.19999999925,raisin,900,I,z,z,None,852,652.0,200.0,26,1,2296.5999999996275,465848.5999999996,7776,raisin,NF,C,458259,458260,456629,457543,456629,458925,458059,458059,458925,125
124,test,1,inc,1,z,Tue Mar 10 2026 13:37:05 GMT-0500 (Central Daylight Time),470227.5,silver,1000,I,z,z,None,534,333.0,201.0,23,1,2079.699999999255,468147.80000000075,7776,orange,NF,C,460658,460658,458928,459942,458928,461008,460457,460457,461008,126
125,test,1,con,1,m,Tue Mar 10 2026 13:37:05 GMT-0500 (Central Daylight Time),472360.5999999996,copper,1000,I,m,m,None,594,395.0,199.0,75,1,2130.5999999996275,470230.0,7776,copper,NF,C,462740,462740,461010,462025,461010,463141,462541,462541,463141,127
126,test,1,con,1,m,Tue Mar 10 2026 13:37:05 GMT-0500 (Central Daylight Time),474576.69999999925,silver,1000,I,m,m,None,694,495.0,199.0,83,1,2213.699999999255,472363.0,7776,silver,NF,C,464857,464857,463143,464157,463143,465357,464658,464658,465357,128
