acc_sum,block,block_c,change,condition,correct,correct_response,datetime,endtime,face,project,response,response_time,row_sel,session_number,start_end,starttime,subject_id,task,task_vers,trial
0,prac,1,,1-Back,,,Mon Jun 22 2026 11:26:51 GMT-0400 (Eastern Daylight Time),,124_o_f_d_a.png,I,space,10880,1,3,,,9038,VNB,A,0
1,prac,1,0.0,1-Back,1.0,m,Mon Jun 22 2026 11:26:51 GMT-0400 (Eastern Daylight Time),196843.79999995232,071_y_f_n_a.png,I,m,838,2,3,1655.0,195188.79999995232,9038,VNB,A,1
2,prac,1,0.0,1-Back,1.0,m,Mon Jun 22 2026 11:26:51 GMT-0400 (Eastern Daylight Time),199360.29999995232,165_m_m_h_a.png,I,m,1685,3,3,2507.399999856949,196852.90000009537,9038,VNB,A,2
3,prac,1,0.0,1-Back,1.0,m,Mon Jun 22 2026 11:26:51 GMT-0400 (Eastern Daylight Time),201276.90000009537,109_y_m_d_a.png,I,m,1065,4,3,1903.0,199373.90000009537,9038,VNB,A,3
4,prac,1,0.0,1-Back,1.0,m,Mon Jun 22 2026 11:26:51 GMT-0400 (Eastern Daylight Time),202926.70000004768,124_o_f_n_a.png,I,m,774,5,3,1637.9000000953674,201288.79999995232,9038,VNB,A,4
5,prac,1,1.0,1-Back,1.0,z,Mon Jun 22 2026 11:26:51 GMT-0400 (Eastern Daylight Time),205476.90000009537,109_y_m_n_a.png,I,z,1719,6,3,2537.7999999523163,202939.10000014305,9038,VNB,A,5
6,prac,1,0.0,1-Back,1.0,m,Mon Jun 22 2026 11:26:51 GMT-0400 (Eastern Daylight Time),207193.60000014305,039_o_m_h_a.png,I,m,883,7,3,1704.6000001430511,205489.0,9038,VNB,A,6
6,prac,1,0.0,1-Back,0.0,m,Mon Jun 22 2026 11:26:51 GMT-0400 (Eastern Daylight Time),208893.40000009537,139_m_f_d_a.png,I,z,879,8,3,1691.0,207202.40000009537,9038,VNB,A,7
7,prac,1,1.0,1-Back,1.0,z,Mon Jun 22 2026 11:26:51 GMT-0400 (Eastern Daylight Time),211276.90000009537,071_y_f_d_a.png,I,z,1548,9,3,2374.7999999523163,208902.10000014305,9038,VNB,A,8
8,prac,1,0.0,1-Back,1.0,m,Mon Jun 22 2026 11:26:51 GMT-0400 (Eastern Daylight Time),213043.60000014305,165_m_m_n_a.png,I,m,931,10,3,1757.4000000953674,211286.20000004768,9038,VNB,A,9
9,prac,1,0.0,1-Back,1.0,m,Mon Jun 22 2026 11:26:51 GMT-0400 (Eastern Daylight Time),214793.70000004768,124_o_f_h_a.png,I,m,900,11,3,1741.5999999046326,213052.10000014305,9038,VNB,A,10
10,prac,1,0.0,1-Back,1.0,m,Mon Jun 22 2026 11:26:51 GMT-0400 (Eastern Daylight Time),216810.10000014305,109_y_m_d_a.png,I,m,1233,12,3,2006.9000000953674,214803.20000004768,9038,VNB,A,11
0,test,1,0.0,1-Back,,,Mon Jun 22 2026 11:26:51 GMT-0400 (Eastern Daylight Time),216810.10000014305,071_y_f_d_a.png,I,space,10468,1,3,2006.9000000953674,214803.20000004768,9038,VNB,A,0
1,test,1,0.0,1-Back,1.0,m,Mon Jun 22 2026 11:26:51 GMT-0400 (Eastern Daylight Time),240326.90000009537,139_m_f_n_a.png,I,m,624,2,3,1643.4000000953674,238683.5,9038,VNB,A,1
2,test,1,0.0,1-Back,1.0,m,Mon Jun 22 2026 11:26:51 GMT-0400 (Eastern Daylight Time),242076.90000009537,039_o_m_h_a.png,I,m,718,3,3,1743.2000000476837,240333.70000004768,9038,VNB,A,2
3,test,1,1.0,1-Back,1.0,z,Mon Jun 22 2026 11:26:51 GMT-0400 (Eastern Daylight Time),244160.10000014305,165_m_m_h_a.png,I,z,1064,4,3,2076.9000000953674,242083.20000004768,9038,VNB,A,3
4,test,1,0.0,1-Back,1.0,m,Mon Jun 22 2026 11:26:51 GMT-0400 (Eastern Daylight Time),245943.40000009537,124_o_f_n_a.png,I,m,764,5,3,1776.6000001430511,244166.79999995232,9038,VNB,A,4
5,test,1,0.0,1-Back,1.0,m,Mon Jun 22 2026 11:26:51 GMT-0400 (Eastern Daylight Time),247926.60000014305,109_y_m_d_a.png,I,m,965,6,3,1973.7000000476837,245952.90000009537,9038,VNB,A,5
5,test,1,1.0,1-Back,0.0,z,Mon Jun 22 2026 11:26:51 GMT-0400 (Eastern Daylight Time),249576.90000009537,139_m_f_d_a.png,I,m,630,7,3,1644.5,247932.40000009537,9038,VNB,A,6
6,test,1,0.0,1-Back,1.0,m,Mon Jun 22 2026 11:26:51 GMT-0400 (Eastern Daylight Time),251576.79999995232,071_y_f_h_a.png,I,m,980,8,3,1993.2999999523163,249583.5,9038,VNB,A,7
7,test,1,0.0,1-Back,1.0,m,Mon Jun 22 2026 11:26:51 GMT-0400 (Eastern Daylight Time),253459.90000009537,039_o_m_n_a.png,I,m,859,9,3,1877.0,251582.90000009537,9038,VNB,A,8
8,test,1,0.0,1-Back,1.0,m,Mon Jun 22 2026 11:26:51 GMT-0400 (Eastern Daylight Time),255376.79999995232,109_y_m_h_a.png,I,m,896,10,3,1913.5999999046326,253463.20000004768,9038,VNB,A,9
9,test,1,0.0,1-Back,1.0,m,Mon Jun 22 2026 11:26:51 GMT-0400 (Eastern Daylight Time),257293.29999995232,039_o_m_d_a.png,I,m,883,11,3,1909.6999998092651,255383.60000014305,9038,VNB,A,10
10,test,1,1.0,1-Back,1.0,z,Mon Jun 22 2026 11:26:51 GMT-0400 (Eastern Daylight Time),259176.90000009537,124_o_f_d_a.png,I,z,863,12,3,1876.7000000476837,257300.20000004768,9038,VNB,A,11
11,test,1,0.0,1-Back,1.0,m,Mon Jun 22 2026 11:26:51 GMT-0400 (Eastern Daylight Time),261093.40000009537,165_m_m_n_a.png,I,m,891,13,3,1908.9000000953674,259184.5,9038,VNB,A,12
12,test,1,1.0,1-Back,1.0,z,Mon Jun 22 2026 11:26:51 GMT-0400 (Eastern Daylight Time),262960.2000000477,071_y_f_n_a.png,I,z,848,14,3,1858.5999999046326,261101.60000014305,9038,VNB,A,13
13,test,1,0.0,1-Back,1.0,m,Mon Jun 22 2026 11:26:51 GMT-0400 (Eastern Daylight Time),264726.7999999523,139_m_f_h_a.png,I,m,741,15,3,1759.0999999046326,262967.7000000477,9038,VNB,A,14
13,test,1,0.0,1-Back,0.0,m,Mon Jun 22 2026 11:26:51 GMT-0400 (Eastern Daylight Time),266693.40000009537,165_m_m_d_a.png,I,z,933,16,3,1958.7999999523163,264734.60000014305,9038,VNB,A,15
14,test,1,0.0,1-Back,1.0,m,Mon Jun 22 2026 11:26:51 GMT-0400 (Eastern Daylight Time),269176.7999999523,109_y_m_n_a.png,I,m,1454,17,3,2475.0999999046326,266701.7000000477,9038,VNB,A,16
15,test,1,0.0,1-Back,1.0,m,Mon Jun 22 2026 11:26:51 GMT-0400 (Eastern Daylight Time),271410.2000000477,124_o_f_h_a.png,I,m,1212,18,3,2226.7999999523163,269183.40000009537,9038,VNB,A,17
0,test,2,0.0,1-Back,,,Mon Jun 22 2026 11:26:51 GMT-0400 (Eastern Daylight Time),271410.2000000477,109_y_m_n_a.png,I,space,2266,1,3,2226.7999999523163,269183.40000009537,9038,VNB,A,0
1,test,2,0.0,1-Back,1.0,m,Mon Jun 22 2026 11:26:51 GMT-0400 (Eastern Daylight Time),277410.10000014305,071_y_f_h_a.png,I,m,678,2,3,1692.3000001907349,275717.7999999523,9038,VNB,A,1
2,test,2,1.0,1-Back,1.0,m,Mon Jun 22 2026 11:26:51 GMT-0400 (Eastern Daylight Time),279676.7999999523,039_o_m_n_a.png,I,m,1242,3,3,2260.199999809265,277416.60000014305,9038,VNB,A,2
3,test,2,0.0,1-Back,1.0,m,Mon Jun 22 2026 11:26:51 GMT-0400 (Eastern Daylight Time),281676.7999999523,139_m_f_d_a.png,I,m,967,4,3,1993.2999999523163,279683.5,9038,VNB,A,3
4,test,2,0.0,1-Back,1.0,z,Mon Jun 22 2026 11:26:51 GMT-0400 (Eastern Daylight Time),283576.60000014305,165_m_m_d_a.png,I,z,880,5,3,1893.4000000953674,281683.2000000477,9038,VNB,A,4
5,test,2,0.0,1-Back,1.0,m,Mon Jun 22 2026 11:26:51 GMT-0400 (Eastern Daylight Time),285460.2000000477,109_y_m_h_a.png,I,m,851,6,3,1878.0,283582.2000000477,9038,VNB,A,5
6,test,2,1.0,1-Back,1.0,z,Mon Jun 22 2026 11:26:51 GMT-0400 (Eastern Daylight Time),287360.0,124_o_f_h_a.png,I,z,880,7,3,1891.2999999523163,285468.7000000477,9038,VNB,A,6
7,test,2,0.0,1-Back,1.0,m,Mon Jun 22 2026 11:26:51 GMT-0400 (Eastern Daylight Time),289076.7000000477,139_m_f_n_a.png,I,m,692,8,3,1710.0999999046326,287366.60000014305,9038,VNB,A,7
8,test,2,0.0,1-Back,1.0,m,Mon Jun 22 2026 11:26:51 GMT-0400 (Eastern Daylight Time),291093.7000000477,071_y_f_d_a.png,I,m,1000,9,3,2009.7999999523163,289083.90000009537,9038,VNB,A,8
9,test,2,0.0,1-Back,1.0,m,Mon Jun 22 2026 11:26:51 GMT-0400 (Eastern Daylight Time),292927.2000000477,165_m_m_n_a.png,I,m,816,10,3,1823.2000000476837,291104.0,9038,VNB,A,9
10,test,2,1.0,1-Back,1.0,m,Mon Jun 22 2026 11:26:51 GMT-0400 (Eastern Daylight Time),295260.0,139_m_f_h_a.png,I,m,1301,11,3,2326.899999856949,292933.10000014305,9038,VNB,A,10
11,test,2,0.0,1-Back,1.0,z,Mon Jun 22 2026 11:26:51 GMT-0400 (Eastern Daylight Time),296793.60000014305,039_o_m_h_a.png,I,z,505,12,3,1525.4000000953674,295268.2000000477,9038,VNB,A,11
12,test,2,0.0,1-Back,1.0,m,Mon Jun 22 2026 11:26:51 GMT-0400 (Eastern Daylight Time),298626.7000000477,109_y_m_d_a.png,I,m,802,13,3,1826.0999999046326,296800.60000014305,9038,VNB,A,12
13,test,2,0.0,1-Back,1.0,m,Mon Jun 22 2026 11:26:51 GMT-0400 (Eastern Daylight Time),300459.90000009537,124_o_f_n_a.png,I,m,801,14,3,1826.9000000953674,298633.0,9038,VNB,A,13
14,test,2,0.0,1-Back,1.0,z,Mon Jun 22 2026 11:26:51 GMT-0400 (Eastern Daylight Time),302143.0,071_y_f_n_a.png,I,z,655,15,3,1677.2999999523163,300465.7000000477,9038,VNB,A,14
15,test,2,1.0,1-Back,1.0,m,Mon Jun 22 2026 11:26:51 GMT-0400 (Eastern Daylight Time),303793.10000014305,165_m_m_h_a.png,I,m,620,16,3,1646.9000000953674,302146.2000000477,9038,VNB,A,15
16,test,2,0.0,1-Back,1.0,m,Mon Jun 22 2026 11:26:51 GMT-0400 (Eastern Daylight Time),305876.7999999523,124_o_f_d_a.png,I,m,1058,17,3,2079.0,303797.7999999523,9038,VNB,A,16
17,test,2,1.0,1-Back,1.0,z,Mon Jun 22 2026 11:26:51 GMT-0400 (Eastern Daylight Time),307610.0,039_o_m_d_a.png,I,z,711,18,3,1726.8999998569489,305883.10000014305,9038,VNB,A,17
0,test,3,1.0,1-Back,,,Mon Jun 22 2026 11:26:51 GMT-0400 (Eastern Daylight Time),307610.0,124_o_f_h_a.png,I,space,1442,1,3,1726.8999998569489,305883.10000014305,9038,VNB,A,0
1,test,3,0.0,1-Back,1.0,m,Mon Jun 22 2026 11:26:51 GMT-0400 (Eastern Daylight Time),312726.7000000477,139_m_f_d_a.png,I,m,556,2,3,1575.4000000953674,311151.2999999523,9038,VNB,A,1
2,test,3,1.0,1-Back,1.0,m,Mon Jun 22 2026 11:26:51 GMT-0400 (Eastern Daylight Time),314743.2999999523,165_m_m_n_a.png,I,m,998,3,3,2011.0999999046326,312732.2000000477,9038,VNB,A,2
3,test,3,0.0,1-Back,1.0,z,Mon Jun 22 2026 11:26:51 GMT-0400 (Eastern Daylight Time),316343.40000009537,124_o_f_n_a.png,I,z,573,4,3,1593.0,314750.40000009537,9038,VNB,A,3
4,test,3,1.0,1-Back,1.0,m,Mon Jun 22 2026 11:26:51 GMT-0400 (Eastern Daylight Time),318193.5,039_o_m_d_a.png,I,m,821,5,3,1844.2000000476837,316349.2999999523,9038,VNB,A,4
5,test,3,0.0,1-Back,1.0,m,Mon Jun 22 2026 11:26:51 GMT-0400 (Eastern Daylight Time),320026.7000000477,071_y_f_h_a.png,I,m,802,6,3,1827.5999999046326,318199.10000014305,9038,VNB,A,5
6,test,3,0.0,1-Back,1.0,z,Mon Jun 22 2026 11:26:51 GMT-0400 (Eastern Daylight Time),321593.40000009537,109_y_m_h_a.png,I,z,545,7,3,1559.2999999523163,320034.10000014305,9038,VNB,A,6
7,test,3,0.0,1-Back,1.0,m,Mon Jun 22 2026 11:26:51 GMT-0400 (Eastern Daylight Time),323676.60000014305,139_m_f_n_a.png,I,m,1051,8,3,2075.4000000953674,321601.2000000477,9038,VNB,A,7
8,test,3,0.0,1-Back,1.0,m,Mon Jun 22 2026 11:26:51 GMT-0400 (Eastern Daylight Time),325460.10000014305,071_y_f_d_a.png,I,m,751,9,3,1774.9000000953674,323685.2000000477,9038,VNB,A,8
9,test,3,1.0,1-Back,1.0,m,Mon Jun 22 2026 11:26:51 GMT-0400 (Eastern Daylight Time),327826.7000000477,039_o_m_n_a.png,I,m,1344,10,3,2359.7999999523163,325466.90000009537,9038,VNB,A,9
10,test,3,0.0,1-Back,1.0,m,Mon Jun 22 2026 11:26:51 GMT-0400 (Eastern Daylight Time),330110.2000000477,165_m_m_h_a.png,I,m,1266,11,3,2276.9000000953674,327833.2999999523,9038,VNB,A,10
11,test,3,0.0,1-Back,1.0,z,Mon Jun 22 2026 11:26:51 GMT-0400 (Eastern Daylight Time),332293.40000009537,139_m_f_h_a.png,I,z,1157,12,3,2178.0,330115.40000009537,9038,VNB,A,11
12,test,3,1.0,1-Back,1.0,m,Mon Jun 22 2026 11:26:51 GMT-0400 (Eastern Daylight Time),333960.10000014305,124_o_f_d_a.png,I,m,646,13,3,1658.4000000953674,332301.7000000477,9038,VNB,A,12
13,test,3,0.0,1-Back,1.0,z,Mon Jun 22 2026 11:26:51 GMT-0400 (Eastern Daylight Time),335910.2999999523,165_m_m_d_a.png,I,z,933,14,3,1943.0,333967.2999999523,9038,VNB,A,13
14,test,3,0.0,1-Back,1.0,m,Mon Jun 22 2026 11:26:51 GMT-0400 (Eastern Daylight Time),337910.10000014305,109_y_m_n_a.png,I,m,983,15,3,1991.6000001430511,335918.5,9038,VNB,A,14
15,test,3,1.0,1-Back,1.0,m,Mon Jun 22 2026 11:26:51 GMT-0400 (Eastern Daylight Time),340026.7000000477,039_o_m_h_a.png,I,m,1094,16,3,2109.2000000476837,337917.5,9038,VNB,A,15
16,test,3,0.0,1-Back,1.0,m,Mon Jun 22 2026 11:26:51 GMT-0400 (Eastern Daylight Time),342593.40000009537,109_y_m_d_a.png,I,m,1545,17,3,2555.2999999523163,340038.10000014305,9038,VNB,A,16
16,test,3,1.0,1-Back,0.0,m,Mon Jun 22 2026 11:26:51 GMT-0400 (Eastern Daylight Time),345626.7000000477,071_y_f_n_a.png,I,None,2016,18,3,3027.7000000476837,342599.0,9038,VNB,A,17
0,test,4,1.0,1-Back,,,Mon Jun 22 2026 11:26:51 GMT-0400 (Eastern Daylight Time),345626.7000000477,165_m_m_d_a.png,I,space,2515,1,3,3027.7000000476837,342599.0,9038,VNB,A,0
1,test,4,0.0,1-Back,1.0,z,Mon Jun 22 2026 11:26:51 GMT-0400 (Eastern Daylight Time),352043.2999999523,039_o_m_d_a.png,I,z,852,2,3,1877.0,350166.2999999523,9038,VNB,A,1
2,test,4,0.0,1-Back,1.0,m,Mon Jun 22 2026 11:26:51 GMT-0400 (Eastern Daylight Time),353910.40000009537,109_y_m_h_a.png,I,m,849,3,3,1862.0,352048.40000009537,9038,VNB,A,2
3,test,4,0.0,1-Back,1.0,m,Mon Jun 22 2026 11:26:51 GMT-0400 (Eastern Daylight Time),355910.0,139_m_f_n_a.png,I,m,974,4,3,1993.7999999523163,353916.2000000477,9038,VNB,A,3
4,test,4,1.0,1-Back,1.0,m,Mon Jun 22 2026 11:26:51 GMT-0400 (Eastern Daylight Time),358026.5,124_o_f_h_a.png,I,m,1085,5,3,2109.7999999523163,355916.7000000477,9038,VNB,A,4
5,test,4,0.0,1-Back,1.0,m,Mon Jun 22 2026 11:26:51 GMT-0400 (Eastern Daylight Time),360593.40000009537,165_m_m_n_a.png,I,m,1538,6,3,2562.100000143051,358031.2999999523,9038,VNB,A,5
6,test,4,0.0,1-Back,1.0,m,Mon Jun 22 2026 11:26:51 GMT-0400 (Eastern Daylight Time),362460.10000014305,109_y_m_d_a.png,I,m,834,7,3,1860.3000001907349,360599.7999999523,9038,VNB,A,6
7,test,4,1.0,1-Back,1.0,z,Mon Jun 22 2026 11:26:51 GMT-0400 (Eastern Daylight Time),365393.40000009537,071_y_f_d_a.png,I,z,1912,8,3,2924.7000000476837,362468.7000000477,9038,VNB,A,7
8,test,4,0.0,1-Back,1.0,m,Mon Jun 22 2026 11:26:51 GMT-0400 (Eastern Daylight Time),367126.5,139_m_f_h_a.png,I,m,714,9,3,1726.0,365400.5,9038,VNB,A,8
9,test,4,0.0,1-Back,1.0,z,Mon Jun 22 2026 11:26:51 GMT-0400 (Eastern Daylight Time),368976.60000014305,039_o_m_h_a.png,I,z,829,10,3,1844.8000001907349,367131.7999999523,9038,VNB,A,9
10,test,4,1.0,1-Back,1.0,m,Mon Jun 22 2026 11:26:51 GMT-0400 (Eastern Daylight Time),370943.2000000477,124_o_f_n_a.png,I,m,948,11,3,1959.9000000953674,368983.2999999523,9038,VNB,A,10
11,test,4,0.0,1-Back,1.0,m,Mon Jun 22 2026 11:26:51 GMT-0400 (Eastern Daylight Time),373093.5,139_m_f_d_a.png,I,m,1124,12,3,2143.0999999046326,370950.40000009537,9038,VNB,A,11
11,test,4,0.0,1-Back,0.0,m,Mon Jun 22 2026 11:26:51 GMT-0400 (Eastern Daylight Time),374743.10000014305,071_y_f_n_a.png,I,z,630,13,3,1642.9000000953674,373100.2000000477,9038,VNB,A,12
11,test,4,0.0,1-Back,0.0,m,Mon Jun 22 2026 11:26:51 GMT-0400 (Eastern Daylight Time),377110.0,124_o_f_d_a.png,I,z,1340,14,3,2359.399999856949,374750.60000014305,9038,VNB,A,13
12,test,4,0.0,1-Back,1.0,m,Mon Jun 22 2026 11:26:51 GMT-0400 (Eastern Daylight Time),379093.7000000477,071_y_f_h_a.png,I,m,966,15,3,1975.4000000953674,377118.2999999523,9038,VNB,A,14
13,test,4,1.0,1-Back,1.0,z,Mon Jun 22 2026 11:26:51 GMT-0400 (Eastern Daylight Time),380860.10000014305,165_m_m_h_a.png,I,z,734,16,3,1761.0,379099.10000014305,9038,VNB,A,15
14,test,4,0.0,1-Back,1.0,m,Mon Jun 22 2026 11:26:51 GMT-0400 (Eastern Daylight Time),382810.2000000477,039_o_m_n_a.png,I,m,921,17,3,1943.2999999523163,380866.90000009537,9038,VNB,A,16
15,test,4,1.0,1-Back,1.0,z,Mon Jun 22 2026 11:26:51 GMT-0400 (Eastern Daylight Time),384626.60000014305,109_y_m_n_a.png,I,z,786,18,3,1809.7000000476837,382816.90000009537,9038,VNB,A,17
0,test,5,1.0,1-Back,,,Mon Jun 22 2026 11:26:51 GMT-0400 (Eastern Daylight Time),384626.60000014305,039_o_m_n_a.png,I,space,1729,1,3,1809.7000000476837,382816.90000009537,9038,VNB,A,0
1,test,5,1.0,1-Back,1.0,m,Mon Jun 22 2026 11:26:51 GMT-0400 (Eastern Daylight Time),390443.40000009537,124_o_f_h_a.png,I,m,1043,2,3,2059.7999999523163,388383.60000014305,9038,VNB,A,1
2,test,5,0.0,1-Back,1.0,m,Mon Jun 22 2026 11:26:51 GMT-0400 (Eastern Daylight Time),393110.2000000477,109_y_m_d_a.png,I,m,1649,3,3,2658.9000000953674,390451.2999999523,9038,VNB,A,2
3,test,5,0.0,1-Back,1.0,z,Mon Jun 22 2026 11:26:51 GMT-0400 (Eastern Daylight Time),395493.5,039_o_m_d_a.png,I,z,1350,4,3,2377.5999999046326,393115.90000009537,9038,VNB,A,3
3,test,5,0.0,1-Back,0.0,m,Mon Jun 22 2026 11:26:51 GMT-0400 (Eastern Daylight Time),397777.5,139_m_f_h_a.png,I,z,1255,5,3,2277.7000000476837,395499.7999999523,9038,VNB,A,4
4,test,5,0.0,1-Back,1.0,m,Mon Jun 22 2026 11:26:51 GMT-0400 (Eastern Daylight Time),399693.40000009537,071_y_f_n_a.png,I,m,891,6,3,1908.9000000953674,397784.5,9038,VNB,A,5
5,test,5,1.0,1-Back,1.0,z,Mon Jun 22 2026 11:26:51 GMT-0400 (Eastern Daylight Time),401643.40000009537,124_o_f_n_a.png,I,z,918,7,3,1942.9000000953674,399700.5,9038,VNB,A,6
6,test,5,0.0,1-Back,1.0,m,Mon Jun 22 2026 11:26:51 GMT-0400 (Eastern Daylight Time),403560.2000000477,139_m_f_d_a.png,I,m,889,8,3,1911.0999999046326,401649.10000014305,9038,VNB,A,7
6,test,5,0.0,1-Back,0.0,m,Mon Jun 22 2026 11:26:51 GMT-0400 (Eastern Daylight Time),406593.60000014305,109_y_m_h_a.png,I,None,2016,9,3,3027.0,403566.60000014305,9038,VNB,A,8
7,test,5,0.0,1-Back,1.0,m,Mon Jun 22 2026 11:26:51 GMT-0400 (Eastern Daylight Time),408676.60000014305,071_y_f_d_a.png,I,m,1049,10,3,2076.100000143051,406600.5,9038,VNB,A,9
8,test,5,0.0,1-Back,1.0,m,Mon Jun 22 2026 11:26:51 GMT-0400 (Eastern Daylight Time),410659.7000000477,165_m_m_n_a.png,I,m,959,11,3,1978.4000000953674,408681.2999999523,9038,VNB,A,10
9,test,5,1.0,1-Back,1.0,z,Mon Jun 22 2026 11:26:51 GMT-0400 (Eastern Daylight Time),412526.7000000477,139_m_f_n_a.png,I,z,840,12,3,1863.5,410663.2000000477,9038,VNB,A,11
10,test,5,0.0,1-Back,1.0,m,Mon Jun 22 2026 11:26:51 GMT-0400 (Eastern Daylight Time),414243.2999999523,039_o_m_h_a.png,I,m,694,13,3,1710.0999999046326,412533.2000000477,9038,VNB,A,12
11,test,5,0.0,1-Back,1.0,z,Mon Jun 22 2026 11:26:51 GMT-0400 (Eastern Daylight Time),415893.40000009537,165_m_m_h_a.png,I,z,625,14,3,1644.5,414248.90000009537,9038,VNB,A,13
12,test,5,1.0,1-Back,1.0,m,Mon Jun 22 2026 11:26:51 GMT-0400 (Eastern Daylight Time),417643.40000009537,124_o_f_d_a.png,I,m,718,15,3,1742.1000001430511,415901.2999999523,9038,VNB,A,14
13,test,5,0.0,1-Back,1.0,m,Mon Jun 22 2026 11:26:51 GMT-0400 (Eastern Daylight Time),419726.60000014305,109_y_m_n_a.png,I,m,1056,16,3,2077.7000000476837,417648.90000009537,9038,VNB,A,15
14,test,5,0.0,1-Back,1.0,m,Mon Jun 22 2026 11:26:51 GMT-0400 (Eastern Daylight Time),421876.7000000477,071_y_f_h_a.png,I,m,1117,17,3,2141.7999999523163,419734.90000009537,9038,VNB,A,16
15,test,5,0.0,1-Back,1.0,m,Mon Jun 22 2026 11:26:51 GMT-0400 (Eastern Daylight Time),424643.5,165_m_m_d_a.png,I,m,1735,18,3,2758.0,421885.5,9038,VNB,A,17
0,prac,1,0.0,2-Back,,,Mon Jun 22 2026 11:26:51 GMT-0400 (Eastern Daylight Time),424643.5,139_m_f_n_a.png,I,space,14607,1,3,2758.0,421885.5,9038,VNB,A,0
0,prac,1,0.0,2-Back,,,Mon Jun 22 2026 11:26:51 GMT-0400 (Eastern Daylight Time),424643.5,124_o_f_h_a.png,I,space,14607,2,3,2758.0,421885.5,9038,VNB,A,0
1,prac,1,0.0,2-Back,1.0,m,Mon Jun 22 2026 11:26:51 GMT-0400 (Eastern Daylight Time),613743.2000000477,039_o_m_d_a.png,I,m,1837,3,3,2673.7999999523163,611069.4000000954,9038,VNB,A,1
2,prac,1,1.0,2-Back,1.0,z,Mon Jun 22 2026 11:26:51 GMT-0400 (Eastern Daylight Time),616543.4000000954,165_m_m_h_a.png,I,z,1968,4,3,2792.100000143051,613751.2999999523,9038,VNB,A,2
3,prac,1,0.0,2-Back,1.0,m,Mon Jun 22 2026 11:26:51 GMT-0400 (Eastern Daylight Time),619226.7999999523,071_y_f_n_a.png,I,m,1859,5,3,2676.0,616550.7999999523,9038,VNB,A,3
3,prac,1,1.0,2-Back,0.0,z,Mon Jun 22 2026 11:26:51 GMT-0400 (Eastern Daylight Time),621860.0,039_o_m_h_a.png,I,m,1818,6,3,2625.2000000476837,619234.7999999523,9038,VNB,A,4
4,prac,1,1.0,2-Back,1.0,z,Mon Jun 22 2026 11:26:51 GMT-0400 (Eastern Daylight Time),624526.9000000954,109_y_m_n_a.png,I,z,1825,7,3,2657.7000000476837,621869.2000000477,9038,VNB,A,5
5,prac,1,0.0,2-Back,1.0,m,Mon Jun 22 2026 11:26:51 GMT-0400 (Eastern Daylight Time),627076.9000000954,139_m_f_d_a.png,I,m,1720,8,3,2540.7999999523163,624536.100000143,9038,VNB,A,6
5,prac,1,0.0,2-Back,0.0,m,Mon Jun 22 2026 11:26:51 GMT-0400 (Eastern Daylight Time),629076.7000000477,124_o_f_d_a.png,I,z,1135,9,3,1990.0,627086.7000000477,9038,VNB,A,7
5,prac,1,0.0,2-Back,0.0,m,Mon Jun 22 2026 11:26:51 GMT-0400 (Eastern Daylight Time),631860.0,165_m_m_h_a.png,I,None,2004,10,3,2771.7999999523163,629088.2000000477,9038,VNB,A,8
5,prac,1,1.0,2-Back,0.0,z,Mon Jun 22 2026 11:26:51 GMT-0400 (Eastern Daylight Time),633926.7999999523,071_y_f_d_a.png,I,m,1237,11,3,2055.7999999523163,631871.0,9038,VNB,A,9
6,prac,1,0.0,2-Back,1.0,m,Mon Jun 22 2026 11:26:51 GMT-0400 (Eastern Daylight Time),636076.9000000954,039_o_m_n_a.png,I,m,1328,12,3,2136.600000143051,633940.2999999523,9038,VNB,A,10
0,prac,2,0.0,2-Back,,,Mon Jun 22 2026 11:26:51 GMT-0400 (Eastern Daylight Time),636076.9000000954,139_m_f_n_a.png,I,a,9459,1,3,2136.600000143051,633940.2999999523,9038,VNB,A,0
0,prac,2,0.0,2-Back,,,Mon Jun 22 2026 11:26:51 GMT-0400 (Eastern Daylight Time),636076.9000000954,124_o_f_h_a.png,I,a,9459,2,3,2136.600000143051,633940.2999999523,9038,VNB,A,0
0,prac,2,0.0,2-Back,0.0,m,Mon Jun 22 2026 11:26:51 GMT-0400 (Eastern Daylight Time),653576.600000143,039_o_m_d_a.png,I,None,2001,3,3,2807.800000190735,650768.7999999523,9038,VNB,A,1
1,prac,2,1.0,2-Back,1.0,z,Mon Jun 22 2026 11:26:51 GMT-0400 (Eastern Daylight Time),655710.100000143,165_m_m_h_a.png,I,z,1354,4,3,2123.300000190735,653586.7999999523,9038,VNB,A,2
2,prac,2,0.0,2-Back,1.0,m,Mon Jun 22 2026 11:26:51 GMT-0400 (Eastern Daylight Time),657876.2000000477,071_y_f_n_a.png,I,m,1347,5,3,2157.2999999523163,655718.9000000954,9038,VNB,A,3
3,prac,2,1.0,2-Back,1.0,z,Mon Jun 22 2026 11:26:51 GMT-0400 (Eastern Daylight Time),659893.4000000954,039_o_m_h_a.png,I,z,1197,6,3,2011.2000000476837,657882.2000000477,9038,VNB,A,4
4,prac,2,1.0,2-Back,1.0,z,Mon Jun 22 2026 11:26:51 GMT-0400 (Eastern Daylight Time),662376.7999999523,109_y_m_n_a.png,I,z,1642,7,3,2475.5,659901.2999999523,9038,VNB,A,5
4,prac,2,0.0,2-Back,0.0,m,Mon Jun 22 2026 11:26:51 GMT-0400 (Eastern Daylight Time),665226.7999999523,139_m_f_d_a.png,I,None,2008,8,3,2818.199999809265,662408.600000143,9038,VNB,A,6
4,prac,2,0.0,2-Back,0.0,m,Mon Jun 22 2026 11:26:51 GMT-0400 (Eastern Daylight Time),667193.4000000954,124_o_f_d_a.png,I,z,1089,9,3,1958.1000001430511,665235.2999999523,9038,VNB,A,7
5,prac,2,0.0,2-Back,1.0,m,Mon Jun 22 2026 11:26:51 GMT-0400 (Eastern Daylight Time),669493.4000000954,165_m_m_h_a.png,I,m,1523,10,3,2292.0,667201.4000000954,9038,VNB,A,8
6,prac,2,1.0,2-Back,1.0,z,Mon Jun 22 2026 11:26:51 GMT-0400 (Eastern Daylight Time),672076.7999999523,071_y_f_d_a.png,I,z,1751,11,3,2573.5,669503.2999999523,9038,VNB,A,9
7,prac,2,0.0,2-Back,1.0,m,Mon Jun 22 2026 11:26:51 GMT-0400 (Eastern Daylight Time),674843.4000000954,039_o_m_n_a.png,I,m,1934,12,3,2756.600000143051,672086.7999999523,9038,VNB,A,10
0,test,1,0.0,2-Back,,,Mon Jun 22 2026 11:26:51 GMT-0400 (Eastern Daylight Time),674843.4000000954,109_y_m_h_a.png,I,space,12238,1,3,2756.600000143051,672086.7999999523,9038,VNB,A,0
0,test,1,0.0,2-Back,,,Mon Jun 22 2026 11:26:51 GMT-0400 (Eastern Daylight Time),674843.4000000954,124_o_f_n_a.png,I,space,12238,2,3,2756.600000143051,672086.7999999523,9038,VNB,A,0
1,test,1,0.0,2-Back,1.0,z,Mon Jun 22 2026 11:26:51 GMT-0400 (Eastern Daylight Time),708226.7000000477,039_o_m_h_a.png,I,z,1211,3,3,2225.9000000953674,706000.7999999523,9038,VNB,A,1
2,test,1,0.0,2-Back,1.0,m,Mon Jun 22 2026 11:26:51 GMT-0400 (Eastern Daylight Time),710126.600000143,139_m_f_d_a.png,I,m,881,4,3,1892.0,708234.600000143,9038,VNB,A,2
3,test,1,1.0,2-Back,1.0,m,Mon Jun 22 2026 11:26:51 GMT-0400 (Eastern Daylight Time),712293.5,109_y_m_n_a.png,I,m,1133,5,3,2159.899999856949,710133.600000143,9038,VNB,A,3
4,test,1,0.0,2-Back,1.0,z,Mon Jun 22 2026 11:26:51 GMT-0400 (Eastern Daylight Time),714543.2999999523,071_y_f_d_a.png,I,z,1223,6,3,2242.7999999523163,712300.5,9038,VNB,A,4
5,test,1,0.0,2-Back,1.0,m,Mon Jun 22 2026 11:26:51 GMT-0400 (Eastern Daylight Time),716860.0,165_m_m_h_a.png,I,m,1293,7,3,2309.7999999523163,714550.2000000477,9038,VNB,A,5
5,test,1,1.0,2-Back,0.0,m,Mon Jun 22 2026 11:26:51 GMT-0400 (Eastern Daylight Time),719060.0,071_y_f_n_a.png,I,z,1176,8,3,2194.0999999046326,716865.9000000954,9038,VNB,A,6
5,test,1,0.0,2-Back,0.0,z,Mon Jun 22 2026 11:26:51 GMT-0400 (Eastern Daylight Time),721293.600000143,124_o_f_h_a.png,I,m,1216,9,3,2225.9000000953674,719067.7000000477,9038,VNB,A,7
6,test,1,0.0,2-Back,1.0,m,Mon Jun 22 2026 11:26:51 GMT-0400 (Eastern Daylight Time),723493.2999999523,039_o_m_d_a.png,I,m,1166,10,3,2192.5,721300.7999999523,9038,VNB,A,8
6,test,1,1.0,2-Back,0.0,m,Mon Jun 22 2026 11:26:51 GMT-0400 (Eastern Daylight Time),725459.9000000954,165_m_m_d_a.png,I,z,943,11,3,1960.2999999523163,723499.600000143,9038,VNB,A,9
6,test,1,0.0,2-Back,0.0,m,Mon Jun 22 2026 11:26:51 GMT-0400 (Eastern Daylight Time),728493.100000143,139_m_f_n_a.png,I,None,2016,12,3,3026.600000143051,725466.5,9038,VNB,A,10
7,test,1,0.0,2-Back,1.0,m,Mon Jun 22 2026 11:26:51 GMT-0400 (Eastern Daylight Time),730710.0,071_y_f_h_a.png,I,m,1186,13,3,2213.5,728496.5,9038,VNB,A,11
8,test,1,0.0,2-Back,1.0,z,Mon Jun 22 2026 11:26:51 GMT-0400 (Eastern Daylight Time),733443.2000000477,165_m_m_n_a.png,I,z,1710,14,3,2726.7000000476837,730716.5,9038,VNB,A,12
9,test,1,0.0,2-Back,1.0,m,Mon Jun 22 2026 11:26:51 GMT-0400 (Eastern Daylight Time),735843.4000000954,109_y_m_d_a.png,I,m,1377,15,3,2391.4000000953674,733452.0,9038,VNB,A,13
9,test,1,1.0,2-Back,0.0,m,Mon Jun 22 2026 11:26:51 GMT-0400 (Eastern Daylight Time),738493.2999999523,139_m_f_h_a.png,I,z,1617,16,3,2642.2999999523163,735851.0,9038,VNB,A,14
10,test,1,0.0,2-Back,1.0,z,Mon Jun 22 2026 11:26:51 GMT-0400 (Eastern Daylight Time),740776.600000143,124_o_f_d_a.png,I,z,1262,17,3,2277.100000143051,738499.5,9038,VNB,A,15
11,test,1,0.0,2-Back,1.0,m,Mon Jun 22 2026 11:26:51 GMT-0400 (Eastern Daylight Time),743210.0,039_o_m_n_a.png,I,m,1403,18,3,2427.2999999523163,740782.7000000477,9038,VNB,A,16
0,test,2,0.0,2-Back,,,Mon Jun 22 2026 11:26:51 GMT-0400 (Eastern Daylight Time),743210.0,165_m_m_h_a.png,I,space,2162,1,3,2427.2999999523163,740782.7000000477,9038,VNB,A,0
0,test,2,0.0,2-Back,,,Mon Jun 22 2026 11:26:51 GMT-0400 (Eastern Daylight Time),743210.0,071_y_f_n_a.png,I,space,2162,2,3,2427.2999999523163,740782.7000000477,9038,VNB,A,0
1,test,2,1.0,2-Back,1.0,z,Mon Jun 22 2026 11:26:51 GMT-0400 (Eastern Daylight Time),752460.0,124_o_f_h_a.png,I,z,942,3,3,1961.3999998569489,750498.600000143,9038,VNB,A,1
2,test,2,0.0,2-Back,1.0,m,Mon Jun 22 2026 11:26:51 GMT-0400 (Eastern Daylight Time),754326.4000000954,039_o_m_d_a.png,I,m,839,4,3,1860.5,752465.9000000954,9038,VNB,A,2
2,test,2,0.0,2-Back,0.0,m,Mon Jun 22 2026 11:26:51 GMT-0400 (Eastern Daylight Time),756293.2999999523,139_m_f_d_a.png,I,z,933,5,3,1959.8999998569489,754333.4000000954,9038,VNB,A,3
2,test,2,0.0,2-Back,0.0,m,Mon Jun 22 2026 11:26:51 GMT-0400 (Eastern Daylight Time),759326.2999999523,109_y_m_h_a.png,I,None,2016,6,3,3026.699999809265,756299.600000143,9038,VNB,A,4
3,test,2,0.0,2-Back,1.0,m,Mon Jun 22 2026 11:26:51 GMT-0400 (Eastern Daylight Time),761876.600000143,124_o_f_n_a.png,I,m,1525,7,3,2546.800000190735,759329.7999999523,9038,VNB,A,5
4,test,2,1.0,2-Back,1.0,z,Mon Jun 22 2026 11:26:51 GMT-0400 (Eastern Daylight Time),763959.9000000954,039_o_m_h_a.png,I,z,1063,8,3,2076.0,761883.9000000954,9038,VNB,A,6
5,test,2,0.0,2-Back,1.0,m,Mon Jun 22 2026 11:26:51 GMT-0400 (Eastern Daylight Time),766593.2000000477,071_y_f_d_a.png,I,m,1612,9,3,2626.7000000476837,763966.5,9038,VNB,A,7
5,test,2,0.0,2-Back,0.0,m,Mon Jun 22 2026 11:26:51 GMT-0400 (Eastern Daylight Time),768459.7999999523,109_y_m_d_a.png,I,z,843,10,3,1860.0999999046326,766599.7000000477,9038,VNB,A,8
5,test,2,0.0,2-Back,0.0,m,Mon Jun 22 2026 11:26:51 GMT-0400 (Eastern Daylight Time),771493.4000000954,165_m_m_n_a.png,I,None,2016,11,3,3025.7999999523163,768467.600000143,9038,VNB,A,9
5,test,2,0.0,2-Back,0.0,m,Mon Jun 22 2026 11:26:51 GMT-0400 (Eastern Daylight Time),774426.600000143,139_m_f_h_a.png,I,z,1903,12,3,2926.2000000476837,771500.4000000954,9038,VNB,A,10
6,test,2,1.0,2-Back,1.0,z,Mon Jun 22 2026 11:26:51 GMT-0400 (Eastern Daylight Time),777126.5,039_o_m_n_a.png,I,z,1681,13,3,2693.0,774433.5,9038,VNB,A,11
7,test,2,0.0,2-Back,1.0,m,Mon Jun 22 2026 11:26:51 GMT-0400 (Eastern Daylight Time),779576.7000000477,124_o_f_d_a.png,I,m,1429,14,3,2443.5,777133.2000000477,9038,VNB,A,12
7,test,2,0.0,2-Back,0.0,m,Mon Jun 22 2026 11:26:51 GMT-0400 (Eastern Daylight Time),781709.7999999523,071_y_f_h_a.png,I,z,1107,15,3,2125.199999809265,779584.600000143,9038,VNB,A,13
7,test,2,0.0,2-Back,0.0,z,Mon Jun 22 2026 11:26:51 GMT-0400 (Eastern Daylight Time),784526.4000000954,165_m_m_d_a.png,I,m,1789,16,3,2810.2999999523163,781716.100000143,9038,VNB,A,14
7,test,2,0.0,2-Back,0.0,m,Mon Jun 22 2026 11:26:51 GMT-0400 (Eastern Daylight Time),787560.100000143,109_y_m_n_a.png,I,None,2016,17,3,3030.300000190735,784529.7999999523,9038,VNB,A,15
7,test,2,1.0,2-Back,0.0,m,Mon Jun 22 2026 11:26:51 GMT-0400 (Eastern Daylight Time),789460.0,139_m_f_n_a.png,I,z,876,18,3,1893.0,787567.0,9038,VNB,A,16
0,test,3,1.0,2-Back,,,Mon Jun 22 2026 11:26:51 GMT-0400 (Eastern Daylight Time),789460.0,039_o_m_n_a.png,I,space,2663,1,3,1893.0,787567.0,9038,VNB,A,0
0,test,3,1.0,2-Back,,,Mon Jun 22 2026 11:26:51 GMT-0400 (Eastern Daylight Time),789460.0,124_o_f_d_a.png,I,space,2663,2,3,1893.0,787567.0,9038,VNB,A,0
1,test,3,0.0,2-Back,1.0,m,Mon Jun 22 2026 11:26:51 GMT-0400 (Eastern Daylight Time),799110.0,071_y_f_h_a.png,I,m,907,3,3,1927.3999998569489,797182.600000143,9038,VNB,A,1
2,test,3,0.0,2-Back,1.0,z,Mon Jun 22 2026 11:26:51 GMT-0400 (Eastern Daylight Time),801110.0,139_m_f_d_a.png,I,z,974,4,3,1991.8999998569489,799118.100000143,9038,VNB,A,2
2,test,3,1.0,2-Back,0.0,m,Mon Jun 22 2026 11:26:51 GMT-0400 (Eastern Daylight Time),803743.2000000477,109_y_m_n_a.png,I,z,1606,5,3,2624.7000000476837,801118.5,9038,VNB,A,3
3,test,3,0.0,2-Back,1.0,m,Mon Jun 22 2026 11:26:51 GMT-0400 (Eastern Daylight Time),805710.0,039_o_m_h_a.png,I,m,941,6,3,1959.7999999523163,803750.2000000477,9038,VNB,A,4
4,test,3,0.0,2-Back,1.0,z,Mon Jun 22 2026 11:26:51 GMT-0400 (Eastern Daylight Time),807776.0,071_y_f_n_a.png,I,z,1045,7,3,2060.0999999046326,805715.9000000954,9038,VNB,A,5
4,test,3,1.0,2-Back,0.0,m,Mon Jun 22 2026 11:26:51 GMT-0400 (Eastern Daylight Time),809926.2000000477,165_m_m_d_a.png,I,z,1123,8,3,2146.7000000476837,807779.5,9038,VNB,A,6
4,test,3,0.0,2-Back,0.0,m,Mon Jun 22 2026 11:26:51 GMT-0400 (Eastern Daylight Time),812959.9000000954,109_y_m_d_a.png,I,None,2016,9,3,3030.100000143051,809929.7999999523,9038,VNB,A,7
5,test,3,0.0,2-Back,1.0,m,Mon Jun 22 2026 11:26:51 GMT-0400 (Eastern Daylight Time),815659.7000000477,124_o_f_h_a.png,I,m,1676,10,3,2693.0999999046326,812966.600000143,9038,VNB,A,8
5,test,3,1.0,2-Back,0.0,m,Mon Jun 22 2026 11:26:51 GMT-0400 (Eastern Daylight Time),817576.7000000477,139_m_f_n_a.png,I,z,896,11,3,1911.7999999523163,815664.9000000954,9038,VNB,A,9
5,test,3,1.0,2-Back,0.0,z,Mon Jun 22 2026 11:26:51 GMT-0400 (Eastern Daylight Time),820026.600000143,165_m_m_h_a.png,I,m,1427,12,3,2441.600000143051,817585.0,9038,VNB,A,10
5,test,3,0.0,2-Back,0.0,m,Mon Jun 22 2026 11:26:51 GMT-0400 (Eastern Daylight Time),823060.0,071_y_f_d_a.png,I,None,2016,13,3,3026.2000000476837,820033.7999999523,9038,VNB,A,11
6,test,3,0.0,2-Back,1.0,m,Mon Jun 22 2026 11:26:51 GMT-0400 (Eastern Daylight Time),825093.2000000477,124_o_f_n_a.png,I,m,1008,14,3,2027.2999999523163,823065.9000000954,9038,VNB,A,12
6,test,3,0.0,2-Back,0.0,z,Mon Jun 22 2026 11:26:51 GMT-0400 (Eastern Daylight Time),827809.9000000954,039_o_m_d_a.png,I,m,1686,15,3,2711.0,825098.9000000954,9038,VNB,A,13
6,test,3,1.0,2-Back,0.0,m,Mon Jun 22 2026 11:26:51 GMT-0400 (Eastern Daylight Time),830076.5,139_m_f_h_a.png,I,z,1242,16,3,2259.0,827817.5,9038,VNB,A,14
7,test,3,0.0,2-Back,1.0,m,Mon Jun 22 2026 11:26:51 GMT-0400 (Eastern Daylight Time),831709.7000000477,165_m_m_n_a.png,I,m,615,17,3,1627.0,830082.7000000477,9038,VNB,A,15
7,test,3,0.0,2-Back,0.0,z,Mon Jun 22 2026 11:26:51 GMT-0400 (Eastern Daylight Time),834276.600000143,109_y_m_h_a.png,I,m,1542,18,3,2561.100000143051,831715.5,9038,VNB,A,16
0,test,4,0.0,2-Back,,,Mon Jun 22 2026 11:26:51 GMT-0400 (Eastern Daylight Time),834276.600000143,139_m_f_n_a.png,I,space,1318,1,3,2561.100000143051,831715.5,9038,VNB,A,0
0,test,4,0.0,2-Back,,,Mon Jun 22 2026 11:26:51 GMT-0400 (Eastern Daylight Time),834276.600000143,039_o_m_n_a.png,I,space,1318,2,3,2561.100000143051,831715.5,9038,VNB,A,0
1,test,4,1.0,2-Back,1.0,m,Mon Jun 22 2026 11:26:51 GMT-0400 (Eastern Daylight Time),842609.9000000954,109_y_m_h_a.png,I,m,895,3,3,1913.7999999523163,840696.100000143,9038,VNB,A,1
1,test,4,1.0,2-Back,0.0,m,Mon Jun 22 2026 11:26:51 GMT-0400 (Eastern Daylight Time),844509.7000000477,124_o_f_d_a.png,I,z,882,4,3,1893.0999999046326,842616.600000143,9038,VNB,A,2
1,test,4,0.0,2-Back,0.0,z,Mon Jun 22 2026 11:26:51 GMT-0400 (Eastern Daylight Time),846526.2999999523,039_o_m_h_a.png,I,m,998,5,3,2011.8999998569489,844514.4000000954,9038,VNB,A,3
2,test,4,0.0,2-Back,1.0,m,Mon Jun 22 2026 11:26:51 GMT-0400 (Eastern Daylight Time),849076.5,165_m_m_n_a.png,I,m,1516,6,3,2542.0999999046326,846534.4000000954,9038,VNB,A,4
2,test,4,0.0,2-Back,0.0,m,Mon Jun 22 2026 11:26:51 GMT-0400 (Eastern Daylight Time),850809.7999999523,139_m_f_d_a.png,I,z,703,7,3,1727.5,849082.2999999523,9038,VNB,A,5
2,test,4,0.0,2-Back,0.0,z,Mon Jun 22 2026 11:26:51 GMT-0400 (Eastern Daylight Time),852892.7999999523,071_y_f_n_a.png,I,m,1065,8,3,2076.5,850816.2999999523,9038,VNB,A,6
3,test,4,1.0,2-Back,1.0,m,Mon Jun 22 2026 11:26:51 GMT-0400 (Eastern Daylight Time),855076.600000143,124_o_f_h_a.png,I,m,1150,9,3,2180.600000143051,852896.0,9038,VNB,A,7
4,test,4,0.0,2-Back,1.0,m,Mon Jun 22 2026 11:26:51 GMT-0400 (Eastern Daylight Time),857459.9000000954,165_m_m_h_a.png,I,m,1359,10,3,2376.2999999523163,855083.600000143,9038,VNB,A,8
4,test,4,0.0,2-Back,0.0,m,Mon Jun 22 2026 11:26:51 GMT-0400 (Eastern Daylight Time),860493.4000000954,071_y_f_d_a.png,I,None,2016,11,3,3026.7999999523163,857466.600000143,9038,VNB,A,9
5,test,4,0.0,2-Back,1.0,m,Mon Jun 22 2026 11:26:51 GMT-0400 (Eastern Daylight Time),862743.100000143,109_y_m_n_a.png,I,m,1231,12,3,2241.7000000476837,860501.4000000954,9038,VNB,A,10
5,test,4,0.0,2-Back,0.0,z,Mon Jun 22 2026 11:26:51 GMT-0400 (Eastern Daylight Time),865293.4000000954,039_o_m_d_a.png,I,m,1533,13,3,2542.7000000476837,862750.7000000477,9038,VNB,A,11
5,test,4,1.0,2-Back,0.0,m,Mon Jun 22 2026 11:26:51 GMT-0400 (Eastern Daylight Time),867359.9000000954,139_m_f_h_a.png,I,z,1039,14,3,2060.4000000953674,865299.5,9038,VNB,A,12
6,test,4,1.0,2-Back,1.0,m,Mon Jun 22 2026 11:26:51 GMT-0400 (Eastern Daylight Time),869809.9000000954,071_y_f_h_a.png,I,m,1428,15,3,2443.9000000953674,867366.0,9038,VNB,A,13
7,test,4,0.0,2-Back,1.0,m,Mon Jun 22 2026 11:26:51 GMT-0400 (Eastern Daylight Time),872476.600000143,124_o_f_n_a.png,I,m,1633,16,3,2660.800000190735,869815.7999999523,9038,VNB,A,14
7,test,4,0.0,2-Back,0.0,m,Mon Jun 22 2026 11:26:51 GMT-0400 (Eastern Daylight Time),874143.100000143,109_y_m_d_a.png,I,z,647,17,3,1658.8000001907349,872484.2999999523,9038,VNB,A,15
8,test,4,1.0,2-Back,1.0,m,Mon Jun 22 2026 11:26:51 GMT-0400 (Eastern Daylight Time),876309.7999999523,165_m_m_d_a.png,I,m,1140,18,3,2160.199999809265,874149.600000143,9038,VNB,A,16
0,test,5,1.0,2-Back,,,Mon Jun 22 2026 11:26:51 GMT-0400 (Eastern Daylight Time),876309.7999999523,071_y_f_d_a.png,I,space,1726,1,3,2160.199999809265,874149.600000143,9038,VNB,A,0
0,test,5,1.0,2-Back,,,Mon Jun 22 2026 11:26:51 GMT-0400 (Eastern Daylight Time),876309.7999999523,124_o_f_h_a.png,I,space,1726,2,3,2160.199999809265,874149.600000143,9038,VNB,A,0
1,test,5,1.0,2-Back,1.0,z,Mon Jun 22 2026 11:26:51 GMT-0400 (Eastern Daylight Time),885110.0,039_o_m_d_a.png,I,z,924,3,3,1943.2000000476837,883166.7999999523,9038,VNB,A,1
2,test,5,1.0,2-Back,1.0,m,Mon Jun 22 2026 11:26:51 GMT-0400 (Eastern Daylight Time),886843.100000143,139_m_f_n_a.png,I,m,701,4,3,1726.1000001430511,885117.0,9038,VNB,A,2
3,test,5,0.0,2-Back,1.0,m,Mon Jun 22 2026 11:26:51 GMT-0400 (Eastern Daylight Time),889343.100000143,165_m_m_h_a.png,I,m,1472,5,3,2492.4000000953674,886850.7000000477,9038,VNB,A,3
4,test,5,0.0,2-Back,1.0,z,Mon Jun 22 2026 11:26:51 GMT-0400 (Eastern Daylight Time),891459.7999999523,071_y_f_n_a.png,I,z,1093,6,3,2110.699999809265,889349.100000143,9038,VNB,A,4
4,test,5,0.0,2-Back,0.0,m,Mon Jun 22 2026 11:26:51 GMT-0400 (Eastern Daylight Time),893593.2000000477,124_o_f_d_a.png,I,z,1104,7,3,2126.9000000953674,891466.2999999523,9038,VNB,A,5
5,test,5,0.0,2-Back,1.0,m,Mon Jun 22 2026 11:26:51 GMT-0400 (Eastern Daylight Time),895493.4000000954,039_o_m_h_a.png,I,m,883,8,3,1893.2999999523163,893600.100000143,9038,VNB,A,6
5,test,5,1.0,2-Back,0.0,z,Mon Jun 22 2026 11:26:51 GMT-0400 (Eastern Daylight Time),897759.9000000954,139_m_f_d_a.png,I,m,1238,9,3,2261.0,895498.9000000954,9038,VNB,A,7
6,test,5,0.0,2-Back,1.0,m,Mon Jun 22 2026 11:26:51 GMT-0400 (Eastern Daylight Time),899709.9000000954,109_y_m_n_a.png,I,m,924,10,3,1943.7000000476837,897766.2000000477,9038,VNB,A,8
6,test,5,0.0,2-Back,0.0,m,Mon Jun 22 2026 11:26:51 GMT-0400 (Eastern Daylight Time),901459.7999999523,165_m_m_n_a.png,I,z,726,11,3,1742.0,899717.7999999523,9038,VNB,A,9
7,test,5,0.0,2-Back,1.0,m,Mon Jun 22 2026 11:26:51 GMT-0400 (Eastern Daylight Time),903926.600000143,071_y_f_h_a.png,I,m,1440,12,3,2458.600000143051,901468.0,9038,VNB,A,10
7,test,5,0.0,2-Back,0.0,m,Mon Jun 22 2026 11:26:51 GMT-0400 (Eastern Daylight Time),906476.600000143,109_y_m_d_a.png,I,z,1517,13,3,2544.5,903932.100000143,9038,VNB,A,11
7,test,5,1.0,2-Back,0.0,z,Mon Jun 22 2026 11:26:51 GMT-0400 (Eastern Daylight Time),908209.7999999523,139_m_f_h_a.png,I,m,703,14,3,1725.5999999046326,906484.2000000477,9038,VNB,A,12
8,test,5,0.0,2-Back,1.0,m,Mon Jun 22 2026 11:26:51 GMT-0400 (Eastern Daylight Time),910276.7000000477,039_o_m_n_a.png,I,m,1050,15,3,2060.2999999523163,908216.4000000954,9038,VNB,A,13
9,test,5,0.0,2-Back,1.0,m,Mon Jun 22 2026 11:26:51 GMT-0400 (Eastern Daylight Time),912926.600000143,165_m_m_d_a.png,I,m,1623,16,3,2643.0,910283.600000143,9038,VNB,A,14
10,test,5,0.0,2-Back,1.0,z,Mon Jun 22 2026 11:26:51 GMT-0400 (Eastern Daylight Time),915009.7999999523,124_o_f_n_a.png,I,z,1061,17,3,2076.199999809265,912933.600000143,9038,VNB,A,15
11,test,5,1.0,2-Back,1.0,m,Mon Jun 22 2026 11:26:51 GMT-0400 (Eastern Daylight Time),917176.600000143,109_y_m_h_a.png,I,m,1146,18,3,2161.5,915015.100000143,9038,VNB,A,16
