block_c,block_dur,condition,countdown,datetime,endtime,list,multichar_response,project,response,response_time,session_number,start_end,starttime,subject_id,task,task_vers,trial
,,,,Wed Oct 29 2025 11:47:14 GMT-0500 (Central Daylight Time),,,,O,space,562,1,,,7703,WL,A,
prac,,0,,Wed Oct 29 2025 11:47:14 GMT-0500 (Central Daylight Time),,NA,b,O,b,1945,1,,,7703,WL,A,1.0
prac,,0,,Wed Oct 29 2025 11:47:14 GMT-0500 (Central Daylight Time),,NA,bo,O,o,188,1,,,7703,WL,A,1.0
prac,,0,,Wed Oct 29 2025 11:47:14 GMT-0500 (Central Daylight Time),,NA,boo,O,o,154,1,,,7703,WL,A,1.0
prac,,0,,Wed Oct 29 2025 11:47:14 GMT-0500 (Central Daylight Time),,NA,boos,O,s,562,1,,,7703,WL,A,1.0
prac,,0,,Wed Oct 29 2025 11:47:14 GMT-0500 (Central Daylight Time),,NA,boost,O,t,521,1,,,7703,WL,A,1.0
prac,,0,,Wed Oct 29 2025 11:47:14 GMT-0500 (Central Daylight Time),,NA,boostenter,O,enter,1591,1,,,7703,WL,A,1.0
1,1.4170000553131104,learn,58582.99994468689,Wed Oct 29 2025 11:47:14 GMT-0500 (Central Daylight Time),193671.20000004768,A,f,O,f,1395,1,1416.0,192255.20000004768,7703,WL,A,1.0
1,1.8329999446868896,learn,58167.00005531311,Wed Oct 29 2025 11:47:14 GMT-0500 (Central Daylight Time),194087.90000009537,A,fl,O,l,401,1,1832.7000000476837,192255.20000004768,7703,WL,A,1.0
1,2.549999952316284,learn,57450.000047683716,Wed Oct 29 2025 11:47:14 GMT-0500 (Central Daylight Time),194804.10000014305,A,flw,O,w,698,1,2548.9000000953674,192255.20000004768,7703,WL,A,1.0
1,2.7320001125335693,learn,57267.99988746643,Wed Oct 29 2025 11:47:14 GMT-0500 (Central Daylight Time),194986.70000004768,A,flwe,O,e,166,1,2731.5,192255.20000004768,7703,WL,A,1.0
1,2.999000072479248,learn,57000.99992752075,Wed Oct 29 2025 11:47:14 GMT-0500 (Central Daylight Time),195253.90000009537,A,flwer,O,r,246,1,2998.7000000476837,192255.20000004768,7703,WL,A,1.0
1,3.5160000324249268,learn,56483.99996757507,Wed Oct 29 2025 11:47:14 GMT-0500 (Central Daylight Time),195770.10000014305,A,flwerenter,O,enter,509,1,3514.9000000953674,192255.20000004768,7703,WL,A,1.0
1,4.865000009536743,learn,55134.99999046326,Wed Oct 29 2025 11:47:14 GMT-0500 (Central Daylight Time),197119.70000004768,A,t,O,t,1335,1,1349.0999999046326,195770.60000014305,7703,WL,A,2.0
1,5.131999969482422,learn,54868.00003051758,Wed Oct 29 2025 11:47:14 GMT-0500 (Central Daylight Time),197386.20000004768,A,tr,O,r,251,1,1615.5999999046326,195770.60000014305,7703,WL,A,2.0
1,5.5,learn,54500.0,Wed Oct 29 2025 11:47:14 GMT-0500 (Central Daylight Time),197754.30000019073,A,tra,O,a,362,1,1983.7000000476837,195770.60000014305,7703,WL,A,2.0
1,5.749000072479248,learn,54250.99992752075,Wed Oct 29 2025 11:47:14 GMT-0500 (Central Daylight Time),198003.70000004768,A,trai,O,i,233,1,2233.0999999046326,195770.60000014305,7703,WL,A,2.0
1,6.0320000648498535,learn,53967.99993515015,Wed Oct 29 2025 11:47:14 GMT-0500 (Central Daylight Time),198286.60000014305,A,train,O,n,270,1,2516.0,195770.60000014305,7703,WL,A,2.0
1,6.515000104904175,learn,53484.999895095825,Wed Oct 29 2025 11:47:14 GMT-0500 (Central Daylight Time),198769.10000014305,A,trainenter,O,enter,467,1,2998.5,195770.60000014305,7703,WL,A,2.0
1,7.832000017166138,learn,52167.99998283386,Wed Oct 29 2025 11:47:14 GMT-0500 (Central Daylight Time),200086.40000009537,A,r,O,r,1297,1,1316.9000000953674,198769.5,7703,WL,A,3.0
1,8.015000104904175,learn,51984.999895095825,Wed Oct 29 2025 11:47:14 GMT-0500 (Central Daylight Time),200269.0,A,ru,O,u,164,1,1499.5,198769.5,7703,WL,A,3.0
1,8.164000034332275,learn,51835.999965667725,Wed Oct 29 2025 11:47:14 GMT-0500 (Central Daylight Time),200418.30000019073,A,rug,O,g,140,1,1648.8000001907349,198769.5,7703,WL,A,3.0
1,8.831000089645386,learn,51168.999910354614,Wed Oct 29 2025 11:47:14 GMT-0500 (Central Daylight Time),201085.5,A,rugenter,O,enter,657,1,2316.0,198769.5,7703,WL,A,3.0
1,9.348000049591064,learn,50651.999950408936,Wed Oct 29 2025 11:47:14 GMT-0500 (Central Daylight Time),201602.10000014305,A,r,O,r,501,1,516.2999999523163,201085.80000019073,7703,WL,A,4.0
1,9.531000137329102,learn,50468.9998626709,Wed Oct 29 2025 11:47:14 GMT-0500 (Central Daylight Time),201785.90000009537,A,ra,O,a,178,1,700.0999999046326,201085.80000019073,7703,WL,A,4.0
1,9.71399998664856,learn,50286.00001335144,Wed Oct 29 2025 11:47:14 GMT-0500 (Central Daylight Time),201968.70000004768,A,rat,O,t,176,1,882.8999998569489,201085.80000019073,7703,WL,A,4.0
1,9.932000160217285,learn,50067.999839782715,Wed Oct 29 2025 11:47:14 GMT-0500 (Central Daylight Time),202186.40000009537,A,ratt,O,t,202,1,1100.5999999046326,201085.80000019073,7703,WL,A,4.0
1,10.081000089645386,learn,49918.999910354614,Wed Oct 29 2025 11:47:14 GMT-0500 (Central Daylight Time),202335.20000004768,A,rattl,O,l,137,1,1249.3999998569489,201085.80000019073,7703,WL,A,4.0
1,10.19700002670288,learn,49802.99997329712,Wed Oct 29 2025 11:47:14 GMT-0500 (Central Daylight Time),202451.40000009537,A,rattle,O,e,108,1,1365.5999999046326,201085.80000019073,7703,WL,A,4.0
1,11.013000011444092,learn,48986.99998855591,Wed Oct 29 2025 11:47:14 GMT-0500 (Central Daylight Time),203267.5,A,rattleenter,O,enter,799,1,2181.699999809265,201085.80000019073,7703,WL,A,4.0
1,11.73200011253357,learn,48267.99988746643,Wed Oct 29 2025 11:47:14 GMT-0500 (Central Daylight Time),203986.10000014305,A,c,O,c,695,1,718.4000000953674,203267.70000004768,7703,WL,A,5.0
1,11.861999988555908,learn,48138.00001144409,Wed Oct 29 2025 11:47:14 GMT-0500 (Central Daylight Time),204117.0,A,ch,O,h,111,1,849.2999999523163,203267.70000004768,7703,WL,A,5.0
1,11.980999946594238,learn,48019.00005340576,Wed Oct 29 2025 11:47:14 GMT-0500 (Central Daylight Time),204235.40000009537,A,chi,O,i,102,1,967.7000000476837,203267.70000004768,7703,WL,A,5.0
1,12.131999969482422,learn,47868.00003051758,Wed Oct 29 2025 11:47:14 GMT-0500 (Central Daylight Time),204386.30000019073,A,chim,O,m,133,1,1118.6000001430511,203267.70000004768,7703,WL,A,5.0
1,12.496999979019165,learn,47503.000020980835,Wed Oct 29 2025 11:47:14 GMT-0500 (Central Daylight Time),204751.0,A,chimn,O,n,353,1,1483.2999999523163,203267.70000004768,7703,WL,A,5.0
1,12.697999954223633,learn,47302.00004577637,Wed Oct 29 2025 11:47:14 GMT-0500 (Central Daylight Time),204952.5,A,chimne,O,e,196,1,1684.7999999523163,203267.70000004768,7703,WL,A,5.0
1,12.82800006866455,learn,47171.99993133545,Wed Oct 29 2025 11:47:14 GMT-0500 (Central Daylight Time),205082.90000009537,A,chimney,O,y,122,1,1815.2000000476837,203267.70000004768,7703,WL,A,5.0
1,14.128999948501587,learn,45871.00005149841,Wed Oct 29 2025 11:47:14 GMT-0500 (Central Daylight Time),206384.0,A,chimneyenter,O,enter,1287,1,3116.2999999523163,203267.70000004768,7703,WL,A,5.0
1,15.76200008392334,learn,44237.99991607666,Wed Oct 29 2025 11:47:14 GMT-0500 (Central Daylight Time),208016.90000009537,A,e,O,e,1611,1,1632.5999999046326,206384.30000019073,7703,WL,A,6.0
1,15.92900013923645,learn,44070.99986076355,Wed Oct 29 2025 11:47:14 GMT-0500 (Central Daylight Time),208183.30000019073,A,ea,O,a,145,1,1799.0,206384.30000019073,7703,WL,A,6.0
1,16.146000146865845,learn,43853.999853134155,Wed Oct 29 2025 11:47:14 GMT-0500 (Central Daylight Time),208400.80000019073,A,ead,O,d,201,1,2016.5,206384.30000019073,7703,WL,A,6.0
1,16.2810001373291,learn,43718.9998626709,Wed Oct 29 2025 11:47:14 GMT-0500 (Central Daylight Time),208535.20000004768,A,eado,O,o,121,1,2150.899999856949,206384.30000019073,7703,WL,A,6.0
1,16.427000045776367,learn,43572.99995422363,Wed Oct 29 2025 11:47:14 GMT-0500 (Central Daylight Time),208681.60000014305,A,eadow,O,w,133,1,2297.2999999523163,206384.30000019073,7703,WL,A,6.0
1,17.210999965667725,learn,42789.000034332275,Wed Oct 29 2025 11:47:14 GMT-0500 (Central Daylight Time),209465.70000004768,A,eado,O,backspace,770,1,3081.399999856949,206384.30000019073,7703,WL,A,6.0
1,17.8270001411438,learn,42172.9998588562,Wed Oct 29 2025 11:47:14 GMT-0500 (Central Daylight Time),210082.0,A,ead,O,backspace,601,1,3697.699999809265,206384.30000019073,7703,WL,A,6.0
1,18.045000076293945,learn,41954.999923706055,Wed Oct 29 2025 11:47:14 GMT-0500 (Central Daylight Time),210299.30000019073,A,ea,O,backspace,200,1,3915.0,206384.30000019073,7703,WL,A,6.0
1,18.24500012397766,learn,41754.99987602234,Wed Oct 29 2025 11:47:14 GMT-0500 (Central Daylight Time),210499.10000014305,A,e,O,backspace,192,1,4114.799999952316,206384.30000019073,7703,WL,A,6.0
1,18.378000020980835,learn,41621.999979019165,Wed Oct 29 2025 11:47:14 GMT-0500 (Central Daylight Time),210632.70000004768,A,,O,backspace,128,1,4248.399999856949,206384.30000019073,7703,WL,A,6.0
1,19.261000156402588,learn,40738.99984359741,Wed Oct 29 2025 11:47:14 GMT-0500 (Central Daylight Time),211515.0,A,m,O,m,866,1,5130.699999809265,206384.30000019073,7703,WL,A,6.0
1,19.51200008392334,learn,40487.99991607666,Wed Oct 29 2025 11:47:14 GMT-0500 (Central Daylight Time),211766.5,A,me,O,e,232,1,5382.199999809265,206384.30000019073,7703,WL,A,6.0
1,19.927000045776367,learn,40072.99995422363,Wed Oct 29 2025 11:47:14 GMT-0500 (Central Daylight Time),212181.70000004768,A,med,O,d,405,1,5797.399999856949,206384.30000019073,7703,WL,A,6.0
1,20.061000108718872,learn,39938.99989128113,Wed Oct 29 2025 11:47:14 GMT-0500 (Central Daylight Time),212315.70000004768,A,medo,O,o,124,1,5931.399999856949,206384.30000019073,7703,WL,A,6.0
1,20.3270001411438,learn,39672.9998588562,Wed Oct 29 2025 11:47:14 GMT-0500 (Central Daylight Time),212581.80000019073,A,medow,O,w,257,1,6197.5,206384.30000019073,7703,WL,A,6.0
1,22.210999965667725,learn,37789.000034332275,Wed Oct 29 2025 11:47:14 GMT-0500 (Central Daylight Time),214465.80000019073,A,medo,O,backspace,1868,1,8081.5,206384.30000019073,7703,WL,A,6.0
1,22.676000118255615,learn,37323.999881744385,Wed Oct 29 2025 11:47:14 GMT-0500 (Central Daylight Time),214930.60000014305,A,med,O,backspace,458,1,8546.299999952316,206384.30000019073,7703,WL,A,6.0
1,23.075999975204468,learn,36924.00002479553,Wed Oct 29 2025 11:47:14 GMT-0500 (Central Daylight Time),215330.40000009537,A,me,O,backspace,385,1,8946.099999904633,206384.30000019073,7703,WL,A,6.0
1,23.409000158309937,learn,36590.99984169006,Wed Oct 29 2025 11:47:14 GMT-0500 (Central Daylight Time),215663.5,A,mea,O,a,312,1,9279.199999809265,206384.30000019073,7703,WL,A,6.0
1,23.70900011062622,learn,36290.99988937378,Wed Oct 29 2025 11:47:14 GMT-0500 (Central Daylight Time),215963.60000014305,A,mead,O,d,285,1,9579.299999952316,206384.30000019073,7703,WL,A,6.0
1,24.407999992370605,learn,35592.000007629395,Wed Oct 29 2025 11:47:14 GMT-0500 (Central Daylight Time),216662.90000009537,A,meado,O,o,680,1,10278.599999904633,206384.30000019073,7703,WL,A,6.0
1,24.80999994277954,learn,35190.00005722046,Wed Oct 29 2025 11:47:14 GMT-0500 (Central Daylight Time),217064.70000004768,A,meadow,O,w,396,1,10680.399999856949,206384.30000019073,7703,WL,A,6.0
1,25.992000102996826,learn,34007.999897003174,Wed Oct 29 2025 11:47:14 GMT-0500 (Central Daylight Time),218246.80000019073,A,meadowenter,O,enter,1161,1,11862.5,206384.30000019073,7703,WL,A,6.0
1,28.37600016593933,learn,31623.99983406067,Wed Oct 29 2025 11:47:14 GMT-0500 (Central Daylight Time),220630.30000019073,A,b,O,b,2372,1,2383.2000000476837,218247.10000014305,7703,WL,A,7.0
1,28.508000135421753,learn,31491.999864578247,Wed Oct 29 2025 11:47:14 GMT-0500 (Central Daylight Time),220762.30000019073,A,bo,O,o,116,1,2515.2000000476837,218247.10000014305,7703,WL,A,7.0
1,28.69099998474121,learn,31309.00001525879,Wed Oct 29 2025 11:47:14 GMT-0500 (Central Daylight Time),220946.0,A,boo,O,o,168,1,2698.899999856949,218247.10000014305,7703,WL,A,7.0
1,28.789999961853027,learn,31210.000038146973,Wed Oct 29 2025 11:47:14 GMT-0500 (Central Daylight Time),221044.90000009537,A,boos,O,s,79,1,2797.7999999523163,218247.10000014305,7703,WL,A,7.0
1,29.258000135421753,learn,30741.999864578247,Wed Oct 29 2025 11:47:14 GMT-0500 (Central Daylight Time),221512.30000019073,A,boost,O,t,454,1,3265.2000000476837,218247.10000014305,7703,WL,A,7.0
1,29.557000160217285,learn,30442.999839782715,Wed Oct 29 2025 11:47:14 GMT-0500 (Central Daylight Time),221811.5,A,boostenter,O,enter,283,1,3564.399999856949,218247.10000014305,7703,WL,A,7.0
1,36.69000005722046,learn,23309.99994277954,Wed Oct 29 2025 11:47:14 GMT-0500 (Central Daylight Time),228944.40000009537,A,f,O,f,7127,1,7132.599999904633,221811.80000019073,7703,WL,A,8.0
1,36.90499997138977,learn,23095.00002861023,Wed Oct 29 2025 11:47:14 GMT-0500 (Central Daylight Time),229159.70000004768,A,fi,O,i,193,1,7347.899999856949,221811.80000019073,7703,WL,A,8.0
1,37.00500011444092,learn,22994.999885559082,Wed Oct 29 2025 11:47:14 GMT-0500 (Central Daylight Time),229259.80000019073,A,fin,O,n,82,1,7448.0,221811.80000019073,7703,WL,A,8.0
1,37.40499997138977,learn,22595.00002861023,Wed Oct 29 2025 11:47:14 GMT-0500 (Central Daylight Time),229659.5,A,fing,O,g,389,1,7847.699999809265,221811.80000019073,7703,WL,A,8.0
1,37.58800005912781,learn,22411.999940872192,Wed Oct 29 2025 11:47:14 GMT-0500 (Central Daylight Time),229842.80000019073,A,finge,O,e,168,1,8031.0,221811.80000019073,7703,WL,A,8.0
1,37.80400013923645,learn,22195.99986076355,Wed Oct 29 2025 11:47:14 GMT-0500 (Central Daylight Time),230058.90000009537,A,finger,O,r,198,1,8247.099999904633,221811.80000019073,7703,WL,A,8.0
1,38.27300000190735,learn,21726.99999809265,Wed Oct 29 2025 11:47:14 GMT-0500 (Central Daylight Time),230527.60000014305,A,fingerenter,O,enter,462,1,8715.799999952316,221811.80000019073,7703,WL,A,8.0
1,46.46799993515015,learn,13532.000064849854,Wed Oct 29 2025 11:47:14 GMT-0500 (Central Daylight Time),238722.90000009537,A,m,O,m,8188,1,8195.0,230527.90000009537,7703,WL,A,9.0
1,46.68600010871887,learn,13313.999891281128,Wed Oct 29 2025 11:47:14 GMT-0500 (Central Daylight Time),238940.40000009537,A,me,O,e,207,1,8412.5,230527.90000009537,7703,WL,A,9.0
1,46.83500003814697,learn,13164.999961853027,Wed Oct 29 2025 11:47:14 GMT-0500 (Central Daylight Time),239089.70000004768,A,mea,O,a,140,1,8561.799999952316,230527.90000009537,7703,WL,A,9.0
1,47.069000005722046,learn,12930.999994277954,Wed Oct 29 2025 11:47:14 GMT-0500 (Central Daylight Time),239323.10000014305,A,mead,O,d,222,1,8795.200000047684,230527.90000009537,7703,WL,A,9.0
1,47.2020001411438,learn,12797.999858856201,Wed Oct 29 2025 11:47:14 GMT-0500 (Central Daylight Time),239456.5,A,meado,O,o,128,1,8928.599999904633,230527.90000009537,7703,WL,A,9.0
1,47.38499999046326,learn,12615.000009536743,Wed Oct 29 2025 11:47:14 GMT-0500 (Central Daylight Time),239639.90000009537,A,meadow,O,w,167,1,9112.0,230527.90000009537,7703,WL,A,9.0
1,47.66900014877319,learn,12330.999851226807,Wed Oct 29 2025 11:47:14 GMT-0500 (Central Daylight Time),239923.20000004768,A,meadowenter,O,enter,274,1,9395.299999952316,230527.90000009537,7703,WL,A,9.0
1,60.013999938964844,learn,-13.99993896484375,Wed Oct 29 2025 11:47:14 GMT-0500 (Central Daylight Time),252269.20000004768,A,None,O,None,12341,1,12345.700000047684,239923.5,7703,WL,A,10.0
2,1.75,learn,58250.0,Wed Oct 29 2025 11:47:14 GMT-0500 (Central Daylight Time),323079.30000019073,A,r,O,r,1739,1,1750.1000001430511,321329.2000000477,7703,WL,A,1.0
2,2.0500001907348633,learn,57949.99980926514,Wed Oct 29 2025 11:47:14 GMT-0500 (Central Daylight Time),323379.30000019073,A,ru,O,u,292,1,2050.100000143051,321329.2000000477,7703,WL,A,1.0
2,2.2990000247955322,learn,57700.99997520447,Wed Oct 29 2025 11:47:14 GMT-0500 (Central Daylight Time),323628.30000019073,A,rug,O,g,241,1,2299.100000143051,321329.2000000477,7703,WL,A,1.0
2,3.383000135421753,learn,56616.99986457825,Wed Oct 29 2025 11:47:14 GMT-0500 (Central Daylight Time),324711.40000009537,A,rugenter,O,enter,1072,1,3382.2000000476837,321329.2000000477,7703,WL,A,1.0
2,4.300000190734863,learn,55699.99980926514,Wed Oct 29 2025 11:47:14 GMT-0500 (Central Daylight Time),325628.60000014305,A,c,O,c,901,1,917.0,324711.60000014305,7703,WL,A,2.0
2,4.584000110626221,learn,55415.99988937378,Wed Oct 29 2025 11:47:14 GMT-0500 (Central Daylight Time),325912.40000009537,A,ch,O,h,263,1,1200.7999999523163,324711.60000014305,7703,WL,A,2.0
2,4.75,learn,55250.0,Wed Oct 29 2025 11:47:14 GMT-0500 (Central Daylight Time),326079.10000014305,A,chi,O,i,148,1,1367.5,324711.60000014305,7703,WL,A,2.0
2,5.041000127792358,learn,54958.99987220764,Wed Oct 29 2025 11:47:14 GMT-0500 (Central Daylight Time),326369.40000009537,A,chim,O,m,285,1,1657.7999999523163,324711.60000014305,7703,WL,A,2.0
2,5.648000001907349,learn,54351.99999809265,Wed Oct 29 2025 11:47:14 GMT-0500 (Central Daylight Time),326976.80000019073,A,chimn,O,n,591,1,2265.2000000476837,324711.60000014305,7703,WL,A,2.0
2,5.984000205993652,learn,54015.99979400635,Wed Oct 29 2025 11:47:14 GMT-0500 (Central Daylight Time),327312.7000000477,A,chimne,O,e,332,1,2601.0999999046326,324711.60000014305,7703,WL,A,2.0
2,6.416000127792358,learn,53583.99987220764,Wed Oct 29 2025 11:47:14 GMT-0500 (Central Daylight Time),327744.40000009537,A,chimney,O,y,418,1,3032.7999999523163,324711.60000014305,7703,WL,A,2.0
2,7.465000152587891,learn,52534.99984741211,Wed Oct 29 2025 11:47:14 GMT-0500 (Central Daylight Time),328794.30000019073,A,chimneyenter,O,enter,1043,1,4082.7000000476837,324711.60000014305,7703,WL,A,2.0
2,8.0,learn,52000.0,Wed Oct 29 2025 11:47:14 GMT-0500 (Central Daylight Time),329328.7000000477,A,f,O,f,521,1,534.0,328794.7000000477,7703,WL,A,3.0
2,8.116000175476074,learn,51883.999824523926,Wed Oct 29 2025 11:47:14 GMT-0500 (Central Daylight Time),329444.40000009537,A,fi,O,i,97,1,649.7000000476837,328794.7000000477,7703,WL,A,3.0
2,8.21399998664856,learn,51786.00001335144,Wed Oct 29 2025 11:47:14 GMT-0500 (Central Daylight Time),329542.60000014305,A,fin,O,n,76,1,747.9000000953674,328794.7000000477,7703,WL,A,3.0
2,8.449000120162964,learn,51550.999879837036,Wed Oct 29 2025 11:47:14 GMT-0500 (Central Daylight Time),329778.0,A,fing,O,g,229,1,983.2999999523163,328794.7000000477,7703,WL,A,3.0
2,8.54800009727478,learn,51451.99990272522,Wed Oct 29 2025 11:47:14 GMT-0500 (Central Daylight Time),329877.30000019073,A,finge,O,e,86,1,1082.6000001430511,328794.7000000477,7703,WL,A,3.0
2,8.815000057220459,learn,51184.99994277954,Wed Oct 29 2025 11:47:14 GMT-0500 (Central Daylight Time),330144.2000000477,A,finger,O,r,247,1,1349.5,328794.7000000477,7703,WL,A,3.0
2,8.948000192642212,learn,51051.99980735779,Wed Oct 29 2025 11:47:14 GMT-0500 (Central Daylight Time),330277.30000019073,A,fingerenter,O,enter,113,1,1482.6000001430511,328794.7000000477,7703,WL,A,3.0
2,9.498000144958496,learn,50501.999855041504,Wed Oct 29 2025 11:47:14 GMT-0500 (Central Daylight Time),330827.30000019073,A,m,O,m,533,1,549.7000000476837,330277.60000014305,7703,WL,A,4.0
2,9.616000175476074,learn,50383.999824523926,Wed Oct 29 2025 11:47:14 GMT-0500 (Central Daylight Time),330944.90000009537,A,me,O,e,102,1,667.2999999523163,330277.60000014305,7703,WL,A,4.0
2,9.79800009727478,learn,50201.99990272522,Wed Oct 29 2025 11:47:14 GMT-0500 (Central Daylight Time),331126.90000009537,A,mea,O,a,161,1,849.2999999523163,330277.60000014305,7703,WL,A,4.0
2,10.032000064849854,learn,49967.99993515015,Wed Oct 29 2025 11:47:14 GMT-0500 (Central Daylight Time),331361.2000000477,A,mead,O,d,230,1,1083.5999999046326,330277.60000014305,7703,WL,A,4.0
2,10.147000074386597,learn,49852.9999256134,Wed Oct 29 2025 11:47:14 GMT-0500 (Central Daylight Time),331476.30000019073,A,meado,O,o,105,1,1198.7000000476837,330277.60000014305,7703,WL,A,4.0
2,10.281000137329102,learn,49718.9998626709,Wed Oct 29 2025 11:47:14 GMT-0500 (Central Daylight Time),331609.7000000477,A,meadow,O,w,119,1,1332.0999999046326,330277.60000014305,7703,WL,A,4.0
2,11.29800009727478,learn,48701.99990272522,Wed Oct 29 2025 11:47:14 GMT-0500 (Central Daylight Time),332626.60000014305,A,meadowenter,O,enter,1001,1,2349.0,330277.60000014305,7703,WL,A,4.0
2,12.48200011253357,learn,47517.99988746643,Wed Oct 29 2025 11:47:14 GMT-0500 (Central Daylight Time),333810.40000009537,A,s,O,s,1176,1,1183.5999999046326,332626.80000019073,7703,WL,A,5.0
2,12.731000185012817,learn,47268.99981498718,Wed Oct 29 2025 11:47:14 GMT-0500 (Central Daylight Time),334060.0,A,sa,O,a,242,1,1433.1999998092651,332626.80000019073,7703,WL,A,5.0
2,12.832000017166138,learn,47167.99998283386,Wed Oct 29 2025 11:47:14 GMT-0500 (Central Daylight Time),334161.40000009537,A,sal,O,l,97,1,1534.5999999046326,332626.80000019073,7703,WL,A,5.0
2,13.014000177383423,learn,46985.99982261658,Wed Oct 29 2025 11:47:14 GMT-0500 (Central Daylight Time),334342.40000009537,A,salt,O,t,169,1,1715.5999999046326,332626.80000019073,7703,WL,A,5.0
2,13.296000003814697,learn,46703.9999961853,Wed Oct 29 2025 11:47:14 GMT-0500 (Central Daylight Time),334625.10000014305,A,saltenter,O,enter,269,1,1998.2999999523163,332626.80000019073,7703,WL,A,5.0
2,13.797000169754028,learn,46202.99983024597,Wed Oct 29 2025 11:47:14 GMT-0500 (Central Daylight Time),335125.90000009537,A,l,O,l,484,1,500.59999990463257,334625.30000019073,7703,WL,A,6.0
2,14.031000137329102,learn,45968.9998626709,Wed Oct 29 2025 11:47:14 GMT-0500 (Central Daylight Time),335360.0,A,lo,O,o,215,1,734.6999998092651,334625.30000019073,7703,WL,A,6.0
2,14.062000036239624,learn,45937.999963760376,Wed Oct 29 2025 11:47:14 GMT-0500 (Central Daylight Time),335390.80000019073,A,log,O,g,10,1,765.5,334625.30000019073,7703,WL,A,6.0
2,14.265000104904175,learn,45734.999895095825,Wed Oct 29 2025 11:47:14 GMT-0500 (Central Daylight Time),335594.30000019073,A,logenter,O,enter,200,1,969.0,334625.30000019073,7703,WL,A,6.0
2,17.064000129699707,learn,42935.99987030029,Wed Oct 29 2025 11:47:14 GMT-0500 (Central Daylight Time),338392.40000009537,A,b,O,b,2784,1,2797.7999999523163,335594.60000014305,7703,WL,A,7.0
2,17.180000066757202,learn,42819.9999332428,Wed Oct 29 2025 11:47:14 GMT-0500 (Central Daylight Time),338508.80000019073,A,bo,O,o,99,1,2914.2000000476837,335594.60000014305,7703,WL,A,7.0
2,17.34500002861023,learn,42654.99997138977,Wed Oct 29 2025 11:47:14 GMT-0500 (Central Daylight Time),338674.30000019073,A,boo,O,o,158,1,3079.7000000476837,335594.60000014305,7703,WL,A,7.0
2,17.480000019073486,learn,42519.999980926514,Wed Oct 29 2025 11:47:14 GMT-0500 (Central Daylight Time),338809.2000000477,A,boos,O,s,122,1,3214.5999999046326,335594.60000014305,7703,WL,A,7.0
2,17.74500012397766,learn,42254.99987602234,Wed Oct 29 2025 11:47:14 GMT-0500 (Central Daylight Time),339074.0,A,boost,O,t,245,1,3479.399999856949,335594.60000014305,7703,WL,A,7.0
2,17.945000171661377,learn,42054.99982833862,Wed Oct 29 2025 11:47:14 GMT-0500 (Central Daylight Time),339274.2000000477,A,boostenter,O,enter,185,1,3679.5999999046326,335594.60000014305,7703,WL,A,7.0
2,19.69600009918213,learn,40303.99990081787,Wed Oct 29 2025 11:47:14 GMT-0500 (Central Daylight Time),341024.40000009537,A,f,O,f,1745,1,1749.9000000953674,339274.5,7703,WL,A,8.0
2,19.84500002861023,learn,40154.99997138977,Wed Oct 29 2025 11:47:14 GMT-0500 (Central Daylight Time),341173.7000000477,A,fi,O,i,137,1,1899.2000000476837,339274.5,7703,WL,A,8.0
2,20.01200008392334,learn,39987.99991607666,Wed Oct 29 2025 11:47:14 GMT-0500 (Central Daylight Time),341340.60000014305,A,fin,O,n,149,1,2066.100000143051,339274.5,7703,WL,A,8.0
2,20.26200008392334,learn,39737.99991607666,Wed Oct 29 2025 11:47:14 GMT-0500 (Central Daylight Time),341590.5,A,fine,O,e,231,1,2316.0,339274.5,7703,WL,A,8.0
2,20.94700002670288,learn,39052.99997329712,Wed Oct 29 2025 11:47:14 GMT-0500 (Central Daylight Time),342275.5,A,fin,O,backspace,678,1,3001.0,339274.5,7703,WL,A,8.0
2,21.144999980926514,learn,38855.000019073486,Wed Oct 29 2025 11:47:14 GMT-0500 (Central Daylight Time),342473.60000014305,A,fi,O,backspace,183,1,3199.100000143051,339274.5,7703,WL,A,8.0
2,21.461000204086304,learn,38538.999795913696,Wed Oct 29 2025 11:47:14 GMT-0500 (Central Daylight Time),342790.0,A,fig,O,g,306,1,3515.5,339274.5,7703,WL,A,8.0
2,21.746000051498413,learn,38253.99994850159,Wed Oct 29 2025 11:47:14 GMT-0500 (Central Daylight Time),343074.60000014305,A,fige,O,e,279,1,3800.100000143051,339274.5,7703,WL,A,8.0
2,22.01200008392334,learn,37987.99991607666,Wed Oct 29 2025 11:47:14 GMT-0500 (Central Daylight Time),343340.60000014305,A,figer,O,r,247,1,4066.100000143051,339274.5,7703,WL,A,8.0
2,22.57800006866455,learn,37421.99993133545,Wed Oct 29 2025 11:47:14 GMT-0500 (Central Daylight Time),343906.7000000477,A,fige,O,backspace,559,1,4632.200000047684,339274.5,7703,WL,A,8.0
2,22.794000148773193,learn,37205.99985122681,Wed Oct 29 2025 11:47:14 GMT-0500 (Central Daylight Time),344122.40000009537,A,fig,O,backspace,208,1,4847.900000095367,339274.5,7703,WL,A,8.0
2,23.07800006866455,learn,36921.99993133545,Wed Oct 29 2025 11:47:14 GMT-0500 (Central Daylight Time),344407.30000019073,A,fi,O,backspace,265,1,5132.800000190735,339274.5,7703,WL,A,8.0
2,23.794000148773193,learn,36205.99985122681,Wed Oct 29 2025 11:47:14 GMT-0500 (Central Daylight Time),345123.2000000477,A,fin,O,n,697,1,5848.700000047684,339274.5,7703,WL,A,8.0
2,24.211000204086304,learn,35788.999795913696,Wed Oct 29 2025 11:47:14 GMT-0500 (Central Daylight Time),345539.90000009537,A,fing,O,g,408,1,6265.400000095367,339274.5,7703,WL,A,8.0
2,24.49500012397766,learn,35504.99987602234,Wed Oct 29 2025 11:47:14 GMT-0500 (Central Daylight Time),345824.0,A,finge,O,e,272,1,6549.5,339274.5,7703,WL,A,8.0
2,24.729000091552734,learn,35270.999908447266,Wed Oct 29 2025 11:47:14 GMT-0500 (Central Daylight Time),346057.80000019073,A,finger,O,r,228,1,6783.300000190735,339274.5,7703,WL,A,8.0
2,26.009999990463257,learn,33990.00000953674,Wed Oct 29 2025 11:47:14 GMT-0500 (Central Daylight Time),347338.80000019073,A,fingerenter,O,enter,1271,1,8064.300000190735,339274.5,7703,WL,A,8.0
2,29.20800018310547,learn,30791.99981689453,Wed Oct 29 2025 11:47:14 GMT-0500 (Central Daylight Time),350537.2000000477,A,b,O,b,3184,1,3198.0999999046326,347339.10000014305,7703,WL,A,9.0
2,29.359000205993652,learn,30640.999794006348,Wed Oct 29 2025 11:47:14 GMT-0500 (Central Daylight Time),350687.5,A,bo,O,o,136,1,3348.399999856949,347339.10000014305,7703,WL,A,9.0
2,29.642000198364258,learn,30357.999801635742,Wed Oct 29 2025 11:47:14 GMT-0500 (Central Daylight Time),350970.80000019073,A,bos,O,s,275,1,3631.7000000476837,347339.10000014305,7703,WL,A,9.0
2,30.009000062942505,learn,29990.999937057495,Wed Oct 29 2025 11:47:14 GMT-0500 (Central Daylight Time),351337.60000014305,A,bost,O,t,351,1,3998.5,347339.10000014305,7703,WL,A,9.0
2,30.475000143051147,learn,29524.999856948853,Wed Oct 29 2025 11:47:14 GMT-0500 (Central Daylight Time),351804.0,A,bos,O,backspace,452,1,4464.899999856949,347339.10000014305,7703,WL,A,9.0
2,30.675000190734863,learn,29324.999809265137,Wed Oct 29 2025 11:47:14 GMT-0500 (Central Daylight Time),352004.0,A,bo,O,backspace,181,1,4664.899999856949,347339.10000014305,7703,WL,A,9.0
2,32.04100012779236,learn,27958.99987220764,Wed Oct 29 2025 11:47:14 GMT-0500 (Central Daylight Time),353370.30000019073,A,boo,O,o,1345,1,6031.200000047684,347339.10000014305,7703,WL,A,9.0
2,32.193000078201294,learn,27806.999921798706,Wed Oct 29 2025 11:47:14 GMT-0500 (Central Daylight Time),353521.7000000477,A,boos,O,s,144,1,6182.599999904633,347339.10000014305,7703,WL,A,9.0
2,32.592000007629395,learn,27407.999992370605,Wed Oct 29 2025 11:47:14 GMT-0500 (Central Daylight Time),353920.90000009537,A,boost,O,t,385,1,6581.799999952316,347339.10000014305,7703,WL,A,9.0
2,33.257000207901,learn,26742.999792099,Wed Oct 29 2025 11:47:14 GMT-0500 (Central Daylight Time),354585.5,A,boostenter,O,enter,650,1,7246.399999856949,347339.10000014305,7703,WL,A,9.0
2,36.15700006484985,learn,23842.999935150146,Wed Oct 29 2025 11:47:14 GMT-0500 (Central Daylight Time),357485.80000019073,A,f,O,f,2890,1,2900.100000143051,354585.7000000477,7703,WL,A,10.0
2,36.27400016784668,learn,23725.99983215332,Wed Oct 29 2025 11:47:14 GMT-0500 (Central Daylight Time),357602.5,A,fl,O,l,109,1,3016.7999999523163,354585.7000000477,7703,WL,A,10.0
2,36.50600004196167,learn,23493.99995803833,Wed Oct 29 2025 11:47:14 GMT-0500 (Central Daylight Time),357835.2000000477,A,flo,O,o,223,1,3249.5,354585.7000000477,7703,WL,A,10.0
2,36.59000015258789,learn,23409.99984741211,Wed Oct 29 2025 11:47:14 GMT-0500 (Central Daylight Time),357918.60000014305,A,flow,O,w,71,1,3332.9000000953674,354585.7000000477,7703,WL,A,10.0
2,36.723999977111816,learn,23276.000022888184,Wed Oct 29 2025 11:47:14 GMT-0500 (Central Daylight Time),358052.7000000477,A,flowe,O,e,116,1,3467.0,354585.7000000477,7703,WL,A,10.0
2,36.9060001373291,learn,23093.9998626709,Wed Oct 29 2025 11:47:14 GMT-0500 (Central Daylight Time),358235.10000014305,A,flower,O,r,165,1,3649.4000000953674,354585.7000000477,7703,WL,A,10.0
2,37.390000104904175,learn,22609.999895095825,Wed Oct 29 2025 11:47:14 GMT-0500 (Central Daylight Time),358718.60000014305,A,flowerenter,O,enter,461,1,4132.900000095367,354585.7000000477,7703,WL,A,10.0
2,38.98800015449524,learn,21011.99984550476,Wed Oct 29 2025 11:47:14 GMT-0500 (Central Daylight Time),360317.80000019073,A,s,O,s,1588,1,1599.0,358718.80000019073,7703,WL,A,11.0
2,39.2720000743866,learn,20727.999925613403,Wed Oct 29 2025 11:47:14 GMT-0500 (Central Daylight Time),360601.60000014305,A,sa,O,a,276,1,1882.7999999523163,358718.80000019073,7703,WL,A,11.0
2,39.33800005912781,learn,20661.999940872192,Wed Oct 29 2025 11:47:14 GMT-0500 (Central Daylight Time),360667.5,A,sal,O,l,48,1,1948.6999998092651,358718.80000019073,7703,WL,A,11.0
2,39.48800015449524,learn,20511.99984550476,Wed Oct 29 2025 11:47:14 GMT-0500 (Central Daylight Time),360817.80000019073,A,salt,O,t,144,1,2099.0,358718.80000019073,7703,WL,A,11.0
2,39.7720000743866,learn,20227.999925613403,Wed Oct 29 2025 11:47:14 GMT-0500 (Central Daylight Time),361101.5,A,saltenter,O,enter,274,1,2382.699999809265,358718.80000019073,7703,WL,A,11.0
2,48.235000133514404,learn,11764.999866485596,Wed Oct 29 2025 11:47:14 GMT-0500 (Central Daylight Time),369564.90000009537,A,b,O,b,8455,1,8463.200000047684,361101.7000000477,7703,WL,A,12.0
2,48.35199999809265,learn,11648.000001907349,Wed Oct 29 2025 11:47:14 GMT-0500 (Central Daylight Time),369681.30000019073,A,bo,O,o,112,1,8579.600000143051,361101.7000000477,7703,WL,A,12.0
2,48.5530002117157,learn,11446.999788284302,Wed Oct 29 2025 11:47:14 GMT-0500 (Central Daylight Time),369883.0,A,boo,O,o,194,1,8781.299999952316,361101.7000000477,7703,WL,A,12.0
2,48.70099997520447,learn,11299.000024795532,Wed Oct 29 2025 11:47:14 GMT-0500 (Central Daylight Time),370030.30000019073,A,book,O,k,125,1,8928.600000143051,361101.7000000477,7703,WL,A,12.0
2,48.98400020599365,learn,11015.999794006348,Wed Oct 29 2025 11:47:14 GMT-0500 (Central Daylight Time),370314.0,A,bookenter,O,enter,269,1,9212.299999952316,361101.7000000477,7703,WL,A,12.0
2,60.015000104904175,learn,-15.000104904174805,Wed Oct 29 2025 11:47:14 GMT-0500 (Central Daylight Time),381344.5,A,None,O,None,11027,1,11030.299999952316,370314.2000000477,7703,WL,A,13.0
3,0.9149999618530273,learn,59085.00003814697,Wed Oct 29 2025 11:47:14 GMT-0500 (Central Daylight Time),461568.90000009537,A,h,O,h,911,1,914.5999999046326,460654.30000019073,7703,WL,A,1.0
3,2.931999921798706,learn,57068.000078201294,Wed Oct 29 2025 11:47:14 GMT-0500 (Central Daylight Time),463585.90000009537,A,ha,O,a,2010,1,2931.5999999046326,460654.30000019073,7703,WL,A,1.0
3,3.2130000591278076,learn,56786.99994087219,Wed Oct 29 2025 11:47:14 GMT-0500 (Central Daylight Time),463867.5,A,har,O,r,263,1,3213.199999809265,460654.30000019073,7703,WL,A,1.0
3,3.8310000896453857,learn,56168.999910354614,Wed Oct 29 2025 11:47:14 GMT-0500 (Central Daylight Time),464485.0,A,harp,O,p,599,1,3830.699999809265,460654.30000019073,7703,WL,A,1.0
3,4.313999891281128,learn,55686.00010871887,Wed Oct 29 2025 11:47:14 GMT-0500 (Central Daylight Time),464968.10000014305,A,harpa,O,a,480,1,4313.799999952316,460654.30000019073,7703,WL,A,1.0
3,4.596999883651733,learn,55403.00011634827,Wed Oct 29 2025 11:47:14 GMT-0500 (Central Daylight Time),465251.60000014305,A,harpap,O,p,265,1,4597.299999952316,460654.30000019073,7703,WL,A,1.0
3,4.7799999713897705,learn,55220.00002861023,Wed Oct 29 2025 11:47:14 GMT-0500 (Central Daylight Time),465434.5,A,harpapp,O,p,174,1,4780.199999809265,460654.30000019073,7703,WL,A,1.0
3,5.829999923706055,learn,54170.000076293945,Wed Oct 29 2025 11:47:14 GMT-0500 (Central Daylight Time),466484.60000014305,A,harpap,O,backspace,1041,1,5830.299999952316,460654.30000019073,7703,WL,A,1.0
3,6.164000034332275,learn,53835.999965667725,Wed Oct 29 2025 11:47:14 GMT-0500 (Central Daylight Time),466818.60000014305,A,harpa,O,backspace,328,1,6164.299999952316,460654.30000019073,7703,WL,A,1.0
3,6.697000026702881,learn,53302.99997329712,Wed Oct 29 2025 11:47:14 GMT-0500 (Central Daylight Time),467351.80000019073,A,harp,O,backspace,519,1,6697.5,460654.30000019073,7703,WL,A,1.0
3,7.3459999561309814,learn,52654.00004386902,Wed Oct 29 2025 11:47:14 GMT-0500 (Central Daylight Time),468000.10000014305,A,harpenter,O,enter,639,1,7345.799999952316,460654.30000019073,7703,WL,A,1.0
3,7.687000036239624,learn,52312.999963760376,Wed Oct 29 2025 11:47:14 GMT-0500 (Central Daylight Time),468341.60000014305,A,a,O,a,338,1,341.2999999523163,468000.30000019073,7703,WL,A,2.0
3,7.963000059127808,learn,52036.99994087219,Wed Oct 29 2025 11:47:14 GMT-0500 (Central Daylight Time),468617.5,A,ap,O,p,271,1,617.1999998092651,468000.30000019073,7703,WL,A,2.0
3,8.129999876022339,learn,51870.00012397766,Wed Oct 29 2025 11:47:14 GMT-0500 (Central Daylight Time),468784.5,A,app,O,p,163,1,784.1999998092651,468000.30000019073,7703,WL,A,2.0
3,8.44599986076355,learn,51554.00013923645,Wed Oct 29 2025 11:47:14 GMT-0500 (Central Daylight Time),469100.0,A,appe,O,e,297,1,1099.6999998092651,468000.30000019073,7703,WL,A,2.0
3,10.045000076293945,learn,49954.999923706055,Wed Oct 29 2025 11:47:14 GMT-0500 (Central Daylight Time),470699.60000014305,A,app,O,backspace,1591,1,2699.2999999523163,468000.30000019073,7703,WL,A,2.0
3,10.411999940872192,learn,49588.00005912781,Wed Oct 29 2025 11:47:14 GMT-0500 (Central Daylight Time),471066.10000014305,A,appl,O,l,362,1,3065.7999999523163,468000.30000019073,7703,WL,A,2.0
3,10.579999923706055,learn,49420.000076293945,Wed Oct 29 2025 11:47:14 GMT-0500 (Central Daylight Time),471234.2000000477,A,apple,O,e,160,1,3233.899999856949,468000.30000019073,7703,WL,A,2.0
3,11.611000061035156,learn,48388.999938964844,Wed Oct 29 2025 11:47:14 GMT-0500 (Central Daylight Time),472265.60000014305,A,appleenter,O,enter,1024,1,4265.299999952316,468000.30000019073,7703,WL,A,2.0
3,11.92799997329712,learn,48072.00002670288,Wed Oct 29 2025 11:47:14 GMT-0500 (Central Daylight Time),472582.60000014305,A,t,O,t,297,1,316.7999999523163,472265.80000019073,7703,WL,A,3.0
3,12.16100001335144,learn,47838.99998664856,Wed Oct 29 2025 11:47:14 GMT-0500 (Central Daylight Time),472815.60000014305,A,tr,O,r,211,1,549.7999999523163,472265.80000019073,7703,WL,A,3.0
3,12.477999925613403,learn,47522.0000743866,Wed Oct 29 2025 11:47:14 GMT-0500 (Central Daylight Time),473132.60000014305,A,tri,O,i,308,1,866.7999999523163,472265.80000019073,7703,WL,A,3.0
3,12.644000053405762,learn,47355.99994659424,Wed Oct 29 2025 11:47:14 GMT-0500 (Central Daylight Time),473298.2000000477,A,trin,O,n,159,1,1032.3999998569489,472265.80000019073,7703,WL,A,3.0
3,12.944000005722046,learn,47055.999994277954,Wed Oct 29 2025 11:47:14 GMT-0500 (Central Daylight Time),473598.5,A,trinenter,O,enter,279,1,1332.6999998092651,472265.80000019073,7703,WL,A,3.0
3,13.394999980926514,learn,46605.000019073486,Wed Oct 29 2025 11:47:14 GMT-0500 (Central Daylight Time),474049.30000019073,A,c,O,c,445,1,450.60000014305115,473598.7000000477,7703,WL,A,4.0
3,13.592999935150146,learn,46407.00006484985,Wed Oct 29 2025 11:47:14 GMT-0500 (Central Daylight Time),474247.7000000477,A,ch,O,h,185,1,649.0,473598.7000000477,7703,WL,A,4.0
3,14.611000061035156,learn,45388.999938964844,Wed Oct 29 2025 11:47:14 GMT-0500 (Central Daylight Time),475265.30000019073,A,chi,O,i,1010,1,1666.6000001430511,473598.7000000477,7703,WL,A,4.0
3,14.859999895095825,learn,45140.000104904175,Wed Oct 29 2025 11:47:14 GMT-0500 (Central Daylight Time),475514.0,A,chim,O,m,241,1,1915.2999999523163,473598.7000000477,7703,WL,A,4.0
3,15.259999990463257,learn,44740.00000953674,Wed Oct 29 2025 11:47:14 GMT-0500 (Central Daylight Time),475914.10000014305,A,chimn,O,n,395,1,2315.4000000953674,473598.7000000477,7703,WL,A,4.0
3,15.428999900817871,learn,44571.00009918213,Wed Oct 29 2025 11:47:14 GMT-0500 (Central Daylight Time),476083.60000014305,A,chimne,O,e,160,1,2484.9000000953674,473598.7000000477,7703,WL,A,4.0
3,16.39400005340576,learn,43605.99994659424,Wed Oct 29 2025 11:47:14 GMT-0500 (Central Daylight Time),477048.10000014305,A,chimney,O,y,960,1,3449.4000000953674,473598.7000000477,7703,WL,A,4.0
3,16.628000020980835,learn,43371.999979019165,Wed Oct 29 2025 11:47:14 GMT-0500 (Central Daylight Time),477282.10000014305,A,chimneyenter,O,enter,229,1,3683.4000000953674,473598.7000000477,7703,WL,A,4.0
3,17.126999855041504,learn,42873.000144958496,Wed Oct 29 2025 11:47:14 GMT-0500 (Central Daylight Time),477780.90000009537,A,l,O,l,489,1,498.5,477282.40000009537,7703,WL,A,5.0
3,17.41000008583069,learn,42589.99991416931,Wed Oct 29 2025 11:47:14 GMT-0500 (Central Daylight Time),478064.10000014305,A,lo,O,o,270,1,781.7000000476837,477282.40000009537,7703,WL,A,5.0
3,17.57699990272522,learn,42423.00009727478,Wed Oct 29 2025 11:47:14 GMT-0500 (Central Daylight Time),478230.80000019073,A,log,O,g,146,1,948.4000000953674,477282.40000009537,7703,WL,A,5.0
3,17.91000008583069,learn,42089.99991416931,Wed Oct 29 2025 11:47:14 GMT-0500 (Central Daylight Time),478563.7000000477,A,logenter,O,enter,323,1,1281.2999999523163,477282.40000009537,7703,WL,A,5.0
3,18.259000062942505,learn,41740.999937057495,Wed Oct 29 2025 11:47:14 GMT-0500 (Central Daylight Time),478913.7000000477,A,s,O,s,346,1,349.59999990463257,478564.10000014305,7703,WL,A,6.0
3,18.57699990272522,learn,41423.00009727478,Wed Oct 29 2025 11:47:14 GMT-0500 (Central Daylight Time),479230.80000019073,A,sa,O,a,307,1,666.7000000476837,478564.10000014305,7703,WL,A,6.0
3,19.04200005531311,learn,40957.99994468689,Wed Oct 29 2025 11:47:14 GMT-0500 (Central Daylight Time),479696.40000009537,A,sat,O,t,453,1,1132.2999999523163,478564.10000014305,7703,WL,A,6.0
3,21.707000017166138,learn,38292.99998283386,Wed Oct 29 2025 11:47:14 GMT-0500 (Central Daylight Time),482362.0,A,sa,O,backspace,2658,1,3797.899999856949,478564.10000014305,7703,WL,A,6.0
3,22.871999979019165,learn,37128.000020980835,Wed Oct 29 2025 11:47:14 GMT-0500 (Central Daylight Time),483527.30000019073,A,sal,O,l,1160,1,4963.200000047684,478564.10000014305,7703,WL,A,6.0
3,23.139999866485596,learn,36860.000133514404,Wed Oct 29 2025 11:47:14 GMT-0500 (Central Daylight Time),483795.2000000477,A,salt,O,t,265,1,5231.099999904633,478564.10000014305,7703,WL,A,6.0
3,23.80900001525879,learn,36190.99998474121,Wed Oct 29 2025 11:47:14 GMT-0500 (Central Daylight Time),484464.40000009537,A,saltenter,O,enter,655,1,5900.299999952316,478564.10000014305,7703,WL,A,6.0
3,25.121999979019165,learn,34878.000020980835,Wed Oct 29 2025 11:47:14 GMT-0500 (Central Daylight Time),485776.60000014305,A,l,O,l,1306,1,1312.0,484464.60000014305,7703,WL,A,7.0
3,25.372999906539917,learn,34627.00009346008,Wed Oct 29 2025 11:47:14 GMT-0500 (Central Daylight Time),486028.0,A,lo,O,o,244,1,1563.3999998569489,484464.60000014305,7703,WL,A,7.0
3,25.539999961853027,learn,34460.00003814697,Wed Oct 29 2025 11:47:14 GMT-0500 (Central Daylight Time),486194.80000019073,A,log,O,g,146,1,1730.2000000476837,484464.60000014305,7703,WL,A,7.0
3,25.69000005722046,learn,34309.99994277954,Wed Oct 29 2025 11:47:14 GMT-0500 (Central Daylight Time),486344.90000009537,A,logenter,O,enter,142,1,1880.2999999523163,484464.60000014305,7703,WL,A,7.0
3,25.97499990463257,learn,34025.00009536743,Wed Oct 29 2025 11:47:14 GMT-0500 (Central Daylight Time),486629.7000000477,A,f,O,f,265,1,284.39999985694885,486345.30000019073,7703,WL,A,8.0
3,26.139999866485596,learn,33860.000133514404,Wed Oct 29 2025 11:47:14 GMT-0500 (Central Daylight Time),486794.5,A,fi,O,i,150,1,449.19999980926514,486345.30000019073,7703,WL,A,8.0
3,26.35599994659424,learn,33644.00005340576,Wed Oct 29 2025 11:47:14 GMT-0500 (Central Daylight Time),487010.60000014305,A,fin,O,n,200,1,665.2999999523163,486345.30000019073,7703,WL,A,8.0
3,26.721999883651733,learn,33278.00011634827,Wed Oct 29 2025 11:47:14 GMT-0500 (Central Daylight Time),487377.10000014305,A,fing,O,g,362,1,1031.7999999523163,486345.30000019073,7703,WL,A,8.0
3,26.954999923706055,learn,33045.000076293945,Wed Oct 29 2025 11:47:14 GMT-0500 (Central Daylight Time),487610.0,A,finge,O,e,218,1,1264.6999998092651,486345.30000019073,7703,WL,A,8.0
3,27.138999938964844,learn,32861.000061035156,Wed Oct 29 2025 11:47:14 GMT-0500 (Central Daylight Time),487793.80000019073,A,finger,O,r,163,1,1448.5,486345.30000019073,7703,WL,A,8.0
3,27.789000034332275,learn,32210.999965667725,Wed Oct 29 2025 11:47:14 GMT-0500 (Central Daylight Time),488443.7000000477,A,fingerenter,O,enter,641,1,2098.399999856949,486345.30000019073,7703,WL,A,8.0
3,28.10699987411499,learn,31893.00012588501,Wed Oct 29 2025 11:47:14 GMT-0500 (Central Daylight Time),488761.80000019073,A,m,O,m,296,1,317.90000009536743,488443.90000009537,7703,WL,A,9.0
3,28.15400004386902,learn,31845.99995613098,Wed Oct 29 2025 11:47:14 GMT-0500 (Central Daylight Time),488809.30000019073,A,me,O,e,31,1,365.40000009536743,488443.90000009537,7703,WL,A,9.0
3,28.44000005722046,learn,31559.99994277954,Wed Oct 29 2025 11:47:14 GMT-0500 (Central Daylight Time),489095.0,A,mea,O,a,267,1,651.0999999046326,488443.90000009537,7703,WL,A,9.0
3,28.7739999294281,learn,31226.0000705719,Wed Oct 29 2025 11:47:14 GMT-0500 (Central Daylight Time),489428.5,A,meao,O,o,325,1,984.5999999046326,488443.90000009537,7703,WL,A,9.0
3,28.905999898910522,learn,31094.000101089478,Wed Oct 29 2025 11:47:14 GMT-0500 (Central Daylight Time),489560.5,A,meaow,O,w,125,1,1116.5999999046326,488443.90000009537,7703,WL,A,9.0
3,29.256999969482422,learn,30743.000030517578,Wed Oct 29 2025 11:47:14 GMT-0500 (Central Daylight Time),489911.60000014305,A,meaowenter,O,enter,337,1,1467.7000000476837,488443.90000009537,7703,WL,A,9.0
3,37.486000061035156,learn,22513.999938964844,Wed Oct 29 2025 11:47:14 GMT-0500 (Central Daylight Time),498140.60000014305,A,t,O,t,8212,1,8228.700000047684,489911.90000009537,7703,WL,A,10.0
3,37.7189998626709,learn,22281.0001373291,Wed Oct 29 2025 11:47:14 GMT-0500 (Central Daylight Time),498374.30000019073,A,tr,O,r,220,1,8462.400000095367,489911.90000009537,7703,WL,A,10.0
3,37.96799993515015,learn,22032.000064849854,Wed Oct 29 2025 11:47:14 GMT-0500 (Central Daylight Time),498622.7000000477,A,tri,O,i,226,1,8710.799999952316,489911.90000009537,7703,WL,A,10.0
3,38.08500003814697,learn,21914.999961853027,Wed Oct 29 2025 11:47:14 GMT-0500 (Central Daylight Time),498740.2000000477,A,trin,O,n,101,1,8828.299999952316,489911.90000009537,7703,WL,A,10.0
3,39.05200004577637,learn,20947.999954223633,Wed Oct 29 2025 11:47:14 GMT-0500 (Central Daylight Time),499707.2000000477,A,trinenter,O,enter,952,1,9795.299999952316,489911.90000009537,7703,WL,A,10.0
3,40.319000005722046,learn,19680.999994277954,Wed Oct 29 2025 11:47:14 GMT-0500 (Central Daylight Time),500973.7000000477,A,a,O,a,1255,1,1266.2000000476837,499707.5,7703,WL,A,11.0
3,40.569000005722046,learn,19430.999994277954,Wed Oct 29 2025 11:47:14 GMT-0500 (Central Daylight Time),501224.10000014305,A,ap,O,p,236,1,1516.6000001430511,499707.5,7703,WL,A,11.0
3,40.800999879837036,learn,19199.000120162964,Wed Oct 29 2025 11:47:14 GMT-0500 (Central Daylight Time),501456.10000014305,A,app,O,p,210,1,1748.6000001430511,499707.5,7703,WL,A,11.0
3,41.00099992752075,learn,18999.000072479248,Wed Oct 29 2025 11:47:14 GMT-0500 (Central Daylight Time),501656.2000000477,A,appl,O,l,186,1,1948.7000000476837,499707.5,7703,WL,A,11.0
3,41.08500003814697,learn,18914.999961853027,Wed Oct 29 2025 11:47:14 GMT-0500 (Central Daylight Time),501739.80000019073,A,apple,O,e,73,1,2032.3000001907349,499707.5,7703,WL,A,11.0
3,41.33500003814697,learn,18664.999961853027,Wed Oct 29 2025 11:47:14 GMT-0500 (Central Daylight Time),501989.7000000477,A,appleenter,O,enter,230,1,2282.2000000476837,499707.5,7703,WL,A,11.0
3,43.08399987220764,learn,16916.00012779236,Wed Oct 29 2025 11:47:14 GMT-0500 (Central Daylight Time),503739.30000019073,A,c,O,c,1734,1,1749.4000000953674,501989.90000009537,7703,WL,A,12.0
3,43.20099997520447,learn,16799.000024795532,Wed Oct 29 2025 11:47:14 GMT-0500 (Central Daylight Time),503855.90000009537,A,ch,O,h,96,1,1866.0,501989.90000009537,7703,WL,A,12.0
3,43.299999952316284,learn,16700.000047683716,Wed Oct 29 2025 11:47:14 GMT-0500 (Central Daylight Time),503954.7000000477,A,chi,O,i,80,1,1964.7999999523163,501989.90000009537,7703,WL,A,12.0
3,43.467000007629395,learn,16532.999992370605,Wed Oct 29 2025 11:47:14 GMT-0500 (Central Daylight Time),504122.0,A,chim,O,m,151,1,2132.0999999046326,501989.90000009537,7703,WL,A,12.0
3,43.66799998283386,learn,16332.000017166138,Wed Oct 29 2025 11:47:14 GMT-0500 (Central Daylight Time),504323.10000014305,A,chimn,O,n,181,1,2333.2000000476837,501989.90000009537,7703,WL,A,12.0
3,43.86999988555908,learn,16130.000114440918,Wed Oct 29 2025 11:47:14 GMT-0500 (Central Daylight Time),504524.60000014305,A,chimne,O,e,194,1,2534.7000000476837,501989.90000009537,7703,WL,A,12.0
3,43.91700005531311,learn,16082.99994468689,Wed Oct 29 2025 11:47:14 GMT-0500 (Central Daylight Time),504571.5,A,chimney,O,y,38,1,2581.5999999046326,501989.90000009537,7703,WL,A,12.0
3,44.61699986457825,learn,15383.000135421753,Wed Oct 29 2025 11:47:14 GMT-0500 (Central Daylight Time),505272.10000014305,A,chimneyenter,O,enter,687,1,3282.2000000476837,501989.90000009537,7703,WL,A,12.0
3,57.52900004386902,learn,2470.9999561309814,Wed Oct 29 2025 11:47:14 GMT-0500 (Central Daylight Time),518184.2000000477,A,r,O,r,12900,1,12911.799999952316,505272.40000009537,7703,WL,A,13.0
3,57.69599986076355,learn,2304.00013923645,Wed Oct 29 2025 11:47:14 GMT-0500 (Central Daylight Time),518351.10000014305,A,ru,O,u,159,1,13078.700000047684,505272.40000009537,7703,WL,A,13.0
3,57.87899994850159,learn,2121.000051498413,Wed Oct 29 2025 11:47:14 GMT-0500 (Central Daylight Time),518533.90000009537,A,rug,O,g,172,1,13261.5,505272.40000009537,7703,WL,A,13.0
3,58.2279999256134,learn,1772.0000743865967,Wed Oct 29 2025 11:47:14 GMT-0500 (Central Daylight Time),518883.30000019073,A,rugenter,O,enter,330,1,13610.900000095367,505272.40000009537,7703,WL,A,13.0
3,60.01200008392334,learn,-12.000083923339844,Wed Oct 29 2025 11:47:14 GMT-0500 (Central Daylight Time),520667.0,A,None,O,None,1779,1,1783.3999998569489,518883.60000014305,7703,WL,A,14.0
4,1.5169999599456787,learn,58483.00004005432,Wed Oct 29 2025 11:47:14 GMT-0500 (Central Daylight Time),590446.3000001907,A,b,O,b,1508,1,1516.6000001430511,588929.7000000477,7703,WL,A,1.0
4,1.8320000171661377,learn,58167.99998283386,Wed Oct 29 2025 11:47:14 GMT-0500 (Central Daylight Time),590762.0,A,bu,O,u,310,1,1832.2999999523163,588929.7000000477,7703,WL,A,1.0
4,2.0820000171661377,learn,57917.99998283386,Wed Oct 29 2025 11:47:14 GMT-0500 (Central Daylight Time),591011.3000001907,A,but,O,t,231,1,2081.600000143051,588929.7000000477,7703,WL,A,1.0
4,2.2150001525878906,learn,57784.99984741211,Wed Oct 29 2025 11:47:14 GMT-0500 (Central Daylight Time),591145.100000143,A,butt,O,t,130,1,2215.4000000953674,588929.7000000477,7703,WL,A,1.0
4,2.499000072479248,learn,57500.99992752075,Wed Oct 29 2025 11:47:14 GMT-0500 (Central Daylight Time),591429.100000143,A,butto,O,o,272,1,2499.4000000953674,588929.7000000477,7703,WL,A,1.0
4,2.765000104904175,learn,57234.999895095825,Wed Oct 29 2025 11:47:14 GMT-0500 (Central Daylight Time),591694.5,A,button,O,n,246,1,2764.7999999523163,588929.7000000477,7703,WL,A,1.0
4,3.7820000648498535,learn,56217.99993515015,Wed Oct 29 2025 11:47:14 GMT-0500 (Central Daylight Time),592711.5,A,buttont,O,t,1005,1,3781.7999999523163,588929.7000000477,7703,WL,A,1.0
4,4.031000137329102,learn,55968.9998626709,Wed Oct 29 2025 11:47:14 GMT-0500 (Central Daylight Time),592960.3000001907,A,buttontr,O,r,244,1,4030.600000143051,588929.7000000477,7703,WL,A,1.0
4,4.248000144958496,learn,55751.999855041504,Wed Oct 29 2025 11:47:14 GMT-0500 (Central Daylight Time),593178.0,A,buttontra,O,a,210,1,4248.299999952316,588929.7000000477,7703,WL,A,1.0
4,4.447000026702881,learn,55552.99997329712,Wed Oct 29 2025 11:47:14 GMT-0500 (Central Daylight Time),593377.100000143,A,buttontrai,O,i,184,1,4447.400000095367,588929.7000000477,7703,WL,A,1.0
4,4.680999994277954,learn,55319.000005722046,Wed Oct 29 2025 11:47:14 GMT-0500 (Central Daylight Time),593610.5,A,buttontrain,O,n,215,1,4680.799999952316,588929.7000000477,7703,WL,A,1.0
4,5.864000082015991,learn,54135.99991798401,Wed Oct 29 2025 11:47:14 GMT-0500 (Central Daylight Time),594793.7000000477,A,buttontrai,O,backspace,1176,1,5864.0,588929.7000000477,7703,WL,A,1.0
4,6.147000074386597,learn,53852.9999256134,Wed Oct 29 2025 11:47:14 GMT-0500 (Central Daylight Time),595076.4000000954,A,buttontra,O,backspace,263,1,6146.700000047684,588929.7000000477,7703,WL,A,1.0
4,6.380000114440918,learn,53619.99988555908,Wed Oct 29 2025 11:47:14 GMT-0500 (Central Daylight Time),595309.9000000954,A,buttontr,O,backspace,213,1,6380.200000047684,588929.7000000477,7703,WL,A,1.0
4,6.611999988555908,learn,53388.00001144409,Wed Oct 29 2025 11:47:14 GMT-0500 (Central Daylight Time),595541.4000000954,A,buttont,O,backspace,213,1,6611.700000047684,588929.7000000477,7703,WL,A,1.0
4,6.880000114440918,learn,53119.99988555908,Wed Oct 29 2025 11:47:14 GMT-0500 (Central Daylight Time),595809.600000143,A,button,O,backspace,262,1,6879.900000095367,588929.7000000477,7703,WL,A,1.0
4,7.746000051498413,learn,52253.99994850159,Wed Oct 29 2025 11:47:14 GMT-0500 (Central Daylight Time),596675.3000001907,A,buttonenter,O,enter,857,1,7745.600000143051,588929.7000000477,7703,WL,A,1.0
4,8.130000114440918,learn,51869.99988555908,Wed Oct 29 2025 11:47:14 GMT-0500 (Central Daylight Time),597059.600000143,A,t,O,t,377,1,384.10000014305115,596675.5,7703,WL,A,2.0
4,8.397000074386597,learn,51602.9999256134,Wed Oct 29 2025 11:47:14 GMT-0500 (Central Daylight Time),597326.600000143,A,tr,O,r,246,1,651.1000001430511,596675.5,7703,WL,A,2.0
4,8.680999994277954,learn,51319.000005722046,Wed Oct 29 2025 11:47:14 GMT-0500 (Central Daylight Time),597610.8000001907,A,tri,O,i,278,1,935.3000001907349,596675.5,7703,WL,A,2.0
4,8.847000122070312,learn,51152.99987792969,Wed Oct 29 2025 11:47:14 GMT-0500 (Central Daylight Time),597776.100000143,A,trin,O,n,151,1,1100.6000001430511,596675.5,7703,WL,A,2.0
4,9.229000091552734,learn,50770.999908447266,Wed Oct 29 2025 11:47:14 GMT-0500 (Central Daylight Time),598159.100000143,A,trinenter,O,enter,361,1,1483.6000001430511,596675.5,7703,WL,A,2.0
4,9.578999996185303,learn,50421.0000038147,Wed Oct 29 2025 11:47:14 GMT-0500 (Central Daylight Time),598509.0,A,r,O,r,341,1,349.69999980926514,598159.3000001907,7703,WL,A,3.0
4,9.845999956130981,learn,50154.00004386902,Wed Oct 29 2025 11:47:14 GMT-0500 (Central Daylight Time),598775.4000000954,A,ra,O,a,245,1,616.0999999046326,598159.3000001907,7703,WL,A,3.0
4,9.896000146865845,learn,50103.999853134155,Wed Oct 29 2025 11:47:14 GMT-0500 (Central Daylight Time),598825.600000143,A,rat,O,t,42,1,666.2999999523163,598159.3000001907,7703,WL,A,3.0
4,10.147000074386597,learn,49852.9999256134,Wed Oct 29 2025 11:47:14 GMT-0500 (Central Daylight Time),599076.2000000477,A,ratt,O,t,235,1,916.8999998569489,598159.3000001907,7703,WL,A,3.0
4,10.896000146865845,learn,49103.999853134155,Wed Oct 29 2025 11:47:14 GMT-0500 (Central Daylight Time),599825.600000143,A,rattl,O,l,743,1,1666.2999999523163,598159.3000001907,7703,WL,A,3.0
4,11.04699993133545,learn,48953.00006866455,Wed Oct 29 2025 11:47:14 GMT-0500 (Central Daylight Time),599976.3000001907,A,rattle,O,e,135,1,1817.0,598159.3000001907,7703,WL,A,3.0
4,11.227999925613403,learn,48772.0000743866,Wed Oct 29 2025 11:47:14 GMT-0500 (Central Daylight Time),600158.5,A,rattleenter,O,enter,171,1,1999.1999998092651,598159.3000001907,7703,WL,A,3.0
4,11.712000131607056,learn,48287.999868392944,Wed Oct 29 2025 11:47:14 GMT-0500 (Central Daylight Time),600642.600000143,A,l,O,l,468,1,483.7999999523163,600158.8000001907,7703,WL,A,4.0
4,11.944000005722046,learn,48055.999994277954,Wed Oct 29 2025 11:47:14 GMT-0500 (Central Daylight Time),600874.7000000477,A,lo,O,o,226,1,715.8999998569489,600158.8000001907,7703,WL,A,4.0
4,12.080000162124634,learn,47919.999837875366,Wed Oct 29 2025 11:47:14 GMT-0500 (Central Daylight Time),601010.3000001907,A,log,O,g,121,1,851.5,600158.8000001907,7703,WL,A,4.0
4,12.261000156402588,learn,47738.99984359741,Wed Oct 29 2025 11:47:14 GMT-0500 (Central Daylight Time),601191.100000143,A,logenter,O,enter,167,1,1032.2999999523163,600158.8000001907,7703,WL,A,4.0
4,12.778000116348267,learn,47221.99988365173,Wed Oct 29 2025 11:47:14 GMT-0500 (Central Daylight Time),601708.3000001907,A,t,O,t,508,1,517.0,601191.3000001907,7703,WL,A,5.0
4,13.029000043869019,learn,46970.99995613098,Wed Oct 29 2025 11:47:14 GMT-0500 (Central Daylight Time),601959.0,A,tr,O,r,230,1,767.6999998092651,601191.3000001907,7703,WL,A,5.0
4,13.26200008392334,learn,46737.99991607666,Wed Oct 29 2025 11:47:14 GMT-0500 (Central Daylight Time),602192.4000000954,A,tra,O,a,210,1,1001.0999999046326,601191.3000001907,7703,WL,A,5.0
4,13.394000053405762,learn,46605.99994659424,Wed Oct 29 2025 11:47:14 GMT-0500 (Central Daylight Time),602324.600000143,A,trai,O,i,121,1,1133.2999999523163,601191.3000001907,7703,WL,A,5.0
4,13.561000108718872,learn,46438.99989128113,Wed Oct 29 2025 11:47:14 GMT-0500 (Central Daylight Time),602491.100000143,A,train,O,n,159,1,1299.7999999523163,601191.3000001907,7703,WL,A,5.0
4,13.89300012588501,learn,46106.99987411499,Wed Oct 29 2025 11:47:14 GMT-0500 (Central Daylight Time),602823.4000000954,A,trainenter,O,enter,320,1,1632.0999999046326,601191.3000001907,7703,WL,A,5.0
4,15.943000078201294,learn,44056.999921798706,Wed Oct 29 2025 11:47:14 GMT-0500 (Central Daylight Time),604873.7000000477,A,a,O,a,2036,1,2050.0,602823.7000000477,7703,WL,A,6.0
4,16.110000133514404,learn,43889.999866485596,Wed Oct 29 2025 11:47:14 GMT-0500 (Central Daylight Time),605039.9000000954,A,ap,O,p,159,1,2216.2000000476837,602823.7000000477,7703,WL,A,6.0
4,16.22699999809265,learn,43773.00000190735,Wed Oct 29 2025 11:47:14 GMT-0500 (Central Daylight Time),605157.600000143,A,app,O,p,107,1,2333.9000000953674,602823.7000000477,7703,WL,A,6.0
4,16.693000078201294,learn,43306.999921798706,Wed Oct 29 2025 11:47:14 GMT-0500 (Central Daylight Time),605622.9000000954,A,appl,O,l,460,1,2799.2000000476837,602823.7000000477,7703,WL,A,6.0
4,16.875999927520752,learn,43124.00007247925,Wed Oct 29 2025 11:47:14 GMT-0500 (Central Daylight Time),605806.2000000477,A,apple,O,e,164,1,2982.5,602823.7000000477,7703,WL,A,6.0
4,17.009000062942505,learn,42990.999937057495,Wed Oct 29 2025 11:47:14 GMT-0500 (Central Daylight Time),605939.0,A,appleenter,O,enter,126,1,3115.2999999523163,602823.7000000477,7703,WL,A,6.0
4,17.64199995994568,learn,42358.00004005432,Wed Oct 29 2025 11:47:14 GMT-0500 (Central Daylight Time),606572.100000143,A,s,O,s,615,1,632.7999999523163,605939.3000001907,7703,WL,A,7.0
4,17.9760000705719,learn,42023.9999294281,Wed Oct 29 2025 11:47:14 GMT-0500 (Central Daylight Time),606906.600000143,A,sa,O,a,327,1,967.2999999523163,605939.3000001907,7703,WL,A,7.0
4,18.192000150680542,learn,41807.99984931946,Wed Oct 29 2025 11:47:14 GMT-0500 (Central Daylight Time),607122.5,A,sal,O,l,199,1,1183.1999998092651,605939.3000001907,7703,WL,A,7.0
4,18.80900001525879,learn,41190.99998474121,Wed Oct 29 2025 11:47:14 GMT-0500 (Central Daylight Time),607739.4000000954,A,salt,O,t,601,1,1800.0999999046326,605939.3000001907,7703,WL,A,7.0
4,19.342000007629395,learn,40657.999992370605,Wed Oct 29 2025 11:47:14 GMT-0500 (Central Daylight Time),608272.5,A,saltenter,O,enter,521,1,2333.199999809265,605939.3000001907,7703,WL,A,7.0
4,21.725000143051147,learn,38274.99985694885,Wed Oct 29 2025 11:47:14 GMT-0500 (Central Daylight Time),610655.0,A,b,O,b,2371,1,2382.199999809265,608272.8000001907,7703,WL,A,8.0
4,21.924999952316284,learn,38075.000047683716,Wed Oct 29 2025 11:47:14 GMT-0500 (Central Daylight Time),610855.3000001907,A,bo,O,o,188,1,2582.5,608272.8000001907,7703,WL,A,8.0
4,22.157999992370605,learn,37842.000007629395,Wed Oct 29 2025 11:47:14 GMT-0500 (Central Daylight Time),611088.4000000954,A,boo,O,o,228,1,2815.5999999046326,608272.8000001907,7703,WL,A,8.0
4,22.29100012779236,learn,37708.99987220764,Wed Oct 29 2025 11:47:14 GMT-0500 (Central Daylight Time),611221.5,A,book,O,k,122,1,2948.699999809265,608272.8000001907,7703,WL,A,8.0
4,22.70799994468689,learn,37292.00005531311,Wed Oct 29 2025 11:47:14 GMT-0500 (Central Daylight Time),611638.100000143,A,bookenter,O,enter,404,1,3365.2999999523163,608272.8000001907,7703,WL,A,8.0
4,23.124000072479248,learn,36875.99992752075,Wed Oct 29 2025 11:47:14 GMT-0500 (Central Daylight Time),612054.5,A,a,O,a,404,1,416.09999990463257,611638.4000000954,7703,WL,A,9.0
4,23.324000120162964,learn,36675.999879837036,Wed Oct 29 2025 11:47:14 GMT-0500 (Central Daylight Time),612254.4000000954,A,ap,O,p,180,1,616.0,611638.4000000954,7703,WL,A,9.0
4,23.492000102996826,learn,36507.999897003174,Wed Oct 29 2025 11:47:14 GMT-0500 (Central Daylight Time),612422.100000143,A,app,O,p,157,1,783.7000000476837,611638.4000000954,7703,WL,A,9.0
4,23.758000135421753,learn,36241.99986457825,Wed Oct 29 2025 11:47:14 GMT-0500 (Central Daylight Time),612687.9000000954,A,appl,O,l,251,1,1049.5,611638.4000000954,7703,WL,A,9.0
4,23.85800004005432,learn,36141.99995994568,Wed Oct 29 2025 11:47:14 GMT-0500 (Central Daylight Time),612788.0,A,apple,O,e,82,1,1149.5999999046326,611638.4000000954,7703,WL,A,9.0
4,24.058000087738037,learn,35941.99991226196,Wed Oct 29 2025 11:47:14 GMT-0500 (Central Daylight Time),612987.8000001907,A,appleenter,O,enter,183,1,1349.4000000953674,611638.4000000954,7703,WL,A,9.0
4,24.407999992370605,learn,35592.000007629395,Wed Oct 29 2025 11:47:14 GMT-0500 (Central Daylight Time),613338.100000143,A,t,O,t,329,1,350.0,612988.100000143,7703,WL,A,10.0
4,24.640000104904175,learn,35359.999895095825,Wed Oct 29 2025 11:47:14 GMT-0500 (Central Daylight Time),613570.8000001907,A,tr,O,r,223,1,582.7000000476837,612988.100000143,7703,WL,A,10.0
4,24.822999954223633,learn,35177.00004577637,Wed Oct 29 2025 11:47:14 GMT-0500 (Central Daylight Time),613753.7000000477,A,tra,O,a,167,1,765.5999999046326,612988.100000143,7703,WL,A,10.0
4,24.924000024795532,learn,35075.99997520447,Wed Oct 29 2025 11:47:14 GMT-0500 (Central Daylight Time),613854.7000000477,A,trai,O,i,87,1,866.5999999046326,612988.100000143,7703,WL,A,10.0
4,25.074000120162964,learn,34925.999879837036,Wed Oct 29 2025 11:47:14 GMT-0500 (Central Daylight Time),614004.7000000477,A,train,O,n,139,1,1016.5999999046326,612988.100000143,7703,WL,A,10.0
4,25.39199995994568,learn,34608.00004005432,Wed Oct 29 2025 11:47:14 GMT-0500 (Central Daylight Time),614321.8000001907,A,trainenter,O,enter,300,1,1333.7000000476837,612988.100000143,7703,WL,A,10.0
4,26.60599994659424,learn,33394.00005340576,Wed Oct 29 2025 11:47:14 GMT-0500 (Central Daylight Time),615536.4000000954,A,m,O,m,1202,1,1214.2999999523163,614322.100000143,7703,WL,A,11.0
4,26.740000009536743,learn,33259.99999046326,Wed Oct 29 2025 11:47:14 GMT-0500 (Central Daylight Time),615670.0,A,me,O,e,112,1,1347.8999998569489,614322.100000143,7703,WL,A,11.0
4,26.92300009727478,learn,33076.99990272522,Wed Oct 29 2025 11:47:14 GMT-0500 (Central Daylight Time),615853.0,A,mea,O,a,163,1,1530.8999998569489,614322.100000143,7703,WL,A,11.0
4,27.09000015258789,learn,32909.99984741211,Wed Oct 29 2025 11:47:14 GMT-0500 (Central Daylight Time),616020.2000000477,A,mead,O,d,148,1,1698.0999999046326,614322.100000143,7703,WL,A,11.0
4,27.17300009727478,learn,32826.99990272522,Wed Oct 29 2025 11:47:14 GMT-0500 (Central Daylight Time),616103.7000000477,A,meado,O,o,62,1,1781.5999999046326,614322.100000143,7703,WL,A,11.0
4,27.35800004005432,learn,32641.99995994568,Wed Oct 29 2025 11:47:14 GMT-0500 (Central Daylight Time),616288.7000000477,A,meadow,O,w,163,1,1966.5999999046326,614322.100000143,7703,WL,A,11.0
4,27.64199995994568,learn,32358.00004005432,Wed Oct 29 2025 11:47:14 GMT-0500 (Central Daylight Time),616571.9000000954,A,meadowenter,O,enter,265,1,2249.7999999523163,614322.100000143,7703,WL,A,11.0
4,36.1029999256134,learn,23897.000074386597,Wed Oct 29 2025 11:47:14 GMT-0500 (Central Daylight Time),625033.7000000477,A,r,O,r,8456,1,8461.5,616572.2000000477,7703,WL,A,12.0
4,36.53600001335144,learn,23463.99998664856,Wed Oct 29 2025 11:47:14 GMT-0500 (Central Daylight Time),625466.8000001907,A,ru,O,u,414,1,8894.600000143051,616572.2000000477,7703,WL,A,12.0
4,36.70300006866455,learn,23296.99993133545,Wed Oct 29 2025 11:47:14 GMT-0500 (Central Daylight Time),625633.2000000477,A,rug,O,g,161,1,9061.0,616572.2000000477,7703,WL,A,12.0
4,37.319000005722046,learn,22680.999994277954,Wed Oct 29 2025 11:47:14 GMT-0500 (Central Daylight Time),626248.8000001907,A,rugenter,O,enter,608,1,9676.600000143051,616572.2000000477,7703,WL,A,12.0
4,37.63700008392334,learn,22362.99991607666,Wed Oct 29 2025 11:47:14 GMT-0500 (Central Daylight Time),626567.5,A,l,O,l,298,1,318.5,626249.0,7703,WL,A,13.0
4,37.837000131607056,learn,22162.999868392944,Wed Oct 29 2025 11:47:14 GMT-0500 (Central Daylight Time),626767.7000000477,A,lo,O,o,194,1,518.7000000476837,626249.0,7703,WL,A,13.0
4,37.986000061035156,learn,22013.999938964844,Wed Oct 29 2025 11:47:14 GMT-0500 (Central Daylight Time),626916.2000000477,A,log,O,g,139,1,667.2000000476837,626249.0,7703,WL,A,13.0
4,38.16900014877319,learn,21830.999851226807,Wed Oct 29 2025 11:47:14 GMT-0500 (Central Daylight Time),627099.600000143,A,logenter,O,enter,173,1,850.6000001430511,626249.0,7703,WL,A,13.0
4,39.93600010871887,learn,20063.999891281128,Wed Oct 29 2025 11:47:14 GMT-0500 (Central Daylight Time),628865.8000001907,A,s,O,s,1751,1,1766.0,627099.8000001907,7703,WL,A,14.0
4,40.13600015640259,learn,19863.999843597412,Wed Oct 29 2025 11:47:14 GMT-0500 (Central Daylight Time),629066.3000001907,A,sa,O,a,185,1,1966.5,627099.8000001907,7703,WL,A,14.0
4,40.235000133514404,learn,19764.999866485596,Wed Oct 29 2025 11:47:14 GMT-0500 (Central Daylight Time),629165.7000000477,A,sal,O,l,79,1,2065.899999856949,627099.8000001907,7703,WL,A,14.0
4,40.46900010108948,learn,19530.999898910522,Wed Oct 29 2025 11:47:14 GMT-0500 (Central Daylight Time),629399.600000143,A,salt,O,t,228,1,2299.7999999523163,627099.8000001907,7703,WL,A,14.0
4,40.68600010871887,learn,19313.999891281128,Wed Oct 29 2025 11:47:14 GMT-0500 (Central Daylight Time),629616.100000143,A,saltenter,O,enter,204,1,2516.2999999523163,627099.8000001907,7703,WL,A,14.0
4,46.799999952316284,learn,13200.000047683716,Wed Oct 29 2025 11:47:14 GMT-0500 (Central Daylight Time),635730.2000000477,A,s,O,s,6097,1,6114.0,629616.2000000477,7703,WL,A,15.0
4,47.08299994468689,learn,12917.00005531311,Wed Oct 29 2025 11:47:14 GMT-0500 (Central Daylight Time),636012.9000000954,A,sa,O,a,274,1,6396.700000047684,629616.2000000477,7703,WL,A,15.0
4,47.26600003242493,learn,12733.999967575073,Wed Oct 29 2025 11:47:14 GMT-0500 (Central Daylight Time),636196.2000000477,A,sal,O,l,166,1,6580.0,629616.2000000477,7703,WL,A,15.0
4,47.532999992370605,learn,12467.000007629395,Wed Oct 29 2025 11:47:14 GMT-0500 (Central Daylight Time),636463.3000001907,A,salt,O,t,247,1,6847.100000143051,629616.2000000477,7703,WL,A,15.0
4,47.717000007629395,learn,12282.999992370605,Wed Oct 29 2025 11:47:14 GMT-0500 (Central Daylight Time),636647.0,A,saltenter,O,enter,161,1,7030.799999952316,629616.2000000477,7703,WL,A,15.0
5,1.431999921798706,learn,60000.0,Wed Oct 29 2025 11:47:14 GMT-0500 (Central Daylight Time),715188.4000000954,A,g,O,g,1416,1,1432.5999999046326,713755.8000001907,7703,WL,A,1.0
5,2.1500000953674316,learn,60000.0,Wed Oct 29 2025 11:47:14 GMT-0500 (Central Daylight Time),715905.8000001907,A,go,O,o,704,1,2150.0,713755.8000001907,7703,WL,A,1.0
5,2.450000047683716,learn,60000.0,Wed Oct 29 2025 11:47:14 GMT-0500 (Central Daylight Time),716205.7000000477,A,gol,O,l,279,1,2449.899999856949,713755.8000001907,7703,WL,A,1.0
5,2.632999897003174,learn,60000.0,Wed Oct 29 2025 11:47:14 GMT-0500 (Central Daylight Time),716388.4000000954,A,gold,O,d,165,1,2632.5999999046326,713755.8000001907,7703,WL,A,1.0
5,3.7149999141693115,learn,60000.0,Wed Oct 29 2025 11:47:14 GMT-0500 (Central Daylight Time),717471.4000000954,A,goldenter,O,enter,1078,1,3715.5999999046326,713755.8000001907,7703,WL,A,1.0
5,4.565000057220459,learn,60000.0,Wed Oct 29 2025 11:47:14 GMT-0500 (Central Daylight Time),718320.4000000954,A,f,O,f,846,1,848.7999999523163,717471.600000143,7703,WL,A,2.0
5,4.799000024795532,learn,60000.0,Wed Oct 29 2025 11:47:14 GMT-0500 (Central Daylight Time),718555.0,A,fi,O,i,226,1,1083.3999998569489,717471.600000143,7703,WL,A,2.0
5,4.9649999141693115,learn,60000.0,Wed Oct 29 2025 11:47:14 GMT-0500 (Central Daylight Time),718720.5,A,fin,O,n,151,1,1248.8999998569489,717471.600000143,7703,WL,A,2.0
5,5.21399998664856,learn,60000.0,Wed Oct 29 2025 11:47:14 GMT-0500 (Central Daylight Time),718970.3000001907,A,fing,O,g,243,1,1498.7000000476837,717471.600000143,7703,WL,A,2.0
5,5.365000009536743,learn,60000.0,Wed Oct 29 2025 11:47:14 GMT-0500 (Central Daylight Time),719121.3000001907,A,finge,O,e,137,1,1649.7000000476837,717471.600000143,7703,WL,A,2.0
5,5.582000017166138,learn,60000.0,Wed Oct 29 2025 11:47:14 GMT-0500 (Central Daylight Time),719337.5,A,finger,O,r,202,1,1865.8999998569489,717471.600000143,7703,WL,A,2.0
5,5.765000104904175,learn,60000.0,Wed Oct 29 2025 11:47:14 GMT-0500 (Central Daylight Time),719521.4000000954,A,fingerenter,O,enter,171,1,2049.7999999523163,717471.600000143,7703,WL,A,2.0
5,6.0309998989105225,learn,60000.0,Wed Oct 29 2025 11:47:14 GMT-0500 (Central Daylight Time),719786.8000001907,A,t,O,t,249,1,265.2000000476837,719521.600000143,7703,WL,A,3.0
5,6.2809998989105225,learn,60000.0,Wed Oct 29 2025 11:47:14 GMT-0500 (Central Daylight Time),720037.0,A,tr,O,r,232,1,515.3999998569489,719521.600000143,7703,WL,A,3.0
5,6.563999891281128,learn,60000.0,Wed Oct 29 2025 11:47:14 GMT-0500 (Central Daylight Time),720320.100000143,A,tra,O,a,270,1,798.5,719521.600000143,7703,WL,A,3.0
5,6.96399998664856,learn,60000.0,Wed Oct 29 2025 11:47:14 GMT-0500 (Central Daylight Time),720720.100000143,A,trai,O,i,395,1,1198.5,719521.600000143,7703,WL,A,3.0
5,7.180000066757202,learn,60000.0,Wed Oct 29 2025 11:47:14 GMT-0500 (Central Daylight Time),720936.7000000477,A,train,O,n,211,1,1415.0999999046326,719521.600000143,7703,WL,A,3.0
5,7.9649999141693115,learn,60000.0,Wed Oct 29 2025 11:47:14 GMT-0500 (Central Daylight Time),721722.0,A,trainenter,O,enter,762,1,2200.399999856949,719521.600000143,7703,WL,A,3.0
5,8.346999883651733,learn,60000.0,Wed Oct 29 2025 11:47:14 GMT-0500 (Central Daylight Time),722103.5,A,a,O,a,369,1,381.19999980926514,721722.3000001907,7703,WL,A,4.0
5,8.763000011444092,learn,60000.0,Wed Oct 29 2025 11:47:14 GMT-0500 (Central Daylight Time),722519.5,A,ap,O,p,403,1,797.1999998092651,721722.3000001907,7703,WL,A,4.0
5,8.979000091552734,learn,60000.0,Wed Oct 29 2025 11:47:14 GMT-0500 (Central Daylight Time),722735.7000000477,A,app,O,p,205,1,1013.3999998569489,721722.3000001907,7703,WL,A,4.0
5,9.430000066757202,learn,60000.0,Wed Oct 29 2025 11:47:14 GMT-0500 (Central Daylight Time),723186.5,A,appl,O,l,445,1,1464.1999998092651,721722.3000001907,7703,WL,A,4.0
5,9.86299991607666,learn,60000.0,Wed Oct 29 2025 11:47:14 GMT-0500 (Central Daylight Time),723619.7000000477,A,apple,O,e,411,1,1897.3999998569489,721722.3000001907,7703,WL,A,4.0
5,10.296000003814697,learn,60000.0,Wed Oct 29 2025 11:47:14 GMT-0500 (Central Daylight Time),724052.2000000477,A,appleenter,O,enter,422,1,2329.899999856949,721722.3000001907,7703,WL,A,4.0
5,10.946000099182129,learn,60000.0,Wed Oct 29 2025 11:47:14 GMT-0500 (Central Daylight Time),724702.8000001907,A,m,O,m,631,1,650.4000000953674,724052.4000000954,7703,WL,A,5.0
5,11.09500002861023,learn,60000.0,Wed Oct 29 2025 11:47:14 GMT-0500 (Central Daylight Time),724851.5,A,me,O,e,140,1,799.0999999046326,724052.4000000954,7703,WL,A,5.0
5,11.812999963760376,learn,60000.0,Wed Oct 29 2025 11:47:14 GMT-0500 (Central Daylight Time),725569.5,A,mea,O,a,713,1,1517.0999999046326,724052.4000000954,7703,WL,A,5.0
5,12.161999940872192,learn,60000.0,Wed Oct 29 2025 11:47:14 GMT-0500 (Central Daylight Time),725918.4000000954,A,mead,O,d,329,1,1866.0,724052.4000000954,7703,WL,A,5.0
5,12.345999956130981,learn,60000.0,Wed Oct 29 2025 11:47:14 GMT-0500 (Central Daylight Time),726102.2000000477,A,meado,O,o,162,1,2049.7999999523163,724052.4000000954,7703,WL,A,5.0
5,13.733000040054321,learn,60000.0,Wed Oct 29 2025 11:47:14 GMT-0500 (Central Daylight Time),727489.7000000477,A,meadow,O,w,1374,1,3437.2999999523163,724052.4000000954,7703,WL,A,5.0
5,14.82699990272522,learn,60000.0,Wed Oct 29 2025 11:47:14 GMT-0500 (Central Daylight Time),728583.5,A,meadowenter,O,enter,1083,1,4531.099999904633,724052.4000000954,7703,WL,A,5.0
5,15.210999965667725,learn,60000.0,Wed Oct 29 2025 11:47:14 GMT-0500 (Central Daylight Time),728967.5,A,s,O,s,372,1,383.7999999523163,728583.7000000477,7703,WL,A,6.0
5,15.444999933242798,learn,60000.0,Wed Oct 29 2025 11:47:14 GMT-0500 (Central Daylight Time),729201.100000143,A,sa,O,a,230,1,617.4000000953674,728583.7000000477,7703,WL,A,6.0
5,15.57800006866455,learn,60000.0,Wed Oct 29 2025 11:47:14 GMT-0500 (Central Daylight Time),729334.4000000954,A,sal,O,l,122,1,750.7000000476837,728583.7000000477,7703,WL,A,6.0
5,15.82800006866455,learn,60000.0,Wed Oct 29 2025 11:47:14 GMT-0500 (Central Daylight Time),729585.0,A,salt,O,t,239,1,1001.2999999523163,728583.7000000477,7703,WL,A,6.0
5,16.193000078201294,learn,60000.0,Wed Oct 29 2025 11:47:14 GMT-0500 (Central Daylight Time),729949.7000000477,A,saltenter,O,enter,352,1,1366.0,728583.7000000477,7703,WL,A,6.0
5,18.776999950408936,learn,60000.0,Wed Oct 29 2025 11:47:14 GMT-0500 (Central Daylight Time),732533.3000001907,A,l,O,l,2573,1,2583.300000190735,729950.0,7703,WL,A,7.0
5,18.993000030517578,learn,60000.0,Wed Oct 29 2025 11:47:14 GMT-0500 (Central Daylight Time),732749.100000143,A,lo,O,o,207,1,2799.100000143051,729950.0,7703,WL,A,7.0
5,19.109999895095825,learn,60000.0,Wed Oct 29 2025 11:47:14 GMT-0500 (Central Daylight Time),732866.600000143,A,log,O,g,102,1,2916.600000143051,729950.0,7703,WL,A,7.0
5,19.259999990463257,learn,60000.0,Wed Oct 29 2025 11:47:14 GMT-0500 (Central Daylight Time),733016.100000143,A,logenter,O,enter,144,1,3066.100000143051,729950.0,7703,WL,A,7.0
5,20.825000047683716,learn,60000.0,Wed Oct 29 2025 11:47:14 GMT-0500 (Central Daylight Time),734581.4000000954,A,r,O,r,1547,1,1565.0999999046326,733016.3000001907,7703,WL,A,8.0
5,20.908999919891357,learn,60000.0,Wed Oct 29 2025 11:47:14 GMT-0500 (Central Daylight Time),734665.2000000477,A,ru,O,u,69,1,1648.8999998569489,733016.3000001907,7703,WL,A,8.0
5,21.045000076293945,learn,60000.0,Wed Oct 29 2025 11:47:14 GMT-0500 (Central Daylight Time),734801.2000000477,A,rug,O,g,128,1,1784.8999998569489,733016.3000001907,7703,WL,A,8.0
5,21.30900001525879,learn,60000.0,Wed Oct 29 2025 11:47:14 GMT-0500 (Central Daylight Time),735065.600000143,A,rugenter,O,enter,247,1,2049.2999999523163,733016.3000001907,7703,WL,A,8.0
5,24.473999977111816,learn,60000.0,Wed Oct 29 2025 11:47:14 GMT-0500 (Central Daylight Time),738230.9000000954,A,c,O,c,3146,1,3165.0,735065.9000000954,7703,WL,A,9.0
5,24.591000080108643,learn,60000.0,Wed Oct 29 2025 11:47:14 GMT-0500 (Central Daylight Time),738347.3000001907,A,ch,O,h,93,1,3281.4000000953674,735065.9000000954,7703,WL,A,9.0
5,24.72499990463257,learn,60000.0,Wed Oct 29 2025 11:47:14 GMT-0500 (Central Daylight Time),738481.2000000477,A,chi,O,i,118,1,3415.2999999523163,735065.9000000954,7703,WL,A,9.0
5,24.924000024795532,learn,60000.0,Wed Oct 29 2025 11:47:14 GMT-0500 (Central Daylight Time),738680.600000143,A,chim,O,m,183,1,3614.7000000476837,735065.9000000954,7703,WL,A,9.0
5,25.174000024795532,learn,60000.0,Wed Oct 29 2025 11:47:14 GMT-0500 (Central Daylight Time),738930.8000001907,A,chimn,O,n,233,1,3864.9000000953674,735065.9000000954,7703,WL,A,9.0
5,25.256999969482422,learn,60000.0,Wed Oct 29 2025 11:47:14 GMT-0500 (Central Daylight Time),739013.4000000954,A,chimne,O,e,61,1,3947.5,735065.9000000954,7703,WL,A,9.0
5,25.506999969482422,learn,60000.0,Wed Oct 29 2025 11:47:14 GMT-0500 (Central Daylight Time),739263.9000000954,A,chimney,O,y,230,1,4198.0,735065.9000000954,7703,WL,A,9.0
5,26.73900008201599,learn,60000.0,Wed Oct 29 2025 11:47:14 GMT-0500 (Central Daylight Time),740495.5,A,chimneyenter,O,enter,1204,1,5429.599999904633,735065.9000000954,7703,WL,A,9.0
5,28.35700011253357,learn,60000.0,Wed Oct 29 2025 11:47:14 GMT-0500 (Central Daylight Time),742113.4000000954,A,k,O,k,1606,1,1617.7000000476837,740495.7000000477,7703,WL,A,10.0
5,28.438999891281128,learn,60000.0,Wed Oct 29 2025 11:47:14 GMT-0500 (Central Daylight Time),742196.0,A,ke,O,e,65,1,1700.2999999523163,740495.7000000477,7703,WL,A,10.0
5,28.67300009727478,learn,60000.0,Wed Oct 29 2025 11:47:14 GMT-0500 (Central Daylight Time),742429.600000143,A,key,O,y,218,1,1933.9000000953674,740495.7000000477,7703,WL,A,10.0
5,29.289999961853027,learn,60000.0,Wed Oct 29 2025 11:47:14 GMT-0500 (Central Daylight Time),743046.5,A,keyenter,O,enter,592,1,2550.7999999523163,740495.7000000477,7703,WL,A,10.0
5,30.60599994659424,learn,60000.0,Wed Oct 29 2025 11:47:14 GMT-0500 (Central Daylight Time),744362.8000001907,A,t,O,t,1309,1,1316.2000000476837,743046.600000143,7703,WL,A,11.0
5,30.92199993133545,learn,60000.0,Wed Oct 29 2025 11:47:14 GMT-0500 (Central Daylight Time),744678.8000001907,A,tr,O,r,295,1,1632.2000000476837,743046.600000143,7703,WL,A,11.0
5,31.07200002670288,learn,60000.0,Wed Oct 29 2025 11:47:14 GMT-0500 (Central Daylight Time),744828.5,A,tra,O,a,137,1,1781.8999998569489,743046.600000143,7703,WL,A,11.0
5,31.188999891281128,learn,60000.0,Wed Oct 29 2025 11:47:14 GMT-0500 (Central Daylight Time),744945.3000001907,A,trai,O,i,100,1,1898.7000000476837,743046.600000143,7703,WL,A,11.0
5,31.35700011253357,learn,60000.0,Wed Oct 29 2025 11:47:14 GMT-0500 (Central Daylight Time),745113.600000143,A,train,O,n,146,1,2067.0,743046.600000143,7703,WL,A,11.0
5,31.638999938964844,learn,60000.0,Wed Oct 29 2025 11:47:14 GMT-0500 (Central Daylight Time),745395.100000143,A,trainenter,O,enter,263,1,2348.5,743046.600000143,7703,WL,A,11.0
5,34.1710000038147,learn,60000.0,Wed Oct 29 2025 11:47:14 GMT-0500 (Central Daylight Time),747927.8000001907,A,b,O,b,2512,1,2532.4000000953674,745395.4000000954,7703,WL,A,12.0
5,34.3050000667572,learn,60000.0,Wed Oct 29 2025 11:47:14 GMT-0500 (Central Daylight Time),748062.100000143,A,bo,O,o,120,1,2666.7000000476837,745395.4000000954,7703,WL,A,12.0
5,34.50500011444092,learn,60000.0,Wed Oct 29 2025 11:47:14 GMT-0500 (Central Daylight Time),748262.0,A,boo,O,o,178,1,2866.5999999046326,745395.4000000954,7703,WL,A,12.0
5,34.604000091552734,learn,60000.0,Wed Oct 29 2025 11:47:14 GMT-0500 (Central Daylight Time),748361.0,A,book,O,k,83,1,2965.5999999046326,745395.4000000954,7703,WL,A,12.0
5,34.954999923706055,learn,60000.0,Wed Oct 29 2025 11:47:14 GMT-0500 (Central Daylight Time),748711.100000143,A,bookenter,O,enter,328,1,3315.7000000476837,745395.4000000954,7703,WL,A,12.0
5,36.12100005149841,learn,60000.0,Wed Oct 29 2025 11:47:14 GMT-0500 (Central Daylight Time),749877.3000001907,A,a,O,a,1148,1,1165.9000000953674,748711.4000000954,7703,WL,A,13.0
5,36.3050000667572,learn,60000.0,Wed Oct 29 2025 11:47:14 GMT-0500 (Central Daylight Time),750061.3000001907,A,ap,O,p,170,1,1349.9000000953674,748711.4000000954,7703,WL,A,13.0
5,36.7039999961853,learn,60000.0,Wed Oct 29 2025 11:47:14 GMT-0500 (Central Daylight Time),750460.4000000954,A,app,O,p,381,1,1749.0,748711.4000000954,7703,WL,A,13.0
5,37.0550000667572,learn,60000.0,Wed Oct 29 2025 11:47:14 GMT-0500 (Central Daylight Time),750811.5,A,appl,O,l,331,1,2100.0999999046326,748711.4000000954,7703,WL,A,13.0
5,37.22199988365173,learn,60000.0,Wed Oct 29 2025 11:47:14 GMT-0500 (Central Daylight Time),750978.100000143,A,apple,O,e,158,1,2266.7000000476837,748711.4000000954,7703,WL,A,13.0
5,37.46900010108948,learn,60000.0,Wed Oct 29 2025 11:47:14 GMT-0500 (Central Daylight Time),751225.600000143,A,appleenter,O,enter,230,1,2514.2000000476837,748711.4000000954,7703,WL,A,13.0
5,47.20099997520447,learn,60000.0,Wed Oct 29 2025 11:47:14 GMT-0500 (Central Daylight Time),760957.3000001907,A,k,O,k,9715,1,9731.5,751225.8000001907,7703,WL,A,14.0
5,47.418999910354614,learn,60000.0,Wed Oct 29 2025 11:47:14 GMT-0500 (Central Daylight Time),761175.3000001907,A,ke,O,e,201,1,9949.5,751225.8000001907,7703,WL,A,14.0
5,47.63499999046326,learn,60000.0,Wed Oct 29 2025 11:47:14 GMT-0500 (Central Daylight Time),761391.7000000477,A,key,O,y,189,1,10165.899999856949,751225.8000001907,7703,WL,A,14.0
5,48.21499991416931,learn,60000.0,Wed Oct 29 2025 11:47:14 GMT-0500 (Central Daylight Time),761972.0,A,keyenter,O,enter,558,1,10746.199999809265,751225.8000001907,7703,WL,A,14.0
5,61.730000019073486,learn,60000.0,Wed Oct 29 2025 11:47:14 GMT-0500 (Central Daylight Time),775486.8000001907,A,a,O,a,13505,1,13514.5,761972.3000001907,7703,WL,A,15.0
6,0.7669999599456787,distr,59233.00004005432,Wed Oct 29 2025 11:47:14 GMT-0500 (Central Daylight Time),874354.5,B,c,O,c,749,1,766.0999999046326,873588.4000000954,7703,WL,A,1.0
6,0.999000072479248,distr,59000.99992752075,Wed Oct 29 2025 11:47:14 GMT-0500 (Central Daylight Time),874587.2000000477,B,ch,O,h,223,1,998.7999999523163,873588.4000000954,7703,WL,A,1.0
6,1.4000000953674316,distr,58599.99990463257,Wed Oct 29 2025 11:47:14 GMT-0500 (Central Daylight Time),874988.0,B,cha,O,a,390,1,1399.5999999046326,873588.4000000954,7703,WL,A,1.0
6,1.683000087738037,distr,58316.99991226196,Wed Oct 29 2025 11:47:14 GMT-0500 (Central Daylight Time),875270.8000001907,B,chai,O,i,261,1,1682.4000000953674,873588.4000000954,7703,WL,A,1.0
6,2.0160000324249268,distr,57983.99996757507,Wed Oct 29 2025 11:47:14 GMT-0500 (Central Daylight Time),875604.3000001907,B,chair,O,r,322,1,2015.9000000953674,873588.4000000954,7703,WL,A,1.0
6,2.315999984741211,distr,57684.00001525879,Wed Oct 29 2025 11:47:14 GMT-0500 (Central Daylight Time),875903.600000143,B,chairenter,O,enter,294,1,2315.2000000476837,873588.4000000954,7703,WL,A,1.0
6,5.88100004196167,distr,54118.99995803833,Wed Oct 29 2025 11:47:14 GMT-0500 (Central Daylight Time),879468.5,B,c,O,c,3557,1,3564.7999999523163,875903.7000000477,7703,WL,A,2.0
6,5.998000144958496,distr,54001.999855041504,Wed Oct 29 2025 11:47:14 GMT-0500 (Central Daylight Time),879585.8000001907,B,ch,O,h,111,1,3682.100000143051,875903.7000000477,7703,WL,A,2.0
6,6.781000137329102,distr,53218.9998626709,Wed Oct 29 2025 11:47:14 GMT-0500 (Central Daylight Time),880369.100000143,B,cha,O,a,776,1,4465.400000095367,875903.7000000477,7703,WL,A,2.0
6,6.949000120162964,distr,53050.999879837036,Wed Oct 29 2025 11:47:14 GMT-0500 (Central Daylight Time),880536.4000000954,B,chai,O,i,159,1,4632.700000047684,875903.7000000477,7703,WL,A,2.0
6,7.246999979019165,distr,52753.000020980835,Wed Oct 29 2025 11:47:14 GMT-0500 (Central Daylight Time),880835.2000000477,B,chair,O,r,279,1,4931.5,875903.7000000477,7703,WL,A,2.0
6,7.715000152587891,distr,52284.99984741211,Wed Oct 29 2025 11:47:14 GMT-0500 (Central Daylight Time),881302.4000000954,B,chairenter,O,enter,454,1,5398.700000047684,875903.7000000477,7703,WL,A,2.0
6,8.114000082015991,distr,51885.99991798401,Wed Oct 29 2025 11:47:14 GMT-0500 (Central Daylight Time),881702.0,B,j,O,j,388,1,399.39999985694885,881302.600000143,7703,WL,A,3.0
6,8.297000169754028,distr,51702.99983024597,Wed Oct 29 2025 11:47:14 GMT-0500 (Central Daylight Time),881884.8000001907,B,ju,O,u,171,1,582.2000000476837,881302.600000143,7703,WL,A,3.0
6,8.496999979019165,distr,51503.000020980835,Wed Oct 29 2025 11:47:14 GMT-0500 (Central Daylight Time),882085.0,B,jud,O,d,179,1,782.3999998569489,881302.600000143,7703,WL,A,3.0
6,8.713000059127808,distr,51286.99994087219,Wed Oct 29 2025 11:47:14 GMT-0500 (Central Daylight Time),882301.3000001907,B,judg,O,g,204,1,998.7000000476837,881302.600000143,7703,WL,A,3.0
6,8.847000122070312,distr,51152.99987792969,Wed Oct 29 2025 11:47:14 GMT-0500 (Central Daylight Time),882434.9000000954,B,judge,O,e,125,1,1132.2999999523163,881302.600000143,7703,WL,A,3.0
6,9.147000074386597,distr,50852.9999256134,Wed Oct 29 2025 11:47:14 GMT-0500 (Central Daylight Time),882735.0,B,judgeenter,O,enter,285,1,1432.3999998569489,881302.600000143,7703,WL,A,3.0
6,11.562999963760376,distr,48437.000036239624,Wed Oct 29 2025 11:47:14 GMT-0500 (Central Daylight Time),885150.9000000954,B,s,O,s,2396,1,2415.5999999046326,882735.3000001907,7703,WL,A,4.0
6,12.413000106811523,distr,47586.99989318848,Wed Oct 29 2025 11:47:14 GMT-0500 (Central Daylight Time),886000.5,B,st,O,t,836,1,3265.199999809265,882735.3000001907,7703,WL,A,4.0
6,12.680000066757202,distr,47319.9999332428,Wed Oct 29 2025 11:47:14 GMT-0500 (Central Daylight Time),886267.600000143,B,ste,O,e,262,1,3532.2999999523163,882735.3000001907,7703,WL,A,4.0
6,13.263000011444092,distr,46736.99998855591,Wed Oct 29 2025 11:47:14 GMT-0500 (Central Daylight Time),886851.0,B,step,O,p,567,1,4115.699999809265,882735.3000001907,7703,WL,A,4.0
6,13.796000003814697,distr,46203.9999961853,Wed Oct 29 2025 11:47:14 GMT-0500 (Central Daylight Time),887383.8000001907,B,stepenter,O,enter,513,1,4648.5,882735.3000001907,7703,WL,A,4.0
6,17.710999965667725,distr,42289.000034332275,Wed Oct 29 2025 11:47:14 GMT-0500 (Central Daylight Time),891299.0,B,c,O,c,3900,1,3915.0,887384.0,7703,WL,A,5.0
6,17.89400005340576,distr,42105.99994659424,Wed Oct 29 2025 11:47:14 GMT-0500 (Central Daylight Time),891482.0,B,co,O,o,166,1,4098.0,887384.0,7703,WL,A,5.0
6,18.045000076293945,distr,41954.999923706055,Wed Oct 29 2025 11:47:14 GMT-0500 (Central Daylight Time),891632.4000000954,B,cou,O,u,138,1,4248.400000095367,887384.0,7703,WL,A,5.0
6,18.295000076293945,distr,41704.999923706055,Wed Oct 29 2025 11:47:14 GMT-0500 (Central Daylight Time),891882.8000001907,B,coun,O,n,243,1,4498.800000190735,887384.0,7703,WL,A,5.0
6,18.41100001335144,distr,41588.99998664856,Wed Oct 29 2025 11:47:14 GMT-0500 (Central Daylight Time),891999.2000000477,B,count,O,t,94,1,4615.200000047684,887384.0,7703,WL,A,5.0
6,18.695000171661377,distr,41304.99982833862,Wed Oct 29 2025 11:47:14 GMT-0500 (Central Daylight Time),892282.600000143,B,county,O,y,275,1,4898.600000143051,887384.0,7703,WL,A,5.0
6,19.611000061035156,distr,40388.999938964844,Wed Oct 29 2025 11:47:14 GMT-0500 (Central Daylight Time),893198.600000143,B,countyenter,O,enter,897,1,5814.600000143051,887384.0,7703,WL,A,5.0
6,21.127000093460083,distr,38872.99990653992,Wed Oct 29 2025 11:47:14 GMT-0500 (Central Daylight Time),894714.8000001907,B,p,O,p,1509,1,1516.0,893198.8000001907,7703,WL,A,6.0
6,21.5770001411438,distr,38422.9998588562,Wed Oct 29 2025 11:47:14 GMT-0500 (Central Daylight Time),895164.600000143,B,pl,O,l,431,1,1965.7999999523163,893198.8000001907,7703,WL,A,6.0
6,21.72699999809265,distr,38273.00000190735,Wed Oct 29 2025 11:47:14 GMT-0500 (Central Daylight Time),895314.4000000954,B,pla,O,a,141,1,2115.5999999046326,893198.8000001907,7703,WL,A,6.0
6,21.992000102996826,distr,38007.999897003174,Wed Oct 29 2025 11:47:14 GMT-0500 (Central Daylight Time),895579.9000000954,B,plan,O,n,254,1,2381.0999999046326,893198.8000001907,7703,WL,A,6.0
6,22.210999965667725,distr,37789.000034332275,Wed Oct 29 2025 11:47:14 GMT-0500 (Central Daylight Time),895798.5,B,plane,O,e,200,1,2599.699999809265,893198.8000001907,7703,WL,A,6.0
6,22.776000022888184,distr,37223.99997711182,Wed Oct 29 2025 11:47:14 GMT-0500 (Central Daylight Time),896363.8000001907,B,planeenter,O,enter,558,1,3165.0,893198.8000001907,7703,WL,A,6.0
6,33.13900017738342,distr,26860.999822616577,Wed Oct 29 2025 11:47:14 GMT-0500 (Central Daylight Time),906727.5,B,s,O,s,10351,1,10363.399999856949,896364.100000143,7703,WL,A,7.0
6,33.4060001373291,distr,26593.9998626709,Wed Oct 29 2025 11:47:14 GMT-0500 (Central Daylight Time),906994.8000001907,B,st,O,t,258,1,10630.700000047684,896364.100000143,7703,WL,A,7.0
6,33.58899998664856,distr,26411.00001335144,Wed Oct 29 2025 11:47:14 GMT-0500 (Central Daylight Time),907177.8000001907,B,ste,O,e,170,1,10813.700000047684,896364.100000143,7703,WL,A,7.0
6,33.78999996185303,distr,26210.000038146973,Wed Oct 29 2025 11:47:14 GMT-0500 (Central Daylight Time),907378.0,B,step,O,p,194,1,11013.899999856949,896364.100000143,7703,WL,A,7.0
6,34.5220000743866,distr,25477.999925613403,Wed Oct 29 2025 11:47:14 GMT-0500 (Central Daylight Time),908110.7000000477,B,stepenter,O,enter,710,1,11746.599999904633,896364.100000143,7703,WL,A,7.0
6,47.03500008583069,distr,12964.999914169312,Wed Oct 29 2025 11:47:14 GMT-0500 (Central Daylight Time),920623.9000000954,B,r,O,r,12493,1,12513.0,908110.9000000954,7703,WL,A,8.0
6,47.33400011062622,distr,12665.99988937378,Wed Oct 29 2025 11:47:14 GMT-0500 (Central Daylight Time),920922.3000001907,B,ra,O,a,290,1,12811.400000095367,908110.9000000954,7703,WL,A,8.0
6,47.51800012588501,distr,12481.99987411499,Wed Oct 29 2025 11:47:14 GMT-0500 (Central Daylight Time),921106.7000000477,B,rat,O,t,171,1,12995.799999952316,908110.9000000954,7703,WL,A,8.0
6,47.76800012588501,distr,12231.99987411499,Wed Oct 29 2025 11:47:14 GMT-0500 (Central Daylight Time),921356.600000143,B,ratt,O,t,232,1,13245.700000047684,908110.9000000954,7703,WL,A,8.0
6,47.91600012779236,distr,12083.999872207642,Wed Oct 29 2025 11:47:14 GMT-0500 (Central Daylight Time),921504.4000000954,B,rattl,O,l,141,1,13393.5,908110.9000000954,7703,WL,A,8.0
6,48.06700015068054,distr,11932.999849319458,Wed Oct 29 2025 11:47:14 GMT-0500 (Central Daylight Time),921655.4000000954,B,rattle,O,e,132,1,13544.5,908110.9000000954,7703,WL,A,8.0
6,49.402000188827515,distr,10597.999811172485,Wed Oct 29 2025 11:47:14 GMT-0500 (Central Daylight Time),922990.5,B,rattleenter,O,enter,1325,1,14879.599999904633,908110.9000000954,7703,WL,A,8.0
6,60.01400017738342,distr,-14.000177383422852,Wed Oct 29 2025 11:47:14 GMT-0500 (Central Daylight Time),933602.100000143,B,None,O,None,10608,1,10611.400000095367,922990.7000000477,7703,WL,A,9.0
7,10.024999856948853,immed,49975.00014305115,Wed Oct 29 2025 11:47:14 GMT-0500 (Central Daylight Time),950114.8000001907,A,b,O,b,10021,1,10025.100000143051,940089.7000000477,7703,WL,A,1.0
7,10.289999961853027,immed,49710.00003814697,Wed Oct 29 2025 11:47:14 GMT-0500 (Central Daylight Time),950379.5,A,bo,O,o,254,1,10289.799999952316,940089.7000000477,7703,WL,A,1.0
7,10.54099988937378,immed,49459.00011062622,Wed Oct 29 2025 11:47:14 GMT-0500 (Central Daylight Time),950630.5,A,boo,O,o,231,1,10540.799999952316,940089.7000000477,7703,WL,A,1.0
7,10.740000009536743,immed,49259.99999046326,Wed Oct 29 2025 11:47:14 GMT-0500 (Central Daylight Time),950829.8000001907,A,book,O,k,188,1,10740.100000143051,940089.7000000477,7703,WL,A,1.0
7,11.490999937057495,immed,48509.000062942505,Wed Oct 29 2025 11:47:14 GMT-0500 (Central Daylight Time),951580.0,A,bookenter,O,enter,741,1,11490.299999952316,940089.7000000477,7703,WL,A,1.0
7,13.807999849319458,immed,46192.00015068054,Wed Oct 29 2025 11:47:14 GMT-0500 (Central Daylight Time),953897.4000000954,A,r,O,r,2304,1,2317.2000000476837,951580.2000000477,7703,WL,A,2.0
7,14.123999834060669,immed,45876.00016593933,Wed Oct 29 2025 11:47:14 GMT-0500 (Central Daylight Time),954212.9000000954,A,ru,O,u,306,1,2632.7000000476837,951580.2000000477,7703,WL,A,2.0
7,14.372999906539917,immed,45627.00009346008,Wed Oct 29 2025 11:47:14 GMT-0500 (Central Daylight Time),954462.0,A,rug,O,g,237,1,2881.7999999523163,951580.2000000477,7703,WL,A,2.0
7,15.438999891281128,immed,44561.00010871887,Wed Oct 29 2025 11:47:14 GMT-0500 (Central Daylight Time),955528.3000001907,A,rugenter,O,enter,1052,1,3948.100000143051,951580.2000000477,7703,WL,A,2.0
7,16.1729998588562,immed,43827.0001411438,Wed Oct 29 2025 11:47:14 GMT-0500 (Central Daylight Time),956262.2000000477,A,l,O,l,725,1,733.7000000476837,955528.5,7703,WL,A,3.0
7,16.40499997138977,immed,43595.00002861023,Wed Oct 29 2025 11:47:14 GMT-0500 (Central Daylight Time),956494.3000001907,A,lo,O,o,220,1,965.8000001907349,955528.5,7703,WL,A,3.0
7,16.554999828338623,immed,43445.00017166138,Wed Oct 29 2025 11:47:14 GMT-0500 (Central Daylight Time),956644.7000000477,A,log,O,g,132,1,1116.2000000476837,955528.5,7703,WL,A,3.0
7,17.055999994277954,immed,42944.000005722046,Wed Oct 29 2025 11:47:14 GMT-0500 (Central Daylight Time),957145.100000143,A,logenter,O,enter,486,1,1616.6000001430511,955528.5,7703,WL,A,3.0
7,20.80399990081787,immed,39196.00009918213,Wed Oct 29 2025 11:47:14 GMT-0500 (Central Daylight Time),960894.100000143,A,r,O,r,3729,1,3748.7000000476837,957145.4000000954,7703,WL,A,4.0
7,21.05399990081787,immed,38946.00009918213,Wed Oct 29 2025 11:47:14 GMT-0500 (Central Daylight Time),961143.5,A,ra,O,a,235,1,3998.0999999046326,957145.4000000954,7703,WL,A,4.0
7,21.186999797821045,immed,38813.000202178955,Wed Oct 29 2025 11:47:14 GMT-0500 (Central Daylight Time),961276.8000001907,A,rat,O,t,124,1,4131.400000095367,957145.4000000954,7703,WL,A,4.0
7,21.453999996185303,immed,38546.0000038147,Wed Oct 29 2025 11:47:14 GMT-0500 (Central Daylight Time),961543.7000000477,A,ratt,O,t,254,1,4398.299999952316,957145.4000000954,7703,WL,A,4.0
7,21.602999925613403,immed,38397.0000743866,Wed Oct 29 2025 11:47:14 GMT-0500 (Central Daylight Time),961693.2000000477,A,rattl,O,l,140,1,4547.799999952316,957145.4000000954,7703,WL,A,4.0
7,21.70299983024597,immed,38297.00016975403,Wed Oct 29 2025 11:47:14 GMT-0500 (Central Daylight Time),961792.7000000477,A,rattle,O,e,85,1,4647.299999952316,957145.4000000954,7703,WL,A,4.0
7,22.134999990463257,immed,37865.00000953674,Wed Oct 29 2025 11:47:14 GMT-0500 (Central Daylight Time),962225.5,A,rattleenter,O,enter,428,1,5080.099999904633,957145.4000000954,7703,WL,A,4.0
7,23.390999794006348,immed,36609.00020599365,Wed Oct 29 2025 11:47:14 GMT-0500 (Central Daylight Time),963481.7000000477,A,t,O,t,1240,1,1256.0,962225.7000000477,7703,WL,A,5.0
7,23.65399980545044,immed,36346.00019454956,Wed Oct 29 2025 11:47:14 GMT-0500 (Central Daylight Time),963743.7000000477,A,tr,O,r,240,1,1518.0,962225.7000000477,7703,WL,A,5.0
7,23.85199999809265,immed,36148.00000190735,Wed Oct 29 2025 11:47:14 GMT-0500 (Central Daylight Time),963942.3000001907,A,tra,O,a,177,1,1716.6000001430511,962225.7000000477,7703,WL,A,5.0
7,23.95199990272522,immed,36048.00009727478,Wed Oct 29 2025 11:47:14 GMT-0500 (Central Daylight Time),964042.3000001907,A,trai,O,i,77,1,1816.6000001430511,962225.7000000477,7703,WL,A,5.0
7,24.085999965667725,immed,35914.000034332275,Wed Oct 29 2025 11:47:14 GMT-0500 (Central Daylight Time),964176.3000001907,A,train,O,n,128,1,1950.6000001430511,962225.7000000477,7703,WL,A,5.0
7,24.30299997329712,immed,35697.00002670288,Wed Oct 29 2025 11:47:14 GMT-0500 (Central Daylight Time),964392.600000143,A,trainenter,O,enter,193,1,2166.9000000953674,962225.7000000477,7703,WL,A,5.0
7,24.78499984741211,immed,35215.00015258789,Wed Oct 29 2025 11:47:14 GMT-0500 (Central Daylight Time),964875.4000000954,A,m,O,m,475,1,482.7000000476837,964392.7000000477,7703,WL,A,6.0
7,24.95199990272522,immed,35048.00009727478,Wed Oct 29 2025 11:47:14 GMT-0500 (Central Daylight Time),965042.3000001907,A,me,O,e,152,1,649.6000001430511,964392.7000000477,7703,WL,A,6.0
7,25.102999925613403,immed,34897.0000743866,Wed Oct 29 2025 11:47:14 GMT-0500 (Central Daylight Time),965192.8000001907,A,mea,O,a,136,1,800.1000001430511,964392.7000000477,7703,WL,A,6.0
7,25.334999799728394,immed,34665.00020027161,Wed Oct 29 2025 11:47:14 GMT-0500 (Central Daylight Time),965425.3000001907,A,mead,O,d,226,1,1032.6000001430511,964392.7000000477,7703,WL,A,6.0
7,25.401000022888184,immed,34598.99997711182,Wed Oct 29 2025 11:47:14 GMT-0500 (Central Daylight Time),965491.2000000477,A,meado,O,o,46,1,1098.5,964392.7000000477,7703,WL,A,6.0
7,25.569999933242798,immed,34430.0000667572,Wed Oct 29 2025 11:47:14 GMT-0500 (Central Daylight Time),965659.7000000477,A,meadow,O,w,148,1,1267.0,964392.7000000477,7703,WL,A,6.0
7,25.86899995803833,immed,34131.00004196167,Wed Oct 29 2025 11:47:14 GMT-0500 (Central Daylight Time),965958.7000000477,A,meadowenter,O,enter,278,1,1566.0,964392.7000000477,7703,WL,A,6.0
7,29.35099983215332,immed,30649.00016784668,Wed Oct 29 2025 11:47:14 GMT-0500 (Central Daylight Time),969441.2000000477,A,f,O,f,3469,1,3482.2000000476837,965959.0,7703,WL,A,7.0
7,29.448999881744385,immed,30551.000118255615,Wed Oct 29 2025 11:47:14 GMT-0500 (Central Daylight Time),969539.0,A,fl,O,l,81,1,3580.0,965959.0,7703,WL,A,7.0
7,29.651999950408936,immed,30348.000049591064,Wed Oct 29 2025 11:47:14 GMT-0500 (Central Daylight Time),969741.8000001907,A,flo,O,o,194,1,3782.800000190735,965959.0,7703,WL,A,7.0
7,29.717000007629395,immed,30282.999992370605,Wed Oct 29 2025 11:47:14 GMT-0500 (Central Daylight Time),969807.100000143,A,flow,O,w,52,1,3848.100000143051,965959.0,7703,WL,A,7.0
7,29.816999912261963,immed,30183.000087738037,Wed Oct 29 2025 11:47:14 GMT-0500 (Central Daylight Time),969907.0,A,flowe,O,e,83,1,3948.0,965959.0,7703,WL,A,7.0
7,30.049999952316284,immed,29950.000047683716,Wed Oct 29 2025 11:47:14 GMT-0500 (Central Daylight Time),970140.3000001907,A,flower,O,r,215,1,4181.300000190735,965959.0,7703,WL,A,7.0
7,30.200999975204468,immed,29799.000024795532,Wed Oct 29 2025 11:47:14 GMT-0500 (Central Daylight Time),970290.9000000954,A,flowerenter,O,enter,141,1,4331.900000095367,965959.0,7703,WL,A,7.0
7,31.41699981689453,immed,28583.00018310547,Wed Oct 29 2025 11:47:14 GMT-0500 (Central Daylight Time),971506.5,A,r,O,r,1209,1,1215.1999998092651,970291.3000001907,7703,WL,A,8.0
7,31.717999935150146,immed,28282.000064849854,Wed Oct 29 2025 11:47:14 GMT-0500 (Central Daylight Time),971807.8000001907,A,rt,O,t,288,1,1516.5,970291.3000001907,7703,WL,A,8.0
7,31.967000007629395,immed,28032.999992370605,Wed Oct 29 2025 11:47:14 GMT-0500 (Central Daylight Time),972056.9000000954,A,rtt,O,t,236,1,1765.5999999046326,970291.3000001907,7703,WL,A,8.0
7,32.06599998474121,immed,27934.00001525879,Wed Oct 29 2025 11:47:14 GMT-0500 (Central Daylight Time),972156.4000000954,A,rttl,O,l,80,1,1865.0999999046326,970291.3000001907,7703,WL,A,8.0
7,32.132999897003174,immed,27867.000102996826,Wed Oct 29 2025 11:47:14 GMT-0500 (Central Daylight Time),972223.5,A,rttle,O,e,62,1,1932.1999998092651,970291.3000001907,7703,WL,A,8.0
7,32.36500000953674,immed,27634.999990463257,Wed Oct 29 2025 11:47:14 GMT-0500 (Central Daylight Time),972455.3000001907,A,rttleenter,O,enter,219,1,2164.0,970291.3000001907,7703,WL,A,8.0
7,36.14800000190735,immed,23851.99999809265,Wed Oct 29 2025 11:47:14 GMT-0500 (Central Daylight Time),976238.600000143,A,g,O,g,3763,1,3783.100000143051,972455.5,7703,WL,A,9.0
7,36.23399996757507,immed,23766.000032424927,Wed Oct 29 2025 11:47:14 GMT-0500 (Central Daylight Time),976324.2000000477,A,go,O,o,66,1,3868.7000000476837,972455.5,7703,WL,A,9.0
7,36.431999921798706,immed,23568.000078201294,Wed Oct 29 2025 11:47:14 GMT-0500 (Central Daylight Time),976522.5,A,gol,O,l,182,1,4067.0,972455.5,7703,WL,A,9.0
7,36.55299997329712,immed,23447.00002670288,Wed Oct 29 2025 11:47:14 GMT-0500 (Central Daylight Time),976642.5,A,gold,O,d,96,1,4187.0,972455.5,7703,WL,A,9.0
7,36.76599979400635,immed,23234.000205993652,Wed Oct 29 2025 11:47:14 GMT-0500 (Central Daylight Time),976855.8000001907,A,goldenter,O,enter,193,1,4400.300000190735,972455.5,7703,WL,A,9.0
7,38.08299994468689,immed,21917.00005531311,Wed Oct 29 2025 11:47:14 GMT-0500 (Central Daylight Time),978172.9000000954,A,k,O,k,1301,1,1316.9000000953674,976856.0,7703,WL,A,10.0
7,38.198999881744385,immed,21801.000118255615,Wed Oct 29 2025 11:47:14 GMT-0500 (Central Daylight Time),978288.8000001907,A,ke,O,e,94,1,1432.8000001907349,976856.0,7703,WL,A,10.0
7,40.79699993133545,immed,19203.00006866455,Wed Oct 29 2025 11:47:14 GMT-0500 (Central Daylight Time),980887.4000000954,A,key,O,y,2576,1,4031.4000000953674,976856.0,7703,WL,A,10.0
7,41.33099985122681,immed,18669.000148773193,Wed Oct 29 2025 11:47:14 GMT-0500 (Central Daylight Time),981420.5,A,keyenter,O,enter,513,1,4564.5,976856.0,7703,WL,A,10.0
7,44.912999868392944,immed,15087.000131607056,Wed Oct 29 2025 11:47:14 GMT-0500 (Central Daylight Time),985003.4000000954,A,b,O,b,3576,1,3582.5999999046326,981420.8000001907,7703,WL,A,11.0
7,45.06099987030029,immed,14939.000129699707,Wed Oct 29 2025 11:47:14 GMT-0500 (Central Daylight Time),985151.5,A,bo,O,o,136,1,3730.699999809265,981420.8000001907,7703,WL,A,11.0
7,45.26300001144409,immed,14736.999988555908,Wed Oct 29 2025 11:47:14 GMT-0500 (Central Daylight Time),985352.9000000954,A,boo,O,o,185,1,3932.0999999046326,981420.8000001907,7703,WL,A,11.0
7,45.34499979019165,immed,14655.00020980835,Wed Oct 29 2025 11:47:14 GMT-0500 (Central Daylight Time),985435.5,A,book,O,k,74,1,4014.699999809265,981420.8000001907,7703,WL,A,11.0
7,45.69599986076355,immed,14304.00013923645,Wed Oct 29 2025 11:47:14 GMT-0500 (Central Daylight Time),985786.2000000477,A,bookenter,O,enter,331,1,4365.399999856949,981420.8000001907,7703,WL,A,11.0
7,51.01099991798401,immed,8989.000082015991,Wed Oct 29 2025 11:47:14 GMT-0500 (Central Daylight Time),991100.5,A,f,O,f,5297,1,5314.099999904633,985786.4000000954,7703,WL,A,12.0
7,51.109999895095825,immed,8890.000104904175,Wed Oct 29 2025 11:47:14 GMT-0500 (Central Daylight Time),991200.3000001907,A,fi,O,i,95,1,5413.900000095367,985786.4000000954,7703,WL,A,12.0
7,51.27899980545044,immed,8721.00019454956,Wed Oct 29 2025 11:47:14 GMT-0500 (Central Daylight Time),991368.600000143,A,fin,O,n,145,1,5582.200000047684,985786.4000000954,7703,WL,A,12.0
7,51.376999855041504,immed,8623.000144958496,Wed Oct 29 2025 11:47:14 GMT-0500 (Central Daylight Time),991467.100000143,A,fing,O,g,81,1,5680.700000047684,985786.4000000954,7703,WL,A,12.0
7,51.51099991798401,immed,8489.000082015991,Wed Oct 29 2025 11:47:14 GMT-0500 (Central Daylight Time),991600.9000000954,A,finge,O,e,119,1,5814.5,985786.4000000954,7703,WL,A,12.0
7,51.71199989318848,immed,8288.000106811523,Wed Oct 29 2025 11:47:14 GMT-0500 (Central Daylight Time),991801.600000143,A,finger,O,r,180,1,6015.200000047684,985786.4000000954,7703,WL,A,12.0
7,51.876999855041504,immed,8123.000144958496,Wed Oct 29 2025 11:47:14 GMT-0500 (Central Daylight Time),991967.100000143,A,fingerenter,O,enter,144,1,6180.700000047684,985786.4000000954,7703,WL,A,12.0
7,60.00699996948242,immed,-6.999969482421875,Wed Oct 29 2025 11:47:14 GMT-0500 (Central Daylight Time),1000097.5,A,None,O,None,8126,1,8130.199999809265,991967.3000001907,7703,WL,A,13.0
