block_c,block_dur,condition,countdown,datetime,endtime,list,multichar_response,project,response,response_time,session_number,start_end,starttime,subject_id,task,task_vers,trial
,,,,Fri Dec 12 2025 10:36:04 GMT-0600 (Central Standard Time),,,,O,space,395,1,,,7724,WL,C,
prac,,0,,Fri Dec 12 2025 10:36:04 GMT-0600 (Central Standard Time),,NA,b,O,b,1754,1,,,7724,WL,C,1.0
prac,,0,,Fri Dec 12 2025 10:36:04 GMT-0600 (Central Standard Time),,NA,bo,O,o,485,1,,,7724,WL,C,1.0
prac,,0,,Fri Dec 12 2025 10:36:04 GMT-0600 (Central Standard Time),,NA,boo,O,o,194,1,,,7724,WL,C,1.0
prac,,0,,Fri Dec 12 2025 10:36:04 GMT-0600 (Central Standard Time),,NA,boos,O,s,200,1,,,7724,WL,C,1.0
prac,,0,,Fri Dec 12 2025 10:36:04 GMT-0600 (Central Standard Time),,NA,boost,O,t,265,1,,,7724,WL,C,1.0
prac,,0,,Fri Dec 12 2025 10:36:04 GMT-0600 (Central Standard Time),,NA,boostenter,O,enter,3118,1,,,7724,WL,C,1.0
1,1.9149999618530273,learn,58085.00003814697,Fri Dec 12 2025 10:36:04 GMT-0600 (Central Standard Time),201004.39999997616,A,t,O,t,1894,1,1915.0,199089.39999997616,7724,WL,C,1.0
1,2.2820000648498535,learn,57717.99993515015,Fri Dec 12 2025 10:36:04 GMT-0600 (Central Standard Time),201371.80000007153,A,to,O,o,361,1,2282.4000000953674,199089.39999997616,7724,WL,C,1.0
1,2.615000009536743,learn,57384.99999046326,Fri Dec 12 2025 10:36:04 GMT-0600 (Central Standard Time),201704.89999997616,A,tow,O,w,314,1,2615.5,199089.39999997616,7724,WL,C,1.0
1,2.8980000019073486,learn,57101.99999809265,Fri Dec 12 2025 10:36:04 GMT-0600 (Central Standard Time),201987.60000002384,A,towe,O,e,270,1,2898.2000000476837,199089.39999997616,7724,WL,C,1.0
1,3.046999931335449,learn,56953.00006866455,Fri Dec 12 2025 10:36:04 GMT-0600 (Central Standard Time),202136.89999997616,A,tower,O,r,138,1,3047.5,199089.39999997616,7724,WL,C,1.0
1,5.579999923706055,learn,54420.000076293945,Fri Dec 12 2025 10:36:04 GMT-0600 (Central Standard Time),204669.70000004768,A,towerenter,O,enter,2518,1,5580.300000071526,199089.39999997616,7724,WL,C,1.0
1,8.812999963760376,learn,51187.000036239624,Fri Dec 12 2025 10:36:04 GMT-0600 (Central Standard Time),207902.5,A,w,O,w,3217,1,3232.5,204670.0,7724,WL,C,2.0
1,9.013999938964844,learn,50986.000061035156,Fri Dec 12 2025 10:36:04 GMT-0600 (Central Standard Time),208103.30000007153,A,wh,O,h,192,1,3433.3000000715256,204670.0,7724,WL,C,2.0
1,9.29699993133545,learn,50703.00006866455,Fri Dec 12 2025 10:36:04 GMT-0600 (Central Standard Time),208386.30000007153,A,whe,O,e,272,1,3716.3000000715256,204670.0,7724,WL,C,2.0
1,9.630000114440918,learn,50369.99988555908,Fri Dec 12 2025 10:36:04 GMT-0600 (Central Standard Time),208719.5,A,whea,O,a,316,1,4049.5,204670.0,7724,WL,C,2.0
1,9.828999996185303,learn,50171.0000038147,Fri Dec 12 2025 10:36:04 GMT-0600 (Central Standard Time),208919.10000002384,A,wheat,O,t,190,1,4249.100000023842,204670.0,7724,WL,C,2.0
1,10.663000106811523,learn,49336.99989318848,Fri Dec 12 2025 10:36:04 GMT-0600 (Central Standard Time),209752.20000004768,A,wheatenter,O,enter,824,1,5082.200000047684,204670.0,7724,WL,C,2.0
1,13.611999988555908,learn,46388.00001144409,Fri Dec 12 2025 10:36:04 GMT-0600 (Central Standard Time),212701.5,A,q,O,q,2930,1,2949.100000023842,209752.39999997616,7724,WL,C,3.0
1,14.34500002861023,learn,45654.99997138977,Fri Dec 12 2025 10:36:04 GMT-0600 (Central Standard Time),213434.20000004768,A,qu,O,u,713,1,3681.8000000715256,209752.39999997616,7724,WL,C,3.0
1,16.046000003814697,learn,43953.9999961853,Fri Dec 12 2025 10:36:04 GMT-0600 (Central Standard Time),215135.30000007153,A,que,O,e,1684,1,5382.900000095367,209752.39999997616,7724,WL,C,3.0
1,16.927000045776367,learn,43072.99995422363,Fri Dec 12 2025 10:36:04 GMT-0600 (Central Standard Time),216016.70000004768,A,quee,O,e,871,1,6264.300000071526,209752.39999997616,7724,WL,C,3.0
1,17.14400005340576,learn,42855.99994659424,Fri Dec 12 2025 10:36:04 GMT-0600 (Central Standard Time),216233.89999997616,A,queen,O,n,205,1,6481.5,209752.39999997616,7724,WL,C,3.0
1,19.20900011062622,learn,40790.99988937378,Fri Dec 12 2025 10:36:04 GMT-0600 (Central Standard Time),218298.5,A,queenenter,O,enter,2054,1,8546.100000023842,209752.39999997616,7724,WL,C,3.0
1,26.33999991416931,learn,33660.00008583069,Fri Dec 12 2025 10:36:04 GMT-0600 (Central Standard Time),225429.60000002384,A,h,O,h,7124,1,7130.799999952316,218298.80000007153,7724,WL,C,4.0
1,26.506999969482422,learn,33493.00003051758,Fri Dec 12 2025 10:36:04 GMT-0600 (Central Standard Time),225597.0,A,ho,O,o,154,1,7298.199999928474,218298.80000007153,7724,WL,C,4.0
1,27.04100012779236,learn,32958.99987220764,Fri Dec 12 2025 10:36:04 GMT-0600 (Central Standard Time),226130.30000007153,A,hom,O,m,514,1,7831.5,218298.80000007153,7724,WL,C,4.0
1,27.242000102996826,learn,32757.999897003174,Fri Dec 12 2025 10:36:04 GMT-0600 (Central Standard Time),226331.5,A,home,O,e,189,1,8032.699999928474,218298.80000007153,7724,WL,C,4.0
1,28.58999991416931,learn,31410.00008583069,Fri Dec 12 2025 10:36:04 GMT-0600 (Central Standard Time),227679.39999997616,A,homeenter,O,enter,1339,1,9380.599999904633,218298.80000007153,7724,WL,C,4.0
1,43.318000078201294,learn,16681.999921798706,Fri Dec 12 2025 10:36:04 GMT-0600 (Central Standard Time),242407.89999997616,A,d,O,d,14720,1,14728.199999928474,227679.70000004768,7724,WL,C,5.0
1,44.00200009346008,learn,15997.999906539917,Fri Dec 12 2025 10:36:04 GMT-0600 (Central Standard Time),243091.89999997616,A,do,O,o,672,1,15412.199999928474,227679.70000004768,7724,WL,C,5.0
1,44.45099997520447,learn,15549.000024795532,Fri Dec 12 2025 10:36:04 GMT-0600 (Central Standard Time),243540.89999997616,A,doc,O,c,436,1,15861.199999928474,227679.70000004768,7724,WL,C,5.0
1,45.13499999046326,learn,14865.000009536743,Fri Dec 12 2025 10:36:04 GMT-0600 (Central Standard Time),244225.0,A,doct,O,t,665,1,16545.299999952316,227679.70000004768,7724,WL,C,5.0
1,45.60000014305115,learn,14399.999856948853,Fri Dec 12 2025 10:36:04 GMT-0600 (Central Standard Time),244690.39999997616,A,docto,O,o,455,1,17010.699999928474,227679.70000004768,7724,WL,C,5.0
1,45.818000078201294,learn,14181.999921798706,Fri Dec 12 2025 10:36:04 GMT-0600 (Central Standard Time),244908.30000007153,A,doctor,O,r,205,1,17228.600000023842,227679.70000004768,7724,WL,C,5.0
1,46.634000062942505,learn,13365.999937057495,Fri Dec 12 2025 10:36:04 GMT-0600 (Central Standard Time),245723.89999997616,A,doctorenter,O,enter,796,1,18044.199999928474,227679.70000004768,7724,WL,C,5.0
1,55.77999997138977,learn,4220.0000286102295,Fri Dec 12 2025 10:36:04 GMT-0600 (Central Standard Time),254870.10000002384,A,c,O,c,9130,1,9146.0,245724.10000002384,7724,WL,C,6.0
1,56.21499991416931,learn,3785.0000858306885,Fri Dec 12 2025 10:36:04 GMT-0600 (Central Standard Time),255304.5,A,co,O,o,416,1,9580.399999976158,245724.10000002384,7724,WL,C,6.0
1,56.38100004196167,learn,3618.99995803833,Fri Dec 12 2025 10:36:04 GMT-0600 (Central Standard Time),255471.0,A,cor,O,r,159,1,9746.899999976158,245724.10000002384,7724,WL,C,6.0
1,56.71499991416931,learn,3285.0000858306885,Fri Dec 12 2025 10:36:04 GMT-0600 (Central Standard Time),255804.5,A,corn,O,n,330,1,10080.399999976158,245724.10000002384,7724,WL,C,6.0
1,57.598000049591064,learn,2401.9999504089355,Fri Dec 12 2025 10:36:04 GMT-0600 (Central Standard Time),256688.10000002384,A,cornenter,O,enter,865,1,10964.0,245724.10000002384,7724,WL,C,6.0
1,60.013999938964844,learn,-13.99993896484375,Fri Dec 12 2025 10:36:04 GMT-0600 (Central Standard Time),259103.70000004768,A,None,O,None,2411,1,2415.2000000476837,256688.5,7724,WL,C,7.0
2,2.501000165939331,learn,57498.99983406067,Fri Dec 12 2025 10:36:04 GMT-0600 (Central Standard Time),333381.0,A,t,O,t,2485,1,2500.100000023842,330880.89999997616,7724,WL,C,1.0
2,2.7330000400543213,learn,57266.99995994568,Fri Dec 12 2025 10:36:04 GMT-0600 (Central Standard Time),333613.7000000477,A,to,O,o,228,1,2732.8000000715256,330880.89999997616,7724,WL,C,1.0
2,3.2160000801086426,learn,56783.99991989136,Fri Dec 12 2025 10:36:04 GMT-0600 (Central Standard Time),334096.10000002384,A,tow,O,w,473,1,3215.2000000476837,330880.89999997616,7724,WL,C,1.0
2,3.5329999923706055,learn,56467.000007629395,Fri Dec 12 2025 10:36:04 GMT-0600 (Central Standard Time),334413.3000000715,A,towe,O,e,302,1,3532.4000000953674,330880.89999997616,7724,WL,C,1.0
2,3.7660000324249268,learn,56233.99996757507,Fri Dec 12 2025 10:36:04 GMT-0600 (Central Standard Time),334646.10000002384,A,tower,O,r,219,1,3765.2000000476837,330880.89999997616,7724,WL,C,1.0
2,4.682000160217285,learn,55317.999839782715,Fri Dec 12 2025 10:36:04 GMT-0600 (Central Standard Time),335562.5,A,towerenter,O,enter,912,1,4681.600000023842,330880.89999997616,7724,WL,C,1.0
2,7.781000137329102,learn,52218.9998626709,Fri Dec 12 2025 10:36:04 GMT-0600 (Central Standard Time),338661.3000000715,A,w,O,w,3082,1,3098.600000023842,335562.7000000477,7724,WL,C,2.0
2,8.48200011253357,learn,51517.99988746643,Fri Dec 12 2025 10:36:04 GMT-0600 (Central Standard Time),339362.10000002384,A,wh,O,h,680,1,3799.399999976158,335562.7000000477,7724,WL,C,2.0
2,8.79800009727478,learn,51201.99990272522,Fri Dec 12 2025 10:36:04 GMT-0600 (Central Standard Time),339678.10000002384,A,whe,O,e,311,1,4115.399999976158,335562.7000000477,7724,WL,C,2.0
2,9.131999969482422,learn,50868.00003051758,Fri Dec 12 2025 10:36:04 GMT-0600 (Central Standard Time),340012.10000002384,A,whea,O,a,320,1,4449.399999976158,335562.7000000477,7724,WL,C,2.0
2,9.46399998664856,learn,50536.00001335144,Fri Dec 12 2025 10:36:04 GMT-0600 (Central Standard Time),340344.39999997616,A,wheat,O,t,322,1,4781.699999928474,335562.7000000477,7724,WL,C,2.0
2,10.980000019073486,learn,49019.999980926514,Fri Dec 12 2025 10:36:04 GMT-0600 (Central Standard Time),341860.7000000477,A,wheatenter,O,enter,1502,1,6298.0,335562.7000000477,7724,WL,C,2.0
2,13.663000106811523,learn,46336.99989318848,Fri Dec 12 2025 10:36:04 GMT-0600 (Central Standard Time),344543.10000002384,A,q,O,q,2665,1,2682.100000023842,341861.0,7724,WL,C,3.0
2,14.095999956130981,learn,45904.00004386902,Fri Dec 12 2025 10:36:04 GMT-0600 (Central Standard Time),344976.8000000715,A,qu,O,u,417,1,3115.8000000715256,341861.0,7724,WL,C,3.0
2,14.42900013923645,learn,45570.99986076355,Fri Dec 12 2025 10:36:04 GMT-0600 (Central Standard Time),345309.10000002384,A,que,O,e,318,1,3448.100000023842,341861.0,7724,WL,C,3.0
2,14.76200008392334,learn,45237.99991607666,Fri Dec 12 2025 10:36:04 GMT-0600 (Central Standard Time),345642.5,A,quee,O,e,313,1,3781.5,341861.0,7724,WL,C,3.0
2,15.144999980926514,learn,44855.000019073486,Fri Dec 12 2025 10:36:04 GMT-0600 (Central Standard Time),346025.8000000715,A,queen,O,n,363,1,4164.800000071526,341861.0,7724,WL,C,3.0
2,15.778000116348267,learn,44221.99988365173,Fri Dec 12 2025 10:36:04 GMT-0600 (Central Standard Time),346658.10000002384,A,queenenter,O,enter,619,1,4797.100000023842,341861.0,7724,WL,C,3.0
2,16.978000164031982,learn,43021.99983596802,Fri Dec 12 2025 10:36:04 GMT-0600 (Central Standard Time),347858.2000000477,A,s,O,s,1187,1,1199.8000000715256,346658.39999997616,7724,WL,C,4.0
2,17.394999980926514,learn,42605.000019073486,Fri Dec 12 2025 10:36:04 GMT-0600 (Central Standard Time),348275.10000002384,A,su,O,u,403,1,1616.7000000476837,346658.39999997616,7724,WL,C,4.0
2,17.894999980926514,learn,42105.000019073486,Fri Dec 12 2025 10:36:04 GMT-0600 (Central Standard Time),348775.0,A,sug,O,g,482,1,2116.600000023842,346658.39999997616,7724,WL,C,4.0
2,20.194000005722046,learn,39805.999994277954,Fri Dec 12 2025 10:36:04 GMT-0600 (Central Standard Time),351074.2000000477,A,suga,O,a,2286,1,4415.800000071526,346658.39999997616,7724,WL,C,4.0
2,20.5770001411438,learn,39422.9998588562,Fri Dec 12 2025 10:36:04 GMT-0600 (Central Standard Time),351457.2000000477,A,sugar,O,r,373,1,4798.800000071526,346658.39999997616,7724,WL,C,4.0
2,22.075999975204468,learn,37924.00002479553,Fri Dec 12 2025 10:36:04 GMT-0600 (Central Standard Time),352956.7000000477,A,sugarenter,O,enter,1486,1,6298.300000071526,346658.39999997616,7724,WL,C,4.0
2,24.4760000705719,learn,35523.9999294281,Fri Dec 12 2025 10:36:04 GMT-0600 (Central Standard Time),355356.89999997616,A,h,O,h,2386,1,2399.899999976158,352957.0,7724,WL,C,5.0
2,24.776000022888184,learn,35223.99997711182,Fri Dec 12 2025 10:36:04 GMT-0600 (Central Standard Time),355656.39999997616,A,ho,O,o,281,1,2699.399999976158,352957.0,7724,WL,C,5.0
2,25.20800018310547,learn,34791.99981689453,Fri Dec 12 2025 10:36:04 GMT-0600 (Central Standard Time),356088.7000000477,A,hom,O,m,412,1,3131.7000000476837,352957.0,7724,WL,C,5.0
2,25.409000158309937,learn,34590.99984169006,Fri Dec 12 2025 10:36:04 GMT-0600 (Central Standard Time),356289.5,A,home,O,e,190,1,3332.5,352957.0,7724,WL,C,5.0
2,26.593000173568726,learn,33406.999826431274,Fri Dec 12 2025 10:36:04 GMT-0600 (Central Standard Time),357474.10000002384,A,homeenter,O,enter,1171,1,4517.100000023842,352957.0,7724,WL,C,5.0
2,27.94000005722046,learn,32059.99994277954,Fri Dec 12 2025 10:36:04 GMT-0600 (Central Standard Time),358821.2000000477,A,b,O,b,1341,1,1346.8999999761581,357474.3000000715,7724,WL,C,6.0
2,28.278000116348267,learn,31721.999883651733,Fri Dec 12 2025 10:36:04 GMT-0600 (Central Standard Time),359159.0,A,bo,O,o,328,1,1684.6999999284744,357474.3000000715,7724,WL,C,6.0
2,29.092000007629395,learn,30907.999992370605,Fri Dec 12 2025 10:36:04 GMT-0600 (Central Standard Time),359972.8000000715,A,boy,O,y,808,1,2498.5,357474.3000000715,7724,WL,C,6.0
2,30.356000185012817,learn,29643.999814987183,Fri Dec 12 2025 10:36:04 GMT-0600 (Central Standard Time),361237.3000000715,A,boyenter,O,enter,1258,1,3763.0,357474.3000000715,7724,WL,C,6.0
2,32.69200015068054,learn,27307.999849319458,Fri Dec 12 2025 10:36:04 GMT-0600 (Central Standard Time),363573.2000000477,A,d,O,d,2322,1,2335.7000000476837,361237.5,7724,WL,C,7.0
2,33.574000120162964,learn,26425.999879837036,Fri Dec 12 2025 10:36:04 GMT-0600 (Central Standard Time),364454.7000000477,A,do,O,o,864,1,3217.2000000476837,361237.5,7724,WL,C,7.0
2,33.90700006484985,learn,26092.999935150146,Fri Dec 12 2025 10:36:04 GMT-0600 (Central Standard Time),364787.5,A,doc,O,c,313,1,3550.0,361237.5,7724,WL,C,7.0
2,34.342000007629395,learn,25657.999992370605,Fri Dec 12 2025 10:36:04 GMT-0600 (Central Standard Time),365222.39999997616,A,doct,O,t,427,1,3984.899999976158,361237.5,7724,WL,C,7.0
2,35.074000120162964,learn,24925.999879837036,Fri Dec 12 2025 10:36:04 GMT-0600 (Central Standard Time),365954.3000000715,A,docto,O,o,709,1,4716.800000071526,361237.5,7724,WL,C,7.0
2,35.48800015449524,learn,24511.99984550476,Fri Dec 12 2025 10:36:04 GMT-0600 (Central Standard Time),366368.89999997616,A,doctor,O,r,395,1,5131.399999976158,361237.5,7724,WL,C,7.0
2,37.15400004386902,learn,22845.99995613098,Fri Dec 12 2025 10:36:04 GMT-0600 (Central Standard Time),368034.8000000715,A,doctorenter,O,enter,1653,1,6797.300000071526,361237.5,7724,WL,C,7.0
2,55.64800000190735,learn,4351.999998092651,Fri Dec 12 2025 10:36:04 GMT-0600 (Central Standard Time),386529.10000002384,A,c,O,c,18483,1,18494.0,368035.10000002384,7724,WL,C,8.0
2,55.866000175476074,learn,4133.999824523926,Fri Dec 12 2025 10:36:04 GMT-0600 (Central Standard Time),386746.3000000715,A,co,O,o,197,1,18711.200000047684,368035.10000002384,7724,WL,C,8.0
2,56.16900014877319,learn,3830.9998512268066,Fri Dec 12 2025 10:36:04 GMT-0600 (Central Standard Time),387050.3000000715,A,cor,O,r,291,1,19015.200000047684,368035.10000002384,7724,WL,C,8.0
2,56.46900010108948,learn,3530.9998989105225,Fri Dec 12 2025 10:36:04 GMT-0600 (Central Standard Time),387349.89999997616,A,corn,O,n,276,1,19314.799999952316,368035.10000002384,7724,WL,C,8.0
2,57.7810001373291,learn,2218.9998626708984,Fri Dec 12 2025 10:36:04 GMT-0600 (Central Standard Time),388662.0,A,cornenter,O,enter,1295,1,20626.899999976158,368035.10000002384,7724,WL,C,8.0
2,60.01400017738342,learn,-14.000177383422852,Fri Dec 12 2025 10:36:04 GMT-0600 (Central Standard Time),390895.2000000477,A,None,O,None,2229,1,2233.0,388662.2000000477,7724,WL,C,9.0
3,2.2649998664855957,learn,57735.000133514404,Fri Dec 12 2025 10:36:04 GMT-0600 (Central Standard Time),463022.3000000715,A,t,O,t,2244,1,2265.100000023842,460757.2000000477,7724,WL,C,1.0
3,2.5829999446868896,learn,57417.00005531311,Fri Dec 12 2025 10:36:04 GMT-0600 (Central Standard Time),463340.7000000477,A,to,O,o,303,1,2583.5,460757.2000000477,7724,WL,C,1.0
3,2.9139997959136963,learn,57086.000204086304,Fri Dec 12 2025 10:36:04 GMT-0600 (Central Standard Time),463671.5,A,tow,O,w,322,1,2914.2999999523163,460757.2000000477,7724,WL,C,1.0
3,3.1969997882843018,learn,56803.0002117157,Fri Dec 12 2025 10:36:04 GMT-0600 (Central Standard Time),463954.7000000477,A,towe,O,e,271,1,3197.5,460757.2000000477,7724,WL,C,1.0
3,3.3309998512268066,learn,56669.00014877319,Fri Dec 12 2025 10:36:04 GMT-0600 (Central Standard Time),464088.0,A,tower,O,r,124,1,3330.7999999523163,460757.2000000477,7724,WL,C,1.0
3,4.23199987411499,learn,55768.00012588501,Fri Dec 12 2025 10:36:04 GMT-0600 (Central Standard Time),464988.89999997616,A,towerenter,O,enter,887,1,4231.699999928474,460757.2000000477,7724,WL,C,1.0
3,8.246999979019165,learn,51753.000020980835,Fri Dec 12 2025 10:36:04 GMT-0600 (Central Standard Time),469004.0,A,w,O,w,4002,1,4014.899999976158,464989.10000002384,7724,WL,C,2.0
3,8.44599986076355,learn,51554.00013923645,Fri Dec 12 2025 10:36:04 GMT-0600 (Central Standard Time),469203.0,A,wh,O,h,195,1,4213.899999976158,464989.10000002384,7724,WL,C,2.0
3,8.745999813079834,learn,51254.000186920166,Fri Dec 12 2025 10:36:04 GMT-0600 (Central Standard Time),469503.5,A,whe,O,e,292,1,4514.399999976158,464989.10000002384,7724,WL,C,2.0
3,9.280999898910522,learn,50719.00010108948,Fri Dec 12 2025 10:36:04 GMT-0600 (Central Standard Time),470038.10000002384,A,whea,O,a,529,1,5049.0,464989.10000002384,7724,WL,C,2.0
3,9.648000001907349,learn,50351.99999809265,Fri Dec 12 2025 10:36:04 GMT-0600 (Central Standard Time),470405.0,A,wheat,O,t,344,1,5415.899999976158,464989.10000002384,7724,WL,C,2.0
3,10.562999963760376,learn,49437.000036239624,Fri Dec 12 2025 10:36:04 GMT-0600 (Central Standard Time),471320.0,A,wheatenter,O,enter,897,1,6330.899999976158,464989.10000002384,7724,WL,C,2.0
3,13.960999965667725,learn,46039.000034332275,Fri Dec 12 2025 10:36:04 GMT-0600 (Central Standard Time),474718.7000000477,A,q,O,q,3391,1,3398.5,471320.2000000477,7724,WL,C,3.0
3,14.513999938964844,learn,45486.000061035156,Fri Dec 12 2025 10:36:04 GMT-0600 (Central Standard Time),475270.8000000715,A,qw,O,w,546,1,3950.600000023842,471320.2000000477,7724,WL,C,3.0
3,15.67799997329712,learn,44322.00002670288,Fri Dec 12 2025 10:36:04 GMT-0600 (Central Standard Time),476435.3000000715,A,q,O,backspace,1153,1,5115.100000023842,471320.2000000477,7724,WL,C,3.0
3,16.049999952316284,learn,43950.000047683716,Fri Dec 12 2025 10:36:04 GMT-0600 (Central Standard Time),476807.3000000715,A,qu,O,u,367,1,5487.100000023842,471320.2000000477,7724,WL,C,3.0
3,17.376999855041504,learn,42623.000144958496,Fri Dec 12 2025 10:36:04 GMT-0600 (Central Standard Time),478134.10000002384,A,que,O,e,1320,1,6813.899999976158,471320.2000000477,7724,WL,C,3.0
3,17.64299988746643,learn,42357.00011253357,Fri Dec 12 2025 10:36:04 GMT-0600 (Central Standard Time),478400.8000000715,A,quee,O,e,248,1,7080.600000023842,471320.2000000477,7724,WL,C,3.0
3,20.47499990463257,learn,39525.00009536743,Fri Dec 12 2025 10:36:04 GMT-0600 (Central Standard Time),481232.39999997616,A,queen,O,n,2814,1,9912.199999928474,471320.2000000477,7724,WL,C,3.0
3,20.941999912261963,learn,39058.00008773804,Fri Dec 12 2025 10:36:04 GMT-0600 (Central Standard Time),481699.7000000477,A,queenenter,O,enter,455,1,10379.5,471320.2000000477,7724,WL,C,3.0
3,22.87399983406067,learn,37126.00016593933,Fri Dec 12 2025 10:36:04 GMT-0600 (Central Standard Time),483631.3000000715,A,s,O,s,1915,1,1931.3000000715256,481700.0,7724,WL,C,4.0
3,23.907999992370605,learn,36092.000007629395,Fri Dec 12 2025 10:36:04 GMT-0600 (Central Standard Time),484665.5,A,su,O,u,1016,1,2965.5,481700.0,7724,WL,C,4.0
3,24.107999801635742,learn,35892.00019836426,Fri Dec 12 2025 10:36:04 GMT-0600 (Central Standard Time),484865.5,A,sug,O,g,180,1,3165.5,481700.0,7724,WL,C,4.0
3,24.54199981689453,learn,35458.00018310547,Fri Dec 12 2025 10:36:04 GMT-0600 (Central Standard Time),485299.7000000477,A,suga,O,a,421,1,3599.7000000476837,481700.0,7724,WL,C,4.0
3,24.806999921798706,learn,35193.000078201294,Fri Dec 12 2025 10:36:04 GMT-0600 (Central Standard Time),485565.10000002384,A,sugar,O,r,261,1,3865.100000023842,481700.0,7724,WL,C,4.0
3,26.073999881744385,learn,33926.000118255615,Fri Dec 12 2025 10:36:04 GMT-0600 (Central Standard Time),486831.3000000715,A,sugarenter,O,enter,1257,1,5131.300000071526,481700.0,7724,WL,C,4.0
3,27.58999991416931,learn,32410.00008583069,Fri Dec 12 2025 10:36:04 GMT-0600 (Central Standard Time),488347.7000000477,A,h,O,h,1496,1,1516.1000000238419,486831.60000002384,7724,WL,C,5.0
3,28.122999906539917,learn,31877.000093460083,Fri Dec 12 2025 10:36:04 GMT-0600 (Central Standard Time),488880.7000000477,A,ho,O,o,523,1,2049.100000023842,486831.60000002384,7724,WL,C,5.0
3,28.423999786376953,learn,31576.000213623047,Fri Dec 12 2025 10:36:04 GMT-0600 (Central Standard Time),489181.3000000715,A,hom,O,m,297,1,2349.7000000476837,486831.60000002384,7724,WL,C,5.0
3,29.222999811172485,learn,30777.000188827515,Fri Dec 12 2025 10:36:04 GMT-0600 (Central Standard Time),489980.10000002384,A,home,O,e,793,1,3148.5,486831.60000002384,7724,WL,C,5.0
3,30.121999979019165,learn,29878.000020980835,Fri Dec 12 2025 10:36:04 GMT-0600 (Central Standard Time),490879.8000000715,A,homeenter,O,enter,884,1,4048.2000000476837,486831.60000002384,7724,WL,C,5.0
3,31.621999979019165,learn,28378.000020980835,Fri Dec 12 2025 10:36:04 GMT-0600 (Central Standard Time),492379.5,A,b,O,b,1479,1,1499.5,490880.0,7724,WL,C,6.0
3,31.954999923706055,learn,28045.000076293945,Fri Dec 12 2025 10:36:04 GMT-0600 (Central Standard Time),492713.0,A,bo,O,o,314,1,1833.0,490880.0,7724,WL,C,6.0
3,32.63800001144409,learn,27361.99998855591,Fri Dec 12 2025 10:36:04 GMT-0600 (Central Standard Time),493395.39999997616,A,boy,O,y,670,1,2515.399999976158,490880.0,7724,WL,C,6.0
3,34.03699994087219,learn,25963.000059127808,Fri Dec 12 2025 10:36:04 GMT-0600 (Central Standard Time),494794.8000000715,A,boyenter,O,enter,1388,1,3914.8000000715256,490880.0,7724,WL,C,6.0
3,35.621999979019165,learn,24378.000020980835,Fri Dec 12 2025 10:36:04 GMT-0600 (Central Standard Time),496379.2000000477,A,d,O,d,1563,1,1584.2000000476837,494795.0,7724,WL,C,7.0
3,35.9210000038147,learn,24078.999996185303,Fri Dec 12 2025 10:36:04 GMT-0600 (Central Standard Time),496678.5,A,do,O,o,281,1,1883.5,494795.0,7724,WL,C,7.0
3,36.23699998855591,learn,23763.00001144409,Fri Dec 12 2025 10:36:04 GMT-0600 (Central Standard Time),496994.5,A,doc,O,c,302,1,2199.5,494795.0,7724,WL,C,7.0
3,36.686999797821045,learn,23313.000202178955,Fri Dec 12 2025 10:36:04 GMT-0600 (Central Standard Time),497444.39999997616,A,doct,O,t,444,1,2649.399999976158,494795.0,7724,WL,C,7.0
3,37.21999979019165,learn,22780.00020980835,Fri Dec 12 2025 10:36:04 GMT-0600 (Central Standard Time),497977.7000000477,A,docto,O,o,514,1,3182.7000000476837,494795.0,7724,WL,C,7.0
3,37.936999797821045,learn,22063.000202178955,Fri Dec 12 2025 10:36:04 GMT-0600 (Central Standard Time),498694.60000002384,A,doctor,O,r,702,1,3899.600000023842,494795.0,7724,WL,C,7.0
3,40.68599987030029,learn,19314.000129699707,Fri Dec 12 2025 10:36:04 GMT-0600 (Central Standard Time),501444.0,A,doctorenter,O,enter,2745,1,6649.0,494795.0,7724,WL,C,7.0
3,43.919999837875366,learn,16080.000162124634,Fri Dec 12 2025 10:36:04 GMT-0600 (Central Standard Time),504677.2000000477,A,c,O,c,3228,1,3233.0,501444.2000000477,7724,WL,C,8.0
3,44.28399991989136,learn,15716.000080108643,Fri Dec 12 2025 10:36:04 GMT-0600 (Central Standard Time),505041.5,A,ca,O,a,354,1,3597.2999999523163,501444.2000000477,7724,WL,C,8.0
3,44.501999855041504,learn,15498.000144958496,Fri Dec 12 2025 10:36:04 GMT-0600 (Central Standard Time),505259.5,A,cam,O,m,198,1,3815.2999999523163,501444.2000000477,7724,WL,C,8.0
3,44.96799993515015,learn,15032.000064849854,Fri Dec 12 2025 10:36:04 GMT-0600 (Central Standard Time),505725.2000000477,A,camp,O,p,449,1,4281.0,501444.2000000477,7724,WL,C,8.0
3,47.41699981689453,learn,12583.000183105469,Fri Dec 12 2025 10:36:04 GMT-0600 (Central Standard Time),508174.5,A,campenter,O,enter,2441,1,6730.299999952316,501444.2000000477,7724,WL,C,8.0
3,51.44799995422363,learn,8552.000045776367,Fri Dec 12 2025 10:36:04 GMT-0600 (Central Standard Time),512206.10000002384,A,f,O,f,4016,1,4031.399999976158,508174.7000000477,7724,WL,C,9.0
3,51.64800000190735,learn,8351.999998092651,Fri Dec 12 2025 10:36:04 GMT-0600 (Central Standard Time),512405.8000000715,A,fl,O,l,188,1,4231.100000023842,508174.7000000477,7724,WL,C,9.0
3,51.94999980926514,learn,8050.000190734863,Fri Dec 12 2025 10:36:04 GMT-0600 (Central Standard Time),512708.0,A,fla,O,a,294,1,4533.299999952316,508174.7000000477,7724,WL,C,9.0
3,52.33299994468689,learn,7667.00005531311,Fri Dec 12 2025 10:36:04 GMT-0600 (Central Standard Time),513090.10000002384,A,flag,O,g,368,1,4915.399999976158,508174.7000000477,7724,WL,C,9.0
3,53.58200001716614,learn,6417.999982833862,Fri Dec 12 2025 10:36:04 GMT-0600 (Central Standard Time),514339.39999997616,A,flagenter,O,enter,1231,1,6164.699999928474,508174.7000000477,7724,WL,C,9.0
3,54.28099989891052,learn,5719.0001010894775,Fri Dec 12 2025 10:36:04 GMT-0600 (Central Standard Time),515038.8000000715,A,l,O,l,691,1,699.2000000476837,514339.60000002384,7724,WL,C,10.0
3,54.81399989128113,learn,5186.000108718872,Fri Dec 12 2025 10:36:04 GMT-0600 (Central Standard Time),515572.10000002384,A,le,O,e,518,1,1232.5,514339.60000002384,7724,WL,C,10.0
3,55.23099994659424,learn,4769.000053405762,Fri Dec 12 2025 10:36:04 GMT-0600 (Central Standard Time),515988.39999997616,A,let,O,t,408,1,1648.7999999523163,514339.60000002384,7724,WL,C,10.0
3,55.53099989891052,learn,4469.0001010894775,Fri Dec 12 2025 10:36:04 GMT-0600 (Central Standard Time),516288.89999997616,A,lett,O,t,279,1,1949.2999999523163,514339.60000002384,7724,WL,C,10.0
3,55.89699983596802,learn,4103.000164031982,Fri Dec 12 2025 10:36:04 GMT-0600 (Central Standard Time),516654.89999997616,A,lette,O,e,344,1,2315.2999999523163,514339.60000002384,7724,WL,C,10.0
3,55.996999979019165,learn,4003.000020980835,Fri Dec 12 2025 10:36:04 GMT-0600 (Central Standard Time),516754.89999997616,A,letter,O,r,76,1,2415.2999999523163,514339.60000002384,7724,WL,C,10.0
3,57.61399984359741,learn,2386.000156402588,Fri Dec 12 2025 10:36:04 GMT-0600 (Central Standard Time),518371.10000002384,A,letterenter,O,enter,1595,1,4031.5,514339.60000002384,7724,WL,C,10.0
3,60.01300001144409,learn,-13.000011444091797,Fri Dec 12 2025 10:36:04 GMT-0600 (Central Standard Time),520770.3000000715,A,None,O,None,2394,1,2398.9000000953674,518371.39999997616,7724,WL,C,11.0
4,3.1489999294281006,learn,56851.0000705719,Fri Dec 12 2025 10:36:04 GMT-0600 (Central Standard Time),601578.6000000238,A,t,O,t,3136,1,3148.7999999523163,598429.8000000715,7724,WL,C,1.0
4,3.9649999141693115,learn,56035.00008583069,Fri Dec 12 2025 10:36:04 GMT-0600 (Central Standard Time),602394.5,A,to,O,o,795,1,3964.6999999284744,598429.8000000715,7724,WL,C,1.0
4,4.164999961853027,learn,55835.00003814697,Fri Dec 12 2025 10:36:04 GMT-0600 (Central Standard Time),602594.6000000238,A,tow,O,w,188,1,4164.799999952316,598429.8000000715,7724,WL,C,1.0
4,4.414999961853027,learn,55585.00003814697,Fri Dec 12 2025 10:36:04 GMT-0600 (Central Standard Time),602844.7000000477,A,towe,O,e,245,1,4414.899999976158,598429.8000000715,7724,WL,C,1.0
4,4.697999954223633,learn,55302.00004577637,Fri Dec 12 2025 10:36:04 GMT-0600 (Central Standard Time),603127.6000000238,A,tower,O,r,272,1,4697.799999952316,598429.8000000715,7724,WL,C,1.0
4,5.880999803543091,learn,54119.00019645691,Fri Dec 12 2025 10:36:04 GMT-0600 (Central Standard Time),604310.5,A,towerenter,O,enter,1167,1,5880.699999928474,598429.8000000715,7724,WL,C,1.0
4,7.015999794006348,learn,52984.00020599365,Fri Dec 12 2025 10:36:04 GMT-0600 (Central Standard Time),605445.8999999762,A,w,O,w,1120,1,1135.0999999046326,604310.8000000715,7724,WL,C,2.0
4,7.347999811172485,learn,52652.000188827515,Fri Dec 12 2025 10:36:04 GMT-0600 (Central Standard Time),605777.3999999762,A,wh,O,h,313,1,1466.5999999046326,604310.8000000715,7724,WL,C,2.0
4,7.630999803543091,learn,52369.00019645691,Fri Dec 12 2025 10:36:04 GMT-0600 (Central Standard Time),606060.0,A,whe,O,e,273,1,1749.1999999284744,604310.8000000715,7724,WL,C,2.0
4,7.913999795913696,learn,52086.000204086304,Fri Dec 12 2025 10:36:04 GMT-0600 (Central Standard Time),606342.8999999762,A,whea,O,a,274,1,2032.0999999046326,604310.8000000715,7724,WL,C,2.0
4,8.329999923706055,learn,51670.000076293945,Fri Dec 12 2025 10:36:04 GMT-0600 (Central Standard Time),606759.5,A,wheat,O,t,399,1,2448.6999999284744,604310.8000000715,7724,WL,C,2.0
4,9.062999963760376,learn,50937.000036239624,Fri Dec 12 2025 10:36:04 GMT-0600 (Central Standard Time),607492.6000000238,A,wheatenter,O,enter,727,1,3181.7999999523163,604310.8000000715,7724,WL,C,2.0
4,12.263000011444092,learn,47736.99998855591,Fri Dec 12 2025 10:36:04 GMT-0600 (Central Standard Time),610692.7000000477,A,q,O,q,3186,1,3199.899999976158,607492.8000000715,7724,WL,C,3.0
4,12.662999868392944,learn,47337.000131607056,Fri Dec 12 2025 10:36:04 GMT-0600 (Central Standard Time),611092.2000000477,A,qu,O,u,393,1,3599.399999976158,607492.8000000715,7724,WL,C,3.0
4,13.02999997138977,learn,46970.00002861023,Fri Dec 12 2025 10:36:04 GMT-0600 (Central Standard Time),611459.0,A,que,O,e,347,1,3966.1999999284744,607492.8000000715,7724,WL,C,3.0
4,13.26199984550476,learn,46738.00015449524,Fri Dec 12 2025 10:36:04 GMT-0600 (Central Standard Time),611691.7000000477,A,quee,O,e,220,1,4198.899999976158,607492.8000000715,7724,WL,C,3.0
4,13.746999979019165,learn,46253.000020980835,Fri Dec 12 2025 10:36:04 GMT-0600 (Central Standard Time),612176.3000000715,A,queen,O,n,474,1,4683.5,607492.8000000715,7724,WL,C,3.0
4,14.810999870300293,learn,45189.00012969971,Fri Dec 12 2025 10:36:04 GMT-0600 (Central Standard Time),613240.8999999762,A,queenenter,O,enter,1053,1,5748.099999904633,607492.8000000715,7724,WL,C,3.0
4,20.91100001335144,learn,39088.99998664856,Fri Dec 12 2025 10:36:04 GMT-0600 (Central Standard Time),619340.3000000715,A,s,O,s,6076,1,6099.200000047684,613241.1000000238,7724,WL,C,4.0
4,21.292999982833862,learn,38707.00001716614,Fri Dec 12 2025 10:36:04 GMT-0600 (Central Standard Time),619722.3999999762,A,su,O,u,369,1,6481.299999952316,613241.1000000238,7724,WL,C,4.0
4,21.675999879837036,learn,38324.000120162964,Fri Dec 12 2025 10:36:04 GMT-0600 (Central Standard Time),620105.7000000477,A,sug,O,g,365,1,6864.600000023842,613241.1000000238,7724,WL,C,4.0
4,22.04199981689453,learn,37958.00018310547,Fri Dec 12 2025 10:36:04 GMT-0600 (Central Standard Time),620471.8000000715,A,suga,O,a,358,1,7230.700000047684,613241.1000000238,7724,WL,C,4.0
4,22.425999879837036,learn,37574.000120162964,Fri Dec 12 2025 10:36:04 GMT-0600 (Central Standard Time),620855.3999999762,A,sugar,O,r,366,1,7614.299999952316,613241.1000000238,7724,WL,C,4.0
4,23.358999967575073,learn,36641.00003242493,Fri Dec 12 2025 10:36:04 GMT-0600 (Central Standard Time),621788.1000000238,A,sugarenter,O,enter,920,1,8547.0,613241.1000000238,7724,WL,C,4.0
4,24.923999786376953,learn,35076.00021362305,Fri Dec 12 2025 10:36:04 GMT-0600 (Central Standard Time),623352.8999999762,A,b,O,b,1546,1,1564.5999999046326,621788.3000000715,7724,WL,C,5.0
4,25.306999921798706,learn,34693.000078201294,Fri Dec 12 2025 10:36:04 GMT-0600 (Central Standard Time),623736.2000000477,A,bo,O,o,366,1,1947.8999999761581,621788.3000000715,7724,WL,C,5.0
4,25.789999961853027,learn,34210.00003814697,Fri Dec 12 2025 10:36:04 GMT-0600 (Central Standard Time),624219.7000000477,A,boy,O,y,470,1,2431.399999976158,621788.3000000715,7724,WL,C,5.0
4,26.806999921798706,learn,33193.000078201294,Fri Dec 12 2025 10:36:04 GMT-0600 (Central Standard Time),625236.8000000715,A,boyenter,O,enter,1014,1,3448.5,621788.3000000715,7724,WL,C,5.0
4,28.073999881744385,learn,31926.000118255615,Fri Dec 12 2025 10:36:04 GMT-0600 (Central Standard Time),626503.3999999762,A,h,O,h,1251,1,1266.3999999761581,625237.0,7724,WL,C,6.0
4,28.390999794006348,learn,31609.000205993652,Fri Dec 12 2025 10:36:04 GMT-0600 (Central Standard Time),626820.5,A,ho,O,o,301,1,1583.5,625237.0,7724,WL,C,6.0
4,28.79099988937378,learn,31209.00011062622,Fri Dec 12 2025 10:36:04 GMT-0600 (Central Standard Time),627220.5,A,hom,O,m,386,1,1983.5,625237.0,7724,WL,C,6.0
4,29.322999954223633,learn,30677.000045776367,Fri Dec 12 2025 10:36:04 GMT-0600 (Central Standard Time),627752.6000000238,A,home,O,e,513,1,2515.600000023842,625237.0,7724,WL,C,6.0
4,31.889999866485596,learn,28110.000133514404,Fri Dec 12 2025 10:36:04 GMT-0600 (Central Standard Time),630319.1000000238,A,homeenter,O,enter,2546,1,5082.100000023842,625237.0,7724,WL,C,6.0
4,36.23799991607666,learn,23762.00008392334,Fri Dec 12 2025 10:36:04 GMT-0600 (Central Standard Time),634667.1000000238,A,d,O,d,4335,1,4347.700000047684,630319.3999999762,7724,WL,C,7.0
4,36.47099995613098,learn,23529.00004386902,Fri Dec 12 2025 10:36:04 GMT-0600 (Central Standard Time),634900.3999999762,A,do,O,o,224,1,4581.0,630319.3999999762,7724,WL,C,7.0
4,36.78699994087219,learn,23213.000059127808,Fri Dec 12 2025 10:36:04 GMT-0600 (Central Standard Time),635216.8000000715,A,doc,O,c,297,1,4897.400000095367,630319.3999999762,7724,WL,C,7.0
4,37.32099986076355,learn,22679.00013923645,Fri Dec 12 2025 10:36:04 GMT-0600 (Central Standard Time),635750.3999999762,A,doct,O,t,515,1,5431.0,630319.3999999762,7724,WL,C,7.0
4,37.70599985122681,learn,22294.000148773193,Fri Dec 12 2025 10:36:04 GMT-0600 (Central Standard Time),636135.1000000238,A,docto,O,o,368,1,5815.700000047684,630319.3999999762,7724,WL,C,7.0
4,37.98799991607666,learn,22012.00008392334,Fri Dec 12 2025 10:36:04 GMT-0600 (Central Standard Time),636417.6000000238,A,doctor,O,r,269,1,6098.200000047684,630319.3999999762,7724,WL,C,7.0
4,41.9689998626709,learn,18031.0001373291,Fri Dec 12 2025 10:36:04 GMT-0600 (Central Standard Time),640398.8000000715,A,doctorenter,O,enter,3962,1,10079.400000095367,630319.3999999762,7724,WL,C,7.0
4,43.389999866485596,learn,16610.000133514404,Fri Dec 12 2025 10:36:04 GMT-0600 (Central Standard Time),641819.6000000238,A,c,O,c,1415,1,1420.5,640399.1000000238,7724,WL,C,8.0
4,43.668999910354614,learn,16331.000089645386,Fri Dec 12 2025 10:36:04 GMT-0600 (Central Standard Time),642097.8999999762,A,ca,O,a,266,1,1698.7999999523163,640399.1000000238,7724,WL,C,8.0
4,44.03499984741211,learn,15965.00015258789,Fri Dec 12 2025 10:36:04 GMT-0600 (Central Standard Time),642464.6000000238,A,cam,O,m,349,1,2065.5,640399.1000000238,7724,WL,C,8.0
4,44.63599991798401,learn,15364.000082015991,Fri Dec 12 2025 10:36:04 GMT-0600 (Central Standard Time),643065.3000000715,A,camp,O,p,589,1,2666.2000000476837,640399.1000000238,7724,WL,C,8.0
4,45.66699981689453,learn,14333.000183105469,Fri Dec 12 2025 10:36:04 GMT-0600 (Central Standard Time),644096.6000000238,A,campenter,O,enter,1020,1,3697.5,640399.1000000238,7724,WL,C,8.0
4,47.51899981498718,learn,12481.000185012817,Fri Dec 12 2025 10:36:04 GMT-0600 (Central Standard Time),645948.8000000715,A,f,O,f,1837,1,1851.9000000953674,644096.8999999762,7724,WL,C,9.0
4,47.75099992752075,learn,12249.000072479248,Fri Dec 12 2025 10:36:04 GMT-0600 (Central Standard Time),646180.7000000477,A,fl,O,l,224,1,2083.8000000715256,644096.8999999762,7724,WL,C,9.0
4,48.050999879837036,learn,11949.000120162964,Fri Dec 12 2025 10:36:04 GMT-0600 (Central Standard Time),646480.3000000715,A,fla,O,a,289,1,2383.4000000953674,644096.8999999762,7724,WL,C,9.0
4,48.91799998283386,learn,11082.000017166138,Fri Dec 12 2025 10:36:04 GMT-0600 (Central Standard Time),647347.0,A,flag,O,g,845,1,3250.100000023842,644096.8999999762,7724,WL,C,9.0
4,50.567999839782715,learn,9432.000160217285,Fri Dec 12 2025 10:36:04 GMT-0600 (Central Standard Time),648997.3999999762,A,flagenter,O,enter,1634,1,4900.5,644096.8999999762,7724,WL,C,9.0
4,59.86299991607666,learn,137.00008392333984,Fri Dec 12 2025 10:36:04 GMT-0600 (Central Standard Time),658293.1000000238,A,n,O,n,9291,1,9295.399999976158,648997.7000000477,7724,WL,C,10.0
4,60.013999938964844,learn,-13.99993896484375,Fri Dec 12 2025 10:36:04 GMT-0600 (Central Standard Time),658443.3999999762,A,nNone,O,None,145,1,9445.699999928474,648997.7000000477,7724,WL,C,10.0
5,2.315999984741211,learn,60000.0,Fri Dec 12 2025 10:36:04 GMT-0600 (Central Standard Time),732053.6000000238,A,t,O,t,2302,1,2316.600000023842,729737.0,7724,WL,C,1.0
5,2.683000087738037,learn,60000.0,Fri Dec 12 2025 10:36:04 GMT-0600 (Central Standard Time),732419.8999999762,A,to,O,o,352,1,2682.899999976158,729737.0,7724,WL,C,1.0
5,3.0829999446868896,learn,60000.0,Fri Dec 12 2025 10:36:04 GMT-0600 (Central Standard Time),732819.8000000715,A,tow,O,w,384,1,3082.8000000715256,729737.0,7724,WL,C,1.0
5,3.4489998817443848,learn,60000.0,Fri Dec 12 2025 10:36:04 GMT-0600 (Central Standard Time),733186.0,A,towe,O,e,354,1,3449.0,729737.0,7724,WL,C,1.0
5,3.5989999771118164,learn,60000.0,Fri Dec 12 2025 10:36:04 GMT-0600 (Central Standard Time),733336.3000000715,A,tower,O,r,132,1,3599.3000000715256,729737.0,7724,WL,C,1.0
5,4.898999929428101,learn,60000.0,Fri Dec 12 2025 10:36:04 GMT-0600 (Central Standard Time),734635.7000000477,A,towerenter,O,enter,1283,1,4898.700000047684,729737.0,7724,WL,C,1.0
5,6.815999984741211,learn,60000.0,Fri Dec 12 2025 10:36:04 GMT-0600 (Central Standard Time),736553.5,A,w,O,w,1898,1,1917.5,734636.0,7724,WL,C,2.0
5,7.0309998989105225,learn,60000.0,Fri Dec 12 2025 10:36:04 GMT-0600 (Central Standard Time),736768.3000000715,A,wh,O,h,198,1,2132.3000000715256,734636.0,7724,WL,C,2.0
5,7.299000024795532,learn,60000.0,Fri Dec 12 2025 10:36:04 GMT-0600 (Central Standard Time),737036.1000000238,A,whe,O,e,247,1,2400.100000023842,734636.0,7724,WL,C,2.0
5,7.596999883651733,learn,60000.0,Fri Dec 12 2025 10:36:04 GMT-0600 (Central Standard Time),737334.6000000238,A,whea,O,a,280,1,2698.600000023842,734636.0,7724,WL,C,2.0
5,7.914999961853027,learn,60000.0,Fri Dec 12 2025 10:36:04 GMT-0600 (Central Standard Time),737651.8999999762,A,wheat,O,t,300,1,3015.899999976158,734636.0,7724,WL,C,2.0
5,8.596999883651733,learn,60000.0,Fri Dec 12 2025 10:36:04 GMT-0600 (Central Standard Time),738334.3000000715,A,wheatenter,O,enter,664,1,3698.3000000715256,734636.0,7724,WL,C,2.0
5,9.846999883651733,learn,60000.0,Fri Dec 12 2025 10:36:04 GMT-0600 (Central Standard Time),739584.2000000477,A,q,O,q,1232,1,1249.7000000476837,738334.5,7724,WL,C,3.0
5,10.19700002670288,learn,60000.0,Fri Dec 12 2025 10:36:04 GMT-0600 (Central Standard Time),739934.0,A,qu,O,u,335,1,1599.5,738334.5,7724,WL,C,3.0
5,10.430000066757202,learn,60000.0,Fri Dec 12 2025 10:36:04 GMT-0600 (Central Standard Time),740167.0,A,que,O,e,215,1,1832.5,738334.5,7724,WL,C,3.0
5,10.713000059127808,learn,60000.0,Fri Dec 12 2025 10:36:04 GMT-0600 (Central Standard Time),740450.3999999762,A,quee,O,e,269,1,2115.899999976158,738334.5,7724,WL,C,3.0
5,11.11299991607666,learn,60000.0,Fri Dec 12 2025 10:36:04 GMT-0600 (Central Standard Time),740850.1000000238,A,queen,O,n,386,1,2515.600000023842,738334.5,7724,WL,C,3.0
5,11.88100004196167,learn,60000.0,Fri Dec 12 2025 10:36:04 GMT-0600 (Central Standard Time),741617.7000000477,A,queenenter,O,enter,748,1,3283.2000000476837,738334.5,7724,WL,C,3.0
5,14.078999996185303,learn,60000.0,Fri Dec 12 2025 10:36:04 GMT-0600 (Central Standard Time),743816.3000000715,A,s,O,s,2181,1,2198.4000000953674,741617.8999999762,7724,WL,C,4.0
5,14.279000043869019,learn,60000.0,Fri Dec 12 2025 10:36:04 GMT-0600 (Central Standard Time),744016.3999999762,A,su,O,u,188,1,2398.5,741617.8999999762,7724,WL,C,4.0
5,14.678999900817871,learn,60000.0,Fri Dec 12 2025 10:36:04 GMT-0600 (Central Standard Time),744415.8999999762,A,sug,O,g,388,1,2798.0,741617.8999999762,7724,WL,C,4.0
5,15.01200008392334,learn,60000.0,Fri Dec 12 2025 10:36:04 GMT-0600 (Central Standard Time),744749.3999999762,A,suga,O,a,311,1,3131.5,741617.8999999762,7724,WL,C,4.0
5,15.463000059127808,learn,60000.0,Fri Dec 12 2025 10:36:04 GMT-0600 (Central Standard Time),745200.1000000238,A,sugar,O,r,440,1,3582.2000000476837,741617.8999999762,7724,WL,C,4.0
5,16.211999893188477,learn,60000.0,Fri Dec 12 2025 10:36:04 GMT-0600 (Central Standard Time),745949.1000000238,A,sugarenter,O,enter,742,1,4331.200000047684,741617.8999999762,7724,WL,C,4.0
5,18.194000005722046,learn,60000.0,Fri Dec 12 2025 10:36:04 GMT-0600 (Central Standard Time),747930.8999999762,A,b,O,b,1973,1,1981.5,745949.3999999762,7724,WL,C,5.0
5,18.628000020980835,learn,60000.0,Fri Dec 12 2025 10:36:04 GMT-0600 (Central Standard Time),748365.3000000715,A,bo,O,o,429,1,2415.9000000953674,745949.3999999762,7724,WL,C,5.0
5,19.07800006866455,learn,60000.0,Fri Dec 12 2025 10:36:04 GMT-0600 (Central Standard Time),748815.5,A,boy,O,y,434,1,2866.100000023842,745949.3999999762,7724,WL,C,5.0
5,19.979000091552734,learn,60000.0,Fri Dec 12 2025 10:36:04 GMT-0600 (Central Standard Time),749715.7000000477,A,boyenter,O,enter,885,1,3766.3000000715256,745949.3999999762,7724,WL,C,5.0
5,21.776999950408936,learn,60000.0,Fri Dec 12 2025 10:36:04 GMT-0600 (Central Standard Time),751513.8999999762,A,d,O,d,1779,1,1798.0,749715.8999999762,7724,WL,C,6.0
5,22.158999919891357,learn,60000.0,Fri Dec 12 2025 10:36:04 GMT-0600 (Central Standard Time),751896.7000000477,A,do,O,o,364,1,2180.8000000715256,749715.8999999762,7724,WL,C,6.0
5,22.55900001525879,learn,60000.0,Fri Dec 12 2025 10:36:04 GMT-0600 (Central Standard Time),752296.1000000238,A,doc,O,c,389,1,2580.2000000476837,749715.8999999762,7724,WL,C,6.0
5,23.043999910354614,learn,60000.0,Fri Dec 12 2025 10:36:04 GMT-0600 (Central Standard Time),752780.8000000715,A,doct,O,t,470,1,3064.9000000953674,749715.8999999762,7724,WL,C,6.0
5,23.41000008583069,learn,60000.0,Fri Dec 12 2025 10:36:04 GMT-0600 (Central Standard Time),753147.3999999762,A,docto,O,o,354,1,3431.5,749715.8999999762,7724,WL,C,6.0
5,23.70899987220764,learn,60000.0,Fri Dec 12 2025 10:36:04 GMT-0600 (Central Standard Time),753446.7000000477,A,doctor,O,r,289,1,3730.8000000715256,749715.8999999762,7724,WL,C,6.0
5,25.158999919891357,learn,60000.0,Fri Dec 12 2025 10:36:04 GMT-0600 (Central Standard Time),754895.8000000715,A,doctorenter,O,enter,1438,1,5179.900000095367,749715.8999999762,7724,WL,C,6.0
5,26.241999864578247,learn,60000.0,Fri Dec 12 2025 10:36:04 GMT-0600 (Central Standard Time),755979.7000000477,A,c,O,c,1063,1,1083.6000000238419,754896.1000000238,7724,WL,C,7.0
5,26.625,learn,60000.0,Fri Dec 12 2025 10:36:04 GMT-0600 (Central Standard Time),756362.8000000715,A,ca,O,a,362,1,1466.7000000476837,754896.1000000238,7724,WL,C,7.0
5,27.092000007629395,learn,60000.0,Fri Dec 12 2025 10:36:04 GMT-0600 (Central Standard Time),756828.8000000715,A,cam,O,m,459,1,1932.7000000476837,754896.1000000238,7724,WL,C,7.0
5,27.575000047683716,learn,60000.0,Fri Dec 12 2025 10:36:04 GMT-0600 (Central Standard Time),757312.2000000477,A,camp,O,p,472,1,2416.100000023842,754896.1000000238,7724,WL,C,7.0
5,29.073999881744385,learn,60000.0,Fri Dec 12 2025 10:36:04 GMT-0600 (Central Standard Time),758811.6000000238,A,campenter,O,enter,1477,1,3915.5,754896.1000000238,7724,WL,C,7.0
5,29.941999912261963,learn,60000.0,Fri Dec 12 2025 10:36:04 GMT-0600 (Central Standard Time),759679.6000000238,A,f,O,f,853,1,867.7999999523163,758811.8000000715,7724,WL,C,8.0
5,30.491999864578247,learn,60000.0,Fri Dec 12 2025 10:36:04 GMT-0600 (Central Standard Time),760229.0,A,fl,O,l,534,1,1417.1999999284744,758811.8000000715,7724,WL,C,8.0
5,30.823999881744385,learn,60000.0,Fri Dec 12 2025 10:36:04 GMT-0600 (Central Standard Time),760561.1000000238,A,fla,O,a,311,1,1749.2999999523163,758811.8000000715,7724,WL,C,8.0
5,31.389999866485596,learn,60000.0,Fri Dec 12 2025 10:36:04 GMT-0600 (Central Standard Time),761127.3999999762,A,flag,O,g,547,1,2315.5999999046326,758811.8000000715,7724,WL,C,8.0
5,33.139999866485596,learn,60000.0,Fri Dec 12 2025 10:36:04 GMT-0600 (Central Standard Time),762877.3000000715,A,flagenter,O,enter,1744,1,4065.5,758811.8000000715,7724,WL,C,8.0
5,35.07200002670288,learn,60000.0,Fri Dec 12 2025 10:36:04 GMT-0600 (Central Standard Time),764809.1000000238,A,l,O,l,1914,1,1931.6000000238419,762877.5,7724,WL,C,9.0
5,35.32200002670288,learn,60000.0,Fri Dec 12 2025 10:36:04 GMT-0600 (Central Standard Time),765059.5,A,le,O,e,246,1,2182.0,762877.5,7724,WL,C,9.0
5,35.639999866485596,learn,60000.0,Fri Dec 12 2025 10:36:04 GMT-0600 (Central Standard Time),765376.8000000715,A,let,O,t,305,1,2499.3000000715256,762877.5,7724,WL,C,9.0
5,35.98699998855591,learn,60000.0,Fri Dec 12 2025 10:36:04 GMT-0600 (Central Standard Time),765724.5,A,lett,O,t,333,1,2847.0,762877.5,7724,WL,C,9.0
5,36.34100008010864,learn,60000.0,Fri Dec 12 2025 10:36:04 GMT-0600 (Central Standard Time),766078.3000000715,A,lette,O,e,338,1,3200.8000000715256,762877.5,7724,WL,C,9.0
5,36.5550000667572,learn,60000.0,Fri Dec 12 2025 10:36:04 GMT-0600 (Central Standard Time),766291.8999999762,A,letter,O,r,198,1,3414.399999976158,762877.5,7724,WL,C,9.0
5,37.473999977111816,learn,60000.0,Fri Dec 12 2025 10:36:04 GMT-0600 (Central Standard Time),767211.1000000238,A,letterenter,O,enter,896,1,4333.600000023842,762877.5,7724,WL,C,9.0
5,38.90400004386902,learn,60000.0,Fri Dec 12 2025 10:36:04 GMT-0600 (Central Standard Time),768641.3000000715,A,c,O,c,1419,1,1430.0,767211.3000000715,7724,WL,C,10.0
5,39.420000076293945,learn,60000.0,Fri Dec 12 2025 10:36:04 GMT-0600 (Central Standard Time),769157.3999999762,A,co,O,o,500,1,1946.0999999046326,767211.3000000715,7724,WL,C,10.0
5,39.70300006866455,learn,60000.0,Fri Dec 12 2025 10:36:04 GMT-0600 (Central Standard Time),769440.6000000238,A,cor,O,r,263,1,2229.2999999523163,767211.3000000715,7724,WL,C,10.0
5,40.28999996185303,learn,60000.0,Fri Dec 12 2025 10:36:04 GMT-0600 (Central Standard Time),770027.3999999762,A,corn,O,n,572,1,2816.0999999046326,767211.3000000715,7724,WL,C,10.0
5,41.08699989318848,learn,60000.0,Fri Dec 12 2025 10:36:04 GMT-0600 (Central Standard Time),770824.3000000715,A,cornenter,O,enter,779,1,3613.0,767211.3000000715,7724,WL,C,10.0
5,41.97000002861023,learn,60000.0,Fri Dec 12 2025 10:36:04 GMT-0600 (Central Standard Time),771707.2000000477,A,n,O,n,862,1,882.7000000476837,770824.5,7724,WL,C,11.0
5,42.40299987792969,learn,60000.0,Fri Dec 12 2025 10:36:04 GMT-0600 (Central Standard Time),772140.0,A,na,O,a,421,1,1315.5,770824.5,7724,WL,C,11.0
5,42.8199999332428,learn,60000.0,Fri Dec 12 2025 10:36:04 GMT-0600 (Central Standard Time),772557.1000000238,A,nai,O,i,400,1,1732.6000000238419,770824.5,7724,WL,C,11.0
5,43.25399994850159,learn,60000.0,Fri Dec 12 2025 10:36:04 GMT-0600 (Central Standard Time),772990.8999999762,A,nail,O,l,428,1,2166.399999976158,770824.5,7724,WL,C,11.0
5,44.585999965667725,learn,60000.0,Fri Dec 12 2025 10:36:04 GMT-0600 (Central Standard Time),774322.8999999762,A,nailenter,O,enter,1310,1,3498.399999976158,770824.5,7724,WL,C,11.0
5,45.401999950408936,learn,60000.0,Fri Dec 12 2025 10:36:04 GMT-0600 (Central Standard Time),775139.2000000477,A,c,O,c,796,1,816.0,774323.2000000477,7724,WL,C,12.0
5,45.70300006866455,learn,60000.0,Fri Dec 12 2025 10:36:04 GMT-0600 (Central Standard Time),775439.7000000477,A,ca,O,a,283,1,1116.5,774323.2000000477,7724,WL,C,12.0
5,46.019999980926514,learn,60000.0,Fri Dec 12 2025 10:36:04 GMT-0600 (Central Standard Time),775757.3999999762,A,cat,O,t,302,1,1434.1999999284744,774323.2000000477,7724,WL,C,12.0
5,46.401999950408936,learn,60000.0,Fri Dec 12 2025 10:36:04 GMT-0600 (Central Standard Time),776139.6000000238,A,catt,O,t,370,1,1816.3999999761581,774323.2000000477,7724,WL,C,12.0
5,47.08500003814697,learn,60000.0,Fri Dec 12 2025 10:36:04 GMT-0600 (Central Standard Time),776822.1000000238,A,cattl,O,l,665,1,2498.899999976158,774323.2000000477,7724,WL,C,12.0
5,47.45099997520447,learn,60000.0,Fri Dec 12 2025 10:36:04 GMT-0600 (Central Standard Time),777188.8000000715,A,cattle,O,e,348,1,2865.600000023842,774323.2000000477,7724,WL,C,12.0
5,48.88499999046326,learn,60000.0,Fri Dec 12 2025 10:36:04 GMT-0600 (Central Standard Time),778622.3000000715,A,cattleenter,O,enter,1413,1,4299.100000023842,774323.2000000477,7724,WL,C,12.0
5,52.99900007247925,learn,60000.0,Fri Dec 12 2025 10:36:04 GMT-0600 (Central Standard Time),782737.0,A,s,O,s,4104,1,4114.5,778622.5,7724,WL,C,13.0
5,53.21600008010864,learn,60000.0,Fri Dec 12 2025 10:36:04 GMT-0600 (Central Standard Time),782953.8000000715,A,sh,O,h,205,1,4331.300000071526,778622.5,7724,WL,C,13.0
5,53.486000061035156,learn,60000.0,Fri Dec 12 2025 10:36:04 GMT-0600 (Central Standard Time),783223.5,A,sho,O,o,242,1,4601.0,778622.5,7724,WL,C,13.0
5,53.882999897003174,learn,60000.0,Fri Dec 12 2025 10:36:04 GMT-0600 (Central Standard Time),783620.8000000715,A,shor,O,r,393,1,4998.300000071526,778622.5,7724,WL,C,13.0
5,54.06599998474121,learn,60000.0,Fri Dec 12 2025 10:36:04 GMT-0600 (Central Standard Time),783803.3999999762,A,shore,O,e,177,1,5180.899999976158,778622.5,7724,WL,C,13.0
5,55.36500000953674,learn,60000.0,Fri Dec 12 2025 10:36:04 GMT-0600 (Central Standard Time),785102.3999999762,A,shoreenter,O,enter,1290,1,6479.899999976158,778622.5,7724,WL,C,13.0
5,57.98099994659424,learn,60000.0,Fri Dec 12 2025 10:36:04 GMT-0600 (Central Standard Time),787718.2000000477,A,h,O,h,2609,1,2615.600000023842,785102.6000000238,7724,WL,C,14.0
5,58.14800000190735,learn,60000.0,Fri Dec 12 2025 10:36:04 GMT-0600 (Central Standard Time),787885.2000000477,A,ho,O,o,162,1,2782.600000023842,785102.6000000238,7724,WL,C,14.0
5,58.41499996185303,learn,60000.0,Fri Dec 12 2025 10:36:04 GMT-0600 (Central Standard Time),788152.3000000715,A,hom,O,m,247,1,3049.7000000476837,785102.6000000238,7724,WL,C,14.0
5,58.71499991416931,learn,60000.0,Fri Dec 12 2025 10:36:04 GMT-0600 (Central Standard Time),788453.0,A,home,O,e,278,1,3350.399999976158,785102.6000000238,7724,WL,C,14.0
5,59.48199987411499,learn,60000.0,Fri Dec 12 2025 10:36:04 GMT-0600 (Central Standard Time),789219.8999999762,A,homeenter,O,enter,744,1,4117.299999952316,785102.6000000238,7724,WL,C,14.0
5,63.52900004386902,learn,60000.0,Fri Dec 12 2025 10:36:04 GMT-0600 (Central Standard Time),793266.8000000715,A,enter,O,enter,4027,1,4046.600000023842,789220.2000000477,7724,WL,C,15.0
6,7.981000185012817,distr,52018.99981498718,Fri Dec 12 2025 10:36:04 GMT-0600 (Central Standard Time),902849.0,B,s,O,s,7966,1,7980.699999928474,894868.3000000715,7724,WL,C,1.0
6,8.164000034332275,distr,51835.999965667725,Fri Dec 12 2025 10:36:04 GMT-0600 (Central Standard Time),903032.3999999762,B,sk,O,k,173,1,8164.099999904633,894868.3000000715,7724,WL,C,1.0
6,8.64900016784668,distr,51350.99983215332,Fri Dec 12 2025 10:36:04 GMT-0600 (Central Standard Time),903517.0,B,sky,O,y,477,1,8648.699999928474,894868.3000000715,7724,WL,C,1.0
6,9.297000169754028,distr,50702.99983024597,Fri Dec 12 2025 10:36:04 GMT-0600 (Central Standard Time),904165.6000000238,B,skyenter,O,enter,641,1,9297.299999952316,894868.3000000715,7724,WL,C,1.0
6,10.46399998664856,distr,49536.00001335144,Fri Dec 12 2025 10:36:04 GMT-0600 (Central Standard Time),905331.8999999762,B,b,O,b,1154,1,1166.0999999046326,904165.8000000715,7724,WL,C,2.0
6,11.047000169754028,distr,48952.99983024597,Fri Dec 12 2025 10:36:04 GMT-0600 (Central Standard Time),905915.1000000238,B,bu,O,u,561,1,1749.2999999523163,904165.8000000715,7724,WL,C,2.0
6,11.28000020980835,distr,48719.99979019165,Fri Dec 12 2025 10:36:04 GMT-0600 (Central Standard Time),906148.1000000238,B,but,O,t,225,1,1982.2999999523163,904165.8000000715,7724,WL,C,2.0
6,11.546000003814697,distr,48453.9999961853,Fri Dec 12 2025 10:36:04 GMT-0600 (Central Standard Time),906414.0,B,butt,O,t,258,1,2248.1999999284744,904165.8000000715,7724,WL,C,2.0
6,11.896000146865845,distr,48103.999853134155,Fri Dec 12 2025 10:36:04 GMT-0600 (Central Standard Time),906764.3000000715,B,butte,O,e,328,1,2598.5,904165.8000000715,7724,WL,C,2.0
6,12.014000177383423,distr,47985.99982261658,Fri Dec 12 2025 10:36:04 GMT-0600 (Central Standard Time),906882.1000000238,B,butter,O,r,98,1,2716.2999999523163,904165.8000000715,7724,WL,C,2.0
6,13.296000003814697,distr,46703.9999961853,Fri Dec 12 2025 10:36:04 GMT-0600 (Central Standard Time),908164.6000000238,B,butterenter,O,enter,1258,1,3998.7999999523163,904165.8000000715,7724,WL,C,2.0
6,18.711000204086304,distr,41288.999795913696,Fri Dec 12 2025 10:36:04 GMT-0600 (Central Standard Time),913579.0,B,d,O,d,5394,1,5414.100000023842,908164.8999999762,7724,WL,C,3.0
6,18.89400005340576,distr,41105.99994659424,Fri Dec 12 2025 10:36:04 GMT-0600 (Central Standard Time),913761.8999999762,B,di,O,i,169,1,5597.0,908164.8999999762,7724,WL,C,3.0
6,19.111000061035156,distr,40888.999938964844,Fri Dec 12 2025 10:36:04 GMT-0600 (Central Standard Time),913978.8999999762,B,dia,O,a,196,1,5814.0,908164.8999999762,7724,WL,C,3.0
6,19.461000204086304,distr,40538.999795913696,Fri Dec 12 2025 10:36:04 GMT-0600 (Central Standard Time),914329.2000000477,B,diam,O,m,338,1,6164.300000071526,908164.8999999762,7724,WL,C,3.0
6,19.811000108718872,distr,40188.99989128113,Fri Dec 12 2025 10:36:04 GMT-0600 (Central Standard Time),914679.3000000715,B,diamo,O,o,334,1,6514.400000095367,908164.8999999762,7724,WL,C,3.0
6,19.9280002117157,distr,40071.9997882843,Fri Dec 12 2025 10:36:04 GMT-0600 (Central Standard Time),914796.1000000238,B,diamon,O,n,101,1,6631.200000047684,908164.8999999762,7724,WL,C,3.0
6,20.243000030517578,distr,39756.99996948242,Fri Dec 12 2025 10:36:04 GMT-0600 (Central Standard Time),915111.6000000238,B,diamond,O,d,298,1,6946.700000047684,908164.8999999762,7724,WL,C,3.0
6,20.593000173568726,distr,39406.999826431274,Fri Dec 12 2025 10:36:04 GMT-0600 (Central Standard Time),915461.5,B,diamondenter,O,enter,334,1,7296.600000023842,908164.8999999762,7724,WL,C,3.0
6,27.94099998474121,distr,32059.00001525879,Fri Dec 12 2025 10:36:04 GMT-0600 (Central Standard Time),922809.0,B,f,O,f,7336,1,7347.199999928474,915461.8000000715,7724,WL,C,4.0
6,28.325000047683716,distr,31674.999952316284,Fri Dec 12 2025 10:36:04 GMT-0600 (Central Standard Time),923193.0,B,fl,O,l,365,1,7731.199999928474,915461.8000000715,7724,WL,C,4.0
6,28.507000207901,distr,31492.999792099,Fri Dec 12 2025 10:36:04 GMT-0600 (Central Standard Time),923375.1000000238,B,fla,O,a,173,1,7913.299999952316,915461.8000000715,7724,WL,C,4.0
6,28.891000032424927,distr,31108.999967575073,Fri Dec 12 2025 10:36:04 GMT-0600 (Central Standard Time),923759.0,B,flat,O,t,366,1,8297.199999928474,915461.8000000715,7724,WL,C,4.0
6,29.290000200271606,distr,30709.999799728394,Fri Dec 12 2025 10:36:04 GMT-0600 (Central Standard Time),924158.3999999762,B,flatenter,O,enter,390,1,8696.599999904633,915461.8000000715,7724,WL,C,4.0
6,34.640000104904175,distr,25359.999895095825,Fri Dec 12 2025 10:36:04 GMT-0600 (Central Standard Time),929508.3999999762,B,b,O,b,5345,1,5349.799999952316,924158.6000000238,7724,WL,C,5.0
6,36.90300011634827,distr,23096.999883651733,Fri Dec 12 2025 10:36:04 GMT-0600 (Central Standard Time),931771.8000000715,B,,O,backspace,2249,1,7613.200000047684,924158.6000000238,7724,WL,C,5.0
6,40.93600010871887,distr,19063.999891281128,Fri Dec 12 2025 10:36:04 GMT-0600 (Central Standard Time),935804.3000000715,B,n,O,n,4020,1,11645.700000047684,924158.6000000238,7724,WL,C,5.0
6,41.420000076293945,distr,18579.999923706055,Fri Dec 12 2025 10:36:04 GMT-0600 (Central Standard Time),936288.1000000238,B,na,O,a,474,1,12129.5,924158.6000000238,7724,WL,C,5.0
6,41.55400013923645,distr,18445.99986076355,Fri Dec 12 2025 10:36:04 GMT-0600 (Central Standard Time),936422.2000000477,B,nai,O,i,129,1,12263.600000023842,924158.6000000238,7724,WL,C,5.0
6,41.72200012207031,distr,18277.999877929688,Fri Dec 12 2025 10:36:04 GMT-0600 (Central Standard Time),936589.8000000715,B,nail,O,l,151,1,12431.200000047684,924158.6000000238,7724,WL,C,5.0
6,42.20300006866455,distr,17796.99993133545,Fri Dec 12 2025 10:36:04 GMT-0600 (Central Standard Time),937070.8999999762,B,nailenter,O,enter,474,1,12912.299999952316,924158.6000000238,7724,WL,C,5.0
6,53.05000019073486,distr,6949.999809265137,Fri Dec 12 2025 10:36:04 GMT-0600 (Central Standard Time),947918.0,B,c,O,c,10844,1,10847.0,937071.0,7724,WL,C,6.0
6,53.52400016784668,distr,6475.99983215332,Fri Dec 12 2025 10:36:04 GMT-0600 (Central Standard Time),948392.3000000715,B,co,O,o,456,1,11321.300000071526,937071.0,7724,WL,C,6.0
6,54.01600003242493,distr,5983.999967575073,Fri Dec 12 2025 10:36:04 GMT-0600 (Central Standard Time),948883.8000000715,B,cof,O,f,479,1,11812.800000071526,937071.0,7724,WL,C,6.0
6,54.26600003242493,distr,5733.999967575073,Fri Dec 12 2025 10:36:04 GMT-0600 (Central Standard Time),949134.3999999762,B,coff,O,f,243,1,12063.399999976158,937071.0,7724,WL,C,6.0
6,54.49900007247925,distr,5500.999927520752,Fri Dec 12 2025 10:36:04 GMT-0600 (Central Standard Time),949367.2000000477,B,coffi,O,i,224,1,12296.200000047684,937071.0,7724,WL,C,6.0
6,54.6010000705719,distr,5398.999929428101,Fri Dec 12 2025 10:36:04 GMT-0600 (Central Standard Time),949469.3999999762,B,coffin,O,n,80,1,12398.399999976158,937071.0,7724,WL,C,6.0
6,54.915000200271606,distr,5084.999799728394,Fri Dec 12 2025 10:36:04 GMT-0600 (Central Standard Time),949783.6000000238,B,coffinenter,O,enter,296,1,12712.600000023842,937071.0,7724,WL,C,6.0
6,60.015000104904175,distr,-15.000104904174805,Fri Dec 12 2025 10:36:04 GMT-0600 (Central Standard Time),954883.8000000715,B,None,O,None,5094,1,5099.900000095367,949783.8999999762,7724,WL,C,7.0
7,2.1499998569488525,immed,57850.00014305115,Fri Dec 12 2025 10:36:04 GMT-0600 (Central Standard Time),981407.6000000238,A,t,O,t,2132,1,2150.100000023842,979257.5,7724,WL,C,1.0
7,2.7990000247955322,immed,57200.99997520447,Fri Dec 12 2025 10:36:04 GMT-0600 (Central Standard Time),982056.7000000477,A,to,O,o,630,1,2799.2000000476837,979257.5,7724,WL,C,1.0
7,3.132999897003174,immed,56867.000102996826,Fri Dec 12 2025 10:36:04 GMT-0600 (Central Standard Time),982390.3000000715,A,tow,O,w,317,1,3132.8000000715256,979257.5,7724,WL,C,1.0
7,3.4159998893737793,immed,56584.00011062622,Fri Dec 12 2025 10:36:04 GMT-0600 (Central Standard Time),982674.1000000238,A,towe,O,e,273,1,3416.600000023842,979257.5,7724,WL,C,1.0
7,3.5329999923706055,immed,56467.000007629395,Fri Dec 12 2025 10:36:04 GMT-0600 (Central Standard Time),982790.3000000715,A,tower,O,r,108,1,3532.8000000715256,979257.5,7724,WL,C,1.0
7,6.830999851226807,immed,53169.00014877319,Fri Dec 12 2025 10:36:04 GMT-0600 (Central Standard Time),986089.0,A,towe,O,backspace,3279,1,6831.5,979257.5,7724,WL,C,1.0
7,7.681999921798706,immed,52318.000078201294,Fri Dec 12 2025 10:36:04 GMT-0600 (Central Standard Time),986939.8000000715,A,tower,O,r,838,1,7682.300000071526,979257.5,7724,WL,C,1.0
7,8.047999858856201,immed,51952.0001411438,Fri Dec 12 2025 10:36:04 GMT-0600 (Central Standard Time),987305.2000000477,A,towerenter,O,enter,354,1,8047.700000047684,979257.5,7724,WL,C,1.0
7,9.712999820709229,immed,50287.00017929077,Fri Dec 12 2025 10:36:04 GMT-0600 (Central Standard Time),988970.8999999762,A,w,O,w,1654,1,1665.3999999761581,987305.5,7724,WL,C,2.0
7,9.980000019073486,immed,50019.999980926514,Fri Dec 12 2025 10:36:04 GMT-0600 (Central Standard Time),989237.7000000477,A,wh,O,h,260,1,1932.2000000476837,987305.5,7724,WL,C,2.0
7,10.648000001907349,immed,49351.99999809265,Fri Dec 12 2025 10:36:04 GMT-0600 (Central Standard Time),989906.1000000238,A,whe,O,e,648,1,2600.600000023842,987305.5,7724,WL,C,2.0
7,10.962999820709229,immed,49037.00017929077,Fri Dec 12 2025 10:36:04 GMT-0600 (Central Standard Time),990220.6000000238,A,whea,O,a,297,1,2915.100000023842,987305.5,7724,WL,C,2.0
7,11.214999914169312,immed,48785.00008583069,Fri Dec 12 2025 10:36:04 GMT-0600 (Central Standard Time),990472.3000000715,A,wheat,O,t,232,1,3166.8000000715256,987305.5,7724,WL,C,2.0
7,12.88100004196167,immed,47118.99995803833,Fri Dec 12 2025 10:36:04 GMT-0600 (Central Standard Time),992139.0,A,wheatenter,O,enter,1661,1,4833.5,987305.5,7724,WL,C,2.0
7,14.894999980926514,immed,45105.000019073486,Fri Dec 12 2025 10:36:04 GMT-0600 (Central Standard Time),994152.8000000715,A,q,O,q,1995,1,2013.6000000238419,992139.2000000477,7724,WL,C,3.0
7,15.19700002670288,immed,44802.99997329712,Fri Dec 12 2025 10:36:04 GMT-0600 (Central Standard Time),994454.5,A,qu,O,u,282,1,2315.2999999523163,992139.2000000477,7724,WL,C,3.0
7,15.478999853134155,immed,44521.000146865845,Fri Dec 12 2025 10:36:04 GMT-0600 (Central Standard Time),994736.6000000238,A,que,O,e,262,1,2597.399999976158,992139.2000000477,7724,WL,C,3.0
7,15.71399998664856,immed,44286.00001335144,Fri Dec 12 2025 10:36:04 GMT-0600 (Central Standard Time),994971.3000000715,A,quee,O,e,220,1,2832.100000023842,992139.2000000477,7724,WL,C,3.0
7,15.978999853134155,immed,44021.000146865845,Fri Dec 12 2025 10:36:04 GMT-0600 (Central Standard Time),995236.6000000238,A,queen,O,n,257,1,3097.399999976158,992139.2000000477,7724,WL,C,3.0
7,17.227999925613403,immed,42772.0000743866,Fri Dec 12 2025 10:36:04 GMT-0600 (Central Standard Time),996485.6000000238,A,queenenter,O,enter,1240,1,4346.399999976158,992139.2000000477,7724,WL,C,3.0
7,18.76099991798401,immed,41239.00008201599,Fri Dec 12 2025 10:36:04 GMT-0600 (Central Standard Time),998018.3999999762,A,s,O,s,1513,1,1532.5999999046326,996485.8000000715,7724,WL,C,4.0
7,19.01099991798401,immed,40989.00008201599,Fri Dec 12 2025 10:36:04 GMT-0600 (Central Standard Time),998268.7000000477,A,su,O,u,242,1,1782.8999999761581,996485.8000000715,7724,WL,C,4.0
7,19.460999965667725,immed,40539.000034332275,Fri Dec 12 2025 10:36:04 GMT-0600 (Central Standard Time),998718.7000000477,A,sug,O,g,431,1,2232.899999976158,996485.8000000715,7724,WL,C,4.0
7,20.01099991798401,immed,39989.00008201599,Fri Dec 12 2025 10:36:04 GMT-0600 (Central Standard Time),999268.3000000715,A,suga,O,a,541,1,2782.5,996485.8000000715,7724,WL,C,4.0
7,20.32699990272522,immed,39673.00009727478,Fri Dec 12 2025 10:36:04 GMT-0600 (Central Standard Time),999584.6000000238,A,sugar,O,r,304,1,3098.7999999523163,996485.8000000715,7724,WL,C,4.0
7,21.243000030517578,immed,38756.99996948242,Fri Dec 12 2025 10:36:04 GMT-0600 (Central Standard Time),1000500.8000000715,A,sugarenter,O,enter,907,1,4015.0,996485.8000000715,7724,WL,C,4.0
7,22.658999919891357,immed,37341.00008010864,Fri Dec 12 2025 10:36:04 GMT-0600 (Central Standard Time),1001917.1000000238,A,b,O,b,1401,1,1416.0,1000501.1000000238,7724,WL,C,5.0
7,23.32699990272522,immed,36673.00009727478,Fri Dec 12 2025 10:36:04 GMT-0600 (Central Standard Time),1002584.7000000477,A,bo,O,o,645,1,2083.600000023842,1000501.1000000238,7724,WL,C,5.0
7,23.759999990463257,immed,36240.00000953674,Fri Dec 12 2025 10:36:04 GMT-0600 (Central Standard Time),1003017.5,A,boy,O,y,420,1,2516.399999976158,1000501.1000000238,7724,WL,C,5.0
7,25.557999849319458,immed,34442.00015068054,Fri Dec 12 2025 10:36:04 GMT-0600 (Central Standard Time),1004815.6000000238,A,boyenter,O,enter,1787,1,4314.5,1000501.1000000238,7724,WL,C,5.0
7,28.990999937057495,immed,31009.000062942505,Fri Dec 12 2025 10:36:04 GMT-0600 (Central Standard Time),1008248.6000000238,A,d,O,d,3416,1,3432.7999999523163,1004815.8000000715,7724,WL,C,6.0
7,29.35800004005432,immed,30641.99995994568,Fri Dec 12 2025 10:36:04 GMT-0600 (Central Standard Time),1008615.3999999762,A,do,O,o,345,1,3799.5999999046326,1004815.8000000715,7724,WL,C,6.0
7,29.68999981880188,immed,30310.00018119812,Fri Dec 12 2025 10:36:04 GMT-0600 (Central Standard Time),1008947.8999999762,A,doc,O,c,317,1,4132.099999904633,1004815.8000000715,7724,WL,C,6.0
7,30.22499990463257,immed,29775.00009536743,Fri Dec 12 2025 10:36:04 GMT-0600 (Central Standard Time),1009482.3000000715,A,doct,O,t,520,1,4666.5,1004815.8000000715,7724,WL,C,6.0
7,30.68999981880188,immed,29310.00018119812,Fri Dec 12 2025 10:36:04 GMT-0600 (Central Standard Time),1009947.7000000477,A,docto,O,o,450,1,5131.899999976158,1004815.8000000715,7724,WL,C,6.0
7,30.93999981880188,immed,29060.00018119812,Fri Dec 12 2025 10:36:04 GMT-0600 (Central Standard Time),1010198.1000000238,A,doctor,O,r,241,1,5382.299999952316,1004815.8000000715,7724,WL,C,6.0
7,31.506999969482422,immed,28493.000030517578,Fri Dec 12 2025 10:36:04 GMT-0600 (Central Standard Time),1010764.6000000238,A,doctorenter,O,enter,549,1,5948.799999952316,1004815.8000000715,7724,WL,C,6.0
7,32.50699996948242,immed,27493.000030517578,Fri Dec 12 2025 10:36:04 GMT-0600 (Central Standard Time),1011764.3999999762,A,c,O,c,978,1,999.5,1010764.8999999762,7724,WL,C,7.0
7,33.121999979019165,immed,26878.000020980835,Fri Dec 12 2025 10:36:04 GMT-0600 (Central Standard Time),1012380.1000000238,A,ca,O,a,600,1,1615.2000000476837,1010764.8999999762,7724,WL,C,7.0
7,33.37299990653992,immed,26627.000093460083,Fri Dec 12 2025 10:36:04 GMT-0600 (Central Standard Time),1012630.3000000715,A,cam,O,m,233,1,1865.4000000953674,1010764.8999999762,7724,WL,C,7.0
7,34.02300000190735,immed,25976.99999809265,Fri Dec 12 2025 10:36:04 GMT-0600 (Central Standard Time),1013280.6000000238,A,camp,O,p,630,1,2515.7000000476837,1010764.8999999762,7724,WL,C,7.0
7,35.07200002670288,immed,24927.99997329712,Fri Dec 12 2025 10:36:04 GMT-0600 (Central Standard Time),1014330.1000000238,A,campenter,O,enter,1029,1,3565.2000000476837,1010764.8999999762,7724,WL,C,7.0
7,36.67199993133545,immed,23328.00006866455,Fri Dec 12 2025 10:36:04 GMT-0600 (Central Standard Time),1015929.6000000238,A,f,O,f,1580,1,1599.2999999523163,1014330.3000000715,7724,WL,C,8.0
7,37.00499987602234,immed,22995.00012397766,Fri Dec 12 2025 10:36:04 GMT-0600 (Central Standard Time),1016262.7000000477,A,fl,O,l,315,1,1932.3999999761581,1014330.3000000715,7724,WL,C,8.0
7,37.355000019073486,immed,22644.999980926514,Fri Dec 12 2025 10:36:04 GMT-0600 (Central Standard Time),1016613.5,A,fla,O,a,343,1,2283.1999999284744,1014330.3000000715,7724,WL,C,8.0
7,38.437999963760376,immed,21562.000036239624,Fri Dec 12 2025 10:36:04 GMT-0600 (Central Standard Time),1017696.1000000238,A,flag,O,g,1068,1,3365.7999999523163,1014330.3000000715,7724,WL,C,8.0
7,39.8529999256134,immed,20147.000074386597,Fri Dec 12 2025 10:36:04 GMT-0600 (Central Standard Time),1019111.3999999762,A,flagenter,O,enter,1397,1,4781.099999904633,1014330.3000000715,7724,WL,C,8.0
7,42.9539999961853,immed,17046.000003814697,Fri Dec 12 2025 10:36:04 GMT-0600 (Central Standard Time),1022211.7000000477,A,l,O,l,3091,1,3100.2000000476837,1019111.5,7724,WL,C,9.0
7,43.47000002861023,immed,16529.99997138977,Fri Dec 12 2025 10:36:04 GMT-0600 (Central Standard Time),1022728.1000000238,A,le,O,e,495,1,3616.600000023842,1019111.5,7724,WL,C,9.0
7,43.770999908447266,immed,16229.000091552734,Fri Dec 12 2025 10:36:04 GMT-0600 (Central Standard Time),1023028.6000000238,A,let,O,t,278,1,3917.100000023842,1019111.5,7724,WL,C,9.0
7,44.085999965667725,immed,15914.000034332275,Fri Dec 12 2025 10:36:04 GMT-0600 (Central Standard Time),1023343.8000000715,A,lett,O,t,305,1,4232.300000071526,1019111.5,7724,WL,C,9.0
7,44.45199990272522,immed,15548.00009727478,Fri Dec 12 2025 10:36:04 GMT-0600 (Central Standard Time),1023710.3999999762,A,lette,O,e,360,1,4598.899999976158,1019111.5,7724,WL,C,9.0
7,44.651999950408936,immed,15348.000049591064,Fri Dec 12 2025 10:36:04 GMT-0600 (Central Standard Time),1023910.3999999762,A,letter,O,r,195,1,4798.899999976158,1019111.5,7724,WL,C,9.0
7,45.11800003051758,immed,14881.999969482422,Fri Dec 12 2025 10:36:04 GMT-0600 (Central Standard Time),1024376.3999999762,A,letterenter,O,enter,447,1,5264.899999976158,1019111.5,7724,WL,C,9.0
7,46.55199980735779,immed,13448.000192642212,Fri Dec 12 2025 10:36:04 GMT-0600 (Central Standard Time),1025809.8000000715,A,c,O,c,1425,1,1433.2000000476837,1024376.6000000238,7724,WL,C,10.0
7,47.03499984741211,immed,12965.00015258789,Fri Dec 12 2025 10:36:04 GMT-0600 (Central Standard Time),1026293.1000000238,A,co,O,o,463,1,1916.5,1024376.6000000238,7724,WL,C,10.0
7,47.300999879837036,immed,12699.000120162964,Fri Dec 12 2025 10:36:04 GMT-0600 (Central Standard Time),1026559.3000000715,A,cor,O,r,248,1,2182.7000000476837,1024376.6000000238,7724,WL,C,10.0
7,48.151000022888184,immed,11848.999977111816,Fri Dec 12 2025 10:36:04 GMT-0600 (Central Standard Time),1027409.2000000477,A,corn,O,n,839,1,3032.600000023842,1024376.6000000238,7724,WL,C,10.0
7,49.633999824523926,immed,10366.000175476074,Fri Dec 12 2025 10:36:04 GMT-0600 (Central Standard Time),1028892.0,A,cornenter,O,enter,1469,1,4515.399999976158,1024376.6000000238,7724,WL,C,10.0
7,51.18299984931946,immed,8817.000150680542,Fri Dec 12 2025 10:36:04 GMT-0600 (Central Standard Time),1030441.5,A,n,O,n,1538,1,1549.1000000238419,1028892.3999999762,7724,WL,C,11.0
7,51.61800003051758,immed,8381.999969482422,Fri Dec 12 2025 10:36:04 GMT-0600 (Central Standard Time),1030875.6000000238,A,na,O,a,422,1,1983.2000000476837,1028892.3999999762,7724,WL,C,11.0
7,51.799999952316284,immed,8200.000047683716,Fri Dec 12 2025 10:36:04 GMT-0600 (Central Standard Time),1031058.0,A,nai,O,i,169,1,2165.600000023842,1028892.3999999762,7724,WL,C,11.0
7,52.01799988746643,immed,7982.000112533569,Fri Dec 12 2025 10:36:04 GMT-0600 (Central Standard Time),1031276.0,A,nail,O,l,196,1,2383.600000023842,1028892.3999999762,7724,WL,C,11.0
7,53.848999977111816,immed,6151.000022888184,Fri Dec 12 2025 10:36:04 GMT-0600 (Central Standard Time),1033107.3000000715,A,nailenter,O,enter,1818,1,4214.900000095367,1028892.3999999762,7724,WL,C,11.0
7,54.56599998474121,immed,5434.000015258789,Fri Dec 12 2025 10:36:04 GMT-0600 (Central Standard Time),1033823.8000000715,A,c,O,c,699,1,716.2000000476837,1033107.6000000238,7724,WL,C,12.0
7,54.91699981689453,immed,5083.000183105469,Fri Dec 12 2025 10:36:04 GMT-0600 (Central Standard Time),1034174.8000000715,A,ca,O,a,342,1,1067.2000000476837,1033107.6000000238,7724,WL,C,12.0
7,55.299999952316284,immed,4700.000047683716,Fri Dec 12 2025 10:36:04 GMT-0600 (Central Standard Time),1034558.0,A,cat,O,t,375,1,1450.3999999761581,1033107.6000000238,7724,WL,C,12.0
7,55.764999866485596,immed,4235.000133514404,Fri Dec 12 2025 10:36:04 GMT-0600 (Central Standard Time),1035023.5,A,catt,O,t,454,1,1915.8999999761581,1033107.6000000238,7724,WL,C,12.0
7,56.597999811172485,immed,3402.0001888275146,Fri Dec 12 2025 10:36:04 GMT-0600 (Central Standard Time),1035856.3999999762,A,cattl,O,l,812,1,2748.7999999523163,1033107.6000000238,7724,WL,C,12.0
7,57.06599998474121,immed,2934.000015258789,Fri Dec 12 2025 10:36:04 GMT-0600 (Central Standard Time),1036323.7000000477,A,cattle,O,e,460,1,3216.100000023842,1033107.6000000238,7724,WL,C,12.0
7,58.41499996185303,immed,1585.0000381469727,Fri Dec 12 2025 10:36:04 GMT-0600 (Central Standard Time),1037672.7000000477,A,cattleenter,O,enter,1338,1,4565.100000023842,1033107.6000000238,7724,WL,C,12.0
7,60.013999938964844,immed,-13.99993896484375,Fri Dec 12 2025 10:36:04 GMT-0600 (Central Standard Time),1039272.0,A,None,O,None,1594,1,1599.1000000238419,1037672.8999999762,7724,WL,C,13.0
