acc_sum,block,block_c,change,condition,correct,correct_response,datetime,endtime,face,project,response,response_time,row_sel,session_number,start_end,starttime,subject_id,task,task_vers,trial
0,prac,1,,1-Back,,,Fri Dec 12 2025 13:52:27 GMT-0600 (Central Standard Time),,093_m_f_n_a.png,O,space,3627,1,1,,,7707,NNB,C,0
1,prac,1,0.0,1-Back,1.0,m,Fri Dec 12 2025 13:52:27 GMT-0600 (Central Standard Time),162329.09999990463,098_y_f_n_a.png,O,m,847,2,1,1680.3999999761581,160648.69999992847,7707,NNB,C,1
1,prac,1,1.0,1-Back,0.0,z,Fri Dec 12 2025 13:52:27 GMT-0600 (Central Standard Time),165110.79999995232,098_y_f_n_a.png,O,None,2005,3,1,2772.600000023842,162338.19999992847,7707,NNB,C,2
2,prac,1,0.0,1-Back,1.0,m,Fri Dec 12 2025 13:52:27 GMT-0600 (Central Standard Time),166893.19999992847,059_o_m_n_a.png,O,m,924,4,1,1772.2999999523163,165120.89999997616,7707,NNB,C,3
3,prac,1,0.0,1-Back,1.0,m,Fri Dec 12 2025 13:52:27 GMT-0600 (Central Standard Time),168710.09999990463,092_m_m_n_a.png,O,m,963,5,1,1808.3999999761581,166901.69999992847,7707,NNB,C,4
3,prac,1,1.0,1-Back,0.0,z,Fri Dec 12 2025 13:52:27 GMT-0600 (Central Standard Time),171493.29999995232,092_m_m_n_a.png,O,None,2007,6,1,2774.399999976158,168718.89999997616,7707,NNB,C,5
3,prac,1,0.0,1-Back,0.0,m,Fri Dec 12 2025 13:52:27 GMT-0600 (Central Standard Time),174356.39999997616,130_o_f_n_a.png,O,None,2004,7,1,2853.899999976158,171502.5,7707,NNB,C,6
4,prac,1,0.0,1-Back,1.0,m,Fri Dec 12 2025 13:52:27 GMT-0600 (Central Standard Time),176073.59999990463,082_m_m_n_a.png,O,m,864,8,1,1712.2999999523163,174361.29999995232,7707,NNB,C,7
4,prac,1,0.0,1-Back,0.0,m,Fri Dec 12 2025 13:52:27 GMT-0600 (Central Standard Time),178857.29999995232,093_m_f_n_a.png,O,None,2005,9,1,2774.0,176083.29999995232,7707,NNB,C,8
4,prac,1,1.0,1-Back,0.0,z,Fri Dec 12 2025 13:52:27 GMT-0600 (Central Standard Time),179624.0,093_m_f_n_a.png,O,m,1,10,1,756.9000000953674,178867.09999990463,7707,NNB,C,9
4,prac,1,0.0,1-Back,0.0,m,Fri Dec 12 2025 13:52:27 GMT-0600 (Central Standard Time),182404.79999995232,059_o_m_n_a.png,O,None,2007,11,1,2772.899999976158,179631.89999997616,7707,NNB,C,10
4,prac,1,0.0,1-Back,0.0,m,Fri Dec 12 2025 13:52:27 GMT-0600 (Central Standard Time),185253.69999992847,028_y_f_n_a.png,O,None,2007,12,1,2840.600000023842,182413.09999990463,7707,NNB,C,11
0,test,1,0.0,1-Back,,,Fri Dec 12 2025 13:52:27 GMT-0600 (Central Standard Time),185253.69999992847,098_y_f_n_a.png,O,space,5100,1,1,2840.600000023842,182413.09999990463,7707,NNB,C,0
0,test,1,0.0,1-Back,0.0,m,Fri Dec 12 2025 13:52:27 GMT-0600 (Central Standard Time),234887.69999992847,006_m_f_n_a.png,O,z,756,2,1,1773.3999999761581,233114.29999995232,7707,NNB,C,1
0,test,1,0.0,1-Back,0.0,m,Fri Dec 12 2025 13:52:27 GMT-0600 (Central Standard Time),237921.19999992847,028_y_f_n_a.png,O,None,2015,3,1,3030.899999976158,234890.29999995232,7707,NNB,C,2
0,test,1,1.0,1-Back,0.0,z,Fri Dec 12 2025 13:52:27 GMT-0600 (Central Standard Time),240053.29999995232,028_y_f_n_a.png,O,m,1110,4,1,2125.600000023842,237927.69999992847,7707,NNB,C,3
0,test,1,0.0,1-Back,0.0,m,Fri Dec 12 2025 13:52:27 GMT-0600 (Central Standard Time),242619.5,006_m_f_n_a.png,O,z,1536,5,1,2559.5,240060.0,7707,NNB,C,4
0,test,1,0.0,1-Back,0.0,m,Fri Dec 12 2025 13:52:27 GMT-0600 (Central Standard Time),244718.29999995232,059_o_m_n_a.png,O,z,1083,6,1,2092.7999999523163,242625.5,7707,NNB,C,5
0,test,1,1.0,1-Back,0.0,z,Fri Dec 12 2025 13:52:27 GMT-0600 (Central Standard Time),246750.29999995232,059_o_m_n_a.png,O,m,999,7,1,2027.6000000238419,244722.69999992847,7707,NNB,C,6
0,test,1,0.0,1-Back,0.0,m,Fri Dec 12 2025 13:52:27 GMT-0600 (Central Standard Time),249066.79999995232,092_m_m_n_a.png,O,z,1295,8,1,2310.2999999523163,246756.5,7707,NNB,C,7
1,test,1,0.0,1-Back,1.0,m,Fri Dec 12 2025 13:52:27 GMT-0600 (Central Standard Time),250932.5,130_o_f_n_a.png,O,m,842,9,1,1858.9000000953674,249073.59999990463,7707,NNB,C,8
2,test,1,0.0,1-Back,1.0,m,Fri Dec 12 2025 13:52:27 GMT-0600 (Central Standard Time),253681.79999995232,092_m_m_n_a.png,O,m,1728,10,1,2740.0,250941.79999995232,7707,NNB,C,9
2,test,1,0.0,1-Back,0.0,m,Fri Dec 12 2025 13:52:27 GMT-0600 (Central Standard Time),256514.39999997616,057_y_m_n_a.png,O,z,1803,11,1,2824.3000000715256,253690.09999990463,7707,NNB,C,10
2,test,1,1.0,1-Back,0.0,z,Fri Dec 12 2025 13:52:27 GMT-0600 (Central Standard Time),258663.69999992847,057_y_m_n_a.png,O,m,1132,12,1,2140.0,256523.69999992847,7707,NNB,C,11
2,test,1,0.0,1-Back,0.0,m,Fri Dec 12 2025 13:52:27 GMT-0600 (Central Standard Time),261430.0,030_o_f_n_a.png,O,z,1741,13,1,2761.7000000476837,258668.29999995232,7707,NNB,C,12
2,test,1,1.0,1-Back,0.0,z,Fri Dec 12 2025 13:52:27 GMT-0600 (Central Standard Time),263729.39999997616,030_o_f_n_a.png,O,m,1271,14,1,2291.0,261438.39999997616,7707,NNB,C,13
2,test,1,0.0,1-Back,0.0,m,Fri Dec 12 2025 13:52:27 GMT-0600 (Central Standard Time),266762.6999999285,031_y_m_n_a.png,O,None,2013,15,1,3025.899999976158,263736.7999999523,7707,NNB,C,14
2,test,1,0.0,1-Back,0.0,m,Fri Dec 12 2025 13:52:27 GMT-0600 (Central Standard Time),269443.89999997616,093_m_f_n_a.png,O,z,1653,16,1,2672.8000000715256,266771.09999990463,7707,NNB,C,15
2,test,1,0.0,1-Back,0.0,m,Fri Dec 12 2025 13:52:27 GMT-0600 (Central Standard Time),271542.89999997616,146_o_m_n_a.png,O,z,1073,17,1,2090.600000023842,269452.2999999523,7707,NNB,C,16
2,test,1,0.0,1-Back,0.0,m,Fri Dec 12 2025 13:52:27 GMT-0600 (Central Standard Time),274575.39999997616,093_m_f_n_a.png,O,None,2015,18,1,3024.100000023842,271551.2999999523,7707,NNB,C,17
0,test,2,0.0,1-Back,,,Fri Dec 12 2025 13:52:27 GMT-0600 (Central Standard Time),274575.39999997616,092_m_m_n_a.png,O,space,3279,1,1,3024.100000023842,271551.2999999523,7707,NNB,C,0
0,test,2,0.0,1-Back,0.0,m,Fri Dec 12 2025 13:52:27 GMT-0600 (Central Standard Time),281690.2999999523,006_m_f_n_a.png,O,z,788,2,1,1805.8999999761581,279884.39999997616,7707,NNB,C,1
0,test,2,1.0,1-Back,0.0,z,Fri Dec 12 2025 13:52:27 GMT-0600 (Central Standard Time),283689.1999999285,006_m_f_n_a.png,O,m,979,3,1,1994.6000000238419,281694.59999990463,7707,NNB,C,2
0,test,2,0.0,1-Back,0.0,m,Fri Dec 12 2025 13:52:27 GMT-0600 (Central Standard Time),285987.0,092_m_m_n_a.png,O,z,1276,4,1,2291.600000023842,283695.39999997616,7707,NNB,C,3
0,test,2,0.0,1-Back,0.0,m,Fri Dec 12 2025 13:52:27 GMT-0600 (Central Standard Time),287954.89999997616,057_y_m_n_a.png,O,z,937,5,1,1959.8000000715256,285995.09999990463,7707,NNB,C,4
0,test,2,0.0,1-Back,0.0,m,Fri Dec 12 2025 13:52:27 GMT-0600 (Central Standard Time),289803.1999999285,098_y_f_n_a.png,O,z,819,6,1,1843.0,287960.1999999285,7707,NNB,C,5
0,test,2,1.0,1-Back,0.0,z,Fri Dec 12 2025 13:52:27 GMT-0600 (Central Standard Time),291704.1999999285,098_y_f_n_a.png,O,m,875,7,1,1894.7999999523163,289809.39999997616,7707,NNB,C,6
0,test,2,0.0,1-Back,0.0,m,Fri Dec 12 2025 13:52:27 GMT-0600 (Central Standard Time),293936.09999990463,057_y_m_n_a.png,O,z,1213,8,1,2226.399999976158,291709.6999999285,7707,NNB,C,7
1,test,2,0.0,1-Back,1.0,m,Fri Dec 12 2025 13:52:27 GMT-0600 (Central Standard Time),296002.2999999523,030_o_f_n_a.png,O,m,1037,9,1,2058.399999976158,293943.89999997616,7707,NNB,C,8
1,test,2,0.0,1-Back,0.0,m,Fri Dec 12 2025 13:52:27 GMT-0600 (Central Standard Time),298468.39999997616,082_m_m_n_a.png,O,z,1434,10,1,2458.600000023842,296009.7999999523,7707,NNB,C,9
2,test,2,1.0,1-Back,1.0,z,Fri Dec 12 2025 13:52:27 GMT-0600 (Central Standard Time),300500.59999990463,082_m_m_n_a.png,O,z,1010,11,1,2025.0,298475.59999990463,7707,NNB,C,10
2,test,2,0.0,1-Back,0.0,m,Fri Dec 12 2025 13:52:27 GMT-0600 (Central Standard Time),302916.7999999523,030_o_f_n_a.png,O,z,1385,12,1,2412.2000000476837,300504.59999990463,7707,NNB,C,11
2,test,2,0.0,1-Back,0.0,m,Fri Dec 12 2025 13:52:27 GMT-0600 (Central Standard Time),305098.89999997616,130_o_f_n_a.png,O,z,1152,13,1,2175.5,302923.39999997616,7707,NNB,C,12
2,test,2,0.0,1-Back,0.0,m,Fri Dec 12 2025 13:52:27 GMT-0600 (Central Standard Time),307016.1999999285,059_o_m_n_a.png,O,z,900,14,1,1910.1000000238419,305106.09999990463,7707,NNB,C,13
2,test,2,0.0,1-Back,0.0,m,Fri Dec 12 2025 13:52:27 GMT-0600 (Central Standard Time),308881.0,146_o_m_n_a.png,O,z,839,15,1,1861.8000000715256,307019.1999999285,7707,NNB,C,14
2,test,2,1.0,1-Back,0.0,z,Fri Dec 12 2025 13:52:27 GMT-0600 (Central Standard Time),310781.7999999523,146_o_m_n_a.png,O,m,866,16,1,1896.6000000238419,308885.1999999285,7707,NNB,C,15
2,test,2,0.0,1-Back,0.0,m,Fri Dec 12 2025 13:52:27 GMT-0600 (Central Standard Time),312830.09999990463,031_y_m_n_a.png,O,z,1019,17,1,2040.0999999046326,310790.0,7707,NNB,C,16
2,test,2,1.0,1-Back,0.0,z,Fri Dec 12 2025 13:52:27 GMT-0600 (Central Standard Time),314761.59999990463,031_y_m_n_a.png,O,m,903,18,1,1929.0,312832.59999990463,7707,NNB,C,17
0,test,3,1.0,1-Back,,,Fri Dec 12 2025 13:52:27 GMT-0600 (Central Standard Time),314761.59999990463,028_y_f_n_a.png,O,space,2172,1,1,1929.0,312832.59999990463,7707,NNB,C,0
0,test,3,0.0,1-Back,0.0,m,Fri Dec 12 2025 13:52:27 GMT-0600 (Central Standard Time),320777.1999999285,146_o_m_n_a.png,O,z,720,1,1,1741.1000000238419,319036.09999990463,7707,NNB,C,1
0,test,3,1.0,1-Back,0.0,z,Fri Dec 12 2025 13:52:27 GMT-0600 (Central Standard Time),322694.0,146_o_m_n_a.png,O,m,883,1,1,1912.6000000238419,320781.39999997616,7707,NNB,C,2
0,test,3,0.0,1-Back,0.0,m,Fri Dec 12 2025 13:52:27 GMT-0600 (Central Standard Time),324629.2999999523,093_m_f_n_a.png,O,z,903,1,1,1928.3999999761581,322700.89999997616,7707,NNB,C,3
0,test,3,1.0,1-Back,0.0,z,Fri Dec 12 2025 13:52:27 GMT-0600 (Central Standard Time),326392.1999999285,093_m_f_n_a.png,O,m,739,1,1,1756.5,324635.6999999285,7707,NNB,C,4
0,test,3,0.0,1-Back,0.0,m,Fri Dec 12 2025 13:52:27 GMT-0600 (Central Standard Time),328491.89999997616,030_o_f_n_a.png,O,z,1069,1,1,2092.600000023842,326399.2999999523,7707,NNB,C,5
0,test,3,0.0,1-Back,0.0,m,Fri Dec 12 2025 13:52:27 GMT-0600 (Central Standard Time),330325.89999997616,057_y_m_n_a.png,O,z,800,1,1,1827.6000000238419,328498.2999999523,7707,NNB,C,6
0,test,3,0.0,1-Back,0.0,m,Fri Dec 12 2025 13:52:27 GMT-0600 (Central Standard Time),332073.59999990463,030_o_f_n_a.png,O,z,722,1,1,1740.7999999523163,330332.7999999523,7707,NNB,C,7
0,test,3,0.0,1-Back,0.0,m,Fri Dec 12 2025 13:52:27 GMT-0600 (Central Standard Time),334123.5,031_y_m_n_a.png,O,z,1019,1,1,2043.4000000953674,332080.09999990463,7707,NNB,C,8
0,test,3,1.0,1-Back,0.0,z,Fri Dec 12 2025 13:52:27 GMT-0600 (Central Standard Time),335872.59999990463,031_y_m_n_a.png,O,m,732,1,1,1742.1999999284744,334130.39999997616,7707,NNB,C,9
0,test,3,0.0,1-Back,0.0,m,Fri Dec 12 2025 13:52:27 GMT-0600 (Central Standard Time),337805.89999997616,006_m_f_n_a.png,O,z,908,1,1,1927.0,335878.89999997616,7707,NNB,C,10
0,test,3,0.0,1-Back,0.0,m,Fri Dec 12 2025 13:52:27 GMT-0600 (Central Standard Time),339521.5,098_y_f_n_a.png,O,z,679,1,1,1709.4000000953674,337812.09999990463,7707,NNB,C,11
0,test,3,1.0,1-Back,0.0,z,Fri Dec 12 2025 13:52:27 GMT-0600 (Central Standard Time),341403.89999997616,098_y_f_n_a.png,O,m,852,1,1,1878.5,339525.39999997616,7707,NNB,C,12
0,test,3,0.0,1-Back,0.0,m,Fri Dec 12 2025 13:52:27 GMT-0600 (Central Standard Time),343238.1999999285,006_m_f_n_a.png,O,z,801,1,1,1827.2999999523163,341410.89999997616,7707,NNB,C,13
0,test,3,0.0,1-Back,0.0,m,Fri Dec 12 2025 13:52:27 GMT-0600 (Central Standard Time),345121.39999997616,092_m_m_n_a.png,O,z,855,1,1,1875.2000000476837,343246.1999999285,7707,NNB,C,14
0,test,3,1.0,1-Back,0.0,z,Fri Dec 12 2025 13:52:27 GMT-0600 (Central Standard Time),346819.1999999285,092_m_m_n_a.png,O,m,669,1,1,1691.0,345128.1999999285,7707,NNB,C,15
0,test,3,0.0,1-Back,0.0,m,Fri Dec 12 2025 13:52:27 GMT-0600 (Central Standard Time),348418.39999997616,130_o_f_n_a.png,O,z,578,1,1,1592.2000000476837,346826.1999999285,7707,NNB,C,16
0,test,3,1.0,1-Back,0.0,z,Fri Dec 12 2025 13:52:27 GMT-0600 (Central Standard Time),350283.89999997616,130_o_f_n_a.png,O,m,835,1,1,1859.1000000238419,348424.7999999523,7707,NNB,C,17
0,test,4,1.0,1-Back,,,Fri Dec 12 2025 13:52:27 GMT-0600 (Central Standard Time),350283.89999997616,093_m_f_n_a.png,O,space,1738,1,1,1859.1000000238419,348424.7999999523,7707,NNB,C,0
0,test,4,0.0,1-Back,0.0,m,Fri Dec 12 2025 13:52:27 GMT-0600 (Central Standard Time),355699.0,146_o_m_n_a.png,O,z,552,2,1,1574.8000000715256,354124.1999999285,7707,NNB,C,1
0,test,4,0.0,1-Back,0.0,m,Fri Dec 12 2025 13:52:27 GMT-0600 (Central Standard Time),357682.5,093_m_f_n_a.png,O,z,952,3,1,1977.0,355705.5,7707,NNB,C,2
0,test,4,0.0,1-Back,0.0,m,Fri Dec 12 2025 13:52:27 GMT-0600 (Central Standard Time),359548.39999997616,030_o_f_n_a.png,O,z,832,4,1,1858.6000000238419,357689.7999999523,7707,NNB,C,3
0,test,4,1.0,1-Back,0.0,z,Fri Dec 12 2025 13:52:27 GMT-0600 (Central Standard Time),361381.89999997616,030_o_f_n_a.png,O,m,807,5,1,1827.3000000715256,359554.59999990463,7707,NNB,C,4
0,test,4,0.0,1-Back,0.0,m,Fri Dec 12 2025 13:52:27 GMT-0600 (Central Standard Time),363530.1999999285,098_y_f_n_a.png,O,z,1129,6,1,2144.2999999523163,361385.89999997616,7707,NNB,C,5
0,test,4,0.0,1-Back,0.0,m,Fri Dec 12 2025 13:52:27 GMT-0600 (Central Standard Time),365398.39999997616,057_y_m_n_a.png,O,z,842,7,1,1860.2000000476837,363538.1999999285,7707,NNB,C,6
0,test,4,1.0,1-Back,0.0,z,Fri Dec 12 2025 13:52:27 GMT-0600 (Central Standard Time),366946.0,057_y_m_n_a.png,O,m,527,8,1,1539.8000000715256,365406.1999999285,7707,NNB,C,7
0,test,4,0.0,1-Back,0.0,m,Fri Dec 12 2025 13:52:27 GMT-0600 (Central Standard Time),368680.09999990463,098_y_f_n_a.png,O,z,700,9,1,1727.3999999761581,366952.6999999285,7707,NNB,C,8
0,test,4,0.0,1-Back,0.0,m,Fri Dec 12 2025 13:52:27 GMT-0600 (Central Standard Time),370528.7999999523,082_m_m_n_a.png,O,z,817,10,1,1843.0,368685.7999999523,7707,NNB,C,9
0,test,4,1.0,1-Back,0.0,z,Fri Dec 12 2025 13:52:27 GMT-0600 (Central Standard Time),372294.09999990463,082_m_m_n_a.png,O,m,741,11,1,1757.5,370536.59999990463,7707,NNB,C,10
0,test,4,0.0,1-Back,0.0,m,Fri Dec 12 2025 13:52:27 GMT-0600 (Central Standard Time),373926.89999997616,130_o_f_n_a.png,O,z,615,12,1,1623.7000000476837,372303.1999999285,7707,NNB,C,11
0,test,4,0.0,1-Back,0.0,m,Fri Dec 12 2025 13:52:27 GMT-0600 (Central Standard Time),375727.5,059_o_m_n_a.png,O,z,767,13,1,1793.4000000953674,373934.09999990463,7707,NNB,C,12
0,test,4,0.0,1-Back,0.0,m,Fri Dec 12 2025 13:52:27 GMT-0600 (Central Standard Time),377475.7999999523,130_o_f_n_a.png,O,z,719,14,1,1738.2000000476837,375737.59999990463,7707,NNB,C,13
0,test,4,0.0,1-Back,0.0,m,Fri Dec 12 2025 13:52:27 GMT-0600 (Central Standard Time),379091.6999999285,028_y_f_n_a.png,O,z,593,15,1,1608.2999999523163,377483.39999997616,7707,NNB,C,14
0,test,4,1.0,1-Back,0.0,z,Fri Dec 12 2025 13:52:27 GMT-0600 (Central Standard Time),380608.1999999285,028_y_f_n_a.png,O,m,498,16,1,1508.1999999284744,379100.0,7707,NNB,C,15
0,test,4,0.0,1-Back,0.0,m,Fri Dec 12 2025 13:52:27 GMT-0600 (Central Standard Time),382225.59999990463,006_m_f_n_a.png,O,z,589,17,1,1607.8999999761581,380617.6999999285,7707,NNB,C,16
1,test,4,1.0,1-Back,1.0,z,Fri Dec 12 2025 13:52:27 GMT-0600 (Central Standard Time),383873.89999997616,006_m_f_n_a.png,O,z,629,18,1,1640.3000000715256,382233.59999990463,7707,NNB,C,17
0,test,5,1.0,1-Back,,,Fri Dec 12 2025 13:52:27 GMT-0600 (Central Standard Time),383873.89999997616,059_o_m_n_a.png,O,space,2451,1,1,1640.3000000715256,382233.59999990463,7707,NNB,C,0
0,test,5,1.0,1-Back,0.0,z,Fri Dec 12 2025 13:52:27 GMT-0600 (Central Standard Time),390222.6999999285,059_o_m_n_a.png,O,m,840,2,1,1861.6000000238419,388361.09999990463,7707,NNB,C,1
0,test,5,0.0,1-Back,0.0,m,Fri Dec 12 2025 13:52:27 GMT-0600 (Central Standard Time),392187.6999999285,098_y_f_n_a.png,O,z,936,3,1,1958.3999999761581,390229.2999999523,7707,NNB,C,2
0,test,5,0.0,1-Back,0.0,m,Fri Dec 12 2025 13:52:27 GMT-0600 (Central Standard Time),394004.09999990463,057_y_m_n_a.png,O,z,794,4,1,1808.1999999284744,392195.89999997616,7707,NNB,C,3
0,test,5,0.0,1-Back,0.0,m,Fri Dec 12 2025 13:52:27 GMT-0600 (Central Standard Time),395654.09999990463,098_y_f_n_a.png,O,z,633,5,1,1640.5,394013.59999990463,7707,NNB,C,4
0,test,5,0.0,1-Back,0.0,m,Fri Dec 12 2025 13:52:27 GMT-0600 (Central Standard Time),397386.39999997616,092_m_m_n_a.png,O,z,704,6,1,1726.1000000238419,395660.2999999523,7707,NNB,C,5
0,test,5,1.0,1-Back,0.0,z,Fri Dec 12 2025 13:52:27 GMT-0600 (Central Standard Time),398888.0,092_m_m_n_a.png,O,m,483,7,1,1491.9000000953674,397396.09999990463,7707,NNB,C,6
0,test,5,0.0,1-Back,0.0,m,Fri Dec 12 2025 13:52:27 GMT-0600 (Central Standard Time),400535.2999999523,028_y_f_n_a.png,O,z,623,8,1,1638.1000000238419,398897.1999999285,7707,NNB,C,7
0,test,5,0.0,1-Back,0.0,m,Fri Dec 12 2025 13:52:27 GMT-0600 (Central Standard Time),402217.5,031_y_m_n_a.png,O,z,653,9,1,1674.8000000715256,400542.6999999285,7707,NNB,C,8
0,test,5,0.0,1-Back,0.0,m,Fri Dec 12 2025 13:52:27 GMT-0600 (Central Standard Time),403851.39999997616,028_y_f_n_a.png,O,z,604,10,1,1625.5,402225.89999997616,7707,NNB,C,9
0,test,5,0.0,1-Back,0.0,m,Fri Dec 12 2025 13:52:27 GMT-0600 (Central Standard Time),405483.39999997616,130_o_f_n_a.png,O,z,603,11,1,1624.7000000476837,403858.6999999285,7707,NNB,C,10
1,test,5,1.0,1-Back,1.0,z,Fri Dec 12 2025 13:52:27 GMT-0600 (Central Standard Time),407266.09999990463,130_o_f_n_a.png,O,z,760,12,1,1776.2999999523163,405489.7999999523,7707,NNB,C,11
1,test,5,0.0,1-Back,0.0,m,Fri Dec 12 2025 13:52:27 GMT-0600 (Central Standard Time),409149.6999999285,146_o_m_n_a.png,O,z,858,13,1,1875.6999999284744,407274.0,7707,NNB,C,12
1,test,5,0.0,1-Back,0.0,m,Fri Dec 12 2025 13:52:27 GMT-0600 (Central Standard Time),410950.5,093_m_f_n_a.png,O,z,769,14,1,1793.4000000953674,409157.09999990463,7707,NNB,C,13
1,test,5,1.0,1-Back,0.0,z,Fri Dec 12 2025 13:52:27 GMT-0600 (Central Standard Time),412748.09999990463,093_m_f_n_a.png,O,m,768,15,1,1791.1999999284744,410956.89999997616,7707,NNB,C,14
1,test,5,0.0,1-Back,0.0,m,Fri Dec 12 2025 13:52:27 GMT-0600 (Central Standard Time),414547.09999990463,146_o_m_n_a.png,O,z,777,16,1,1791.5999999046326,412755.5,7707,NNB,C,15
1,test,5,0.0,1-Back,0.0,m,Fri Dec 12 2025 13:52:27 GMT-0600 (Central Standard Time),416314.39999997616,006_m_f_n_a.png,O,z,745,17,1,1764.3999999761581,414550.0,7707,NNB,C,16
1,test,5,0.0,1-Back,0.0,m,Fri Dec 12 2025 13:52:27 GMT-0600 (Central Standard Time),417914.2999999523,082_m_m_n_a.png,O,z,579,18,1,1592.7999999523163,416321.5,7707,NNB,C,17
0,prac,1,0.0,2-Back,,,Fri Dec 12 2025 13:52:27 GMT-0600 (Central Standard Time),417914.2999999523,031_y_m_n_a.png,O,space,3614,1,1,1592.7999999523163,416321.5,7707,NNB,C,0
0,prac,1,0.0,2-Back,,,Fri Dec 12 2025 13:52:27 GMT-0600 (Central Standard Time),417914.2999999523,006_m_f_n_a.png,O,space,3614,2,1,1592.7999999523163,416321.5,7707,NNB,C,0
1,prac,1,1.0,2-Back,1.0,m,Fri Dec 12 2025 13:52:27 GMT-0600 (Central Standard Time),593557.5999999046,146_o_m_n_a.png,O,m,1058,3,1,1909.0,591648.5999999046,7707,NNB,C,1
1,prac,1,0.0,2-Back,0.0,m,Fri Dec 12 2025 13:52:27 GMT-0600 (Central Standard Time),596423.0,130_o_f_n_a.png,O,None,2009,4,1,2858.3000000715256,593564.6999999285,7707,NNB,C,2
1,prac,1,0.0,2-Back,0.0,z,Fri Dec 12 2025 13:52:27 GMT-0600 (Central Standard Time),599191.6999999285,146_o_m_n_a.png,O,None,2006,5,1,2758.600000023842,596433.0999999046,7707,NNB,C,3
1,prac,1,1.0,2-Back,0.0,z,Fri Dec 12 2025 13:52:27 GMT-0600 (Central Standard Time),601970.7999999523,130_o_f_n_a.png,O,None,2005,6,1,2770.2000000476837,599200.5999999046,7707,NNB,C,4
1,prac,1,0.0,2-Back,0.0,m,Fri Dec 12 2025 13:52:27 GMT-0600 (Central Standard Time),604752.7999999523,082_m_m_n_a.png,O,None,2007,7,1,2771.7999999523163,601981.0,7707,NNB,C,5
1,prac,1,0.0,2-Back,0.0,m,Fri Dec 12 2025 13:52:27 GMT-0600 (Central Standard Time),607602.6999999285,059_o_m_n_a.png,O,None,2006,8,1,2843.0,604759.6999999285,7707,NNB,C,6
1,prac,1,0.0,2-Back,0.0,m,Fri Dec 12 2025 13:52:27 GMT-0600 (Central Standard Time),610468.5999999046,028_y_f_n_a.png,O,None,2013,9,1,2856.899999976158,607611.6999999285,7707,NNB,C,7
1,prac,1,1.0,2-Back,0.0,z,Fri Dec 12 2025 13:52:27 GMT-0600 (Central Standard Time),613251.1999999285,059_o_m_n_a.png,O,None,2007,10,1,2773.5,610477.6999999285,7707,NNB,C,8
1,prac,1,0.0,2-Back,0.0,m,Fri Dec 12 2025 13:52:27 GMT-0600 (Central Standard Time),614100.6999999285,098_y_f_n_a.png,O,z,6,11,1,839.6999999284744,613261.0,7707,NNB,C,9
1,prac,1,0.0,2-Back,0.0,m,Fri Dec 12 2025 13:52:27 GMT-0600 (Central Standard Time),616885.6999999285,082_m_m_n_a.png,O,None,2006,12,1,2775.899999976158,614109.7999999523,7707,NNB,C,10
0,prac,2,0.0,2-Back,,,Fri Dec 12 2025 13:52:27 GMT-0600 (Central Standard Time),616885.6999999285,031_y_m_n_a.png,O,a,19770,1,1,2775.899999976158,614109.7999999523,7707,NNB,C,0
0,prac,2,0.0,2-Back,,,Fri Dec 12 2025 13:52:27 GMT-0600 (Central Standard Time),616885.6999999285,006_m_f_n_a.png,O,a,19770,2,1,2775.899999976158,614109.7999999523,7707,NNB,C,0
1,prac,2,1.0,2-Back,1.0,m,Fri Dec 12 2025 13:52:27 GMT-0600 (Central Standard Time),644307.5,146_o_m_n_a.png,O,m,1584,3,1,2440.4000000953674,641867.0999999046,7707,NNB,C,1
1,prac,2,0.0,2-Back,0.0,m,Fri Dec 12 2025 13:52:27 GMT-0600 (Central Standard Time),647173.8999999762,130_o_f_n_a.png,O,None,2007,4,1,2857.899999976158,644316.0,7707,NNB,C,2
1,prac,2,0.0,2-Back,0.0,z,Fri Dec 12 2025 13:52:27 GMT-0600 (Central Standard Time),649955.8999999762,146_o_m_n_a.png,O,None,2007,5,1,2773.399999976158,647182.5,7707,NNB,C,3
2,prac,2,1.0,2-Back,1.0,z,Fri Dec 12 2025 13:52:27 GMT-0600 (Central Standard Time),651173.1999999285,130_o_f_n_a.png,O,z,439,6,1,1206.0,649967.1999999285,7707,NNB,C,4
2,prac,2,0.0,2-Back,0.0,m,Fri Dec 12 2025 13:52:27 GMT-0600 (Central Standard Time),653272.5,082_m_m_n_a.png,O,z,1334,7,1,2088.8000000715256,651183.6999999285,7707,NNB,C,5
3,prac,2,0.0,2-Back,1.0,m,Fri Dec 12 2025 13:52:27 GMT-0600 (Central Standard Time),655354.5999999046,059_o_m_n_a.png,O,m,1222,8,1,2073.5,653281.0999999046,7707,NNB,C,6
4,prac,2,0.0,2-Back,1.0,m,Fri Dec 12 2025 13:52:27 GMT-0600 (Central Standard Time),657521.3999999762,028_y_f_n_a.png,O,m,1311,9,1,2158.600000023842,655362.7999999523,7707,NNB,C,7
4,prac,2,1.0,2-Back,0.0,z,Fri Dec 12 2025 13:52:27 GMT-0600 (Central Standard Time),659837.8999999762,059_o_m_n_a.png,O,m,1550,10,1,2309.0,657528.8999999762,7707,NNB,C,8
4,prac,2,0.0,2-Back,0.0,m,Fri Dec 12 2025 13:52:27 GMT-0600 (Central Standard Time),662685.2999999523,098_y_f_n_a.png,O,None,2008,11,1,2837.899999976158,659847.3999999762,7707,NNB,C,9
5,prac,2,0.0,2-Back,1.0,m,Fri Dec 12 2025 13:52:27 GMT-0600 (Central Standard Time),664551.2999999523,082_m_m_n_a.png,O,m,1079,12,1,1857.1000000238419,662694.1999999285,7707,NNB,C,10
0,test,1,0.0,2-Back,,,Fri Dec 12 2025 13:52:27 GMT-0600 (Central Standard Time),664551.2999999523,057_y_m_n_a.png,O,space,2743,1,1,1857.1000000238419,662694.1999999285,7707,NNB,C,0
0,test,1,0.0,2-Back,,,Fri Dec 12 2025 13:52:27 GMT-0600 (Central Standard Time),664551.2999999523,057_y_m_n_a.png,O,space,2743,2,1,1857.1000000238419,662694.1999999285,7707,NNB,C,0
0,test,1,0.0,2-Back,0.0,m,Fri Dec 12 2025 13:52:27 GMT-0600 (Central Standard Time),686145.6999999285,130_o_f_n_a.png,O,None,2017,3,1,3038.0,683107.6999999285,7707,NNB,C,1
1,test,1,0.0,2-Back,1.0,m,Fri Dec 12 2025 13:52:27 GMT-0600 (Central Standard Time),688695.6999999285,092_m_m_n_a.png,O,m,1518,4,1,2543.399999976158,686152.2999999523,7707,NNB,C,2
2,test,1,1.0,2-Back,1.0,z,Fri Dec 12 2025 13:52:27 GMT-0600 (Central Standard Time),690810.0,130_o_f_n_a.png,O,z,1095,5,1,2107.0,688703.0,7707,NNB,C,3
3,test,1,0.0,2-Back,1.0,m,Fri Dec 12 2025 13:52:27 GMT-0600 (Central Standard Time),692976.0,098_y_f_n_a.png,O,m,1141,6,1,2161.2000000476837,690814.7999999523,7707,NNB,C,4
3,test,1,0.0,2-Back,0.0,m,Fri Dec 12 2025 13:52:27 GMT-0600 (Central Standard Time),696008.0,092_m_m_n_a.png,O,None,2015,7,1,3025.0,692983.0,7707,NNB,C,5
3,test,1,1.0,2-Back,0.0,z,Fri Dec 12 2025 13:52:27 GMT-0600 (Central Standard Time),699040.7999999523,098_y_f_n_a.png,O,None,2015,8,1,3028.2000000476837,696012.5999999046,7707,NNB,C,6
4,test,1,0.0,2-Back,1.0,m,Fri Dec 12 2025 13:52:27 GMT-0600 (Central Standard Time),701890.5,031_y_m_n_a.png,O,m,1829,9,1,2842.8000000715256,699047.6999999285,7707,NNB,C,7
5,test,1,0.0,2-Back,1.0,m,Fri Dec 12 2025 13:52:27 GMT-0600 (Central Standard Time),704088.5,030_o_f_n_a.png,O,m,1172,10,1,2192.600000023842,701895.8999999762,7707,NNB,C,8
5,test,1,1.0,2-Back,0.0,z,Fri Dec 12 2025 13:52:27 GMT-0600 (Central Standard Time),706588.3999999762,031_y_m_n_a.png,O,m,1475,11,1,2492.3000000715256,704096.0999999046,7707,NNB,C,9
5,test,1,0.0,2-Back,0.0,m,Fri Dec 12 2025 13:52:27 GMT-0600 (Central Standard Time),709120.5,006_m_f_n_a.png,O,z,1507,12,1,2525.5,706595.0,7707,NNB,C,10
6,test,1,0.0,2-Back,1.0,m,Fri Dec 12 2025 13:52:27 GMT-0600 (Central Standard Time),711785.5999999046,006_m_f_n_a.png,O,m,1637,13,1,2660.5,709125.0999999046,7707,NNB,C,11
6,test,1,0.0,2-Back,0.0,m,Fri Dec 12 2025 13:52:27 GMT-0600 (Central Standard Time),714819.2999999523,146_o_m_n_a.png,O,None,2016,14,1,3026.899999976158,711792.3999999762,7707,NNB,C,12
7,test,1,0.0,2-Back,1.0,m,Fri Dec 12 2025 13:52:27 GMT-0600 (Central Standard Time),717401.3999999762,030_o_f_n_a.png,O,m,1555,15,1,2579.5,714821.8999999762,7707,NNB,C,13
8,test,1,1.0,2-Back,1.0,z,Fri Dec 12 2025 13:52:27 GMT-0600 (Central Standard Time),719550.5999999046,146_o_m_n_a.png,O,z,1125,16,1,2144.1999999284744,717406.3999999762,7707,NNB,C,14
9,test,1,0.0,2-Back,1.0,m,Fri Dec 12 2025 13:52:27 GMT-0600 (Central Standard Time),722151.7999999523,093_m_f_n_a.png,O,m,1568,17,1,2594.899999976158,719556.8999999762,7707,NNB,C,15
9,test,1,0.0,2-Back,0.0,m,Fri Dec 12 2025 13:52:27 GMT-0600 (Central Standard Time),724065.8999999762,082_m_m_n_a.png,O,z,894,18,1,1907.7000000476837,722158.1999999285,7707,NNB,C,16
0,test,2,0.0,2-Back,,,Fri Dec 12 2025 13:52:27 GMT-0600 (Central Standard Time),724065.8999999762,082_m_m_n_a.png,O,space,2211,1,1,1907.7000000476837,722158.1999999285,7707,NNB,C,0
0,test,2,0.0,2-Back,,,Fri Dec 12 2025 13:52:27 GMT-0600 (Central Standard Time),724065.8999999762,028_y_f_n_a.png,O,space,2211,2,1,1907.7000000476837,722158.1999999285,7707,NNB,C,0
0,test,2,1.0,2-Back,0.0,z,Fri Dec 12 2025 13:52:27 GMT-0600 (Central Standard Time),733979.3999999762,082_m_m_n_a.png,O,m,1553,3,1,2575.7000000476837,731403.6999999285,7707,NNB,C,1
1,test,2,0.0,2-Back,1.0,m,Fri Dec 12 2025 13:52:27 GMT-0600 (Central Standard Time),736378.1999999285,093_m_f_n_a.png,O,m,1378,4,1,2391.5,733986.6999999285,7707,NNB,C,2
1,test,2,0.0,2-Back,0.0,m,Fri Dec 12 2025 13:52:27 GMT-0600 (Central Standard Time),738460.6999999285,028_y_f_n_a.png,O,z,1059,5,1,2074.899999976158,736385.7999999523,7707,NNB,C,3
2,test,2,0.0,2-Back,1.0,m,Fri Dec 12 2025 13:52:27 GMT-0600 (Central Standard Time),740477.2999999523,146_o_m_n_a.png,O,m,978,6,1,2010.5,738466.7999999523,7707,NNB,C,4
2,test,2,0.0,2-Back,0.0,m,Fri Dec 12 2025 13:52:27 GMT-0600 (Central Standard Time),742576.3999999762,098_y_f_n_a.png,O,z,1081,7,1,2088.2000000476837,740488.1999999285,7707,NNB,C,5
2,test,2,1.0,2-Back,0.0,z,Fri Dec 12 2025 13:52:27 GMT-0600 (Central Standard Time),744458.5999999046,146_o_m_n_a.png,O,m,861,8,1,1877.5,742581.0999999046,7707,NNB,C,6
3,test,2,0.0,2-Back,1.0,m,Fri Dec 12 2025 13:52:27 GMT-0600 (Central Standard Time),746560.0,031_y_m_n_a.png,O,m,1069,9,1,2093.9000000953674,744466.0999999046,7707,NNB,C,7
3,test,2,0.0,2-Back,0.0,m,Fri Dec 12 2025 13:52:27 GMT-0600 (Central Standard Time),748807.3999999762,031_y_m_n_a.png,O,z,1223,10,1,2238.2000000476837,746569.1999999285,7707,NNB,C,8
4,test,2,0.0,2-Back,1.0,m,Fri Dec 12 2025 13:52:27 GMT-0600 (Central Standard Time),751091.0,006_m_f_n_a.png,O,m,1260,11,1,2276.5,748814.5,7707,NNB,C,9
4,test,2,0.0,2-Back,0.0,m,Fri Dec 12 2025 13:52:27 GMT-0600 (Central Standard Time),753189.5999999046,028_y_f_n_a.png,O,z,1067,12,1,2091.399999976158,751098.1999999285,7707,NNB,C,10
4,test,2,1.0,2-Back,0.0,z,Fri Dec 12 2025 13:52:27 GMT-0600 (Central Standard Time),755455.6999999285,006_m_f_n_a.png,O,m,1234,13,1,2258.5,753197.1999999285,7707,NNB,C,11
5,test,2,0.0,2-Back,1.0,m,Fri Dec 12 2025 13:52:27 GMT-0600 (Central Standard Time),758221.5,059_o_m_n_a.png,O,m,1740,14,1,2757.8000000715256,755463.6999999285,7707,NNB,C,12
5,test,2,0.0,2-Back,0.0,m,Fri Dec 12 2025 13:52:27 GMT-0600 (Central Standard Time),761254.1999999285,059_o_m_n_a.png,O,None,2016,15,1,3024.899999976158,758229.2999999523,7707,NNB,C,13
6,test,2,0.0,2-Back,1.0,m,Fri Dec 12 2025 13:52:27 GMT-0600 (Central Standard Time),763302.8999999762,030_o_f_n_a.png,O,m,1031,16,1,2041.0,761261.8999999762,7707,NNB,C,14
6,test,2,0.0,2-Back,0.0,m,Fri Dec 12 2025 13:52:27 GMT-0600 (Central Standard Time),766335.6999999285,092_m_m_n_a.png,O,None,2016,17,1,3027.899999976158,763307.7999999523,7707,NNB,C,15
6,test,2,1.0,2-Back,0.0,z,Fri Dec 12 2025 13:52:27 GMT-0600 (Central Standard Time),769368.6999999285,030_o_f_n_a.png,O,None,2016,18,1,3025.899999976158,766342.7999999523,7707,NNB,C,16
0,test,3,1.0,2-Back,,,Fri Dec 12 2025 13:52:27 GMT-0600 (Central Standard Time),769368.6999999285,057_y_m_n_a.png,O,space,1766,1,1,3025.899999976158,766342.7999999523,7707,NNB,C,0
0,test,3,1.0,2-Back,,,Fri Dec 12 2025 13:52:27 GMT-0600 (Central Standard Time),769368.6999999285,057_y_m_n_a.png,O,space,1766,2,1,3025.899999976158,766342.7999999523,7707,NNB,C,0
1,test,3,0.0,2-Back,1.0,m,Fri Dec 12 2025 13:52:27 GMT-0600 (Central Standard Time),778066.6999999285,030_o_f_n_a.png,O,m,796,3,1,1807.1000000238419,776259.5999999046,7707,NNB,C,1
2,test,3,0.0,2-Back,1.0,m,Fri Dec 12 2025 13:52:27 GMT-0600 (Central Standard Time),780081.5,082_m_m_n_a.png,O,m,997,4,1,2012.0,778069.5,7707,NNB,C,2
3,test,3,1.0,2-Back,1.0,z,Fri Dec 12 2025 13:52:27 GMT-0600 (Central Standard Time),781931.3999999762,030_o_f_n_a.png,O,z,821,5,1,1843.2000000476837,780088.1999999285,7707,NNB,C,3
4,test,3,0.0,2-Back,1.0,m,Fri Dec 12 2025 13:52:27 GMT-0600 (Central Standard Time),784795.8999999762,031_y_m_n_a.png,O,m,1843,6,1,2857.399999976158,781938.5,7707,NNB,C,4
4,test,3,0.0,2-Back,0.0,m,Fri Dec 12 2025 13:52:27 GMT-0600 (Central Standard Time),787162.1999999285,082_m_m_n_a.png,O,z,1344,7,1,2359.6999999284744,784802.5,7707,NNB,C,5
4,test,3,1.0,2-Back,0.0,z,Fri Dec 12 2025 13:52:27 GMT-0600 (Central Standard Time),789446.0,031_y_m_n_a.png,O,m,1258,8,1,2277.7000000476837,787168.2999999523,7707,NNB,C,6
5,test,3,0.0,2-Back,1.0,m,Fri Dec 12 2025 13:52:27 GMT-0600 (Central Standard Time),792077.2999999523,028_y_f_n_a.png,O,m,1607,9,1,2623.399999976158,789453.8999999762,7707,NNB,C,7
6,test,3,0.0,2-Back,1.0,m,Fri Dec 12 2025 13:52:27 GMT-0600 (Central Standard Time),794477.5,092_m_m_n_a.png,O,m,1367,10,1,2394.0,792083.5,7707,NNB,C,8
7,test,3,1.0,2-Back,1.0,z,Fri Dec 12 2025 13:52:27 GMT-0600 (Central Standard Time),796476.1999999285,028_y_f_n_a.png,O,z,977,11,1,1991.0,794485.1999999285,7707,NNB,C,9
7,test,3,1.0,2-Back,0.0,z,Fri Dec 12 2025 13:52:27 GMT-0600 (Central Standard Time),798759.6999999285,092_m_m_n_a.png,O,m,1257,12,1,2277.5,796482.1999999285,7707,NNB,C,10
8,test,3,0.0,2-Back,1.0,m,Fri Dec 12 2025 13:52:27 GMT-0600 (Central Standard Time),800857.5,030_o_f_n_a.png,O,m,1079,13,1,2090.3000000715256,798767.1999999285,7707,NNB,C,11
9,test,3,0.0,2-Back,1.0,m,Fri Dec 12 2025 13:52:27 GMT-0600 (Central Standard Time),802958.3999999762,093_m_f_n_a.png,O,m,1068,14,1,2092.7000000476837,800865.6999999285,7707,NNB,C,12
10,test,3,0.0,2-Back,1.0,m,Fri Dec 12 2025 13:52:27 GMT-0600 (Central Standard Time),805207.0999999046,146_o_m_n_a.png,O,m,1224,15,1,2241.5999999046326,802965.5,7707,NNB,C,13
11,test,3,1.0,2-Back,1.0,z,Fri Dec 12 2025 13:52:27 GMT-0600 (Central Standard Time),807456.8999999762,093_m_f_n_a.png,O,z,1230,16,1,2245.7000000476837,805211.1999999285,7707,NNB,C,14
12,test,3,0.0,2-Back,1.0,m,Fri Dec 12 2025 13:52:27 GMT-0600 (Central Standard Time),809555.1999999285,130_o_f_n_a.png,O,m,1069,17,1,2090.2999999523163,807464.8999999762,7707,NNB,C,15
12,test,3,0.0,2-Back,0.0,m,Fri Dec 12 2025 13:52:27 GMT-0600 (Central Standard Time),811772.3999999762,130_o_f_n_a.png,O,z,1184,18,1,2210.399999976158,809562.0,7707,NNB,C,16
0,test,4,0.0,2-Back,,,Fri Dec 12 2025 13:52:27 GMT-0600 (Central Standard Time),811772.3999999762,059_o_m_n_a.png,O,space,1617,1,1,2210.399999976158,809562.0,7707,NNB,C,0
0,test,4,0.0,2-Back,,,Fri Dec 12 2025 13:52:27 GMT-0600 (Central Standard Time),811772.3999999762,098_y_f_n_a.png,O,space,1617,2,1,2210.399999976158,809562.0,7707,NNB,C,0
1,test,4,1.0,2-Back,1.0,z,Fri Dec 12 2025 13:52:27 GMT-0600 (Central Standard Time),820784.0999999046,059_o_m_n_a.png,O,z,1179,3,1,2191.7999999523163,818592.2999999523,7707,NNB,C,1
1,test,4,1.0,2-Back,0.0,z,Fri Dec 12 2025 13:52:27 GMT-0600 (Central Standard Time),823503.5999999046,098_y_f_n_a.png,O,m,1693,4,1,2716.7999999523163,820786.7999999523,7707,NNB,C,2
1,test,4,0.0,2-Back,0.0,m,Fri Dec 12 2025 13:52:27 GMT-0600 (Central Standard Time),825916.0999999046,030_o_f_n_a.png,O,z,1394,5,1,2406.5,823509.5999999046,7707,NNB,C,3
1,test,4,0.0,2-Back,0.0,m,Fri Dec 12 2025 13:52:27 GMT-0600 (Central Standard Time),828950.8999999762,030_o_f_n_a.png,O,None,2018,6,1,3027.600000023842,825923.2999999523,7707,NNB,C,4
2,test,4,0.0,2-Back,1.0,m,Fri Dec 12 2025 13:52:27 GMT-0600 (Central Standard Time),830931.7999999523,006_m_f_n_a.png,O,m,961,7,1,1973.8999999761581,828957.8999999762,7707,NNB,C,5
2,test,4,0.0,2-Back,0.0,m,Fri Dec 12 2025 13:52:27 GMT-0600 (Central Standard Time),832915.2999999523,031_y_m_n_a.png,O,z,953,8,1,1975.7999999523163,830939.5,7707,NNB,C,6
3,test,4,1.0,2-Back,1.0,z,Fri Dec 12 2025 13:52:27 GMT-0600 (Central Standard Time),835197.7999999523,006_m_f_n_a.png,O,z,1250,9,1,2274.2999999523163,832923.5,7707,NNB,C,7
4,test,4,0.0,2-Back,1.0,m,Fri Dec 12 2025 13:52:27 GMT-0600 (Central Standard Time),837114.0999999046,092_m_m_n_a.png,O,m,884,10,1,1909.0,835205.0999999046,7707,NNB,C,8
4,test,4,0.0,2-Back,0.0,m,Fri Dec 12 2025 13:52:27 GMT-0600 (Central Standard Time),839112.2999999523,031_y_m_n_a.png,O,z,971,11,1,1989.7999999523163,837122.5,7707,NNB,C,9
5,test,4,0.0,2-Back,1.0,m,Fri Dec 12 2025 13:52:27 GMT-0600 (Central Standard Time),841129.5,130_o_f_n_a.png,O,m,998,12,1,2010.1000000238419,839119.3999999762,7707,NNB,C,10
6,test,4,0.0,2-Back,1.0,m,Fri Dec 12 2025 13:52:27 GMT-0600 (Central Standard Time),843894.1999999285,057_y_m_n_a.png,O,m,1742,13,1,2758.600000023842,841135.5999999046,7707,NNB,C,11
7,test,4,1.0,2-Back,1.0,z,Fri Dec 12 2025 13:52:27 GMT-0600 (Central Standard Time),845826.6999999285,130_o_f_n_a.png,O,z,910,14,1,1926.0,843900.6999999285,7707,NNB,C,12
8,test,4,1.0,2-Back,1.0,z,Fri Dec 12 2025 13:52:27 GMT-0600 (Central Standard Time),848259.0,057_y_m_n_a.png,O,z,1402,15,1,2424.8000000715256,845834.1999999285,7707,NNB,C,13
9,test,4,0.0,2-Back,1.0,m,Fri Dec 12 2025 13:52:27 GMT-0600 (Central Standard Time),850374.1999999285,082_m_m_n_a.png,O,m,1090,16,1,2107.5,848266.6999999285,7707,NNB,C,14
10,test,4,0.0,2-Back,1.0,m,Fri Dec 12 2025 13:52:27 GMT-0600 (Central Standard Time),852407.7999999523,093_m_f_n_a.png,O,m,1015,17,1,2026.2999999523163,850381.5,7707,NNB,C,15
11,test,4,1.0,2-Back,1.0,z,Fri Dec 12 2025 13:52:27 GMT-0600 (Central Standard Time),854241.0,082_m_m_n_a.png,O,z,814,18,1,1829.1000000238419,852411.8999999762,7707,NNB,C,16
0,test,5,1.0,2-Back,,,Fri Dec 12 2025 13:52:27 GMT-0600 (Central Standard Time),854241.0,057_y_m_n_a.png,O,space,1333,1,1,1829.1000000238419,852411.8999999762,7707,NNB,C,0
0,test,5,1.0,2-Back,,,Fri Dec 12 2025 13:52:27 GMT-0600 (Central Standard Time),854241.0,093_m_f_n_a.png,O,space,1333,2,1,1829.1000000238419,852411.8999999762,7707,NNB,C,0
0,test,5,1.0,2-Back,0.0,z,Fri Dec 12 2025 13:52:27 GMT-0600 (Central Standard Time),862889.6999999285,057_y_m_n_a.png,O,m,1236,3,1,2261.0,860628.6999999285,7707,NNB,C,1
0,test,5,1.0,2-Back,0.0,z,Fri Dec 12 2025 13:52:27 GMT-0600 (Central Standard Time),864838.0999999046,093_m_f_n_a.png,O,m,915,4,1,1942.1999999284744,862895.8999999762,7707,NNB,C,2
1,test,5,0.0,2-Back,1.0,m,Fri Dec 12 2025 13:52:27 GMT-0600 (Central Standard Time),866853.6999999285,130_o_f_n_a.png,O,m,984,5,1,2011.2999999523163,864842.3999999762,7707,NNB,C,3
1,test,5,0.0,2-Back,0.0,m,Fri Dec 12 2025 13:52:27 GMT-0600 (Central Standard Time),868753.2999999523,057_y_m_n_a.png,O,z,873,6,1,1894.8999999761581,866858.3999999762,7707,NNB,C,4
2,test,5,0.0,2-Back,1.0,m,Fri Dec 12 2025 13:52:27 GMT-0600 (Central Standard Time),870834.8999999762,028_y_f_n_a.png,O,m,1060,7,1,2072.8000000715256,868762.0999999046,7707,NNB,C,5
2,test,5,0.0,2-Back,0.0,m,Fri Dec 12 2025 13:52:27 GMT-0600 (Central Standard Time),873001.5,130_o_f_n_a.png,O,z,1147,8,1,2159.2000000476837,870842.2999999523,7707,NNB,C,6
2,test,5,1.0,2-Back,0.0,z,Fri Dec 12 2025 13:52:27 GMT-0600 (Central Standard Time),875819.5999999046,028_y_f_n_a.png,O,m,1787,9,1,2815.5,873004.0999999046,7707,NNB,C,7
3,test,5,0.0,2-Back,1.0,m,Fri Dec 12 2025 13:52:27 GMT-0600 (Central Standard Time),877835.8999999762,146_o_m_n_a.png,O,m,989,10,1,2010.2000000476837,875825.6999999285,7707,NNB,C,8
4,test,5,0.0,2-Back,1.0,m,Fri Dec 12 2025 13:52:27 GMT-0600 (Central Standard Time),879899.8999999762,006_m_f_n_a.png,O,m,1043,11,1,2057.2000000476837,877842.6999999285,7707,NNB,C,9
4,test,5,0.0,2-Back,0.0,m,Fri Dec 12 2025 13:52:27 GMT-0600 (Central Standard Time),881966.3999999762,092_m_m_n_a.png,O,z,1037,12,1,2058.8000000715256,879907.5999999046,7707,NNB,C,10
4,test,5,0.0,2-Back,0.0,m,Fri Dec 12 2025 13:52:27 GMT-0600 (Central Standard Time),884997.8999999762,146_o_m_n_a.png,O,None,2015,13,1,3024.399999976158,881973.5,7707,NNB,C,11
5,test,5,1.0,2-Back,1.0,z,Fri Dec 12 2025 13:52:27 GMT-0600 (Central Standard Time),887347.5999999046,092_m_m_n_a.png,O,z,1329,14,1,2342.1999999284744,885005.3999999762,7707,NNB,C,12
6,test,5,0.0,2-Back,1.0,m,Fri Dec 12 2025 13:52:27 GMT-0600 (Central Standard Time),889380.0,098_y_f_n_a.png,O,m,1008,15,1,2026.1000000238419,887353.8999999762,7707,NNB,C,13
7,test,5,0.0,2-Back,1.0,m,Fri Dec 12 2025 13:52:27 GMT-0600 (Central Standard Time),891479.5,059_o_m_n_a.png,O,m,1074,16,1,2091.7000000476837,889387.7999999523,7707,NNB,C,14
8,test,5,0.0,2-Back,1.0,m,Fri Dec 12 2025 13:52:27 GMT-0600 (Central Standard Time),893700.0,006_m_f_n_a.png,O,m,1200,17,1,2213.100000023842,891486.8999999762,7707,NNB,C,15
8,test,5,1.0,2-Back,0.0,z,Fri Dec 12 2025 13:52:27 GMT-0600 (Central Standard Time),895379.0,059_o_m_n_a.png,O,m,664,18,1,1672.5,893706.5,7707,NNB,C,16
