block_c,block_dur,condition,countdown,datetime,endtime,list,multichar_response,project,response,response_time,session_number,start_end,starttime,subject_id,task,task_vers,trial
,,,,Fri Jan 17 2025 13:42:28 GMT-0500 (Eastern Standard Time),,,,I,space,307,3,,,9002,WL,B,
prac,,0,,Fri Jan 17 2025 13:42:28 GMT-0500 (Eastern Standard Time),,NA,b,I,b,2187,3,,,9002,WL,B,1.0
prac,,0,,Fri Jan 17 2025 13:42:28 GMT-0500 (Eastern Standard Time),,NA,bo,I,o,251,3,,,9002,WL,B,1.0
prac,,0,,Fri Jan 17 2025 13:42:28 GMT-0500 (Eastern Standard Time),,NA,boo,I,o,114,3,,,9002,WL,B,1.0
prac,,0,,Fri Jan 17 2025 13:42:28 GMT-0500 (Eastern Standard Time),,NA,boos,I,s,1570,3,,,9002,WL,B,1.0
prac,,0,,Fri Jan 17 2025 13:42:28 GMT-0500 (Eastern Standard Time),,NA,boost,I,t,247,3,,,9002,WL,B,1.0
prac,,0,,Fri Jan 17 2025 13:42:28 GMT-0500 (Eastern Standard Time),,NA,boostenter,I,enter,452,3,,,9002,WL,B,1.0
1,1.5510001182556152,learn,58448.999881744385,Fri Jan 17 2025 13:42:28 GMT-0500 (Eastern Standard Time),135939.3000011444,A,s,I,s,1522,3,1549.6000003814697,134389.70000076294,9002,WL,B,1.0
1,1.7179999351501465,learn,58282.00006484985,Fri Jan 17 2025 13:42:28 GMT-0500 (Eastern Standard Time),136106.10000038147,A,st,I,t,147,3,1716.3999996185303,134389.70000076294,9002,WL,B,1.0
1,1.9170000553131104,learn,58082.99994468689,Fri Jan 17 2025 13:42:28 GMT-0500 (Eastern Standard Time),136305.5,A,str,I,r,173,3,1915.7999992370605,134389.70000076294,9002,WL,B,1.0
1,1.9830000400543213,learn,58016.99995994568,Fri Jan 17 2025 13:42:28 GMT-0500 (Eastern Standard Time),136371.60000038147,A,stre,I,e,38,3,1981.8999996185303,134389.70000076294,9002,WL,B,1.0
1,2.4670000076293945,learn,57532.999992370605,Fri Jan 17 2025 13:42:28 GMT-0500 (Eastern Standard Time),136855.70000076294,A,stree,I,e,463,3,2466.0,134389.70000076294,9002,WL,B,1.0
1,2.934000015258789,learn,57065.99998474121,Fri Jan 17 2025 13:42:28 GMT-0500 (Eastern Standard Time),137322.3000011444,A,street,I,t,441,3,2932.6000003814697,134389.70000076294,9002,WL,B,1.0
1,3.183000087738037,learn,56816.99991226196,Fri Jan 17 2025 13:42:28 GMT-0500 (Eastern Standard Time),137571.70000076294,A,streetenter,I,enter,211,3,3182.0,134389.70000076294,9002,WL,B,1.0
1,3.7839999198913574,learn,56216.00008010864,Fri Jan 17 2025 13:42:28 GMT-0500 (Eastern Standard Time),138172.3000011444,A,g,I,g,582,3,599.9000015258789,137572.39999961853,9002,WL,B,2.0
1,3.9670000076293945,learn,56032.999992370605,Fri Jan 17 2025 13:42:28 GMT-0500 (Eastern Standard Time),138355.5,A,gr,I,r,155,3,783.1000003814697,137572.39999961853,9002,WL,B,2.0
1,4.101000070571899,learn,55898.9999294281,Fri Jan 17 2025 13:42:28 GMT-0500 (Eastern Standard Time),138489.0,A,gre,I,e,114,3,916.6000003814697,137572.39999961853,9002,WL,B,2.0
1,4.233999967575073,learn,55766.00003242493,Fri Jan 17 2025 13:42:28 GMT-0500 (Eastern Standard Time),138622.39999961853,A,grea,I,a,98,3,1050.0,137572.39999961853,9002,WL,B,2.0
1,4.817000150680542,learn,55182.99984931946,Fri Jan 17 2025 13:42:28 GMT-0500 (Eastern Standard Time),139205.5,A,gre,I,backspace,568,3,1633.1000003814697,137572.39999961853,9002,WL,B,2.0
1,4.950000047683716,learn,55049.999952316284,Fri Jan 17 2025 13:42:28 GMT-0500 (Eastern Standard Time),139338.5,A,gr,I,backspace,113,3,1766.1000003814697,137572.39999961853,9002,WL,B,2.0
1,5.4670000076293945,learn,54532.999992370605,Fri Jan 17 2025 13:42:28 GMT-0500 (Eastern Standard Time),139855.20000076294,A,gra,I,a,493,3,2282.800001144409,137572.39999961853,9002,WL,B,2.0
1,5.783999919891357,learn,54216.00008010864,Fri Jan 17 2025 13:42:28 GMT-0500 (Eastern Standard Time),140172.3000011444,A,gras,I,s,298,3,2599.900001525879,137572.39999961853,9002,WL,B,2.0
1,5.9670000076293945,learn,54032.999992370605,Fri Jan 17 2025 13:42:28 GMT-0500 (Eastern Standard Time),140355.0,A,grass,I,s,155,3,2782.6000003814697,137572.39999961853,9002,WL,B,2.0
1,6.317000150680542,learn,53682.99984931946,Fri Jan 17 2025 13:42:28 GMT-0500 (Eastern Standard Time),140705.10000038147,A,grassenter,I,enter,326,3,3132.7000007629395,137572.39999961853,9002,WL,B,2.0
1,6.7170000076293945,learn,53282.999992370605,Fri Jan 17 2025 13:42:28 GMT-0500 (Eastern Standard Time),141105.60000038147,A,a,I,a,378,3,399.8999996185303,140705.70000076294,9002,WL,B,3.0
1,6.867000102996826,learn,53132.999897003174,Fri Jan 17 2025 13:42:28 GMT-0500 (Eastern Standard Time),141255.70000076294,A,ar,I,r,134,3,550.0,140705.70000076294,9002,WL,B,3.0
1,7.016999959945679,learn,52983.00004005432,Fri Jan 17 2025 13:42:28 GMT-0500 (Eastern Standard Time),141405.5,A,are,I,e,117,3,699.7999992370605,140705.70000076294,9002,WL,B,3.0
1,7.400000095367432,learn,52599.99990463257,Fri Jan 17 2025 13:42:28 GMT-0500 (Eastern Standard Time),141788.8000011444,A,arem,I,m,359,3,1083.1000003814697,140705.70000076294,9002,WL,B,3.0
1,8.217000007629395,learn,51782.999992370605,Fri Jan 17 2025 13:42:28 GMT-0500 (Eastern Standard Time),142605.5,A,are,I,backspace,793,3,1899.7999992370605,140705.70000076294,9002,WL,B,3.0
1,8.384000062942505,learn,51615.999937057495,Fri Jan 17 2025 13:42:28 GMT-0500 (Eastern Standard Time),142772.5,A,ar,I,backspace,143,3,2066.7999992370605,140705.70000076294,9002,WL,B,3.0
1,8.967000007629395,learn,51032.999992370605,Fri Jan 17 2025 13:42:28 GMT-0500 (Eastern Standard Time),143355.60000038147,A,arm,I,m,561,3,2649.8999996185303,140705.70000076294,9002,WL,B,3.0
1,9.66700005531311,learn,50332.99994468689,Fri Jan 17 2025 13:42:28 GMT-0500 (Eastern Standard Time),144055.0,A,armenter,I,enter,684,3,3349.2999992370605,140705.70000076294,9002,WL,B,3.0
1,10.533999919891357,learn,49466.00008010864,Fri Jan 17 2025 13:42:28 GMT-0500 (Eastern Standard Time),144922.20000076294,A,w,I,w,851,3,866.8000011444092,144055.39999961853,9002,WL,B,4.0
1,10.700000047683716,learn,49299.999952316284,Fri Jan 17 2025 13:42:28 GMT-0500 (Eastern Standard Time),145088.70000076294,A,we,I,e,141,3,1033.3000011444092,144055.39999961853,9002,WL,B,4.0
1,11.183000087738037,learn,48816.99991226196,Fri Jan 17 2025 13:42:28 GMT-0500 (Eastern Standard Time),145571.70000076294,A,w,I,backspace,445,3,1516.3000011444092,144055.39999961853,9002,WL,B,4.0
1,11.384000062942505,learn,48615.999937057495,Fri Jan 17 2025 13:42:28 GMT-0500 (Eastern Standard Time),145772.3000011444,A,wi,I,i,183,3,1716.900001525879,144055.39999961853,9002,WL,B,4.0
1,11.83400011062622,learn,48165.99988937378,Fri Jan 17 2025 13:42:28 GMT-0500 (Eastern Standard Time),146222.39999961853,A,wif,I,f,418,3,2167.0,144055.39999961853,9002,WL,B,4.0
1,11.983999967575073,learn,48016.00003242493,Fri Jan 17 2025 13:42:28 GMT-0500 (Eastern Standard Time),146372.39999961853,A,wife,I,e,126,3,2317.0,144055.39999961853,9002,WL,B,4.0
1,13.433000087738037,learn,46566.99991226196,Fri Jan 17 2025 13:42:28 GMT-0500 (Eastern Standard Time),147821.70000076294,A,wifeenter,I,enter,1417,3,3766.300001144409,144055.39999961853,9002,WL,B,4.0
1,14.150000095367432,learn,45849.99990463257,Fri Jan 17 2025 13:42:28 GMT-0500 (Eastern Standard Time),148538.89999961853,A,c,I,c,700,3,716.5999984741211,147822.3000011444,9002,WL,B,5.0
1,14.299999952316284,learn,45700.000047683716,Fri Jan 17 2025 13:42:28 GMT-0500 (Eastern Standard Time),148688.3000011444,A,ca,I,a,124,3,866.0,147822.3000011444,9002,WL,B,5.0
1,14.533999919891357,learn,45466.00008010864,Fri Jan 17 2025 13:42:28 GMT-0500 (Eastern Standard Time),148922.39999961853,A,cab,I,b,214,3,1100.099998474121,147822.3000011444,9002,WL,B,5.0
1,14.766999959945679,learn,45233.00004005432,Fri Jan 17 2025 13:42:28 GMT-0500 (Eastern Standard Time),149155.39999961853,A,cabi,I,i,206,3,1333.099998474121,147822.3000011444,9002,WL,B,5.0
1,14.934000015258789,learn,45065.99998474121,Fri Jan 17 2025 13:42:28 GMT-0500 (Eastern Standard Time),149322.39999961853,A,cabin,I,n,145,3,1500.099998474121,147822.3000011444,9002,WL,B,5.0
1,15.516999959945679,learn,44483.00004005432,Fri Jan 17 2025 13:42:28 GMT-0500 (Eastern Standard Time),149905.0,A,cabinenter,I,enter,546,3,2082.699998855591,147822.3000011444,9002,WL,B,5.0
1,15.967000007629395,learn,44032.999992370605,Fri Jan 17 2025 13:42:28 GMT-0500 (Eastern Standard Time),150355.39999961853,A,f,I,f,426,3,449.8999996185303,149905.5,9002,WL,B,6.0
1,16.117000102996826,learn,43882.999897003174,Fri Jan 17 2025 13:42:28 GMT-0500 (Eastern Standard Time),150505.70000076294,A,fi,I,i,133,3,600.2000007629395,149905.5,9002,WL,B,6.0
1,16.299999952316284,learn,43700.000047683716,Fri Jan 17 2025 13:42:28 GMT-0500 (Eastern Standard Time),150688.70000076294,A,fir,I,r,158,3,783.2000007629395,149905.5,9002,WL,B,6.0
1,16.450000047683716,learn,43549.999952316284,Fri Jan 17 2025 13:42:28 GMT-0500 (Eastern Standard Time),150838.8000011444,A,fire,I,e,135,3,933.3000011444092,149905.5,9002,WL,B,6.0
1,18.08299994468689,learn,41917.00005531311,Fri Jan 17 2025 13:42:28 GMT-0500 (Eastern Standard Time),152471.70000076294,A,fireenter,I,enter,1608,3,2566.2000007629395,149905.5,9002,WL,B,6.0
1,18.58400011062622,learn,41415.99988937378,Fri Jan 17 2025 13:42:28 GMT-0500 (Eastern Standard Time),152972.39999961853,A,c,I,c,484,3,500.29999923706055,152472.10000038147,9002,WL,B,7.0
1,18.733999967575073,learn,41266.00003242493,Fri Jan 17 2025 13:42:28 GMT-0500 (Eastern Standard Time),153122.20000076294,A,cl,I,l,122,3,650.1000003814697,152472.10000038147,9002,WL,B,7.0
1,18.91700005531311,learn,41082.99994468689,Fri Jan 17 2025 13:42:28 GMT-0500 (Eastern Standard Time),153305.10000038147,A,clo,I,o,166,3,833.0,152472.10000038147,9002,WL,B,7.0
1,19.700000047683716,learn,40299.999952316284,Fri Jan 17 2025 13:42:28 GMT-0500 (Eastern Standard Time),154088.8000011444,A,cloc,I,c,770,3,1616.7000007629395,152472.10000038147,9002,WL,B,7.0
1,19.90000009536743,learn,40099.99990463257,Fri Jan 17 2025 13:42:28 GMT-0500 (Eastern Standard Time),154288.8000011444,A,clock,I,k,175,3,1816.7000007629395,152472.10000038147,9002,WL,B,7.0
1,20.549999952316284,learn,39450.000047683716,Fri Jan 17 2025 13:42:28 GMT-0500 (Eastern Standard Time),154938.39999961853,A,clockenter,I,enter,631,3,2466.2999992370605,152472.10000038147,9002,WL,B,7.0
1,21.317000150680542,learn,38682.99984931946,Fri Jan 17 2025 13:42:28 GMT-0500 (Eastern Standard Time),155705.60000038147,A,p,I,p,752,3,766.7999992370605,154938.8000011444,9002,WL,B,8.0
1,21.600000143051147,learn,38399.99985694885,Fri Jan 17 2025 13:42:28 GMT-0500 (Eastern Standard Time),155988.5,A,pu,I,u,270,3,1049.6999988555908,154938.8000011444,9002,WL,B,8.0
1,22.233999967575073,learn,37766.00003242493,Fri Jan 17 2025 13:42:28 GMT-0500 (Eastern Standard Time),156622.3000011444,A,pup,I,p,613,3,1683.5,154938.8000011444,9002,WL,B,8.0
1,22.483999967575073,learn,37516.00003242493,Fri Jan 17 2025 13:42:28 GMT-0500 (Eastern Standard Time),156872.3000011444,A,pupl,I,l,231,3,1933.5,154938.8000011444,9002,WL,B,8.0
1,23.0,learn,37000.0,Fri Jan 17 2025 13:42:28 GMT-0500 (Eastern Standard Time),157388.8000011444,A,pup,I,backspace,495,3,2450.0,154938.8000011444,9002,WL,B,8.0
1,23.25,learn,36750.0,Fri Jan 17 2025 13:42:28 GMT-0500 (Eastern Standard Time),157638.70000076294,A,pupi,I,i,236,3,2699.8999996185303,154938.8000011444,9002,WL,B,8.0
1,23.533999919891357,learn,36466.00008010864,Fri Jan 17 2025 13:42:28 GMT-0500 (Eastern Standard Time),157922.39999961853,A,pupil,I,l,257,3,2983.599998474121,154938.8000011444,9002,WL,B,8.0
1,24.867000102996826,learn,35132.999897003174,Fri Jan 17 2025 13:42:28 GMT-0500 (Eastern Standard Time),159255.10000038147,A,pupilenter,I,enter,1316,3,4316.299999237061,154938.8000011444,9002,WL,B,8.0
1,32.66700005531311,learn,27332.99994468689,Fri Jan 17 2025 13:42:28 GMT-0500 (Eastern Standard Time),167055.70000076294,A,g,I,g,7780,3,7800.300001144409,159255.39999961853,9002,WL,B,9.0
1,32.88300013542175,learn,27116.999864578247,Fri Jan 17 2025 13:42:28 GMT-0500 (Eastern Standard Time),167271.70000076294,A,gr,I,r,199,3,8016.300001144409,159255.39999961853,9002,WL,B,9.0
1,33.03399991989136,learn,26966.000080108643,Fri Jan 17 2025 13:42:28 GMT-0500 (Eastern Standard Time),167422.20000076294,A,gra,I,a,132,3,8166.800001144409,159255.39999961853,9002,WL,B,9.0
1,33.28399991989136,learn,26716.000080108643,Fri Jan 17 2025 13:42:28 GMT-0500 (Eastern Standard Time),167672.39999961853,A,gras,I,s,225,3,8417.0,159255.39999961853,9002,WL,B,9.0
1,33.450000047683716,learn,26549.999952316284,Fri Jan 17 2025 13:42:28 GMT-0500 (Eastern Standard Time),167838.60000038147,A,grass,I,s,143,3,8583.20000076294,159255.39999961853,9002,WL,B,9.0
1,33.85000014305115,learn,26149.999856948853,Fri Jan 17 2025 13:42:28 GMT-0500 (Eastern Standard Time),168238.39999961853,A,grassenter,I,enter,374,3,8983.0,159255.39999961853,9002,WL,B,9.0
1,37.90000009536743,learn,22099.99990463257,Fri Jan 17 2025 13:42:28 GMT-0500 (Eastern Standard Time),172288.8000011444,A,c,I,c,4029,3,4050.0,168238.8000011444,9002,WL,B,10.0
1,38.08400011062622,learn,21915.99988937378,Fri Jan 17 2025 13:42:28 GMT-0500 (Eastern Standard Time),172472.39999961853,A,ca,I,a,167,3,4233.599998474121,168238.8000011444,9002,WL,B,10.0
1,38.33400011062622,learn,21665.99988937378,Fri Jan 17 2025 13:42:28 GMT-0500 (Eastern Standard Time),172722.3000011444,A,cab,I,b,215,3,4483.5,168238.8000011444,9002,WL,B,10.0
1,38.68400001525879,learn,21315.99998474121,Fri Jan 17 2025 13:42:28 GMT-0500 (Eastern Standard Time),173072.39999961853,A,cabi,I,i,326,3,4833.599998474121,168238.8000011444,9002,WL,B,10.0
1,39.25,learn,20750.0,Fri Jan 17 2025 13:42:28 GMT-0500 (Eastern Standard Time),173638.8000011444,A,cabin,I,n,552,3,5400.0,168238.8000011444,9002,WL,B,10.0
1,39.88300013542175,learn,20116.999864578247,Fri Jan 17 2025 13:42:28 GMT-0500 (Eastern Standard Time),174271.60000038147,A,cabinenter,I,enter,602,3,6032.799999237061,168238.8000011444,9002,WL,B,10.0
1,40.700000047683716,learn,19299.999952316284,Fri Jan 17 2025 13:42:28 GMT-0500 (Eastern Standard Time),175088.89999961853,A,l,I,l,795,3,816.8999996185303,174272.0,9002,WL,B,11.0
1,40.884000062942505,learn,19115.999937057495,Fri Jan 17 2025 13:42:28 GMT-0500 (Eastern Standard Time),175272.3000011444,A,lo,I,o,167,3,1000.3000011444092,174272.0,9002,WL,B,11.0
1,41.01699995994568,learn,18983.00004005432,Fri Jan 17 2025 13:42:28 GMT-0500 (Eastern Standard Time),175405.5,A,log,I,g,112,3,1133.5,174272.0,9002,WL,B,11.0
1,41.23300004005432,learn,18766.99995994568,Fri Jan 17 2025 13:42:28 GMT-0500 (Eastern Standard Time),175621.8000011444,A,logenter,I,enter,191,3,1349.8000011444092,174272.0,9002,WL,B,11.0
1,60.01699995994568,learn,-16.99995994567871,Fri Jan 17 2025 13:42:28 GMT-0500 (Eastern Standard Time),194405.60000038147,A,None,I,None,18774,3,18783.39999961853,175622.20000076294,9002,WL,B,12.0
2,1.4500000476837158,learn,58549.999952316284,Fri Jan 17 2025 13:42:28 GMT-0500 (Eastern Standard Time),278472.3000011444,A,s,I,s,1435,3,1449.3000011444092,277023.0,9002,WL,B,1.0
2,1.75,learn,58250.0,Fri Jan 17 2025 13:42:28 GMT-0500 (Eastern Standard Time),278772.3000011444,A,st,I,t,271,3,1749.3000011444092,277023.0,9002,WL,B,1.0
2,2.132999897003174,learn,57867.000102996826,Fri Jan 17 2025 13:42:28 GMT-0500 (Eastern Standard Time),279155.5,A,str,I,r,355,3,2132.5,277023.0,9002,WL,B,1.0
2,2.433000087738037,learn,57566.99991226196,Fri Jan 17 2025 13:42:28 GMT-0500 (Eastern Standard Time),279455.5,A,stre,I,e,277,3,2432.5,277023.0,9002,WL,B,1.0
2,2.5999999046325684,learn,57400.00009536743,Fri Jan 17 2025 13:42:28 GMT-0500 (Eastern Standard Time),279622.39999961853,A,stree,I,e,145,3,2599.3999996185303,277023.0,9002,WL,B,1.0
2,3.4159998893737793,learn,56584.00011062622,Fri Jan 17 2025 13:42:28 GMT-0500 (Eastern Standard Time),280438.70000076294,A,street,I,t,792,3,3415.7000007629395,277023.0,9002,WL,B,1.0
2,3.7990000247955322,learn,56200.99997520447,Fri Jan 17 2025 13:42:28 GMT-0500 (Eastern Standard Time),280821.89999961853,A,streetenter,I,enter,370,3,3798.8999996185303,277023.0,9002,WL,B,1.0
2,4.2170000076293945,learn,55782.999992370605,Fri Jan 17 2025 13:42:28 GMT-0500 (Eastern Standard Time),281239.0,A,g,I,g,405,3,416.79999923706055,280822.20000076294,9002,WL,B,2.0
2,4.433000087738037,learn,55566.99991226196,Fri Jan 17 2025 13:42:28 GMT-0500 (Eastern Standard Time),281455.10000038147,A,gr,I,r,191,3,632.8999996185303,280822.20000076294,9002,WL,B,2.0
2,4.549999952316284,learn,55450.000047683716,Fri Jan 17 2025 13:42:28 GMT-0500 (Eastern Standard Time),281572.0,A,gre,I,e,91,3,749.7999992370605,280822.20000076294,9002,WL,B,2.0
2,5.065999984741211,learn,54934.00001525879,Fri Jan 17 2025 13:42:28 GMT-0500 (Eastern Standard Time),282088.89999961853,A,grea,I,a,490,3,1266.6999988555908,280822.20000076294,9002,WL,B,2.0
2,5.434000015258789,learn,54565.99998474121,Fri Jan 17 2025 13:42:28 GMT-0500 (Eastern Standard Time),282456.0,A,gre,I,backspace,349,3,1633.7999992370605,280822.20000076294,9002,WL,B,2.0
2,5.549999952316284,learn,54450.000047683716,Fri Jan 17 2025 13:42:28 GMT-0500 (Eastern Standard Time),282572.5,A,gr,I,backspace,100,3,1750.2999992370605,280822.20000076294,9002,WL,B,2.0
2,5.816999912261963,learn,54183.00008773804,Fri Jan 17 2025 13:42:28 GMT-0500 (Eastern Standard Time),282839.0,A,gra,I,a,242,3,2016.7999992370605,280822.20000076294,9002,WL,B,2.0
2,6.183000087738037,learn,53816.99991226196,Fri Jan 17 2025 13:42:28 GMT-0500 (Eastern Standard Time),283205.5,A,gras,I,s,354,3,2383.2999992370605,280822.20000076294,9002,WL,B,2.0
2,6.382999897003174,learn,53617.000102996826,Fri Jan 17 2025 13:42:28 GMT-0500 (Eastern Standard Time),283405.70000076294,A,grass,I,s,178,3,2583.5,280822.20000076294,9002,WL,B,2.0
2,8.315999984741211,learn,51684.00001525879,Fri Jan 17 2025 13:42:28 GMT-0500 (Eastern Standard Time),285338.5,A,grassenter,I,enter,1914,3,4516.299999237061,280822.20000076294,9002,WL,B,2.0
2,9.66599988937378,learn,50334.00011062622,Fri Jan 17 2025 13:42:28 GMT-0500 (Eastern Standard Time),286688.89999961853,A,d,I,d,1329,3,1350.0,285338.89999961853,9002,WL,B,3.0
2,9.849999904632568,learn,50150.00009536743,Fri Jan 17 2025 13:42:28 GMT-0500 (Eastern Standard Time),286872.39999961853,A,do,I,o,167,3,1533.5,285338.89999961853,9002,WL,B,3.0
2,10.016999959945679,learn,49983.00004005432,Fri Jan 17 2025 13:42:28 GMT-0500 (Eastern Standard Time),287039.10000038147,A,doo,I,o,135,3,1700.2000007629395,285338.89999961853,9002,WL,B,3.0
2,10.5,learn,49500.0,Fri Jan 17 2025 13:42:28 GMT-0500 (Eastern Standard Time),287522.5,A,door,I,r,457,3,2183.6000003814697,285338.89999961853,9002,WL,B,3.0
2,11.233000040054321,learn,48766.99995994568,Fri Jan 17 2025 13:42:28 GMT-0500 (Eastern Standard Time),288255.20000076294,A,doorenter,I,enter,698,3,2916.300001144409,285338.89999961853,9002,WL,B,3.0
2,11.782999992370605,learn,48217.000007629395,Fri Jan 17 2025 13:42:28 GMT-0500 (Eastern Standard Time),288805.39999961853,A,a,I,a,540,3,549.6999988555908,288255.70000076294,9002,WL,B,4.0
2,12.049999952316284,learn,47950.000047683716,Fri Jan 17 2025 13:42:28 GMT-0500 (Eastern Standard Time),289072.5,A,ar,I,r,232,3,816.7999992370605,288255.70000076294,9002,WL,B,4.0
2,12.632999897003174,learn,47367.000102996826,Fri Jan 17 2025 13:42:28 GMT-0500 (Eastern Standard Time),289655.8000011444,A,arm,I,m,566,3,1400.1000003814697,288255.70000076294,9002,WL,B,4.0
2,13.266000032424927,learn,46733.99996757507,Fri Jan 17 2025 13:42:28 GMT-0500 (Eastern Standard Time),290288.5,A,armenter,I,enter,608,3,2032.7999992370605,288255.70000076294,9002,WL,B,4.0
2,13.700000047683716,learn,46299.999952316284,Fri Jan 17 2025 13:42:28 GMT-0500 (Eastern Standard Time),290722.0,A,w,I,w,410,3,433.1000003814697,290288.89999961853,9002,WL,B,5.0
2,13.849999904632568,learn,46150.00009536743,Fri Jan 17 2025 13:42:28 GMT-0500 (Eastern Standard Time),290872.39999961853,A,wi,I,i,137,3,583.5,290288.89999961853,9002,WL,B,5.0
2,14.049999952316284,learn,45950.000047683716,Fri Jan 17 2025 13:42:28 GMT-0500 (Eastern Standard Time),291072.39999961853,A,win,I,n,167,3,783.5,290288.89999961853,9002,WL,B,5.0
2,14.58299994468689,learn,45417.00005531311,Fri Jan 17 2025 13:42:28 GMT-0500 (Eastern Standard Time),291605.5,A,wind,I,d,520,3,1316.6000003814697,290288.89999961853,9002,WL,B,5.0
2,15.16599988937378,learn,44834.00011062622,Fri Jan 17 2025 13:42:28 GMT-0500 (Eastern Standard Time),292188.89999961853,A,windo,I,o,562,3,1900.0,290288.89999961853,9002,WL,B,5.0
2,15.450000047683716,learn,44549.999952316284,Fri Jan 17 2025 13:42:28 GMT-0500 (Eastern Standard Time),292472.39999961853,A,window,I,w,268,3,2183.5,290288.89999961853,9002,WL,B,5.0
2,15.933000087738037,learn,44066.99991226196,Fri Jan 17 2025 13:42:28 GMT-0500 (Eastern Standard Time),292955.3000011444,A,windowenter,I,enter,463,3,2666.400001525879,290288.89999961853,9002,WL,B,5.0
2,16.382999897003174,learn,43617.000102996826,Fri Jan 17 2025 13:42:28 GMT-0500 (Eastern Standard Time),293405.8000011444,A,w,I,w,432,3,450.20000076293945,292955.60000038147,9002,WL,B,6.0
2,16.549999952316284,learn,43450.000047683716,Fri Jan 17 2025 13:42:28 GMT-0500 (Eastern Standard Time),293572.70000076294,A,wi,I,i,155,3,617.1000003814697,292955.60000038147,9002,WL,B,6.0
2,17.116999864578247,learn,42883.00013542175,Fri Jan 17 2025 13:42:28 GMT-0500 (Eastern Standard Time),294139.0,A,wif,I,f,538,3,1183.3999996185303,292955.60000038147,9002,WL,B,6.0
2,17.282999992370605,learn,42717.000007629395,Fri Jan 17 2025 13:42:28 GMT-0500 (Eastern Standard Time),294305.60000038147,A,wife,I,e,141,3,1350.0,292955.60000038147,9002,WL,B,6.0
2,18.632999897003174,learn,41367.000102996826,Fri Jan 17 2025 13:42:28 GMT-0500 (Eastern Standard Time),295655.20000076294,A,wifeenter,I,enter,1324,3,2699.6000003814697,292955.60000038147,9002,WL,B,6.0
2,19.766000032424927,learn,40233.99996757507,Fri Jan 17 2025 13:42:28 GMT-0500 (Eastern Standard Time),296788.8000011444,A,s,I,s,1124,3,1133.2000007629395,295655.60000038147,9002,WL,B,7.0
2,19.91599988937378,learn,40084.00011062622,Fri Jan 17 2025 13:42:28 GMT-0500 (Eastern Standard Time),296938.60000038147,A,sk,I,k,128,3,1283.0,295655.60000038147,9002,WL,B,7.0
2,20.116999864578247,learn,39883.00013542175,Fri Jan 17 2025 13:42:28 GMT-0500 (Eastern Standard Time),297138.89999961853,A,ski,I,i,177,3,1483.2999992370605,295655.60000038147,9002,WL,B,7.0
2,20.51699995994568,learn,39483.00004005432,Fri Jan 17 2025 13:42:28 GMT-0500 (Eastern Standard Time),297539.0,A,skin,I,n,374,3,1883.3999996185303,295655.60000038147,9002,WL,B,7.0
2,21.032999992370605,learn,38967.000007629395,Fri Jan 17 2025 13:42:28 GMT-0500 (Eastern Standard Time),298055.3000011444,A,skinenter,I,enter,500,3,2399.7000007629395,295655.60000038147,9002,WL,B,7.0
2,21.532999992370605,learn,38467.000007629395,Fri Jan 17 2025 13:42:28 GMT-0500 (Eastern Standard Time),298555.70000076294,A,p,I,p,484,3,500.0,298055.70000076294,9002,WL,B,8.0
2,21.84999990463257,learn,38150.00009536743,Fri Jan 17 2025 13:42:28 GMT-0500 (Eastern Standard Time),298872.20000076294,A,pi,I,i,301,3,816.5,298055.70000076294,9002,WL,B,8.0
2,22.33299994468689,learn,37667.00005531311,Fri Jan 17 2025 13:42:28 GMT-0500 (Eastern Standard Time),299355.89999961853,A,pip,I,p,464,3,1300.1999988555908,298055.70000076294,9002,WL,B,8.0
2,22.66700005531311,learn,37332.99994468689,Fri Jan 17 2025 13:42:28 GMT-0500 (Eastern Standard Time),299689.0,A,pipe,I,e,317,3,1633.2999992370605,298055.70000076294,9002,WL,B,8.0
2,23.966000080108643,learn,36033.99991989136,Fri Jan 17 2025 13:42:28 GMT-0500 (Eastern Standard Time),300988.5,A,pipeenter,I,enter,1278,3,2932.7999992370605,298055.70000076294,9002,WL,B,8.0
2,24.48300004005432,learn,35516.99995994568,Fri Jan 17 2025 13:42:28 GMT-0500 (Eastern Standard Time),301505.70000076294,A,p,I,p,495,3,516.8999996185303,300988.8000011444,9002,WL,B,9.0
2,24.84999990463257,learn,35150.00009536743,Fri Jan 17 2025 13:42:28 GMT-0500 (Eastern Standard Time),301872.39999961853,A,pu,I,u,342,3,883.5999984741211,300988.8000011444,9002,WL,B,9.0
2,25.516000032424927,learn,34483.99996757507,Fri Jan 17 2025 13:42:28 GMT-0500 (Eastern Standard Time),302538.89999961853,A,pup,I,p,648,3,1550.099998474121,300988.8000011444,9002,WL,B,9.0
2,25.75,learn,34250.0,Fri Jan 17 2025 13:42:28 GMT-0500 (Eastern Standard Time),302772.3000011444,A,pupl,I,l,206,3,1783.5,300988.8000011444,9002,WL,B,9.0
2,26.56599998474121,learn,33434.00001525879,Fri Jan 17 2025 13:42:28 GMT-0500 (Eastern Standard Time),303588.70000076294,A,pup,I,backspace,797,3,2599.8999996185303,300988.8000011444,9002,WL,B,9.0
2,26.816999912261963,learn,33183.00008773804,Fri Jan 17 2025 13:42:28 GMT-0500 (Eastern Standard Time),303839.0,A,pupi,I,i,227,3,2850.199998855591,300988.8000011444,9002,WL,B,9.0
2,27.450000047683716,learn,32549.999952316284,Fri Jan 17 2025 13:42:28 GMT-0500 (Eastern Standard Time),304472.5,A,pupil,I,l,609,3,3483.699998855591,300988.8000011444,9002,WL,B,9.0
2,28.282999992370605,learn,31717.000007629395,Fri Jan 17 2025 13:42:28 GMT-0500 (Eastern Standard Time),305305.20000076294,A,pupilenter,I,enter,814,3,4316.39999961853,300988.8000011444,9002,WL,B,9.0
2,28.950000047683716,learn,31049.999952316284,Fri Jan 17 2025 13:42:28 GMT-0500 (Eastern Standard Time),305972.5,A,c,I,c,642,3,666.8999996185303,305305.60000038147,9002,WL,B,10.0
2,29.08299994468689,learn,30917.00005531311,Fri Jan 17 2025 13:42:28 GMT-0500 (Eastern Standard Time),306105.70000076294,A,cl,I,l,116,3,800.1000003814697,305305.60000038147,9002,WL,B,10.0
2,29.365999937057495,learn,30634.000062942505,Fri Jan 17 2025 13:42:28 GMT-0500 (Eastern Standard Time),306388.60000038147,A,clo,I,o,263,3,1083.0,305305.60000038147,9002,WL,B,10.0
2,30.06599998474121,learn,29934.00001525879,Fri Jan 17 2025 13:42:28 GMT-0500 (Eastern Standard Time),307088.89999961853,A,cloc,I,c,675,3,1783.2999992370605,305305.60000038147,9002,WL,B,10.0
2,30.467000007629395,learn,29532.999992370605,Fri Jan 17 2025 13:42:28 GMT-0500 (Eastern Standard Time),307489.10000038147,A,clock,I,k,376,3,2183.5,305305.60000038147,9002,WL,B,10.0
2,31.23300004005432,learn,28766.99995994568,Fri Jan 17 2025 13:42:28 GMT-0500 (Eastern Standard Time),308255.3000011444,A,clockenter,I,enter,734,3,2949.7000007629395,305305.60000038147,9002,WL,B,10.0
2,31.98300004005432,learn,28016.99995994568,Fri Jan 17 2025 13:42:28 GMT-0500 (Eastern Standard Time),309005.89999961853,A,f,I,f,732,3,750.2999992370605,308255.60000038147,9002,WL,B,11.0
2,32.14999985694885,learn,27850.000143051147,Fri Jan 17 2025 13:42:28 GMT-0500 (Eastern Standard Time),309172.10000038147,A,fi,I,i,130,3,916.5,308255.60000038147,9002,WL,B,11.0
2,32.68300008773804,learn,27316.999912261963,Fri Jan 17 2025 13:42:28 GMT-0500 (Eastern Standard Time),309705.89999961853,A,fir,I,r,517,3,1450.2999992370605,308255.60000038147,9002,WL,B,11.0
2,33.01699995994568,learn,26983.00004005432,Fri Jan 17 2025 13:42:28 GMT-0500 (Eastern Standard Time),310038.89999961853,A,fire,I,e,318,3,1783.2999992370605,308255.60000038147,9002,WL,B,11.0
2,34.365999937057495,learn,25634.000062942505,Fri Jan 17 2025 13:42:28 GMT-0500 (Eastern Standard Time),311388.3000011444,A,fireenter,I,enter,1329,3,3132.7000007629395,308255.60000038147,9002,WL,B,11.0
2,38.11699986457825,learn,21883.000135421753,Fri Jan 17 2025 13:42:28 GMT-0500 (Eastern Standard Time),315139.10000038147,A,l,I,l,3726,3,3750.3999996185303,311388.70000076294,9002,WL,B,12.0
2,38.21600008010864,learn,21783.999919891357,Fri Jan 17 2025 13:42:28 GMT-0500 (Eastern Standard Time),315238.70000076294,A,la,I,a,86,3,3850.0,311388.70000076294,9002,WL,B,12.0
2,39.0,learn,21000.0,Fri Jan 17 2025 13:42:28 GMT-0500 (Eastern Standard Time),316022.3000011444,A,lak,I,k,761,3,4633.60000038147,311388.70000076294,9002,WL,B,12.0
2,39.217000007629395,learn,20782.999992370605,Fri Jan 17 2025 13:42:28 GMT-0500 (Eastern Standard Time),316239.0,A,lake,I,e,195,3,4850.299999237061,311388.70000076294,9002,WL,B,12.0
2,39.98300004005432,learn,20016.99995994568,Fri Jan 17 2025 13:42:28 GMT-0500 (Eastern Standard Time),317005.20000076294,A,lakeenter,I,enter,733,3,5616.5,311388.70000076294,9002,WL,B,12.0
2,40.86699986457825,learn,19133.000135421753,Fri Jan 17 2025 13:42:28 GMT-0500 (Eastern Standard Time),317889.10000038147,A,c,I,c,862,3,883.5,317005.60000038147,9002,WL,B,13.0
2,41.0,learn,19000.0,Fri Jan 17 2025 13:42:28 GMT-0500 (Eastern Standard Time),318022.3000011444,A,ca,I,a,120,3,1016.7000007629395,317005.60000038147,9002,WL,B,13.0
2,41.33299994468689,learn,18667.00005531311,Fri Jan 17 2025 13:42:28 GMT-0500 (Eastern Standard Time),318355.8000011444,A,cab,I,b,296,3,1350.2000007629395,317005.60000038147,9002,WL,B,13.0
2,41.59999990463257,learn,18400.00009536743,Fri Jan 17 2025 13:42:28 GMT-0500 (Eastern Standard Time),318622.10000038147,A,cabi,I,i,245,3,1616.5,317005.60000038147,9002,WL,B,13.0
2,42.09999990463257,learn,17900.00009536743,Fri Jan 17 2025 13:42:28 GMT-0500 (Eastern Standard Time),319122.3000011444,A,cabin,I,n,475,3,2116.7000007629395,317005.60000038147,9002,WL,B,13.0
2,44.23300004005432,learn,15766.999959945679,Fri Jan 17 2025 13:42:28 GMT-0500 (Eastern Standard Time),321255.20000076294,A,cabinenter,I,enter,2117,3,4249.60000038147,317005.60000038147,9002,WL,B,13.0
2,60.01699995994568,learn,-16.99995994567871,Fri Jan 17 2025 13:42:28 GMT-0500 (Eastern Standard Time),337039.0,A,None,I,None,15775,3,15783.39999961853,321255.60000038147,9002,WL,B,14.0
3,2.183000087738037,learn,57816.99991226196,Fri Jan 17 2025 13:42:28 GMT-0500 (Eastern Standard Time),412522.5,A,s,I,s,2166,3,2182.7999992370605,410339.70000076294,9002,WL,B,1.0
3,2.75,learn,57250.0,Fri Jan 17 2025 13:42:28 GMT-0500 (Eastern Standard Time),413089.20000076294,A,st,I,t,541,3,2749.5,410339.70000076294,9002,WL,B,1.0
3,3.5160000324249268,learn,56483.99996757507,Fri Jan 17 2025 13:42:28 GMT-0500 (Eastern Standard Time),413855.89999961853,A,str,I,r,742,3,3516.199998855591,410339.70000076294,9002,WL,B,1.0
3,4.366000175476074,learn,55633.999824523926,Fri Jan 17 2025 13:42:28 GMT-0500 (Eastern Standard Time),414705.89999961853,A,stre,I,e,824,3,4366.199998855591,410339.70000076294,9002,WL,B,1.0
3,4.633000135421753,learn,55366.99986457825,Fri Jan 17 2025 13:42:28 GMT-0500 (Eastern Standard Time),414972.60000038147,A,stree,I,e,247,3,4632.89999961853,410339.70000076294,9002,WL,B,1.0
3,4.983000040054321,learn,55016.99995994568,Fri Jan 17 2025 13:42:28 GMT-0500 (Eastern Standard Time),415322.60000038147,A,street,I,t,331,3,4982.89999961853,410339.70000076294,9002,WL,B,1.0
3,6.432000160217285,learn,53567.999839782715,Fri Jan 17 2025 13:42:28 GMT-0500 (Eastern Standard Time),416771.8000011444,A,streetenter,I,enter,1434,3,6432.10000038147,410339.70000076294,9002,WL,B,1.0
3,6.883000135421753,learn,53116.99986457825,Fri Jan 17 2025 13:42:28 GMT-0500 (Eastern Standard Time),417222.39999961853,A,g,I,g,440,3,450.29999923706055,416772.10000038147,9002,WL,B,2.0
3,7.116000175476074,learn,52883.999824523926,Fri Jan 17 2025 13:42:28 GMT-0500 (Eastern Standard Time),417455.70000076294,A,gr,I,r,209,3,683.6000003814697,416772.10000038147,9002,WL,B,2.0
3,7.233000040054321,learn,52766.99995994568,Fri Jan 17 2025 13:42:28 GMT-0500 (Eastern Standard Time),417572.39999961853,A,gra,I,a,88,3,800.2999992370605,416772.10000038147,9002,WL,B,2.0
3,7.799000024795532,learn,52200.99997520447,Fri Jan 17 2025 13:42:28 GMT-0500 (Eastern Standard Time),418138.8000011444,A,gras,I,s,548,3,1366.7000007629395,416772.10000038147,9002,WL,B,2.0
3,7.999000072479248,learn,52000.99992752075,Fri Jan 17 2025 13:42:28 GMT-0500 (Eastern Standard Time),418338.60000038147,A,grass,I,s,175,3,1566.5,416772.10000038147,9002,WL,B,2.0
3,8.983000040054321,learn,51016.99995994568,Fri Jan 17 2025 13:42:28 GMT-0500 (Eastern Standard Time),419322.10000038147,A,grassenter,I,enter,963,3,2550.0,416772.10000038147,9002,WL,B,2.0
3,9.466000080108643,learn,50533.99991989136,Fri Jan 17 2025 13:42:28 GMT-0500 (Eastern Standard Time),419805.89999961853,A,d,I,d,466,3,483.5,419322.39999961853,9002,WL,B,3.0
3,9.633000135421753,learn,50366.99986457825,Fri Jan 17 2025 13:42:28 GMT-0500 (Eastern Standard Time),419972.60000038147,A,do,I,o,154,3,650.2000007629395,419322.39999961853,9002,WL,B,3.0
3,9.850000143051147,learn,50149.99985694885,Fri Jan 17 2025 13:42:28 GMT-0500 (Eastern Standard Time),420189.10000038147,A,doo,I,o,195,3,866.7000007629395,419322.39999961853,9002,WL,B,3.0
3,10.299999952316284,learn,49700.000047683716,Fri Jan 17 2025 13:42:28 GMT-0500 (Eastern Standard Time),420639.3000011444,A,door,I,r,426,3,1316.900001525879,419322.39999961853,9002,WL,B,3.0
3,11.282999992370605,learn,48717.000007629395,Fri Jan 17 2025 13:42:28 GMT-0500 (Eastern Standard Time),421621.89999961853,A,doorenter,I,enter,966,3,2299.5,419322.39999961853,9002,WL,B,3.0
3,11.700000047683716,learn,48299.999952316284,Fri Jan 17 2025 13:42:28 GMT-0500 (Eastern Standard Time),422039.10000038147,A,a,I,a,406,3,416.79999923706055,421622.3000011444,9002,WL,B,4.0
3,11.900000095367432,learn,48099.99990463257,Fri Jan 17 2025 13:42:28 GMT-0500 (Eastern Standard Time),422239.10000038147,A,ar,I,r,169,3,616.7999992370605,421622.3000011444,9002,WL,B,4.0
3,12.183000087738037,learn,47816.99991226196,Fri Jan 17 2025 13:42:28 GMT-0500 (Eastern Standard Time),422522.60000038147,A,arm,I,m,266,3,900.2999992370605,421622.3000011444,9002,WL,B,4.0
3,12.749000072479248,learn,47250.99992752075,Fri Jan 17 2025 13:42:28 GMT-0500 (Eastern Standard Time),423088.60000038147,A,armenter,I,enter,540,3,1466.2999992370605,421622.3000011444,9002,WL,B,4.0
3,13.183000087738037,learn,46816.99991226196,Fri Jan 17 2025 13:42:28 GMT-0500 (Eastern Standard Time),423522.0,A,s,I,s,410,3,433.0,423089.0,9002,WL,B,5.0
3,13.350000143051147,learn,46649.99985694885,Fri Jan 17 2025 13:42:28 GMT-0500 (Eastern Standard Time),423689.20000076294,A,st,I,t,153,3,600.2000007629395,423089.0,9002,WL,B,5.0
3,13.565999984741211,learn,46434.00001525879,Fri Jan 17 2025 13:42:28 GMT-0500 (Eastern Standard Time),423905.8000011444,A,sta,I,a,182,3,816.8000011444092,423089.0,9002,WL,B,5.0
3,13.666000127792358,learn,46333.99987220764,Fri Jan 17 2025 13:42:28 GMT-0500 (Eastern Standard Time),424005.60000038147,A,star,I,r,87,3,916.6000003814697,423089.0,9002,WL,B,5.0
3,15.848999977111816,learn,44151.00002288818,Fri Jan 17 2025 13:42:28 GMT-0500 (Eastern Standard Time),426188.70000076294,A,starenter,I,enter,2162,3,3099.7000007629395,423089.0,9002,WL,B,5.0
3,16.75,learn,43250.0,Fri Jan 17 2025 13:42:28 GMT-0500 (Eastern Standard Time),427089.10000038147,A,w,I,w,879,3,900.1000003814697,426189.0,9002,WL,B,6.0
3,17.082000017166138,learn,42917.99998283386,Fri Jan 17 2025 13:42:28 GMT-0500 (Eastern Standard Time),427421.89999961853,A,wi,I,i,310,3,1232.8999996185303,426189.0,9002,WL,B,6.0
3,17.249000072479248,learn,42750.99992752075,Fri Jan 17 2025 13:42:28 GMT-0500 (Eastern Standard Time),427588.89999961853,A,wif,I,f,158,3,1399.8999996185303,426189.0,9002,WL,B,6.0
3,17.58299994468689,learn,42417.00005531311,Fri Jan 17 2025 13:42:28 GMT-0500 (Eastern Standard Time),427922.60000038147,A,wife,I,e,308,3,1733.6000003814697,426189.0,9002,WL,B,6.0
3,18.032999992370605,learn,41967.000007629395,Fri Jan 17 2025 13:42:28 GMT-0500 (Eastern Standard Time),428372.0,A,wifeenter,I,enter,421,3,2183.0,426189.0,9002,WL,B,6.0
3,18.516000032424927,learn,41483.99996757507,Fri Jan 17 2025 13:42:28 GMT-0500 (Eastern Standard Time),428855.89999961853,A,w,I,w,472,3,483.5999984741211,428372.3000011444,9002,WL,B,7.0
3,18.782999992370605,learn,41217.000007629395,Fri Jan 17 2025 13:42:28 GMT-0500 (Eastern Standard Time),429122.70000076294,A,wi,I,i,241,3,750.3999996185303,428372.3000011444,9002,WL,B,7.0
3,19.06599998474121,learn,40934.00001525879,Fri Jan 17 2025 13:42:28 GMT-0500 (Eastern Standard Time),429405.8000011444,A,win,I,n,262,3,1033.5,428372.3000011444,9002,WL,B,7.0
3,19.600000143051147,learn,40399.99985694885,Fri Jan 17 2025 13:42:28 GMT-0500 (Eastern Standard Time),429939.3000011444,A,wind,I,d,498,3,1567.0,428372.3000011444,9002,WL,B,7.0
3,19.950000047683716,learn,40049.999952316284,Fri Jan 17 2025 13:42:28 GMT-0500 (Eastern Standard Time),430289.10000038147,A,windo,I,o,325,3,1916.7999992370605,428372.3000011444,9002,WL,B,7.0
3,21.433000087738037,learn,38566.99991226196,Fri Jan 17 2025 13:42:28 GMT-0500 (Eastern Standard Time),431772.0,A,window,I,w,1462,3,3399.699998855591,428372.3000011444,9002,WL,B,7.0
3,22.83299994468689,learn,37167.00005531311,Fri Jan 17 2025 13:42:28 GMT-0500 (Eastern Standard Time),433172.0,A,windowenter,I,enter,1391,3,4799.699998855591,428372.3000011444,9002,WL,B,7.0
3,23.683000087738037,learn,36316.99991226196,Fri Jan 17 2025 13:42:28 GMT-0500 (Eastern Standard Time),434022.5,A,p,I,p,839,3,850.1999988555908,433172.3000011444,9002,WL,B,8.0
3,24.15000009536743,learn,35849.99990463257,Fri Jan 17 2025 13:42:28 GMT-0500 (Eastern Standard Time),434489.20000076294,A,pi,I,i,442,3,1316.8999996185303,433172.3000011444,9002,WL,B,8.0
3,25.633000135421753,learn,34366.99986457825,Fri Jan 17 2025 13:42:28 GMT-0500 (Eastern Standard Time),435972.20000076294,A,pip,I,p,1456,3,2799.8999996185303,433172.3000011444,9002,WL,B,8.0
3,26.25,learn,33750.0,Fri Jan 17 2025 13:42:28 GMT-0500 (Eastern Standard Time),436589.10000038147,A,pipe,I,e,597,3,3416.7999992370605,433172.3000011444,9002,WL,B,8.0
3,26.866000175476074,learn,33133.999824523926,Fri Jan 17 2025 13:42:28 GMT-0500 (Eastern Standard Time),437205.3000011444,A,pipeenter,I,enter,595,3,4033.0,433172.3000011444,9002,WL,B,8.0
3,28.450000047683716,learn,31549.999952316284,Fri Jan 17 2025 13:42:28 GMT-0500 (Eastern Standard Time),438788.89999961853,A,f,I,f,1574,3,1583.1999988555908,437205.70000076294,9002,WL,B,9.0
3,28.600000143051147,learn,31399.999856948853,Fri Jan 17 2025 13:42:28 GMT-0500 (Eastern Standard Time),438939.20000076294,A,fi,I,i,131,3,1733.5,437205.70000076294,9002,WL,B,9.0
3,29.15000009536743,learn,30849.99990463257,Fri Jan 17 2025 13:42:28 GMT-0500 (Eastern Standard Time),439489.20000076294,A,fir,I,r,525,3,2283.5,437205.70000076294,9002,WL,B,9.0
3,29.383000135421753,learn,30616.999864578247,Fri Jan 17 2025 13:42:28 GMT-0500 (Eastern Standard Time),439722.70000076294,A,fire,I,e,215,3,2517.0,437205.70000076294,9002,WL,B,9.0
3,30.116000175476074,learn,29883.999824523926,Fri Jan 17 2025 13:42:28 GMT-0500 (Eastern Standard Time),440455.39999961853,A,fireenter,I,enter,716,3,3249.699998855591,437205.70000076294,9002,WL,B,9.0
3,30.633000135421753,learn,29366.999864578247,Fri Jan 17 2025 13:42:28 GMT-0500 (Eastern Standard Time),440972.60000038147,A,s,I,s,500,3,516.8999996185303,440455.70000076294,9002,WL,B,10.0
3,30.81599998474121,learn,29184.00001525879,Fri Jan 17 2025 13:42:28 GMT-0500 (Eastern Standard Time),441155.70000076294,A,sk,I,k,155,3,700.0,440455.70000076294,9002,WL,B,10.0
3,31.016000032424927,learn,28983.999967575073,Fri Jan 17 2025 13:42:28 GMT-0500 (Eastern Standard Time),441355.89999961853,A,ski,I,i,181,3,900.1999988555908,440455.70000076294,9002,WL,B,10.0
3,32.049999952316284,learn,27950.000047683716,Fri Jan 17 2025 13:42:28 GMT-0500 (Eastern Standard Time),442389.10000038147,A,skin,I,n,1012,3,1933.3999996185303,440455.70000076294,9002,WL,B,10.0
3,34.79900002479553,learn,25200.999975204468,Fri Jan 17 2025 13:42:28 GMT-0500 (Eastern Standard Time),445138.70000076294,A,skinenter,I,enter,2721,3,4683.0,440455.70000076294,9002,WL,B,10.0
3,35.51600003242493,learn,24483.999967575073,Fri Jan 17 2025 13:42:28 GMT-0500 (Eastern Standard Time),445855.8000011444,A,l,I,l,696,3,716.8000011444092,445139.0,9002,WL,B,11.0
3,35.76600003242493,learn,24233.999967575073,Fri Jan 17 2025 13:42:28 GMT-0500 (Eastern Standard Time),446106.0,A,la,I,a,232,3,967.0,445139.0,9002,WL,B,11.0
3,37.282999992370605,learn,22717.000007629395,Fri Jan 17 2025 13:42:28 GMT-0500 (Eastern Standard Time),447622.5,A,lak,I,k,1503,3,2483.5,445139.0,9002,WL,B,11.0
3,37.5,learn,22500.0,Fri Jan 17 2025 13:42:28 GMT-0500 (Eastern Standard Time),447839.0,A,lake,I,e,194,3,2700.0,445139.0,9002,WL,B,11.0
3,37.93400001525879,learn,22065.99998474121,Fri Jan 17 2025 13:42:28 GMT-0500 (Eastern Standard Time),448272.89999961853,A,lakeenter,I,enter,410,3,3133.8999996185303,445139.0,9002,WL,B,11.0
3,38.46600008010864,learn,21533.999919891357,Fri Jan 17 2025 13:42:28 GMT-0500 (Eastern Standard Time),448805.39999961853,A,a,I,a,521,3,532.1999988555908,448273.20000076294,9002,WL,B,12.0
3,39.032999992370605,learn,20967.000007629395,Fri Jan 17 2025 13:42:28 GMT-0500 (Eastern Standard Time),449372.3000011444,A,,I,backspace,548,3,1099.1000003814697,448273.20000076294,9002,WL,B,12.0
3,39.16600012779236,learn,20833.99987220764,Fri Jan 17 2025 13:42:28 GMT-0500 (Eastern Standard Time),449505.89999961853,A,c,I,c,104,3,1232.6999988555908,448273.20000076294,9002,WL,B,12.0
3,39.90000009536743,learn,20099.99990463257,Fri Jan 17 2025 13:42:28 GMT-0500 (Eastern Standard Time),450239.20000076294,A,ca,I,a,702,3,1966.0,448273.20000076294,9002,WL,B,12.0
3,40.08299994468689,learn,19917.00005531311,Fri Jan 17 2025 13:42:28 GMT-0500 (Eastern Standard Time),450422.5,A,cab,I,b,169,3,2149.2999992370605,448273.20000076294,9002,WL,B,12.0
3,40.449000120162964,learn,19550.999879837036,Fri Jan 17 2025 13:42:28 GMT-0500 (Eastern Standard Time),450788.89999961853,A,cabn,I,n,353,3,2515.699998855591,448273.20000076294,9002,WL,B,12.0
3,41.13300013542175,learn,18866.999864578247,Fri Jan 17 2025 13:42:28 GMT-0500 (Eastern Standard Time),451472.70000076294,A,cab,I,backspace,661,3,3199.5,448273.20000076294,9002,WL,B,12.0
3,41.782999992370605,learn,18217.000007629395,Fri Jan 17 2025 13:42:28 GMT-0500 (Eastern Standard Time),452122.60000038147,A,cabi,I,i,631,3,3849.3999996185303,448273.20000076294,9002,WL,B,12.0
3,42.0,learn,18000.0,Fri Jan 17 2025 13:42:28 GMT-0500 (Eastern Standard Time),452339.3000011444,A,cabin,I,n,189,3,4066.1000003814697,448273.20000076294,9002,WL,B,12.0
3,42.49900007247925,learn,17500.999927520752,Fri Jan 17 2025 13:42:28 GMT-0500 (Eastern Standard Time),452838.8000011444,A,cabinenter,I,enter,483,3,4565.60000038147,448273.20000076294,9002,WL,B,12.0
3,42.88300013542175,learn,17116.999864578247,Fri Jan 17 2025 13:42:28 GMT-0500 (Eastern Standard Time),453222.60000038147,A,c,I,c,372,3,383.5,452839.10000038147,9002,WL,B,13.0
3,42.96600008010864,learn,17033.999919891357,Fri Jan 17 2025 13:42:28 GMT-0500 (Eastern Standard Time),453305.60000038147,A,ci,I,i,66,3,466.5,452839.10000038147,9002,WL,B,13.0
3,43.38199996948242,learn,16618.000030517578,Fri Jan 17 2025 13:42:28 GMT-0500 (Eastern Standard Time),453721.70000076294,A,cit,I,t,399,3,882.6000003814697,452839.10000038147,9002,WL,B,13.0
3,44.76600003242493,learn,15233.999967575073,Fri Jan 17 2025 13:42:28 GMT-0500 (Eastern Standard Time),455105.70000076294,A,city,I,y,1363,3,2266.6000003814697,452839.10000038147,9002,WL,B,13.0
3,46.48300004005432,learn,13516.999959945679,Fri Jan 17 2025 13:42:28 GMT-0500 (Eastern Standard Time),456822.10000038147,A,cityenter,I,enter,1701,3,3983.0,452839.10000038147,9002,WL,B,13.0
3,47.26600003242493,learn,12733.999967575073,Fri Jan 17 2025 13:42:28 GMT-0500 (Eastern Standard Time),457605.39999961853,A,c,I,c,772,3,782.8999996185303,456822.5,9002,WL,B,14.0
3,47.41600012779236,learn,12583.999872207642,Fri Jan 17 2025 13:42:28 GMT-0500 (Eastern Standard Time),457755.70000076294,A,cl,I,l,136,3,933.2000007629395,456822.5,9002,WL,B,14.0
3,47.63300013542175,learn,12366.999864578247,Fri Jan 17 2025 13:42:28 GMT-0500 (Eastern Standard Time),457972.60000038147,A,clo,I,o,182,3,1150.1000003814697,456822.5,9002,WL,B,14.0
3,48.35000014305115,learn,11649.999856948853,Fri Jan 17 2025 13:42:28 GMT-0500 (Eastern Standard Time),458689.20000076294,A,cloc,I,c,692,3,1866.7000007629395,456822.5,9002,WL,B,14.0
3,48.83299994468689,learn,11167.00005531311,Fri Jan 17 2025 13:42:28 GMT-0500 (Eastern Standard Time),459172.10000038147,A,clock,I,k,445,3,2349.6000003814697,456822.5,9002,WL,B,14.0
3,49.26600003242493,learn,10733.999967575073,Fri Jan 17 2025 13:42:28 GMT-0500 (Eastern Standard Time),459605.3000011444,A,clockenter,I,enter,419,3,2782.800001144409,456822.5,9002,WL,B,14.0
3,59.48300004005432,learn,516.9999599456787,Fri Jan 17 2025 13:42:28 GMT-0500 (Eastern Standard Time),469822.70000076294,A,p,I,p,10198,3,10217.0,459605.70000076294,9002,WL,B,15.0
3,59.68300008773804,learn,316.9999122619629,Fri Jan 17 2025 13:42:28 GMT-0500 (Eastern Standard Time),470022.5,A,pu,I,u,186,3,10416.79999923706,459605.70000076294,9002,WL,B,15.0
3,60.032999992370605,learn,-32.99999237060547,Fri Jan 17 2025 13:42:28 GMT-0500 (Eastern Standard Time),470372.8000011444,A,puNone,I,None,332,3,10767.10000038147,459605.70000076294,9002,WL,B,15.0
4,1.6679999828338623,learn,58332.00001716614,Fri Jan 17 2025 13:42:28 GMT-0500 (Eastern Standard Time),545056.1000003815,A,s,I,s,1647,3,1667.2000007629395,543388.8999996185,9002,WL,B,1.0
4,2.1010000705718994,learn,57898.9999294281,Fri Jan 17 2025 13:42:28 GMT-0500 (Eastern Standard Time),545489.8000011444,A,st,I,t,407,3,2100.900001525879,543388.8999996185,9002,WL,B,1.0
4,2.7009999752044678,learn,57299.00002479553,Fri Jan 17 2025 13:42:28 GMT-0500 (Eastern Standard Time),546089.3000011444,A,str,I,r,583,3,2700.400001525879,543388.8999996185,9002,WL,B,1.0
4,3.0510001182556152,learn,56948.999881744385,Fri Jan 17 2025 13:42:28 GMT-0500 (Eastern Standard Time),546439.2000007629,A,stre,I,e,335,3,3050.300001144409,543388.8999996185,9002,WL,B,1.0
4,3.2339999675750732,learn,56766.00003242493,Fri Jan 17 2025 13:42:28 GMT-0500 (Eastern Standard Time),546622.7000007629,A,stree,I,e,160,3,3233.800001144409,543388.8999996185,9002,WL,B,1.0
4,3.434000015258789,learn,56565.99998474121,Fri Jan 17 2025 13:42:28 GMT-0500 (Eastern Standard Time),546822.5,A,street,I,t,185,3,3433.6000003814697,543388.8999996185,9002,WL,B,1.0
4,4.117000102996826,learn,55882.999897003174,Fri Jan 17 2025 13:42:28 GMT-0500 (Eastern Standard Time),547505.5,A,streetenter,I,enter,657,3,4116.60000038147,543388.8999996185,9002,WL,B,1.0
4,4.934000015258789,learn,55065.99998474121,Fri Jan 17 2025 13:42:28 GMT-0500 (Eastern Standard Time),548322.7000007629,A,d,I,d,794,3,816.8000011444092,547505.8999996185,9002,WL,B,2.0
4,5.134000062942505,learn,54865.999937057495,Fri Jan 17 2025 13:42:28 GMT-0500 (Eastern Standard Time),548522.8000011444,A,do,I,o,181,3,1016.9000015258789,547505.8999996185,9002,WL,B,2.0
4,5.351000070571899,learn,54648.9999294281,Fri Jan 17 2025 13:42:28 GMT-0500 (Eastern Standard Time),548739.3000011444,A,doo,I,o,193,3,1233.400001525879,547505.8999996185,9002,WL,B,2.0
4,7.368000030517578,learn,52631.99996948242,Fri Jan 17 2025 13:42:28 GMT-0500 (Eastern Standard Time),550756.0,A,do,I,backspace,1990,3,3250.1000003814697,547505.8999996185,9002,WL,B,2.0
4,7.500999927520752,learn,52499.00007247925,Fri Jan 17 2025 13:42:28 GMT-0500 (Eastern Standard Time),550889.1000003815,A,d,I,backspace,107,3,3383.2000007629395,547505.8999996185,9002,WL,B,2.0
4,7.634000062942505,learn,52365.999937057495,Fri Jan 17 2025 13:42:28 GMT-0500 (Eastern Standard Time),551022.7000007629,A,,I,backspace,113,3,3516.800001144409,547505.8999996185,9002,WL,B,2.0
4,7.934000015258789,learn,52065.99998474121,Fri Jan 17 2025 13:42:28 GMT-0500 (Eastern Standard Time),551322.7000007629,A,g,I,g,281,3,3816.800001144409,547505.8999996185,9002,WL,B,2.0
4,8.134000062942505,learn,51865.999937057495,Fri Jan 17 2025 13:42:28 GMT-0500 (Eastern Standard Time),551522.6000003815,A,gr,I,r,174,3,4016.7000007629395,547505.8999996185,9002,WL,B,2.0
4,8.283999919891357,learn,51716.00008010864,Fri Jan 17 2025 13:42:28 GMT-0500 (Eastern Standard Time),551672.2000007629,A,gra,I,a,133,3,4166.300001144409,547505.8999996185,9002,WL,B,2.0
4,8.634000062942505,learn,51365.999937057495,Fri Jan 17 2025 13:42:28 GMT-0500 (Eastern Standard Time),552022.6000003815,A,gras,I,s,337,3,4516.700000762939,547505.8999996185,9002,WL,B,2.0
4,8.818000078201294,learn,51181.999921798706,Fri Jan 17 2025 13:42:28 GMT-0500 (Eastern Standard Time),552206.0,A,grass,I,s,162,3,4700.10000038147,547505.8999996185,9002,WL,B,2.0
4,9.299999952316284,learn,50700.000047683716,Fri Jan 17 2025 13:42:28 GMT-0500 (Eastern Standard Time),552688.8000011444,A,grassenter,I,enter,450,3,5182.900001525879,547505.8999996185,9002,WL,B,2.0
4,9.700999975204468,learn,50299.00002479553,Fri Jan 17 2025 13:42:28 GMT-0500 (Eastern Standard Time),553089.2000007629,A,d,I,d,379,3,400.1000003814697,552689.1000003815,9002,WL,B,3.0
4,9.850000143051147,learn,50149.99985694885,Fri Jan 17 2025 13:42:28 GMT-0500 (Eastern Standard Time),553238.6000003815,A,do,I,o,135,3,549.5,552689.1000003815,9002,WL,B,3.0
4,10.401000022888184,learn,49598.99997711182,Fri Jan 17 2025 13:42:28 GMT-0500 (Eastern Standard Time),553789.2000007629,A,doo,I,o,531,3,1100.1000003814697,552689.1000003815,9002,WL,B,3.0
4,10.58400011062622,learn,49415.99988937378,Fri Jan 17 2025 13:42:28 GMT-0500 (Eastern Standard Time),553972.8000011444,A,door,I,r,171,3,1283.7000007629395,552689.1000003815,9002,WL,B,3.0
4,11.367000102996826,learn,48632.999897003174,Fri Jan 17 2025 13:42:28 GMT-0500 (Eastern Standard Time),554755.5,A,doorenter,I,enter,745,3,2066.3999996185303,552689.1000003815,9002,WL,B,3.0
4,12.068000078201294,learn,47931.999921798706,Fri Jan 17 2025 13:42:28 GMT-0500 (Eastern Standard Time),555456.1000003815,A,a,I,a,680,3,700.2999992370605,554755.8000011444,9002,WL,B,4.0
4,12.3510000705719,learn,47648.9999294281,Fri Jan 17 2025 13:42:28 GMT-0500 (Eastern Standard Time),555739.3000011444,A,ar,I,r,263,3,983.5,554755.8000011444,9002,WL,B,4.0
4,13.033999919891357,learn,46966.00008010864,Fri Jan 17 2025 13:42:28 GMT-0500 (Eastern Standard Time),556422.6000003815,A,arm,I,m,666,3,1666.7999992370605,554755.8000011444,9002,WL,B,4.0
4,13.66700005531311,learn,46332.99994468689,Fri Jan 17 2025 13:42:28 GMT-0500 (Eastern Standard Time),557055.3999996185,A,armenter,I,enter,610,3,2299.599998474121,554755.8000011444,9002,WL,B,4.0
4,14.167999982833862,learn,45832.00001716614,Fri Jan 17 2025 13:42:28 GMT-0500 (Eastern Standard Time),557556.0,A,s,I,s,476,3,500.1999988555908,557055.8000011444,9002,WL,B,5.0
4,14.368000030517578,learn,45631.99996948242,Fri Jan 17 2025 13:42:28 GMT-0500 (Eastern Standard Time),557756.5,A,st,I,t,179,3,700.6999988555908,557055.8000011444,9002,WL,B,5.0
4,14.568000078201294,learn,45431.999921798706,Fri Jan 17 2025 13:42:28 GMT-0500 (Eastern Standard Time),557956.2000007629,A,sta,I,a,161,3,900.3999996185303,557055.8000011444,9002,WL,B,5.0
4,14.700999975204468,learn,45299.00002479553,Fri Jan 17 2025 13:42:28 GMT-0500 (Eastern Standard Time),558089.3000011444,A,star,I,r,117,3,1033.5,557055.8000011444,9002,WL,B,5.0
4,15.717000007629395,learn,44282.999992370605,Fri Jan 17 2025 13:42:28 GMT-0500 (Eastern Standard Time),559105.5,A,starenter,I,enter,982,3,2049.699998855591,557055.8000011444,9002,WL,B,5.0
4,16.151000022888184,learn,43848.99997711182,Fri Jan 17 2025 13:42:28 GMT-0500 (Eastern Standard Time),559539.2000007629,A,w,I,w,409,3,433.20000076293945,559106.0,9002,WL,B,6.0
4,16.301000118255615,learn,43698.999881744385,Fri Jan 17 2025 13:42:28 GMT-0500 (Eastern Standard Time),559689.3000011444,A,wi,I,i,134,3,583.3000011444092,559106.0,9002,WL,B,6.0
4,16.533999919891357,learn,43466.00008010864,Fri Jan 17 2025 13:42:28 GMT-0500 (Eastern Standard Time),559922.5,A,wif,I,f,208,3,816.5,559106.0,9002,WL,B,6.0
4,17.567000150680542,learn,42432.99984931946,Fri Jan 17 2025 13:42:28 GMT-0500 (Eastern Standard Time),560955.6000003815,A,wife,I,e,1010,3,1849.6000003814697,559106.0,9002,WL,B,6.0
4,18.051000118255615,learn,41948.999881744385,Fri Jan 17 2025 13:42:28 GMT-0500 (Eastern Standard Time),561439.7000007629,A,wifeenter,I,enter,463,3,2333.7000007629395,559106.0,9002,WL,B,6.0
4,18.467999935150146,learn,41532.00006484985,Fri Jan 17 2025 13:42:28 GMT-0500 (Eastern Standard Time),561856.1000003815,A,w,I,w,396,3,416.1000003814697,561440.0,9002,WL,B,7.0
4,18.567000150680542,learn,41432.99984931946,Fri Jan 17 2025 13:42:28 GMT-0500 (Eastern Standard Time),561955.8000011444,A,wi,I,i,74,3,515.8000011444092,561440.0,9002,WL,B,7.0
4,18.83400011062622,learn,41165.99988937378,Fri Jan 17 2025 13:42:28 GMT-0500 (Eastern Standard Time),562222.8000011444,A,win,I,n,243,3,782.8000011444092,561440.0,9002,WL,B,7.0
4,19.384000062942505,learn,40615.999937057495,Fri Jan 17 2025 13:42:28 GMT-0500 (Eastern Standard Time),562772.5,A,wind,I,d,520,3,1332.5,561440.0,9002,WL,B,7.0
4,19.617000102996826,learn,40382.999897003174,Fri Jan 17 2025 13:42:28 GMT-0500 (Eastern Standard Time),563005.7000007629,A,windo,I,o,212,3,1565.7000007629395,561440.0,9002,WL,B,7.0
4,20.6010000705719,learn,39398.9999294281,Fri Jan 17 2025 13:42:28 GMT-0500 (Eastern Standard Time),563989.2000007629,A,window,I,w,970,3,2549.2000007629395,561440.0,9002,WL,B,7.0
4,21.90000009536743,learn,38099.99990463257,Fri Jan 17 2025 13:42:28 GMT-0500 (Eastern Standard Time),565288.8000011444,A,windowenter,I,enter,1282,3,3848.800001144409,561440.0,9002,WL,B,7.0
4,22.58400011062622,learn,37415.99988937378,Fri Jan 17 2025 13:42:28 GMT-0500 (Eastern Standard Time),565972.6000003815,A,c,I,c,659,3,683.3999996185303,565289.2000007629,9002,WL,B,8.0
4,22.750999927520752,learn,37249.00007247925,Fri Jan 17 2025 13:42:28 GMT-0500 (Eastern Standard Time),566138.8999996185,A,ci,I,i,146,3,849.6999988555908,565289.2000007629,9002,WL,B,8.0
4,22.950999975204468,learn,37049.00002479553,Fri Jan 17 2025 13:42:28 GMT-0500 (Eastern Standard Time),566339.2000007629,A,cit,I,t,175,3,1050.0,565289.2000007629,9002,WL,B,8.0
4,23.384000062942505,learn,36615.999937057495,Fri Jan 17 2025 13:42:28 GMT-0500 (Eastern Standard Time),566772.8999996185,A,city,I,y,417,3,1483.6999988555908,565289.2000007629,9002,WL,B,8.0
4,25.6010000705719,learn,34398.9999294281,Fri Jan 17 2025 13:42:28 GMT-0500 (Eastern Standard Time),568989.8000011444,A,cityenter,I,enter,2194,3,3700.6000003814697,565289.2000007629,9002,WL,B,8.0
4,27.33400011062622,learn,32665.99988937378,Fri Jan 17 2025 13:42:28 GMT-0500 (Eastern Standard Time),570722.7000007629,A,p,I,p,1710,3,1732.5,568990.2000007629,9002,WL,B,9.0
4,28.18400001525879,learn,31815.99998474121,Fri Jan 17 2025 13:42:28 GMT-0500 (Eastern Standard Time),571572.6000003815,A,pi,I,i,823,3,2582.3999996185303,568990.2000007629,9002,WL,B,9.0
4,28.500999927520752,learn,31499.000072479248,Fri Jan 17 2025 13:42:28 GMT-0500 (Eastern Standard Time),571889.3000011444,A,p,I,backspace,290,3,2899.1000003814697,568990.2000007629,9002,WL,B,9.0
4,28.950999975204468,learn,31049.000024795532,Fri Jan 17 2025 13:42:28 GMT-0500 (Eastern Standard Time),572339.0,A,pu,I,u,414,3,3348.7999992370605,568990.2000007629,9002,WL,B,9.0
4,29.967000007629395,learn,30032.999992370605,Fri Jan 17 2025 13:42:28 GMT-0500 (Eastern Standard Time),573355.5,A,pup,I,p,999,3,4365.299999237061,568990.2000007629,9002,WL,B,9.0
4,30.317000150680542,learn,29682.999849319458,Fri Jan 17 2025 13:42:28 GMT-0500 (Eastern Standard Time),573705.3000011444,A,pupi,I,i,334,3,4715.10000038147,568990.2000007629,9002,WL,B,9.0
4,30.58400011062622,learn,29415.99988937378,Fri Jan 17 2025 13:42:28 GMT-0500 (Eastern Standard Time),573971.8999996185,A,pupil,I,l,241,3,4981.699998855591,568990.2000007629,9002,WL,B,9.0
4,31.60199999809265,learn,28398.00000190735,Fri Jan 17 2025 13:42:28 GMT-0500 (Eastern Standard Time),574990.0,A,pupilenter,I,enter,999,3,5999.799999237061,568990.2000007629,9002,WL,B,9.0
4,33.301000118255615,learn,26698.999881744385,Fri Jan 17 2025 13:42:28 GMT-0500 (Eastern Standard Time),576689.3000011444,A,c,I,c,1678,3,1699.0,574990.3000011444,9002,WL,B,10.0
4,33.51800012588501,learn,26481.99987411499,Fri Jan 17 2025 13:42:28 GMT-0500 (Eastern Standard Time),576906.1000003815,A,ca,I,a,198,3,1915.7999992370605,574990.3000011444,9002,WL,B,10.0
4,34.134000062942505,learn,25865.999937057495,Fri Jan 17 2025 13:42:28 GMT-0500 (Eastern Standard Time),577522.3000011444,A,cab,I,b,590,3,2532.0,574990.3000011444,9002,WL,B,10.0
4,34.384000062942505,learn,25615.999937057495,Fri Jan 17 2025 13:42:28 GMT-0500 (Eastern Standard Time),577772.8000011444,A,cabi,I,i,232,3,2782.5,574990.3000011444,9002,WL,B,10.0
4,34.58400011062622,learn,25415.99988937378,Fri Jan 17 2025 13:42:28 GMT-0500 (Eastern Standard Time),577972.7000007629,A,cabin,I,n,187,3,2982.3999996185303,574990.3000011444,9002,WL,B,10.0
4,35.85000014305115,learn,24149.999856948853,Fri Jan 17 2025 13:42:28 GMT-0500 (Eastern Standard Time),579238.8000011444,A,cabinenter,I,enter,1254,3,4248.5,574990.3000011444,9002,WL,B,10.0
4,36.18400001525879,learn,23815.99998474121,Fri Jan 17 2025 13:42:28 GMT-0500 (Eastern Standard Time),579572.1000003815,A,l,I,l,325,3,332.8999996185303,579239.2000007629,9002,WL,B,11.0
4,36.318000078201294,learn,23681.999921798706,Fri Jan 17 2025 13:42:28 GMT-0500 (Eastern Standard Time),579706.0,A,la,I,a,116,3,466.79999923706055,579239.2000007629,9002,WL,B,11.0
4,36.551000118255615,learn,23448.999881744385,Fri Jan 17 2025 13:42:28 GMT-0500 (Eastern Standard Time),579939.6000003815,A,las,I,s,197,3,700.3999996185303,579239.2000007629,9002,WL,B,11.0
4,37.28399991989136,learn,22716.000080108643,Fri Jan 17 2025 13:42:28 GMT-0500 (Eastern Standard Time),580672.7000007629,A,la,I,backspace,712,3,1433.5,579239.2000007629,9002,WL,B,11.0
4,37.568000078201294,learn,22431.999921798706,Fri Jan 17 2025 13:42:28 GMT-0500 (Eastern Standard Time),580956.0,A,lak,I,k,258,3,1716.7999992370605,579239.2000007629,9002,WL,B,11.0
4,37.76699995994568,learn,22233.00004005432,Fri Jan 17 2025 13:42:28 GMT-0500 (Eastern Standard Time),581155.8999996185,A,lake,I,e,173,3,1916.6999988555908,579239.2000007629,9002,WL,B,11.0
4,38.33400011062622,learn,21665.99988937378,Fri Jan 17 2025 13:42:28 GMT-0500 (Eastern Standard Time),581722.2000007629,A,lakeenter,I,enter,540,3,2483.0,579239.2000007629,9002,WL,B,11.0
4,38.901000022888184,learn,21098.999977111816,Fri Jan 17 2025 13:42:28 GMT-0500 (Eastern Standard Time),582289.3000011444,A,p,I,p,545,3,566.8000011444092,581722.5,9002,WL,B,12.0
4,39.301000118255615,learn,20698.999881744385,Fri Jan 17 2025 13:42:28 GMT-0500 (Eastern Standard Time),582689.1000003815,A,pi,I,i,375,3,966.6000003814697,581722.5,9002,WL,B,12.0
4,39.61800003051758,learn,20381.999969482422,Fri Jan 17 2025 13:42:28 GMT-0500 (Eastern Standard Time),583006.2000007629,A,pip,I,p,290,3,1283.7000007629395,581722.5,9002,WL,B,12.0
4,40.23399996757507,learn,19766.000032424927,Fri Jan 17 2025 13:42:28 GMT-0500 (Eastern Standard Time),583622.7000007629,A,pipe,I,e,602,3,1900.2000007629395,581722.5,9002,WL,B,12.0
4,41.117000102996826,learn,18882.999897003174,Fri Jan 17 2025 13:42:28 GMT-0500 (Eastern Standard Time),584505.5,A,pipeenter,I,enter,864,3,2783.0,581722.5,9002,WL,B,12.0
4,42.45099997520447,learn,17549.000024795532,Fri Jan 17 2025 13:42:28 GMT-0500 (Eastern Standard Time),585839.2000007629,A,s,I,s,1315,3,1333.3000011444092,584505.8999996185,9002,WL,B,13.0
4,42.58400011062622,learn,17415.99988937378,Fri Jan 17 2025 13:42:28 GMT-0500 (Eastern Standard Time),585972.6000003815,A,sk,I,k,97,3,1466.7000007629395,584505.8999996185,9002,WL,B,13.0
4,42.78399991989136,learn,17216.000080108643,Fri Jan 17 2025 13:42:28 GMT-0500 (Eastern Standard Time),586172.8000011444,A,ski,I,i,170,3,1666.900001525879,584505.8999996185,9002,WL,B,13.0
4,42.98399996757507,learn,17016.000032424927,Fri Jan 17 2025 13:42:28 GMT-0500 (Eastern Standard Time),586372.7000007629,A,skin,I,n,171,3,1866.8000011444092,584505.8999996185,9002,WL,B,13.0
4,44.18400001525879,learn,15815.999984741211,Fri Jan 17 2025 13:42:28 GMT-0500 (Eastern Standard Time),587572.1000003815,A,skinenter,I,enter,1170,3,3066.2000007629395,584505.8999996185,9002,WL,B,13.0
4,44.76800012588501,learn,15231.99987411499,Fri Jan 17 2025 13:42:28 GMT-0500 (Eastern Standard Time),588156.1000003815,A,f,I,f,567,3,583.6000003814697,587572.5,9002,WL,B,14.0
4,44.884000062942505,learn,15115.999937057495,Fri Jan 17 2025 13:42:28 GMT-0500 (Eastern Standard Time),588272.8000011444,A,fi,I,i,92,3,700.3000011444092,587572.5,9002,WL,B,14.0
4,45.1010000705719,learn,14898.9999294281,Fri Jan 17 2025 13:42:28 GMT-0500 (Eastern Standard Time),588489.2000007629,A,fir,I,r,194,3,916.7000007629395,587572.5,9002,WL,B,14.0
4,45.901000022888184,learn,14098.999977111816,Fri Jan 17 2025 13:42:28 GMT-0500 (Eastern Standard Time),589289.3999996185,A,fire,I,e,783,3,1716.8999996185303,587572.5,9002,WL,B,14.0
4,47.16700005531311,learn,12832.99994468689,Fri Jan 17 2025 13:42:28 GMT-0500 (Eastern Standard Time),590555.6000003815,A,fireenter,I,enter,1246,3,2983.1000003814697,587572.5,9002,WL,B,14.0
4,47.76800012588501,learn,12231.99987411499,Fri Jan 17 2025 13:42:28 GMT-0500 (Eastern Standard Time),591156.1000003815,A,c,I,c,576,3,600.2000007629395,590555.8999996185,9002,WL,B,15.0
4,47.884000062942505,learn,12115.999937057495,Fri Jan 17 2025 13:42:28 GMT-0500 (Eastern Standard Time),591272.8000011444,A,cl,I,l,100,3,716.9000015258789,590555.8999996185,9002,WL,B,15.0
4,48.1010000705719,learn,11898.9999294281,Fri Jan 17 2025 13:42:28 GMT-0500 (Eastern Standard Time),591489.2000007629,A,clo,I,o,191,3,933.3000011444092,590555.8999996185,9002,WL,B,15.0
4,48.33400011062622,learn,11665.99988937378,Fri Jan 17 2025 13:42:28 GMT-0500 (Eastern Standard Time),591722.6000003815,A,cloc,I,c,215,3,1166.7000007629395,590555.8999996185,9002,WL,B,15.0
4,48.551000118255615,learn,11448.999881744385,Fri Jan 17 2025 13:42:28 GMT-0500 (Eastern Standard Time),591939.3999996185,A,clock,I,k,189,3,1383.5,590555.8999996185,9002,WL,B,15.0
4,48.85000014305115,learn,11149.999856948853,Fri Jan 17 2025 13:42:28 GMT-0500 (Eastern Standard Time),592238.8000011444,A,clockenter,I,enter,276,3,1682.900001525879,590555.8999996185,9002,WL,B,15.0
5,0.6340000629425049,learn,60000.0,Fri Jan 17 2025 13:42:28 GMT-0500 (Eastern Standard Time),663189.3999996185,A,s,I,s,622,3,633.0999984741211,662556.3000011444,9002,WL,B,1.0
5,0.7839999198913574,learn,60000.0,Fri Jan 17 2025 13:42:28 GMT-0500 (Eastern Standard Time),663339.7000007629,A,sk,I,k,133,3,783.3999996185303,662556.3000011444,9002,WL,B,1.0
5,0.9670000076293945,learn,60000.0,Fri Jan 17 2025 13:42:28 GMT-0500 (Eastern Standard Time),663522.6000003815,A,ski,I,i,148,3,966.2999992370605,662556.3000011444,9002,WL,B,1.0
5,1.316999912261963,learn,60000.0,Fri Jan 17 2025 13:42:28 GMT-0500 (Eastern Standard Time),663872.8999996185,A,sk,I,backspace,320,3,1316.599998474121,662556.3000011444,9002,WL,B,1.0
5,1.4500000476837158,learn,60000.0,Fri Jan 17 2025 13:42:28 GMT-0500 (Eastern Standard Time),664005.8000011444,A,s,I,backspace,110,3,1449.5,662556.3000011444,9002,WL,B,1.0
5,1.616999864578247,learn,60000.0,Fri Jan 17 2025 13:42:28 GMT-0500 (Eastern Standard Time),664172.8999996185,A,,I,backspace,145,3,1616.599998474121,662556.3000011444,9002,WL,B,1.0
5,1.7339999675750732,learn,60000.0,Fri Jan 17 2025 13:42:28 GMT-0500 (Eastern Standard Time),664289.2000007629,A,,I,backspace,83,3,1732.8999996185303,662556.3000011444,9002,WL,B,1.0
5,1.9839999675750732,learn,60000.0,Fri Jan 17 2025 13:42:28 GMT-0500 (Eastern Standard Time),664539.5,A,s,I,s,231,3,1983.1999988555908,662556.3000011444,9002,WL,B,1.0
5,2.2179999351501465,learn,60000.0,Fri Jan 17 2025 13:42:28 GMT-0500 (Eastern Standard Time),664772.8999996185,A,st,I,t,221,3,2216.599998474121,662556.3000011444,9002,WL,B,1.0
5,2.384000062942505,learn,60000.0,Fri Jan 17 2025 13:42:28 GMT-0500 (Eastern Standard Time),664939.3000011444,A,str,I,r,145,3,2383.0,662556.3000011444,9002,WL,B,1.0
5,2.500999927520752,learn,60000.0,Fri Jan 17 2025 13:42:28 GMT-0500 (Eastern Standard Time),665056.1000003815,A,stre,I,e,88,3,2499.7999992370605,662556.3000011444,9002,WL,B,1.0
5,2.7009999752044678,learn,60000.0,Fri Jan 17 2025 13:42:28 GMT-0500 (Eastern Standard Time),665256.1000003815,A,stree,I,e,175,3,2699.7999992370605,662556.3000011444,9002,WL,B,1.0
5,3.2009999752044678,learn,60000.0,Fri Jan 17 2025 13:42:28 GMT-0500 (Eastern Standard Time),665756.2000007629,A,street,I,t,478,3,3199.8999996185303,662556.3000011444,9002,WL,B,1.0
5,3.7829999923706055,learn,60000.0,Fri Jan 17 2025 13:42:28 GMT-0500 (Eastern Standard Time),666338.8999996185,A,streetenter,I,enter,555,3,3782.599998474121,662556.3000011444,9002,WL,B,1.0
5,4.884000062942505,learn,60000.0,Fri Jan 17 2025 13:42:28 GMT-0500 (Eastern Standard Time),667439.0,A,c,I,c,1081,3,1099.7999992370605,666339.2000007629,9002,WL,B,2.0
5,5.2170000076293945,learn,60000.0,Fri Jan 17 2025 13:42:28 GMT-0500 (Eastern Standard Time),667772.8000011444,A,,I,backspace,315,3,1433.6000003814697,666339.2000007629,9002,WL,B,2.0
5,5.300999879837036,learn,60000.0,Fri Jan 17 2025 13:42:28 GMT-0500 (Eastern Standard Time),667856.1000003815,A,g,I,g,61,3,1516.8999996185303,666339.2000007629,9002,WL,B,2.0
5,5.516999959945679,learn,60000.0,Fri Jan 17 2025 13:42:28 GMT-0500 (Eastern Standard Time),668072.8999996185,A,gr,I,r,191,3,1733.6999988555908,666339.2000007629,9002,WL,B,2.0
5,5.634000062942505,learn,60000.0,Fri Jan 17 2025 13:42:28 GMT-0500 (Eastern Standard Time),668189.5,A,gra,I,a,97,3,1850.2999992370605,666339.2000007629,9002,WL,B,2.0
5,5.934000015258789,learn,60000.0,Fri Jan 17 2025 13:42:28 GMT-0500 (Eastern Standard Time),668489.3999996185,A,gras,I,s,274,3,2150.199998855591,666339.2000007629,9002,WL,B,2.0
5,6.101000070571899,learn,60000.0,Fri Jan 17 2025 13:42:28 GMT-0500 (Eastern Standard Time),668656.1000003815,A,grass,I,s,139,3,2316.8999996185303,666339.2000007629,9002,WL,B,2.0
5,6.5,learn,60000.0,Fri Jan 17 2025 13:42:28 GMT-0500 (Eastern Standard Time),669055.6000003815,A,grassenter,I,enter,367,3,2716.3999996185303,666339.2000007629,9002,WL,B,2.0
5,6.851000070571899,learn,60000.0,Fri Jan 17 2025 13:42:28 GMT-0500 (Eastern Standard Time),669406.0,A,d,I,d,332,3,350.0,669056.0,9002,WL,B,3.0
5,7.016999959945679,learn,60000.0,Fri Jan 17 2025 13:42:28 GMT-0500 (Eastern Standard Time),669572.8999996185,A,do,I,o,154,3,516.8999996185303,669056.0,9002,WL,B,3.0
5,7.16700005531311,learn,60000.0,Fri Jan 17 2025 13:42:28 GMT-0500 (Eastern Standard Time),669722.8000011444,A,doo,I,o,131,3,666.8000011444092,669056.0,9002,WL,B,3.0
5,7.433000087738037,learn,60000.0,Fri Jan 17 2025 13:42:28 GMT-0500 (Eastern Standard Time),669988.8000011444,A,door,I,r,253,3,932.8000011444092,669056.0,9002,WL,B,3.0
5,8.616999864578247,learn,60000.0,Fri Jan 17 2025 13:42:28 GMT-0500 (Eastern Standard Time),671172.2000007629,A,doorenter,I,enter,1174,3,2116.2000007629395,669056.0,9002,WL,B,3.0
5,9.184000015258789,learn,60000.0,Fri Jan 17 2025 13:42:28 GMT-0500 (Eastern Standard Time),671739.3999996185,A,a,I,a,553,3,566.8999996185303,671172.5,9002,WL,B,4.0
5,9.866999864578247,learn,60000.0,Fri Jan 17 2025 13:42:28 GMT-0500 (Eastern Standard Time),672422.8000011444,A,,I,backspace,668,3,1250.3000011444092,671172.5,9002,WL,B,4.0
5,10.483999967575073,learn,60000.0,Fri Jan 17 2025 13:42:28 GMT-0500 (Eastern Standard Time),673039.3999996185,A,a,I,a,596,3,1866.8999996185303,671172.5,9002,WL,B,4.0
5,10.66700005531311,learn,60000.0,Fri Jan 17 2025 13:42:28 GMT-0500 (Eastern Standard Time),673222.8000011444,A,ar,I,r,169,3,2050.300001144409,671172.5,9002,WL,B,4.0
5,11.049999952316284,learn,60000.0,Fri Jan 17 2025 13:42:28 GMT-0500 (Eastern Standard Time),673605.3000011444,A,arm,I,m,369,3,2432.800001144409,671172.5,9002,WL,B,4.0
5,11.433000087738037,learn,60000.0,Fri Jan 17 2025 13:42:28 GMT-0500 (Eastern Standard Time),673988.8999996185,A,armenter,I,enter,374,3,2816.3999996185303,671172.5,9002,WL,B,4.0
5,11.816999912261963,learn,60000.0,Fri Jan 17 2025 13:42:28 GMT-0500 (Eastern Standard Time),674372.7000007629,A,s,I,s,359,3,383.5,673989.2000007629,9002,WL,B,5.0
5,11.983999967575073,learn,60000.0,Fri Jan 17 2025 13:42:28 GMT-0500 (Eastern Standard Time),674539.3999996185,A,st,I,t,148,3,550.1999988555908,673989.2000007629,9002,WL,B,5.0
5,12.283999919891357,learn,60000.0,Fri Jan 17 2025 13:42:28 GMT-0500 (Eastern Standard Time),674839.3999996185,A,sta,I,a,284,3,850.1999988555908,673989.2000007629,9002,WL,B,5.0
5,12.516999959945679,learn,60000.0,Fri Jan 17 2025 13:42:28 GMT-0500 (Eastern Standard Time),675072.8000011444,A,star,I,r,211,3,1083.6000003814697,673989.2000007629,9002,WL,B,5.0
5,13.83299994468689,learn,60000.0,Fri Jan 17 2025 13:42:28 GMT-0500 (Eastern Standard Time),676388.8000011444,A,starenter,I,enter,1304,3,2399.6000003814697,673989.2000007629,9002,WL,B,5.0
5,14.618000030517578,learn,60000.0,Fri Jan 17 2025 13:42:28 GMT-0500 (Eastern Standard Time),677173.1000003815,A,w,I,w,775,3,783.7999992370605,676389.3000011444,9002,WL,B,6.0
5,15.116999864578247,learn,60000.0,Fri Jan 17 2025 13:42:28 GMT-0500 (Eastern Standard Time),677672.8000011444,A,wi,I,i,484,3,1283.5,676389.3000011444,9002,WL,B,6.0
5,15.366999864578247,learn,60000.0,Fri Jan 17 2025 13:42:28 GMT-0500 (Eastern Standard Time),677922.8999996185,A,wif,I,f,224,3,1533.599998474121,676389.3000011444,9002,WL,B,6.0
5,15.533999919891357,learn,60000.0,Fri Jan 17 2025 13:42:28 GMT-0500 (Eastern Standard Time),678089.5,A,wife,I,e,149,3,1700.1999988555908,676389.3000011444,9002,WL,B,6.0
5,15.950000047683716,learn,60000.0,Fri Jan 17 2025 13:42:28 GMT-0500 (Eastern Standard Time),678505.7000007629,A,wifeenter,I,enter,399,3,2116.3999996185303,676389.3000011444,9002,WL,B,6.0
5,16.33399987220764,learn,60000.0,Fri Jan 17 2025 13:42:28 GMT-0500 (Eastern Standard Time),678889.5,A,w,I,w,370,3,383.5,678506.0,9002,WL,B,7.0
5,16.783999919891357,learn,60000.0,Fri Jan 17 2025 13:42:28 GMT-0500 (Eastern Standard Time),679339.0,A,wi,I,i,431,3,833.0,678506.0,9002,WL,B,7.0
5,16.98300004005432,learn,60000.0,Fri Jan 17 2025 13:42:28 GMT-0500 (Eastern Standard Time),679538.8000011444,A,win,I,n,176,3,1032.8000011444092,678506.0,9002,WL,B,7.0
5,17.3510000705719,learn,60000.0,Fri Jan 17 2025 13:42:28 GMT-0500 (Eastern Standard Time),679906.0,A,wind,I,d,344,3,1400.0,678506.0,9002,WL,B,7.0
5,17.783999919891357,learn,60000.0,Fri Jan 17 2025 13:42:28 GMT-0500 (Eastern Standard Time),680339.3999996185,A,windo,I,o,397,3,1833.3999996185303,678506.0,9002,WL,B,7.0
5,17.91700005531311,learn,60000.0,Fri Jan 17 2025 13:42:28 GMT-0500 (Eastern Standard Time),680472.8999996185,A,window,I,w,117,3,1966.8999996185303,678506.0,9002,WL,B,7.0
5,18.366999864578247,learn,60000.0,Fri Jan 17 2025 13:42:28 GMT-0500 (Eastern Standard Time),680922.3000011444,A,windowenter,I,enter,431,3,2416.300001144409,678506.0,9002,WL,B,7.0
5,19.151000022888184,learn,60000.0,Fri Jan 17 2025 13:42:28 GMT-0500 (Eastern Standard Time),681706.3000011444,A,c,I,c,769,3,783.7000007629395,680922.6000003815,9002,WL,B,8.0
5,19.26699995994568,learn,60000.0,Fri Jan 17 2025 13:42:28 GMT-0500 (Eastern Standard Time),681822.8000011444,A,ci,I,i,95,3,900.2000007629395,680922.6000003815,9002,WL,B,8.0
5,19.43400001525879,learn,60000.0,Fri Jan 17 2025 13:42:28 GMT-0500 (Eastern Standard Time),681989.1000003815,A,cit,I,t,154,3,1066.5,680922.6000003815,9002,WL,B,8.0
5,19.667999982833862,learn,60000.0,Fri Jan 17 2025 13:42:28 GMT-0500 (Eastern Standard Time),682222.8999996185,A,city,I,y,202,3,1300.2999992370605,680922.6000003815,9002,WL,B,8.0
5,20.566999912261963,learn,60000.0,Fri Jan 17 2025 13:42:28 GMT-0500 (Eastern Standard Time),683122.2000007629,A,cityenter,I,enter,873,3,2199.6000003814697,680922.6000003815,9002,WL,B,8.0
5,21.217000007629395,learn,60000.0,Fri Jan 17 2025 13:42:28 GMT-0500 (Eastern Standard Time),683772.6000003815,A,p,I,p,633,3,650.0,683122.6000003815,9002,WL,B,9.0
5,21.500999927520752,learn,60000.0,Fri Jan 17 2025 13:42:28 GMT-0500 (Eastern Standard Time),684056.1000003815,A,pu,I,u,267,3,933.5,683122.6000003815,9002,WL,B,9.0
5,21.91700005531311,learn,60000.0,Fri Jan 17 2025 13:42:28 GMT-0500 (Eastern Standard Time),684472.6000003815,A,pup,I,p,400,3,1350.0,683122.6000003815,9002,WL,B,9.0
5,22.200999975204468,learn,60000.0,Fri Jan 17 2025 13:42:28 GMT-0500 (Eastern Standard Time),684756.1000003815,A,pupi,I,i,258,3,1633.5,683122.6000003815,9002,WL,B,9.0
5,22.651000022888184,learn,60000.0,Fri Jan 17 2025 13:42:28 GMT-0500 (Eastern Standard Time),685206.0,A,pupil,I,l,437,3,2083.3999996185303,683122.6000003815,9002,WL,B,9.0
5,23.566999912261963,learn,60000.0,Fri Jan 17 2025 13:42:28 GMT-0500 (Eastern Standard Time),686122.3000011444,A,pupilenter,I,enter,899,3,2999.7000007629395,683122.6000003815,9002,WL,B,9.0
5,24.901000022888184,learn,60000.0,Fri Jan 17 2025 13:42:28 GMT-0500 (Eastern Standard Time),687456.1000003815,A,c,I,c,1314,3,1333.3999996185303,686122.7000007629,9002,WL,B,10.0
5,25.033999919891357,learn,60000.0,Fri Jan 17 2025 13:42:28 GMT-0500 (Eastern Standard Time),687588.8999996185,A,ca,I,a,121,3,1466.1999988555908,686122.7000007629,9002,WL,B,10.0
5,25.41700005531311,learn,60000.0,Fri Jan 17 2025 13:42:28 GMT-0500 (Eastern Standard Time),687972.8999996185,A,cab,I,b,375,3,1850.1999988555908,686122.7000007629,9002,WL,B,10.0
5,25.66700005531311,learn,60000.0,Fri Jan 17 2025 13:42:28 GMT-0500 (Eastern Standard Time),688222.3000011444,A,cabi,I,i,226,3,2099.6000003814697,686122.7000007629,9002,WL,B,10.0
5,25.901000022888184,learn,60000.0,Fri Jan 17 2025 13:42:28 GMT-0500 (Eastern Standard Time),688456.2000007629,A,cabin,I,n,223,3,2333.5,686122.7000007629,9002,WL,B,10.0
5,31.01699995994568,learn,60000.0,Fri Jan 17 2025 13:42:28 GMT-0500 (Eastern Standard Time),693572.0,A,cabinenter,I,enter,5096,3,7449.299999237061,686122.7000007629,9002,WL,B,10.0
5,32.450000047683716,learn,60000.0,Fri Jan 17 2025 13:42:28 GMT-0500 (Eastern Standard Time),695005.7000007629,A,l,I,l,1416,3,1433.3999996185303,693572.3000011444,9002,WL,B,11.0
5,33.23399996757507,learn,60000.0,Fri Jan 17 2025 13:42:28 GMT-0500 (Eastern Standard Time),695789.3999996185,A,la,I,a,765,3,2217.099998474121,693572.3000011444,9002,WL,B,11.0
5,34.01699995994568,learn,60000.0,Fri Jan 17 2025 13:42:28 GMT-0500 (Eastern Standard Time),696572.7000007629,A,lak,I,k,765,3,3000.3999996185303,693572.3000011444,9002,WL,B,11.0
5,34.16700005531311,learn,60000.0,Fri Jan 17 2025 13:42:28 GMT-0500 (Eastern Standard Time),696722.8999996185,A,lake,I,e,123,3,3150.599998474121,693572.3000011444,9002,WL,B,11.0
5,35.34999990463257,learn,60000.0,Fri Jan 17 2025 13:42:28 GMT-0500 (Eastern Standard Time),697905.5,A,lakeenter,I,enter,1158,3,4333.199998855591,693572.3000011444,9002,WL,B,11.0
5,37.16700005531311,learn,60000.0,Fri Jan 17 2025 13:42:28 GMT-0500 (Eastern Standard Time),699722.8999996185,A,c,I,c,1802,3,1817.099998474121,697905.8000011444,9002,WL,B,12.0
5,37.28399991989136,learn,60000.0,Fri Jan 17 2025 13:42:28 GMT-0500 (Eastern Standard Time),699839.5,A,cl,I,l,93,3,1933.6999988555908,697905.8000011444,9002,WL,B,12.0
5,37.467000007629395,learn,60000.0,Fri Jan 17 2025 13:42:28 GMT-0500 (Eastern Standard Time),700022.3999996185,A,clo,I,o,169,3,2116.599998474121,697905.8000011444,9002,WL,B,12.0
5,38.26699995994568,learn,60000.0,Fri Jan 17 2025 13:42:28 GMT-0500 (Eastern Standard Time),700822.6000003815,A,cloc,I,c,788,3,2916.7999992370605,697905.8000011444,9002,WL,B,12.0
5,38.43400001525879,learn,60000.0,Fri Jan 17 2025 13:42:28 GMT-0500 (Eastern Standard Time),700989.3999996185,A,clock,I,k,145,3,3083.599998474121,697905.8000011444,9002,WL,B,12.0
5,38.884000062942505,learn,60000.0,Fri Jan 17 2025 13:42:28 GMT-0500 (Eastern Standard Time),701439.0,A,clockenter,I,enter,419,3,3533.199998855591,697905.8000011444,9002,WL,B,12.0
5,39.18400001525879,learn,60000.0,Fri Jan 17 2025 13:42:28 GMT-0500 (Eastern Standard Time),701739.5,A,p,I,p,285,3,300.1999988555908,701439.3000011444,9002,WL,B,13.0
5,39.58399987220764,learn,60000.0,Fri Jan 17 2025 13:42:28 GMT-0500 (Eastern Standard Time),702139.3000011444,A,pi,I,i,381,3,700.0,701439.3000011444,9002,WL,B,13.0
5,39.86699986457825,learn,60000.0,Fri Jan 17 2025 13:42:28 GMT-0500 (Eastern Standard Time),702422.8999996185,A,pip,I,p,271,3,983.5999984741211,701439.3000011444,9002,WL,B,13.0
5,40.21799993515015,learn,60000.0,Fri Jan 17 2025 13:42:28 GMT-0500 (Eastern Standard Time),702773.2000007629,A,pipe,I,e,322,3,1333.8999996185303,701439.3000011444,9002,WL,B,13.0
5,40.884000062942505,learn,60000.0,Fri Jan 17 2025 13:42:28 GMT-0500 (Eastern Standard Time),703439.0,A,pipeenter,I,enter,642,3,1999.6999988555908,701439.3000011444,9002,WL,B,13.0
5,41.33399987220764,learn,60000.0,Fri Jan 17 2025 13:42:28 GMT-0500 (Eastern Standard Time),703889.3999996185,A,f,I,f,429,3,450.0,703439.3999996185,9002,WL,B,14.0
5,41.41700005531311,learn,60000.0,Fri Jan 17 2025 13:42:28 GMT-0500 (Eastern Standard Time),703972.6000003815,A,fi,I,i,71,3,533.2000007629395,703439.3999996185,9002,WL,B,14.0
5,41.75099992752075,learn,60000.0,Fri Jan 17 2025 13:42:28 GMT-0500 (Eastern Standard Time),704306.1000003815,A,fir,I,r,309,3,866.7000007629395,703439.3999996185,9002,WL,B,14.0
5,41.967000007629395,learn,60000.0,Fri Jan 17 2025 13:42:28 GMT-0500 (Eastern Standard Time),704522.8999996185,A,fire,I,e,189,3,1083.5,703439.3999996185,9002,WL,B,14.0
5,43.09999990463257,learn,60000.0,Fri Jan 17 2025 13:42:28 GMT-0500 (Eastern Standard Time),705655.7000007629,A,fireenter,I,enter,1117,3,2216.300001144409,703439.3999996185,9002,WL,B,14.0
5,43.58399987220764,learn,60000.0,Fri Jan 17 2025 13:42:28 GMT-0500 (Eastern Standard Time),706139.5,A,s,I,s,468,3,483.5,705656.0,9002,WL,B,15.0
5,43.66700005531311,learn,60000.0,Fri Jan 17 2025 13:42:28 GMT-0500 (Eastern Standard Time),706222.3000011444,A,sk,I,k,60,3,566.3000011444092,705656.0,9002,WL,B,15.0
5,43.8510000705719,learn,60000.0,Fri Jan 17 2025 13:42:28 GMT-0500 (Eastern Standard Time),706406.1000003815,A,ski,I,i,173,3,750.1000003814697,705656.0,9002,WL,B,15.0
5,44.06699991226196,learn,60000.0,Fri Jan 17 2025 13:42:28 GMT-0500 (Eastern Standard Time),706622.7000007629,A,skil,I,l,195,3,966.7000007629395,705656.0,9002,WL,B,15.0
5,44.73399996757507,learn,60000.0,Fri Jan 17 2025 13:42:28 GMT-0500 (Eastern Standard Time),707289.3999996185,A,ski,I,backspace,640,3,1633.3999996185303,705656.0,9002,WL,B,15.0
5,44.967000007629395,learn,60000.0,Fri Jan 17 2025 13:42:28 GMT-0500 (Eastern Standard Time),707522.3000011444,A,skin,I,n,206,3,1866.3000011444092,705656.0,9002,WL,B,15.0
5,45.36699986457825,learn,60000.0,Fri Jan 17 2025 13:42:28 GMT-0500 (Eastern Standard Time),707922.3000011444,A,skinenter,I,enter,375,3,2266.300001144409,705656.0,9002,WL,B,15.0
6,1.9509999752044678,distr,58049.00002479553,Fri Jan 17 2025 13:42:28 GMT-0500 (Eastern Standard Time),797556.5,B,b,I,b,1926,3,1950.6999988555908,795605.8000011444,9002,WL,B,1.0
6,2.0840001106262207,distr,57915.99988937378,Fri Jan 17 2025 13:42:28 GMT-0500 (Eastern Standard Time),797689.5,B,ba,I,a,113,3,2083.699998855591,795605.8000011444,9002,WL,B,1.0
6,2.500999927520752,distr,57499.00007247925,Fri Jan 17 2025 13:42:28 GMT-0500 (Eastern Standard Time),798106.3000011444,B,bab,I,b,401,3,2500.5,795605.8000011444,9002,WL,B,1.0
6,2.750999927520752,distr,57249.00007247925,Fri Jan 17 2025 13:42:28 GMT-0500 (Eastern Standard Time),798356.1000003815,B,baby,I,y,222,3,2750.2999992370605,795605.8000011444,9002,WL,B,1.0
6,3.049999952316284,distr,56950.000047683716,Fri Jan 17 2025 13:42:28 GMT-0500 (Eastern Standard Time),798655.7000007629,B,babyenter,I,enter,267,3,3049.8999996185303,795605.8000011444,9002,WL,B,1.0
6,3.4170000553131104,distr,56582.99994468689,Fri Jan 17 2025 13:42:28 GMT-0500 (Eastern Standard Time),799022.8999996185,B,o,I,o,348,3,366.8999996185303,798656.0,9002,WL,B,2.0
6,3.5339999198913574,distr,56466.00008010864,Fri Jan 17 2025 13:42:28 GMT-0500 (Eastern Standard Time),799139.7000007629,B,oc,I,c,90,3,483.70000076293945,798656.0,9002,WL,B,2.0
6,3.7339999675750732,distr,56266.00003242493,Fri Jan 17 2025 13:42:28 GMT-0500 (Eastern Standard Time),799339.6000003815,B,oca,I,a,182,3,683.6000003814697,798656.0,9002,WL,B,2.0
6,4.101000070571899,distr,55898.9999294281,Fri Jan 17 2025 13:42:28 GMT-0500 (Eastern Standard Time),799706.3000011444,B,oc,I,backspace,340,3,1050.3000011444092,798656.0,9002,WL,B,2.0
6,4.184000015258789,distr,55815.99998474121,Fri Jan 17 2025 13:42:28 GMT-0500 (Eastern Standard Time),799789.3000011444,B,oce,I,e,63,3,1133.3000011444092,798656.0,9002,WL,B,2.0
6,4.283999919891357,distr,55716.00008010864,Fri Jan 17 2025 13:42:28 GMT-0500 (Eastern Standard Time),799889.5,B,ocea,I,a,72,3,1233.5,798656.0,9002,WL,B,2.0
6,4.4670000076293945,distr,55532.999992370605,Fri Jan 17 2025 13:42:28 GMT-0500 (Eastern Standard Time),800072.8999996185,B,ocean,I,n,167,3,1416.8999996185303,798656.0,9002,WL,B,2.0
6,4.783999919891357,distr,55216.00008010864,Fri Jan 17 2025 13:42:28 GMT-0500 (Eastern Standard Time),800388.8999996185,B,oceanenter,I,enter,304,3,1732.8999996185303,798656.0,9002,WL,B,2.0
6,5.117000102996826,distr,54882.999897003174,Fri Jan 17 2025 13:42:28 GMT-0500 (Eastern Standard Time),800722.8000011444,B,p,I,p,311,3,333.6000003814697,800389.2000007629,9002,WL,B,3.0
6,5.25,distr,54750.0,Fri Jan 17 2025 13:42:28 GMT-0500 (Eastern Standard Time),800855.8999996185,B,pa,I,a,117,3,466.6999988555908,800389.2000007629,9002,WL,B,3.0
6,5.834000110626221,distr,54165.99988937378,Fri Jan 17 2025 13:42:28 GMT-0500 (Eastern Standard Time),801439.5,B,pal,I,l,558,3,1050.2999992370605,800389.2000007629,9002,WL,B,3.0
6,5.9679999351501465,distr,54032.00006484985,Fri Jan 17 2025 13:42:28 GMT-0500 (Eastern Standard Time),801573.1000003815,B,pala,I,a,122,3,1183.8999996185303,800389.2000007629,9002,WL,B,3.0
6,6.500999927520752,distr,53499.00007247925,Fri Jan 17 2025 13:42:28 GMT-0500 (Eastern Standard Time),802106.3999996185,B,palac,I,c,515,3,1717.1999988555908,800389.2000007629,9002,WL,B,3.0
6,6.684000015258789,distr,53315.99998474121,Fri Jan 17 2025 13:42:28 GMT-0500 (Eastern Standard Time),802289.6000003815,B,palace,I,e,160,3,1900.3999996185303,800389.2000007629,9002,WL,B,3.0
6,7.1000001430511475,distr,52899.99985694885,Fri Jan 17 2025 13:42:28 GMT-0500 (Eastern Standard Time),802705.8000011444,B,palaceenter,I,enter,391,3,2316.6000003814697,800389.2000007629,9002,WL,B,3.0
6,7.884000062942505,distr,52115.999937057495,Fri Jan 17 2025 13:42:28 GMT-0500 (Eastern Standard Time),803489.5,B,p,I,p,762,3,783.2999992370605,802706.2000007629,9002,WL,B,4.0
6,8.533999919891357,distr,51466.00008010864,Fri Jan 17 2025 13:42:28 GMT-0500 (Eastern Standard Time),804139.5,B,,I,backspace,623,3,1433.2999992370605,802706.2000007629,9002,WL,B,4.0
6,8.651000022888184,distr,51348.99997711182,Fri Jan 17 2025 13:42:28 GMT-0500 (Eastern Standard Time),804256.3000011444,B,c,I,c,95,3,1550.1000003814697,802706.2000007629,9002,WL,B,4.0
6,8.799999952316284,distr,51200.000047683716,Fri Jan 17 2025 13:42:28 GMT-0500 (Eastern Standard Time),804405.8999996185,B,ce,I,e,122,3,1699.6999988555908,802706.2000007629,9002,WL,B,4.0
6,8.91700005531311,distr,51082.99994468689,Fri Jan 17 2025 13:42:28 GMT-0500 (Eastern Standard Time),804522.8999996185,B,cel,I,l,97,3,1816.6999988555908,802706.2000007629,9002,WL,B,4.0
6,9.066999912261963,distr,50933.00008773804,Fri Jan 17 2025 13:42:28 GMT-0500 (Eastern Standard Time),804672.8999996185,B,cell,I,l,126,3,1966.6999988555908,802706.2000007629,9002,WL,B,4.0
6,9.318000078201294,distr,50681.999921798706,Fri Jan 17 2025 13:42:28 GMT-0500 (Eastern Standard Time),804923.3999996185,B,cellenter,I,enter,230,3,2217.199998855591,802706.2000007629,9002,WL,B,4.0
6,11.533999919891357,distr,48466.00008010864,Fri Jan 17 2025 13:42:28 GMT-0500 (Eastern Standard Time),807139.6000003815,B,p,I,p,2194,3,2215.8999996185303,804923.7000007629,9002,WL,B,5.0
6,11.766999959945679,distr,48233.00004005432,Fri Jan 17 2025 13:42:28 GMT-0500 (Eastern Standard Time),807372.8999996185,B,pr,I,r,213,3,2449.199998855591,804923.7000007629,9002,WL,B,5.0
6,11.91700005531311,distr,48082.99994468689,Fri Jan 17 2025 13:42:28 GMT-0500 (Eastern Standard Time),807522.3999996185,B,pri,I,i,122,3,2598.699998855591,804923.7000007629,9002,WL,B,5.0
6,12.551000118255615,distr,47448.999881744385,Fri Jan 17 2025 13:42:28 GMT-0500 (Eastern Standard Time),808156.3000011444,B,pris,I,s,618,3,3232.6000003814697,804923.7000007629,9002,WL,B,5.0
6,12.634000062942505,distr,47365.999937057495,Fri Jan 17 2025 13:42:28 GMT-0500 (Eastern Standard Time),808239.2000007629,B,priso,I,o,60,3,3315.5,804923.7000007629,9002,WL,B,5.0
6,12.783999919891357,distr,47216.00008010864,Fri Jan 17 2025 13:42:28 GMT-0500 (Eastern Standard Time),808389.3999996185,B,prison,I,n,138,3,3465.699998855591,804923.7000007629,9002,WL,B,5.0
6,13.516999959945679,distr,46483.00004005432,Fri Jan 17 2025 13:42:28 GMT-0500 (Eastern Standard Time),809122.5,B,prisonenter,I,enter,705,3,4198.799999237061,804923.7000007629,9002,WL,B,5.0
6,15.983999967575073,distr,44016.00003242493,Fri Jan 17 2025 13:42:28 GMT-0500 (Eastern Standard Time),811589.3000011444,B,f,I,f,2458,3,2466.6000003814697,809122.7000007629,9002,WL,B,6.0
6,16.167999982833862,distr,43832.00001716614,Fri Jan 17 2025 13:42:28 GMT-0500 (Eastern Standard Time),811773.0,B,fr,I,r,165,3,2650.2999992370605,809122.7000007629,9002,WL,B,6.0
6,16.316999912261963,distr,43683.00008773804,Fri Jan 17 2025 13:42:28 GMT-0500 (Eastern Standard Time),811922.8999996185,B,fri,I,i,123,3,2800.199998855591,809122.7000007629,9002,WL,B,6.0
6,16.483999967575073,distr,43516.00003242493,Fri Jan 17 2025 13:42:28 GMT-0500 (Eastern Standard Time),812089.7000007629,B,frin,I,n,141,3,2967.0,809122.7000007629,9002,WL,B,6.0
6,17.100000143051147,distr,42899.99985694885,Fri Jan 17 2025 13:42:28 GMT-0500 (Eastern Standard Time),812705.7000007629,B,fri,I,backspace,581,3,3583.0,809122.7000007629,9002,WL,B,6.0
6,17.200000047683716,distr,42799.999952316284,Fri Jan 17 2025 13:42:28 GMT-0500 (Eastern Standard Time),812805.8000011444,B,frie,I,e,87,3,3683.1000003814697,809122.7000007629,9002,WL,B,6.0
6,17.368000030517578,distr,42631.99996948242,Fri Jan 17 2025 13:42:28 GMT-0500 (Eastern Standard Time),812973.0,B,frien,I,n,147,3,3850.2999992370605,809122.7000007629,9002,WL,B,6.0
6,17.884000062942505,distr,42115.999937057495,Fri Jan 17 2025 13:42:28 GMT-0500 (Eastern Standard Time),813489.6000003815,B,friend,I,d,493,3,4366.89999961853,809122.7000007629,9002,WL,B,6.0
6,18.950000047683716,distr,41049.999952316284,Fri Jan 17 2025 13:42:28 GMT-0500 (Eastern Standard Time),814555.8000011444,B,friendenter,I,enter,1046,3,5433.10000038147,809122.7000007629,9002,WL,B,6.0
6,20.801000118255615,distr,39198.999881744385,Fri Jan 17 2025 13:42:28 GMT-0500 (Eastern Standard Time),816406.1000003815,B,s,I,s,1841,3,1850.0,814556.1000003815,9002,WL,B,7.0
6,21.033999919891357,distr,38966.00008010864,Fri Jan 17 2025 13:42:28 GMT-0500 (Eastern Standard Time),816639.5,B,se,I,e,211,3,2083.3999996185303,814556.1000003815,9002,WL,B,7.0
6,21.717000007629395,distr,38282.999992370605,Fri Jan 17 2025 13:42:28 GMT-0500 (Eastern Standard Time),817322.6000003815,B,s,I,backspace,664,3,2766.5,814556.1000003815,9002,WL,B,7.0
6,21.868000030517578,distr,38131.99996948242,Fri Jan 17 2025 13:42:28 GMT-0500 (Eastern Standard Time),817473.1000003815,B,,I,backspace,130,3,2917.0,814556.1000003815,9002,WL,B,7.0
6,23.40000009536743,distr,36599.99990463257,Fri Jan 17 2025 13:42:28 GMT-0500 (Eastern Standard Time),819005.8000011444,B,enter,I,enter,1513,3,4449.700000762939,814556.1000003815,9002,WL,B,7.0
6,60.01699995994568,distr,-16.99995994567871,Fri Jan 17 2025 13:42:28 GMT-0500 (Eastern Standard Time),855622.7000007629,B,None,I,None,36608,3,36616.70000076294,819006.0,9002,WL,B,8.0
7,0.6500000953674316,immed,59349.99990463257,Fri Jan 17 2025 13:42:28 GMT-0500 (Eastern Standard Time),867489.3000011444,A,s,I,s,626,3,649.3000011444092,866840.0,9002,WL,B,1.0
7,0.817000150680542,immed,59182.99984931946,Fri Jan 17 2025 13:42:28 GMT-0500 (Eastern Standard Time),867656.3999996185,A,st,I,t,152,3,816.3999996185303,866840.0,9002,WL,B,1.0
7,1.0329999923706055,immed,58967.000007629395,Fri Jan 17 2025 13:42:28 GMT-0500 (Eastern Standard Time),867872.8000011444,A,str,I,r,184,3,1032.8000011444092,866840.0,9002,WL,B,1.0
7,1.1000001430511475,immed,58899.99985694885,Fri Jan 17 2025 13:42:28 GMT-0500 (Eastern Standard Time),867939.2000007629,A,stre,I,e,39,3,1099.2000007629395,866840.0,9002,WL,B,1.0
7,1.3500001430511475,immed,58649.99985694885,Fri Jan 17 2025 13:42:28 GMT-0500 (Eastern Standard Time),868189.6000003815,A,stree,I,e,231,3,1349.6000003814697,866840.0,9002,WL,B,1.0
7,1.6500000953674316,immed,58349.99990463257,Fri Jan 17 2025 13:42:28 GMT-0500 (Eastern Standard Time),868489.3000011444,A,street,I,t,283,3,1649.3000011444092,866840.0,9002,WL,B,1.0
7,3.0160000324249268,immed,56983.99996757507,Fri Jan 17 2025 13:42:28 GMT-0500 (Eastern Standard Time),869855.8999996185,A,streetenter,I,enter,1343,3,3015.8999996185303,866840.0,9002,WL,B,1.0
7,3.4670000076293945,immed,56532.999992370605,Fri Jan 17 2025 13:42:28 GMT-0500 (Eastern Standard Time),870306.3000011444,A,c,I,c,428,3,450.0,869856.3000011444,9002,WL,B,2.0
7,3.7840001583099365,immed,56215.99984169006,Fri Jan 17 2025 13:42:28 GMT-0500 (Eastern Standard Time),870623.1000003815,A,,I,backspace,295,3,766.7999992370605,869856.3000011444,9002,WL,B,2.0
7,3.867000102996826,immed,56132.999897003174,Fri Jan 17 2025 13:42:28 GMT-0500 (Eastern Standard Time),870706.1000003815,A,g,I,g,59,3,849.7999992370605,869856.3000011444,9002,WL,B,2.0
7,4.067000150680542,immed,55932.99984931946,Fri Jan 17 2025 13:42:28 GMT-0500 (Eastern Standard Time),870906.3999996185,A,gr,I,r,183,3,1050.099998474121,869856.3000011444,9002,WL,B,2.0
7,4.216000080108643,immed,55783.99991989136,Fri Jan 17 2025 13:42:28 GMT-0500 (Eastern Standard Time),871055.8999996185,A,gra,I,a,126,3,1199.599998474121,869856.3000011444,9002,WL,B,2.0
7,4.549999952316284,immed,55450.000047683716,Fri Jan 17 2025 13:42:28 GMT-0500 (Eastern Standard Time),871389.5,A,gras,I,s,315,3,1533.1999988555908,869856.3000011444,9002,WL,B,2.0
7,4.716000080108643,immed,55283.99991989136,Fri Jan 17 2025 13:42:28 GMT-0500 (Eastern Standard Time),871555.8999996185,A,grass,I,s,134,3,1699.599998474121,869856.3000011444,9002,WL,B,2.0
7,5.3500001430511475,immed,54649.99985694885,Fri Jan 17 2025 13:42:28 GMT-0500 (Eastern Standard Time),872189.1000003815,A,grassenter,I,enter,616,3,2332.7999992370605,869856.3000011444,9002,WL,B,2.0
7,5.766000032424927,immed,54233.99996757507,Fri Jan 17 2025 13:42:28 GMT-0500 (Eastern Standard Time),872605.8000011444,A,d,I,d,399,3,416.3000011444092,872189.5,9002,WL,B,3.0
7,5.950000047683716,immed,54049.999952316284,Fri Jan 17 2025 13:42:28 GMT-0500 (Eastern Standard Time),872789.5,A,do,I,o,174,3,600.0,872189.5,9002,WL,B,3.0
7,6.084000110626221,immed,53915.99988937378,Fri Jan 17 2025 13:42:28 GMT-0500 (Eastern Standard Time),872923.0,A,doo,I,o,114,3,733.5,872189.5,9002,WL,B,3.0
7,6.400000095367432,immed,53599.99990463257,Fri Jan 17 2025 13:42:28 GMT-0500 (Eastern Standard Time),873239.7000007629,A,door,I,r,293,3,1050.2000007629395,872189.5,9002,WL,B,3.0
7,6.8500001430511475,immed,53149.99985694885,Fri Jan 17 2025 13:42:28 GMT-0500 (Eastern Standard Time),873688.8999996185,A,doorenter,I,enter,433,3,1499.3999996185303,872189.5,9002,WL,B,3.0
7,7.2170000076293945,immed,52782.999992370605,Fri Jan 17 2025 13:42:28 GMT-0500 (Eastern Standard Time),874056.2000007629,A,a,I,a,356,3,367.0,873689.2000007629,9002,WL,B,4.0
7,7.401000022888184,immed,52598.99997711182,Fri Jan 17 2025 13:42:28 GMT-0500 (Eastern Standard Time),874240.5,A,ar,I,r,156,3,551.2999992370605,873689.2000007629,9002,WL,B,4.0
7,8.25,immed,51750.0,Fri Jan 17 2025 13:42:28 GMT-0500 (Eastern Standard Time),875089.7000007629,A,arm,I,m,817,3,1400.5,873689.2000007629,9002,WL,B,4.0
7,9.116000175476074,immed,50883.999824523926,Fri Jan 17 2025 13:42:28 GMT-0500 (Eastern Standard Time),875955.8000011444,A,armenter,I,enter,838,3,2266.6000003814697,873689.2000007629,9002,WL,B,4.0
7,9.400000095367432,immed,50599.99990463257,Fri Jan 17 2025 13:42:28 GMT-0500 (Eastern Standard Time),876239.0,A,s,I,s,264,3,282.8999996185303,875956.1000003815,9002,WL,B,5.0
7,9.549999952316284,immed,50450.000047683716,Fri Jan 17 2025 13:42:28 GMT-0500 (Eastern Standard Time),876389.5,A,st,I,t,140,3,433.3999996185303,875956.1000003815,9002,WL,B,5.0
7,9.733999967575073,immed,50266.00003242493,Fri Jan 17 2025 13:42:28 GMT-0500 (Eastern Standard Time),876573.0,A,sta,I,a,165,3,616.8999996185303,875956.1000003815,9002,WL,B,5.0
7,9.850000143051147,immed,50149.99985694885,Fri Jan 17 2025 13:42:28 GMT-0500 (Eastern Standard Time),876689.6000003815,A,star,I,r,93,3,733.5,875956.1000003815,9002,WL,B,5.0
7,11.25,immed,48750.0,Fri Jan 17 2025 13:42:28 GMT-0500 (Eastern Standard Time),878089.3000011444,A,starenter,I,enter,1374,3,2133.2000007629395,875956.1000003815,9002,WL,B,5.0
7,11.683000087738037,immed,48316.99991226196,Fri Jan 17 2025 13:42:28 GMT-0500 (Eastern Standard Time),878522.8000011444,A,w,I,w,419,3,433.3000011444092,878089.5,9002,WL,B,6.0
7,11.900000095367432,immed,48099.99990463257,Fri Jan 17 2025 13:42:28 GMT-0500 (Eastern Standard Time),878739.7000007629,A,wi,I,i,191,3,650.2000007629395,878089.5,9002,WL,B,6.0
7,12.049999952316284,immed,47950.000047683716,Fri Jan 17 2025 13:42:28 GMT-0500 (Eastern Standard Time),878889.3000011444,A,wif,I,f,132,3,799.8000011444092,878089.5,9002,WL,B,6.0
7,12.217000007629395,immed,47782.999992370605,Fri Jan 17 2025 13:42:28 GMT-0500 (Eastern Standard Time),879056.2000007629,A,wife,I,e,140,3,966.7000007629395,878089.5,9002,WL,B,6.0
7,12.700000047683716,immed,47299.999952316284,Fri Jan 17 2025 13:42:28 GMT-0500 (Eastern Standard Time),879539.1000003815,A,wifeenter,I,enter,456,3,1449.6000003814697,878089.5,9002,WL,B,6.0
7,13.032999992370605,immed,46967.000007629395,Fri Jan 17 2025 13:42:28 GMT-0500 (Eastern Standard Time),879872.6000003815,A,w,I,w,313,3,333.20000076293945,879539.3999996185,9002,WL,B,7.0
7,13.134000062942505,immed,46865.999937057495,Fri Jan 17 2025 13:42:28 GMT-0500 (Eastern Standard Time),879973.1000003815,A,wi,I,i,90,3,433.70000076293945,879539.3999996185,9002,WL,B,7.0
7,13.33299994468689,immed,46667.00005531311,Fri Jan 17 2025 13:42:28 GMT-0500 (Eastern Standard Time),880172.6000003815,A,win,I,n,172,3,633.2000007629395,879539.3999996185,9002,WL,B,7.0
7,13.600000143051147,immed,46399.99985694885,Fri Jan 17 2025 13:42:28 GMT-0500 (Eastern Standard Time),880439.3000011444,A,wind,I,d,256,3,899.9000015258789,879539.3999996185,9002,WL,B,7.0
7,13.717000007629395,immed,46282.999992370605,Fri Jan 17 2025 13:42:28 GMT-0500 (Eastern Standard Time),880556.3999996185,A,windo,I,o,100,3,1017.0,879539.3999996185,9002,WL,B,7.0
7,15.233000040054321,immed,44766.99995994568,Fri Jan 17 2025 13:42:28 GMT-0500 (Eastern Standard Time),882072.8999996185,A,window,I,w,1493,3,2533.5,879539.3999996185,9002,WL,B,7.0
7,18.200000047683716,immed,41799.999952316284,Fri Jan 17 2025 13:42:28 GMT-0500 (Eastern Standard Time),885039.2000007629,A,windowenter,I,enter,2944,3,5499.800001144409,879539.3999996185,9002,WL,B,7.0
7,19.716000080108643,immed,40283.99991989136,Fri Jan 17 2025 13:42:28 GMT-0500 (Eastern Standard Time),886555.8000011444,A,c,I,c,1501,3,1516.3000011444092,885039.5,9002,WL,B,8.0
7,19.799999952316284,immed,40200.000047683716,Fri Jan 17 2025 13:42:28 GMT-0500 (Eastern Standard Time),886639.6000003815,A,ci,I,i,64,3,1600.1000003814697,885039.5,9002,WL,B,8.0
7,19.967000007629395,immed,40032.999992370605,Fri Jan 17 2025 13:42:28 GMT-0500 (Eastern Standard Time),886806.2000007629,A,cit,I,t,152,3,1766.7000007629395,885039.5,9002,WL,B,8.0
7,20.266000032424927,immed,39733.99996757507,Fri Jan 17 2025 13:42:28 GMT-0500 (Eastern Standard Time),887105.8000011444,A,city,I,y,265,3,2066.300001144409,885039.5,9002,WL,B,8.0
7,21.532999992370605,immed,38467.000007629395,Fri Jan 17 2025 13:42:28 GMT-0500 (Eastern Standard Time),888372.3000011444,A,cityenter,I,enter,1240,3,3332.800001144409,885039.5,9002,WL,B,8.0
7,23.049999952316284,immed,36950.000047683716,Fri Jan 17 2025 13:42:28 GMT-0500 (Eastern Standard Time),889889.7000007629,A,p,I,p,1496,3,1517.1000003814697,888372.6000003815,9002,WL,B,9.0
7,23.483999967575073,immed,36516.00003242493,Fri Jan 17 2025 13:42:28 GMT-0500 (Eastern Standard Time),890323.0,A,pu,I,u,408,3,1950.3999996185303,888372.6000003815,9002,WL,B,9.0
7,23.717000007629395,immed,36282.999992370605,Fri Jan 17 2025 13:42:28 GMT-0500 (Eastern Standard Time),890556.3999996185,A,pup,I,p,207,3,2183.7999992370605,888372.6000003815,9002,WL,B,9.0
7,24.26699995994568,immed,35733.00004005432,Fri Jan 17 2025 13:42:28 GMT-0500 (Eastern Standard Time),891106.3999996185,A,pupi,I,i,525,3,2733.7999992370605,888372.6000003815,9002,WL,B,9.0
7,24.967000007629395,immed,35032.999992370605,Fri Jan 17 2025 13:42:28 GMT-0500 (Eastern Standard Time),891806.2000007629,A,pupil,I,l,679,3,3433.6000003814697,888372.6000003815,9002,WL,B,9.0
7,25.83299994468689,immed,34167.00005531311,Fri Jan 17 2025 13:42:28 GMT-0500 (Eastern Standard Time),892672.7000007629,A,pupilenter,I,enter,842,3,4300.10000038147,888372.6000003815,9002,WL,B,9.0
7,27.01699995994568,immed,32983.00004005432,Fri Jan 17 2025 13:42:28 GMT-0500 (Eastern Standard Time),893856.7000007629,A,c,I,c,1164,3,1183.6000003814697,892673.1000003815,9002,WL,B,10.0
7,27.133000135421753,immed,32866.99986457825,Fri Jan 17 2025 13:42:28 GMT-0500 (Eastern Standard Time),893972.8000011444,A,ca,I,a,89,3,1299.7000007629395,892673.1000003815,9002,WL,B,10.0
7,27.40000009536743,immed,32599.99990463257,Fri Jan 17 2025 13:42:28 GMT-0500 (Eastern Standard Time),894239.7000007629,A,cab,I,b,246,3,1566.6000003814697,892673.1000003815,9002,WL,B,10.0
7,27.65000009536743,immed,32349.99990463257,Fri Jan 17 2025 13:42:28 GMT-0500 (Eastern Standard Time),894489.5,A,cabi,I,i,225,3,1816.3999996185303,892673.1000003815,9002,WL,B,10.0
7,27.83299994468689,immed,32167.00005531311,Fri Jan 17 2025 13:42:28 GMT-0500 (Eastern Standard Time),894672.8999996185,A,cabin,I,n,161,3,1999.7999992370605,892673.1000003815,9002,WL,B,10.0
7,28.25,immed,31750.0,Fri Jan 17 2025 13:42:28 GMT-0500 (Eastern Standard Time),895089.2000007629,A,cabinenter,I,enter,383,3,2416.1000003814697,892673.1000003815,9002,WL,B,10.0
7,28.66700005531311,immed,31332.99994468689,Fri Jan 17 2025 13:42:28 GMT-0500 (Eastern Standard Time),895506.5,A,l,I,l,395,3,417.0,895089.5,9002,WL,B,11.0
7,28.784000158309937,immed,31215.999841690063,Fri Jan 17 2025 13:42:28 GMT-0500 (Eastern Standard Time),895623.0,A,la,I,a,101,3,533.5,895089.5,9002,WL,B,11.0
7,29.032999992370605,immed,30967.000007629395,Fri Jan 17 2025 13:42:28 GMT-0500 (Eastern Standard Time),895872.6000003815,A,las,I,s,226,3,783.1000003814697,895089.5,9002,WL,B,11.0
7,29.483999967575073,immed,30516.000032424927,Fri Jan 17 2025 13:42:28 GMT-0500 (Eastern Standard Time),896323.1000003815,A,la,I,backspace,427,3,1233.6000003814697,895089.5,9002,WL,B,11.0
7,29.73300004005432,immed,30266.99995994568,Fri Jan 17 2025 13:42:28 GMT-0500 (Eastern Standard Time),896572.5,A,lak,I,k,230,3,1483.0,895089.5,9002,WL,B,11.0
7,29.884000062942505,immed,30115.999937057495,Fri Jan 17 2025 13:42:28 GMT-0500 (Eastern Standard Time),896723.1000003815,A,lake,I,e,126,3,1633.6000003814697,895089.5,9002,WL,B,11.0
7,31.81599998474121,immed,28184.00001525879,Fri Jan 17 2025 13:42:28 GMT-0500 (Eastern Standard Time),898655.8999996185,A,lakeenter,I,enter,1909,3,3566.3999996185303,895089.5,9002,WL,B,11.0
7,32.15000009536743,immed,27849.99990463257,Fri Jan 17 2025 13:42:28 GMT-0500 (Eastern Standard Time),898989.0,A,j,I,j,316,3,332.6999988555908,898656.3000011444,9002,WL,B,12.0
7,32.26699995994568,immed,27733.00004005432,Fri Jan 17 2025 13:42:28 GMT-0500 (Eastern Standard Time),899106.3000011444,A,jp,I,p,95,3,450.0,898656.3000011444,9002,WL,B,12.0
7,32.65000009536743,immed,27349.99990463257,Fri Jan 17 2025 13:42:28 GMT-0500 (Eastern Standard Time),899489.2000007629,A,j,I,backspace,358,3,832.8999996185303,898656.3000011444,9002,WL,B,12.0
7,32.782999992370605,immed,27217.000007629395,Fri Jan 17 2025 13:42:28 GMT-0500 (Eastern Standard Time),899622.8999996185,A,,I,backspace,124,3,966.5999984741211,898656.3000011444,9002,WL,B,12.0
7,33.117000102996826,immed,26882.999897003174,Fri Jan 17 2025 13:42:28 GMT-0500 (Eastern Standard Time),899956.3000011444,A,p,I,p,298,3,1300.0,898656.3000011444,9002,WL,B,12.0
7,33.38300013542175,immed,26616.999864578247,Fri Jan 17 2025 13:42:28 GMT-0500 (Eastern Standard Time),900222.8999996185,A,pi,I,i,246,3,1566.599998474121,898656.3000011444,9002,WL,B,12.0
7,33.56700015068054,immed,26432.999849319458,Fri Jan 17 2025 13:42:28 GMT-0500 (Eastern Standard Time),900406.0,A,pin,I,n,170,3,1749.6999988555908,898656.3000011444,9002,WL,B,12.0
7,34.117000102996826,immed,25882.999897003174,Fri Jan 17 2025 13:42:28 GMT-0500 (Eastern Standard Time),900956.6000003815,A,pi,I,backspace,530,3,2300.2999992370605,898656.3000011444,9002,WL,B,12.0
7,34.35000014305115,immed,25649.999856948853,Fri Jan 17 2025 13:42:28 GMT-0500 (Eastern Standard Time),901189.2000007629,A,pip,I,p,221,3,2532.8999996185303,898656.3000011444,9002,WL,B,12.0
