acc_sum,block,block_c,block_cond,con_img,correct,correct_response,datetime,endtime,face,jitter,line,project,response,response_time,row_sel,session_number,start_end,starttime,subject_id,task,task_vers,trial
0,prac,1,A,haborder.png,0,m,Tue Mar 03 2026 10:52:24 GMT-0600 (Central Standard Time),92228.79999995232,CFD-WM-006-013-HC.jpg,1700,solid,O,None,1514,9,1,3997.899999976158,88230.89999997616,7764,ATS,A,1
1,prac,1,A,haborder.png,1,z,Tue Mar 03 2026 10:52:24 GMT-0600 (Central Standard Time),95096.29999995232,CFD-BF-023-013-A.jpg,1000,solid,O,z,1070,4,1,6865.399999976158,88230.89999997616,7764,ATS,A,2
2,prac,1,A,haborder.png,1,m,Tue Mar 03 2026 10:52:24 GMT-0600 (Central Standard Time),98179.89999997616,CFD-BM-029-026-HC.jpg,1500,solid,O,m,784,3,1,9949.0,88230.89999997616,7764,ATS,A,3
3,prac,1,A,haborder.png,1,z,Tue Mar 03 2026 10:52:24 GMT-0600 (Central Standard Time),101960.39999997616,CFD-WM-013-015-A.jpg,1900,solid,O,z,1093,8,1,13729.5,88230.89999997616,7764,ATS,A,4
4,prac,1,A,haborder.png,1,m,Tue Mar 03 2026 10:52:24 GMT-0600 (Central Standard Time),105476.89999997616,CFD-BF-028-020-HC.jpg,2000,solid,O,m,735,5,1,17246.0,88230.89999997616,7764,ATS,A,5
5,prac,1,A,haborder.png,1,z,Tue Mar 03 2026 10:52:24 GMT-0600 (Central Standard Time),108674.79999995232,CFD-WF-003-014-A.jpg,1600,solid,O,z,798,10,1,20443.899999976158,88230.89999997616,7764,ATS,A,6
6,prac,1,A,haborder.png,1,m,Tue Mar 03 2026 10:52:24 GMT-0600 (Central Standard Time),112041.09999996424,CFD-BM-017-052-HC.jpg,1700,solid,O,m,868,1,1,23810.19999998808,88230.89999997616,7764,ATS,A,7
7,prac,1,A,haborder.png,1,z,Tue Mar 03 2026 10:52:24 GMT-0600 (Central Standard Time),115157.39999997616,CFD-BF-039-039-A.jpg,1200,solid,O,z,1136,6,1,26926.5,88230.89999997616,7764,ATS,A,8
8,prac,1,A,haborder.png,1,z,Tue Mar 03 2026 10:52:24 GMT-0600 (Central Standard Time),118352.09999996424,CFD-BM-005-010-A.jpg,1600,solid,O,z,802,2,1,30121.19999998808,88230.89999997616,7764,ATS,A,9
9,prac,1,A,haborder.png,1,z,Tue Mar 03 2026 10:52:24 GMT-0600 (Central Standard Time),120870.29999995232,CFD-WF-019-015-A.jpg,1000,solid,O,z,722,12,1,32639.399999976158,88230.89999997616,7764,ATS,A,10
10,prac,1,A,haborder.png,1,m,Tue Mar 03 2026 10:52:24 GMT-0600 (Central Standard Time),124021.79999995232,CFD-WF-017-016-HC.jpg,1500,solid,O,m,868,11,1,35790.89999997616,88230.89999997616,7764,ATS,A,11
11,prac,1,A,haborder.png,1,m,Tue Mar 03 2026 10:52:24 GMT-0600 (Central Standard Time),127070.79999995232,CFD-WM-004-005-HC.jpg,1400,solid,O,m,868,7,1,38839.89999997616,88230.89999997616,7764,ATS,A,12
1,prac,1,B,mfborder.png,1,m,Tue Mar 03 2026 10:52:24 GMT-0600 (Central Standard Time),166574.89999997616,CFD-BM-005-010-A.jpg,2000,dash,O,m,1030,5,1,3816.899999976158,162758.0,7764,ATS,A,1
2,prac,1,B,mfborder.png,1,z,Tue Mar 03 2026 10:52:24 GMT-0600 (Central Standard Time),169523.59999996424,CFD-WF-003-014-A.jpg,1500,dash,O,z,650,11,1,6765.599999964237,162758.0,7764,ATS,A,2
3,prac,1,B,mfborder.png,1,z,Tue Mar 03 2026 10:52:24 GMT-0600 (Central Standard Time),171989.39999997616,CFD-WF-017-016-HC.jpg,1000,dash,O,z,689,12,1,9231.399999976158,162758.0,7764,ATS,A,3
4,prac,1,B,mfborder.png,1,z,Tue Mar 03 2026 10:52:24 GMT-0600 (Central Standard Time),174886.69999998808,CFD-BF-028-020-HC.jpg,1400,dash,O,z,709,7,1,12128.699999988079,162758.0,7764,ATS,A,4
5,prac,1,B,mfborder.png,1,z,Tue Mar 03 2026 10:52:24 GMT-0600 (Central Standard Time),177803.19999998808,CFD-BF-010-005-HC.jpg,1500,dash,O,z,633,3,1,15045.199999988079,162758.0,7764,ATS,A,5
6,prac,1,B,mfborder.png,1,z,Tue Mar 03 2026 10:52:24 GMT-0600 (Central Standard Time),181218.19999998808,CFD-WF-002-008-HC.jpg,1900,dash,O,z,724,8,1,18460.19999998808,162758.0,7764,ATS,A,6
7,prac,1,B,mfborder.png,1,m,Tue Mar 03 2026 10:52:24 GMT-0600 (Central Standard Time),184350.79999995232,CFD-BM-010-019-A.jpg,1600,dash,O,m,744,2,1,21592.799999952316,162758.0,7764,ATS,A,7
8,prac,1,B,mfborder.png,1,m,Tue Mar 03 2026 10:52:24 GMT-0600 (Central Standard Time),187433.59999996424,CFD-WM-013-015-A.jpg,1700,dash,O,m,593,9,1,24675.599999964237,162758.0,7764,ATS,A,8
9,prac,1,B,mfborder.png,1,z,Tue Mar 03 2026 10:52:24 GMT-0600 (Central Standard Time),189848.79999995232,CFD-BF-023-013-A.jpg,1000,dash,O,z,618,4,1,27090.799999952316,162758.0,7764,ATS,A,9
10,prac,1,B,mfborder.png,1,m,Tue Mar 03 2026 10:52:24 GMT-0600 (Central Standard Time),193096.39999997616,CFD-BM-029-026-HC.jpg,1700,dash,O,m,759,1,1,30338.399999976158,162758.0,7764,ATS,A,10
11,prac,1,B,mfborder.png,1,m,Tue Mar 03 2026 10:52:24 GMT-0600 (Central Standard Time),196030.0,CFD-WM-019-013-A.jpg,1200,dash,O,m,936,6,1,33272.0,162758.0,7764,ATS,A,11
12,prac,1,B,mfborder.png,1,m,Tue Mar 03 2026 10:52:24 GMT-0600 (Central Standard Time),199395.69999998808,CFD-WM-006-013-HC.jpg,1600,dash,O,m,968,10,1,36637.69999998808,162758.0,7764,ATS,A,12
1,test,1,A,haborder.png,1,z,Tue Mar 03 2026 10:52:24 GMT-0600 (Central Standard Time),234018.29999995232,CFD-BF-039-039-A.jpg,1200,solid,O,z,885,6,1,2115.2999999523163,231903.0,7764,ATS,A,1
2,test,1,A,haborder.png,1,m,Tue Mar 03 2026 10:52:24 GMT-0600 (Central Standard Time),236633.59999996424,CFD-BF-028-020-HC.jpg,2000,solid,O,m,594,5,1,4730.599999964237,231903.0,7764,ATS,A,2
3,test,1,A,haborder.png,1,z,Tue Mar 03 2026 10:52:24 GMT-0600 (Central Standard Time),238400.59999996424,CFD-WF-019-015-A.jpg,1000,solid,O,z,736,12,1,6497.599999964237,231903.0,7764,ATS,A,3
4,test,1,A,haborder.png,1,m,Tue Mar 03 2026 10:52:24 GMT-0600 (Central Standard Time),240865.59999996424,CFD-WM-006-013-HC.jpg,1700,solid,O,m,743,9,1,8962.599999964237,231903.0,7764,ATS,A,4
5,test,1,A,haborder.png,1,m,Tue Mar 03 2026 10:52:24 GMT-0600 (Central Standard Time),243198.89999997616,CFD-BM-029-026-HC.jpg,1500,solid,O,m,814,3,1,11295.899999976158,231903.0,7764,ATS,A,5
6,test,1,A,haborder.png,1,m,Tue Mar 03 2026 10:52:24 GMT-0600 (Central Standard Time),245564.79999995232,CFD-BM-017-052-HC.jpg,1700,solid,O,m,640,1,1,13661.799999952316,231903.0,7764,ATS,A,6
7,test,1,A,haborder.png,1,z,Tue Mar 03 2026 10:52:24 GMT-0600 (Central Standard Time),247917.39999997616,CFD-BM-005-010-A.jpg,1600,solid,O,z,718,2,1,16014.399999976158,231903.0,7764,ATS,A,7
8,test,1,A,haborder.png,1,z,Tue Mar 03 2026 10:52:24 GMT-0600 (Central Standard Time),250646.79999995232,CFD-WM-013-015-A.jpg,1900,solid,O,z,800,8,1,18743.799999952316,231903.0,7764,ATS,A,8
9,test,1,A,haborder.png,1,z,Tue Mar 03 2026 10:52:24 GMT-0600 (Central Standard Time),252328.5,CFD-BF-023-013-A.jpg,1000,solid,O,z,660,4,1,20425.5,231903.0,7764,ATS,A,9
10,test,1,A,haborder.png,1,z,Tue Mar 03 2026 10:52:24 GMT-0600 (Central Standard Time),253977.5,CFD-WF-019-015-A.jpg,1000,solid,O,z,624,12,1,22074.5,231903.0,7764,ATS,A,10
11,test,1,A,haborder.png,1,m,Tue Mar 03 2026 10:52:24 GMT-0600 (Central Standard Time),256311.0,CFD-BM-017-052-HC.jpg,1700,solid,O,m,611,1,1,24408.0,231903.0,7764,ATS,A,11
12,test,1,A,haborder.png,1,m,Tue Mar 03 2026 10:52:24 GMT-0600 (Central Standard Time),258595.0,CFD-WF-017-016-HC.jpg,1500,solid,O,m,752,11,1,26692.0,231903.0,7764,ATS,A,12
13,test,1,A,haborder.png,1,z,Tue Mar 03 2026 10:52:24 GMT-0600 (Central Standard Time),260993.0,CFD-WF-003-014-A.jpg,1600,solid,O,z,778,10,1,29090.0,231903.0,7764,ATS,A,13
14,test,1,A,haborder.png,1,m,Tue Mar 03 2026 10:52:24 GMT-0600 (Central Standard Time),263259.1999999881,CFD-WM-004-005-HC.jpg,1400,solid,O,m,843,7,1,31356.19999998808,231903.0,7764,ATS,A,14
15,test,1,A,haborder.png,1,z,Tue Mar 03 2026 10:52:24 GMT-0600 (Central Standard Time),265441.39999997616,CFD-BF-023-013-A.jpg,1000,solid,O,z,1160,4,1,33538.39999997616,231903.0,7764,ATS,A,15
16,test,1,A,haborder.png,1,z,Tue Mar 03 2026 10:52:24 GMT-0600 (Central Standard Time),267341.59999996424,CFD-BF-039-039-A.jpg,1200,solid,O,z,668,6,1,35438.59999996424,231903.0,7764,ATS,A,16
17,test,1,A,haborder.png,1,z,Tue Mar 03 2026 10:52:24 GMT-0600 (Central Standard Time),269723.89999997616,CFD-WF-003-014-A.jpg,1600,solid,O,z,750,10,1,37820.89999997616,231903.0,7764,ATS,A,17
18,test,1,A,haborder.png,1,m,Tue Mar 03 2026 10:52:24 GMT-0600 (Central Standard Time),272622.7999999523,CFD-BF-028-020-HC.jpg,2000,solid,O,m,862,5,1,40719.799999952316,231903.0,7764,ATS,A,18
19,test,1,A,haborder.png,1,z,Tue Mar 03 2026 10:52:24 GMT-0600 (Central Standard Time),275271.1999999881,CFD-BM-005-010-A.jpg,1600,solid,O,z,1028,2,1,43368.19999998808,231903.0,7764,ATS,A,19
20,test,1,A,haborder.png,1,m,Tue Mar 03 2026 10:52:24 GMT-0600 (Central Standard Time),277754.2999999523,CFD-WF-017-016-HC.jpg,1500,solid,O,m,958,11,1,45851.299999952316,231903.0,7764,ATS,A,20
21,test,1,A,haborder.png,1,m,Tue Mar 03 2026 10:52:24 GMT-0600 (Central Standard Time),280019.7999999523,CFD-BM-029-026-HC.jpg,1500,solid,O,m,740,3,1,48116.799999952316,231903.0,7764,ATS,A,21
22,test,1,A,haborder.png,1,m,Tue Mar 03 2026 10:52:24 GMT-0600 (Central Standard Time),282585.2999999523,CFD-WM-006-013-HC.jpg,1700,solid,O,m,835,9,1,50682.299999952316,231903.0,7764,ATS,A,22
23,test,1,A,haborder.png,1,m,Tue Mar 03 2026 10:52:24 GMT-0600 (Central Standard Time),284819.1999999881,CFD-WM-004-005-HC.jpg,1400,solid,O,m,807,7,1,52916.19999998808,231903.0,7764,ATS,A,23
24,test,1,A,haborder.png,1,z,Tue Mar 03 2026 10:52:24 GMT-0600 (Central Standard Time),287602.59999996424,CFD-WM-013-015-A.jpg,1900,solid,O,z,861,8,1,55699.59999996424,231903.0,7764,ATS,A,24
1,test,1,B,mfborder.png,1,m,Tue Mar 03 2026 10:52:24 GMT-0600 (Central Standard Time),301813.09999996424,CFD-BM-010-019-A.jpg,1600,dash,O,m,856,2,1,2482.599999964237,299330.5,7764,ATS,A,1
2,test,1,B,mfborder.png,1,z,Tue Mar 03 2026 10:52:24 GMT-0600 (Central Standard Time),304312.09999996424,CFD-WF-002-008-HC.jpg,1900,dash,O,z,579,8,1,4981.599999964237,299330.5,7764,ATS,A,2
3,test,1,B,mfborder.png,1,z,Tue Mar 03 2026 10:52:24 GMT-0600 (Central Standard Time),306078.6999999881,CFD-BF-023-013-A.jpg,1000,dash,O,z,747,4,1,6748.199999988079,299330.5,7764,ATS,A,3
4,test,1,B,mfborder.png,1,z,Tue Mar 03 2026 10:52:24 GMT-0600 (Central Standard Time),308161.09999996424,CFD-WF-003-014-A.jpg,1500,dash,O,z,550,11,1,8830.599999964237,299330.5,7764,ATS,A,4
5,test,1,B,mfborder.png,1,z,Tue Mar 03 2026 10:52:24 GMT-0600 (Central Standard Time),310610.7999999523,CFD-WF-002-008-HC.jpg,1900,dash,O,z,526,8,1,11280.299999952316,299330.5,7764,ATS,A,5
6,test,1,B,mfborder.png,1,z,Tue Mar 03 2026 10:52:24 GMT-0600 (Central Standard Time),312558.6999999881,CFD-BF-023-013-A.jpg,1000,dash,O,z,927,4,1,13228.199999988079,299330.5,7764,ATS,A,6
7,test,1,B,mfborder.png,1,m,Tue Mar 03 2026 10:52:24 GMT-0600 (Central Standard Time),314709.6999999881,CFD-WM-006-013-HC.jpg,1600,dash,O,m,517,10,1,15379.199999988079,299330.5,7764,ATS,A,7
8,test,1,B,mfborder.png,1,m,Tue Mar 03 2026 10:52:24 GMT-0600 (Central Standard Time),316957.1999999881,CFD-BM-029-026-HC.jpg,1700,dash,O,m,521,1,1,17626.69999998808,299330.5,7764,ATS,A,8
9,test,1,B,mfborder.png,1,m,Tue Mar 03 2026 10:52:24 GMT-0600 (Central Standard Time),319641.1999999881,CFD-BM-005-010-A.jpg,2000,dash,O,m,653,5,1,20310.69999998808,299330.5,7764,ATS,A,9
10,test,1,B,mfborder.png,1,z,Tue Mar 03 2026 10:52:24 GMT-0600 (Central Standard Time),321606.6999999881,CFD-WF-017-016-HC.jpg,1000,dash,O,z,938,12,1,22276.19999998808,299330.5,7764,ATS,A,10
11,test,1,B,mfborder.png,1,m,Tue Mar 03 2026 10:52:24 GMT-0600 (Central Standard Time),323872.59999996424,CFD-BM-029-026-HC.jpg,1700,dash,O,m,543,1,1,24542.099999964237,299330.5,7764,ATS,A,11
12,test,1,B,mfborder.png,1,m,Tue Mar 03 2026 10:52:24 GMT-0600 (Central Standard Time),326373.89999997616,CFD-WM-013-015-A.jpg,1700,dash,O,m,785,9,1,27043.399999976158,299330.5,7764,ATS,A,12
13,test,1,B,mfborder.png,1,z,Tue Mar 03 2026 10:52:24 GMT-0600 (Central Standard Time),328038.7999999523,CFD-WF-017-016-HC.jpg,1000,dash,O,z,633,12,1,28708.299999952316,299330.5,7764,ATS,A,13
14,test,1,B,mfborder.png,1,z,Tue Mar 03 2026 10:52:24 GMT-0600 (Central Standard Time),330253.6999999881,CFD-BF-010-005-HC.jpg,1500,dash,O,z,697,3,1,30923.19999998808,299330.5,7764,ATS,A,14
15,test,1,B,mfborder.png,1,m,Tue Mar 03 2026 10:52:24 GMT-0600 (Central Standard Time),332703.89999997616,CFD-WM-006-013-HC.jpg,1600,dash,O,m,820,10,1,33373.39999997616,299330.5,7764,ATS,A,15
16,test,1,B,mfborder.png,1,m,Tue Mar 03 2026 10:52:24 GMT-0600 (Central Standard Time),335736.2999999523,CFD-BM-005-010-A.jpg,2000,dash,O,m,1000,5,1,36405.799999952316,299330.5,7764,ATS,A,16
17,test,1,B,mfborder.png,1,z,Tue Mar 03 2026 10:52:24 GMT-0600 (Central Standard Time),338304.2999999523,CFD-BF-028-020-HC.jpg,1400,dash,O,z,1136,7,1,38973.799999952316,299330.5,7764,ATS,A,17
18,test,1,B,mfborder.png,1,z,Tue Mar 03 2026 10:52:24 GMT-0600 (Central Standard Time),340450.2999999523,CFD-BF-028-020-HC.jpg,1400,dash,O,z,724,7,1,41119.799999952316,299330.5,7764,ATS,A,18
19,test,1,B,mfborder.png,1,m,Tue Mar 03 2026 10:52:24 GMT-0600 (Central Standard Time),342968.6999999881,CFD-WM-013-015-A.jpg,1700,dash,O,m,787,9,1,43638.19999998808,299330.5,7764,ATS,A,19
20,test,1,B,mfborder.png,1,z,Tue Mar 03 2026 10:52:24 GMT-0600 (Central Standard Time),345248.6999999881,CFD-BF-010-005-HC.jpg,1500,dash,O,z,750,3,1,45918.19999998808,299330.5,7764,ATS,A,20
21,test,1,B,mfborder.png,1,m,Tue Mar 03 2026 10:52:24 GMT-0600 (Central Standard Time),347349.89999997616,CFD-WM-019-013-A.jpg,1200,dash,O,m,867,6,1,48019.39999997616,299330.5,7764,ATS,A,21
22,test,1,B,mfborder.png,1,m,Tue Mar 03 2026 10:52:24 GMT-0600 (Central Standard Time),349664.7999999523,CFD-BM-010-019-A.jpg,1600,dash,O,m,685,2,1,50334.299999952316,299330.5,7764,ATS,A,22
23,test,1,B,mfborder.png,1,z,Tue Mar 03 2026 10:52:24 GMT-0600 (Central Standard Time),352014.09999996424,CFD-WF-003-014-A.jpg,1500,dash,O,z,822,11,1,52683.59999996424,299330.5,7764,ATS,A,23
23,test,1,B,mfborder.png,0,m,Tue Mar 03 2026 10:52:24 GMT-0600 (Central Standard Time),354163.1999999881,CFD-WM-019-013-A.jpg,1200,dash,O,z,917,6,1,54832.69999998808,299330.5,7764,ATS,A,24
0,prac,1,C,mfborder.png,0,z,Tue Mar 03 2026 10:52:24 GMT-0600 (Central Standard Time),454982.0,CFD-WF-017-016-HC.jpg,1600,dash,O,None,1517,1,1,3898.5,451083.5,7764,ATS,A,1
1,prac,1,C,mfborder.png,1,m,Tue Mar 03 2026 10:52:24 GMT-0600 (Central Standard Time),457963.1999999881,CFD-BM-005-010-A.jpg,1200,dash,O,m,990,5,1,6879.699999988079,451083.5,7764,ATS,A,2
1,prac,1,C,mfborder.png,0,m,Tue Mar 03 2026 10:52:24 GMT-0600 (Central Standard Time),461646.89999997616,CFD-WM-013-015-A.jpg,1700,solid,O,z,1183,6,1,10563.399999976158,451083.5,7764,ATS,A,3
2,prac,1,C,mfborder.png,1,m,Tue Mar 03 2026 10:52:24 GMT-0600 (Central Standard Time),465513.0,CFD-BM-017-052-HC.jpg,2000,solid,O,m,1095,4,1,14429.5,451083.5,7764,ATS,A,4
3,prac,1,C,haborder.png,1,z,Tue Mar 03 2026 10:52:24 GMT-0600 (Central Standard Time),469026.09999996424,CFD-BF-023-013-A.jpg,1900,dash,O,z,825,7,1,17942.599999964237,451083.5,7764,ATS,A,5
4,prac,1,C,haborder.png,1,m,Tue Mar 03 2026 10:52:24 GMT-0600 (Central Standard Time),472309.0,CFD-BM-029-026-HC.jpg,1500,solid,O,m,998,10,1,21225.5,451083.5,7764,ATS,A,6
5,prac,1,C,haborder.png,1,m,Tue Mar 03 2026 10:52:24 GMT-0600 (Central Standard Time),475825.5,CFD-WM-004-005-HC.jpg,1400,solid,O,m,1317,12,1,24742.0,451083.5,7764,ATS,A,7
6,prac,1,C,haborder.png,1,z,Tue Mar 03 2026 10:52:24 GMT-0600 (Central Standard Time),479308.7999999523,CFD-BF-039-039-A.jpg,1700,solid,O,z,991,8,1,28225.299999952316,451083.5,7764,ATS,A,8
7,prac,1,C,mfborder.png,1,z,Tue Mar 03 2026 10:52:24 GMT-0600 (Central Standard Time),483055.7999999523,CFD-WF-019-015-A.jpg,1500,solid,O,z,1450,2,1,31972.299999952316,451083.5,7764,ATS,A,9
8,prac,1,C,haborder.png,1,m,Tue Mar 03 2026 10:52:24 GMT-0600 (Central Standard Time),486055.5,CFD-WM-004-005-HC.jpg,1000,dash,O,m,1211,11,1,34972.0,451083.5,7764,ATS,A,10
8,prac,1,C,mfborder.png,0,z,Tue Mar 03 2026 10:52:24 GMT-0600 (Central Standard Time),489353.7999999523,CFD-BF-028-020-HC.jpg,1000,dash,O,None,1518,3,1,38270.299999952316,451083.5,7764,ATS,A,11
8,prac,1,C,haborder.png,0,z,Tue Mar 03 2026 10:52:24 GMT-0600 (Central Standard Time),493020.2999999523,CFD-WF-003-014-A.jpg,1600,dash,O,m,1266,9,1,41936.799999952316,451083.5,7764,ATS,A,12
0,test,1,C,mfborder.png,0,m,Tue Mar 03 2026 10:52:24 GMT-0600 (Central Standard Time),538204.1999999881,CFD-WM-019-013-A.jpg,2000,dash,O,None,1514,5,1,3532.800000011921,534671.3999999762,7764,ATS,A,1
1,test,1,C,mfborder.png,1,z,Tue Mar 03 2026 10:52:24 GMT-0600 (Central Standard Time),541253.1999999881,CFD-BF-023-013-A.jpg,1600,dash,O,z,1423,2,1,6581.800000011921,534671.3999999762,7764,ATS,A,2
1,test,1,C,haborder.png,0,z,Tue Mar 03 2026 10:52:24 GMT-0600 (Central Standard Time),544687.1999999881,CFD-BM-005-010-A.jpg,1900,solid,O,None,1516,8,1,10015.800000011921,534671.3999999762,7764,ATS,A,3
1,test,1,C,haborder.png,0,z,Tue Mar 03 2026 10:52:24 GMT-0600 (Central Standard Time),547318.5,CFD-BM-010-019-A.jpg,1700,solid,O,m,906,9,1,12647.100000023842,534671.3999999762,7764,ATS,A,4
2,test,1,C,mfborder.png,1,z,Tue Mar 03 2026 10:52:24 GMT-0600 (Central Standard Time),550218.6999999881,CFD-WF-003-014-A.jpg,1500,dash,O,z,1377,3,1,15547.300000011921,534671.3999999762,7764,ATS,A,5
2,test,1,C,mfborder.png,0,m,Tue Mar 03 2026 10:52:24 GMT-0600 (Central Standard Time),552483.3999999762,CFD-BM-029-026-HC.jpg,1200,dash,O,z,1042,6,1,17812.0,534671.3999999762,7764,ATS,A,6
2,test,1,C,haborder.png,0,z,Tue Mar 03 2026 10:52:24 GMT-0600 (Central Standard Time),554932.5999999642,CFD-WM-013-015-A.jpg,1400,solid,O,m,1018,7,1,20261.19999998808,534671.3999999762,7764,ATS,A,7
3,test,1,C,haborder.png,1,m,Tue Mar 03 2026 10:52:24 GMT-0600 (Central Standard Time),557531.5,CFD-BF-028-020-HC.jpg,1600,solid,O,m,975,10,1,22860.100000023842,534671.3999999762,7764,ATS,A,8
4,test,1,C,mfborder.png,1,z,Tue Mar 03 2026 10:52:24 GMT-0600 (Central Standard Time),560231.5,CFD-BF-010-005-HC.jpg,1700,dash,O,z,971,1,1,25560.100000023842,534671.3999999762,7764,ATS,A,9
5,test,1,C,mfborder.png,1,m,Tue Mar 03 2026 10:52:24 GMT-0600 (Central Standard Time),562563.5,CFD-BM-029-026-HC.jpg,1200,dash,O,m,1101,6,1,27892.100000023842,534671.3999999762,7764,ATS,A,10
5,test,1,C,mfborder.png,0,m,Tue Mar 03 2026 10:52:24 GMT-0600 (Central Standard Time),565879.1999999881,CFD-WM-019-013-A.jpg,2000,dash,O,z,1299,5,1,31207.80000001192,534671.3999999762,7764,ATS,A,11
5,test,1,C,mfborder.png,0,m,Tue Mar 03 2026 10:52:24 GMT-0600 (Central Standard Time),568412.6999999881,CFD-WM-006-013-HC.jpg,1000,dash,O,None,1517,4,1,33741.30000001192,534671.3999999762,7764,ATS,A,12
5,test,1,C,mfborder.png,0,z,Tue Mar 03 2026 10:52:24 GMT-0600 (Central Standard Time),571110.5999999642,CFD-BF-010-005-HC.jpg,1700,dash,O,m,979,1,1,36439.19999998808,534671.3999999762,7764,ATS,A,13
6,test,1,C,haborder.png,1,z,Tue Mar 03 2026 10:52:24 GMT-0600 (Central Standard Time),573559.7999999523,CFD-WM-013-015-A.jpg,1400,solid,O,z,1021,7,1,38888.39999997616,534671.3999999762,7764,ATS,A,14
7,test,1,C,mfborder.png,1,z,Tue Mar 03 2026 10:52:24 GMT-0600 (Central Standard Time),576275.2999999523,CFD-BF-023-013-A.jpg,1600,dash,O,z,1092,2,1,41603.89999997616,534671.3999999762,7764,ATS,A,15
7,test,1,C,haborder.png,0,z,Tue Mar 03 2026 10:52:24 GMT-0600 (Central Standard Time),579692.7999999523,CFD-BM-005-010-A.jpg,1900,solid,O,None,1502,8,1,45021.39999997616,534671.3999999762,7764,ATS,A,16
8,test,1,C,haborder.png,1,m,Tue Mar 03 2026 10:52:24 GMT-0600 (Central Standard Time),581990.5,CFD-WF-002-008-HC.jpg,1500,solid,O,m,765,11,1,47319.10000002384,534671.3999999762,7764,ATS,A,17
9,test,1,C,mfborder.png,1,z,Tue Mar 03 2026 10:52:24 GMT-0600 (Central Standard Time),584223.2999999523,CFD-WF-003-014-A.jpg,1500,dash,O,z,705,3,1,49551.89999997616,534671.3999999762,7764,ATS,A,18
10,test,1,C,haborder.png,1,m,Tue Mar 03 2026 10:52:24 GMT-0600 (Central Standard Time),585906.0999999642,CFD-WF-017-016-HC.jpg,1000,solid,O,m,660,12,1,51234.69999998808,534671.3999999762,7764,ATS,A,19
10,test,1,C,haborder.png,0,m,Tue Mar 03 2026 10:52:24 GMT-0600 (Central Standard Time),588805.6999999881,CFD-BF-028-020-HC.jpg,1600,solid,O,z,1273,10,1,54134.30000001192,534671.3999999762,7764,ATS,A,20
11,test,1,C,haborder.png,1,m,Tue Mar 03 2026 10:52:24 GMT-0600 (Central Standard Time),590771.7999999523,CFD-WF-017-016-HC.jpg,1000,solid,O,m,934,12,1,56100.39999997616,534671.3999999762,7764,ATS,A,21
11,test,1,C,mfborder.png,0,m,Tue Mar 03 2026 10:52:24 GMT-0600 (Central Standard Time),593304.7999999523,CFD-WM-006-013-HC.jpg,1000,dash,O,None,1517,4,1,58633.39999997616,534671.3999999762,7764,ATS,A,22
11,test,1,C,haborder.png,0,z,Tue Mar 03 2026 10:52:24 GMT-0600 (Central Standard Time),595836.5,CFD-BM-010-019-A.jpg,1700,solid,O,m,800,9,1,61165.10000002384,534671.3999999762,7764,ATS,A,23
11,test,1,C,haborder.png,0,m,Tue Mar 03 2026 10:52:24 GMT-0600 (Central Standard Time),598219.0,CFD-WF-002-008-HC.jpg,1500,solid,O,z,858,11,1,63547.60000002384,534671.3999999762,7764,ATS,A,24
0,test,2,C,mfborder.png,0,z,Tue Mar 03 2026 10:52:24 GMT-0600 (Central Standard Time),661365.6999999881,CFD-WF-019-015-A.jpg,1600,dash,O,None,1516,2,1,3131.800000011921,658233.8999999762,7764,ATS,A,1
0,test,2,C,haborder.png,0,m,Tue Mar 03 2026 10:52:24 GMT-0600 (Central Standard Time),664497.6999999881,CFD-BM-029-026-HC.jpg,1600,solid,O,None,1516,10,1,6263.800000011921,658233.8999999762,7764,ATS,A,2
0,test,2,C,haborder.png,0,z,Tue Mar 03 2026 10:52:24 GMT-0600 (Central Standard Time),667729.6999999881,CFD-WF-003-014-A.jpg,1700,solid,O,None,1517,9,1,9495.800000011921,658233.8999999762,7764,ATS,A,3
0,test,2,C,mfborder.png,0,z,Tue Mar 03 2026 10:52:24 GMT-0600 (Central Standard Time),670762.5,CFD-BF-028-020-HC.jpg,1500,dash,O,None,1515,3,1,12528.600000023842,658233.8999999762,7764,ATS,A,4
0,test,2,C,haborder.png,0,z,Tue Mar 03 2026 10:52:24 GMT-0600 (Central Standard Time),673694.7999999523,CFD-BF-023-013-A.jpg,1400,solid,O,None,1517,7,1,15460.899999976158,658233.8999999762,7764,ATS,A,5
0,test,2,C,haborder.png,0,z,Tue Mar 03 2026 10:52:24 GMT-0600 (Central Standard Time),676010.3999999762,CFD-BF-039-039-A.jpg,1900,solid,O,m,385,8,1,17776.5,658233.8999999762,7764,ATS,A,6
0,test,2,C,mfborder.png,0,m,Tue Mar 03 2026 10:52:24 GMT-0600 (Central Standard Time),677692.7999999523,CFD-BM-017-052-HC.jpg,1000,dash,O,z,657,4,1,19458.899999976158,658233.8999999762,7764,ATS,A,7
0,test,2,C,mfborder.png,0,z,Tue Mar 03 2026 10:52:24 GMT-0600 (Central Standard Time),679892.5999999642,CFD-WF-017-016-HC.jpg,1700,dash,O,m,474,1,1,21658.69999998808,658233.8999999762,7764,ATS,A,8
0,test,2,C,haborder.png,0,m,Tue Mar 03 2026 10:52:24 GMT-0600 (Central Standard Time),682292.8999999762,CFD-WM-004-005-HC.jpg,1000,solid,O,z,1370,12,1,24059.0,658233.8999999762,7764,ATS,A,9
0,test,2,C,haborder.png,0,m,Tue Mar 03 2026 10:52:24 GMT-0600 (Central Standard Time),685323.6999999881,CFD-WM-004-005-HC.jpg,1500,solid,O,None,1515,11,1,27089.80000001192,658233.8999999762,7764,ATS,A,10
1,test,2,C,haborder.png,1,m,Tue Mar 03 2026 10:52:24 GMT-0600 (Central Standard Time),688189.7999999523,CFD-BM-029-026-HC.jpg,1600,solid,O,m,1247,10,1,29955.899999976158,658233.8999999762,7764,ATS,A,11
1,test,2,C,haborder.png,0,z,Tue Mar 03 2026 10:52:24 GMT-0600 (Central Standard Time),690589.0999999642,CFD-BF-023-013-A.jpg,1400,solid,O,m,967,7,1,32355.19999998808,658233.8999999762,7764,ATS,A,12
2,test,2,C,mfborder.png,1,z,Tue Mar 03 2026 10:52:24 GMT-0600 (Central Standard Time),693005.0,CFD-WF-019-015-A.jpg,1600,dash,O,z,782,2,1,34771.10000002384,658233.8999999762,7764,ATS,A,13
3,test,2,C,mfborder.png,1,m,Tue Mar 03 2026 10:52:24 GMT-0600 (Central Standard Time),694988.5999999642,CFD-WM-013-015-A.jpg,1200,dash,O,m,759,6,1,36754.69999998808,658233.8999999762,7764,ATS,A,14
3,test,2,C,mfborder.png,0,m,Tue Mar 03 2026 10:52:24 GMT-0600 (Central Standard Time),697520.8999999762,CFD-BM-017-052-HC.jpg,1000,dash,O,None,1511,4,1,39287.0,658233.8999999762,7764,ATS,A,15
3,test,2,C,haborder.png,0,z,Tue Mar 03 2026 10:52:24 GMT-0600 (Central Standard Time),700953.5999999642,CFD-BF-039-039-A.jpg,1900,solid,O,None,1516,8,1,42719.69999998808,658233.8999999762,7764,ATS,A,16
3,test,2,C,mfborder.png,0,m,Tue Mar 03 2026 10:52:24 GMT-0600 (Central Standard Time),703419.6999999881,CFD-WM-013-015-A.jpg,1200,dash,O,z,1234,6,1,45185.80000001192,658233.8999999762,7764,ATS,A,17
4,test,2,C,haborder.png,1,z,Tue Mar 03 2026 10:52:24 GMT-0600 (Central Standard Time),706418.0999999642,CFD-WF-003-014-A.jpg,1700,solid,O,z,1276,9,1,48184.19999998808,658233.8999999762,7764,ATS,A,18
5,test,2,C,haborder.png,1,m,Tue Mar 03 2026 10:52:24 GMT-0600 (Central Standard Time),708784.2999999523,CFD-WM-004-005-HC.jpg,1500,solid,O,m,849,11,1,50550.39999997616,658233.8999999762,7764,ATS,A,19
6,test,2,C,mfborder.png,1,z,Tue Mar 03 2026 10:52:24 GMT-0600 (Central Standard Time),711482.7999999523,CFD-WF-017-016-HC.jpg,1700,dash,O,z,976,1,1,53248.89999997616,658233.8999999762,7764,ATS,A,20
7,test,2,C,haborder.png,1,m,Tue Mar 03 2026 10:52:24 GMT-0600 (Central Standard Time),713549.2999999523,CFD-WM-004-005-HC.jpg,1000,solid,O,m,1040,12,1,55315.39999997616,658233.8999999762,7764,ATS,A,21
7,test,2,C,mfborder.png,0,m,Tue Mar 03 2026 10:52:24 GMT-0600 (Central Standard Time),717082.0,CFD-BM-005-010-A.jpg,2000,dash,O,None,1517,5,1,58848.10000002384,658233.8999999762,7764,ATS,A,22
7,test,2,C,mfborder.png,0,z,Tue Mar 03 2026 10:52:24 GMT-0600 (Central Standard Time),719762.6999999881,CFD-BF-028-020-HC.jpg,1500,dash,O,m,1156,3,1,61528.80000001192,658233.8999999762,7764,ATS,A,23
7,test,2,C,mfborder.png,0,m,Tue Mar 03 2026 10:52:24 GMT-0600 (Central Standard Time),723295.5999999642,CFD-BM-005-010-A.jpg,2000,dash,O,None,1515,5,1,65061.69999998808,658233.8999999762,7764,ATS,A,24
0,test,3,C,mfborder.png,0,z,Tue Mar 03 2026 10:52:24 GMT-0600 (Central Standard Time),786343.5999999642,CFD-WF-003-014-A.jpg,1500,dash,O,None,1516,3,1,3033.699999988079,783309.8999999762,7764,ATS,A,1
0,test,3,C,haborder.png,0,z,Tue Mar 03 2026 10:52:24 GMT-0600 (Central Standard Time),789275.0,CFD-WM-013-015-A.jpg,1400,solid,O,None,1516,7,1,5965.100000023842,783309.8999999762,7764,ATS,A,2
0,test,3,C,mfborder.png,0,m,Tue Mar 03 2026 10:52:24 GMT-0600 (Central Standard Time),791640.3999999762,CFD-BM-029-026-HC.jpg,1200,dash,O,z,1144,6,1,8330.5,783309.8999999762,7764,ATS,A,3
0,test,3,C,haborder.png,0,m,Tue Mar 03 2026 10:52:24 GMT-0600 (Central Standard Time),794173.6999999881,CFD-WF-017-016-HC.jpg,1000,solid,O,None,1515,12,1,10863.800000011921,783309.8999999762,7764,ATS,A,4
1,test,3,C,mfborder.png,1,m,Tue Mar 03 2026 10:52:24 GMT-0600 (Central Standard Time),796739.1999999881,CFD-WM-019-013-A.jpg,2000,dash,O,m,534,5,1,13429.300000011921,783309.8999999762,7764,ATS,A,5
1,test,3,C,haborder.png,0,m,Tue Mar 03 2026 10:52:24 GMT-0600 (Central Standard Time),799088.3999999762,CFD-BF-028-020-HC.jpg,1600,solid,O,z,729,10,1,15778.5,783309.8999999762,7764,ATS,A,6
1,test,3,C,mfborder.png,0,z,Tue Mar 03 2026 10:52:24 GMT-0600 (Central Standard Time),802072.1999999881,CFD-BF-023-013-A.jpg,1600,dash,O,m,1357,2,1,18762.30000001192,783309.8999999762,7764,ATS,A,7
1,test,3,C,mfborder.png,0,m,Tue Mar 03 2026 10:52:24 GMT-0600 (Central Standard Time),804603.6999999881,CFD-WM-006-013-HC.jpg,1000,dash,O,None,1516,4,1,21293.80000001192,783309.8999999762,7764,ATS,A,8
2,test,3,C,mfborder.png,1,z,Tue Mar 03 2026 10:52:24 GMT-0600 (Central Standard Time),807419.2999999523,CFD-BF-023-013-A.jpg,1600,dash,O,z,1191,2,1,24109.399999976158,783309.8999999762,7764,ATS,A,9
3,test,3,C,haborder.png,1,m,Tue Mar 03 2026 10:52:24 GMT-0600 (Central Standard Time),810268.5,CFD-WF-002-008-HC.jpg,1500,solid,O,m,1324,11,1,26958.600000023842,783309.8999999762,7764,ATS,A,10
4,test,3,C,haborder.png,1,m,Tue Mar 03 2026 10:52:24 GMT-0600 (Central Standard Time),812550.8999999762,CFD-WF-002-008-HC.jpg,1500,solid,O,m,764,11,1,29241.0,783309.8999999762,7764,ATS,A,11
4,test,3,C,haborder.png,0,z,Tue Mar 03 2026 10:52:24 GMT-0600 (Central Standard Time),815266.5,CFD-BM-010-019-A.jpg,1700,solid,O,m,984,9,1,31956.600000023842,783309.8999999762,7764,ATS,A,12
5,test,3,C,mfborder.png,1,z,Tue Mar 03 2026 10:52:24 GMT-0600 (Central Standard Time),817632.5,CFD-BF-010-005-HC.jpg,1700,dash,O,z,636,1,1,34322.60000002384,783309.8999999762,7764,ATS,A,13
6,test,3,C,mfborder.png,1,m,Tue Mar 03 2026 10:52:24 GMT-0600 (Central Standard Time),820365.2999999523,CFD-WM-019-013-A.jpg,2000,dash,O,m,702,5,1,37055.39999997616,783309.8999999762,7764,ATS,A,14
6,test,3,C,haborder.png,0,m,Tue Mar 03 2026 10:52:24 GMT-0600 (Central Standard Time),822781.1999999881,CFD-BF-028-020-HC.jpg,1600,solid,O,z,784,10,1,39471.30000001192,783309.8999999762,7764,ATS,A,15
7,test,3,C,haborder.png,1,m,Tue Mar 03 2026 10:52:24 GMT-0600 (Central Standard Time),824397.3999999762,CFD-WF-017-016-HC.jpg,1000,solid,O,m,591,12,1,41087.5,783309.8999999762,7764,ATS,A,16
8,test,3,C,haborder.png,1,z,Tue Mar 03 2026 10:52:24 GMT-0600 (Central Standard Time),826397.3999999762,CFD-WM-013-015-A.jpg,1400,solid,O,z,567,7,1,43087.5,783309.8999999762,7764,ATS,A,17
9,test,3,C,mfborder.png,1,m,Tue Mar 03 2026 10:52:24 GMT-0600 (Central Standard Time),828129.0999999642,CFD-BM-029-026-HC.jpg,1200,dash,O,m,502,6,1,44819.19999998808,783309.8999999762,7764,ATS,A,18
10,test,3,C,haborder.png,1,z,Tue Mar 03 2026 10:52:24 GMT-0600 (Central Standard Time),830295.0999999642,CFD-BM-010-019-A.jpg,1700,solid,O,z,433,9,1,46985.19999998808,783309.8999999762,7764,ATS,A,19
10,test,3,C,mfborder.png,0,z,Tue Mar 03 2026 10:52:24 GMT-0600 (Central Standard Time),832494.7999999523,CFD-WF-003-014-A.jpg,1500,dash,O,m,671,3,1,49184.89999997616,783309.8999999762,7764,ATS,A,20
11,test,3,C,haborder.png,1,z,Tue Mar 03 2026 10:52:24 GMT-0600 (Central Standard Time),835112.5,CFD-BM-005-010-A.jpg,1900,solid,O,z,685,8,1,51802.60000002384,783309.8999999762,7764,ATS,A,21
12,test,3,C,mfborder.png,1,m,Tue Mar 03 2026 10:52:24 GMT-0600 (Central Standard Time),836894.1999999881,CFD-WM-006-013-HC.jpg,1000,dash,O,m,749,4,1,53584.30000001192,783309.8999999762,7764,ATS,A,22
13,test,3,C,haborder.png,1,z,Tue Mar 03 2026 10:52:24 GMT-0600 (Central Standard Time),839292.0999999642,CFD-BM-005-010-A.jpg,1900,solid,O,z,474,8,1,55982.19999998808,783309.8999999762,7764,ATS,A,23
13,test,3,C,mfborder.png,0,z,Tue Mar 03 2026 10:52:24 GMT-0600 (Central Standard Time),841825.2999999523,CFD-BF-010-005-HC.jpg,1700,dash,O,m,811,1,1,58515.39999997616,783309.8999999762,7764,ATS,A,24
1,test,4,C,haborder.png,1,z,Tue Mar 03 2026 10:52:24 GMT-0600 (Central Standard Time),865833.3999999762,CFD-WF-003-014-A.jpg,1700,solid,O,z,1052,9,1,2780.899999976158,863052.5,7764,ATS,A,1
2,test,4,C,mfborder.png,1,z,Tue Mar 03 2026 10:52:24 GMT-0600 (Central Standard Time),868749.7999999523,CFD-WF-019-015-A.jpg,1600,dash,O,z,1285,2,1,5697.299999952316,863052.5,7764,ATS,A,2
3,test,4,C,mfborder.png,1,z,Tue Mar 03 2026 10:52:24 GMT-0600 (Central Standard Time),871549.5,CFD-WF-019-015-A.jpg,1600,dash,O,z,1168,2,1,8497.0,863052.5,7764,ATS,A,3
4,test,4,C,mfborder.png,1,z,Tue Mar 03 2026 10:52:24 GMT-0600 (Central Standard Time),874647.6999999881,CFD-WF-017-016-HC.jpg,1700,dash,O,z,1366,1,1,11595.199999988079,863052.5,7764,ATS,A,4
4,test,4,C,mfborder.png,0,m,Tue Mar 03 2026 10:52:24 GMT-0600 (Central Standard Time),878179.5999999642,CFD-BM-005-010-A.jpg,2000,dash,O,None,1516,5,1,15127.099999964237,863052.5,7764,ATS,A,5
5,test,4,C,mfborder.png,1,m,Tue Mar 03 2026 10:52:24 GMT-0600 (Central Standard Time),880495.1999999881,CFD-WM-013-015-A.jpg,1200,dash,O,m,1095,6,1,17442.69999998808,863052.5,7764,ATS,A,6
6,test,4,C,mfborder.png,1,m,Tue Mar 03 2026 10:52:24 GMT-0600 (Central Standard Time),882761.3999999762,CFD-BM-017-052-HC.jpg,1000,dash,O,m,1234,4,1,19708.899999976158,863052.5,7764,ATS,A,7
6,test,4,C,haborder.png,0,m,Tue Mar 03 2026 10:52:24 GMT-0600 (Central Standard Time),885494.7999999523,CFD-BM-029-026-HC.jpg,1600,solid,O,z,1099,10,1,22442.299999952316,863052.5,7764,ATS,A,8
7,test,4,C,mfborder.png,1,m,Tue Mar 03 2026 10:52:24 GMT-0600 (Central Standard Time),888976.0,CFD-BM-005-010-A.jpg,2000,dash,O,m,1462,5,1,25923.5,863052.5,7764,ATS,A,9
7,test,4,C,haborder.png,0,z,Tue Mar 03 2026 10:52:24 GMT-0600 (Central Standard Time),892408.6999999881,CFD-BF-039-039-A.jpg,1900,solid,O,None,1516,8,1,29356.19999998808,863052.5,7764,ATS,A,10
7,test,4,C,mfborder.png,0,z,Tue Mar 03 2026 10:52:24 GMT-0600 (Central Standard Time),895441.5999999642,CFD-BF-028-020-HC.jpg,1500,dash,O,None,1515,3,1,32389.099999964237,863052.5,7764,ATS,A,11
7,test,4,C,haborder.png,0,m,Tue Mar 03 2026 10:52:24 GMT-0600 (Central Standard Time),898473.7999999523,CFD-WM-004-005-HC.jpg,1500,solid,O,None,1516,11,1,35421.299999952316,863052.5,7764,ATS,A,12
8,test,4,C,haborder.png,1,m,Tue Mar 03 2026 10:52:24 GMT-0600 (Central Standard Time),900705.0999999642,CFD-WM-004-005-HC.jpg,1000,solid,O,m,1202,12,1,37652.59999996424,863052.5,7764,ATS,A,13
9,test,4,C,mfborder.png,1,m,Tue Mar 03 2026 10:52:24 GMT-0600 (Central Standard Time),903421.3999999762,CFD-WM-013-015-A.jpg,1200,dash,O,m,1497,6,1,40368.89999997616,863052.5,7764,ATS,A,14
9,test,4,C,haborder.png,0,m,Tue Mar 03 2026 10:52:24 GMT-0600 (Central Standard Time),905803.3999999762,CFD-WM-004-005-HC.jpg,1500,solid,O,z,857,11,1,42750.89999997616,863052.5,7764,ATS,A,15
10,test,4,C,haborder.png,1,m,Tue Mar 03 2026 10:52:24 GMT-0600 (Central Standard Time),908137.2999999523,CFD-BM-029-026-HC.jpg,1600,solid,O,m,702,10,1,45084.799999952316,863052.5,7764,ATS,A,16
10,test,4,C,haborder.png,0,z,Tue Mar 03 2026 10:52:24 GMT-0600 (Central Standard Time),910802.1999999881,CFD-BF-039-039-A.jpg,1900,solid,O,m,735,8,1,47749.69999998808,863052.5,7764,ATS,A,17
11,test,4,C,haborder.png,1,z,Tue Mar 03 2026 10:52:24 GMT-0600 (Central Standard Time),913368.1999999881,CFD-BF-023-013-A.jpg,1400,solid,O,z,1138,7,1,50315.69999998808,863052.5,7764,ATS,A,18
12,test,4,C,haborder.png,1,m,Tue Mar 03 2026 10:52:24 GMT-0600 (Central Standard Time),915350.7999999523,CFD-WM-004-005-HC.jpg,1000,solid,O,m,963,12,1,52298.299999952316,863052.5,7764,ATS,A,19
13,test,4,C,haborder.png,1,z,Tue Mar 03 2026 10:52:24 GMT-0600 (Central Standard Time),917500.1999999881,CFD-BF-023-013-A.jpg,1400,solid,O,z,725,7,1,54447.69999998808,863052.5,7764,ATS,A,20
14,test,4,C,mfborder.png,1,m,Tue Mar 03 2026 10:52:24 GMT-0600 (Central Standard Time),919216.1999999881,CFD-BM-017-052-HC.jpg,1000,dash,O,m,694,4,1,56163.69999998808,863052.5,7764,ATS,A,21
15,test,4,C,mfborder.png,1,z,Tue Mar 03 2026 10:52:24 GMT-0600 (Central Standard Time),921598.7999999523,CFD-WF-017-016-HC.jpg,1700,dash,O,z,662,1,1,58546.299999952316,863052.5,7764,ATS,A,22
15,test,4,C,mfborder.png,0,z,Tue Mar 03 2026 10:52:24 GMT-0600 (Central Standard Time),923698.3999999762,CFD-BF-028-020-HC.jpg,1500,dash,O,m,568,3,1,60645.89999997616,863052.5,7764,ATS,A,23
16,test,4,C,haborder.png,1,z,Tue Mar 03 2026 10:52:24 GMT-0600 (Central Standard Time),926330.7999999523,CFD-WF-003-014-A.jpg,1700,solid,O,z,909,9,1,63278.299999952316,863052.5,7764,ATS,A,24
