block_c,block_dur,condition,countdown,datetime,endtime,list,multichar_response,project,response,response_time,session_number,start_end,starttime,subject_id,task,task_vers,trial
,,,,Wed Aug 20 2025 11:19:43 GMT-0400 (Eastern Daylight Time),,,,I,space,324,3,,,9009,WL,A,
prac,,0,,Wed Aug 20 2025 11:19:43 GMT-0400 (Eastern Daylight Time),,NA,b,I,b,4863,3,,,9009,WL,A,1.0
prac,,0,,Wed Aug 20 2025 11:19:43 GMT-0400 (Eastern Daylight Time),,NA,bo,I,o,223,3,,,9009,WL,A,1.0
prac,,0,,Wed Aug 20 2025 11:19:43 GMT-0400 (Eastern Daylight Time),,NA,boo,I,o,151,3,,,9009,WL,A,1.0
prac,,0,,Wed Aug 20 2025 11:19:43 GMT-0400 (Eastern Daylight Time),,NA,boos,I,s,145,3,,,9009,WL,A,1.0
prac,,0,,Wed Aug 20 2025 11:19:43 GMT-0400 (Eastern Daylight Time),,NA,boost,I,t,295,3,,,9009,WL,A,1.0
prac,,0,,Wed Aug 20 2025 11:19:43 GMT-0400 (Eastern Daylight Time),,NA,boostenter,I,enter,831,3,,,9009,WL,A,1.0
1,1.1340000629425049,learn,58865.999937057495,Wed Aug 20 2025 11:19:43 GMT-0400 (Eastern Daylight Time),127231.09999990463,A,b,I,b,1109,3,1133.0,126098.09999990463,9009,WL,A,1.0
1,1.8989999294281006,learn,58101.0000705719,Wed Aug 20 2025 11:19:43 GMT-0400 (Eastern Daylight Time),127996.69999980927,A,bo,I,o,742,3,1898.5999999046326,126098.09999990463,9009,WL,A,1.0
1,2.132999897003174,learn,57867.000102996826,Wed Aug 20 2025 11:19:43 GMT-0400 (Eastern Daylight Time),128230.09999990463,A,boo,I,o,215,3,2132.0,126098.09999990463,9009,WL,A,1.0
1,2.6659998893737793,learn,57334.00011062622,Wed Aug 20 2025 11:19:43 GMT-0400 (Eastern Daylight Time),128763.40000009537,A,book,I,k,512,3,2665.300000190735,126098.09999990463,9009,WL,A,1.0
1,3.4489998817443848,learn,56551.000118255615,Wed Aug 20 2025 11:19:43 GMT-0400 (Eastern Daylight Time),129546.90000009537,A,bookenter,I,enter,762,3,3448.800000190735,126098.09999990463,9009,WL,A,1.0
1,6.16700005531311,learn,53832.99994468689,Wed Aug 20 2025 11:19:43 GMT-0400 (Eastern Daylight Time),132264.0,A,f,I,f,2699,3,2716.5,129547.5,9009,WL,A,2.0
1,6.349999904632568,learn,53650.00009536743,Wed Aug 20 2025 11:19:43 GMT-0400 (Eastern Daylight Time),132447.5,A,fl,I,l,161,3,2900.0,129547.5,9009,WL,A,2.0
1,6.616999864578247,learn,53383.00013542175,Wed Aug 20 2025 11:19:43 GMT-0400 (Eastern Daylight Time),132714.09999990463,A,flo,I,o,245,3,3166.5999999046326,129547.5,9009,WL,A,2.0
1,6.849999904632568,learn,53150.00009536743,Wed Aug 20 2025 11:19:43 GMT-0400 (Eastern Daylight Time),132947.40000009537,A,flow,I,w,217,3,3399.9000000953674,129547.5,9009,WL,A,2.0
1,7.132999897003174,learn,52867.000102996826,Wed Aug 20 2025 11:19:43 GMT-0400 (Eastern Daylight Time),133230.69999980927,A,flowe,I,e,263,3,3683.199999809265,129547.5,9009,WL,A,2.0
1,7.483000040054321,learn,52516.99995994568,Wed Aug 20 2025 11:19:43 GMT-0400 (Eastern Daylight Time),133580.80000019073,A,flower,I,r,325,3,4033.300000190735,129547.5,9009,WL,A,2.0
1,7.865999937057495,learn,52134.000062942505,Wed Aug 20 2025 11:19:43 GMT-0400 (Eastern Daylight Time),133963.5,A,flowerenter,I,enter,357,3,4416.0,129547.5,9009,WL,A,2.0
1,9.183000087738037,learn,50816.99991226196,Wed Aug 20 2025 11:19:43 GMT-0400 (Eastern Daylight Time),135280.80000019073,A,r,I,r,1307,3,1316.7000002861023,133964.09999990463,9009,WL,A,3.0
1,9.532999992370605,learn,50467.000007629395,Wed Aug 20 2025 11:19:43 GMT-0400 (Eastern Daylight Time),135630.80000019073,A,ru,I,u,323,3,1666.7000002861023,133964.09999990463,9009,WL,A,3.0
1,9.882999897003174,learn,50117.000102996826,Wed Aug 20 2025 11:19:43 GMT-0400 (Eastern Daylight Time),135980.30000019073,A,rug,I,g,324,3,2016.2000002861023,133964.09999990463,9009,WL,A,3.0
1,10.549000024795532,learn,49450.99997520447,Wed Aug 20 2025 11:19:43 GMT-0400 (Eastern Daylight Time),136646.90000009537,A,rugenter,I,enter,649,3,2682.800000190735,133964.09999990463,9009,WL,A,3.0
1,11.983000040054321,learn,48016.99995994568,Wed Aug 20 2025 11:19:43 GMT-0400 (Eastern Daylight Time),138080.69999980927,A,m,I,m,1423,3,1433.3999996185303,136647.30000019073,9009,WL,A,4.0
1,12.282999992370605,learn,47717.000007629395,Wed Aug 20 2025 11:19:43 GMT-0400 (Eastern Daylight Time),138380.80000019073,A,me,I,e,274,3,1733.5,136647.30000019073,9009,WL,A,4.0
1,12.450000047683716,learn,47549.999952316284,Wed Aug 20 2025 11:19:43 GMT-0400 (Eastern Daylight Time),138547.40000009537,A,mea,I,a,150,3,1900.0999999046326,136647.30000019073,9009,WL,A,4.0
1,12.75,learn,47250.0,Wed Aug 20 2025 11:19:43 GMT-0400 (Eastern Daylight Time),138847.09999990463,A,mead,I,d,278,3,2199.7999997138977,136647.30000019073,9009,WL,A,4.0
1,13.065999984741211,learn,46934.00001525879,Wed Aug 20 2025 11:19:43 GMT-0400 (Eastern Daylight Time),139163.69999980927,A,meado,I,o,293,3,2516.3999996185303,136647.30000019073,9009,WL,A,4.0
1,13.565999984741211,learn,46434.00001525879,Wed Aug 20 2025 11:19:43 GMT-0400 (Eastern Daylight Time),139663.19999980927,A,meadow,I,w,487,3,3015.8999996185303,136647.30000019073,9009,WL,A,4.0
1,14.299000024795532,learn,45700.99997520447,Wed Aug 20 2025 11:19:43 GMT-0400 (Eastern Daylight Time),140396.90000009537,A,meadowenter,I,enter,710,3,3749.5999999046326,136647.30000019073,9009,WL,A,4.0
1,15.75,learn,44250.0,Wed Aug 20 2025 11:19:43 GMT-0400 (Eastern Daylight Time),141847.5,A,c,I,c,1434,3,1450.1999998092651,140397.30000019073,9009,WL,A,5.0
1,16.132999897003174,learn,43867.000102996826,Wed Aug 20 2025 11:19:43 GMT-0400 (Eastern Daylight Time),142230.69999980927,A,ch,I,h,364,3,1833.3999996185303,140397.30000019073,9009,WL,A,5.0
1,16.34999990463257,learn,43650.00009536743,Wed Aug 20 2025 11:19:43 GMT-0400 (Eastern Daylight Time),142447.09999990463,A,chi,I,i,206,3,2049.7999997138977,140397.30000019073,9009,WL,A,5.0
1,16.65000009536743,learn,43349.99990463257,Wed Aug 20 2025 11:19:43 GMT-0400 (Eastern Daylight Time),142747.40000009537,A,chim,I,m,265,3,2350.0999999046326,140397.30000019073,9009,WL,A,5.0
1,17.26699995994568,learn,42733.00004005432,Wed Aug 20 2025 11:19:43 GMT-0400 (Eastern Daylight Time),143364.09999990463,A,chimn,I,n,601,3,2966.7999997138977,140397.30000019073,9009,WL,A,5.0
1,17.58299994468689,learn,42417.00005531311,Wed Aug 20 2025 11:19:43 GMT-0400 (Eastern Daylight Time),143680.69999980927,A,chimne,I,e,301,3,3283.3999996185303,140397.30000019073,9009,WL,A,5.0
1,18.34999990463257,learn,41650.00009536743,Wed Aug 20 2025 11:19:43 GMT-0400 (Eastern Daylight Time),144447.0,A,chimney,I,y,754,3,4049.699999809265,140397.30000019073,9009,WL,A,5.0
1,19.1489999294281,learn,40851.0000705719,Wed Aug 20 2025 11:19:43 GMT-0400 (Eastern Daylight Time),145246.80000019073,A,chimneyenter,I,enter,789,3,4849.5,140397.30000019073,9009,WL,A,5.0
1,20.183000087738037,learn,39816.99991226196,Wed Aug 20 2025 11:19:43 GMT-0400 (Eastern Daylight Time),146280.69999980927,A,h,I,h,1016,3,1033.5,145247.19999980927,9009,WL,A,6.0
1,20.33299994468689,learn,39667.00005531311,Wed Aug 20 2025 11:19:43 GMT-0400 (Eastern Daylight Time),146430.80000019073,A,ha,I,a,129,3,1183.6000003814697,145247.19999980927,9009,WL,A,6.0
1,20.566999912261963,learn,39433.00008773804,Wed Aug 20 2025 11:19:43 GMT-0400 (Eastern Daylight Time),146664.09999990463,A,har,I,r,203,3,1416.9000000953674,145247.19999980927,9009,WL,A,6.0
1,21.183000087738037,learn,38816.99991226196,Wed Aug 20 2025 11:19:43 GMT-0400 (Eastern Daylight Time),147280.59999990463,A,harp,I,p,595,3,2033.4000000953674,145247.19999980927,9009,WL,A,6.0
1,22.032999992370605,learn,37967.000007629395,Wed Aug 20 2025 11:19:43 GMT-0400 (Eastern Daylight Time),148130.19999980927,A,harpenter,I,enter,826,3,2883.0,145247.19999980927,9009,WL,A,6.0
1,22.882999897003174,learn,37117.000102996826,Wed Aug 20 2025 11:19:43 GMT-0400 (Eastern Daylight Time),148980.80000019073,A,s,I,s,837,3,850.1000003814697,148130.69999980927,9009,WL,A,7.0
1,23.1489999294281,learn,36851.0000705719,Wed Aug 20 2025 11:19:43 GMT-0400 (Eastern Daylight Time),149246.80000019073,A,sa,I,a,255,3,1116.1000003814697,148130.69999980927,9009,WL,A,7.0
1,23.5,learn,36500.0,Wed Aug 20 2025 11:19:43 GMT-0400 (Eastern Daylight Time),149597.40000009537,A,sal,I,l,329,3,1466.7000002861023,148130.69999980927,9009,WL,A,7.0
1,24.34999990463257,learn,35650.00009536743,Wed Aug 20 2025 11:19:43 GMT-0400 (Eastern Daylight Time),150447.09999990463,A,salt,I,t,837,3,2316.4000000953674,148130.69999980927,9009,WL,A,7.0
1,25.198999881744385,learn,34801.000118255615,Wed Aug 20 2025 11:19:43 GMT-0400 (Eastern Daylight Time),151296.90000009537,A,saltenter,I,enter,838,3,3166.2000002861023,148130.69999980927,9009,WL,A,7.0
1,26.632999897003174,learn,33367.000102996826,Wed Aug 20 2025 11:19:43 GMT-0400 (Eastern Daylight Time),152730.90000009537,A,b,I,b,1414,3,1433.5999999046326,151297.30000019073,9009,WL,A,8.0
1,27.0,learn,33000.0,Wed Aug 20 2025 11:19:43 GMT-0400 (Eastern Daylight Time),153097.5,A,bu,I,u,344,3,1800.1999998092651,151297.30000019073,9009,WL,A,8.0
1,27.282999992370605,learn,32717.000007629395,Wed Aug 20 2025 11:19:43 GMT-0400 (Eastern Daylight Time),153380.90000009537,A,but,I,t,266,3,2083.5999999046326,151297.30000019073,9009,WL,A,8.0
1,27.48300004005432,learn,32516.99995994568,Wed Aug 20 2025 11:19:43 GMT-0400 (Eastern Daylight Time),153580.80000019073,A,butt,I,t,175,3,2283.5,151297.30000019073,9009,WL,A,8.0
1,27.56599998474121,learn,32434.00001525879,Wed Aug 20 2025 11:19:43 GMT-0400 (Eastern Daylight Time),153664.0,A,butto,I,o,71,3,2366.699999809265,151297.30000019073,9009,WL,A,8.0
1,27.98300004005432,learn,32016.99995994568,Wed Aug 20 2025 11:19:43 GMT-0400 (Eastern Daylight Time),154080.59999990463,A,button,I,n,405,3,2783.2999997138977,151297.30000019073,9009,WL,A,8.0
1,28.749000072479248,learn,31250.999927520752,Wed Aug 20 2025 11:19:43 GMT-0400 (Eastern Daylight Time),154846.69999980927,A,buttonenter,I,enter,755,3,3549.3999996185303,151297.30000019073,9009,WL,A,8.0
1,29.816999912261963,learn,30183.000087738037,Wed Aug 20 2025 11:19:43 GMT-0400 (Eastern Daylight Time),155914.0,A,k,I,k,1048,3,1066.9000000953674,154847.09999990463,9009,WL,A,9.0
1,30.249000072479248,learn,29750.999927520752,Wed Aug 20 2025 11:19:43 GMT-0400 (Eastern Daylight Time),156346.90000009537,A,ke,I,e,409,3,1499.8000001907349,154847.09999990463,9009,WL,A,9.0
1,31.40000009536743,learn,28599.99990463257,Wed Aug 20 2025 11:19:43 GMT-0400 (Eastern Daylight Time),157497.40000009537,A,key,I,y,1132,3,2650.300000190735,154847.09999990463,9009,WL,A,9.0
1,33.54900002479553,learn,26450.999975204468,Wed Aug 20 2025 11:19:43 GMT-0400 (Eastern Daylight Time),159646.90000009537,A,keyenter,I,enter,2138,3,4799.800000190735,154847.09999990463,9009,WL,A,9.0
1,36.66700005531311,learn,23332.99994468689,Wed Aug 20 2025 11:19:43 GMT-0400 (Eastern Daylight Time),162764.0,A,t,I,t,3097,3,3116.800000190735,159647.19999980927,9009,WL,A,10.0
1,37.0,learn,23000.0,Wed Aug 20 2025 11:19:43 GMT-0400 (Eastern Daylight Time),163097.5,A,tr,I,r,311,3,3450.300000190735,159647.19999980927,9009,WL,A,10.0
1,37.799999952316284,learn,22200.000047683716,Wed Aug 20 2025 11:19:43 GMT-0400 (Eastern Daylight Time),163897.5,A,tra,I,a,779,3,4250.300000190735,159647.19999980927,9009,WL,A,10.0
1,38.532999992370605,learn,21467.000007629395,Wed Aug 20 2025 11:19:43 GMT-0400 (Eastern Daylight Time),164630.80000019073,A,trai,I,i,715,3,4983.60000038147,159647.19999980927,9009,WL,A,10.0
1,39.31599998474121,learn,20684.00001525879,Wed Aug 20 2025 11:19:43 GMT-0400 (Eastern Daylight Time),165413.90000009537,A,train,I,n,763,3,5766.700000286102,159647.19999980927,9009,WL,A,10.0
1,41.115999937057495,learn,18884.000062942505,Wed Aug 20 2025 11:19:43 GMT-0400 (Eastern Daylight Time),167213.59999990463,A,trainenter,I,enter,1774,3,7566.400000095367,159647.19999980927,9009,WL,A,10.0
1,52.365999937057495,learn,7634.000062942505,Wed Aug 20 2025 11:19:43 GMT-0400 (Eastern Daylight Time),178463.80000019073,A,f,I,f,11241,3,11249.900000095367,167213.90000009537,9009,WL,A,11.0
1,52.65000009536743,learn,7349.999904632568,Wed Aug 20 2025 11:19:43 GMT-0400 (Eastern Daylight Time),178747.5,A,fi,I,i,260,3,11533.599999904633,167213.90000009537,9009,WL,A,11.0
1,53.115999937057495,learn,6884.000062942505,Wed Aug 20 2025 11:19:43 GMT-0400 (Eastern Daylight Time),179214.09999990463,A,fin,I,n,442,3,12000.199999809265,167213.90000009537,9009,WL,A,11.0
1,53.36699986457825,learn,6633.000135421753,Wed Aug 20 2025 11:19:43 GMT-0400 (Eastern Daylight Time),179464.19999980927,A,fing,I,g,229,3,12250.299999713898,167213.90000009537,9009,WL,A,11.0
1,53.90000009536743,learn,6099.999904632568,Wed Aug 20 2025 11:19:43 GMT-0400 (Eastern Daylight Time),179997.40000009537,A,finge,I,e,506,3,12783.5,167213.90000009537,9009,WL,A,11.0
1,54.73300004005432,learn,5266.999959945679,Wed Aug 20 2025 11:19:43 GMT-0400 (Eastern Daylight Time),180830.90000009537,A,finger,I,r,823,3,13617.0,167213.90000009537,9009,WL,A,11.0
1,55.53399991989136,learn,4466.000080108643,Wed Aug 20 2025 11:19:43 GMT-0400 (Eastern Daylight Time),181631.30000019073,A,fingerenter,I,enter,789,3,14417.400000095367,167213.90000009537,9009,WL,A,11.0
1,60.01699995994568,learn,-16.99995994567871,Wed Aug 20 2025 11:19:43 GMT-0400 (Eastern Daylight Time),186114.19999980927,A,None,I,None,4476,3,4482.599999904633,181631.59999990463,9009,WL,A,12.0
2,1.000999927520752,learn,58999.00007247925,Wed Aug 20 2025 11:19:43 GMT-0400 (Eastern Daylight Time),259447.30000019073,A,g,I,g,985,3,1000.3000001907349,258447.0,9009,WL,A,1.0
2,1.318000078201294,learn,58681.999921798706,Wed Aug 20 2025 11:19:43 GMT-0400 (Eastern Daylight Time),259764.09999990463,A,go,I,o,303,3,1317.0999999046326,258447.0,9009,WL,A,1.0
2,1.6010000705718994,learn,58398.9999294281,Wed Aug 20 2025 11:19:43 GMT-0400 (Eastern Daylight Time),260047.19999980927,A,gol,I,l,271,3,1600.1999998092651,258447.0,9009,WL,A,1.0
2,1.9670000076293945,learn,58032.999992370605,Wed Aug 20 2025 11:19:43 GMT-0400 (Eastern Daylight Time),260414.0,A,gold,I,d,341,3,1967.0,258447.0,9009,WL,A,1.0
2,2.3340001106262207,learn,57665.99988937378,Wed Aug 20 2025 11:19:43 GMT-0400 (Eastern Daylight Time),260780.30000019073,A,goldenter,I,enter,340,3,2333.300000190735,258447.0,9009,WL,A,1.0
2,2.9839999675750732,learn,57016.00003242493,Wed Aug 20 2025 11:19:43 GMT-0400 (Eastern Daylight Time),261430.90000009537,A,a,I,a,635,3,650.0,260780.90000009537,9009,WL,A,2.0
2,3.4179999828338623,learn,56582.00001716614,Wed Aug 20 2025 11:19:43 GMT-0400 (Eastern Daylight Time),261864.09999990463,A,ap,I,p,413,3,1083.1999998092651,260780.90000009537,9009,WL,A,2.0
2,3.6010000705718994,learn,56398.9999294281,Wed Aug 20 2025 11:19:43 GMT-0400 (Eastern Daylight Time),262047.09999990463,A,app,I,p,172,3,1266.1999998092651,260780.90000009537,9009,WL,A,2.0
2,3.884000062942505,learn,56115.999937057495,Wed Aug 20 2025 11:19:43 GMT-0400 (Eastern Daylight Time),262331.0,A,appl,I,l,260,3,1550.0999999046326,260780.90000009537,9009,WL,A,2.0
2,4.267999887466431,learn,55732.00011253357,Wed Aug 20 2025 11:19:43 GMT-0400 (Eastern Daylight Time),262714.09999990463,A,apple,I,e,360,3,1933.1999998092651,260780.90000009537,9009,WL,A,2.0
2,4.599999904632568,learn,55400.00009536743,Wed Aug 20 2025 11:19:43 GMT-0400 (Eastern Daylight Time),263047.0,A,appleenter,I,enter,315,3,2266.0999999046326,260780.90000009537,9009,WL,A,2.0
2,5.351000070571899,learn,54648.9999294281,Wed Aug 20 2025 11:19:43 GMT-0400 (Eastern Daylight Time),263797.5,A,r,I,r,736,3,750.1999998092651,263047.30000019073,9009,WL,A,3.0
2,5.617000102996826,learn,54382.999897003174,Wed Aug 20 2025 11:19:43 GMT-0400 (Eastern Daylight Time),264063.80000019073,A,ra,I,a,253,3,1016.5,263047.30000019073,9009,WL,A,3.0
2,5.983999967575073,learn,54016.00003242493,Wed Aug 20 2025 11:19:43 GMT-0400 (Eastern Daylight Time),264430.69999980927,A,rat,I,t,357,3,1383.3999996185303,263047.30000019073,9009,WL,A,3.0
2,6.167999982833862,learn,53832.00001716614,Wed Aug 20 2025 11:19:43 GMT-0400 (Eastern Daylight Time),264614.19999980927,A,ratt,I,t,167,3,1566.8999996185303,263047.30000019073,9009,WL,A,3.0
2,6.584000110626221,learn,53415.99988937378,Wed Aug 20 2025 11:19:43 GMT-0400 (Eastern Daylight Time),265030.90000009537,A,rattl,I,l,394,3,1983.5999999046326,263047.30000019073,9009,WL,A,3.0
2,6.901000022888184,learn,53098.99997711182,Wed Aug 20 2025 11:19:43 GMT-0400 (Eastern Daylight Time),265347.40000009537,A,rattle,I,e,302,3,2300.0999999046326,263047.30000019073,9009,WL,A,3.0
2,7.816999912261963,learn,52183.00008773804,Wed Aug 20 2025 11:19:43 GMT-0400 (Eastern Daylight Time),266263.69999980927,A,rattleenter,I,enter,898,3,3216.3999996185303,263047.30000019073,9009,WL,A,3.0
2,8.783999919891357,learn,51216.00008010864,Wed Aug 20 2025 11:19:43 GMT-0400 (Eastern Daylight Time),267230.90000009537,A,h,I,h,943,3,966.9000000953674,266264.0,9009,WL,A,4.0
2,8.917999982833862,learn,51082.00001716614,Wed Aug 20 2025 11:19:43 GMT-0400 (Eastern Daylight Time),267364.09999990463,A,ha,I,a,118,3,1100.0999999046326,266264.0,9009,WL,A,4.0
2,9.151000022888184,learn,50848.99997711182,Wed Aug 20 2025 11:19:43 GMT-0400 (Eastern Daylight Time),267597.40000009537,A,har,I,r,201,3,1333.4000000953674,266264.0,9009,WL,A,4.0
2,9.667999982833862,learn,50332.00001716614,Wed Aug 20 2025 11:19:43 GMT-0400 (Eastern Daylight Time),268114.09999990463,A,harp,I,p,494,3,1850.0999999046326,266264.0,9009,WL,A,4.0
2,10.08400011062622,learn,49915.99988937378,Wed Aug 20 2025 11:19:43 GMT-0400 (Eastern Daylight Time),268530.30000019073,A,harpenter,I,enter,402,3,2266.300000190735,266264.0,9009,WL,A,4.0
2,10.783999919891357,learn,49216.00008010864,Wed Aug 20 2025 11:19:43 GMT-0400 (Eastern Daylight Time),269230.80000019073,A,l,I,l,677,3,700.2000002861023,268530.59999990463,9009,WL,A,5.0
2,11.1010000705719,learn,48898.9999294281,Wed Aug 20 2025 11:19:43 GMT-0400 (Eastern Daylight Time),269547.19999980927,A,lo,I,o,291,3,1016.5999999046326,268530.59999990463,9009,WL,A,5.0
2,11.450999975204468,learn,48549.00002479553,Wed Aug 20 2025 11:19:43 GMT-0400 (Eastern Daylight Time),269897.5,A,log,I,g,332,3,1366.9000000953674,268530.59999990463,9009,WL,A,5.0
2,11.783999919891357,learn,48216.00008010864,Wed Aug 20 2025 11:19:43 GMT-0400 (Eastern Daylight Time),270230.30000019073,A,logenter,I,enter,315,3,1699.7000002861023,268530.59999990463,9009,WL,A,5.0
2,12.51799988746643,learn,47482.00011253357,Wed Aug 20 2025 11:19:43 GMT-0400 (Eastern Daylight Time),270964.09999990463,A,s,I,s,721,3,733.5,270230.59999990463,9009,WL,A,6.0
2,12.801000118255615,learn,47198.999881744385,Wed Aug 20 2025 11:19:43 GMT-0400 (Eastern Daylight Time),271247.09999990463,A,sa,I,a,271,3,1016.5,270230.59999990463,9009,WL,A,6.0
2,13.132999897003174,learn,46867.000102996826,Wed Aug 20 2025 11:19:43 GMT-0400 (Eastern Daylight Time),271579.90000009537,A,sal,I,l,309,3,1349.3000001907349,270230.59999990463,9009,WL,A,6.0
2,13.51799988746643,learn,46482.00011253357,Wed Aug 20 2025 11:19:43 GMT-0400 (Eastern Daylight Time),271964.30000019073,A,salt,I,t,364,3,1733.7000002861023,270230.59999990463,9009,WL,A,6.0
2,13.950000047683716,learn,46049.999952316284,Wed Aug 20 2025 11:19:43 GMT-0400 (Eastern Daylight Time),272396.90000009537,A,saltenter,I,enter,405,3,2166.300000190735,270230.59999990463,9009,WL,A,6.0
2,14.983999967575073,learn,45016.00003242493,Wed Aug 20 2025 11:19:43 GMT-0400 (Eastern Daylight Time),273430.90000009537,A,b,I,b,1019,3,1033.5999999046326,272397.30000019073,9009,WL,A,7.0
2,15.417999982833862,learn,44582.00001716614,Wed Aug 20 2025 11:19:43 GMT-0400 (Eastern Daylight Time),273864.19999980927,A,bo,I,o,414,3,1466.8999996185303,272397.30000019073,9009,WL,A,7.0
2,15.76799988746643,learn,44232.00011253357,Wed Aug 20 2025 11:19:43 GMT-0400 (Eastern Daylight Time),274214.0,A,boo,I,o,333,3,1816.6999998092651,272397.30000019073,9009,WL,A,7.0
2,16.151000022888184,learn,43848.99997711182,Wed Aug 20 2025 11:19:43 GMT-0400 (Eastern Daylight Time),274597.19999980927,A,book,I,k,366,3,2199.8999996185303,272397.30000019073,9009,WL,A,7.0
2,16.566999912261963,learn,43433.00008773804,Wed Aug 20 2025 11:19:43 GMT-0400 (Eastern Daylight Time),275013.59999990463,A,bookenter,I,enter,395,3,2616.2999997138977,272397.30000019073,9009,WL,A,7.0
2,17.033999919891357,learn,42966.00008010864,Wed Aug 20 2025 11:19:43 GMT-0400 (Eastern Daylight Time),275480.80000019073,A,f,I,f,450,3,466.80000019073486,275014.0,9009,WL,A,8.0
2,17.368000030517578,learn,42631.99996948242,Wed Aug 20 2025 11:19:43 GMT-0400 (Eastern Daylight Time),275814.09999990463,A,fl,I,l,314,3,800.0999999046326,275014.0,9009,WL,A,8.0
2,17.733999967575073,learn,42266.00003242493,Wed Aug 20 2025 11:19:43 GMT-0400 (Eastern Daylight Time),276180.90000009537,A,flo,I,o,351,3,1166.9000000953674,275014.0,9009,WL,A,8.0
2,18.066999912261963,learn,41933.00008773804,Wed Aug 20 2025 11:19:43 GMT-0400 (Eastern Daylight Time),276514.09999990463,A,flow,I,w,317,3,1500.0999999046326,275014.0,9009,WL,A,8.0
2,18.401000022888184,learn,41598.99997711182,Wed Aug 20 2025 11:19:43 GMT-0400 (Eastern Daylight Time),276847.09999990463,A,flowe,I,e,322,3,1833.0999999046326,275014.0,9009,WL,A,8.0
2,18.700999975204468,learn,41299.00002479553,Wed Aug 20 2025 11:19:43 GMT-0400 (Eastern Daylight Time),277147.59999990463,A,flower,I,r,277,3,2133.5999999046326,275014.0,9009,WL,A,8.0
2,19.049999952316284,learn,40950.000047683716,Wed Aug 20 2025 11:19:43 GMT-0400 (Eastern Daylight Time),277496.90000009537,A,flowerenter,I,enter,328,3,2482.9000000953674,275014.0,9009,WL,A,8.0
2,19.467999935150146,learn,40532.00006484985,Wed Aug 20 2025 11:19:43 GMT-0400 (Eastern Daylight Time),277914.09999990463,A,r,I,r,397,3,416.7999997138977,277497.30000019073,9009,WL,A,9.0
2,19.967999935150146,learn,40032.00006484985,Wed Aug 20 2025 11:19:43 GMT-0400 (Eastern Daylight Time),278414.19999980927,A,ru,I,u,472,3,916.8999996185303,277497.30000019073,9009,WL,A,9.0
2,20.301000118255615,learn,39698.999881744385,Wed Aug 20 2025 11:19:43 GMT-0400 (Eastern Daylight Time),278747.59999990463,A,rug,I,g,312,3,1250.2999997138977,277497.30000019073,9009,WL,A,9.0
2,20.75,learn,39250.0,Wed Aug 20 2025 11:19:43 GMT-0400 (Eastern Daylight Time),279197.0,A,rugenter,I,enter,425,3,1699.6999998092651,277497.30000019073,9009,WL,A,9.0
2,21.33400011062622,learn,38665.99988937378,Wed Aug 20 2025 11:19:43 GMT-0400 (Eastern Daylight Time),279780.80000019073,A,m,I,m,570,3,583.5,279197.30000019073,9009,WL,A,10.0
2,21.884999990463257,learn,38115.00000953674,Wed Aug 20 2025 11:19:43 GMT-0400 (Eastern Daylight Time),280331.30000019073,A,me,I,e,525,3,1134.0,279197.30000019073,9009,WL,A,10.0
2,22.3510000705719,learn,37648.9999294281,Wed Aug 20 2025 11:19:43 GMT-0400 (Eastern Daylight Time),280797.40000009537,A,mea,I,a,445,3,1600.0999999046326,279197.30000019073,9009,WL,A,10.0
2,22.733999967575073,learn,37266.00003242493,Wed Aug 20 2025 11:19:43 GMT-0400 (Eastern Daylight Time),281180.80000019073,A,mead,I,d,351,3,1983.5,279197.30000019073,9009,WL,A,10.0
2,23.134000062942505,learn,36865.999937057495,Wed Aug 20 2025 11:19:43 GMT-0400 (Eastern Daylight Time),281581.0,A,meado,I,o,376,3,2383.699999809265,279197.30000019073,9009,WL,A,10.0
2,23.467999935150146,learn,36532.00006484985,Wed Aug 20 2025 11:19:43 GMT-0400 (Eastern Daylight Time),281914.09999990463,A,meadow,I,w,310,3,2716.7999997138977,279197.30000019073,9009,WL,A,10.0
2,23.783999919891357,learn,36216.00008010864,Wed Aug 20 2025 11:19:43 GMT-0400 (Eastern Daylight Time),282230.30000019073,A,meadowenter,I,enter,298,3,3033.0,279197.30000019073,9009,WL,A,10.0
2,24.134000062942505,learn,35865.999937057495,Wed Aug 20 2025 11:19:43 GMT-0400 (Eastern Daylight Time),282580.90000009537,A,c,I,c,337,3,350.2000002861023,282230.69999980927,9009,WL,A,11.0
2,24.450999975204468,learn,35549.00002479553,Wed Aug 20 2025 11:19:43 GMT-0400 (Eastern Daylight Time),282897.5,A,ch,I,h,304,3,666.8000001907349,282230.69999980927,9009,WL,A,11.0
2,24.76799988746643,learn,35232.00011253357,Wed Aug 20 2025 11:19:43 GMT-0400 (Eastern Daylight Time),283214.19999980927,A,chi,I,i,289,3,983.5,282230.69999980927,9009,WL,A,11.0
2,25.217000007629395,learn,34782.999992370605,Wed Aug 20 2025 11:19:43 GMT-0400 (Eastern Daylight Time),283664.0,A,chim,I,m,436,3,1433.3000001907349,282230.69999980927,9009,WL,A,11.0
2,25.667999982833862,learn,34332.00001716614,Wed Aug 20 2025 11:19:43 GMT-0400 (Eastern Daylight Time),284114.09999990463,A,chime,I,e,436,3,1883.4000000953674,282230.69999980927,9009,WL,A,11.0
2,26.033999919891357,learn,33966.00008010864,Wed Aug 20 2025 11:19:43 GMT-0400 (Eastern Daylight Time),284480.40000009537,A,chimen,I,n,353,3,2249.7000002861023,282230.69999980927,9009,WL,A,11.0
2,26.901000022888184,learn,33098.99997711182,Wed Aug 20 2025 11:19:43 GMT-0400 (Eastern Daylight Time),285347.5,A,chime,I,backspace,855,3,3116.800000190735,282230.69999980927,9009,WL,A,11.0
2,27.250999927520752,learn,32749.000072479248,Wed Aug 20 2025 11:19:43 GMT-0400 (Eastern Daylight Time),285697.40000009537,A,chim,I,backspace,338,3,3466.7000002861023,282230.69999980927,9009,WL,A,11.0
2,28.217999935150146,learn,31782.000064849854,Wed Aug 20 2025 11:19:43 GMT-0400 (Eastern Daylight Time),286664.19999980927,A,chimn,I,n,947,3,4433.5,282230.69999980927,9009,WL,A,11.0
2,28.43400001525879,learn,31565.99998474121,Wed Aug 20 2025 11:19:43 GMT-0400 (Eastern Daylight Time),286880.80000019073,A,chimne,I,e,205,3,4650.10000038147,282230.69999980927,9009,WL,A,11.0
2,28.733999967575073,learn,31266.000032424927,Wed Aug 20 2025 11:19:43 GMT-0400 (Eastern Daylight Time),287180.80000019073,A,chimney,I,y,267,3,4950.10000038147,282230.69999980927,9009,WL,A,11.0
2,31.283999919891357,learn,28716.000080108643,Wed Aug 20 2025 11:19:43 GMT-0400 (Eastern Daylight Time),289730.40000009537,A,chimneyenter,I,enter,2534,3,7499.700000286102,282230.69999980927,9009,WL,A,11.0
2,32.634000062942505,learn,27365.999937057495,Wed Aug 20 2025 11:19:43 GMT-0400 (Eastern Daylight Time),291080.90000009537,A,s,I,s,1334,3,1350.2000002861023,289730.69999980927,9009,WL,A,12.0
2,32.78399991989136,learn,27216.000080108643,Wed Aug 20 2025 11:19:43 GMT-0400 (Eastern Daylight Time),291230.80000019073,A,sa,I,a,140,3,1500.1000003814697,289730.69999980927,9009,WL,A,12.0
2,33.03399991989136,learn,26966.000080108643,Wed Aug 20 2025 11:19:43 GMT-0400 (Eastern Daylight Time),291480.90000009537,A,sal,I,l,229,3,1750.2000002861023,289730.69999980927,9009,WL,A,12.0
2,33.33400011062622,learn,26665.99988937378,Wed Aug 20 2025 11:19:43 GMT-0400 (Eastern Daylight Time),291780.69999980927,A,salt,I,t,282,3,2050.0,289730.69999980927,9009,WL,A,12.0
2,33.59999990463257,learn,26400.00009536743,Wed Aug 20 2025 11:19:43 GMT-0400 (Eastern Daylight Time),292046.90000009537,A,saltenter,I,enter,256,3,2316.2000002861023,289730.69999980927,9009,WL,A,12.0
2,34.568000078201294,learn,25431.999921798706,Wed Aug 20 2025 11:19:43 GMT-0400 (Eastern Daylight Time),293014.09999990463,A,f,I,f,952,3,966.7999997138977,292047.30000019073,9009,WL,A,13.0
2,35.1010000705719,learn,24898.9999294281,Wed Aug 20 2025 11:19:43 GMT-0400 (Eastern Daylight Time),293547.59999990463,A,fi,I,i,509,3,1500.2999997138977,292047.30000019073,9009,WL,A,13.0
2,35.551000118255615,learn,24448.999881744385,Wed Aug 20 2025 11:19:43 GMT-0400 (Eastern Daylight Time),293997.59999990463,A,fin,I,n,422,3,1950.2999997138977,292047.30000019073,9009,WL,A,13.0
2,35.86800003051758,learn,24131.999969482422,Wed Aug 20 2025 11:19:43 GMT-0400 (Eastern Daylight Time),294314.30000019073,A,fing,I,g,293,3,2267.0,292047.30000019073,9009,WL,A,13.0
2,36.26799988746643,learn,23732.00011253357,Wed Aug 20 2025 11:19:43 GMT-0400 (Eastern Daylight Time),294714.09999990463,A,finge,I,e,378,3,2666.7999997138977,292047.30000019073,9009,WL,A,13.0
2,36.81699991226196,learn,23183.000087738037,Wed Aug 20 2025 11:19:43 GMT-0400 (Eastern Daylight Time),295264.09999990463,A,finger,I,r,539,3,3216.7999997138977,292047.30000019073,9009,WL,A,13.0
2,37.96799993515015,learn,22032.000064849854,Wed Aug 20 2025 11:19:43 GMT-0400 (Eastern Daylight Time),296414.69999980927,A,fingerenter,I,enter,1123,3,4367.39999961853,292047.30000019073,9009,WL,A,13.0
2,44.73399996757507,learn,15266.000032424927,Wed Aug 20 2025 11:19:43 GMT-0400 (Eastern Daylight Time),303180.80000019073,A,r,I,r,6745,3,6765.800000190735,296415.0,9009,WL,A,14.0
2,44.93400001525879,learn,15065.999984741211,Wed Aug 20 2025 11:19:43 GMT-0400 (Eastern Daylight Time),303380.90000009537,A,ru,I,u,182,3,6965.900000095367,296415.0,9009,WL,A,14.0
2,45.301000118255615,learn,14698.999881744385,Wed Aug 20 2025 11:19:43 GMT-0400 (Eastern Daylight Time),303747.5,A,rug,I,g,352,3,7332.5,296415.0,9009,WL,A,14.0
2,45.83400011062622,learn,14165.99988937378,Wed Aug 20 2025 11:19:43 GMT-0400 (Eastern Daylight Time),304280.40000009537,A,rugenter,I,enter,510,3,7865.400000095367,296415.0,9009,WL,A,14.0
2,52.23399996757507,learn,7766.000032424927,Wed Aug 20 2025 11:19:43 GMT-0400 (Eastern Daylight Time),310680.90000009537,A,t,I,t,6383,3,6400.200000286102,304280.69999980927,9009,WL,A,15.0
2,52.45099997520447,learn,7549.000024795532,Wed Aug 20 2025 11:19:43 GMT-0400 (Eastern Daylight Time),310897.5,A,tr,I,r,203,3,6616.800000190735,304280.69999980927,9009,WL,A,15.0
2,53.00099992752075,learn,6999.000072479248,Wed Aug 20 2025 11:19:43 GMT-0400 (Eastern Daylight Time),311447.59999990463,A,tra,I,a,523,3,7166.900000095367,304280.69999980927,9009,WL,A,15.0
2,53.16700005531311,learn,6832.99994468689,Wed Aug 20 2025 11:19:43 GMT-0400 (Eastern Daylight Time),311614.0,A,trai,I,i,141,3,7333.300000190735,304280.69999980927,9009,WL,A,15.0
2,53.53399991989136,learn,6466.000080108643,Wed Aug 20 2025 11:19:43 GMT-0400 (Eastern Daylight Time),311980.90000009537,A,train,I,n,343,3,7700.200000286102,304280.69999980927,9009,WL,A,15.0
2,53.967000007629395,learn,6032.9999923706055,Wed Aug 20 2025 11:19:43 GMT-0400 (Eastern Daylight Time),312413.69999980927,A,trainenter,I,enter,407,3,8133.0,304280.69999980927,9009,WL,A,15.0
3,0.6000001430511475,learn,59399.99985694885,Wed Aug 20 2025 11:19:43 GMT-0400 (Eastern Daylight Time),384031.0,A,c,I,c,575,3,599.8000001907349,383431.19999980927,9009,WL,A,1.0
3,1.184000015258789,learn,58815.99998474121,Wed Aug 20 2025 11:19:43 GMT-0400 (Eastern Daylight Time),384614.40000009537,A,ch,I,h,566,3,1183.2000002861023,383431.19999980927,9009,WL,A,1.0
3,1.818000078201294,learn,58181.999921798706,Wed Aug 20 2025 11:19:43 GMT-0400 (Eastern Daylight Time),385248.40000009537,A,chi,I,i,622,3,1817.2000002861023,383431.19999980927,9009,WL,A,1.0
3,2.0840001106262207,learn,57915.99988937378,Wed Aug 20 2025 11:19:43 GMT-0400 (Eastern Daylight Time),385514.19999980927,A,chim,I,m,241,3,2083.0,383431.19999980927,9009,WL,A,1.0
3,2.383000135421753,learn,57616.99986457825,Wed Aug 20 2025 11:19:43 GMT-0400 (Eastern Daylight Time),385813.69999980927,A,chimn,I,n,282,3,2382.5,383431.19999980927,9009,WL,A,1.0
3,2.634000062942505,learn,57365.999937057495,Wed Aug 20 2025 11:19:43 GMT-0400 (Eastern Daylight Time),386064.0,A,chimne,I,e,242,3,2632.800000190735,383431.19999980927,9009,WL,A,1.0
3,2.9000000953674316,learn,57099.99990463257,Wed Aug 20 2025 11:19:43 GMT-0400 (Eastern Daylight Time),386330.90000009537,A,chimney,I,y,241,3,2899.7000002861023,383431.19999980927,9009,WL,A,1.0
3,3.25,learn,56750.0,Wed Aug 20 2025 11:19:43 GMT-0400 (Eastern Daylight Time),386680.40000009537,A,chimneyenter,I,enter,330,3,3249.2000002861023,383431.19999980927,9009,WL,A,1.0
3,4.0,learn,56000.0,Wed Aug 20 2025 11:19:43 GMT-0400 (Eastern Daylight Time),387431.0,A,l,I,l,735,3,750.1999998092651,386680.80000019073,9009,WL,A,2.0
3,4.266999959945679,learn,55733.00004005432,Wed Aug 20 2025 11:19:43 GMT-0400 (Eastern Daylight Time),387697.59999990463,A,lo,I,o,254,3,1016.7999997138977,386680.80000019073,9009,WL,A,2.0
3,4.6000001430511475,learn,55399.99985694885,Wed Aug 20 2025 11:19:43 GMT-0400 (Eastern Daylight Time),388030.90000009537,A,log,I,g,298,3,1350.0999999046326,386680.80000019073,9009,WL,A,2.0
3,5.049999952316284,learn,54950.000047683716,Wed Aug 20 2025 11:19:43 GMT-0400 (Eastern Daylight Time),388480.40000009537,A,logenter,I,enter,438,3,1799.5999999046326,386680.80000019073,9009,WL,A,2.0
3,5.799999952316284,learn,54200.000047683716,Wed Aug 20 2025 11:19:43 GMT-0400 (Eastern Daylight Time),389230.90000009537,A,k,I,k,727,3,750.2000002861023,388480.69999980927,9009,WL,A,3.0
3,6.200000047683716,learn,53799.999952316284,Wed Aug 20 2025 11:19:43 GMT-0400 (Eastern Daylight Time),389630.59999990463,A,ke,I,e,374,3,1149.9000000953674,388480.69999980927,9009,WL,A,3.0
3,6.567000150680542,learn,53432.99984931946,Wed Aug 20 2025 11:19:43 GMT-0400 (Eastern Daylight Time),389997.69999980927,A,key,I,y,343,3,1517.0,388480.69999980927,9009,WL,A,3.0
3,6.983000040054321,learn,53016.99995994568,Wed Aug 20 2025 11:19:43 GMT-0400 (Eastern Daylight Time),390413.69999980927,A,keyenter,I,enter,387,3,1933.0,388480.69999980927,9009,WL,A,3.0
3,7.66700005531311,learn,52332.99994468689,Wed Aug 20 2025 11:19:43 GMT-0400 (Eastern Daylight Time),391097.59999990463,A,r,I,r,666,3,683.5,390414.09999990463,9009,WL,A,4.0
3,8.216000080108643,learn,51783.99991989136,Wed Aug 20 2025 11:19:43 GMT-0400 (Eastern Daylight Time),391646.80000019073,A,ra,I,a,538,3,1232.7000002861023,390414.09999990463,9009,WL,A,4.0
3,8.783999919891357,learn,51216.00008010864,Wed Aug 20 2025 11:19:43 GMT-0400 (Eastern Daylight Time),392214.19999980927,A,rat,I,t,553,3,1800.0999999046326,390414.09999990463,9009,WL,A,4.0
3,9.0,learn,51000.0,Wed Aug 20 2025 11:19:43 GMT-0400 (Eastern Daylight Time),392430.90000009537,A,ratt,I,t,190,3,2016.8000001907349,390414.09999990463,9009,WL,A,4.0
3,9.283999919891357,learn,50716.00008010864,Wed Aug 20 2025 11:19:43 GMT-0400 (Eastern Daylight Time),392714.40000009537,A,rattl,I,l,259,3,2300.300000190735,390414.09999990463,9009,WL,A,4.0
3,9.549999952316284,learn,50450.000047683716,Wed Aug 20 2025 11:19:43 GMT-0400 (Eastern Daylight Time),392981.0,A,rattle,I,e,251,3,2566.9000000953674,390414.09999990463,9009,WL,A,4.0
3,9.883000135421753,learn,50116.99986457825,Wed Aug 20 2025 11:19:43 GMT-0400 (Eastern Daylight Time),393313.69999980927,A,rattleenter,I,enter,319,3,2899.5999999046326,390414.09999990463,9009,WL,A,4.0
3,10.266999959945679,learn,49733.00004005432,Wed Aug 20 2025 11:19:43 GMT-0400 (Eastern Daylight Time),393697.5,A,a,I,a,375,3,383.40000009536743,393314.09999990463,9009,WL,A,5.0
3,10.66700005531311,learn,49332.99994468689,Wed Aug 20 2025 11:19:43 GMT-0400 (Eastern Daylight Time),394097.59999990463,A,ap,I,p,386,3,783.5,393314.09999990463,9009,WL,A,5.0
3,10.867000102996826,learn,49132.999897003174,Wed Aug 20 2025 11:19:43 GMT-0400 (Eastern Daylight Time),394297.59999990463,A,app,I,p,176,3,983.5,393314.09999990463,9009,WL,A,5.0
3,11.134000062942505,learn,48865.999937057495,Wed Aug 20 2025 11:19:43 GMT-0400 (Eastern Daylight Time),394564.30000019073,A,appl,I,l,251,3,1250.2000002861023,393314.09999990463,9009,WL,A,5.0
3,11.516999959945679,learn,48483.00004005432,Wed Aug 20 2025 11:19:43 GMT-0400 (Eastern Daylight Time),394947.09999990463,A,apple,I,e,368,3,1633.0,393314.09999990463,9009,WL,A,5.0
3,11.967000007629395,learn,48032.999992370605,Wed Aug 20 2025 11:19:43 GMT-0400 (Eastern Daylight Time),395397.09999990463,A,appleenter,I,enter,434,3,2083.0,393314.09999990463,9009,WL,A,5.0
3,12.799999952316284,learn,47200.000047683716,Wed Aug 20 2025 11:19:43 GMT-0400 (Eastern Daylight Time),396230.90000009537,A,g,I,g,819,3,833.5999999046326,395397.30000019073,9009,WL,A,6.0
3,13.033999919891357,learn,46966.00008010864,Wed Aug 20 2025 11:19:43 GMT-0400 (Eastern Daylight Time),396464.09999990463,A,go,I,o,220,3,1066.7999997138977,395397.30000019073,9009,WL,A,6.0
3,13.299999952316284,learn,46700.000047683716,Wed Aug 20 2025 11:19:43 GMT-0400 (Eastern Daylight Time),396731.0,A,gol,I,l,245,3,1333.6999998092651,395397.30000019073,9009,WL,A,6.0
3,13.567000150680542,learn,46432.99984931946,Wed Aug 20 2025 11:19:43 GMT-0400 (Eastern Daylight Time),396997.59999990463,A,gold,I,d,250,3,1600.2999997138977,395397.30000019073,9009,WL,A,6.0
3,13.815999984741211,learn,46184.00001525879,Wed Aug 20 2025 11:19:43 GMT-0400 (Eastern Daylight Time),397247.0,A,goldenter,I,enter,231,3,1849.6999998092651,395397.30000019073,9009,WL,A,6.0
3,14.850000143051147,learn,45149.99985694885,Wed Aug 20 2025 11:19:43 GMT-0400 (Eastern Daylight Time),398280.90000009537,A,h,I,h,1017,3,1033.5999999046326,397247.30000019073,9009,WL,A,7.0
3,15.049999952316284,learn,44950.000047683716,Wed Aug 20 2025 11:19:43 GMT-0400 (Eastern Daylight Time),398480.90000009537,A,ha,I,a,187,3,1233.5999999046326,397247.30000019073,9009,WL,A,7.0
3,15.283999919891357,learn,44716.00008010864,Wed Aug 20 2025 11:19:43 GMT-0400 (Eastern Daylight Time),398714.40000009537,A,har,I,r,212,3,1467.0999999046326,397247.30000019073,9009,WL,A,7.0
3,15.600000143051147,learn,44399.99985694885,Wed Aug 20 2025 11:19:43 GMT-0400 (Eastern Daylight Time),399031.0,A,harp,I,p,299,3,1783.6999998092651,397247.30000019073,9009,WL,A,7.0
3,16.049999952316284,learn,43950.000047683716,Wed Aug 20 2025 11:19:43 GMT-0400 (Eastern Daylight Time),399480.40000009537,A,harpenter,I,enter,426,3,2233.0999999046326,397247.30000019073,9009,WL,A,7.0
3,17.067000150680542,learn,42932.99984931946,Wed Aug 20 2025 11:19:43 GMT-0400 (Eastern Daylight Time),400497.59999990463,A,s,I,s,1007,3,1016.7999997138977,399480.80000019073,9009,WL,A,8.0
3,17.317000150680542,learn,42682.99984931946,Wed Aug 20 2025 11:19:43 GMT-0400 (Eastern Daylight Time),400747.80000019073,A,sa,I,a,228,3,1267.0,399480.80000019073,9009,WL,A,8.0
3,17.568000078201294,learn,42431.999921798706,Wed Aug 20 2025 11:19:43 GMT-0400 (Eastern Daylight Time),400998.09999990463,A,sal,I,l,234,3,1517.2999997138977,399480.80000019073,9009,WL,A,8.0
3,17.983999967575073,learn,42016.00003242493,Wed Aug 20 2025 11:19:43 GMT-0400 (Eastern Daylight Time),401414.19999980927,A,salt,I,t,402,3,1933.3999996185303,399480.80000019073,9009,WL,A,8.0
3,18.383000135421753,learn,41616.99986457825,Wed Aug 20 2025 11:19:43 GMT-0400 (Eastern Daylight Time),401813.59999990463,A,saltenter,I,enter,383,3,2332.7999997138977,399480.80000019073,9009,WL,A,8.0
3,20.483999967575073,learn,39516.00003242493,Wed Aug 20 2025 11:19:43 GMT-0400 (Eastern Daylight Time),403914.30000019073,A,b,I,b,2082,3,2100.300000190735,401814.0,9009,WL,A,9.0
3,20.799999952316284,learn,39200.000047683716,Wed Aug 20 2025 11:19:43 GMT-0400 (Eastern Daylight Time),404231.0,A,bo,I,o,297,3,2417.0,401814.0,9009,WL,A,9.0
3,21.0,learn,39000.0,Wed Aug 20 2025 11:19:43 GMT-0400 (Eastern Daylight Time),404430.90000009537,A,boo,I,o,165,3,2616.9000000953674,401814.0,9009,WL,A,9.0
3,21.233999967575073,learn,38766.00003242493,Wed Aug 20 2025 11:19:43 GMT-0400 (Eastern Daylight Time),404664.30000019073,A,book,I,k,213,3,2850.300000190735,401814.0,9009,WL,A,9.0
3,21.549999952316284,learn,38450.000047683716,Wed Aug 20 2025 11:19:43 GMT-0400 (Eastern Daylight Time),404980.40000009537,A,bookenter,I,enter,299,3,3166.4000000953674,401814.0,9009,WL,A,9.0
3,21.90000009536743,learn,38099.99990463257,Wed Aug 20 2025 11:19:43 GMT-0400 (Eastern Daylight Time),405330.90000009537,A,t,I,t,339,3,350.2000002861023,404980.69999980927,9009,WL,A,10.0
3,22.15000009536743,learn,37849.99990463257,Wed Aug 20 2025 11:19:43 GMT-0400 (Eastern Daylight Time),405581.0,A,tr,I,r,226,3,600.3000001907349,404980.69999980927,9009,WL,A,10.0
3,22.26699995994568,learn,37733.00004005432,Wed Aug 20 2025 11:19:43 GMT-0400 (Eastern Daylight Time),405697.59999990463,A,tra,I,a,95,3,716.9000000953674,404980.69999980927,9009,WL,A,10.0
3,22.58400011062622,learn,37415.99988937378,Wed Aug 20 2025 11:19:43 GMT-0400 (Eastern Daylight Time),406014.30000019073,A,trai,I,i,282,3,1033.6000003814697,404980.69999980927,9009,WL,A,10.0
3,23.43400001525879,learn,36565.99998474121,Wed Aug 20 2025 11:19:43 GMT-0400 (Eastern Daylight Time),406864.09999990463,A,train,I,n,838,3,1883.4000000953674,404980.69999980927,9009,WL,A,10.0
3,24.183000087738037,learn,35816.99991226196,Wed Aug 20 2025 11:19:43 GMT-0400 (Eastern Daylight Time),407614.0,A,trainenter,I,enter,740,3,2633.300000190735,404980.69999980927,9009,WL,A,10.0
3,24.66700005531311,learn,35332.99994468689,Wed Aug 20 2025 11:19:43 GMT-0400 (Eastern Daylight Time),408097.09999990463,A,r,I,r,473,3,482.90000009536743,407614.19999980927,9009,WL,A,11.0
3,26.350000143051147,learn,33649.99985694885,Wed Aug 20 2025 11:19:43 GMT-0400 (Eastern Daylight Time),409780.90000009537,A,ru,I,u,1670,3,2166.7000002861023,407614.19999980927,9009,WL,A,11.0
3,26.733999967575073,learn,33266.00003242493,Wed Aug 20 2025 11:19:43 GMT-0400 (Eastern Daylight Time),410164.40000009537,A,rug,I,g,368,3,2550.2000002861023,407614.19999980927,9009,WL,A,11.0
3,27.401000022888184,learn,32598.999977111816,Wed Aug 20 2025 11:19:43 GMT-0400 (Eastern Daylight Time),410831.40000009537,A,rugenter,I,enter,655,3,3217.2000002861023,407614.19999980927,9009,WL,A,11.0
3,27.799999952316284,learn,32200.000047683716,Wed Aug 20 2025 11:19:43 GMT-0400 (Eastern Daylight Time),411231.0,A,f,I,f,376,3,399.19999980926514,410831.80000019073,9009,WL,A,12.0
3,28.067000150680542,learn,31932.999849319458,Wed Aug 20 2025 11:19:43 GMT-0400 (Eastern Daylight Time),411497.59999990463,A,fl,I,l,243,3,665.7999997138977,410831.80000019073,9009,WL,A,12.0
3,28.33400011062622,learn,31665.99988937378,Wed Aug 20 2025 11:19:43 GMT-0400 (Eastern Daylight Time),411764.30000019073,A,flo,I,o,250,3,932.5,410831.80000019073,9009,WL,A,12.0
3,28.549999952316284,learn,31450.000047683716,Wed Aug 20 2025 11:19:43 GMT-0400 (Eastern Daylight Time),411981.0,A,flow,I,w,193,3,1149.1999998092651,410831.80000019073,9009,WL,A,12.0
3,28.717000007629395,learn,31282.999992370605,Wed Aug 20 2025 11:19:43 GMT-0400 (Eastern Daylight Time),412147.09999990463,A,flowe,I,e,151,3,1315.2999997138977,410831.80000019073,9009,WL,A,12.0
3,28.867000102996826,learn,31132.999897003174,Wed Aug 20 2025 11:19:43 GMT-0400 (Eastern Daylight Time),412297.69999980927,A,flower,I,r,130,3,1465.8999996185303,410831.80000019073,9009,WL,A,12.0
3,29.117000102996826,learn,30882.999897003174,Wed Aug 20 2025 11:19:43 GMT-0400 (Eastern Daylight Time),412547.09999990463,A,flowerenter,I,enter,233,3,1715.2999997138977,410831.80000019073,9009,WL,A,12.0
3,29.90000009536743,learn,30099.99990463257,Wed Aug 20 2025 11:19:43 GMT-0400 (Eastern Daylight Time),413330.80000019073,A,m,I,m,773,3,783.4000000953674,412547.40000009537,9009,WL,A,13.0
3,30.08400011062622,learn,29915.99988937378,Wed Aug 20 2025 11:19:43 GMT-0400 (Eastern Daylight Time),413514.30000019073,A,me,I,e,162,3,966.9000000953674,412547.40000009537,9009,WL,A,13.0
3,30.283999919891357,learn,29716.000080108643,Wed Aug 20 2025 11:19:43 GMT-0400 (Eastern Daylight Time),413714.30000019073,A,mea,I,a,187,3,1166.9000000953674,412547.40000009537,9009,WL,A,13.0
3,30.58400011062622,learn,29415.99988937378,Wed Aug 20 2025 11:19:43 GMT-0400 (Eastern Daylight Time),414014.19999980927,A,mead,I,d,275,3,1466.7999997138977,412547.40000009537,9009,WL,A,13.0
3,30.850000143051147,learn,29149.999856948853,Wed Aug 20 2025 11:19:43 GMT-0400 (Eastern Daylight Time),414280.90000009537,A,meado,I,o,248,3,1733.5,412547.40000009537,9009,WL,A,13.0
3,31.16700005531311,learn,28832.99994468689,Wed Aug 20 2025 11:19:43 GMT-0400 (Eastern Daylight Time),414597.69999980927,A,meadow,I,w,298,3,2050.2999997138977,412547.40000009537,9009,WL,A,13.0
3,32.549999952316284,learn,27450.000047683716,Wed Aug 20 2025 11:19:43 GMT-0400 (Eastern Daylight Time),415980.40000009537,A,meadowenter,I,enter,1358,3,3433.0,412547.40000009537,9009,WL,A,13.0
3,33.18400001525879,learn,26815.99998474121,Wed Aug 20 2025 11:19:43 GMT-0400 (Eastern Daylight Time),416614.30000019073,A,c,I,c,619,3,633.6000003814697,415980.69999980927,9009,WL,A,14.0
3,33.40000009536743,learn,26599.99990463257,Wed Aug 20 2025 11:19:43 GMT-0400 (Eastern Daylight Time),416831.0,A,ch,I,h,190,3,850.3000001907349,415980.69999980927,9009,WL,A,14.0
3,33.66700005531311,learn,26332.99994468689,Wed Aug 20 2025 11:19:43 GMT-0400 (Eastern Daylight Time),417097.59999990463,A,chi,I,i,237,3,1116.9000000953674,415980.69999980927,9009,WL,A,14.0
3,35.23399996757507,learn,24766.000032424927,Wed Aug 20 2025 11:19:43 GMT-0400 (Eastern Daylight Time),418664.30000019073,A,chin,I,n,1547,3,2683.6000003814697,415980.69999980927,9009,WL,A,14.0
3,36.10000014305115,learn,23899.999856948853,Wed Aug 20 2025 11:19:43 GMT-0400 (Eastern Daylight Time),419530.90000009537,A,chi,I,backspace,842,3,3550.2000002861023,415980.69999980927,9009,WL,A,14.0
3,36.31700015068054,learn,23682.999849319458,Wed Aug 20 2025 11:19:43 GMT-0400 (Eastern Daylight Time),419747.59999990463,A,ch,I,backspace,201,3,3766.9000000953674,415980.69999980927,9009,WL,A,14.0
3,36.70099997520447,learn,23299.000024795532,Wed Aug 20 2025 11:19:43 GMT-0400 (Eastern Daylight Time),420131.09999990463,A,c,I,backspace,369,3,4150.400000095367,415980.69999980927,9009,WL,A,14.0
3,37.68400001525879,learn,22315.99998474121,Wed Aug 20 2025 11:19:43 GMT-0400 (Eastern Daylight Time),421114.40000009537,A,,I,backspace,956,3,5133.700000286102,415980.69999980927,9009,WL,A,14.0
3,43.384000062942505,learn,16615.999937057495,Wed Aug 20 2025 11:19:43 GMT-0400 (Eastern Daylight Time),426814.30000019073,A,c,I,c,5676,3,10833.60000038147,415980.69999980927,9009,WL,A,14.0
3,43.58400011062622,learn,16415.99988937378,Wed Aug 20 2025 11:19:43 GMT-0400 (Eastern Daylight Time),427014.30000019073,A,ch,I,h,180,3,11033.60000038147,415980.69999980927,9009,WL,A,14.0
3,43.83400011062622,learn,16165.99988937378,Wed Aug 20 2025 11:19:43 GMT-0400 (Eastern Daylight Time),427264.09999990463,A,chi,I,i,238,3,11283.400000095367,415980.69999980927,9009,WL,A,14.0
3,44.06700015068054,learn,15932.999849319458,Wed Aug 20 2025 11:19:43 GMT-0400 (Eastern Daylight Time),427497.59999990463,A,chim,I,m,212,3,11516.900000095367,415980.69999980927,9009,WL,A,14.0
3,44.46600008010864,learn,15533.999919891357,Wed Aug 20 2025 11:19:43 GMT-0400 (Eastern Daylight Time),427896.69999980927,A,chimn,I,n,379,3,11916.0,415980.69999980927,9009,WL,A,14.0
3,44.73399996757507,learn,15266.000032424927,Wed Aug 20 2025 11:19:43 GMT-0400 (Eastern Daylight Time),428164.30000019073,A,chimne,I,e,253,3,12183.60000038147,415980.69999980927,9009,WL,A,14.0
3,44.90000009536743,learn,15099.999904632568,Wed Aug 20 2025 11:19:43 GMT-0400 (Eastern Daylight Time),428330.5,A,chimney,I,y,134,3,12349.800000190735,415980.69999980927,9009,WL,A,14.0
3,45.200000047683716,learn,14799.999952316284,Wed Aug 20 2025 11:19:43 GMT-0400 (Eastern Daylight Time),428630.40000009537,A,chimneyenter,I,enter,282,3,12649.700000286102,415980.69999980927,9009,WL,A,14.0
3,53.467000007629395,learn,6532.9999923706055,Wed Aug 20 2025 11:19:43 GMT-0400 (Eastern Daylight Time),436897.59999990463,A,b,I,b,8258,3,8266.799999713898,428630.80000019073,9009,WL,A,15.0
3,53.76699995994568,learn,6233.000040054321,Wed Aug 20 2025 11:19:43 GMT-0400 (Eastern Daylight Time),437197.59999990463,A,bu,I,u,272,3,8566.799999713898,428630.80000019073,9009,WL,A,15.0
3,54.01699995994568,learn,5983.000040054321,Wed Aug 20 2025 11:19:43 GMT-0400 (Eastern Daylight Time),437447.30000019073,A,but,I,t,232,3,8816.5,428630.80000019073,9009,WL,A,15.0
3,54.200000047683716,learn,5799.999952316284,Wed Aug 20 2025 11:19:43 GMT-0400 (Eastern Daylight Time),437631.0,A,butt,I,t,172,3,9000.199999809265,428630.80000019073,9009,WL,A,15.0
3,54.35000014305115,learn,5649.9998569488525,Wed Aug 20 2025 11:19:43 GMT-0400 (Eastern Daylight Time),437781.0,A,butto,I,o,135,3,9150.199999809265,428630.80000019073,9009,WL,A,15.0
3,54.81700015068054,learn,5182.999849319458,Wed Aug 20 2025 11:19:43 GMT-0400 (Eastern Daylight Time),438247.69999980927,A,button,I,n,439,3,9616.89999961853,428630.80000019073,9009,WL,A,15.0
3,55.200000047683716,learn,4799.999952316284,Wed Aug 20 2025 11:19:43 GMT-0400 (Eastern Daylight Time),438630.40000009537,A,buttonenter,I,enter,364,3,9999.599999904633,428630.80000019073,9009,WL,A,15.0
4,2.5839998722076416,learn,57416.00012779236,Wed Aug 20 2025 11:19:43 GMT-0400 (Eastern Daylight Time),513964.40000009537,A,b,I,b,2553,3,2583.0999999046326,511381.30000019073,9009,WL,A,1.0
4,3.0339999198913574,learn,56966.00008010864,Wed Aug 20 2025 11:19:43 GMT-0400 (Eastern Daylight Time),514414.30000019073,A,bo,I,o,425,3,3033.0,511381.30000019073,9009,WL,A,1.0
4,3.3510000705718994,learn,56648.9999294281,Wed Aug 20 2025 11:19:43 GMT-0400 (Eastern Daylight Time),514731.0,A,boo,I,o,286,3,3349.699999809265,511381.30000019073,9009,WL,A,1.0
4,3.700000047683716,learn,56299.999952316284,Wed Aug 20 2025 11:19:43 GMT-0400 (Eastern Daylight Time),515081.0,A,book,I,k,330,3,3699.699999809265,511381.30000019073,9009,WL,A,1.0
4,4.08299994468689,learn,55917.00005531311,Wed Aug 20 2025 11:19:43 GMT-0400 (Eastern Daylight Time),515463.90000009537,A,bookenter,I,enter,363,3,4082.5999999046326,511381.30000019073,9009,WL,A,1.0
4,5.049999952316284,learn,54950.000047683716,Wed Aug 20 2025 11:19:43 GMT-0400 (Eastern Daylight Time),516431.0,A,f,I,f,944,3,966.9000000953674,515464.09999990463,9009,WL,A,2.0
4,5.299999952316284,learn,54700.000047683716,Wed Aug 20 2025 11:19:43 GMT-0400 (Eastern Daylight Time),516681.0,A,fl,I,l,230,3,1216.9000000953674,515464.09999990463,9009,WL,A,2.0
4,5.617000102996826,learn,54382.999897003174,Wed Aug 20 2025 11:19:43 GMT-0400 (Eastern Daylight Time),516997.69999980927,A,flo,I,o,299,3,1533.5999999046326,515464.09999990463,9009,WL,A,2.0
4,5.983999967575073,learn,54016.00003242493,Wed Aug 20 2025 11:19:43 GMT-0400 (Eastern Daylight Time),517364.40000009537,A,flow,I,w,350,3,1900.3000001907349,515464.09999990463,9009,WL,A,2.0
4,6.250999927520752,learn,53749.00007247925,Wed Aug 20 2025 11:19:43 GMT-0400 (Eastern Daylight Time),517631.09999990463,A,flowe,I,e,249,3,2167.0,515464.09999990463,9009,WL,A,2.0
4,6.550999879837036,learn,53449.000120162964,Wed Aug 20 2025 11:19:43 GMT-0400 (Eastern Daylight Time),517931.0,A,flower,I,r,278,3,2466.9000000953674,515464.09999990463,9009,WL,A,2.0
4,6.9670000076293945,learn,53032.999992370605,Wed Aug 20 2025 11:19:43 GMT-0400 (Eastern Daylight Time),518347.19999980927,A,flowerenter,I,enter,393,3,2883.0999999046326,515464.09999990463,9009,WL,A,2.0
4,7.66700005531311,learn,52332.99994468689,Wed Aug 20 2025 11:19:43 GMT-0400 (Eastern Daylight Time),519047.69999980927,A,t,I,t,685,3,700.1999998092651,518347.5,9009,WL,A,3.0
4,7.933000087738037,learn,52066.99991226196,Wed Aug 20 2025 11:19:43 GMT-0400 (Eastern Daylight Time),519313.80000019073,A,tr,I,r,253,3,966.3000001907349,518347.5,9009,WL,A,3.0
4,8.066999912261963,learn,51933.00008773804,Wed Aug 20 2025 11:19:43 GMT-0400 (Eastern Daylight Time),519447.80000019073,A,tra,I,a,117,3,1100.3000001907349,518347.5,9009,WL,A,3.0
4,8.41700005531311,learn,51582.99994468689,Wed Aug 20 2025 11:19:43 GMT-0400 (Eastern Daylight Time),519797.69999980927,A,trai,I,i,325,3,1450.1999998092651,518347.5,9009,WL,A,3.0
4,8.651000022888184,learn,51348.99997711182,Wed Aug 20 2025 11:19:43 GMT-0400 (Eastern Daylight Time),520031.09999990463,A,train,I,n,207,3,1683.5999999046326,518347.5,9009,WL,A,3.0
4,9.032999992370605,learn,50967.000007629395,Wed Aug 20 2025 11:19:43 GMT-0400 (Eastern Daylight Time),520414.0,A,trainenter,I,enter,372,3,2066.5,518347.5,9009,WL,A,3.0
4,9.8510000705719,learn,50148.9999294281,Wed Aug 20 2025 11:19:43 GMT-0400 (Eastern Daylight Time),521231.0,A,r,I,r,794,3,816.6999998092651,520414.30000019073,9009,WL,A,4.0
4,10.200000047683716,learn,49799.999952316284,Wed Aug 20 2025 11:19:43 GMT-0400 (Eastern Daylight Time),521581.09999990463,A,ru,I,u,326,3,1166.7999997138977,520414.30000019073,9009,WL,A,4.0
4,10.549999952316284,learn,49450.000047683716,Wed Aug 20 2025 11:19:43 GMT-0400 (Eastern Daylight Time),521931.0,A,rug,I,g,328,3,1516.6999998092651,520414.30000019073,9009,WL,A,4.0
4,10.950000047683716,learn,49049.999952316284,Wed Aug 20 2025 11:19:43 GMT-0400 (Eastern Daylight Time),522330.5,A,rugenter,I,enter,377,3,1916.1999998092651,520414.30000019073,9009,WL,A,4.0
4,12.184000015258789,learn,47815.99998474121,Wed Aug 20 2025 11:19:43 GMT-0400 (Eastern Daylight Time),523564.30000019073,A,m,I,m,1213,3,1233.5,522330.80000019073,9009,WL,A,5.0
4,12.401000022888184,learn,47598.99997711182,Wed Aug 20 2025 11:19:43 GMT-0400 (Eastern Daylight Time),523781.0,A,me,I,e,199,3,1450.1999998092651,522330.80000019073,9009,WL,A,5.0
4,12.566999912261963,learn,47433.00008773804,Wed Aug 20 2025 11:19:43 GMT-0400 (Eastern Daylight Time),523947.80000019073,A,mea,I,a,141,3,1617.0,522330.80000019073,9009,WL,A,5.0
4,12.849999904632568,learn,47150.00009536743,Wed Aug 20 2025 11:19:43 GMT-0400 (Eastern Daylight Time),524231.0,A,mead,I,d,265,3,1900.1999998092651,522330.80000019073,9009,WL,A,5.0
4,13.233999967575073,learn,46766.00003242493,Wed Aug 20 2025 11:19:43 GMT-0400 (Eastern Daylight Time),524614.3000001907,A,meado,I,o,366,3,2283.5,522330.80000019073,9009,WL,A,5.0
4,13.684000015258789,learn,46315.99998474121,Wed Aug 20 2025 11:19:43 GMT-0400 (Eastern Daylight Time),525064.4000000954,A,meadow,I,w,429,3,2733.5999999046326,522330.80000019073,9009,WL,A,5.0
4,14.532999992370605,learn,45467.000007629395,Wed Aug 20 2025 11:19:43 GMT-0400 (Eastern Daylight Time),525913.8000001907,A,meadowenter,I,enter,828,3,3583.0,522330.80000019073,9009,WL,A,5.0
4,15.634000062942505,learn,44365.999937057495,Wed Aug 20 2025 11:19:43 GMT-0400 (Eastern Daylight Time),527014.3000001907,A,c,I,c,1086,3,1100.1000003814697,525914.1999998093,9009,WL,A,6.0
4,15.833999872207642,learn,44166.00012779236,Wed Aug 20 2025 11:19:43 GMT-0400 (Eastern Daylight Time),527214.3000001907,A,ch,I,h,174,3,1300.1000003814697,525914.1999998093,9009,WL,A,6.0
4,16.1010000705719,learn,43898.9999294281,Wed Aug 20 2025 11:19:43 GMT-0400 (Eastern Daylight Time),527481.0999999046,A,chi,I,i,238,3,1566.9000000953674,525914.1999998093,9009,WL,A,6.0
4,16.34999990463257,learn,43650.00009536743,Wed Aug 20 2025 11:19:43 GMT-0400 (Eastern Daylight Time),527731.0,A,chim,I,m,236,3,1816.8000001907349,525914.1999998093,9009,WL,A,6.0
4,16.58399987220764,learn,43416.00012779236,Wed Aug 20 2025 11:19:43 GMT-0400 (Eastern Daylight Time),527964.4000000954,A,chime,I,e,210,3,2050.2000002861023,525914.1999998093,9009,WL,A,6.0
4,16.717000007629395,learn,43282.999992370605,Wed Aug 20 2025 11:19:43 GMT-0400 (Eastern Daylight Time),528097.5,A,chimen,I,n,119,3,2183.300000190735,525914.1999998093,9009,WL,A,6.0
4,17.25,learn,42750.0,Wed Aug 20 2025 11:19:43 GMT-0400 (Eastern Daylight Time),528631.0,A,chimeny,I,y,506,3,2716.800000190735,525914.1999998093,9009,WL,A,6.0
4,17.566999912261963,learn,42433.00008773804,Wed Aug 20 2025 11:19:43 GMT-0400 (Eastern Daylight Time),528947.1999998093,A,chimenyenter,I,enter,300,3,3033.0,525914.1999998093,9009,WL,A,6.0
4,18.01699995994568,learn,41983.00004005432,Wed Aug 20 2025 11:19:43 GMT-0400 (Eastern Daylight Time),529397.4000000954,A,s,I,s,436,3,449.90000009536743,528947.5,9009,WL,A,7.0
4,18.25,learn,41750.0,Wed Aug 20 2025 11:19:43 GMT-0400 (Eastern Daylight Time),529631.0,A,sa,I,a,209,3,683.5,528947.5,9009,WL,A,7.0
4,18.533999919891357,learn,41466.00008010864,Wed Aug 20 2025 11:19:43 GMT-0400 (Eastern Daylight Time),529914.4000000954,A,sal,I,l,261,3,966.9000000953674,528947.5,9009,WL,A,7.0
4,18.84999990463257,learn,41150.00009536743,Wed Aug 20 2025 11:19:43 GMT-0400 (Eastern Daylight Time),530230.9000000954,A,salt,I,t,295,3,1283.4000000953674,528947.5,9009,WL,A,7.0
4,19.132999897003174,learn,40867.000102996826,Wed Aug 20 2025 11:19:43 GMT-0400 (Eastern Daylight Time),530513.8000001907,A,saltenter,I,enter,271,3,1566.3000001907349,528947.5,9009,WL,A,7.0
4,19.93400001525879,learn,40065.99998474121,Wed Aug 20 2025 11:19:43 GMT-0400 (Eastern Daylight Time),531314.4000000954,A,f,I,f,790,3,800.3000001907349,530514.0999999046,9009,WL,A,8.0
4,20.33399987220764,learn,39666.00012779236,Wed Aug 20 2025 11:19:43 GMT-0400 (Eastern Daylight Time),531714.1999998093,A,fi,I,i,387,3,1200.0999999046326,530514.0999999046,9009,WL,A,8.0
4,20.91700005531311,learn,39082.99994468689,Wed Aug 20 2025 11:19:43 GMT-0400 (Eastern Daylight Time),532297.6999998093,A,fin,I,n,562,3,1783.5999999046326,530514.0999999046,9009,WL,A,8.0
4,21.18400001525879,learn,38815.99998474121,Wed Aug 20 2025 11:19:43 GMT-0400 (Eastern Daylight Time),532564.1999998093,A,fing,I,g,251,3,2050.0999999046326,530514.0999999046,9009,WL,A,8.0
4,21.566999912261963,learn,38433.00008773804,Wed Aug 20 2025 11:19:43 GMT-0400 (Eastern Daylight Time),532947.6999998093,A,finge,I,e,360,3,2433.5999999046326,530514.0999999046,9009,WL,A,8.0
4,21.733999967575073,learn,38266.00003242493,Wed Aug 20 2025 11:19:43 GMT-0400 (Eastern Daylight Time),533114.4000000954,A,finger,I,r,144,3,2600.300000190735,530514.0999999046,9009,WL,A,8.0
4,22.01699995994568,learn,37983.00004005432,Wed Aug 20 2025 11:19:43 GMT-0400 (Eastern Daylight Time),533397.0999999046,A,fingerenter,I,enter,259,3,2883.0,530514.0999999046,9009,WL,A,8.0
4,22.467000007629395,learn,37532.999992370605,Wed Aug 20 2025 11:19:43 GMT-0400 (Eastern Daylight Time),533847.6999998093,A,h,I,h,434,3,450.2999997138977,533397.4000000954,9009,WL,A,9.0
4,22.651000022888184,learn,37348.99997711182,Wed Aug 20 2025 11:19:43 GMT-0400 (Eastern Daylight Time),534031.0999999046,A,ha,I,a,173,3,633.6999998092651,533397.4000000954,9009,WL,A,9.0
4,22.983999967575073,learn,37016.00003242493,Wed Aug 20 2025 11:19:43 GMT-0400 (Eastern Daylight Time),534364.4000000954,A,har,I,r,310,3,967.0,533397.4000000954,9009,WL,A,9.0
4,23.316999912261963,learn,36683.00008773804,Wed Aug 20 2025 11:19:43 GMT-0400 (Eastern Daylight Time),534697.6999998093,A,harp,I,p,309,3,1300.2999997138977,533397.4000000954,9009,WL,A,9.0
4,23.65000009536743,learn,36349.99990463257,Wed Aug 20 2025 11:19:43 GMT-0400 (Eastern Daylight Time),535030.5,A,harpenter,I,enter,315,3,1633.0999999046326,533397.4000000954,9009,WL,A,9.0
4,24.367000102996826,learn,35632.999897003174,Wed Aug 20 2025 11:19:43 GMT-0400 (Eastern Daylight Time),535747.5999999046,A,g,I,g,705,3,716.7999997138977,535030.8000001907,9009,WL,A,10.0
4,24.617000102996826,learn,35382.999897003174,Wed Aug 20 2025 11:19:43 GMT-0400 (Eastern Daylight Time),535997.6999998093,A,go,I,o,223,3,966.8999996185303,535030.8000001907,9009,WL,A,10.0
4,24.91700005531311,learn,35082.99994468689,Wed Aug 20 2025 11:19:43 GMT-0400 (Eastern Daylight Time),536297.6999998093,A,gol,I,l,277,3,1266.8999996185303,535030.8000001907,9009,WL,A,10.0
4,25.401000022888184,learn,34598.99997711182,Wed Aug 20 2025 11:19:43 GMT-0400 (Eastern Daylight Time),536781.0999999046,A,gold,I,d,459,3,1750.2999997138977,535030.8000001907,9009,WL,A,10.0
4,25.98300004005432,learn,34016.99995994568,Wed Aug 20 2025 11:19:43 GMT-0400 (Eastern Daylight Time),537363.9000000954,A,goldenter,I,enter,567,3,2333.0999999046326,535030.8000001907,9009,WL,A,10.0
4,29.700000047683716,learn,30299.999952316284,Wed Aug 20 2025 11:19:43 GMT-0400 (Eastern Daylight Time),541081.0,A,a,I,a,3699,3,3716.800000190735,537364.1999998093,9009,WL,A,11.0
4,29.93400001525879,learn,30065.99998474121,Wed Aug 20 2025 11:19:43 GMT-0400 (Eastern Daylight Time),541314.3000001907,A,ap,I,p,217,3,3950.1000003814697,537364.1999998093,9009,WL,A,11.0
4,30.134000062942505,learn,29865.999937057495,Wed Aug 20 2025 11:19:43 GMT-0400 (Eastern Daylight Time),541514.4000000954,A,app,I,p,171,3,4150.200000286102,537364.1999998093,9009,WL,A,11.0
4,30.384000062942505,learn,29615.999937057495,Wed Aug 20 2025 11:19:43 GMT-0400 (Eastern Daylight Time),541764.4000000954,A,appl,I,l,233,3,4400.200000286102,537364.1999998093,9009,WL,A,11.0
4,30.634000062942505,learn,29365.999937057495,Wed Aug 20 2025 11:19:43 GMT-0400 (Eastern Daylight Time),542014.3000001907,A,apple,I,e,225,3,4650.10000038147,537364.1999998093,9009,WL,A,11.0
4,30.867000102996826,learn,29132.999897003174,Wed Aug 20 2025 11:19:43 GMT-0400 (Eastern Daylight Time),542247.3000001907,A,appleenter,I,enter,215,3,4883.10000038147,537364.1999998093,9009,WL,A,11.0
4,31.450999975204468,learn,28549.000024795532,Wed Aug 20 2025 11:19:43 GMT-0400 (Eastern Daylight Time),542831.0,A,r,I,r,560,3,583.5,542247.5,9009,WL,A,12.0
4,31.700000047683716,learn,28299.999952316284,Wed Aug 20 2025 11:19:43 GMT-0400 (Eastern Daylight Time),543080.9000000954,A,ra,I,a,230,3,833.4000000953674,542247.5,9009,WL,A,12.0
4,32.00099992752075,learn,27999.000072479248,Wed Aug 20 2025 11:19:43 GMT-0400 (Eastern Daylight Time),543381.0,A,rat,I,t,285,3,1133.5,542247.5,9009,WL,A,12.0
4,32.634000062942505,learn,27365.999937057495,Wed Aug 20 2025 11:19:43 GMT-0400 (Eastern Daylight Time),544014.3000001907,A,ratt,I,t,608,3,1766.8000001907349,542247.5,9009,WL,A,12.0
4,32.867000102996826,learn,27132.999897003174,Wed Aug 20 2025 11:19:43 GMT-0400 (Eastern Daylight Time),544247.8000001907,A,rattl,I,l,214,3,2000.3000001907349,542247.5,9009,WL,A,12.0
4,33.31699991226196,learn,26683.000087738037,Wed Aug 20 2025 11:19:43 GMT-0400 (Eastern Daylight Time),544697.6999998093,A,rattle,I,e,430,3,2450.199999809265,542247.5,9009,WL,A,12.0
4,34.76699995994568,learn,25233.00004005432,Wed Aug 20 2025 11:19:43 GMT-0400 (Eastern Daylight Time),546147.1999998093,A,rattleenter,I,enter,1434,3,3899.699999809265,542247.5,9009,WL,A,12.0
4,36.16700005531311,learn,23832.99994468689,Wed Aug 20 2025 11:19:43 GMT-0400 (Eastern Daylight Time),547547.6999998093,A,s,I,s,1380,3,1400.0999999046326,546147.5999999046,9009,WL,A,13.0
4,36.367000102996826,learn,23632.999897003174,Wed Aug 20 2025 11:19:43 GMT-0400 (Eastern Daylight Time),547747.6999998093,A,sa,I,a,187,3,1600.0999999046326,546147.5999999046,9009,WL,A,13.0
4,36.51699995994568,learn,23483.00004005432,Wed Aug 20 2025 11:19:43 GMT-0400 (Eastern Daylight Time),547897.6999998093,A,sal,I,l,126,3,1750.0999999046326,546147.5999999046,9009,WL,A,13.0
4,36.91700005531311,learn,23082.99994468689,Wed Aug 20 2025 11:19:43 GMT-0400 (Eastern Daylight Time),548297.5999999046,A,salt,I,t,379,3,2150.0,546147.5999999046,9009,WL,A,13.0
4,37.049999952316284,learn,22950.000047683716,Wed Aug 20 2025 11:19:43 GMT-0400 (Eastern Daylight Time),548430.4000000954,A,saltenter,I,enter,106,3,2282.800000190735,546147.5999999046,9009,WL,A,13.0
4,37.384000062942505,learn,22615.999937057495,Wed Aug 20 2025 11:19:43 GMT-0400 (Eastern Daylight Time),548764.4000000954,A,f,I,f,313,3,333.59999990463257,548430.8000001907,9009,WL,A,14.0
4,37.68400001525879,learn,22315.99998474121,Wed Aug 20 2025 11:19:43 GMT-0400 (Eastern Daylight Time),549064.4000000954,A,fi,I,i,280,3,633.5999999046326,548430.8000001907,9009,WL,A,14.0
4,38.08399987220764,learn,21916.00012779236,Wed Aug 20 2025 11:19:43 GMT-0400 (Eastern Daylight Time),549464.3000001907,A,fin,I,n,380,3,1033.5,548430.8000001907,9009,WL,A,14.0
4,38.367000102996826,learn,21632.999897003174,Wed Aug 20 2025 11:19:43 GMT-0400 (Eastern Daylight Time),549747.8000001907,A,fing,I,g,269,3,1317.0,548430.8000001907,9009,WL,A,14.0
4,39.73399996757507,learn,20266.000032424927,Wed Aug 20 2025 11:19:43 GMT-0400 (Eastern Daylight Time),551114.1999998093,A,finge,I,e,1345,3,2683.3999996185303,548430.8000001907,9009,WL,A,14.0
4,41.81699991226196,learn,18183.000087738037,Wed Aug 20 2025 11:19:43 GMT-0400 (Eastern Daylight Time),553197.6999998093,A,finger,I,r,2060,3,4766.89999961853,548430.8000001907,9009,WL,A,14.0
4,42.65000009536743,learn,17349.99990463257,Wed Aug 20 2025 11:19:43 GMT-0400 (Eastern Daylight Time),554030.4000000954,A,fingerenter,I,enter,808,3,5599.599999904633,548430.8000001907,9009,WL,A,14.0
4,60.01699995994568,learn,-16.99995994567871,Wed Aug 20 2025 11:19:43 GMT-0400 (Eastern Daylight Time),571397.8000001907,A,None,I,None,17360,3,17367.10000038147,554030.6999998093,9009,WL,A,15.0
5,1.8340001106262207,learn,60000.0,Wed Aug 20 2025 11:19:43 GMT-0400 (Eastern Daylight Time),652548.3000001907,A,b,I,b,1819,3,1833.6000003814697,650714.6999998093,9009,WL,A,1.0
5,2.2830002307891846,learn,60000.0,Wed Aug 20 2025 11:19:43 GMT-0400 (Eastern Daylight Time),652997.6999998093,A,bu,I,u,433,3,2283.0,650714.6999998093,9009,WL,A,1.0
5,2.5830001831054688,learn,60000.0,Wed Aug 20 2025 11:19:43 GMT-0400 (Eastern Daylight Time),653297.8000001907,A,but,I,t,285,3,2583.1000003814697,650714.6999998093,9009,WL,A,1.0
5,2.9000000953674316,learn,60000.0,Wed Aug 20 2025 11:19:43 GMT-0400 (Eastern Daylight Time),653614.5999999046,A,butt,I,t,290,3,2899.9000000953674,650714.6999998093,9009,WL,A,1.0
5,3.0830001831054688,learn,60000.0,Wed Aug 20 2025 11:19:43 GMT-0400 (Eastern Daylight Time),653797.6999998093,A,butto,I,o,163,3,3083.0,650714.6999998093,9009,WL,A,1.0
5,3.366000175476074,learn,60000.0,Wed Aug 20 2025 11:19:43 GMT-0400 (Eastern Daylight Time),654081.0,A,button,I,n,272,3,3366.300000190735,650714.6999998093,9009,WL,A,1.0
5,3.7660000324249268,learn,60000.0,Wed Aug 20 2025 11:19:43 GMT-0400 (Eastern Daylight Time),654480.5999999046,A,buttonenter,I,enter,388,3,3765.9000000953674,650714.6999998093,9009,WL,A,1.0
5,4.56600022315979,learn,60000.0,Wed Aug 20 2025 11:19:43 GMT-0400 (Eastern Daylight Time),655281.0,A,l,I,l,792,3,800.0999999046326,654480.9000000954,9009,WL,A,2.0
5,4.900000095367432,learn,60000.0,Wed Aug 20 2025 11:19:43 GMT-0400 (Eastern Daylight Time),655614.4000000954,A,lo,I,o,307,3,1133.5,654480.9000000954,9009,WL,A,2.0
5,5.283000230789185,learn,60000.0,Wed Aug 20 2025 11:19:43 GMT-0400 (Eastern Daylight Time),655997.8000001907,A,log,I,g,359,3,1516.9000000953674,654480.9000000954,9009,WL,A,2.0
5,5.699000120162964,learn,60000.0,Wed Aug 20 2025 11:19:43 GMT-0400 (Eastern Daylight Time),656413.9000000954,A,logenter,I,enter,387,3,1933.0,654480.9000000954,9009,WL,A,2.0
5,6.583000183105469,learn,60000.0,Wed Aug 20 2025 11:19:43 GMT-0400 (Eastern Daylight Time),657297.8000001907,A,k,I,k,873,3,883.5,656414.3000001907,9009,WL,A,3.0
5,7.16700005531311,learn,60000.0,Wed Aug 20 2025 11:19:43 GMT-0400 (Eastern Daylight Time),657881.1999998093,A,ke,I,e,561,3,1466.8999996185303,656414.3000001907,9009,WL,A,3.0
5,7.650000095367432,learn,60000.0,Wed Aug 20 2025 11:19:43 GMT-0400 (Eastern Daylight Time),658364.5,A,key,I,y,458,3,1950.1999998092651,656414.3000001907,9009,WL,A,3.0
5,8.099000215530396,learn,60000.0,Wed Aug 20 2025 11:19:43 GMT-0400 (Eastern Daylight Time),658813.8000001907,A,keyenter,I,enter,424,3,2399.5,656414.3000001907,9009,WL,A,3.0
5,8.850000143051147,learn,60000.0,Wed Aug 20 2025 11:19:43 GMT-0400 (Eastern Daylight Time),659564.4000000954,A,g,I,g,730,3,750.2000002861023,658814.1999998093,9009,WL,A,4.0
5,9.150000095367432,learn,60000.0,Wed Aug 20 2025 11:19:43 GMT-0400 (Eastern Daylight Time),659864.0,A,go,I,o,279,3,1049.8000001907349,658814.1999998093,9009,WL,A,4.0
5,9.400000095367432,learn,60000.0,Wed Aug 20 2025 11:19:43 GMT-0400 (Eastern Daylight Time),660114.5,A,gol,I,l,237,3,1300.3000001907349,658814.1999998093,9009,WL,A,4.0
5,9.733000040054321,learn,60000.0,Wed Aug 20 2025 11:19:43 GMT-0400 (Eastern Daylight Time),660447.4000000954,A,gold,I,d,322,3,1633.2000002861023,658814.1999998093,9009,WL,A,4.0
5,10.183000087738037,learn,60000.0,Wed Aug 20 2025 11:19:43 GMT-0400 (Eastern Daylight Time),660897.1999998093,A,goldenter,I,enter,434,3,2083.0,658814.1999998093,9009,WL,A,4.0
5,10.700000047683716,learn,60000.0,Wed Aug 20 2025 11:19:43 GMT-0400 (Eastern Daylight Time),661414.4000000954,A,s,I,s,502,3,516.9000000953674,660897.5,9009,WL,A,5.0
5,10.967000007629395,learn,60000.0,Wed Aug 20 2025 11:19:43 GMT-0400 (Eastern Daylight Time),661681.0999999046,A,sa,I,a,251,3,783.5999999046326,660897.5,9009,WL,A,5.0
5,11.700000047683716,learn,60000.0,Wed Aug 20 2025 11:19:43 GMT-0400 (Eastern Daylight Time),662414.5,A,sal,I,l,708,3,1517.0,660897.5,9009,WL,A,5.0
5,12.350000143051147,learn,60000.0,Wed Aug 20 2025 11:19:43 GMT-0400 (Eastern Daylight Time),663064.5,A,salt,I,t,631,3,2167.0,660897.5,9009,WL,A,5.0
5,12.749000072479248,learn,60000.0,Wed Aug 20 2025 11:19:43 GMT-0400 (Eastern Daylight Time),663464.0,A,saltenter,I,enter,377,3,2566.5,660897.5,9009,WL,A,5.0
5,13.166000127792358,learn,60000.0,Wed Aug 20 2025 11:19:43 GMT-0400 (Eastern Daylight Time),663880.5999999046,A,c,I,c,400,3,416.2999997138977,663464.3000001907,9009,WL,A,6.0
5,13.517000198364258,learn,60000.0,Wed Aug 20 2025 11:19:43 GMT-0400 (Eastern Daylight Time),664231.1999998093,A,ch,I,h,336,3,766.8999996185303,663464.3000001907,9009,WL,A,6.0
5,13.867000102996826,learn,60000.0,Wed Aug 20 2025 11:19:43 GMT-0400 (Eastern Daylight Time),664581.1999998093,A,chi,I,i,331,3,1116.8999996185303,663464.3000001907,9009,WL,A,6.0
5,14.199000120162964,learn,60000.0,Wed Aug 20 2025 11:19:43 GMT-0400 (Eastern Daylight Time),664914.0,A,chim,I,m,320,3,1449.6999998092651,663464.3000001907,9009,WL,A,6.0
5,14.583000183105469,learn,60000.0,Wed Aug 20 2025 11:19:43 GMT-0400 (Eastern Daylight Time),665297.8000001907,A,chimn,I,n,374,3,1833.5,663464.3000001907,9009,WL,A,6.0
5,14.91700005531311,learn,60000.0,Wed Aug 20 2025 11:19:43 GMT-0400 (Eastern Daylight Time),665631.0999999046,A,chimne,I,e,308,3,2166.7999997138977,663464.3000001907,9009,WL,A,6.0
5,15.5,learn,60000.0,Wed Aug 20 2025 11:19:43 GMT-0400 (Eastern Daylight Time),666214.4000000954,A,chimney,I,y,565,3,2750.0999999046326,663464.3000001907,9009,WL,A,6.0
5,15.933000087738037,learn,60000.0,Wed Aug 20 2025 11:19:43 GMT-0400 (Eastern Daylight Time),666647.3000001907,A,chimneyenter,I,enter,414,3,3183.0,663464.3000001907,9009,WL,A,6.0
5,16.48300004005432,learn,60000.0,Wed Aug 20 2025 11:19:43 GMT-0400 (Eastern Daylight Time),667197.8000001907,A,h,I,h,528,3,550.2000002861023,666647.5999999046,9009,WL,A,7.0
5,16.66700005531311,learn,60000.0,Wed Aug 20 2025 11:19:43 GMT-0400 (Eastern Daylight Time),667381.1999998093,A,ha,I,a,167,3,733.5999999046326,666647.5999999046,9009,WL,A,7.0
5,17.067000150680542,learn,60000.0,Wed Aug 20 2025 11:19:43 GMT-0400 (Eastern Daylight Time),667781.0999999046,A,har,I,r,385,3,1133.5,666647.5999999046,9009,WL,A,7.0
5,17.40000009536743,learn,60000.0,Wed Aug 20 2025 11:19:43 GMT-0400 (Eastern Daylight Time),668114.4000000954,A,harp,I,p,319,3,1466.8000001907349,666647.5999999046,9009,WL,A,7.0
5,17.717000007629395,learn,60000.0,Wed Aug 20 2025 11:19:43 GMT-0400 (Eastern Daylight Time),668431.6999998093,A,harpenter,I,enter,306,3,1784.0999999046326,666647.5999999046,9009,WL,A,7.0
5,18.467000007629395,learn,60000.0,Wed Aug 20 2025 11:19:43 GMT-0400 (Eastern Daylight Time),669181.1999998093,A,r,I,r,728,3,749.2999997138977,668431.9000000954,9009,WL,A,8.0
5,18.800000190734863,learn,60000.0,Wed Aug 20 2025 11:19:43 GMT-0400 (Eastern Daylight Time),669514.5,A,ru,I,u,313,3,1082.5999999046326,668431.9000000954,9009,WL,A,8.0
5,19.317000150680542,learn,60000.0,Wed Aug 20 2025 11:19:43 GMT-0400 (Eastern Daylight Time),670031.0999999046,A,rug,I,g,490,3,1599.1999998092651,668431.9000000954,9009,WL,A,8.0
5,19.83300018310547,learn,60000.0,Wed Aug 20 2025 11:19:43 GMT-0400 (Eastern Daylight Time),670547.1999998093,A,rugenter,I,enter,501,3,2115.2999997138977,668431.9000000954,9009,WL,A,8.0
5,22.017000198364258,learn,60000.0,Wed Aug 20 2025 11:19:43 GMT-0400 (Eastern Daylight Time),672731.1999998093,A,b,I,b,2165,3,2183.5999999046326,670547.5999999046,9009,WL,A,9.0
5,22.366000175476074,learn,60000.0,Wed Aug 20 2025 11:19:43 GMT-0400 (Eastern Daylight Time),673080.8000001907,A,bo,I,o,330,3,2533.2000002861023,670547.5999999046,9009,WL,A,9.0
5,22.567000150680542,learn,60000.0,Wed Aug 20 2025 11:19:43 GMT-0400 (Eastern Daylight Time),673281.0999999046,A,boo,I,o,189,3,2733.5,670547.5999999046,9009,WL,A,9.0
5,22.83300018310547,learn,60000.0,Wed Aug 20 2025 11:19:43 GMT-0400 (Eastern Daylight Time),673547.8000001907,A,book,I,k,244,3,3000.2000002861023,670547.5999999046,9009,WL,A,9.0
5,23.299000024795532,learn,60000.0,Wed Aug 20 2025 11:19:43 GMT-0400 (Eastern Daylight Time),674014.0,A,bookenter,I,enter,439,3,3466.4000000953674,670547.5999999046,9009,WL,A,9.0
5,23.700000047683716,learn,60000.0,Wed Aug 20 2025 11:19:43 GMT-0400 (Eastern Daylight Time),674414.5999999046,A,f,I,f,378,3,400.2999997138977,674014.3000001907,9009,WL,A,10.0
5,23.883000135421753,learn,60000.0,Wed Aug 20 2025 11:19:43 GMT-0400 (Eastern Daylight Time),674597.8000001907,A,fl,I,l,168,3,583.5,674014.3000001907,9009,WL,A,10.0
5,24.133000135421753,learn,60000.0,Wed Aug 20 2025 11:19:43 GMT-0400 (Eastern Daylight Time),674847.5,A,flo,I,o,232,3,833.1999998092651,674014.3000001907,9009,WL,A,10.0
5,24.33300018310547,learn,60000.0,Wed Aug 20 2025 11:19:43 GMT-0400 (Eastern Daylight Time),675047.8000001907,A,flow,I,w,180,3,1033.5,674014.3000001907,9009,WL,A,10.0
5,24.48300004005432,learn,60000.0,Wed Aug 20 2025 11:19:43 GMT-0400 (Eastern Daylight Time),675197.8000001907,A,flowe,I,e,124,3,1183.5,674014.3000001907,9009,WL,A,10.0
5,24.66700005531311,learn,60000.0,Wed Aug 20 2025 11:19:43 GMT-0400 (Eastern Daylight Time),675381.1999998093,A,flower,I,r,159,3,1366.8999996185303,674014.3000001907,9009,WL,A,10.0
5,25.466000080108643,learn,60000.0,Wed Aug 20 2025 11:19:43 GMT-0400 (Eastern Daylight Time),676180.5999999046,A,flowerenter,I,enter,784,3,2166.2999997138977,674014.3000001907,9009,WL,A,10.0
5,26.100000143051147,learn,60000.0,Wed Aug 20 2025 11:19:43 GMT-0400 (Eastern Daylight Time),676814.3000001907,A,t,I,t,611,3,633.4000000953674,676180.9000000954,9009,WL,A,11.0
5,26.40000009536743,learn,60000.0,Wed Aug 20 2025 11:19:43 GMT-0400 (Eastern Daylight Time),677114.4000000954,A,tr,I,r,279,3,933.5,676180.9000000954,9009,WL,A,11.0
5,26.517000198364258,learn,60000.0,Wed Aug 20 2025 11:19:43 GMT-0400 (Eastern Daylight Time),677231.1999998093,A,tra,I,a,91,3,1050.2999997138977,676180.9000000954,9009,WL,A,11.0
5,26.783000230789185,learn,60000.0,Wed Aug 20 2025 11:19:43 GMT-0400 (Eastern Daylight Time),677497.8000001907,A,trai,I,i,246,3,1316.9000000953674,676180.9000000954,9009,WL,A,11.0
5,27.25,learn,60000.0,Wed Aug 20 2025 11:19:43 GMT-0400 (Eastern Daylight Time),677964.5,A,train,I,n,443,3,1783.5999999046326,676180.9000000954,9009,WL,A,11.0
5,27.73300004005432,learn,60000.0,Wed Aug 20 2025 11:19:43 GMT-0400 (Eastern Daylight Time),678447.1999998093,A,trainenter,I,enter,472,3,2266.2999997138977,676180.9000000954,9009,WL,A,11.0
5,28.683000087738037,learn,60000.0,Wed Aug 20 2025 11:19:43 GMT-0400 (Eastern Daylight Time),679397.8000001907,A,m,I,m,938,3,950.3000001907349,678447.5,9009,WL,A,12.0
5,28.966000080108643,learn,60000.0,Wed Aug 20 2025 11:19:43 GMT-0400 (Eastern Daylight Time),679681.0999999046,A,me,I,e,269,3,1233.5999999046326,678447.5,9009,WL,A,12.0
5,29.100000143051147,learn,60000.0,Wed Aug 20 2025 11:19:43 GMT-0400 (Eastern Daylight Time),679814.5,A,mea,I,a,117,3,1367.0,678447.5,9009,WL,A,12.0
5,29.349000215530396,learn,60000.0,Wed Aug 20 2025 11:19:43 GMT-0400 (Eastern Daylight Time),680063.8000001907,A,mead,I,d,236,3,1616.3000001907349,678447.5,9009,WL,A,12.0
5,29.550000190734863,learn,60000.0,Wed Aug 20 2025 11:19:43 GMT-0400 (Eastern Daylight Time),680264.5,A,meado,I,o,185,3,1817.0,678447.5,9009,WL,A,12.0
5,29.817000150680542,learn,60000.0,Wed Aug 20 2025 11:19:43 GMT-0400 (Eastern Daylight Time),680531.0999999046,A,meadow,I,w,253,3,2083.5999999046326,678447.5,9009,WL,A,12.0
5,30.849000215530396,learn,60000.0,Wed Aug 20 2025 11:19:43 GMT-0400 (Eastern Daylight Time),681563.9000000954,A,meadowenter,I,enter,1007,3,3116.4000000953674,678447.5,9009,WL,A,12.0
5,31.850000143051147,learn,60000.0,Wed Aug 20 2025 11:19:43 GMT-0400 (Eastern Daylight Time),682564.5,A,f,I,f,989,3,1000.3000001907349,681564.1999998093,9009,WL,A,13.0
5,32.06700015068054,learn,60000.0,Wed Aug 20 2025 11:19:43 GMT-0400 (Eastern Daylight Time),682781.3000001907,A,fi,I,i,192,3,1217.1000003814697,681564.1999998093,9009,WL,A,13.0
5,32.56600022315979,learn,60000.0,Wed Aug 20 2025 11:19:43 GMT-0400 (Eastern Daylight Time),683281.0999999046,A,fin,I,n,479,3,1716.9000000953674,681564.1999998093,9009,WL,A,13.0
5,32.88300013542175,learn,60000.0,Wed Aug 20 2025 11:19:43 GMT-0400 (Eastern Daylight Time),683597.8000001907,A,fing,I,g,291,3,2033.6000003814697,681564.1999998093,9009,WL,A,13.0
5,33.700000047683716,learn,60000.0,Wed Aug 20 2025 11:19:43 GMT-0400 (Eastern Daylight Time),684414.4000000954,A,finge,I,e,791,3,2850.2000002861023,681564.1999998093,9009,WL,A,13.0
5,34.58300018310547,learn,60000.0,Wed Aug 20 2025 11:19:43 GMT-0400 (Eastern Daylight Time),685297.6999998093,A,finger,I,r,871,3,3733.5,681564.1999998093,9009,WL,A,13.0
5,35.89900016784668,learn,60000.0,Wed Aug 20 2025 11:19:43 GMT-0400 (Eastern Daylight Time),686614.0,A,fingerenter,I,enter,1291,3,5049.800000190735,681564.1999998093,9009,WL,A,13.0
5,36.31700015068054,learn,60000.0,Wed Aug 20 2025 11:19:43 GMT-0400 (Eastern Daylight Time),687031.1999998093,A,r,I,r,403,3,416.8999996185303,686614.3000001907,9009,WL,A,14.0
5,36.51700019836426,learn,60000.0,Wed Aug 20 2025 11:19:43 GMT-0400 (Eastern Daylight Time),687231.1999998093,A,ra,I,a,173,3,616.8999996185303,686614.3000001907,9009,WL,A,14.0
5,36.700000047683716,learn,60000.0,Wed Aug 20 2025 11:19:43 GMT-0400 (Eastern Daylight Time),687414.5,A,rat,I,t,157,3,800.1999998092651,686614.3000001907,9009,WL,A,14.0
5,36.88300013542175,learn,60000.0,Wed Aug 20 2025 11:19:43 GMT-0400 (Eastern Daylight Time),687597.9000000954,A,ratt,I,t,150,3,983.5999999046326,686614.3000001907,9009,WL,A,14.0
5,37.06700015068054,learn,60000.0,Wed Aug 20 2025 11:19:43 GMT-0400 (Eastern Daylight Time),687781.1999998093,A,rattl,I,l,168,3,1166.8999996185303,686614.3000001907,9009,WL,A,14.0
5,37.449000120162964,learn,60000.0,Wed Aug 20 2025 11:19:43 GMT-0400 (Eastern Daylight Time),688164.0,A,rattle,I,e,366,3,1549.6999998092651,686614.3000001907,9009,WL,A,14.0
5,37.88300013542175,learn,60000.0,Wed Aug 20 2025 11:19:43 GMT-0400 (Eastern Daylight Time),688597.1999998093,A,rattleenter,I,enter,419,3,1982.8999996185303,686614.3000001907,9009,WL,A,14.0
5,49.18300008773804,learn,60000.0,Wed Aug 20 2025 11:19:43 GMT-0400 (Eastern Daylight Time),699897.6999998093,A,r,I,r,11283,3,11300.199999809265,688597.5,9009,WL,A,15.0
5,49.5,learn,60000.0,Wed Aug 20 2025 11:19:43 GMT-0400 (Eastern Daylight Time),700214.5,A,ru,I,u,296,3,11617.0,688597.5,9009,WL,A,15.0
5,49.76700019836426,learn,60000.0,Wed Aug 20 2025 11:19:43 GMT-0400 (Eastern Daylight Time),700481.0999999046,A,rug,I,g,254,3,11883.599999904633,688597.5,9009,WL,A,15.0
5,50.14900016784668,learn,60000.0,Wed Aug 20 2025 11:19:43 GMT-0400 (Eastern Daylight Time),700863.9000000954,A,rugenter,I,enter,372,3,12266.400000095367,688597.5,9009,WL,A,15.0
6,2.816999912261963,distr,57183.00008773804,Wed Aug 20 2025 11:19:43 GMT-0400 (Eastern Daylight Time),777364.5999999046,B,b,I,b,2802,3,2816.2999997138977,774548.3000001907,9009,WL,A,1.0
6,3.2839999198913574,distr,56716.00008010864,Wed Aug 20 2025 11:19:43 GMT-0400 (Eastern Daylight Time),777831.3000001907,B,bo,I,o,449,3,3283.0,774548.3000001907,9009,WL,A,1.0
6,3.5999999046325684,distr,56400.00009536743,Wed Aug 20 2025 11:19:43 GMT-0400 (Eastern Daylight Time),778147.5999999046,B,bow,I,w,303,3,3599.2999997138977,774548.3000001907,9009,WL,A,1.0
6,3.9169998168945312,distr,56083.00018310547,Wed Aug 20 2025 11:19:43 GMT-0400 (Eastern Daylight Time),778464.3000001907,B,bowl,I,l,306,3,3916.0,774548.3000001907,9009,WL,A,1.0
6,4.2829999923706055,distr,55717.000007629395,Wed Aug 20 2025 11:19:43 GMT-0400 (Eastern Daylight Time),778830.5999999046,B,bowlenter,I,enter,341,3,4282.299999713898,774548.3000001907,9009,WL,A,1.0
6,5.083999872207642,distr,54916.00012779236,Wed Aug 20 2025 11:19:43 GMT-0400 (Eastern Daylight Time),779631.3000001907,B,d,I,d,794,3,800.3000001907349,778831.0,9009,WL,A,2.0
6,5.316999912261963,distr,54683.00008773804,Wed Aug 20 2025 11:19:43 GMT-0400 (Eastern Daylight Time),779864.5,B,da,I,a,214,3,1033.5,778831.0,9009,WL,A,2.0
6,5.599999904632568,distr,54400.00009536743,Wed Aug 20 2025 11:19:43 GMT-0400 (Eastern Daylight Time),780147.9000000954,B,daw,I,w,267,3,1316.9000000953674,778831.0,9009,WL,A,2.0
6,6.049999952316284,distr,53950.000047683716,Wed Aug 20 2025 11:19:43 GMT-0400 (Eastern Daylight Time),780597.6999998093,B,dawn,I,n,432,3,1766.6999998092651,778831.0,9009,WL,A,2.0
6,6.566999912261963,distr,53433.00008773804,Wed Aug 20 2025 11:19:43 GMT-0400 (Eastern Daylight Time),781114.0999999046,B,dawnenter,I,enter,495,3,2283.0999999046326,778831.0,9009,WL,A,2.0
6,7.3999998569488525,distr,52600.00014305115,Wed Aug 20 2025 11:19:43 GMT-0400 (Eastern Daylight Time),781947.9000000954,B,j,I,j,815,3,833.5,781114.4000000954,9009,WL,A,3.0
6,7.766999959945679,distr,52233.00004005432,Wed Aug 20 2025 11:19:43 GMT-0400 (Eastern Daylight Time),782314.5999999046,B,ju,I,u,346,3,1200.1999998092651,781114.4000000954,9009,WL,A,3.0
6,8.266999959945679,distr,51733.00004005432,Wed Aug 20 2025 11:19:43 GMT-0400 (Eastern Daylight Time),782814.4000000954,B,jud,I,d,473,3,1700.0,781114.4000000954,9009,WL,A,3.0
6,8.766999959945679,distr,51233.00004005432,Wed Aug 20 2025 11:19:43 GMT-0400 (Eastern Daylight Time),783314.5,B,judg,I,g,488,3,2200.0999999046326,781114.4000000954,9009,WL,A,3.0
6,9.166999816894531,distr,50833.00018310547,Wed Aug 20 2025 11:19:43 GMT-0400 (Eastern Daylight Time),783714.4000000954,B,judge,I,e,384,3,2600.0,781114.4000000954,9009,WL,A,3.0
6,9.565999984741211,distr,50434.00001525879,Wed Aug 20 2025 11:19:43 GMT-0400 (Eastern Daylight Time),784113.9000000954,B,judgeenter,I,enter,386,3,2999.5,781114.4000000954,9009,WL,A,3.0
6,10.299999952316284,distr,49700.000047683716,Wed Aug 20 2025 11:19:43 GMT-0400 (Eastern Daylight Time),784847.6999998093,B,p,I,p,727,3,733.2999997138977,784114.4000000954,9009,WL,A,4.0
6,11.016999959945679,distr,48983.00004005432,Wed Aug 20 2025 11:19:43 GMT-0400 (Eastern Daylight Time),785564.5999999046,B,pl,I,l,695,3,1450.1999998092651,784114.4000000954,9009,WL,A,4.0
6,11.233999967575073,distr,48766.00003242493,Wed Aug 20 2025 11:19:43 GMT-0400 (Eastern Daylight Time),785781.3000001907,B,pla,I,a,201,3,1666.9000000953674,784114.4000000954,9009,WL,A,4.0
6,11.549999952316284,distr,48450.000047683716,Wed Aug 20 2025 11:19:43 GMT-0400 (Eastern Daylight Time),786097.8000001907,B,plan,I,n,297,3,1983.4000000953674,784114.4000000954,9009,WL,A,4.0
6,11.916999816894531,distr,48083.00018310547,Wed Aug 20 2025 11:19:43 GMT-0400 (Eastern Daylight Time),786464.4000000954,B,plane,I,e,357,3,2350.0,784114.4000000954,9009,WL,A,4.0
6,12.315999984741211,distr,47684.00001525879,Wed Aug 20 2025 11:19:43 GMT-0400 (Eastern Daylight Time),786863.9000000954,B,planeenter,I,enter,387,3,2749.5,784114.4000000954,9009,WL,A,4.0
6,13.217000007629395,distr,46782.999992370605,Wed Aug 20 2025 11:19:43 GMT-0400 (Eastern Daylight Time),787764.5,B,i,I,i,889,3,900.1999998092651,786864.3000001907,9009,WL,A,5.0
6,13.666999816894531,distr,46333.00018310547,Wed Aug 20 2025 11:19:43 GMT-0400 (Eastern Daylight Time),788214.5,B,in,I,n,433,3,1350.1999998092651,786864.3000001907,9009,WL,A,5.0
6,13.983999967575073,distr,46016.00003242493,Wed Aug 20 2025 11:19:43 GMT-0400 (Eastern Daylight Time),788531.1999998093,B,ins,I,s,295,3,1666.8999996185303,786864.3000001907,9009,WL,A,5.0
6,14.366999864578247,distr,45633.00013542175,Wed Aug 20 2025 11:19:43 GMT-0400 (Eastern Daylight Time),788914.5999999046,B,inse,I,e,370,3,2050.2999997138977,786864.3000001907,9009,WL,A,5.0
6,14.666999816894531,distr,45333.00018310547,Wed Aug 20 2025 11:19:43 GMT-0400 (Eastern Daylight Time),789214.5,B,insec,I,c,274,3,2350.199999809265,786864.3000001907,9009,WL,A,5.0
6,15.366999864578247,distr,44633.00013542175,Wed Aug 20 2025 11:19:43 GMT-0400 (Eastern Daylight Time),789914.5,B,insect,I,t,677,3,3050.199999809265,786864.3000001907,9009,WL,A,5.0
6,16.950000047683716,distr,43049.999952316284,Wed Aug 20 2025 11:19:43 GMT-0400 (Eastern Daylight Time),791497.4000000954,B,insectenter,I,enter,1560,3,4633.099999904633,786864.3000001907,9009,WL,A,5.0
6,18.34999990463257,distr,41650.00009536743,Wed Aug 20 2025 11:19:43 GMT-0400 (Eastern Daylight Time),792897.8000001907,B,s,I,s,1391,3,1400.1000003814697,791497.6999998093,9009,WL,A,6.0
6,18.58399987220764,distr,41416.00012779236,Wed Aug 20 2025 11:19:43 GMT-0400 (Eastern Daylight Time),793131.1999998093,B,sh,I,h,208,3,1633.5,791497.6999998093,9009,WL,A,6.0
6,18.816999912261963,distr,41183.00008773804,Wed Aug 20 2025 11:19:43 GMT-0400 (Eastern Daylight Time),793364.5,B,she,I,e,216,3,1866.8000001907349,791497.6999998093,9009,WL,A,6.0
6,19.08399987220764,distr,40916.00012779236,Wed Aug 20 2025 11:19:43 GMT-0400 (Eastern Daylight Time),793631.1999998093,B,shee,I,e,237,3,2133.5,791497.6999998093,9009,WL,A,6.0
6,19.483999967575073,distr,40516.00003242493,Wed Aug 20 2025 11:19:43 GMT-0400 (Eastern Daylight Time),794031.3000001907,B,sheep,I,p,390,3,2533.6000003814697,791497.6999998093,9009,WL,A,6.0
6,19.883999824523926,distr,40116.000175476074,Wed Aug 20 2025 11:19:43 GMT-0400 (Eastern Daylight Time),794431.6999998093,B,sheepenter,I,enter,390,3,2934.0,791497.6999998093,9009,WL,A,6.0
6,20.366999864578247,distr,39633.00013542175,Wed Aug 20 2025 11:19:43 GMT-0400 (Eastern Daylight Time),794914.5999999046,B,j,I,j,473,3,482.59999990463257,794432.0,9009,WL,A,7.0
6,20.549999952316284,distr,39450.000047683716,Wed Aug 20 2025 11:19:43 GMT-0400 (Eastern Daylight Time),795097.9000000954,B,ja,I,a,162,3,665.9000000953674,794432.0,9009,WL,A,7.0
6,20.83299994468689,distr,39167.00005531311,Wed Aug 20 2025 11:19:43 GMT-0400 (Eastern Daylight Time),795380.8000001907,B,jac,I,c,267,3,948.8000001907349,794432.0,9009,WL,A,7.0
6,21.16699981689453,distr,38833.00018310547,Wed Aug 20 2025 11:19:43 GMT-0400 (Eastern Daylight Time),795714.5,B,jack,I,k,322,3,1282.5,794432.0,9009,WL,A,7.0
6,21.483999967575073,distr,38516.00003242493,Wed Aug 20 2025 11:19:43 GMT-0400 (Eastern Daylight Time),796031.3000001907,B,jacke,I,e,291,3,1599.3000001907349,794432.0,9009,WL,A,7.0
6,22.33399987220764,distr,37666.00012779236,Wed Aug 20 2025 11:19:43 GMT-0400 (Eastern Daylight Time),796881.0999999046,B,jacket,I,t,838,3,2449.0999999046326,794432.0,9009,WL,A,7.0
6,24.200000047683716,distr,35799.999952316284,Wed Aug 20 2025 11:19:43 GMT-0400 (Eastern Daylight Time),798747.3000001907,B,jacketenter,I,enter,1844,3,4315.300000190735,794432.0,9009,WL,A,7.0
6,24.75,distr,35250.0,Wed Aug 20 2025 11:19:43 GMT-0400 (Eastern Daylight Time),799297.9000000954,B,c,I,c,541,3,550.3000001907349,798747.5999999046,9009,WL,A,8.0
6,24.967000007629395,distr,35032.999992370605,Wed Aug 20 2025 11:19:43 GMT-0400 (Eastern Daylight Time),799514.5,B,co,I,o,196,3,766.9000000953674,798747.5999999046,9009,WL,A,8.0
6,25.149999856948853,distr,34850.00014305115,Wed Aug 20 2025 11:19:43 GMT-0400 (Eastern Daylight Time),799697.9000000954,B,cou,I,u,170,3,950.3000001907349,798747.5999999046,9009,WL,A,8.0
6,25.68400001525879,distr,34315.99998474121,Wed Aug 20 2025 11:19:43 GMT-0400 (Eastern Daylight Time),800231.3000001907,B,coun,I,n,513,3,1483.7000002861023,798747.5999999046,9009,WL,A,8.0
6,26.08399987220764,distr,33916.00012779236,Wed Aug 20 2025 11:19:43 GMT-0400 (Eastern Daylight Time),800631.1999998093,B,count,I,t,383,3,1883.5999999046326,798747.5999999046,9009,WL,A,8.0
6,26.816999912261963,distr,33183.00008773804,Wed Aug 20 2025 11:19:43 GMT-0400 (Eastern Daylight Time),801364.5,B,county,I,y,719,3,2616.9000000953674,798747.5999999046,9009,WL,A,8.0
6,27.549999952316284,distr,32450.000047683716,Wed Aug 20 2025 11:19:43 GMT-0400 (Eastern Daylight Time),802097.4000000954,B,countyenter,I,enter,717,3,3349.800000190735,798747.5999999046,9009,WL,A,8.0
6,40.36699986457825,distr,19633.000135421753,Wed Aug 20 2025 11:19:43 GMT-0400 (Eastern Daylight Time),814914.5999999046,B,c,I,c,12807,3,12817.0,802097.5999999046,9009,WL,A,9.0
6,40.66699981689453,distr,19333.00018310547,Wed Aug 20 2025 11:19:43 GMT-0400 (Eastern Daylight Time),815214.6999998093,B,ch,I,h,274,3,13117.099999904633,802097.5999999046,9009,WL,A,9.0
6,41.06699991226196,distr,18933.000087738037,Wed Aug 20 2025 11:19:43 GMT-0400 (Eastern Daylight Time),815614.5999999046,B,cha,I,a,374,3,13517.0,802097.5999999046,9009,WL,A,9.0
6,41.633999824523926,distr,18366.000175476074,Wed Aug 20 2025 11:19:43 GMT-0400 (Eastern Daylight Time),816181.1999998093,B,chai,I,i,549,3,14083.599999904633,802097.5999999046,9009,WL,A,9.0
6,42.032999992370605,distr,17967.000007629395,Wed Aug 20 2025 11:19:43 GMT-0400 (Eastern Daylight Time),816580.9000000954,B,chair,I,r,384,3,14483.300000190735,802097.5999999046,9009,WL,A,9.0
6,42.39999985694885,distr,17600.000143051147,Wed Aug 20 2025 11:19:43 GMT-0400 (Eastern Daylight Time),816947.4000000954,B,chairenter,I,enter,351,3,14849.800000190735,802097.5999999046,9009,WL,A,9.0
6,60.01699995994568,distr,-16.99995994567871,Wed Aug 20 2025 11:19:43 GMT-0400 (Eastern Daylight Time),834564.9000000954,B,None,I,None,17610,3,17617.300000190735,816947.5999999046,9009,WL,A,10.0
7,1.0999999046325684,immed,58900.00009536743,Wed Aug 20 2025 11:19:43 GMT-0400 (Eastern Daylight Time),852147.8000001907,A,b,I,b,1079,3,1099.5,851048.3000001907,9009,WL,A,1.0
7,1.566999912261963,immed,58433.00008773804,Wed Aug 20 2025 11:19:43 GMT-0400 (Eastern Daylight Time),852614.5999999046,A,bo,I,o,442,3,1566.2999997138977,851048.3000001907,9009,WL,A,1.0
7,2.0999999046325684,immed,57900.00009536743,Wed Aug 20 2025 11:19:43 GMT-0400 (Eastern Daylight Time),853148.0,A,boo,I,o,511,3,2099.699999809265,851048.3000001907,9009,WL,A,1.0
7,2.4169998168945312,immed,57583.00018310547,Wed Aug 20 2025 11:19:43 GMT-0400 (Eastern Daylight Time),853464.5999999046,A,book,I,k,298,3,2416.2999997138977,851048.3000001907,9009,WL,A,1.0
7,2.7330000400543213,immed,57266.99995994568,Wed Aug 20 2025 11:19:43 GMT-0400 (Eastern Daylight Time),853780.6999998093,A,bookenter,I,enter,300,3,2732.3999996185303,851048.3000001907,9009,WL,A,1.0
7,3.3499999046325684,immed,56650.00009536743,Wed Aug 20 2025 11:19:43 GMT-0400 (Eastern Daylight Time),854397.9000000954,A,f,I,f,595,3,616.9000000953674,853781.0,9009,WL,A,2.0
7,3.8999998569488525,immed,56100.00014305115,Wed Aug 20 2025 11:19:43 GMT-0400 (Eastern Daylight Time),854947.8000001907,A,fl,I,l,536,3,1166.8000001907349,853781.0,9009,WL,A,2.0
7,4.200000047683716,immed,55799.999952316284,Wed Aug 20 2025 11:19:43 GMT-0400 (Eastern Daylight Time),855247.5,A,flo,I,o,290,3,1466.5,853781.0,9009,WL,A,2.0
7,4.4670000076293945,immed,55532.999992370605,Wed Aug 20 2025 11:19:43 GMT-0400 (Eastern Daylight Time),855514.5999999046,A,flow,I,w,247,3,1733.5999999046326,853781.0,9009,WL,A,2.0
7,4.7170000076293945,immed,55282.999992370605,Wed Aug 20 2025 11:19:43 GMT-0400 (Eastern Daylight Time),855764.5999999046,A,flowe,I,e,234,3,1983.5999999046326,853781.0,9009,WL,A,2.0
7,5.016999959945679,immed,54983.00004005432,Wed Aug 20 2025 11:19:43 GMT-0400 (Eastern Daylight Time),856064.4000000954,A,flower,I,r,289,3,2283.4000000953674,853781.0,9009,WL,A,2.0
7,5.450000047683716,immed,54549.999952316284,Wed Aug 20 2025 11:19:43 GMT-0400 (Eastern Daylight Time),856497.5,A,flowerenter,I,enter,412,3,2716.5,853781.0,9009,WL,A,2.0
7,6.483999967575073,immed,53516.00003242493,Wed Aug 20 2025 11:19:43 GMT-0400 (Eastern Daylight Time),857531.3000001907,A,t,I,t,1015,3,1033.6000003814697,856497.6999998093,9009,WL,A,3.0
7,6.833999872207642,immed,53166.00012779236,Wed Aug 20 2025 11:19:43 GMT-0400 (Eastern Daylight Time),857881.3000001907,A,tr,I,r,330,3,1383.6000003814697,856497.6999998093,9009,WL,A,3.0
7,7.166999816894531,immed,52833.00018310547,Wed Aug 20 2025 11:19:43 GMT-0400 (Eastern Daylight Time),858214.6999998093,A,tra,I,a,317,3,1717.0,856497.6999998093,9009,WL,A,3.0
7,7.483999967575073,immed,52516.00003242493,Wed Aug 20 2025 11:19:43 GMT-0400 (Eastern Daylight Time),858531.4000000954,A,trai,I,i,303,3,2033.7000002861023,856497.6999998093,9009,WL,A,3.0
7,7.816999912261963,immed,52183.00008773804,Wed Aug 20 2025 11:19:43 GMT-0400 (Eastern Daylight Time),858864.3000001907,A,train,I,n,320,3,2366.6000003814697,856497.6999998093,9009,WL,A,3.0
7,8.266999959945679,immed,51733.00004005432,Wed Aug 20 2025 11:19:43 GMT-0400 (Eastern Daylight Time),859314.0999999046,A,trainenter,I,enter,438,3,2816.4000000953674,856497.6999998093,9009,WL,A,3.0
7,9.333999872207642,immed,50666.00012779236,Wed Aug 20 2025 11:19:43 GMT-0400 (Eastern Daylight Time),860381.3000001907,A,m,I,m,1046,3,1066.7000002861023,859314.5999999046,9009,WL,A,4.0
7,9.649999856948853,immed,50350.00014305115,Wed Aug 20 2025 11:19:43 GMT-0400 (Eastern Daylight Time),860698.0,A,me,I,e,295,3,1383.4000000953674,859314.5999999046,9009,WL,A,4.0
7,9.849999904632568,immed,50150.00009536743,Wed Aug 20 2025 11:19:43 GMT-0400 (Eastern Daylight Time),860897.9000000954,A,mea,I,a,189,3,1583.3000001907349,859314.5999999046,9009,WL,A,4.0
7,10.333999872207642,immed,49666.00012779236,Wed Aug 20 2025 11:19:43 GMT-0400 (Eastern Daylight Time),861381.3000001907,A,mead,I,d,460,3,2066.7000002861023,859314.5999999046,9009,WL,A,4.0
7,10.75,immed,49250.0,Wed Aug 20 2025 11:19:43 GMT-0400 (Eastern Daylight Time),861797.8000001907,A,meado,I,o,400,3,2483.2000002861023,859314.5999999046,9009,WL,A,4.0
7,11.883999824523926,immed,48116.000175476074,Wed Aug 20 2025 11:19:43 GMT-0400 (Eastern Daylight Time),862931.4000000954,A,meadow,I,w,1120,3,3616.800000190735,859314.5999999046,9009,WL,A,4.0
7,13.149999856948853,immed,46850.00014305115,Wed Aug 20 2025 11:19:43 GMT-0400 (Eastern Daylight Time),864197.3000001907,A,meadowenter,I,enter,1249,3,4882.700000286102,859314.5999999046,9009,WL,A,4.0
7,13.967000007629395,immed,46032.999992370605,Wed Aug 20 2025 11:19:43 GMT-0400 (Eastern Daylight Time),865014.5999999046,A,r,I,r,803,3,816.7999997138977,864197.8000001907,9009,WL,A,5.0
7,14.283999919891357,immed,45716.00008010864,Wed Aug 20 2025 11:19:43 GMT-0400 (Eastern Daylight Time),865331.3000001907,A,ru,I,u,303,3,1133.5,864197.8000001907,9009,WL,A,5.0
7,14.599999904632568,immed,45400.00009536743,Wed Aug 20 2025 11:19:43 GMT-0400 (Eastern Daylight Time),865647.5,A,rug,I,g,306,3,1449.6999998092651,864197.8000001907,9009,WL,A,5.0
7,15.066999912261963,immed,44933.00008773804,Wed Aug 20 2025 11:19:43 GMT-0400 (Eastern Daylight Time),866114.0999999046,A,rugenter,I,enter,452,3,1916.2999997138977,864197.8000001907,9009,WL,A,5.0
7,15.849999904632568,immed,44150.00009536743,Wed Aug 20 2025 11:19:43 GMT-0400 (Eastern Daylight Time),866898.0,A,l,I,l,775,3,783.5999999046326,866114.4000000954,9009,WL,A,6.0
7,16.217000007629395,immed,43782.999992370605,Wed Aug 20 2025 11:19:43 GMT-0400 (Eastern Daylight Time),867264.4000000954,A,lo,I,o,356,3,1150.0,866114.4000000954,9009,WL,A,6.0
7,16.866999864578247,immed,43133.00013542175,Wed Aug 20 2025 11:19:43 GMT-0400 (Eastern Daylight Time),867914.5999999046,A,log,I,g,630,3,1800.1999998092651,866114.4000000954,9009,WL,A,6.0
7,18.08399987220764,immed,41916.00012779236,Wed Aug 20 2025 11:19:43 GMT-0400 (Eastern Daylight Time),869131.5999999046,A,logenter,I,enter,1193,3,3017.199999809265,866114.4000000954,9009,WL,A,6.0
7,20.299999952316284,immed,39700.000047683716,Wed Aug 20 2025 11:19:43 GMT-0400 (Eastern Daylight Time),871347.9000000954,A,a,I,a,2205,3,2215.9000000953674,869132.0,9009,WL,A,7.0
7,20.58299994468689,immed,39417.00005531311,Wed Aug 20 2025 11:19:43 GMT-0400 (Eastern Daylight Time),871630.5,A,ap,I,p,257,3,2498.5,869132.0,9009,WL,A,7.0
7,20.816999912261963,immed,39183.00008773804,Wed Aug 20 2025 11:19:43 GMT-0400 (Eastern Daylight Time),871864.5999999046,A,app,I,p,218,3,2732.5999999046326,869132.0,9009,WL,A,7.0
7,21.09999990463257,immed,38900.00009536743,Wed Aug 20 2025 11:19:43 GMT-0400 (Eastern Daylight Time),872147.9000000954,A,appl,I,l,270,3,3015.9000000953674,869132.0,9009,WL,A,7.0
7,21.41699981689453,immed,38583.00018310547,Wed Aug 20 2025 11:19:43 GMT-0400 (Eastern Daylight Time),872464.4000000954,A,apple,I,e,305,3,3332.4000000953674,869132.0,9009,WL,A,7.0
7,21.816999912261963,immed,38183.00008773804,Wed Aug 20 2025 11:19:43 GMT-0400 (Eastern Daylight Time),872864.0,A,appleenter,I,enter,387,3,3732.0,869132.0,9009,WL,A,7.0
7,22.549999952316284,immed,37450.000047683716,Wed Aug 20 2025 11:19:43 GMT-0400 (Eastern Daylight Time),873598.0,A,g,I,g,712,3,733.5,872864.5,9009,WL,A,8.0
7,22.799999952316284,immed,37200.000047683716,Wed Aug 20 2025 11:19:43 GMT-0400 (Eastern Daylight Time),873847.9000000954,A,go,I,o,232,3,983.4000000953674,872864.5,9009,WL,A,8.0
7,23.09999990463257,immed,36900.00009536743,Wed Aug 20 2025 11:19:43 GMT-0400 (Eastern Daylight Time),874148.0,A,gol,I,l,286,3,1283.5,872864.5,9009,WL,A,8.0
7,23.450000047683716,immed,36549.999952316284,Wed Aug 20 2025 11:19:43 GMT-0400 (Eastern Daylight Time),874497.9000000954,A,gold,I,d,335,3,1633.4000000953674,872864.5,9009,WL,A,8.0
7,23.83299994468689,immed,36167.00005531311,Wed Aug 20 2025 11:19:43 GMT-0400 (Eastern Daylight Time),874880.6999998093,A,goldenter,I,enter,370,3,2016.1999998092651,872864.5,9009,WL,A,8.0
7,24.68400001525879,immed,35315.99998474121,Wed Aug 20 2025 11:19:43 GMT-0400 (Eastern Daylight Time),875731.1999998093,A,r,I,r,840,3,850.0999999046326,874881.0999999046,9009,WL,A,9.0
7,24.967000007629395,immed,35032.999992370605,Wed Aug 20 2025 11:19:43 GMT-0400 (Eastern Daylight Time),876014.5999999046,A,ra,I,a,258,3,1133.5,874881.0999999046,9009,WL,A,9.0
7,25.316999912261963,immed,34683.00008773804,Wed Aug 20 2025 11:19:43 GMT-0400 (Eastern Daylight Time),876364.5999999046,A,rat,I,t,328,3,1483.5,874881.0999999046,9009,WL,A,9.0
7,25.549999952316284,immed,34450.000047683716,Wed Aug 20 2025 11:19:43 GMT-0400 (Eastern Daylight Time),876598.0,A,ratt,I,t,214,3,1716.9000000953674,874881.0999999046,9009,WL,A,9.0
7,25.93400001525879,immed,34065.99998474121,Wed Aug 20 2025 11:19:43 GMT-0400 (Eastern Daylight Time),876981.3000001907,A,rattl,I,l,359,3,2100.2000002861023,874881.0999999046,9009,WL,A,9.0
7,27.049999952316284,immed,32950.000047683716,Wed Aug 20 2025 11:19:43 GMT-0400 (Eastern Daylight Time),878097.8000001907,A,rattle,I,e,1103,3,3216.7000002861023,874881.0999999046,9009,WL,A,9.0
7,28.23300004005432,immed,31766.99995994568,Wed Aug 20 2025 11:19:43 GMT-0400 (Eastern Daylight Time),879280.6999998093,A,rattleenter,I,enter,1171,3,4399.599999904633,874881.0999999046,9009,WL,A,9.0
7,28.633999824523926,immed,31366.000175476074,Wed Aug 20 2025 11:19:43 GMT-0400 (Eastern Daylight Time),879681.1999998093,A,s,I,s,392,3,400.09999990463257,879281.0999999046,9009,WL,A,10.0
7,28.84999990463257,immed,31150.00009536743,Wed Aug 20 2025 11:19:43 GMT-0400 (Eastern Daylight Time),879898.0,A,sa,I,a,195,3,616.9000000953674,879281.0999999046,9009,WL,A,10.0
7,29.116999864578247,immed,30883.000135421753,Wed Aug 20 2025 11:19:43 GMT-0400 (Eastern Daylight Time),880164.6999998093,A,sal,I,l,252,3,883.5999999046326,879281.0999999046,9009,WL,A,10.0
7,29.566999912261963,immed,30433.000087738037,Wed Aug 20 2025 11:19:43 GMT-0400 (Eastern Daylight Time),880614.6999998093,A,salt,I,t,433,3,1333.5999999046326,879281.0999999046,9009,WL,A,10.0
7,30.09999990463257,immed,29900.00009536743,Wed Aug 20 2025 11:19:43 GMT-0400 (Eastern Daylight Time),881147.4000000954,A,saltenter,I,enter,507,3,1866.3000001907349,879281.0999999046,9009,WL,A,10.0
7,31.233999967575073,immed,28766.000032424927,Wed Aug 20 2025 11:19:43 GMT-0400 (Eastern Daylight Time),882281.3000001907,A,f,I,f,1117,3,1133.6000003814697,881147.6999998093,9009,WL,A,11.0
7,31.41699981689453,immed,28583.00018310547,Wed Aug 20 2025 11:19:43 GMT-0400 (Eastern Daylight Time),882464.5,A,fi,I,i,172,3,1316.8000001907349,881147.6999998093,9009,WL,A,11.0
7,31.717000007629395,immed,28282.999992370605,Wed Aug 20 2025 11:19:43 GMT-0400 (Eastern Daylight Time),882764.5999999046,A,fin,I,n,269,3,1616.9000000953674,881147.6999998093,9009,WL,A,11.0
7,31.899999856948853,immed,28100.000143051147,Wed Aug 20 2025 11:19:43 GMT-0400 (Eastern Daylight Time),882948.0,A,fing,I,g,169,3,1800.3000001907349,881147.6999998093,9009,WL,A,11.0
7,32.25,immed,27750.0,Wed Aug 20 2025 11:19:43 GMT-0400 (Eastern Daylight Time),883297.4000000954,A,finge,I,e,336,3,2149.7000002861023,881147.6999998093,9009,WL,A,11.0
7,33.049999952316284,immed,26950.000047683716,Wed Aug 20 2025 11:19:43 GMT-0400 (Eastern Daylight Time),884097.8000001907,A,finger,I,r,791,3,2950.1000003814697,881147.6999998093,9009,WL,A,11.0
7,33.632999897003174,immed,26367.000102996826,Wed Aug 20 2025 11:19:43 GMT-0400 (Eastern Daylight Time),884680.8000001907,A,fingerenter,I,enter,563,3,3533.1000003814697,881147.6999998093,9009,WL,A,11.0
7,37.84999990463257,immed,22150.00009536743,Wed Aug 20 2025 11:19:43 GMT-0400 (Eastern Daylight Time),888898.0,A,c,I,c,4208,3,4216.900000095367,884681.0999999046,9009,WL,A,12.0
7,38.18400001525879,immed,21815.99998474121,Wed Aug 20 2025 11:19:43 GMT-0400 (Eastern Daylight Time),889231.3000001907,A,ch,I,h,308,3,4550.200000286102,884681.0999999046,9009,WL,A,12.0
