block_c,block_dur,condition,countdown,datetime,endtime,list,multichar_response,project,response,response_time,session_number,start_end,starttime,subject_id,task,task_vers,trial
,,,,Fri Sep 19 2025 16:32:43 GMT-0500 (Central Daylight Time),,,,I,space,366,2,,,8048,WL,B,
prac,,0,,Fri Sep 19 2025 16:32:43 GMT-0500 (Central Daylight Time),,NA,b,I,b,1223,2,,,8048,WL,B,1.0
prac,,0,,Fri Sep 19 2025 16:32:43 GMT-0500 (Central Daylight Time),,NA,bo,I,o,227,2,,,8048,WL,B,1.0
prac,,0,,Fri Sep 19 2025 16:32:43 GMT-0500 (Central Daylight Time),,NA,boo,I,o,169,2,,,8048,WL,B,1.0
prac,,0,,Fri Sep 19 2025 16:32:43 GMT-0500 (Central Daylight Time),,NA,boos,I,s,266,2,,,8048,WL,B,1.0
prac,,0,,Fri Sep 19 2025 16:32:43 GMT-0500 (Central Daylight Time),,NA,boost,I,t,119,2,,,8048,WL,B,1.0
prac,,0,,Fri Sep 19 2025 16:32:43 GMT-0500 (Central Daylight Time),,NA,boostenter,I,enter,257,2,,,8048,WL,B,1.0
1,1.566999912261963,learn,58433.00008773804,Fri Sep 19 2025 16:32:43 GMT-0500 (Central Daylight Time),96068.20000004768,A,s,I,s,1559,2,1566.2000000476837,94502.0,8048,WL,B,1.0
1,1.9500000476837158,learn,58049.999952316284,Fri Sep 19 2025 16:32:43 GMT-0500 (Central Daylight Time),96451.09999990463,A,st,I,t,375,2,1949.0999999046326,94502.0,8048,WL,B,1.0
1,2.315999984741211,learn,57684.00001525879,Fri Sep 19 2025 16:32:43 GMT-0500 (Central Daylight Time),96817.89999985695,A,ste,I,e,345,2,2315.899999856949,94502.0,8048,WL,B,1.0
1,2.5160000324249268,learn,57483.99996757507,Fri Sep 19 2025 16:32:43 GMT-0500 (Central Daylight Time),97017.79999995232,A,stee,I,e,178,2,2515.7999999523163,94502.0,8048,WL,B,1.0
1,2.882999897003174,learn,57117.000102996826,Fri Sep 19 2025 16:32:43 GMT-0500 (Central Daylight Time),97384.59999990463,A,ste,I,backspace,347,2,2882.5999999046326,94502.0,8048,WL,B,1.0
1,3.0160000324249268,learn,56983.99996757507,Fri Sep 19 2025 16:32:43 GMT-0500 (Central Daylight Time),97517.89999985695,A,st,I,backspace,125,2,3015.899999856949,94502.0,8048,WL,B,1.0
1,3.2829999923706055,learn,56717.000007629395,Fri Sep 19 2025 16:32:43 GMT-0500 (Central Daylight Time),97784.20000004768,A,str,I,r,256,2,3282.2000000476837,94502.0,8048,WL,B,1.0
1,3.381999969482422,learn,56618.00003051758,Fri Sep 19 2025 16:32:43 GMT-0500 (Central Daylight Time),97884.0,A,stre,I,e,93,2,3382.0,94502.0,8048,WL,B,1.0
1,3.5999999046325684,learn,56400.00009536743,Fri Sep 19 2025 16:32:43 GMT-0500 (Central Daylight Time),98101.09999990463,A,stree,I,e,201,2,3599.0999999046326,94502.0,8048,WL,B,1.0
1,3.815999984741211,learn,56184.00001525879,Fri Sep 19 2025 16:32:43 GMT-0500 (Central Daylight Time),98317.59999990463,A,street,I,t,201,2,3815.5999999046326,94502.0,8048,WL,B,1.0
1,4.148999929428101,learn,55851.0000705719,Fri Sep 19 2025 16:32:43 GMT-0500 (Central Daylight Time),98650.79999995232,A,streetenter,I,enter,312,2,4148.799999952316,94502.0,8048,WL,B,1.0
1,5.400000095367432,learn,54599.99990463257,Fri Sep 19 2025 16:32:43 GMT-0500 (Central Daylight Time),99901.39999985695,A,w,I,w,1241,2,1250.0999999046326,98651.29999995232,8048,WL,B,2.0
1,5.515000104904175,learn,54484.999895095825,Fri Sep 19 2025 16:32:43 GMT-0500 (Central Daylight Time),100017.0,A,wi,I,i,95,2,1365.7000000476837,98651.29999995232,8048,WL,B,2.0
1,5.664999961853027,learn,54335.00003814697,Fri Sep 19 2025 16:32:43 GMT-0500 (Central Daylight Time),100166.89999985695,A,wif,I,f,141,2,1515.5999999046326,98651.29999995232,8048,WL,B,2.0
1,5.931999921798706,learn,54068.000078201294,Fri Sep 19 2025 16:32:43 GMT-0500 (Central Daylight Time),100433.79999995232,A,wife,I,e,246,2,1782.5,98651.29999995232,8048,WL,B,2.0
1,6.065000057220459,learn,53934.99994277954,Fri Sep 19 2025 16:32:43 GMT-0500 (Central Daylight Time),100566.70000004768,A,wifeenter,I,enter,123,2,1915.4000000953674,98651.29999995232,8048,WL,B,2.0
1,6.515000104904175,learn,53484.999895095825,Fri Sep 19 2025 16:32:43 GMT-0500 (Central Daylight Time),101016.59999990463,A,c,I,c,438,2,449.5,100567.09999990463,8048,WL,B,3.0
1,6.615000009536743,learn,53384.99999046326,Fri Sep 19 2025 16:32:43 GMT-0500 (Central Daylight Time),101116.5,A,ca,I,a,84,2,549.4000000953674,100567.09999990463,8048,WL,B,3.0
1,7.0320000648498535,learn,52967.99993515015,Fri Sep 19 2025 16:32:43 GMT-0500 (Central Daylight Time),101533.89999985695,A,cab,I,b,400,2,966.7999999523163,100567.09999990463,8048,WL,B,3.0
1,7.265000104904175,learn,52734.999895095825,Fri Sep 19 2025 16:32:43 GMT-0500 (Central Daylight Time),101766.29999995232,A,cabi,I,i,224,2,1199.2000000476837,100567.09999990463,8048,WL,B,3.0
1,7.365000009536743,learn,52634.99999046326,Fri Sep 19 2025 16:32:43 GMT-0500 (Central Daylight Time),101866.39999985695,A,cabin,I,n,78,2,1299.2999999523163,100567.09999990463,8048,WL,B,3.0
1,7.581000089645386,learn,52418.999910354614,Fri Sep 19 2025 16:32:43 GMT-0500 (Central Daylight Time),102082.89999985695,A,cabinenter,I,enter,212,2,1515.7999999523163,100567.09999990463,8048,WL,B,3.0
1,7.898000001907349,learn,52101.99999809265,Fri Sep 19 2025 16:32:43 GMT-0500 (Central Daylight Time),102399.70000004768,A,p,I,p,298,2,316.5,102083.20000004768,8048,WL,B,4.0
1,8.015000104904175,learn,51984.999895095825,Fri Sep 19 2025 16:32:43 GMT-0500 (Central Daylight Time),102516.09999990463,A,pi,I,i,111,2,432.89999985694885,102083.20000004768,8048,WL,B,4.0
1,8.164000034332275,learn,51835.999965667725,Fri Sep 19 2025 16:32:43 GMT-0500 (Central Daylight Time),102666.0,A,pip,I,p,137,2,582.7999999523163,102083.20000004768,8048,WL,B,4.0
1,8.515000104904175,learn,51484.999895095825,Fri Sep 19 2025 16:32:43 GMT-0500 (Central Daylight Time),103016.20000004768,A,pipe,I,e,340,2,933.0,102083.20000004768,8048,WL,B,4.0
1,8.71399998664856,learn,51286.00001335144,Fri Sep 19 2025 16:32:43 GMT-0500 (Central Daylight Time),103215.79999995232,A,pipeenter,I,enter,182,2,1132.5999999046326,102083.20000004768,8048,WL,B,4.0
1,8.980999946594238,learn,51019.00005340576,Fri Sep 19 2025 16:32:43 GMT-0500 (Central Daylight Time),103482.29999995232,A,l,I,l,245,2,266.09999990463257,103216.20000004768,8048,WL,B,5.0
1,9.098000049591064,learn,50901.999950408936,Fri Sep 19 2025 16:32:43 GMT-0500 (Central Daylight Time),103599.5,A,la,I,a,107,2,383.2999999523163,103216.20000004768,8048,WL,B,5.0
1,9.29800009727478,learn,50701.99990272522,Fri Sep 19 2025 16:32:43 GMT-0500 (Central Daylight Time),103799.29999995232,A,lak,I,k,191,2,583.0999999046326,103216.20000004768,8048,WL,B,5.0
1,9.430999994277954,learn,50569.000005722046,Fri Sep 19 2025 16:32:43 GMT-0500 (Central Daylight Time),103932.39999985695,A,lake,I,e,118,2,716.1999998092651,103216.20000004768,8048,WL,B,5.0
1,9.864000082015991,learn,50135.99991798401,Fri Sep 19 2025 16:32:43 GMT-0500 (Central Daylight Time),104365.59999990463,A,lakeenter,I,enter,418,2,1149.3999998569489,103216.20000004768,8048,WL,B,5.0
1,10.081000089645386,learn,49918.999910354614,Fri Sep 19 2025 16:32:43 GMT-0500 (Central Daylight Time),104582.39999985695,A,f,I,f,199,2,216.39999985694885,104366.0,8048,WL,B,6.0
1,10.164000034332275,learn,49835.999965667725,Fri Sep 19 2025 16:32:43 GMT-0500 (Central Daylight Time),104665.5,A,fi,I,i,71,2,299.5,104366.0,8048,WL,B,6.0
1,10.29699993133545,learn,49703.00006866455,Fri Sep 19 2025 16:32:43 GMT-0500 (Central Daylight Time),104798.79999995232,A,fir,I,r,116,2,432.7999999523163,104366.0,8048,WL,B,6.0
1,10.397000074386597,learn,49602.9999256134,Fri Sep 19 2025 16:32:43 GMT-0500 (Central Daylight Time),104898.79999995232,A,fire,I,e,88,2,532.7999999523163,104366.0,8048,WL,B,6.0
1,11.013999938964844,learn,48986.000061035156,Fri Sep 19 2025 16:32:43 GMT-0500 (Central Daylight Time),105515.29999995232,A,fireenter,I,enter,604,2,1149.2999999523163,104366.0,8048,WL,B,6.0
1,15.446000099182129,learn,44553.99990081787,Fri Sep 19 2025 16:32:43 GMT-0500 (Central Daylight Time),109947.20000004768,A,w,I,w,4411,2,4431.600000143051,105515.59999990463,8048,WL,B,7.0
1,15.479000091552734,learn,44520.999908447266,Fri Sep 19 2025 16:32:43 GMT-0500 (Central Daylight Time),109980.39999985695,A,wi,I,i,27,2,4464.799999952316,105515.59999990463,8048,WL,B,7.0
1,15.61299991607666,learn,44387.00008392334,Fri Sep 19 2025 16:32:43 GMT-0500 (Central Daylight Time),110114.29999995232,A,win,I,n,113,2,4598.700000047684,105515.59999990463,8048,WL,B,7.0
1,15.711999893188477,learn,44288.00010681152,Fri Sep 19 2025 16:32:43 GMT-0500 (Central Daylight Time),110213.70000004768,A,wind,I,d,84,2,4698.100000143051,105515.59999990463,8048,WL,B,7.0
1,16.02900004386902,learn,43970.99995613098,Fri Sep 19 2025 16:32:43 GMT-0500 (Central Daylight Time),110530.20000004768,A,windo,I,o,295,2,5014.600000143051,105515.59999990463,8048,WL,B,7.0
1,16.26200008392334,learn,43737.99991607666,Fri Sep 19 2025 16:32:43 GMT-0500 (Central Daylight Time),110763.29999995232,A,window,I,w,228,2,5247.700000047684,105515.59999990463,8048,WL,B,7.0
1,16.444999933242798,learn,43555.0000667572,Fri Sep 19 2025 16:32:43 GMT-0500 (Central Daylight Time),110946.59999990463,A,windowenter,I,enter,171,2,5431.0,105515.59999990463,8048,WL,B,7.0
1,16.828999996185303,learn,43171.0000038147,Fri Sep 19 2025 16:32:43 GMT-0500 (Central Daylight Time),111330.20000004768,A,p,I,p,371,2,383.2000000476837,110947.0,8048,WL,B,8.0
1,16.961999893188477,learn,43038.00010681152,Fri Sep 19 2025 16:32:43 GMT-0500 (Central Daylight Time),111463.29999995232,A,pu,I,u,116,2,516.2999999523163,110947.0,8048,WL,B,8.0
1,17.194999933242798,learn,42805.0000667572,Fri Sep 19 2025 16:32:43 GMT-0500 (Central Daylight Time),111696.70000004768,A,pup,I,p,222,2,749.7000000476837,110947.0,8048,WL,B,8.0
1,17.51200008392334,learn,42487.99991607666,Fri Sep 19 2025 16:32:43 GMT-0500 (Central Daylight Time),112013.20000004768,A,pupi,I,i,301,2,1066.2000000476837,110947.0,8048,WL,B,8.0
1,17.711999893188477,learn,42288.00010681152,Fri Sep 19 2025 16:32:43 GMT-0500 (Central Daylight Time),112213.20000004768,A,pupil,I,l,192,2,1266.2000000476837,110947.0,8048,WL,B,8.0
1,18.210999965667725,learn,41789.000034332275,Fri Sep 19 2025 16:32:43 GMT-0500 (Central Daylight Time),112713.0,A,pupilenter,I,enter,489,2,1766.0,110947.0,8048,WL,B,8.0
1,19.810999870300293,learn,40189.00012969971,Fri Sep 19 2025 16:32:43 GMT-0500 (Central Daylight Time),114312.5,A,d,I,d,1580,2,1599.1000001430511,112713.39999985695,8048,WL,B,9.0
1,19.89400005340576,learn,40105.99994659424,Fri Sep 19 2025 16:32:43 GMT-0500 (Central Daylight Time),114395.5,A,do,I,o,76,2,1682.1000001430511,112713.39999985695,8048,WL,B,9.0
1,20.060999870300293,learn,39939.00012969971,Fri Sep 19 2025 16:32:43 GMT-0500 (Central Daylight Time),114562.20000004768,A,doo,I,o,146,2,1848.8000001907349,112713.39999985695,8048,WL,B,9.0
1,20.127000093460083,learn,39872.99990653992,Fri Sep 19 2025 16:32:43 GMT-0500 (Central Daylight Time),114628.89999985695,A,door,I,r,51,2,1915.5,112713.39999985695,8048,WL,B,9.0
1,20.39400005340576,learn,39605.99994659424,Fri Sep 19 2025 16:32:43 GMT-0500 (Central Daylight Time),114895.70000004768,A,doorenter,I,enter,258,2,2182.300000190735,112713.39999985695,8048,WL,B,9.0
1,20.927000045776367,learn,39072.99995422363,Fri Sep 19 2025 16:32:43 GMT-0500 (Central Daylight Time),115428.70000004768,A,a,I,a,526,2,532.6000001430511,114896.09999990463,8048,WL,B,10.0
1,21.043999910354614,learn,38956.000089645386,Fri Sep 19 2025 16:32:43 GMT-0500 (Central Daylight Time),115545.39999985695,A,ar,I,r,96,2,649.2999999523163,114896.09999990463,8048,WL,B,10.0
1,21.194000005722046,learn,38805.999994277954,Fri Sep 19 2025 16:32:43 GMT-0500 (Central Daylight Time),115695.09999990463,A,arm,I,m,141,2,799.0,114896.09999990463,8048,WL,B,10.0
1,21.47699999809265,learn,38523.00000190735,Fri Sep 19 2025 16:32:43 GMT-0500 (Central Daylight Time),115978.39999985695,A,armenter,I,enter,278,2,1082.2999999523163,114896.09999990463,8048,WL,B,10.0
1,30.29099988937378,learn,29709.00011062622,Fri Sep 19 2025 16:32:43 GMT-0500 (Central Daylight Time),124792.5,A,f,I,f,8804,2,8813.799999952316,115978.70000004768,8048,WL,B,11.0
1,30.506999969482422,learn,29493.000030517578,Fri Sep 19 2025 16:32:43 GMT-0500 (Central Daylight Time),125008.79999995232,A,fr,I,r,205,2,9030.099999904633,115978.70000004768,8048,WL,B,11.0
1,30.85699987411499,learn,29143.00012588501,Fri Sep 19 2025 16:32:43 GMT-0500 (Central Daylight Time),125359.09999990463,A,f,I,backspace,341,2,9380.399999856949,115978.70000004768,8048,WL,B,11.0
1,31.0239999294281,learn,28976.0000705719,Fri Sep 19 2025 16:32:43 GMT-0500 (Central Daylight Time),125525.89999985695,A,,I,backspace,151,2,9547.199999809265,115978.70000004768,8048,WL,B,11.0
1,31.091000080108643,learn,28908.999919891357,Fri Sep 19 2025 16:32:43 GMT-0500 (Central Daylight Time),125592.5,A,g,I,g,56,2,9613.799999952316,115978.70000004768,8048,WL,B,11.0
1,31.2739999294281,learn,28726.0000705719,Fri Sep 19 2025 16:32:43 GMT-0500 (Central Daylight Time),125775.39999985695,A,gr,I,r,165,2,9796.699999809265,115978.70000004768,8048,WL,B,11.0
1,31.35699987411499,learn,28643.00012588501,Fri Sep 19 2025 16:32:43 GMT-0500 (Central Daylight Time),125858.70000004768,A,gra,I,a,71,2,9880.0,115978.70000004768,8048,WL,B,11.0
1,31.624000072479248,learn,28375.999927520752,Fri Sep 19 2025 16:32:43 GMT-0500 (Central Daylight Time),126125.5,A,gras,I,s,251,2,10146.799999952316,115978.70000004768,8048,WL,B,11.0
1,31.756999969482422,learn,28243.000030517578,Fri Sep 19 2025 16:32:43 GMT-0500 (Central Daylight Time),126258.59999990463,A,grass,I,s,120,2,10279.899999856949,115978.70000004768,8048,WL,B,11.0
1,31.890000104904175,learn,28109.999895095825,Fri Sep 19 2025 16:32:43 GMT-0500 (Central Daylight Time),126391.79999995232,A,grassenter,I,enter,123,2,10413.099999904633,115978.70000004768,8048,WL,B,11.0
1,55.08299994468689,learn,4917.00005531311,Fri Sep 19 2025 16:32:43 GMT-0500 (Central Daylight Time),149584.89999985695,A,enter,I,enter,23183,2,23192.699999809265,126392.20000004768,8048,WL,B,12.0
1,55.68300008773804,learn,4316.999912261963,Fri Sep 19 2025 16:32:43 GMT-0500 (Central Daylight Time),150184.5,A,enter,I,enter,589,2,599.2000000476837,149585.29999995232,8048,WL,B,13.0
1,55.98300004005432,learn,4016.9999599456787,Fri Sep 19 2025 16:32:43 GMT-0500 (Central Daylight Time),150484.5,A,enter,I,enter,294,2,299.60000014305115,150184.89999985695,8048,WL,B,14.0
1,56.48199987411499,learn,3518.0001258850098,Fri Sep 19 2025 16:32:43 GMT-0500 (Central Daylight Time),150984.20000004768,A,enter,I,enter,489,2,499.30000019073486,150484.89999985695,8048,WL,B,15.0
2,1.3829998970031738,learn,58617.000102996826,Fri Sep 19 2025 16:32:43 GMT-0500 (Central Daylight Time),218763.29999995232,A,c,I,c,1362,2,1382.9000000953674,217380.39999985695,8048,WL,B,1.0
2,1.5829999446868896,learn,58417.00005531311,Fri Sep 19 2025 16:32:43 GMT-0500 (Central Daylight Time),218962.89999985695,A,cl,I,l,176,2,1582.5,217380.39999985695,8048,WL,B,1.0
2,1.7829999923706055,learn,58217.000007629395,Fri Sep 19 2025 16:32:43 GMT-0500 (Central Daylight Time),219162.79999995232,A,clo,I,o,196,2,1782.4000000953674,217380.39999985695,8048,WL,B,1.0
2,2.1659998893737793,learn,57834.00011062622,Fri Sep 19 2025 16:32:43 GMT-0500 (Central Daylight Time),219546.29999995232,A,cloc,I,c,363,2,2165.9000000953674,217380.39999985695,8048,WL,B,1.0
2,2.2330000400543213,learn,57766.99995994568,Fri Sep 19 2025 16:32:43 GMT-0500 (Central Daylight Time),219612.89999985695,A,clock,I,k,60,2,2232.5,217380.39999985695,8048,WL,B,1.0
2,2.6659998893737793,learn,57334.00011062622,Fri Sep 19 2025 16:32:43 GMT-0500 (Central Daylight Time),220045.89999985695,A,clockenter,I,enter,424,2,2665.5,217380.39999985695,8048,WL,B,1.0
2,3.115999937057495,learn,56884.000062942505,Fri Sep 19 2025 16:32:43 GMT-0500 (Central Daylight Time),220496.09999990463,A,s,I,s,431,2,449.7999999523163,220046.29999995232,8048,WL,B,2.0
2,3.381999969482422,learn,56618.00003051758,Fri Sep 19 2025 16:32:43 GMT-0500 (Central Daylight Time),220762.29999995232,A,st,I,t,254,2,716.0,220046.29999995232,8048,WL,B,2.0
2,3.5820000171661377,learn,56417.99998283386,Fri Sep 19 2025 16:32:43 GMT-0500 (Central Daylight Time),220962.39999985695,A,str,I,r,179,2,916.0999999046326,220046.29999995232,8048,WL,B,2.0
2,3.7820000648498535,learn,56217.99993515015,Fri Sep 19 2025 16:32:43 GMT-0500 (Central Daylight Time),221162.20000004768,A,stre,I,e,179,2,1115.9000000953674,220046.29999995232,8048,WL,B,2.0
2,3.9149999618530273,learn,56085.00003814697,Fri Sep 19 2025 16:32:43 GMT-0500 (Central Daylight Time),221295.59999990463,A,stree,I,e,123,2,1249.2999999523163,220046.29999995232,8048,WL,B,2.0
2,4.249000072479248,learn,55750.99992752075,Fri Sep 19 2025 16:32:43 GMT-0500 (Central Daylight Time),221628.89999985695,A,street,I,t,326,2,1582.5999999046326,220046.29999995232,8048,WL,B,2.0
2,4.648999929428101,learn,55351.0000705719,Fri Sep 19 2025 16:32:43 GMT-0500 (Central Daylight Time),222028.79999995232,A,streetenter,I,enter,386,2,1982.5,220046.29999995232,8048,WL,B,2.0
2,6.514999866485596,learn,53485.000133514404,Fri Sep 19 2025 16:32:43 GMT-0500 (Central Daylight Time),223894.59999990463,A,g,I,g,1857,2,1865.2999999523163,222029.29999995232,8048,WL,B,3.0
2,6.680999994277954,learn,53319.000005722046,Fri Sep 19 2025 16:32:43 GMT-0500 (Central Daylight Time),224061.39999985695,A,gr,I,r,159,2,2032.0999999046326,222029.29999995232,8048,WL,B,3.0
2,6.815000057220459,learn,53184.99994277954,Fri Sep 19 2025 16:32:43 GMT-0500 (Central Daylight Time),224194.70000004768,A,gra,I,a,113,2,2165.4000000953674,222029.29999995232,8048,WL,B,3.0
2,7.180999994277954,learn,52819.000005722046,Fri Sep 19 2025 16:32:43 GMT-0500 (Central Daylight Time),224561.29999995232,A,gras,I,s,346,2,2532.0,222029.29999995232,8048,WL,B,3.0
2,7.2809998989105225,learn,52719.00010108948,Fri Sep 19 2025 16:32:43 GMT-0500 (Central Daylight Time),224661.0,A,grass,I,s,85,2,2631.7000000476837,222029.29999995232,8048,WL,B,3.0
2,7.747999906539917,learn,52252.00009346008,Fri Sep 19 2025 16:32:43 GMT-0500 (Central Daylight Time),225127.59999990463,A,grassenter,I,enter,448,2,3098.2999999523163,222029.29999995232,8048,WL,B,3.0
2,11.246999979019165,learn,48753.000020980835,Fri Sep 19 2025 16:32:43 GMT-0500 (Central Daylight Time),228626.89999985695,A,w,I,w,3494,2,3499.0,225127.89999985695,8048,WL,B,4.0
2,11.329999923706055,learn,48670.000076293945,Fri Sep 19 2025 16:32:43 GMT-0500 (Central Daylight Time),228709.89999985695,A,wi,I,i,76,2,3582.0,225127.89999985695,8048,WL,B,4.0
2,11.480000019073486,learn,48519.999980926514,Fri Sep 19 2025 16:32:43 GMT-0500 (Central Daylight Time),228859.89999985695,A,win,I,n,144,2,3732.0,225127.89999985695,8048,WL,B,4.0
2,11.595999956130981,learn,48404.00004386902,Fri Sep 19 2025 16:32:43 GMT-0500 (Central Daylight Time),228976.29999995232,A,wind,I,d,105,2,3848.4000000953674,225127.89999985695,8048,WL,B,4.0
2,11.996999979019165,learn,48003.000020980835,Fri Sep 19 2025 16:32:43 GMT-0500 (Central Daylight Time),229376.89999985695,A,windo,I,o,389,2,4249.0,225127.89999985695,8048,WL,B,4.0
2,12.11299991607666,learn,47887.00008392334,Fri Sep 19 2025 16:32:43 GMT-0500 (Central Daylight Time),229493.20000004768,A,window,I,w,110,2,4365.300000190735,225127.89999985695,8048,WL,B,4.0
2,12.595999956130981,learn,47404.00004386902,Fri Sep 19 2025 16:32:43 GMT-0500 (Central Daylight Time),229976.09999990463,A,windowenter,I,enter,466,2,4848.200000047684,225127.89999985695,8048,WL,B,4.0
2,12.978999853134155,learn,47021.000146865845,Fri Sep 19 2025 16:32:43 GMT-0500 (Central Daylight Time),230359.39999985695,A,c,I,c,367,2,383.0,229976.39999985695,8048,WL,B,5.0
2,13.128999948501587,learn,46871.00005149841,Fri Sep 19 2025 16:32:43 GMT-0500 (Central Daylight Time),230509.29999995232,A,ci,I,i,135,2,532.9000000953674,229976.39999985695,8048,WL,B,5.0
2,13.279000043869019,learn,46720.99995613098,Fri Sep 19 2025 16:32:43 GMT-0500 (Central Daylight Time),230659.0,A,cit,I,t,145,2,682.6000001430511,229976.39999985695,8048,WL,B,5.0
2,13.395999908447266,learn,46604.000091552734,Fri Sep 19 2025 16:32:43 GMT-0500 (Central Daylight Time),230776.09999990463,A,city,I,y,107,2,799.7000000476837,229976.39999985695,8048,WL,B,5.0
2,13.812000036239624,learn,46187.999963760376,Fri Sep 19 2025 16:32:43 GMT-0500 (Central Daylight Time),231192.29999995232,A,cityenter,I,enter,406,2,1215.9000000953674,229976.39999985695,8048,WL,B,5.0
2,14.095999956130981,learn,45904.00004386902,Fri Sep 19 2025 16:32:43 GMT-0500 (Central Daylight Time),231475.70000004768,A,a,I,a,277,2,283.0,231192.70000004768,8048,WL,B,6.0
2,14.211999893188477,learn,45788.00010681152,Fri Sep 19 2025 16:32:43 GMT-0500 (Central Daylight Time),231592.29999995232,A,ar,I,r,107,2,399.59999990463257,231192.70000004768,8048,WL,B,6.0
2,14.44599986076355,learn,45554.00013923645,Fri Sep 19 2025 16:32:43 GMT-0500 (Central Daylight Time),231825.59999990463,A,arm,I,m,221,2,632.8999998569489,231192.70000004768,8048,WL,B,6.0
2,14.796000003814697,learn,45203.9999961853,Fri Sep 19 2025 16:32:43 GMT-0500 (Central Daylight Time),232175.70000004768,A,armenter,I,enter,333,2,983.0,231192.70000004768,8048,WL,B,6.0
2,17.710999965667725,learn,42289.000034332275,Fri Sep 19 2025 16:32:43 GMT-0500 (Central Daylight Time),235091.39999985695,A,w,I,w,2895,2,2915.2999999523163,232176.09999990463,8048,WL,B,7.0
2,17.76099991798401,learn,42239.00008201599,Fri Sep 19 2025 16:32:43 GMT-0500 (Central Daylight Time),235141.20000004768,A,wi,I,i,34,2,2965.100000143051,232176.09999990463,8048,WL,B,7.0
2,17.894999980926514,learn,42105.000019073486,Fri Sep 19 2025 16:32:43 GMT-0500 (Central Daylight Time),235274.59999990463,A,wif,I,f,120,2,3098.5,232176.09999990463,8048,WL,B,7.0
2,18.0939998626709,learn,41906.0001373291,Fri Sep 19 2025 16:32:43 GMT-0500 (Central Daylight Time),235474.5,A,wife,I,e,179,2,3298.4000000953674,232176.09999990463,8048,WL,B,7.0
2,18.477999925613403,learn,41522.0000743866,Fri Sep 19 2025 16:32:43 GMT-0500 (Central Daylight Time),235857.89999985695,A,wifeenter,I,enter,363,2,3681.7999999523163,232176.09999990463,8048,WL,B,7.0
2,18.861000061035156,learn,41138.999938964844,Fri Sep 19 2025 16:32:43 GMT-0500 (Central Daylight Time),236240.79999995232,A,c,I,c,364,2,382.5,235858.29999995232,8048,WL,B,8.0
2,18.960999965667725,learn,41039.000034332275,Fri Sep 19 2025 16:32:43 GMT-0500 (Central Daylight Time),236340.79999995232,A,ca,I,a,92,2,482.5,235858.29999995232,8048,WL,B,8.0
2,19.14400005340576,learn,40855.99994659424,Fri Sep 19 2025 16:32:43 GMT-0500 (Central Daylight Time),236524.0,A,cab,I,b,176,2,665.7000000476837,235858.29999995232,8048,WL,B,8.0
2,19.361000061035156,learn,40638.999938964844,Fri Sep 19 2025 16:32:43 GMT-0500 (Central Daylight Time),236740.89999985695,A,cabi,I,i,202,2,882.5999999046326,235858.29999995232,8048,WL,B,8.0
2,19.460999965667725,learn,40539.000034332275,Fri Sep 19 2025 16:32:43 GMT-0500 (Central Daylight Time),236841.0,A,cabin,I,n,81,2,982.7000000476837,235858.29999995232,8048,WL,B,8.0
2,19.960000038146973,learn,40039.99996185303,Fri Sep 19 2025 16:32:43 GMT-0500 (Central Daylight Time),237340.29999995232,A,cabinenter,I,enter,493,2,1482.0,235858.29999995232,8048,WL,B,8.0
2,21.47699999809265,learn,38523.00000190735,Fri Sep 19 2025 16:32:43 GMT-0500 (Central Daylight Time),238856.70000004768,A,f,I,f,1506,2,1515.5,237341.20000004768,8048,WL,B,9.0
2,21.625999927520752,learn,38374.00007247925,Fri Sep 19 2025 16:32:43 GMT-0500 (Central Daylight Time),239006.59999990463,A,fi,I,i,134,2,1665.3999998569489,237341.20000004768,8048,WL,B,9.0
2,21.7260000705719,learn,38273.9999294281,Fri Sep 19 2025 16:32:43 GMT-0500 (Central Daylight Time),239106.70000004768,A,fir,I,r,80,2,1765.5,237341.20000004768,8048,WL,B,9.0
2,21.82699990272522,learn,38173.00009727478,Fri Sep 19 2025 16:32:43 GMT-0500 (Central Daylight Time),239206.79999995232,A,fire,I,e,84,2,1865.5999999046326,237341.20000004768,8048,WL,B,9.0
2,22.109999895095825,learn,37890.000104904175,Fri Sep 19 2025 16:32:43 GMT-0500 (Central Daylight Time),239490.09999990463,A,fireenter,I,enter,263,2,2148.899999856949,237341.20000004768,8048,WL,B,9.0
2,22.443000078201294,learn,37556.999921798706,Fri Sep 19 2025 16:32:43 GMT-0500 (Central Daylight Time),239823.29999995232,A,p,I,p,324,2,332.7999999523163,239490.5,8048,WL,B,10.0
2,22.609999895095825,learn,37390.000104904175,Fri Sep 19 2025 16:32:43 GMT-0500 (Central Daylight Time),239990.0,A,pu,I,u,150,2,499.5,239490.5,8048,WL,B,10.0
2,22.759000062942505,learn,37240.999937057495,Fri Sep 19 2025 16:32:43 GMT-0500 (Central Daylight Time),240139.59999990463,A,pup,I,p,144,2,649.0999999046326,239490.5,8048,WL,B,10.0
2,23.108999967575073,learn,36891.00003242493,Fri Sep 19 2025 16:32:43 GMT-0500 (Central Daylight Time),240489.39999985695,A,pupi,I,i,330,2,998.8999998569489,239490.5,8048,WL,B,10.0
2,23.325999975204468,learn,36674.00002479553,Fri Sep 19 2025 16:32:43 GMT-0500 (Central Daylight Time),240706.09999990463,A,pupil,I,l,196,2,1215.5999999046326,239490.5,8048,WL,B,10.0
2,23.908999919891357,learn,36091.00008010864,Fri Sep 19 2025 16:32:43 GMT-0500 (Central Daylight Time),241289.39999985695,A,pupilenter,I,enter,572,2,1798.8999998569489,239490.5,8048,WL,B,10.0
2,27.557999849319458,learn,32442.000150680542,Fri Sep 19 2025 16:32:43 GMT-0500 (Central Daylight Time),244938.29999995232,A,f,I,f,3636,2,3648.5999999046326,241289.70000004768,8048,WL,B,11.0
2,27.641000032424927,learn,32358.999967575073,Fri Sep 19 2025 16:32:43 GMT-0500 (Central Daylight Time),245021.39999985695,A,fi,I,i,67,2,3731.699999809265,241289.70000004768,8048,WL,B,11.0
2,27.774999856948853,learn,32225.000143051147,Fri Sep 19 2025 16:32:43 GMT-0500 (Central Daylight Time),245154.79999995232,A,fir,I,r,113,2,3865.0999999046326,241289.70000004768,8048,WL,B,11.0
2,27.907999992370605,learn,32092.000007629395,Fri Sep 19 2025 16:32:43 GMT-0500 (Central Daylight Time),245287.79999995232,A,fire,I,e,116,2,3998.0999999046326,241289.70000004768,8048,WL,B,11.0
2,28.29099988937378,learn,31709.00011062622,Fri Sep 19 2025 16:32:43 GMT-0500 (Central Daylight Time),245671.5,A,fireenter,I,enter,367,2,4381.799999952316,241289.70000004768,8048,WL,B,11.0
2,31.306999921798706,learn,28693.000078201294,Fri Sep 19 2025 16:32:43 GMT-0500 (Central Daylight Time),248686.79999995232,A,s,I,s,2999,2,3015.0999999046326,245671.70000004768,8048,WL,B,12.0
2,31.473999977111816,learn,28526.000022888184,Fri Sep 19 2025 16:32:43 GMT-0500 (Central Daylight Time),248853.70000004768,A,st,I,t,160,2,3182.0,245671.70000004768,8048,WL,B,12.0
2,31.60699987411499,learn,28393.00012588501,Fri Sep 19 2025 16:32:43 GMT-0500 (Central Daylight Time),248987.0,A,sta,I,a,121,2,3315.2999999523163,245671.70000004768,8048,WL,B,12.0
2,31.723000049591064,learn,28276.999950408936,Fri Sep 19 2025 16:32:43 GMT-0500 (Central Daylight Time),249103.29999995232,A,star,I,r,100,2,3431.5999999046326,245671.70000004768,8048,WL,B,12.0
2,32.37299990653992,learn,27627.000093460083,Fri Sep 19 2025 16:32:43 GMT-0500 (Central Daylight Time),249753.29999995232,A,starenter,I,enter,639,2,4081.5999999046326,245671.70000004768,8048,WL,B,12.0
2,39.2039999961853,learn,20796.000003814697,Fri Sep 19 2025 16:32:43 GMT-0500 (Central Daylight Time),256584.5,A,w,I,w,6813,2,6830.900000095367,249753.59999990463,8048,WL,B,13.0
2,39.287999868392944,learn,20712.000131607056,Fri Sep 19 2025 16:32:43 GMT-0500 (Central Daylight Time),256667.89999985695,A,wi,I,i,68,2,6914.299999952316,249753.59999990463,8048,WL,B,13.0
2,39.4210000038147,learn,20578.999996185303,Fri Sep 19 2025 16:32:43 GMT-0500 (Central Daylight Time),256801.20000004768,A,wif,I,f,114,2,7047.600000143051,249753.59999990463,8048,WL,B,13.0
2,39.603999853134155,learn,20396.000146865845,Fri Sep 19 2025 16:32:43 GMT-0500 (Central Daylight Time),256984.20000004768,A,wifr,I,r,172,2,7230.600000143051,249753.59999990463,8048,WL,B,13.0
2,40.103999853134155,learn,19896.000146865845,Fri Sep 19 2025 16:32:43 GMT-0500 (Central Daylight Time),257484.39999985695,A,wif,I,backspace,485,2,7730.799999952316,249753.59999990463,8048,WL,B,13.0
2,40.187000036239624,learn,19812.999963760376,Fri Sep 19 2025 16:32:43 GMT-0500 (Central Daylight Time),257567.59999990463,A,wife,I,e,65,2,7814.0,249753.59999990463,8048,WL,B,13.0
2,40.48699998855591,learn,19513.00001144409,Fri Sep 19 2025 16:32:43 GMT-0500 (Central Daylight Time),257867.20000004768,A,wifeenter,I,enter,294,2,8113.600000143051,249753.59999990463,8048,WL,B,13.0
2,44.986000061035156,learn,15013.999938964844,Fri Sep 19 2025 16:32:43 GMT-0500 (Central Daylight Time),262366.39999985695,A,l,I,l,4483,2,4498.899999856949,257867.5,8048,WL,B,14.0
2,45.11899995803833,learn,14881.00004196167,Fri Sep 19 2025 16:32:43 GMT-0500 (Central Daylight Time),262499.09999990463,A,la,I,a,120,2,4631.599999904633,257867.5,8048,WL,B,14.0
2,45.2189998626709,learn,14781.000137329102,Fri Sep 19 2025 16:32:43 GMT-0500 (Central Daylight Time),262599.2000000477,A,lak,I,k,91,2,4731.700000047684,257867.5,8048,WL,B,14.0
2,45.585999965667725,learn,14414.000034332275,Fri Sep 19 2025 16:32:43 GMT-0500 (Central Daylight Time),262965.7999999523,A,lake,I,e,358,2,5098.299999952316,257867.5,8048,WL,B,14.0
2,45.76900005340576,learn,14230.999946594238,Fri Sep 19 2025 16:32:43 GMT-0500 (Central Daylight Time),263149.09999990463,A,lakeenter,I,enter,168,2,5281.599999904633,257867.5,8048,WL,B,14.0
2,60.014999866485596,learn,-14.999866485595703,Fri Sep 19 2025 16:32:43 GMT-0500 (Central Daylight Time),277394.7999999523,A,None,I,None,14242,2,14245.400000095367,263149.39999985695,8048,WL,B,15.0
3,1.25,learn,58750.0,Fri Sep 19 2025 16:32:43 GMT-0500 (Central Daylight Time),344173.5,A,s,I,s,1235,2,1249.5,342924.0,8048,WL,B,1.0
3,1.7669999599456787,learn,58233.00004005432,Fri Sep 19 2025 16:32:43 GMT-0500 (Central Daylight Time),344690.39999985695,A,st,I,t,504,2,1766.3999998569489,342924.0,8048,WL,B,1.0
3,2.0810000896453857,learn,57918.999910354614,Fri Sep 19 2025 16:32:43 GMT-0500 (Central Daylight Time),345004.89999985695,A,str,I,r,163,2,2080.899999856949,342924.0,8048,WL,B,1.0
3,2.0869998931884766,learn,57913.00010681152,Fri Sep 19 2025 16:32:43 GMT-0500 (Central Daylight Time),345011.0,A,stre,I,e,0,2,2087.0,342924.0,8048,WL,B,1.0
3,2.246000051498413,learn,57753.99994850159,Fri Sep 19 2025 16:32:43 GMT-0500 (Central Daylight Time),345170.0,A,stree,I,e,155,2,2246.0,342924.0,8048,WL,B,1.0
3,2.882999897003174,learn,57117.000102996826,Fri Sep 19 2025 16:32:43 GMT-0500 (Central Daylight Time),345806.5,A,street,I,t,620,2,2882.5,342924.0,8048,WL,B,1.0
3,3.2829999923706055,learn,56717.000007629395,Fri Sep 19 2025 16:32:43 GMT-0500 (Central Daylight Time),346206.2999999523,A,streetenter,I,enter,391,2,3282.2999999523163,342924.0,8048,WL,B,1.0
3,4.898999929428101,learn,55101.0000705719,Fri Sep 19 2025 16:32:43 GMT-0500 (Central Daylight Time),347822.7999999523,A,g,I,g,1600,2,1616.0999999046326,346206.7000000477,8048,WL,B,2.0
3,5.065999984741211,learn,54934.00001525879,Fri Sep 19 2025 16:32:43 GMT-0500 (Central Daylight Time),347989.39999985695,A,gr,I,r,152,2,1782.6999998092651,346206.7000000477,8048,WL,B,2.0
3,5.2149999141693115,learn,54785.00008583069,Fri Sep 19 2025 16:32:43 GMT-0500 (Central Daylight Time),348139.2000000477,A,gra,I,a,136,2,1932.5,346206.7000000477,8048,WL,B,2.0
3,5.448999881744385,learn,54551.000118255615,Fri Sep 19 2025 16:32:43 GMT-0500 (Central Daylight Time),348372.2999999523,A,gras,I,s,219,2,2165.5999999046326,346206.7000000477,8048,WL,B,2.0
3,5.5980000495910645,learn,54401.999950408936,Fri Sep 19 2025 16:32:43 GMT-0500 (Central Daylight Time),348522.09999990463,A,grass,I,s,145,2,2315.399999856949,346206.7000000477,8048,WL,B,2.0
3,5.98199987411499,learn,54018.00012588501,Fri Sep 19 2025 16:32:43 GMT-0500 (Central Daylight Time),348905.2999999523,A,grassenter,I,enter,371,2,2698.5999999046326,346206.7000000477,8048,WL,B,2.0
3,6.365000009536743,learn,53634.99999046326,Fri Sep 19 2025 16:32:43 GMT-0500 (Central Daylight Time),349288.89999985695,A,d,I,d,373,2,383.2999999523163,348905.59999990463,8048,WL,B,3.0
3,6.514999866485596,learn,53485.000133514404,Fri Sep 19 2025 16:32:43 GMT-0500 (Central Daylight Time),349438.7000000477,A,do,I,o,132,2,533.1000001430511,348905.59999990463,8048,WL,B,3.0
3,6.697999954223633,learn,53302.00004577637,Fri Sep 19 2025 16:32:43 GMT-0500 (Central Daylight Time),349621.7999999523,A,doo,I,o,175,2,716.2000000476837,348905.59999990463,8048,WL,B,3.0
3,6.865000009536743,learn,53134.99999046326,Fri Sep 19 2025 16:32:43 GMT-0500 (Central Daylight Time),349788.7999999523,A,door,I,r,152,2,883.2000000476837,348905.59999990463,8048,WL,B,3.0
3,7.2809998989105225,learn,52719.00010108948,Fri Sep 19 2025 16:32:43 GMT-0500 (Central Daylight Time),350205.2999999523,A,doorenter,I,enter,410,2,1299.7000000476837,348905.59999990463,8048,WL,B,3.0
3,7.697999954223633,learn,52302.00004577637,Fri Sep 19 2025 16:32:43 GMT-0500 (Central Daylight Time),350621.7999999523,A,a,I,a,410,2,416.2000000476837,350205.59999990463,8048,WL,B,4.0
3,7.898000001907349,learn,52101.99999809265,Fri Sep 19 2025 16:32:43 GMT-0500 (Central Daylight Time),350821.7999999523,A,ar,I,r,185,2,616.2000000476837,350205.59999990463,8048,WL,B,4.0
3,8.115000009536743,learn,51884.99999046326,Fri Sep 19 2025 16:32:43 GMT-0500 (Central Daylight Time),351038.5,A,arm,I,m,208,2,832.9000000953674,350205.59999990463,8048,WL,B,4.0
3,8.414000034332275,learn,51585.999965667725,Fri Sep 19 2025 16:32:43 GMT-0500 (Central Daylight Time),351338.2000000477,A,armenter,I,enter,288,2,1132.6000001430511,350205.59999990463,8048,WL,B,4.0
3,8.680999994277954,learn,51319.000005722046,Fri Sep 19 2025 16:32:43 GMT-0500 (Central Daylight Time),351604.89999985695,A,s,I,s,251,2,265.7999999523163,351339.09999990463,8048,WL,B,5.0
3,8.88100004196167,learn,51118.99995803833,Fri Sep 19 2025 16:32:43 GMT-0500 (Central Daylight Time),351804.59999990463,A,st,I,t,186,2,465.5,351339.09999990463,8048,WL,B,5.0
3,9.030999898910522,learn,50969.00010108948,Fri Sep 19 2025 16:32:43 GMT-0500 (Central Daylight Time),351954.59999990463,A,sta,I,a,138,2,615.5,351339.09999990463,8048,WL,B,5.0
3,9.230999946594238,learn,50769.00005340576,Fri Sep 19 2025 16:32:43 GMT-0500 (Central Daylight Time),352154.7999999523,A,star,I,r,195,2,815.7000000476837,351339.09999990463,8048,WL,B,5.0
3,9.864000082015991,learn,50135.99991798401,Fri Sep 19 2025 16:32:43 GMT-0500 (Central Daylight Time),352787.5,A,starenter,I,enter,628,2,1448.4000000953674,351339.09999990463,8048,WL,B,5.0
3,10.563999891281128,learn,49436.00010871887,Fri Sep 19 2025 16:32:43 GMT-0500 (Central Daylight Time),353487.7000000477,A,c,I,c,683,2,699.9000000953674,352787.7999999523,8048,WL,B,6.0
3,10.63100004196167,learn,49368.99995803833,Fri Sep 19 2025 16:32:43 GMT-0500 (Central Daylight Time),353554.2999999523,A,ci,I,i,53,2,766.5,352787.7999999523,8048,WL,B,6.0
3,10.77999997138977,learn,49220.00002861023,Fri Sep 19 2025 16:32:43 GMT-0500 (Central Daylight Time),353704.09999990463,A,cit,I,t,131,2,916.2999999523163,352787.7999999523,8048,WL,B,6.0
3,10.88100004196167,learn,49118.99995803833,Fri Sep 19 2025 16:32:43 GMT-0500 (Central Daylight Time),353804.2999999523,A,city,I,y,87,2,1016.5,352787.7999999523,8048,WL,B,6.0
3,11.096999883651733,learn,48903.00011634827,Fri Sep 19 2025 16:32:43 GMT-0500 (Central Daylight Time),354020.7000000477,A,cityenter,I,enter,210,2,1232.9000000953674,352787.7999999523,8048,WL,B,6.0
3,11.69700002670288,learn,48302.99997329712,Fri Sep 19 2025 16:32:43 GMT-0500 (Central Daylight Time),354620.39999985695,A,w,I,w,586,2,599.2999999523163,354021.09999990463,8048,WL,B,7.0
3,11.879999876022339,learn,48120.00012397766,Fri Sep 19 2025 16:32:43 GMT-0500 (Central Daylight Time),354803.5,A,wi,I,i,178,2,782.4000000953674,354021.09999990463,8048,WL,B,7.0
3,12.02999997138977,learn,47970.00002861023,Fri Sep 19 2025 16:32:43 GMT-0500 (Central Daylight Time),354953.39999985695,A,wif,I,f,138,2,932.2999999523163,354021.09999990463,8048,WL,B,7.0
3,12.480000019073486,learn,47519.999980926514,Fri Sep 19 2025 16:32:43 GMT-0500 (Central Daylight Time),355403.2999999523,A,wife,I,e,444,2,1382.2000000476837,354021.09999990463,8048,WL,B,7.0
3,12.963000059127808,learn,47036.99994087219,Fri Sep 19 2025 16:32:43 GMT-0500 (Central Daylight Time),355886.7000000477,A,wifeenter,I,enter,466,2,1865.6000001430511,354021.09999990463,8048,WL,B,7.0
3,15.394999980926514,learn,44605.000019073486,Fri Sep 19 2025 16:32:43 GMT-0500 (Central Daylight Time),358319.2000000477,A,p,I,p,2415,2,2432.100000143051,355887.09999990463,8048,WL,B,8.0
3,15.49399995803833,learn,44506.00004196167,Fri Sep 19 2025 16:32:43 GMT-0500 (Central Daylight Time),358419.09999990463,A,pu,I,u,94,2,2532.0,355887.09999990463,8048,WL,B,8.0
3,15.710999965667725,learn,44289.000034332275,Fri Sep 19 2025 16:32:43 GMT-0500 (Central Daylight Time),358636.0,A,pup,I,p,202,2,2748.9000000953674,355887.09999990463,8048,WL,B,8.0
3,16.16100001335144,learn,43838.99998664856,Fri Sep 19 2025 16:32:43 GMT-0500 (Central Daylight Time),359085.7000000477,A,pupi,I,i,443,2,3198.600000143051,355887.09999990463,8048,WL,B,8.0
3,16.42799997329712,learn,43572.00002670288,Fri Sep 19 2025 16:32:43 GMT-0500 (Central Daylight Time),359352.59999990463,A,pupil,I,l,249,2,3465.5,355887.09999990463,8048,WL,B,8.0
3,16.64400005340576,learn,43355.99994659424,Fri Sep 19 2025 16:32:43 GMT-0500 (Central Daylight Time),359569.09999990463,A,pupilenter,I,enter,198,2,3682.0,355887.09999990463,8048,WL,B,8.0
3,16.861000061035156,learn,43138.999938964844,Fri Sep 19 2025 16:32:43 GMT-0500 (Central Daylight Time),359785.39999985695,A,c,I,c,206,2,215.89999985694885,359569.5,8048,WL,B,9.0
3,16.944000005722046,learn,43055.999994277954,Fri Sep 19 2025 16:32:43 GMT-0500 (Central Daylight Time),359868.7999999523,A,ca,I,a,69,2,299.2999999523163,359569.5,8048,WL,B,9.0
3,17.127000093460083,learn,42872.99990653992,Fri Sep 19 2025 16:32:43 GMT-0500 (Central Daylight Time),360052.0,A,cab,I,b,169,2,482.5,359569.5,8048,WL,B,9.0
3,17.312000036239624,learn,42687.999963760376,Fri Sep 19 2025 16:32:43 GMT-0500 (Central Daylight Time),360236.39999985695,A,cabi,I,i,177,2,666.8999998569489,359569.5,8048,WL,B,9.0
3,17.427000045776367,learn,42572.99995422363,Fri Sep 19 2025 16:32:43 GMT-0500 (Central Daylight Time),360352.09999990463,A,cabin,I,n,106,2,782.5999999046326,359569.5,8048,WL,B,9.0
3,17.76099991798401,learn,42239.00008201599,Fri Sep 19 2025 16:32:43 GMT-0500 (Central Daylight Time),360685.2999999523,A,cabinenter,I,enter,325,2,1115.7999999523163,359569.5,8048,WL,B,9.0
3,18.109999895095825,learn,41890.000104904175,Fri Sep 19 2025 16:32:43 GMT-0500 (Central Daylight Time),361034.7999999523,A,f,I,f,345,2,349.09999990463257,360685.7000000477,8048,WL,B,10.0
3,18.259999990463257,learn,41740.00000953674,Fri Sep 19 2025 16:32:43 GMT-0500 (Central Daylight Time),361185.09999990463,A,fi,I,i,139,2,499.39999985694885,360685.7000000477,8048,WL,B,10.0
3,18.377000093460083,learn,41622.99990653992,Fri Sep 19 2025 16:32:43 GMT-0500 (Central Daylight Time),361301.7000000477,A,fir,I,r,108,2,616.0,360685.7000000477,8048,WL,B,10.0
3,18.49399995803833,learn,41506.00004196167,Fri Sep 19 2025 16:32:43 GMT-0500 (Central Daylight Time),361418.39999985695,A,fire,I,e,104,2,732.6999998092651,360685.7000000477,8048,WL,B,10.0
3,18.877000093460083,learn,41122.99990653992,Fri Sep 19 2025 16:32:43 GMT-0500 (Central Daylight Time),361801.59999990463,A,fireenter,I,enter,363,2,1115.8999998569489,360685.7000000477,8048,WL,B,10.0
3,19.07699990272522,learn,40923.00009727478,Fri Sep 19 2025 16:32:43 GMT-0500 (Central Daylight Time),362001.5,A,w,I,w,188,2,199.60000014305115,361801.89999985695,8048,WL,B,11.0
3,19.16000008583069,learn,40839.99991416931,Fri Sep 19 2025 16:32:43 GMT-0500 (Central Daylight Time),362084.89999985695,A,wi,I,i,77,2,283.0,361801.89999985695,8048,WL,B,11.0
3,19.89299988746643,learn,40107.00011253357,Fri Sep 19 2025 16:32:43 GMT-0500 (Central Daylight Time),362818.09999990463,A,win,I,n,713,2,1016.2000000476837,361801.89999985695,8048,WL,B,11.0
3,21.193000078201294,learn,38806.999921798706,Fri Sep 19 2025 16:32:43 GMT-0500 (Central Daylight Time),364117.2999999523,A,wi,I,backspace,1283,2,2315.4000000953674,361801.89999985695,8048,WL,B,11.0
3,21.358999967575073,learn,38641.00003242493,Fri Sep 19 2025 16:32:43 GMT-0500 (Central Daylight Time),364284.0,A,w,I,backspace,152,2,2482.100000143051,361801.89999985695,8048,WL,B,11.0
3,21.493000030517578,learn,38506.99996948242,Fri Sep 19 2025 16:32:43 GMT-0500 (Central Daylight Time),364417.39999985695,A,,I,backspace,114,2,2615.5,361801.89999985695,8048,WL,B,11.0
3,21.908999919891357,learn,38091.00008010864,Fri Sep 19 2025 16:32:43 GMT-0500 (Central Daylight Time),364833.89999985695,A,c,I,c,396,2,3032.0,361801.89999985695,8048,WL,B,11.0
3,22.026000022888184,learn,37973.99997711182,Fri Sep 19 2025 16:32:43 GMT-0500 (Central Daylight Time),364950.39999985695,A,cl,I,l,100,2,3148.5,361801.89999985695,8048,WL,B,11.0
3,22.175999879837036,learn,37824.000120162964,Fri Sep 19 2025 16:32:43 GMT-0500 (Central Daylight Time),365100.39999985695,A,clo,I,o,135,2,3298.5,361801.89999985695,8048,WL,B,11.0
3,22.509000062942505,learn,37490.999937057495,Fri Sep 19 2025 16:32:43 GMT-0500 (Central Daylight Time),365433.7000000477,A,cloc,I,c,313,2,3631.800000190735,361801.89999985695,8048,WL,B,11.0
3,22.592000007629395,learn,37407.999992370605,Fri Sep 19 2025 16:32:43 GMT-0500 (Central Daylight Time),365517.2000000477,A,clock,I,k,68,2,3715.300000190735,361801.89999985695,8048,WL,B,11.0
3,23.64199995994568,learn,36358.00004005432,Fri Sep 19 2025 16:32:43 GMT-0500 (Central Daylight Time),366566.7999999523,A,clockenter,I,enter,1033,2,4764.900000095367,361801.89999985695,8048,WL,B,11.0
3,23.941999912261963,learn,36058.00008773804,Fri Sep 19 2025 16:32:43 GMT-0500 (Central Daylight Time),366866.89999985695,A,l,I,l,288,2,299.69999980926514,366567.2000000477,8048,WL,B,12.0
3,24.092000007629395,learn,35907.999992370605,Fri Sep 19 2025 16:32:43 GMT-0500 (Central Daylight Time),367016.59999990463,A,la,I,a,132,2,449.39999985694885,366567.2000000477,8048,WL,B,12.0
3,24.441999912261963,learn,35558.00008773804,Fri Sep 19 2025 16:32:43 GMT-0500 (Central Daylight Time),367366.2000000477,A,lak,I,k,341,2,799.0,366567.2000000477,8048,WL,B,12.0
3,24.60800004005432,learn,35391.99995994568,Fri Sep 19 2025 16:32:43 GMT-0500 (Central Daylight Time),367533.09999990463,A,lake,I,e,160,2,965.8999998569489,366567.2000000477,8048,WL,B,12.0
3,25.02500009536743,learn,34974.99990463257,Fri Sep 19 2025 16:32:43 GMT-0500 (Central Daylight Time),367949.59999990463,A,lakeenter,I,enter,400,2,1382.3999998569489,366567.2000000477,8048,WL,B,12.0
3,26.20799994468689,learn,33792.00005531311,Fri Sep 19 2025 16:32:43 GMT-0500 (Central Daylight Time),369132.2999999523,A,p,I,p,1168,2,1182.4000000953674,367949.89999985695,8048,WL,B,13.0
3,26.374000072479248,learn,33625.99992752075,Fri Sep 19 2025 16:32:43 GMT-0500 (Central Daylight Time),369298.89999985695,A,pi,I,i,161,2,1349.0,367949.89999985695,8048,WL,B,13.0
3,26.591000080108643,learn,33408.99991989136,Fri Sep 19 2025 16:32:43 GMT-0500 (Central Daylight Time),369515.89999985695,A,pip,I,p,202,2,1566.0,367949.89999985695,8048,WL,B,13.0
3,27.073999881744385,learn,32926.000118255615,Fri Sep 19 2025 16:32:43 GMT-0500 (Central Daylight Time),369999.09999990463,A,pipe,I,e,475,2,2049.2000000476837,367949.89999985695,8048,WL,B,13.0
3,27.45799994468689,learn,32542.00005531311,Fri Sep 19 2025 16:32:43 GMT-0500 (Central Daylight Time),370382.2999999523,A,pipeenter,I,enter,366,2,2432.4000000953674,367949.89999985695,8048,WL,B,13.0
3,29.573999881744385,learn,30426.000118255615,Fri Sep 19 2025 16:32:43 GMT-0500 (Central Daylight Time),372498.2999999523,A,c,I,c,2103,2,2115.7000000476837,370382.59999990463,8048,WL,B,14.0
3,29.60699987411499,learn,30393.00012588501,Fri Sep 19 2025 16:32:43 GMT-0500 (Central Daylight Time),372531.2000000477,A,cl,I,l,27,2,2148.600000143051,370382.59999990463,8048,WL,B,14.0
3,29.806999921798706,learn,30193.000078201294,Fri Sep 19 2025 16:32:43 GMT-0500 (Central Daylight Time),372731.89999985695,A,clo,I,o,187,2,2349.2999999523163,370382.59999990463,8048,WL,B,14.0
3,30.17300009727478,learn,29826.99990272522,Fri Sep 19 2025 16:32:43 GMT-0500 (Central Daylight Time),373098.0,A,cloc,I,c,346,2,2715.4000000953674,370382.59999990463,8048,WL,B,14.0
3,30.256999969482422,learn,29743.000030517578,Fri Sep 19 2025 16:32:43 GMT-0500 (Central Daylight Time),373181.59999990463,A,clock,I,k,68,2,2799.0,370382.59999990463,8048,WL,B,14.0
3,30.789999961853027,learn,29210.000038146973,Fri Sep 19 2025 16:32:43 GMT-0500 (Central Daylight Time),373714.5,A,clockenter,I,enter,520,2,3331.9000000953674,370382.59999990463,8048,WL,B,14.0
3,31.58999991416931,learn,28410.00008583069,Fri Sep 19 2025 16:32:43 GMT-0500 (Central Daylight Time),374514.5,A,w,I,w,787,2,799.6000001430511,373714.89999985695,8048,WL,B,15.0
3,31.655999898910522,learn,28344.000101089478,Fri Sep 19 2025 16:32:43 GMT-0500 (Central Daylight Time),374580.7999999523,A,wi,I,i,60,2,865.9000000953674,373714.89999985695,8048,WL,B,15.0
3,31.822999954223633,learn,28177.000045776367,Fri Sep 19 2025 16:32:43 GMT-0500 (Central Daylight Time),374747.2999999523,A,win,I,n,153,2,1032.4000000953674,373714.89999985695,8048,WL,B,15.0
3,32.00600004196167,learn,27993.99995803833,Fri Sep 19 2025 16:32:43 GMT-0500 (Central Daylight Time),374930.7999999523,A,wind,I,d,171,2,1215.9000000953674,373714.89999985695,8048,WL,B,15.0
3,32.35599994659424,learn,27644.00005340576,Fri Sep 19 2025 16:32:43 GMT-0500 (Central Daylight Time),375280.5,A,windo,I,o,340,2,1565.6000001430511,373714.89999985695,8048,WL,B,15.0
3,32.43899989128113,learn,27561.000108718872,Fri Sep 19 2025 16:32:43 GMT-0500 (Central Daylight Time),375364.0,A,window,I,w,70,2,1649.1000001430511,373714.89999985695,8048,WL,B,15.0
3,32.789000034332275,learn,27210.999965667725,Fri Sep 19 2025 16:32:43 GMT-0500 (Central Daylight Time),375713.89999985695,A,windowenter,I,enter,330,2,1999.0,373714.89999985695,8048,WL,B,15.0
4,1.6489999294281006,learn,58351.0000705719,Fri Sep 19 2025 16:32:43 GMT-0500 (Central Daylight Time),444275.5,A,s,I,s,1644,2,1649.1000001430511,442626.39999985695,8048,WL,B,1.0
4,1.8489999771118164,learn,58151.00002288818,Fri Sep 19 2025 16:32:43 GMT-0500 (Central Daylight Time),444475.7000000477,A,st,I,t,186,2,1849.3000001907349,442626.39999985695,8048,WL,B,1.0
4,2.0160000324249268,learn,57983.99996757507,Fri Sep 19 2025 16:32:43 GMT-0500 (Central Daylight Time),444642.39999985695,A,str,I,r,148,2,2016.0,442626.39999985695,8048,WL,B,1.0
4,2.0989999771118164,learn,57901.00002288818,Fri Sep 19 2025 16:32:43 GMT-0500 (Central Daylight Time),444725.2999999523,A,stre,I,e,68,2,2098.9000000953674,442626.39999985695,8048,WL,B,1.0
4,2.2820000648498535,learn,57717.99993515015,Fri Sep 19 2025 16:32:43 GMT-0500 (Central Daylight Time),444908.89999985695,A,stree,I,e,177,2,2282.5,442626.39999985695,8048,WL,B,1.0
4,2.4649999141693115,learn,57535.00008583069,Fri Sep 19 2025 16:32:43 GMT-0500 (Central Daylight Time),445091.7999999523,A,street,I,t,177,2,2465.4000000953674,442626.39999985695,8048,WL,B,1.0
4,2.765000104904175,learn,57234.999895095825,Fri Sep 19 2025 16:32:43 GMT-0500 (Central Daylight Time),445391.89999985695,A,streetenter,I,enter,281,2,2765.5,442626.39999985695,8048,WL,B,1.0
4,3.4820001125335693,learn,56517.99988746643,Fri Sep 19 2025 16:32:43 GMT-0500 (Central Daylight Time),446108.39999985695,A,g,I,g,711,2,716.0999999046326,445392.2999999523,8048,WL,B,2.0
4,3.6649999618530273,learn,56335.00003814697,Fri Sep 19 2025 16:32:43 GMT-0500 (Central Daylight Time),446291.5,A,gr,I,r,169,2,899.2000000476837,445392.2999999523,8048,WL,B,2.0
4,3.765000104904175,learn,56234.999895095825,Fri Sep 19 2025 16:32:43 GMT-0500 (Central Daylight Time),446391.89999985695,A,gra,I,a,91,2,999.5999999046326,445392.2999999523,8048,WL,B,2.0
4,4.04800009727478,learn,55951.99990272522,Fri Sep 19 2025 16:32:43 GMT-0500 (Central Daylight Time),446674.89999985695,A,gras,I,s,261,2,1282.5999999046326,445392.2999999523,8048,WL,B,2.0
4,4.197999954223633,learn,55802.00004577637,Fri Sep 19 2025 16:32:43 GMT-0500 (Central Daylight Time),446824.89999985695,A,grass,I,s,139,2,1432.5999999046326,445392.2999999523,8048,WL,B,2.0
4,4.365000009536743,learn,55634.99999046326,Fri Sep 19 2025 16:32:43 GMT-0500 (Central Daylight Time),446991.39999985695,A,grassenter,I,enter,158,2,1599.0999999046326,445392.2999999523,8048,WL,B,2.0
4,4.565000057220459,learn,55434.99994277954,Fri Sep 19 2025 16:32:43 GMT-0500 (Central Daylight Time),447191.2999999523,A,d,I,d,183,2,199.5,446991.7999999523,8048,WL,B,3.0
4,4.680999994277954,learn,55319.000005722046,Fri Sep 19 2025 16:32:43 GMT-0500 (Central Daylight Time),447308.09999990463,A,do,I,o,103,2,316.2999999523163,446991.7999999523,8048,WL,B,3.0
4,4.831000089645386,learn,55168.999910354614,Fri Sep 19 2025 16:32:43 GMT-0500 (Central Daylight Time),447458.0,A,doo,I,o,138,2,466.2000000476837,446991.7999999523,8048,WL,B,3.0
4,4.947999954223633,learn,55052.00004577637,Fri Sep 19 2025 16:32:43 GMT-0500 (Central Daylight Time),447574.5,A,door,I,r,108,2,582.7000000476837,446991.7999999523,8048,WL,B,3.0
4,5.265000104904175,learn,54734.999895095825,Fri Sep 19 2025 16:32:43 GMT-0500 (Central Daylight Time),447891.39999985695,A,doorenter,I,enter,304,2,899.5999999046326,446991.7999999523,8048,WL,B,3.0
4,5.947999954223633,learn,54052.00004577637,Fri Sep 19 2025 16:32:43 GMT-0500 (Central Daylight Time),448574.5,A,s,I,s,674,2,682.7999999523163,447891.7000000477,8048,WL,B,4.0
4,6.313999891281128,learn,53686.00010871887,Fri Sep 19 2025 16:32:43 GMT-0500 (Central Daylight Time),448941.09999990463,A,st,I,t,351,2,1049.3999998569489,447891.7000000477,8048,WL,B,4.0
4,6.430999994277954,learn,53569.000005722046,Fri Sep 19 2025 16:32:43 GMT-0500 (Central Daylight Time),449057.39999985695,A,sta,I,a,104,2,1165.6999998092651,447891.7000000477,8048,WL,B,4.0
4,6.54800009727478,learn,53451.99990272522,Fri Sep 19 2025 16:32:43 GMT-0500 (Central Daylight Time),449174.2000000477,A,star,I,r,109,2,1282.5,447891.7000000477,8048,WL,B,4.0
4,6.88100004196167,learn,53118.99995803833,Fri Sep 19 2025 16:32:43 GMT-0500 (Central Daylight Time),449507.2000000477,A,starenter,I,enter,312,2,1615.5,447891.7000000477,8048,WL,B,4.0
4,7.2820000648498535,learn,52717.99993515015,Fri Sep 19 2025 16:32:43 GMT-0500 (Central Daylight Time),449908.2999999523,A,w,I,w,394,2,400.7999999523163,449507.5,8048,WL,B,5.0
4,7.496999979019165,learn,52503.000020980835,Fri Sep 19 2025 16:32:43 GMT-0500 (Central Daylight Time),450123.7999999523,A,wi,I,i,202,2,616.2999999523163,449507.5,8048,WL,B,5.0
4,7.614000082015991,learn,52385.99991798401,Fri Sep 19 2025 16:32:43 GMT-0500 (Central Daylight Time),450240.59999990463,A,wif,I,f,106,2,733.0999999046326,449507.5,8048,WL,B,5.0
4,7.813999891281128,learn,52186.00010871887,Fri Sep 19 2025 16:32:43 GMT-0500 (Central Daylight Time),450440.59999990463,A,wife,I,e,190,2,933.0999999046326,449507.5,8048,WL,B,5.0
4,8.180000066757202,learn,51819.9999332428,Fri Sep 19 2025 16:32:43 GMT-0500 (Central Daylight Time),450807.09999990463,A,wifeenter,I,enter,358,2,1299.5999999046326,449507.5,8048,WL,B,5.0
4,12.395999908447266,learn,47604.000091552734,Fri Sep 19 2025 16:32:43 GMT-0500 (Central Daylight Time),455022.59999990463,A,w,I,w,4200,2,4215.200000047684,450807.39999985695,8048,WL,B,6.0
4,12.479000091552734,learn,47520.999908447266,Fri Sep 19 2025 16:32:43 GMT-0500 (Central Daylight Time),455105.7000000477,A,wi,I,i,62,2,4298.300000190735,450807.39999985695,8048,WL,B,6.0
4,12.628999948501587,learn,47371.00005149841,Fri Sep 19 2025 16:32:43 GMT-0500 (Central Daylight Time),455255.7000000477,A,win,I,n,140,2,4448.300000190735,450807.39999985695,8048,WL,B,6.0
4,12.746000051498413,learn,47253.99994850159,Fri Sep 19 2025 16:32:43 GMT-0500 (Central Daylight Time),455373.09999990463,A,wind,I,d,110,2,4565.700000047684,450807.39999985695,8048,WL,B,6.0
4,13.062000036239624,learn,46937.999963760376,Fri Sep 19 2025 16:32:43 GMT-0500 (Central Daylight Time),455688.7999999523,A,windo,I,o,305,2,4881.400000095367,450807.39999985695,8048,WL,B,6.0
4,13.229000091552734,learn,46770.999908447266,Fri Sep 19 2025 16:32:43 GMT-0500 (Central Daylight Time),455855.2999999523,A,window,I,w,149,2,5047.900000095367,450807.39999985695,8048,WL,B,6.0
4,14.795000076293945,learn,45204.999923706055,Fri Sep 19 2025 16:32:43 GMT-0500 (Central Daylight Time),457421.7999999523,A,windowenter,I,enter,1558,2,6614.400000095367,450807.39999985695,8048,WL,B,6.0
4,16.194999933242798,learn,43805.0000667572,Fri Sep 19 2025 16:32:43 GMT-0500 (Central Daylight Time),458821.2000000477,A,c,I,c,1385,2,1399.2000000476837,457422.0,8048,WL,B,7.0
4,16.311000108718872,learn,43688.99989128113,Fri Sep 19 2025 16:32:43 GMT-0500 (Central Daylight Time),458937.89999985695,A,ci,I,i,96,2,1515.8999998569489,457422.0,8048,WL,B,7.0
4,16.49500012397766,learn,43504.99987602234,Fri Sep 19 2025 16:32:43 GMT-0500 (Central Daylight Time),459121.2000000477,A,cit,I,t,164,2,1699.2000000476837,457422.0,8048,WL,B,7.0
4,16.561000108718872,learn,43438.99989128113,Fri Sep 19 2025 16:32:43 GMT-0500 (Central Daylight Time),459187.5,A,city,I,y,62,2,1765.5,457422.0,8048,WL,B,7.0
4,16.878000020980835,learn,43121.999979019165,Fri Sep 19 2025 16:32:43 GMT-0500 (Central Daylight Time),459504.2000000477,A,cityenter,I,enter,299,2,2082.2000000476837,457422.0,8048,WL,B,7.0
4,17.344000101089478,learn,42655.99989891052,Fri Sep 19 2025 16:32:43 GMT-0500 (Central Daylight Time),459970.7999999523,A,p,I,p,455,2,466.40000009536743,459504.39999985695,8048,WL,B,8.0
4,17.47699999809265,learn,42523.00000190735,Fri Sep 19 2025 16:32:43 GMT-0500 (Central Daylight Time),460104.0,A,pu,I,u,116,2,599.6000001430511,459504.39999985695,8048,WL,B,8.0
4,17.66100001335144,learn,42338.99998664856,Fri Sep 19 2025 16:32:43 GMT-0500 (Central Daylight Time),460287.39999985695,A,pup,I,p,174,2,783.0,459504.39999985695,8048,WL,B,8.0
4,18.01099991798401,learn,41989.00008201599,Fri Sep 19 2025 16:32:43 GMT-0500 (Central Daylight Time),460637.2999999523,A,pupi,I,i,342,2,1132.9000000953674,459504.39999985695,8048,WL,B,8.0
4,18.24399995803833,learn,41756.00004196167,Fri Sep 19 2025 16:32:43 GMT-0500 (Central Daylight Time),460870.2999999523,A,pupil,I,l,224,2,1365.9000000953674,459504.39999985695,8048,WL,B,8.0
4,18.677000045776367,learn,41322.99995422363,Fri Sep 19 2025 16:32:43 GMT-0500 (Central Daylight Time),461303.59999990463,A,pupilenter,I,enter,415,2,1799.2000000476837,459504.39999985695,8048,WL,B,8.0
4,19.22699999809265,learn,40773.00000190735,Fri Sep 19 2025 16:32:43 GMT-0500 (Central Daylight Time),461853.5,A,p,I,p,542,2,549.6000001430511,461303.89999985695,8048,WL,B,9.0
4,19.41000008583069,learn,40589.99991416931,Fri Sep 19 2025 16:32:43 GMT-0500 (Central Daylight Time),462036.7999999523,A,pi,I,i,169,2,732.9000000953674,461303.89999985695,8048,WL,B,9.0
4,19.609999895095825,learn,40390.000104904175,Fri Sep 19 2025 16:32:43 GMT-0500 (Central Daylight Time),462236.7000000477,A,pip,I,p,193,2,932.8000001907349,461303.89999985695,8048,WL,B,9.0
4,19.82699990272522,learn,40173.00009727478,Fri Sep 19 2025 16:32:43 GMT-0500 (Central Daylight Time),462453.2999999523,A,pipe,I,e,202,2,1149.4000000953674,461303.89999985695,8048,WL,B,9.0
4,20.66000008583069,learn,39339.99991416931,Fri Sep 19 2025 16:32:43 GMT-0500 (Central Daylight Time),463286.5,A,pipeenter,I,enter,825,2,1982.6000001430511,461303.89999985695,8048,WL,B,9.0
4,21.193000078201294,learn,38806.999921798706,Fri Sep 19 2025 16:32:43 GMT-0500 (Central Daylight Time),463819.39999985695,A,s,I,s,520,2,532.5999999046326,463286.7999999523,8048,WL,B,10.0
4,21.358999967575073,learn,38641.00003242493,Fri Sep 19 2025 16:32:43 GMT-0500 (Central Daylight Time),463986.0,A,sk,I,k,146,2,699.2000000476837,463286.7999999523,8048,WL,B,10.0
4,21.542999982833862,learn,38457.00001716614,Fri Sep 19 2025 16:32:43 GMT-0500 (Central Daylight Time),464169.2999999523,A,ski,I,i,163,2,882.5,463286.7999999523,8048,WL,B,10.0
4,21.89300012588501,learn,38106.99987411499,Fri Sep 19 2025 16:32:43 GMT-0500 (Central Daylight Time),464519.39999985695,A,skin,I,n,333,2,1232.5999999046326,463286.7999999523,8048,WL,B,10.0
4,22.575999975204468,learn,37424.00002479553,Fri Sep 19 2025 16:32:43 GMT-0500 (Central Daylight Time),465202.2999999523,A,skinenter,I,enter,663,2,1915.5,463286.7999999523,8048,WL,B,10.0
4,23.55900001525879,learn,36440.99998474121,Fri Sep 19 2025 16:32:43 GMT-0500 (Central Daylight Time),466185.7000000477,A,c,I,c,972,2,983.1000001430511,465202.59999990463,8048,WL,B,11.0
4,24.14199995994568,learn,35858.00004005432,Fri Sep 19 2025 16:32:43 GMT-0500 (Central Daylight Time),466768.89999985695,A,ca,I,a,564,2,1566.2999999523163,465202.59999990463,8048,WL,B,11.0
4,24.27500009536743,learn,35724.99990463257,Fri Sep 19 2025 16:32:43 GMT-0500 (Central Daylight Time),466901.89999985695,A,cab,I,b,117,2,1699.2999999523163,465202.59999990463,8048,WL,B,11.0
4,24.492000102996826,learn,35507.999897003174,Fri Sep 19 2025 16:32:43 GMT-0500 (Central Daylight Time),467118.5,A,cabi,I,i,201,2,1915.9000000953674,465202.59999990463,8048,WL,B,11.0
4,24.55900001525879,learn,35440.99998474121,Fri Sep 19 2025 16:32:43 GMT-0500 (Central Daylight Time),467185.2000000477,A,cabin,I,n,56,2,1982.6000001430511,465202.59999990463,8048,WL,B,11.0
4,25.691999912261963,learn,34308.00008773804,Fri Sep 19 2025 16:32:43 GMT-0500 (Central Daylight Time),468318.39999985695,A,cabinenter,I,enter,1117,2,3115.7999999523163,465202.59999990463,8048,WL,B,11.0
4,26.374000072479248,learn,33625.99992752075,Fri Sep 19 2025 16:32:43 GMT-0500 (Central Daylight Time),469001.0,A,a,I,a,671,2,682.2999999523163,468318.7000000477,8048,WL,B,12.0
4,26.507999897003174,learn,33492.000102996826,Fri Sep 19 2025 16:32:43 GMT-0500 (Central Daylight Time),469134.5,A,ar,I,r,116,2,815.7999999523163,468318.7000000477,8048,WL,B,12.0
4,27.141000032424927,learn,32858.99996757507,Fri Sep 19 2025 16:32:43 GMT-0500 (Central Daylight Time),469767.5,A,a,I,backspace,615,2,1448.7999999523163,468318.7000000477,8048,WL,B,12.0
4,27.29099988937378,learn,32709.00011062622,Fri Sep 19 2025 16:32:43 GMT-0500 (Central Daylight Time),469917.7000000477,A,,I,backspace,142,2,1599.0,468318.7000000477,8048,WL,B,12.0
4,29.490000009536743,learn,30509.999990463257,Fri Sep 19 2025 16:32:43 GMT-0500 (Central Daylight Time),472117.0,A,f,I,f,2192,2,3798.2999999523163,468318.7000000477,8048,WL,B,12.0
4,29.574000120162964,learn,30425.999879837036,Fri Sep 19 2025 16:32:43 GMT-0500 (Central Daylight Time),472200.5,A,fi,I,i,66,2,3881.7999999523163,468318.7000000477,8048,WL,B,12.0
4,29.723999977111816,learn,30276.000022888184,Fri Sep 19 2025 16:32:43 GMT-0500 (Central Daylight Time),472350.5,A,fir,I,r,133,2,4031.7999999523163,468318.7000000477,8048,WL,B,12.0
4,29.789999961853027,learn,30210.000038146973,Fri Sep 19 2025 16:32:43 GMT-0500 (Central Daylight Time),472417.09999990463,A,fire,I,e,56,2,4098.399999856949,468318.7000000477,8048,WL,B,12.0
4,30.806999921798706,learn,29193.000078201294,Fri Sep 19 2025 16:32:43 GMT-0500 (Central Daylight Time),473433.2999999523,A,fireenter,I,enter,1004,2,5114.599999904633,468318.7000000477,8048,WL,B,12.0
4,31.17300009727478,learn,28826.99990272522,Fri Sep 19 2025 16:32:43 GMT-0500 (Central Daylight Time),473799.89999985695,A,l,I,l,349,2,366.2999999523163,473433.59999990463,8048,WL,B,13.0
4,31.256999969482422,learn,28743.000030517578,Fri Sep 19 2025 16:32:43 GMT-0500 (Central Daylight Time),473883.2000000477,A,la,I,a,71,2,449.60000014305115,473433.59999990463,8048,WL,B,13.0
4,31.50600004196167,learn,28493.99995803833,Fri Sep 19 2025 16:32:43 GMT-0500 (Central Daylight Time),474133.0,A,lak,I,k,243,2,699.4000000953674,473433.59999990463,8048,WL,B,13.0
4,31.60700011253357,learn,28392.99988746643,Fri Sep 19 2025 16:32:43 GMT-0500 (Central Daylight Time),474233.2000000477,A,lake,I,e,81,2,799.6000001430511,473433.59999990463,8048,WL,B,13.0
4,31.872999906539917,learn,28127.000093460083,Fri Sep 19 2025 16:32:43 GMT-0500 (Central Daylight Time),474499.89999985695,A,lakeenter,I,enter,252,2,1066.2999999523163,473433.59999990463,8048,WL,B,13.0
4,33.055999994277954,learn,26944.000005722046,Fri Sep 19 2025 16:32:43 GMT-0500 (Central Daylight Time),475682.39999985695,A,c,I,c,1163,2,1182.1999998092651,474500.2000000477,8048,WL,B,14.0
4,33.10599994659424,learn,26894.00005340576,Fri Sep 19 2025 16:32:43 GMT-0500 (Central Daylight Time),475732.2000000477,A,cl,I,l,35,2,1232.0,474500.2000000477,8048,WL,B,14.0
4,33.32299995422363,learn,26677.000045776367,Fri Sep 19 2025 16:32:43 GMT-0500 (Central Daylight Time),475949.2000000477,A,clo,I,o,210,2,1449.0,474500.2000000477,8048,WL,B,14.0
4,33.5220000743866,learn,26477.999925613403,Fri Sep 19 2025 16:32:43 GMT-0500 (Central Daylight Time),476148.89999985695,A,cloc,I,c,184,2,1648.6999998092651,474500.2000000477,8048,WL,B,14.0
4,33.638999938964844,learn,26361.000061035156,Fri Sep 19 2025 16:32:43 GMT-0500 (Central Daylight Time),476265.89999985695,A,clock,I,k,97,2,1765.6999998092651,474500.2000000477,8048,WL,B,14.0
4,34.289000034332275,learn,25710.999965667725,Fri Sep 19 2025 16:32:43 GMT-0500 (Central Daylight Time),476915.5,A,clockenter,I,enter,637,2,2415.2999999523163,474500.2000000477,8048,WL,B,14.0
4,60.01300001144409,learn,-13.000011444091797,Fri Sep 19 2025 16:32:43 GMT-0500 (Central Daylight Time),502640.7999999523,A,None,I,None,25721,2,25725.0,476915.7999999523,8048,WL,B,15.0
5,0.7660000324249268,learn,60000.0,Fri Sep 19 2025 16:32:43 GMT-0500 (Central Daylight Time),567937.2999999523,A,s,I,s,748,2,766.0999999046326,567171.2000000477,8048,WL,B,1.0
5,1.0989999771118164,learn,60000.0,Fri Sep 19 2025 16:32:43 GMT-0500 (Central Daylight Time),568270.2000000477,A,st,I,t,316,2,1099.0,567171.2000000477,8048,WL,B,1.0
5,1.2650001049041748,learn,60000.0,Fri Sep 19 2025 16:32:43 GMT-0500 (Central Daylight Time),568436.7999999523,A,str,I,r,160,2,1265.5999999046326,567171.2000000477,8048,WL,B,1.0
5,1.3489999771118164,learn,60000.0,Fri Sep 19 2025 16:32:43 GMT-0500 (Central Daylight Time),568520.0999999046,A,stre,I,e,66,2,1348.8999998569489,567171.2000000477,8048,WL,B,1.0
5,1.5320000648498535,learn,60000.0,Fri Sep 19 2025 16:32:43 GMT-0500 (Central Daylight Time),568703.399999857,A,stree,I,e,167,2,1532.1999998092651,567171.2000000477,8048,WL,B,1.0
5,1.6990001201629639,learn,60000.0,Fri Sep 19 2025 16:32:43 GMT-0500 (Central Daylight Time),568870.0999999046,A,street,I,t,150,2,1698.8999998569489,567171.2000000477,8048,WL,B,1.0
5,2.0310001373291016,learn,60000.0,Fri Sep 19 2025 16:32:43 GMT-0500 (Central Daylight Time),569203.0,A,streetenter,I,enter,321,2,2031.7999999523163,567171.2000000477,8048,WL,B,1.0
5,3.3310000896453857,learn,60000.0,Fri Sep 19 2025 16:32:43 GMT-0500 (Central Daylight Time),570502.5999999046,A,g,I,g,1291,2,1299.2999999523163,569203.2999999523,8048,WL,B,2.0
5,3.515000104904175,learn,60000.0,Fri Sep 19 2025 16:32:43 GMT-0500 (Central Daylight Time),570686.0999999046,A,gr,I,r,168,2,1482.7999999523163,569203.2999999523,8048,WL,B,2.0
5,3.6649999618530273,learn,60000.0,Fri Sep 19 2025 16:32:43 GMT-0500 (Central Daylight Time),570836.0,A,gra,I,a,136,2,1632.7000000476837,569203.2999999523,8048,WL,B,2.0
5,3.8980000019073486,learn,60000.0,Fri Sep 19 2025 16:32:43 GMT-0500 (Central Daylight Time),571069.2999999523,A,gras,I,s,217,2,1866.0,569203.2999999523,8048,WL,B,2.0
5,4.031000137329102,learn,60000.0,Fri Sep 19 2025 16:32:43 GMT-0500 (Central Daylight Time),571202.2999999523,A,grass,I,s,128,2,1999.0,569203.2999999523,8048,WL,B,2.0
5,4.331000089645386,learn,60000.0,Fri Sep 19 2025 16:32:43 GMT-0500 (Central Daylight Time),571502.5,A,grassenter,I,enter,292,2,2299.2000000476837,569203.2999999523,8048,WL,B,2.0
5,5.364000082015991,learn,60000.0,Fri Sep 19 2025 16:32:43 GMT-0500 (Central Daylight Time),572535.2999999523,A,a,I,a,1023,2,1032.5,571502.7999999523,8048,WL,B,3.0
5,6.246999979019165,learn,60000.0,Fri Sep 19 2025 16:32:43 GMT-0500 (Central Daylight Time),573418.2000000477,A,,I,backspace,870,2,1915.4000000953674,571502.7999999523,8048,WL,B,3.0
5,6.329999923706055,learn,60000.0,Fri Sep 19 2025 16:32:43 GMT-0500 (Central Daylight Time),573501.5,A,d,I,d,68,2,1998.7000000476837,571502.7999999523,8048,WL,B,3.0
5,6.513000011444092,learn,60000.0,Fri Sep 19 2025 16:32:43 GMT-0500 (Central Daylight Time),573684.7999999523,A,do,I,o,168,2,2182.0,571502.7999999523,8048,WL,B,3.0
5,6.680000066757202,learn,60000.0,Fri Sep 19 2025 16:32:43 GMT-0500 (Central Daylight Time),573851.5999999046,A,doo,I,o,153,2,2348.7999999523163,571502.7999999523,8048,WL,B,3.0
5,6.796999931335449,learn,60000.0,Fri Sep 19 2025 16:32:43 GMT-0500 (Central Daylight Time),573968.0999999046,A,door,I,r,105,2,2465.2999999523163,571502.7999999523,8048,WL,B,3.0
5,6.980000019073486,learn,60000.0,Fri Sep 19 2025 16:32:43 GMT-0500 (Central Daylight Time),574151.2000000477,A,doorenter,I,enter,164,2,2648.4000000953674,571502.7999999523,8048,WL,B,3.0
5,7.196000099182129,learn,60000.0,Fri Sep 19 2025 16:32:43 GMT-0500 (Central Daylight Time),574367.7999999523,A,a,I,a,206,2,216.20000004768372,574151.5999999046,8048,WL,B,4.0
5,7.296000003814697,learn,60000.0,Fri Sep 19 2025 16:32:43 GMT-0500 (Central Daylight Time),574467.7999999523,A,ar,I,r,93,2,316.2000000476837,574151.5999999046,8048,WL,B,4.0
5,7.579999923706055,learn,60000.0,Fri Sep 19 2025 16:32:43 GMT-0500 (Central Daylight Time),574751.0,A,arm,I,m,266,2,599.4000000953674,574151.5999999046,8048,WL,B,4.0
5,8.02999997138977,learn,60000.0,Fri Sep 19 2025 16:32:43 GMT-0500 (Central Daylight Time),575201.0999999046,A,armenter,I,enter,430,2,1049.5,574151.5999999046,8048,WL,B,4.0
5,9.496000051498413,learn,60000.0,Fri Sep 19 2025 16:32:43 GMT-0500 (Central Daylight Time),576667.0999999046,A,s,I,s,1452,2,1465.7999999523163,575201.2999999523,8048,WL,B,5.0
5,9.67900013923645,learn,60000.0,Fri Sep 19 2025 16:32:43 GMT-0500 (Central Daylight Time),576850.7999999523,A,st,I,t,179,2,1649.5,575201.2999999523,8048,WL,B,5.0
5,9.86299991607666,learn,60000.0,Fri Sep 19 2025 16:32:43 GMT-0500 (Central Daylight Time),577034.2999999523,A,sta,I,a,172,2,1833.0,575201.2999999523,8048,WL,B,5.0
5,9.996000051498413,learn,60000.0,Fri Sep 19 2025 16:32:43 GMT-0500 (Central Daylight Time),577167.2000000477,A,star,I,r,124,2,1965.9000000953674,575201.2999999523,8048,WL,B,5.0
5,10.529000043869019,learn,60000.0,Fri Sep 19 2025 16:32:43 GMT-0500 (Central Daylight Time),577700.7999999523,A,starenter,I,enter,526,2,2499.5,575201.2999999523,8048,WL,B,5.0
5,12.212000131607056,learn,60000.0,Fri Sep 19 2025 16:32:43 GMT-0500 (Central Daylight Time),579383.2999999523,A,w,I,w,1673,2,1682.2000000476837,577701.0999999046,8048,WL,B,6.0
5,12.42799997329712,learn,60000.0,Fri Sep 19 2025 16:32:43 GMT-0500 (Central Daylight Time),579600.0,A,wi,I,i,199,2,1898.9000000953674,577701.0999999046,8048,WL,B,6.0
5,12.59500002861023,learn,60000.0,Fri Sep 19 2025 16:32:43 GMT-0500 (Central Daylight Time),579766.399999857,A,wif,I,f,150,2,2065.2999999523163,577701.0999999046,8048,WL,B,6.0
5,12.861999988555908,learn,60000.0,Fri Sep 19 2025 16:32:43 GMT-0500 (Central Daylight Time),580033.0999999046,A,wife,I,e,247,2,2332.0,577701.0999999046,8048,WL,B,6.0
5,13.111000061035156,learn,60000.0,Fri Sep 19 2025 16:32:43 GMT-0500 (Central Daylight Time),580282.899999857,A,wifeenter,I,enter,245,2,2581.7999999523163,577701.0999999046,8048,WL,B,6.0
5,18.342999935150146,learn,60000.0,Fri Sep 19 2025 16:32:43 GMT-0500 (Central Daylight Time),585514.7999999523,A,c,I,c,5212,2,5231.700000047684,580283.0999999046,8048,WL,B,7.0
5,19.125999927520752,learn,60000.0,Fri Sep 19 2025 16:32:43 GMT-0500 (Central Daylight Time),586297.7999999523,A,,I,backspace,763,2,6014.700000047684,580283.0999999046,8048,WL,B,7.0
5,19.426000118255615,learn,60000.0,Fri Sep 19 2025 16:32:43 GMT-0500 (Central Daylight Time),586597.7999999523,A,p,I,p,293,2,6314.700000047684,580283.0999999046,8048,WL,B,7.0
5,19.592999935150146,learn,60000.0,Fri Sep 19 2025 16:32:43 GMT-0500 (Central Daylight Time),586764.2999999523,A,pu,I,u,153,2,6481.200000047684,580283.0999999046,8048,WL,B,7.0
5,19.743000030517578,learn,60000.0,Fri Sep 19 2025 16:32:43 GMT-0500 (Central Daylight Time),586914.5,A,pup,I,p,138,2,6631.400000095367,580283.0999999046,8048,WL,B,7.0
5,20.193000078201294,learn,60000.0,Fri Sep 19 2025 16:32:43 GMT-0500 (Central Daylight Time),587364.2999999523,A,pupi,I,i,436,2,7081.200000047684,580283.0999999046,8048,WL,B,7.0
5,20.342999935150146,learn,60000.0,Fri Sep 19 2025 16:32:43 GMT-0500 (Central Daylight Time),587514.0,A,pupil,I,l,138,2,7230.900000095367,580283.0999999046,8048,WL,B,7.0
5,20.575999975204468,learn,60000.0,Fri Sep 19 2025 16:32:43 GMT-0500 (Central Daylight Time),587747.399999857,A,pupilenter,I,enter,213,2,7464.299999952316,580283.0999999046,8048,WL,B,7.0
5,20.80900001525879,learn,60000.0,Fri Sep 19 2025 16:32:43 GMT-0500 (Central Daylight Time),587980.5,A,c,I,c,219,2,232.79999995231628,587747.7000000477,8048,WL,B,8.0
5,20.89199995994568,learn,60000.0,Fri Sep 19 2025 16:32:43 GMT-0500 (Central Daylight Time),588064.0,A,ci,I,i,74,2,316.2999999523163,587747.7000000477,8048,WL,B,8.0
5,21.075999975204468,learn,60000.0,Fri Sep 19 2025 16:32:43 GMT-0500 (Central Daylight Time),588247.7000000477,A,cit,I,t,166,2,500.0,587747.7000000477,8048,WL,B,8.0
5,21.526000022888184,learn,60000.0,Fri Sep 19 2025 16:32:43 GMT-0500 (Central Daylight Time),588697.5,A,city,I,y,439,2,949.7999999523163,587747.7000000477,8048,WL,B,8.0
5,21.993000030517578,learn,60000.0,Fri Sep 19 2025 16:32:43 GMT-0500 (Central Daylight Time),589164.399999857,A,cityenter,I,enter,460,2,1416.6999998092651,587747.7000000477,8048,WL,B,8.0
5,24.875,learn,60000.0,Fri Sep 19 2025 16:32:43 GMT-0500 (Central Daylight Time),592046.2000000477,A,c,I,c,2874,2,2881.5,589164.7000000477,8048,WL,B,9.0
5,25.008000135421753,learn,60000.0,Fri Sep 19 2025 16:32:43 GMT-0500 (Central Daylight Time),592179.0999999046,A,ca,I,a,127,2,3014.399999856949,589164.7000000477,8048,WL,B,9.0
5,25.141000032424927,learn,60000.0,Fri Sep 19 2025 16:32:43 GMT-0500 (Central Daylight Time),592312.5,A,cab,I,b,123,2,3147.7999999523163,589164.7000000477,8048,WL,B,9.0
5,25.391000032424927,learn,60000.0,Fri Sep 19 2025 16:32:43 GMT-0500 (Central Daylight Time),592562.7000000477,A,cabi,I,i,229,2,3398.0,589164.7000000477,8048,WL,B,9.0
5,25.558000087738037,learn,60000.0,Fri Sep 19 2025 16:32:43 GMT-0500 (Central Daylight Time),592729.2999999523,A,cabin,I,n,156,2,3564.5999999046326,589164.7000000477,8048,WL,B,9.0
5,25.85800004005432,learn,60000.0,Fri Sep 19 2025 16:32:43 GMT-0500 (Central Daylight Time),593029.0,A,cabinenter,I,enter,293,2,3864.2999999523163,589164.7000000477,8048,WL,B,9.0
5,26.10700011253357,learn,60000.0,Fri Sep 19 2025 16:32:43 GMT-0500 (Central Daylight Time),593279.0,A,l,I,l,242,2,249.60000014305115,593029.399999857,8048,WL,B,10.0
5,26.223999977111816,learn,60000.0,Fri Sep 19 2025 16:32:43 GMT-0500 (Central Daylight Time),593395.5999999046,A,la,I,a,104,2,366.2000000476837,593029.399999857,8048,WL,B,10.0
5,26.391000032424927,learn,60000.0,Fri Sep 19 2025 16:32:43 GMT-0500 (Central Daylight Time),593562.2000000477,A,lak,I,k,155,2,532.8000001907349,593029.399999857,8048,WL,B,10.0
5,26.490999937057495,learn,60000.0,Fri Sep 19 2025 16:32:43 GMT-0500 (Central Daylight Time),593662.2000000477,A,lake,I,e,92,2,632.8000001907349,593029.399999857,8048,WL,B,10.0
5,27.44000005722046,learn,60000.0,Fri Sep 19 2025 16:32:43 GMT-0500 (Central Daylight Time),594611.899999857,A,lakeenter,I,enter,936,2,1582.5,593029.399999857,8048,WL,B,10.0
5,28.039999961853027,learn,60000.0,Fri Sep 19 2025 16:32:43 GMT-0500 (Central Daylight Time),595211.7999999523,A,p,I,p,595,2,599.5,594612.2999999523,8048,WL,B,11.0
5,28.17300009727478,learn,60000.0,Fri Sep 19 2025 16:32:43 GMT-0500 (Central Daylight Time),595345.0,A,pi,I,i,115,2,732.7000000476837,594612.2999999523,8048,WL,B,11.0
5,28.2739999294281,learn,60000.0,Fri Sep 19 2025 16:32:43 GMT-0500 (Central Daylight Time),595445.0,A,pip,I,p,86,2,832.7000000476837,594612.2999999523,8048,WL,B,11.0
5,28.622999906539917,learn,60000.0,Fri Sep 19 2025 16:32:43 GMT-0500 (Central Daylight Time),595794.7999999523,A,pipe,I,e,337,2,1182.5,594612.2999999523,8048,WL,B,11.0
5,28.83999991416931,learn,60000.0,Fri Sep 19 2025 16:32:43 GMT-0500 (Central Daylight Time),596011.899999857,A,pipeenter,I,enter,204,2,1399.5999999046326,594612.2999999523,8048,WL,B,11.0
5,29.072999954223633,learn,60000.0,Fri Sep 19 2025 16:32:43 GMT-0500 (Central Daylight Time),596244.7999999523,A,s,I,s,218,2,232.59999990463257,596012.2000000477,8048,WL,B,12.0
5,29.322999954223633,learn,60000.0,Fri Sep 19 2025 16:32:43 GMT-0500 (Central Daylight Time),596494.7999999523,A,sk,I,k,233,2,482.59999990463257,596012.2000000477,8048,WL,B,12.0
5,29.490000009536743,learn,60000.0,Fri Sep 19 2025 16:32:43 GMT-0500 (Central Daylight Time),596661.0999999046,A,ski,I,i,160,2,648.8999998569489,596012.2000000477,8048,WL,B,12.0
5,29.622999906539917,learn,60000.0,Fri Sep 19 2025 16:32:43 GMT-0500 (Central Daylight Time),596794.2999999523,A,skin,I,n,121,2,782.0999999046326,596012.2000000477,8048,WL,B,12.0
5,30.23900008201599,learn,60000.0,Fri Sep 19 2025 16:32:43 GMT-0500 (Central Daylight Time),597410.899999857,A,skinenter,I,enter,604,2,1398.6999998092651,596012.2000000477,8048,WL,B,12.0
5,36.520999908447266,learn,60000.0,Fri Sep 19 2025 16:32:43 GMT-0500 (Central Daylight Time),603693.5,A,r,I,r,6276,2,6281.799999952316,597411.7000000477,8048,WL,B,13.0
5,36.68600010871887,learn,60000.0,Fri Sep 19 2025 16:32:43 GMT-0500 (Central Daylight Time),603858.5999999046,A,ri,I,i,144,2,6446.899999856949,597411.7000000477,8048,WL,B,13.0
5,37.68600010871887,learn,60000.0,Fri Sep 19 2025 16:32:43 GMT-0500 (Central Daylight Time),604858.7000000477,A,r,I,backspace,980,2,7447.0,597411.7000000477,8048,WL,B,13.0
5,37.8529999256134,learn,60000.0,Fri Sep 19 2025 16:32:43 GMT-0500 (Central Daylight Time),605025.399999857,A,,I,backspace,147,2,7613.699999809265,597411.7000000477,8048,WL,B,13.0
5,39.15300011634827,learn,60000.0,Fri Sep 19 2025 16:32:43 GMT-0500 (Central Daylight Time),606325.0,A,f,I,f,1292,2,8913.299999952316,597411.7000000477,8048,WL,B,13.0
5,39.25200009346008,learn,60000.0,Fri Sep 19 2025 16:32:43 GMT-0500 (Central Daylight Time),606424.7999999523,A,fi,I,i,89,2,9013.099999904633,597411.7000000477,8048,WL,B,13.0
5,39.38599991798401,learn,60000.0,Fri Sep 19 2025 16:32:43 GMT-0500 (Central Daylight Time),606558.2000000477,A,fir,I,r,126,2,9146.5,597411.7000000477,8048,WL,B,13.0
5,39.51900005340576,learn,60000.0,Fri Sep 19 2025 16:32:43 GMT-0500 (Central Daylight Time),606691.0999999046,A,fire,I,e,128,2,9279.399999856949,597411.7000000477,8048,WL,B,13.0
5,39.918999910354614,learn,60000.0,Fri Sep 19 2025 16:32:43 GMT-0500 (Central Daylight Time),607091.399999857,A,fireenter,I,enter,380,2,9679.699999809265,597411.7000000477,8048,WL,B,13.0
5,44.717000007629395,learn,60000.0,Fri Sep 19 2025 16:32:43 GMT-0500 (Central Daylight Time),611890.0,A,c,I,c,4787,2,4798.299999952316,607091.7000000477,8048,WL,B,14.0
5,44.78399991989136,learn,60000.0,Fri Sep 19 2025 16:32:43 GMT-0500 (Central Daylight Time),611956.399999857,A,cl,I,l,52,2,4864.699999809265,607091.7000000477,8048,WL,B,14.0
5,44.98399996757507,learn,60000.0,Fri Sep 19 2025 16:32:43 GMT-0500 (Central Daylight Time),612156.5,A,clo,I,o,194,2,5064.799999952316,607091.7000000477,8048,WL,B,14.0
5,45.217000007629395,learn,60000.0,Fri Sep 19 2025 16:32:43 GMT-0500 (Central Daylight Time),612389.5,A,cloc,I,c,218,2,5297.799999952316,607091.7000000477,8048,WL,B,14.0
5,45.41700005531311,learn,60000.0,Fri Sep 19 2025 16:32:43 GMT-0500 (Central Daylight Time),612589.7000000477,A,clock,I,k,193,2,5498.0,607091.7000000477,8048,WL,B,14.0
5,46.31699991226196,learn,60000.0,Fri Sep 19 2025 16:32:43 GMT-0500 (Central Daylight Time),613489.2999999523,A,clockenter,I,enter,880,2,6397.599999904633,607091.7000000477,8048,WL,B,14.0
5,47.31699991226196,learn,60000.0,Fri Sep 19 2025 16:32:43 GMT-0500 (Central Daylight Time),614489.0999999046,A,p,I,p,989,2,999.5,613489.5999999046,8048,WL,B,15.0
5,47.43300008773804,learn,60000.0,Fri Sep 19 2025 16:32:43 GMT-0500 (Central Daylight Time),614605.7999999523,A,pi,I,i,101,2,1116.2000000476837,613489.5999999046,8048,WL,B,15.0
5,47.532999992370605,learn,60000.0,Fri Sep 19 2025 16:32:43 GMT-0500 (Central Daylight Time),614705.5,A,pip,I,p,88,2,1215.9000000953674,613489.5999999046,8048,WL,B,15.0
5,47.782999992370605,learn,60000.0,Fri Sep 19 2025 16:32:43 GMT-0500 (Central Daylight Time),614955.2999999523,A,pipe,I,e,229,2,1465.7000000476837,613489.5999999046,8048,WL,B,15.0
5,47.96600008010864,learn,60000.0,Fri Sep 19 2025 16:32:43 GMT-0500 (Central Daylight Time),615138.7999999523,A,pipeenter,I,enter,164,2,1649.2000000476837,613489.5999999046,8048,WL,B,15.0
6,0.7659997940063477,distr,59234.00020599365,Fri Sep 19 2025 16:32:43 GMT-0500 (Central Daylight Time),684183.7999999523,B,b,I,b,756,2,766.0999999046326,683417.7000000477,8048,WL,B,1.0
6,0.931999921798706,distr,59068.000078201294,Fri Sep 19 2025 16:32:43 GMT-0500 (Central Daylight Time),684350.399999857,B,ba,I,a,158,2,932.6999998092651,683417.7000000477,8048,WL,B,1.0
6,1.0319998264312744,distr,58968.000173568726,Fri Sep 19 2025 16:32:43 GMT-0500 (Central Daylight Time),684450.399999857,B,bab,I,b,87,2,1032.6999998092651,683417.7000000477,8048,WL,B,1.0
6,1.4659998416900635,distr,58534.00015830994,Fri Sep 19 2025 16:32:43 GMT-0500 (Central Daylight Time),684883.5,B,baby,I,y,412,2,1465.7999999523163,683417.7000000477,8048,WL,B,1.0
6,1.8489999771118164,distr,58151.00002288818,Fri Sep 19 2025 16:32:43 GMT-0500 (Central Daylight Time),685266.899999857,B,babyenter,I,enter,370,2,1849.1999998092651,683417.7000000477,8048,WL,B,1.0
6,2.2819998264312744,distr,57718.000173568726,Fri Sep 19 2025 16:32:43 GMT-0500 (Central Daylight Time),685699.7999999523,B,o,I,o,419,2,432.59999990463257,685267.2000000477,8048,WL,B,2.0
6,2.4149999618530273,distr,57585.00003814697,Fri Sep 19 2025 16:32:43 GMT-0500 (Central Daylight Time),685833.2000000477,B,oc,I,c,114,2,566.0,685267.2000000477,8048,WL,B,2.0
6,2.631999969482422,distr,57368.00003051758,Fri Sep 19 2025 16:32:43 GMT-0500 (Central Daylight Time),686050.0999999046,B,oce,I,e,196,2,782.8999998569489,685267.2000000477,8048,WL,B,2.0
6,2.748999834060669,distr,57251.00016593933,Fri Sep 19 2025 16:32:43 GMT-0500 (Central Daylight Time),686166.399999857,B,ocea,I,a,100,2,899.1999998092651,685267.2000000477,8048,WL,B,2.0
6,2.8989999294281006,distr,57101.0000705719,Fri Sep 19 2025 16:32:43 GMT-0500 (Central Daylight Time),686316.5,B,ocear,I,r,135,2,1049.2999999523163,685267.2000000477,8048,WL,B,2.0
6,3.298999786376953,distr,56701.00021362305,Fri Sep 19 2025 16:32:43 GMT-0500 (Central Daylight Time),686716.399999857,B,ocea,I,backspace,385,2,1449.1999998092651,685267.2000000477,8048,WL,B,2.0
6,3.5319998264312744,distr,56468.000173568726,Fri Sep 19 2025 16:32:43 GMT-0500 (Central Daylight Time),686949.7000000477,B,ocean,I,n,226,2,1682.5,685267.2000000477,8048,WL,B,2.0
6,3.7319998741149902,distr,56268.00012588501,Fri Sep 19 2025 16:32:43 GMT-0500 (Central Daylight Time),687149.5,B,oceanenter,I,enter,185,2,1882.2999999523163,685267.2000000477,8048,WL,B,2.0
6,4.247999906539917,distr,55752.00009346008,Fri Sep 19 2025 16:32:43 GMT-0500 (Central Daylight Time),687666.2000000477,B,l,I,l,505,2,516.4000000953674,687149.7999999523,8048,WL,B,3.0
6,4.365000009536743,distr,55634.99999046326,Fri Sep 19 2025 16:32:43 GMT-0500 (Central Daylight Time),687782.399999857,B,li,I,i,99,2,632.5999999046326,687149.7999999523,8048,WL,B,3.0
6,4.4659998416900635,distr,55534.00015830994,Fri Sep 19 2025 16:32:43 GMT-0500 (Central Daylight Time),687883.5,B,lip,I,p,80,2,733.7000000476837,687149.7999999523,8048,WL,B,3.0
6,4.797999858856201,distr,55202.0001411438,Fri Sep 19 2025 16:32:43 GMT-0500 (Central Daylight Time),688215.899999857,B,lipenter,I,enter,315,2,1066.0999999046326,687149.7999999523,8048,WL,B,3.0
6,5.430999994277954,distr,54569.000005722046,Fri Sep 19 2025 16:32:43 GMT-0500 (Central Daylight Time),688849.0,B,p,I,p,615,2,632.7000000476837,688216.2999999523,8048,WL,B,4.0
6,5.763999938964844,distr,54236.000061035156,Fri Sep 19 2025 16:32:43 GMT-0500 (Central Daylight Time),689182.2000000477,B,pa,I,a,317,2,965.9000000953674,688216.2999999523,8048,WL,B,4.0
6,6.0309998989105225,distr,53969.00010108948,Fri Sep 19 2025 16:32:43 GMT-0500 (Central Daylight Time),689448.7000000477,B,pal,I,l,256,2,1232.4000000953674,688216.2999999523,8048,WL,B,4.0
6,6.180999994277954,distr,53819.000005722046,Fri Sep 19 2025 16:32:43 GMT-0500 (Central Daylight Time),689598.7000000477,B,pala,I,a,142,2,1382.4000000953674,688216.2999999523,8048,WL,B,4.0
6,6.447999954223633,distr,53552.00004577637,Fri Sep 19 2025 16:32:43 GMT-0500 (Central Daylight Time),689865.5999999046,B,palac,I,c,247,2,1649.2999999523163,688216.2999999523,8048,WL,B,4.0
6,6.663999795913696,distr,53336.000204086304,Fri Sep 19 2025 16:32:43 GMT-0500 (Central Daylight Time),690082.0,B,palace,I,e,196,2,1865.7000000476837,688216.2999999523,8048,WL,B,4.0
6,6.863999843597412,distr,53136.00015640259,Fri Sep 19 2025 16:32:43 GMT-0500 (Central Daylight Time),690281.7999999523,B,palaceenter,I,enter,179,2,2065.5,688216.2999999523,8048,WL,B,4.0
6,12.461999893188477,distr,47538.00010681152,Fri Sep 19 2025 16:32:43 GMT-0500 (Central Daylight Time),695880.2000000477,B,b,I,b,5589,2,5598.200000047684,690282.0,8048,WL,B,5.0
6,12.845999956130981,distr,47154.00004386902,Fri Sep 19 2025 16:32:43 GMT-0500 (Central Daylight Time),696263.5,B,bu,I,u,374,2,5981.5,690282.0,8048,WL,B,5.0
6,12.994999885559082,distr,47005.00011444092,Fri Sep 19 2025 16:32:43 GMT-0500 (Central Daylight Time),696413.399999857,B,bui,I,i,142,2,6131.399999856949,690282.0,8048,WL,B,5.0
6,13.328999996185303,distr,46671.0000038147,Fri Sep 19 2025 16:32:43 GMT-0500 (Central Daylight Time),696746.7999999523,B,buil,I,l,313,2,6464.799999952316,690282.0,8048,WL,B,5.0
6,13.544999837875366,distr,46455.000162124634,Fri Sep 19 2025 16:32:43 GMT-0500 (Central Daylight Time),696963.399999857,B,build,I,d,204,2,6681.399999856949,690282.0,8048,WL,B,5.0
6,13.611999988555908,distr,46388.00001144409,Fri Sep 19 2025 16:32:43 GMT-0500 (Central Daylight Time),697029.7999999523,B,buildi,I,i,58,2,6747.799999952316,690282.0,8048,WL,B,5.0
6,13.728999853134155,distr,46271.000146865845,Fri Sep 19 2025 16:32:43 GMT-0500 (Central Daylight Time),697146.5,B,buildin,I,n,96,2,6864.5,690282.0,8048,WL,B,5.0
6,13.827999830245972,distr,46172.00016975403,Fri Sep 19 2025 16:32:43 GMT-0500 (Central Daylight Time),697246.399999857,B,building,I,g,84,2,6964.399999856949,690282.0,8048,WL,B,5.0
6,14.894999980926514,distr,45105.000019073486,Fri Sep 19 2025 16:32:43 GMT-0500 (Central Daylight Time),698312.7000000477,B,buildingenter,I,enter,1047,2,8030.700000047684,690282.0,8048,WL,B,5.0
6,15.211999893188477,distr,44788.00010681152,Fri Sep 19 2025 16:32:43 GMT-0500 (Central Daylight Time),698629.399999857,B,a,I,a,310,2,316.2999999523163,698313.0999999046,8048,WL,B,6.0
6,15.379999876022339,distr,44620.00012397766,Fri Sep 19 2025 16:32:43 GMT-0500 (Central Daylight Time),698797.7999999523,B,ar,I,r,163,2,484.7000000476837,698313.0999999046,8048,WL,B,6.0
6,15.894999980926514,distr,44105.000019073486,Fri Sep 19 2025 16:32:43 GMT-0500 (Central Daylight Time),699312.5999999046,B,arm,I,m,495,2,999.5,698313.0999999046,8048,WL,B,6.0
6,16.143999814987183,distr,43856.00018501282,Fri Sep 19 2025 16:32:43 GMT-0500 (Central Daylight Time),699562.399999857,B,army,I,y,228,2,1249.2999999523163,698313.0999999046,8048,WL,B,6.0
6,16.727999925613403,distr,43272.0000743866,Fri Sep 19 2025 16:32:43 GMT-0500 (Central Daylight Time),700145.399999857,B,armyenter,I,enter,563,2,1832.2999999523163,698313.0999999046,8048,WL,B,6.0
6,36.00399994850159,distr,23996.000051498413,Fri Sep 19 2025 16:32:43 GMT-0500 (Central Daylight Time),719422.7000000477,B,s,I,s,19269,2,19276.900000095367,700145.7999999523,8048,WL,B,7.0
6,36.23799991607666,distr,23762.00008392334,Fri Sep 19 2025 16:32:43 GMT-0500 (Central Daylight Time),719656.0,B,st,I,t,214,2,19510.200000047684,700145.7999999523,8048,WL,B,7.0
6,36.370999813079834,distr,23629.000186920166,Fri Sep 19 2025 16:32:43 GMT-0500 (Central Daylight Time),719789.399999857,B,sto,I,o,125,2,19643.599999904633,700145.7999999523,8048,WL,B,7.0
6,36.520999908447266,distr,23479.000091552734,Fri Sep 19 2025 16:32:43 GMT-0500 (Central Daylight Time),719939.2999999523,B,stor,I,r,145,2,19793.5,700145.7999999523,8048,WL,B,7.0
6,36.7039999961853,distr,23296.000003814697,Fri Sep 19 2025 16:32:43 GMT-0500 (Central Daylight Time),720122.5999999046,B,storm,I,m,163,2,19976.799999952316,700145.7999999523,8048,WL,B,7.0
6,36.9539999961853,distr,23046.000003814697,Fri Sep 19 2025 16:32:43 GMT-0500 (Central Daylight Time),720372.2999999523,B,stormenter,I,enter,236,2,20226.5,700145.7999999523,8048,WL,B,7.0
6,49.467000007629395,distr,10532.999992370605,Fri Sep 19 2025 16:32:43 GMT-0500 (Central Daylight Time),732885.0999999046,B,r,I,r,12506,2,12512.5,720372.5999999046,8048,WL,B,8.0
6,49.56699991226196,distr,10433.000087738037,Fri Sep 19 2025 16:32:43 GMT-0500 (Central Daylight Time),732985.0999999046,B,ro,I,o,79,2,12612.5,720372.5999999046,8048,WL,B,8.0
6,49.75,distr,10250.0,Fri Sep 19 2025 16:32:43 GMT-0500 (Central Daylight Time),733168.7999999523,B,roc,I,c,165,2,12796.200000047684,720372.5999999046,8048,WL,B,8.0
6,49.83299994468689,distr,10167.00005531311,Fri Sep 19 2025 16:32:43 GMT-0500 (Central Daylight Time),733251.7000000477,B,rock,I,k,70,2,12879.100000143051,720372.5999999046,8048,WL,B,8.0
6,50.049999952316284,distr,9950.000047683716,Fri Sep 19 2025 16:32:43 GMT-0500 (Central Daylight Time),733468.2999999523,B,rockenter,I,enter,202,2,13095.700000047684,720372.5999999046,8048,WL,B,8.0
6,60.013999938964844,distr,-13.99993896484375,Fri Sep 19 2025 16:32:43 GMT-0500 (Central Daylight Time),743432.0,B,None,I,None,9959,2,9963.400000095367,733468.5999999046,8048,WL,B,9.0
7,0.7829999923706055,immed,59217.000007629395,Fri Sep 19 2025 16:32:43 GMT-0500 (Central Daylight Time),751362.5999999046,A,s,I,s,771,2,783.0,750579.5999999046,8048,WL,B,1.0
7,0.9829998016357422,immed,59017.00019836426,Fri Sep 19 2025 16:32:43 GMT-0500 (Central Daylight Time),751562.5,A,st,I,t,186,2,982.9000000953674,750579.5999999046,8048,WL,B,1.0
7,1.4669997692108154,immed,58533.000230789185,Fri Sep 19 2025 16:32:43 GMT-0500 (Central Daylight Time),752046.0,A,str,I,r,476,2,1466.4000000953674,750579.5999999046,8048,WL,B,1.0
7,1.6159999370574951,immed,58384.000062942505,Fri Sep 19 2025 16:32:43 GMT-0500 (Central Daylight Time),752195.399999857,A,stre,I,e,144,2,1615.7999999523163,750579.5999999046,8048,WL,B,1.0
7,1.815999984741211,immed,58184.00001525879,Fri Sep 19 2025 16:32:43 GMT-0500 (Central Daylight Time),752395.7000000477,A,stree,I,e,187,2,1816.1000001430511,750579.5999999046,8048,WL,B,1.0
7,1.9659998416900635,immed,58034.00015830994,Fri Sep 19 2025 16:32:43 GMT-0500 (Central Daylight Time),752545.7000000477,A,street,I,t,130,2,1966.1000001430511,750579.5999999046,8048,WL,B,1.0
7,2.4159998893737793,immed,57584.00011062622,Fri Sep 19 2025 16:32:43 GMT-0500 (Central Daylight Time),752995.5999999046,A,streetenter,I,enter,437,2,2416.0,750579.5999999046,8048,WL,B,1.0
7,4.2149999141693115,immed,55785.00008583069,Fri Sep 19 2025 16:32:43 GMT-0500 (Central Daylight Time),754794.7000000477,A,g,I,g,1794,2,1798.8000001907349,752995.899999857,8048,WL,B,2.0
7,4.415999889373779,immed,55584.00011062622,Fri Sep 19 2025 16:32:43 GMT-0500 (Central Daylight Time),754994.7999999523,A,gr,I,r,188,2,1998.9000000953674,752995.899999857,8048,WL,B,2.0
7,4.531999826431274,immed,55468.000173568726,Fri Sep 19 2025 16:32:43 GMT-0500 (Central Daylight Time),755111.5999999046,A,gra,I,a,99,2,2115.7000000476837,752995.899999857,8048,WL,B,2.0
7,4.764999866485596,immed,55235.000133514404,Fri Sep 19 2025 16:32:43 GMT-0500 (Central Daylight Time),755344.5999999046,A,gras,I,s,214,2,2348.7000000476837,752995.899999857,8048,WL,B,2.0
7,5.131999969482422,immed,54868.00003051758,Fri Sep 19 2025 16:32:43 GMT-0500 (Central Daylight Time),755711.2000000477,A,grass,I,s,358,2,2715.300000190735,752995.899999857,8048,WL,B,2.0
7,5.514999866485596,immed,54485.000133514404,Fri Sep 19 2025 16:32:43 GMT-0500 (Central Daylight Time),756094.7000000477,A,grassenter,I,enter,374,2,3098.800000190735,752995.899999857,8048,WL,B,2.0
7,7.130999803543091,immed,52869.00019645691,Fri Sep 19 2025 16:32:43 GMT-0500 (Central Daylight Time),757710.5999999046,A,d,I,d,1608,2,1615.5999999046326,756095.0,8048,WL,B,3.0
7,7.330999851226807,immed,52669.00014877319,Fri Sep 19 2025 16:32:43 GMT-0500 (Central Daylight Time),757910.7000000477,A,do,I,o,191,2,1815.7000000476837,756095.0,8048,WL,B,3.0
7,7.71399998664856,immed,52286.00001335144,Fri Sep 19 2025 16:32:43 GMT-0500 (Central Daylight Time),758293.7999999523,A,doo,I,o,368,2,2198.7999999523163,756095.0,8048,WL,B,3.0
7,7.898000001907349,immed,52101.99999809265,Fri Sep 19 2025 16:32:43 GMT-0500 (Central Daylight Time),758477.0999999046,A,door,I,r,177,2,2382.0999999046326,756095.0,8048,WL,B,3.0
7,8.38099980354309,immed,51619.00019645691,Fri Sep 19 2025 16:32:43 GMT-0500 (Central Daylight Time),758960.399999857,A,doorenter,I,enter,472,2,2865.399999856949,756095.0,8048,WL,B,3.0
7,8.980999946594238,immed,51019.00005340576,Fri Sep 19 2025 16:32:43 GMT-0500 (Central Daylight Time),759560.2999999523,A,a,I,a,590,2,599.5999999046326,758960.7000000477,8048,WL,B,4.0
7,9.197999954223633,immed,50802.00004577637,Fri Sep 19 2025 16:32:43 GMT-0500 (Central Daylight Time),759776.7999999523,A,ar,I,r,206,2,816.0999999046326,758960.7000000477,8048,WL,B,4.0
7,9.46399998664856,immed,50536.00001335144,Fri Sep 19 2025 16:32:43 GMT-0500 (Central Daylight Time),760043.399999857,A,arm,I,m,252,2,1082.6999998092651,758960.7000000477,8048,WL,B,4.0
7,9.79699993133545,immed,50203.00006866455,Fri Sep 19 2025 16:32:43 GMT-0500 (Central Daylight Time),760376.5999999046,A,armenter,I,enter,314,2,1415.8999998569489,758960.7000000477,8048,WL,B,4.0
7,13.27899980545044,immed,46721.00019454956,Fri Sep 19 2025 16:32:43 GMT-0500 (Central Daylight Time),763858.7000000477,A,s,I,s,3477,2,3481.7000000476837,760377.0,8048,WL,B,5.0
7,13.44599986076355,immed,46554.00013923645,Fri Sep 19 2025 16:32:43 GMT-0500 (Central Daylight Time),764025.5999999046,A,st,I,t,156,2,3648.5999999046326,760377.0,8048,WL,B,5.0
7,13.562999963760376,immed,46437.000036239624,Fri Sep 19 2025 16:32:43 GMT-0500 (Central Daylight Time),764142.2999999523,A,sta,I,a,109,2,3765.2999999523163,760377.0,8048,WL,B,5.0
7,13.711999893188477,immed,46288.00010681152,Fri Sep 19 2025 16:32:43 GMT-0500 (Central Daylight Time),764291.7999999523,A,star,I,r,135,2,3914.7999999523163,760377.0,8048,WL,B,5.0
7,14.145999908447266,immed,45854.000091552734,Fri Sep 19 2025 16:32:43 GMT-0500 (Central Daylight Time),764725.2000000477,A,starenter,I,enter,427,2,4348.200000047684,760377.0,8048,WL,B,5.0
7,14.69599986076355,immed,45304.00013923645,Fri Sep 19 2025 16:32:43 GMT-0500 (Central Daylight Time),765275.0,A,w,I,w,537,2,549.4000000953674,764725.5999999046,8048,WL,B,6.0
7,14.978999853134155,immed,45021.000146865845,Fri Sep 19 2025 16:32:43 GMT-0500 (Central Daylight Time),765558.2999999523,A,wi,I,i,267,2,832.7000000476837,764725.5999999046,8048,WL,B,6.0
7,15.161999940872192,immed,44838.00005912781,Fri Sep 19 2025 16:32:43 GMT-0500 (Central Daylight Time),765741.7000000477,A,wif,I,f,176,2,1016.1000001430511,764725.5999999046,8048,WL,B,6.0
7,15.51199984550476,immed,44488.00015449524,Fri Sep 19 2025 16:32:43 GMT-0500 (Central Daylight Time),766091.5999999046,A,wife,I,e,336,2,1366.0,764725.5999999046,8048,WL,B,6.0
7,15.744999885559082,immed,44255.00011444092,Fri Sep 19 2025 16:32:43 GMT-0500 (Central Daylight Time),766324.7000000477,A,wifeenter,I,enter,219,2,1599.1000001430511,764725.5999999046,8048,WL,B,6.0
7,17.91099977493286,immed,42089.00022506714,Fri Sep 19 2025 16:32:43 GMT-0500 (Central Daylight Time),768490.5999999046,A,w,I,w,2146,2,2165.5,766325.0999999046,8048,WL,B,7.0
7,17.977999925613403,immed,42022.0000743866,Fri Sep 19 2025 16:32:43 GMT-0500 (Central Daylight Time),768557.399999857,A,wi,I,i,59,2,2232.2999999523163,766325.0999999046,8048,WL,B,7.0
7,18.127999782562256,immed,41872.000217437744,Fri Sep 19 2025 16:32:43 GMT-0500 (Central Daylight Time),768707.0999999046,A,win,I,n,144,2,2382.0,766325.0999999046,8048,WL,B,7.0
7,18.210999965667725,immed,41789.000034332275,Fri Sep 19 2025 16:32:43 GMT-0500 (Central Daylight Time),768790.7000000477,A,wind,I,d,68,2,2465.600000143051,766325.0999999046,8048,WL,B,7.0
7,18.57799983024597,immed,41422.00016975403,Fri Sep 19 2025 16:32:43 GMT-0500 (Central Daylight Time),769157.2000000477,A,windo,I,o,360,2,2832.100000143051,766325.0999999046,8048,WL,B,7.0
7,19.055999994277954,immed,40944.000005722046,Fri Sep 19 2025 16:32:43 GMT-0500 (Central Daylight Time),769635.5,A,windoenter,I,enter,473,2,3310.4000000953674,766325.0999999046,8048,WL,B,7.0
7,23.292999982833862,immed,36707.00001716614,Fri Sep 19 2025 16:32:43 GMT-0500 (Central Daylight Time),773872.2999999523,A,c,I,c,4226,2,4236.5,769635.7999999523,8048,WL,B,8.0
7,23.375999927520752,immed,36624.00007247925,Fri Sep 19 2025 16:32:43 GMT-0500 (Central Daylight Time),773955.7000000477,A,ci,I,i,78,2,4319.900000095367,769635.7999999523,8048,WL,B,8.0
7,23.575999975204468,immed,36424.00002479553,Fri Sep 19 2025 16:32:43 GMT-0500 (Central Daylight Time),774155.5999999046,A,cit,I,t,195,2,4519.799999952316,769635.7999999523,8048,WL,B,8.0
7,24.192999839782715,immed,35807.000160217285,Fri Sep 19 2025 16:32:43 GMT-0500 (Central Daylight Time),774772.2000000477,A,city,I,y,603,2,5136.400000095367,769635.7999999523,8048,WL,B,8.0
7,24.408999919891357,immed,35591.00008010864,Fri Sep 19 2025 16:32:43 GMT-0500 (Central Daylight Time),774988.7000000477,A,cityenter,I,enter,202,2,5352.900000095367,769635.7999999523,8048,WL,B,8.0
7,24.592999935150146,immed,35407.00006484985,Fri Sep 19 2025 16:32:43 GMT-0500 (Central Daylight Time),775172.0999999046,A,c,I,c,169,2,183.20000004768372,774988.899999857,8048,WL,B,9.0
7,24.72599983215332,immed,35274.00016784668,Fri Sep 19 2025 16:32:43 GMT-0500 (Central Daylight Time),775305.2999999523,A,ca,I,a,113,2,316.40000009536743,774988.899999857,8048,WL,B,9.0
7,24.89299988746643,immed,35107.00011253357,Fri Sep 19 2025 16:32:43 GMT-0500 (Central Daylight Time),775472.0,A,cab,I,b,157,2,483.10000014305115,774988.899999857,8048,WL,B,9.0
7,25.108999967575073,immed,34891.00003242493,Fri Sep 19 2025 16:32:43 GMT-0500 (Central Daylight Time),775688.5,A,cabi,I,i,197,2,699.6000001430511,774988.899999857,8048,WL,B,9.0
7,25.175999879837036,immed,34824.000120162964,Fri Sep 19 2025 16:32:43 GMT-0500 (Central Daylight Time),775755.0999999046,A,cabin,I,n,62,2,766.2000000476837,774988.899999857,8048,WL,B,9.0
7,25.658999919891357,immed,34341.00008010864,Fri Sep 19 2025 16:32:43 GMT-0500 (Central Daylight Time),776238.5,A,cabinenter,I,enter,475,2,1249.6000001430511,774988.899999857,8048,WL,B,9.0
7,28.507999897003174,immed,31492.000102996826,Fri Sep 19 2025 16:32:43 GMT-0500 (Central Daylight Time),779087.399999857,A,l,I,l,2832,2,2848.5999999046326,776238.7999999523,8048,WL,B,10.0
7,28.62399983406067,immed,31376.00016593933,Fri Sep 19 2025 16:32:43 GMT-0500 (Central Daylight Time),779203.7000000477,A,la,I,a,111,2,2964.9000000953674,776238.7999999523,8048,WL,B,10.0
7,28.79099988937378,immed,31209.00011062622,Fri Sep 19 2025 16:32:43 GMT-0500 (Central Daylight Time),779370.5999999046,A,lak,I,k,162,2,3131.7999999523163,776238.7999999523,8048,WL,B,10.0
7,28.923999786376953,immed,31076.000213623047,Fri Sep 19 2025 16:32:43 GMT-0500 (Central Daylight Time),779504.2000000477,A,lake,I,e,116,2,3265.4000000953674,776238.7999999523,8048,WL,B,10.0
7,29.240999937057495,immed,30759.000062942505,Fri Sep 19 2025 16:32:43 GMT-0500 (Central Daylight Time),779820.5,A,lakeenter,I,enter,301,2,3581.7000000476837,776238.7999999523,8048,WL,B,10.0
7,30.056999921798706,immed,29943.000078201294,Fri Sep 19 2025 16:32:43 GMT-0500 (Central Daylight Time),780636.899999857,A,p,I,p,809,2,816.2999999523163,779820.5999999046,8048,WL,B,11.0
7,30.239999771118164,immed,29760.000228881836,Fri Sep 19 2025 16:32:43 GMT-0500 (Central Daylight Time),780820.2000000477,A,pi,I,i,177,2,999.6000001430511,779820.5999999046,8048,WL,B,11.0
7,30.406999826431274,immed,29593.000173568726,Fri Sep 19 2025 16:32:43 GMT-0500 (Central Daylight Time),780987.0,A,pip,I,p,161,2,1166.4000000953674,779820.5999999046,8048,WL,B,11.0
7,30.723999977111816,immed,29276.000022888184,Fri Sep 19 2025 16:32:43 GMT-0500 (Central Daylight Time),781303.5,A,pipe,I,e,308,2,1482.9000000953674,779820.5999999046,8048,WL,B,11.0
7,30.93999981880188,immed,29060.00018119812,Fri Sep 19 2025 16:32:43 GMT-0500 (Central Daylight Time),781519.899999857,A,pipeenter,I,enter,199,2,1699.2999999523163,779820.5999999046,8048,WL,B,11.0
7,31.572999954223633,immed,28427.000045776367,Fri Sep 19 2025 16:32:43 GMT-0500 (Central Daylight Time),782153.0,A,s,I,s,622,2,632.7999999523163,781520.2000000477,8048,WL,B,12.0
7,31.906999826431274,immed,28093.000173568726,Fri Sep 19 2025 16:32:43 GMT-0500 (Central Daylight Time),782486.5,A,sk,I,k,318,2,966.2999999523163,781520.2000000477,8048,WL,B,12.0
7,32.056999921798706,immed,27943.000078201294,Fri Sep 19 2025 16:32:43 GMT-0500 (Central Daylight Time),782636.399999857,A,ski,I,i,144,2,1116.1999998092651,781520.2000000477,8048,WL,B,12.0
7,32.20599985122681,immed,27794.000148773193,Fri Sep 19 2025 16:32:43 GMT-0500 (Central Daylight Time),782786.2000000477,A,skin,I,n,138,2,1266.0,781520.2000000477,8048,WL,B,12.0
7,32.68899989128113,immed,27311.000108718872,Fri Sep 19 2025 16:32:43 GMT-0500 (Central Daylight Time),783269.0999999046,A,skinenter,I,enter,476,2,1748.8999998569489,781520.2000000477,8048,WL,B,12.0
7,37.00499987602234,immed,22995.00012397766,Fri Sep 19 2025 16:32:43 GMT-0500 (Central Daylight Time),787584.7000000477,A,f,I,f,4298,2,4315.400000095367,783269.2999999523,8048,WL,B,13.0
7,37.65499997138977,immed,22345.00002861023,Fri Sep 19 2025 16:32:43 GMT-0500 (Central Daylight Time),788234.5,A,fi,I,i,629,2,4965.200000047684,783269.2999999523,8048,WL,B,13.0
7,37.73799991607666,immed,22262.00008392334,Fri Sep 19 2025 16:32:43 GMT-0500 (Central Daylight Time),788317.5999999046,A,fir,I,r,76,2,5048.299999952316,783269.2999999523,8048,WL,B,13.0
7,37.85499978065491,immed,22145.000219345093,Fri Sep 19 2025 16:32:43 GMT-0500 (Central Daylight Time),788434.899999857,A,fire,I,e,97,2,5165.599999904633,783269.2999999523,8048,WL,B,13.0
7,38.55399990081787,immed,21446.00009918213,Fri Sep 19 2025 16:32:43 GMT-0500 (Central Daylight Time),789133.899999857,A,fireenter,I,enter,692,2,5864.599999904633,783269.2999999523,8048,WL,B,13.0
7,38.83799982070923,immed,21162.00017929077,Fri Sep 19 2025 16:32:43 GMT-0500 (Central Daylight Time),789417.5999999046,A,c,I,c,264,2,283.2999999523163,789134.2999999523,8048,WL,B,14.0
7,38.937999963760376,immed,21062.000036239624,Fri Sep 19 2025 16:32:43 GMT-0500 (Central Daylight Time),789517.399999857,A,cl,I,l,84,2,383.09999990463257,789134.2999999523,8048,WL,B,14.0
7,39.103999853134155,immed,20896.000146865845,Fri Sep 19 2025 16:32:43 GMT-0500 (Central Daylight Time),789684.2000000477,A,clo,I,o,160,2,549.9000000953674,789134.2999999523,8048,WL,B,14.0
7,39.23799991607666,immed,20762.00008392334,Fri Sep 19 2025 16:32:43 GMT-0500 (Central Daylight Time),789817.7999999523,A,cloc,I,c,114,2,683.5,789134.2999999523,8048,WL,B,14.0
7,39.47099995613098,immed,20529.00004386902,Fri Sep 19 2025 16:32:43 GMT-0500 (Central Daylight Time),790050.899999857,A,clock,I,k,221,2,916.5999999046326,789134.2999999523,8048,WL,B,14.0
7,40.103999853134155,immed,19896.000146865845,Fri Sep 19 2025 16:32:43 GMT-0500 (Central Daylight Time),790684.0,A,clockenter,I,enter,612,2,1549.7000000476837,789134.2999999523,8048,WL,B,14.0
7,43.335999965667725,immed,16664.000034332275,Fri Sep 19 2025 16:32:43 GMT-0500 (Central Daylight Time),793915.7000000477,A,p,I,p,3226,2,3231.5,790684.2000000477,8048,WL,B,15.0
7,43.45299983024597,immed,16547.00016975403,Fri Sep 19 2025 16:32:43 GMT-0500 (Central Daylight Time),794032.899999857,A,pu,I,u,106,2,3348.699999809265,790684.2000000477,8048,WL,B,15.0
7,43.55299997329712,immed,16447.00002670288,Fri Sep 19 2025 16:32:43 GMT-0500 (Central Daylight Time),794132.5,A,pup,I,p,93,2,3448.2999999523163,790684.2000000477,8048,WL,B,15.0
