block_c,block_dur,condition,countdown,datetime,endtime,list,multichar_response,project,response,response_time,session_number,start_end,starttime,subject_id,task,task_vers,trial
,,,,Wed May 21 2025 12:11:20 GMT-0500 (Central Daylight Time),,,,I,space,367,3,,,8005,WL,C,
prac,,0,,Wed May 21 2025 12:11:20 GMT-0500 (Central Daylight Time),,NA,b,I,b,1453,3,,,8005,WL,C,1.0
prac,,0,,Wed May 21 2025 12:11:20 GMT-0500 (Central Daylight Time),,NA,bo,I,o,319,3,,,8005,WL,C,1.0
prac,,0,,Wed May 21 2025 12:11:20 GMT-0500 (Central Daylight Time),,NA,boo,I,o,562,3,,,8005,WL,C,1.0
prac,,0,,Wed May 21 2025 12:11:20 GMT-0500 (Central Daylight Time),,NA,boos,I,s,74,3,,,8005,WL,C,1.0
prac,,0,,Wed May 21 2025 12:11:20 GMT-0500 (Central Daylight Time),,NA,boost,I,t,59,3,,,8005,WL,C,1.0
prac,,0,,Wed May 21 2025 12:11:20 GMT-0500 (Central Daylight Time),,NA,boostenter,I,enter,2676,3,,,8005,WL,C,1.0
1,0.8159999847412109,learn,59184.00001525879,Wed May 21 2025 12:11:20 GMT-0500 (Central Daylight Time),115539.40000009537,A,c,I,c,801,3,816.1000000238419,114723.30000007153,8005,WL,C,1.0
1,1.065999984741211,learn,58934.00001525879,Wed May 21 2025 12:11:20 GMT-0500 (Central Daylight Time),115789.20000004768,A,co,I,o,232,3,1065.8999999761581,114723.30000007153,8005,WL,C,1.0
1,1.184000015258789,learn,58815.99998474121,Wed May 21 2025 12:11:20 GMT-0500 (Central Daylight Time),115906.70000004768,A,cor,I,r,103,3,1183.3999999761581,114723.30000007153,8005,WL,C,1.0
1,1.315999984741211,learn,58684.00001525879,Wed May 21 2025 12:11:20 GMT-0500 (Central Daylight Time),116038.90000009537,A,corn,I,n,114,3,1315.6000000238419,114723.30000007153,8005,WL,C,1.0
1,2.181999921798706,learn,57818.000078201294,Wed May 21 2025 12:11:20 GMT-0500 (Central Daylight Time),116905.5,A,cornenter,I,enter,845,3,2182.1999999284744,114723.30000007153,8005,WL,C,1.0
1,2.615000009536743,learn,57384.99999046326,Wed May 21 2025 12:11:20 GMT-0500 (Central Daylight Time),117338.70000004768,A,w,I,w,411,3,432.7000000476837,116906.0,8005,WL,C,2.0
1,2.7309999465942383,learn,57269.00005340576,Wed May 21 2025 12:11:20 GMT-0500 (Central Daylight Time),117455.20000004768,A,wh,I,h,98,3,549.2000000476837,116906.0,8005,WL,C,2.0
1,2.815000057220459,learn,57184.99994277954,Wed May 21 2025 12:11:20 GMT-0500 (Central Daylight Time),117538.60000002384,A,whe,I,e,77,3,632.6000000238419,116906.0,8005,WL,C,2.0
1,2.8980000019073486,learn,57101.99999809265,Wed May 21 2025 12:11:20 GMT-0500 (Central Daylight Time),117622.0,A,whea,I,a,66,3,716.0,116906.0,8005,WL,C,2.0
1,2.998000144958496,learn,57001.999855041504,Wed May 21 2025 12:11:20 GMT-0500 (Central Daylight Time),117721.60000002384,A,wheat,I,t,86,3,815.6000000238419,116906.0,8005,WL,C,2.0
1,3.115000009536743,learn,56884.99999046326,Wed May 21 2025 12:11:20 GMT-0500 (Central Daylight Time),117838.60000002384,A,wheatenter,I,enter,106,3,932.6000000238419,116906.0,8005,WL,C,2.0
1,3.315000057220459,learn,56684.99994277954,Wed May 21 2025 12:11:20 GMT-0500 (Central Daylight Time),118038.40000009537,A,s,I,s,190,3,199.30000007152557,117839.10000002384,8005,WL,C,3.0
1,3.4809999465942383,learn,56519.00005340576,Wed May 21 2025 12:11:20 GMT-0500 (Central Daylight Time),118204.80000007153,A,su,I,u,150,3,365.7000000476837,117839.10000002384,8005,WL,C,3.0
1,3.5480000972747803,learn,56451.99990272522,Wed May 21 2025 12:11:20 GMT-0500 (Central Daylight Time),118271.5,A,sug,I,g,48,3,432.39999997615814,117839.10000002384,8005,WL,C,3.0
1,4.04800009727478,learn,55951.99990272522,Wed May 21 2025 12:11:20 GMT-0500 (Central Daylight Time),118771.60000002384,A,suga,I,a,486,3,932.5,117839.10000002384,8005,WL,C,3.0
1,4.114000082015991,learn,55885.99991798401,Wed May 21 2025 12:11:20 GMT-0500 (Central Daylight Time),118838.0,A,sugar,I,r,57,3,998.8999999761581,117839.10000002384,8005,WL,C,3.0
1,4.564000129699707,learn,55435.99987030029,Wed May 21 2025 12:11:20 GMT-0500 (Central Daylight Time),119288.0,A,sugarenter,I,enter,431,3,1448.8999999761581,117839.10000002384,8005,WL,C,3.0
1,4.748000144958496,learn,55251.999855041504,Wed May 21 2025 12:11:20 GMT-0500 (Central Daylight Time),119471.30000007153,A,c,I,c,173,3,182.80000007152557,119288.5,8005,WL,C,4.0
1,4.814000129699707,learn,55185.99987030029,Wed May 21 2025 12:11:20 GMT-0500 (Central Daylight Time),119537.80000007153,A,ca,I,a,53,3,249.30000007152557,119288.5,8005,WL,C,4.0
1,5.013999938964844,learn,54986.000061035156,Wed May 21 2025 12:11:20 GMT-0500 (Central Daylight Time),119737.40000009537,A,cat,I,t,187,3,448.90000009536743,119288.5,8005,WL,C,4.0
1,5.0970001220703125,learn,54902.99987792969,Wed May 21 2025 12:11:20 GMT-0500 (Central Daylight Time),119820.80000007153,A,catt,I,t,75,3,532.3000000715256,119288.5,8005,WL,C,4.0
1,5.230999946594238,learn,54769.00005340576,Wed May 21 2025 12:11:20 GMT-0500 (Central Daylight Time),119954.5,A,cattl,I,l,120,3,666.0,119288.5,8005,WL,C,4.0
1,5.397000074386597,learn,54602.9999256134,Wed May 21 2025 12:11:20 GMT-0500 (Central Daylight Time),120120.90000009537,A,cattle,I,e,154,3,832.4000000953674,119288.5,8005,WL,C,4.0
1,5.5970001220703125,learn,54402.99987792969,Wed May 21 2025 12:11:20 GMT-0500 (Central Daylight Time),120320.70000004768,A,cattleenter,I,enter,180,3,1032.2000000476837,119288.5,8005,WL,C,4.0
1,6.147000074386597,learn,53852.9999256134,Wed May 21 2025 12:11:20 GMT-0500 (Central Daylight Time),120870.90000009537,A,t,I,t,540,3,549.8000000715256,120321.10000002384,8005,WL,C,5.0
1,6.21399998664856,learn,53786.00001335144,Wed May 21 2025 12:11:20 GMT-0500 (Central Daylight Time),120937.5,A,to,I,o,54,3,616.3999999761581,120321.10000002384,8005,WL,C,5.0
1,6.329999923706055,learn,53670.000076293945,Wed May 21 2025 12:11:20 GMT-0500 (Central Daylight Time),121054.20000004768,A,tow,I,w,99,3,733.1000000238419,120321.10000002384,8005,WL,C,5.0
1,6.447000026702881,learn,53552.99997329712,Wed May 21 2025 12:11:20 GMT-0500 (Central Daylight Time),121170.70000004768,A,towe,I,e,111,3,849.6000000238419,120321.10000002384,8005,WL,C,5.0
1,6.513999938964844,learn,53486.000061035156,Wed May 21 2025 12:11:20 GMT-0500 (Central Daylight Time),121237.40000009537,A,tower,I,r,59,3,916.3000000715256,120321.10000002384,8005,WL,C,5.0
1,6.664000034332275,learn,53335.999965667725,Wed May 21 2025 12:11:20 GMT-0500 (Central Daylight Time),121387.60000002384,A,towerenter,I,enter,137,3,1066.5,120321.10000002384,8005,WL,C,5.0
1,7.163000106811523,learn,52836.99989318848,Wed May 21 2025 12:11:20 GMT-0500 (Central Daylight Time),121887.0,A,q,I,q,490,3,498.7999999523163,121388.20000004768,8005,WL,C,6.0
1,7.263000011444092,learn,52736.99998855591,Wed May 21 2025 12:11:20 GMT-0500 (Central Daylight Time),121986.90000009537,A,qu,I,u,93,3,598.7000000476837,121388.20000004768,8005,WL,C,6.0
1,7.730000019073486,learn,52269.999980926514,Wed May 21 2025 12:11:20 GMT-0500 (Central Daylight Time),122453.60000002384,A,que,I,e,450,3,1065.3999999761581,121388.20000004768,8005,WL,C,6.0
1,7.829999923706055,learn,52170.000076293945,Wed May 21 2025 12:11:20 GMT-0500 (Central Daylight Time),122553.5,A,quee,I,e,79,3,1165.2999999523163,121388.20000004768,8005,WL,C,6.0
1,7.930000066757202,learn,52069.9999332428,Wed May 21 2025 12:11:20 GMT-0500 (Central Daylight Time),122653.60000002384,A,queen,I,n,82,3,1265.3999999761581,121388.20000004768,8005,WL,C,6.0
1,8.062999963760376,learn,51937.000036239624,Wed May 21 2025 12:11:20 GMT-0500 (Central Daylight Time),122786.80000007153,A,queenenter,I,enter,119,3,1398.6000000238419,121388.20000004768,8005,WL,C,6.0
1,8.263000011444092,learn,51736.99998855591,Wed May 21 2025 12:11:20 GMT-0500 (Central Daylight Time),122986.70000004768,A,b,I,b,186,3,199.39999997615814,122787.30000007153,8005,WL,C,7.0
1,8.345999956130981,learn,51654.00004386902,Wed May 21 2025 12:11:20 GMT-0500 (Central Daylight Time),123070.20000004768,A,bo,I,o,66,3,282.89999997615814,122787.30000007153,8005,WL,C,7.0
1,8.463000059127808,learn,51536.99994087219,Wed May 21 2025 12:11:20 GMT-0500 (Central Daylight Time),123186.60000002384,A,boy,I,y,111,3,399.2999999523163,122787.30000007153,8005,WL,C,7.0
1,8.67900013923645,learn,51320.99986076355,Wed May 21 2025 12:11:20 GMT-0500 (Central Daylight Time),123403.30000007153,A,boyenter,I,enter,203,3,616.0,122787.30000007153,8005,WL,C,7.0
1,9.413000106811523,learn,50586.99989318848,Wed May 21 2025 12:11:20 GMT-0500 (Central Daylight Time),124136.60000002384,A,a,I,a,723,3,733.0,123403.60000002384,8005,WL,C,8.0
1,9.562999963760376,learn,50437.000036239624,Wed May 21 2025 12:11:20 GMT-0500 (Central Daylight Time),124286.5,A,ai,I,i,132,3,882.8999999761581,123403.60000002384,8005,WL,C,8.0
1,10.128999948501587,learn,49871.00005149841,Wed May 21 2025 12:11:20 GMT-0500 (Central Daylight Time),124852.70000004768,A,a,I,backspace,559,3,1449.1000000238419,123403.60000002384,8005,WL,C,8.0
1,10.51200008392334,learn,49487.99991607666,Wed May 21 2025 12:11:20 GMT-0500 (Central Daylight Time),125236.30000007153,A,,I,backspace,376,3,1832.7000000476837,123403.60000002384,8005,WL,C,8.0
1,11.09500002861023,learn,48904.99997138977,Wed May 21 2025 12:11:20 GMT-0500 (Central Daylight Time),125819.20000004768,A,n,I,n,569,3,2415.600000023842,123403.60000002384,8005,WL,C,8.0
1,11.246000051498413,learn,48753.99994850159,Wed May 21 2025 12:11:20 GMT-0500 (Central Daylight Time),125969.40000009537,A,na,I,a,139,3,2565.8000000715256,123403.60000002384,8005,WL,C,8.0
1,11.312000036239624,learn,48687.999963760376,Wed May 21 2025 12:11:20 GMT-0500 (Central Daylight Time),126035.5,A,nai,I,i,60,3,2631.899999976158,123403.60000002384,8005,WL,C,8.0
1,11.394999980926514,learn,48605.000019073486,Wed May 21 2025 12:11:20 GMT-0500 (Central Daylight Time),126119.20000004768,A,nail,I,l,73,3,2715.600000023842,123403.60000002384,8005,WL,C,8.0
1,11.628999948501587,learn,48371.00005149841,Wed May 21 2025 12:11:20 GMT-0500 (Central Daylight Time),126352.30000007153,A,nailenter,I,enter,214,3,2948.7000000476837,123403.60000002384,8005,WL,C,8.0
1,11.962000131607056,learn,48037.999868392944,Wed May 21 2025 12:11:20 GMT-0500 (Central Daylight Time),126685.70000004768,A,d,I,d,317,3,333.0,126352.70000004768,8005,WL,C,9.0
1,12.028000116348267,learn,47971.99988365173,Wed May 21 2025 12:11:20 GMT-0500 (Central Daylight Time),126752.30000007153,A,do,I,o,55,3,399.60000002384186,126352.70000004768,8005,WL,C,9.0
1,12.128000020980835,learn,47871.999979019165,Wed May 21 2025 12:11:20 GMT-0500 (Central Daylight Time),126852.30000007153,A,doc,I,c,93,3,499.60000002384186,126352.70000004768,8005,WL,C,9.0
1,12.378000020980835,learn,47621.999979019165,Wed May 21 2025 12:11:20 GMT-0500 (Central Daylight Time),127102.30000007153,A,doct,I,t,241,3,749.6000000238419,126352.70000004768,8005,WL,C,9.0
1,12.51200008392334,learn,47487.99991607666,Wed May 21 2025 12:11:20 GMT-0500 (Central Daylight Time),127235.60000002384,A,docto,I,o,119,3,882.8999999761581,126352.70000004768,8005,WL,C,9.0
1,12.59500002861023,learn,47404.99997138977,Wed May 21 2025 12:11:20 GMT-0500 (Central Daylight Time),127318.60000002384,A,doctor,I,r,75,3,965.8999999761581,126352.70000004768,8005,WL,C,9.0
1,12.84500002861023,learn,47154.99997138977,Wed May 21 2025 12:11:20 GMT-0500 (Central Daylight Time),127568.80000007153,A,doctorenter,I,enter,239,3,1216.1000000238419,126352.70000004768,8005,WL,C,9.0
1,13.84500002861023,learn,46154.99997138977,Wed May 21 2025 12:11:20 GMT-0500 (Central Daylight Time),128568.40000009537,A,f,I,f,988,3,999.2000000476837,127569.20000004768,8005,WL,C,10.0
1,13.944999933242798,learn,46055.0000667572,Wed May 21 2025 12:11:20 GMT-0500 (Central Daylight Time),128668.5,A,fl,I,l,85,3,1099.2999999523163,127569.20000004768,8005,WL,C,10.0
1,14.028000116348267,learn,45971.99988365173,Wed May 21 2025 12:11:20 GMT-0500 (Central Daylight Time),128751.80000007153,A,fla,I,a,74,3,1182.6000000238419,127569.20000004768,8005,WL,C,10.0
1,14.311000108718872,learn,45688.99989128113,Wed May 21 2025 12:11:20 GMT-0500 (Central Daylight Time),129035.0,A,flag,I,g,278,3,1465.7999999523163,127569.20000004768,8005,WL,C,10.0
1,14.528000116348267,learn,45471.99988365173,Wed May 21 2025 12:11:20 GMT-0500 (Central Daylight Time),129251.5,A,flagenter,I,enter,202,3,1682.2999999523163,127569.20000004768,8005,WL,C,10.0
1,14.760999917984009,learn,45239.00008201599,Wed May 21 2025 12:11:20 GMT-0500 (Central Daylight Time),129484.90000009537,A,c,I,c,217,3,232.90000009536743,129252.0,8005,WL,C,11.0
1,14.82800006866455,learn,45171.99993133545,Wed May 21 2025 12:11:20 GMT-0500 (Central Daylight Time),129551.5,A,ca,I,a,48,3,299.5,129252.0,8005,WL,C,11.0
1,14.91100001335144,learn,45088.99998664856,Wed May 21 2025 12:11:20 GMT-0500 (Central Daylight Time),129634.70000004768,A,cam,I,m,71,3,382.7000000476837,129252.0,8005,WL,C,11.0
1,15.42300009727478,learn,44576.99990272522,Wed May 21 2025 12:11:20 GMT-0500 (Central Daylight Time),130146.5,A,camp,I,p,490,3,894.5,129252.0,8005,WL,C,11.0
1,15.49399995803833,learn,44506.00004196167,Wed May 21 2025 12:11:20 GMT-0500 (Central Daylight Time),130217.40000009537,A,campenter,I,enter,58,3,965.4000000953674,129252.0,8005,WL,C,11.0
1,18.509999990463257,learn,41490.00000953674,Wed May 21 2025 12:11:20 GMT-0500 (Central Daylight Time),133233.60000002384,A,s,I,s,3003,3,3016.0,130217.60000002384,8005,WL,C,12.0
1,18.625999927520752,learn,41374.00007247925,Wed May 21 2025 12:11:20 GMT-0500 (Central Daylight Time),133350.0,A,sh,I,h,101,3,3132.399999976158,130217.60000002384,8005,WL,C,12.0
1,18.7260000705719,learn,41273.9999294281,Wed May 21 2025 12:11:20 GMT-0500 (Central Daylight Time),133450.20000004768,A,sho,I,o,87,3,3232.600000023842,130217.60000002384,8005,WL,C,12.0
1,18.908999919891357,learn,41091.00008010864,Wed May 21 2025 12:11:20 GMT-0500 (Central Daylight Time),133633.30000007153,A,shor,I,r,162,3,3415.7000000476837,130217.60000002384,8005,WL,C,12.0
1,18.993000030517578,learn,41006.99996948242,Wed May 21 2025 12:11:20 GMT-0500 (Central Daylight Time),133717.0,A,shore,I,e,75,3,3499.399999976158,130217.60000002384,8005,WL,C,12.0
1,20.676000118255615,learn,39323.999881744385,Wed May 21 2025 12:11:20 GMT-0500 (Central Daylight Time),135399.5,A,shoreenter,I,enter,1664,3,5181.899999976158,130217.60000002384,8005,WL,C,12.0
1,23.02500009536743,learn,36974.99990463257,Wed May 21 2025 12:11:20 GMT-0500 (Central Daylight Time),137748.70000004768,A,l,I,l,2335,3,2348.7999999523163,135399.90000009537,8005,WL,C,13.0
1,23.125,learn,36875.0,Wed May 21 2025 12:11:20 GMT-0500 (Central Daylight Time),137848.60000002384,A,le,I,e,89,3,2448.6999999284744,135399.90000009537,8005,WL,C,13.0
1,23.308000087738037,learn,36691.99991226196,Wed May 21 2025 12:11:20 GMT-0500 (Central Daylight Time),138032.0,A,let,I,t,172,3,2632.0999999046326,135399.90000009537,8005,WL,C,13.0
1,23.424999952316284,learn,36575.000047683716,Wed May 21 2025 12:11:20 GMT-0500 (Central Daylight Time),138148.70000004768,A,lett,I,t,109,3,2748.7999999523163,135399.90000009537,8005,WL,C,13.0
1,23.591000080108643,learn,36408.99991989136,Wed May 21 2025 12:11:20 GMT-0500 (Central Daylight Time),138315.40000009537,A,lette,I,e,153,3,2915.5,135399.90000009537,8005,WL,C,13.0
1,23.641000032424927,learn,36358.99996757507,Wed May 21 2025 12:11:20 GMT-0500 (Central Daylight Time),138365.20000004768,A,letter,I,r,34,3,2965.2999999523163,135399.90000009537,8005,WL,C,13.0
1,23.907999992370605,learn,36092.000007629395,Wed May 21 2025 12:11:20 GMT-0500 (Central Daylight Time),138631.80000007153,A,letterenter,I,enter,248,3,3231.899999976158,135399.90000009537,8005,WL,C,13.0
1,42.60199999809265,learn,17398.00000190735,Wed May 21 2025 12:11:20 GMT-0500 (Central Daylight Time),157326.30000007153,A,b,I,b,18678,3,18694.100000023842,138632.20000004768,8005,WL,C,14.0
1,42.71900010108948,learn,17280.999898910522,Wed May 21 2025 12:11:20 GMT-0500 (Central Daylight Time),157442.5,A,bo,I,o,95,3,18810.299999952316,138632.20000004768,8005,WL,C,14.0
1,42.88499999046326,learn,17115.000009536743,Wed May 21 2025 12:11:20 GMT-0500 (Central Daylight Time),157609.30000007153,A,bod,I,d,155,3,18977.100000023842,138632.20000004768,8005,WL,C,14.0
1,43.05200004577637,learn,16947.999954223633,Wed May 21 2025 12:11:20 GMT-0500 (Central Daylight Time),157775.80000007153,A,body,I,y,148,3,19143.600000023842,138632.20000004768,8005,WL,C,14.0
1,43.901999950408936,learn,16098.000049591064,Wed May 21 2025 12:11:20 GMT-0500 (Central Daylight Time),158625.60000002384,A,bodyenter,I,enter,838,3,19993.399999976158,138632.20000004768,8005,WL,C,14.0
1,48.18400001525879,learn,11815.999984741211,Wed May 21 2025 12:11:20 GMT-0500 (Central Daylight Time),162907.60000002384,A,enter,I,enter,4268,3,4281.699999928474,158625.90000009537,8005,WL,C,15.0
2,0.5499999523162842,learn,59450.000047683716,Wed May 21 2025 12:11:20 GMT-0500 (Central Daylight Time),228986.70000004768,A,b,I,b,545,3,549.7000000476837,228437.0,8005,WL,C,1.0
2,0.6669998168945312,learn,59333.00018310547,Wed May 21 2025 12:11:20 GMT-0500 (Central Daylight Time),229103.90000009537,A,bo,I,o,97,3,666.9000000953674,228437.0,8005,WL,C,1.0
2,0.75,learn,59250.0,Wed May 21 2025 12:11:20 GMT-0500 (Central Daylight Time),229186.70000004768,A,bod,I,d,78,3,749.7000000476837,228437.0,8005,WL,C,1.0
2,0.8999998569488525,learn,59100.00014305115,Wed May 21 2025 12:11:20 GMT-0500 (Central Daylight Time),229336.90000009537,A,body,I,y,140,3,899.9000000953674,228437.0,8005,WL,C,1.0
2,1.5329999923706055,learn,58467.000007629395,Wed May 21 2025 12:11:20 GMT-0500 (Central Daylight Time),229969.90000009537,A,bodyenter,I,enter,612,3,1532.9000000953674,228437.0,8005,WL,C,1.0
2,1.7170000076293945,learn,58282.999992370605,Wed May 21 2025 12:11:20 GMT-0500 (Central Daylight Time),230153.30000007153,A,s,I,s,171,3,182.89999997615814,229970.40000009537,8005,WL,C,2.0
2,1.8829998970031738,learn,58117.000102996826,Wed May 21 2025 12:11:20 GMT-0500 (Central Daylight Time),230319.60000002384,A,sh,I,h,148,3,349.1999999284744,229970.40000009537,8005,WL,C,2.0
2,1.9829998016357422,learn,58017.00019836426,Wed May 21 2025 12:11:20 GMT-0500 (Central Daylight Time),230419.60000002384,A,sho,I,o,87,3,449.1999999284744,229970.40000009537,8005,WL,C,2.0
2,2.0829999446868896,learn,57917.00005531311,Wed May 21 2025 12:11:20 GMT-0500 (Central Daylight Time),230519.70000004768,A,shor,I,r,82,3,549.2999999523163,229970.40000009537,8005,WL,C,2.0
2,2.132999897003174,learn,57867.000102996826,Wed May 21 2025 12:11:20 GMT-0500 (Central Daylight Time),230569.70000004768,A,shore,I,e,38,3,599.2999999523163,229970.40000009537,8005,WL,C,2.0
2,2.2669999599456787,learn,57733.00004005432,Wed May 21 2025 12:11:20 GMT-0500 (Central Daylight Time),230702.90000009537,A,shoreenter,I,enter,115,3,732.5,229970.40000009537,8005,WL,C,2.0
2,2.8329999446868896,learn,57167.00005531311,Wed May 21 2025 12:11:20 GMT-0500 (Central Daylight Time),231269.40000009537,A,c,I,c,558,3,566.1000000238419,230703.30000007153,8005,WL,C,3.0
2,2.934000015258789,learn,57065.99998474121,Wed May 21 2025 12:11:20 GMT-0500 (Central Daylight Time),231370.30000007153,A,ca,I,a,96,3,667.0,230703.30000007153,8005,WL,C,3.0
2,3.0999999046325684,learn,56900.00009536743,Wed May 21 2025 12:11:20 GMT-0500 (Central Daylight Time),231536.20000004768,A,cat,I,t,155,3,832.8999999761581,230703.30000007153,8005,WL,C,3.0
2,3.25,learn,56750.0,Wed May 21 2025 12:11:20 GMT-0500 (Central Daylight Time),231686.20000004768,A,catt,I,t,133,3,982.8999999761581,230703.30000007153,8005,WL,C,3.0
2,3.365999937057495,learn,56634.000062942505,Wed May 21 2025 12:11:20 GMT-0500 (Central Daylight Time),231802.70000004768,A,cattl,I,l,111,3,1099.3999999761581,230703.30000007153,8005,WL,C,3.0
2,3.432999849319458,learn,56567.00015068054,Wed May 21 2025 12:11:20 GMT-0500 (Central Daylight Time),231869.40000009537,A,cattle,I,e,58,3,1166.1000000238419,230703.30000007153,8005,WL,C,3.0
2,3.565999984741211,learn,56434.00001525879,Wed May 21 2025 12:11:20 GMT-0500 (Central Daylight Time),232002.70000004768,A,cattleenter,I,enter,113,3,1299.3999999761581,230703.30000007153,8005,WL,C,3.0
2,3.6989998817443848,learn,56301.000118255615,Wed May 21 2025 12:11:20 GMT-0500 (Central Daylight Time),232135.80000007153,A,c,I,c,115,3,132.70000004768372,232003.10000002384,8005,WL,C,4.0
2,3.9489998817443848,learn,56051.000118255615,Wed May 21 2025 12:11:20 GMT-0500 (Central Daylight Time),232385.80000007153,A,co,I,o,237,3,382.7000000476837,232003.10000002384,8005,WL,C,4.0
2,4.08299994468689,learn,55917.00005531311,Wed May 21 2025 12:11:20 GMT-0500 (Central Daylight Time),232519.10000002384,A,cor,I,r,125,3,516.0,232003.10000002384,8005,WL,C,4.0
2,4.2159998416900635,learn,55784.00015830994,Wed May 21 2025 12:11:20 GMT-0500 (Central Daylight Time),232652.5,A,corn,I,n,127,3,649.3999999761581,232003.10000002384,8005,WL,C,4.0
2,4.365999937057495,learn,55634.000062942505,Wed May 21 2025 12:11:20 GMT-0500 (Central Daylight Time),232802.5,A,cornenter,I,enter,137,3,799.3999999761581,232003.10000002384,8005,WL,C,4.0
2,4.5329999923706055,learn,55467.000007629395,Wed May 21 2025 12:11:20 GMT-0500 (Central Daylight Time),232969.10000002384,A,s,I,s,147,3,166.19999992847443,232802.90000009537,8005,WL,C,5.0
2,4.631999969482422,learn,55368.00003051758,Wed May 21 2025 12:11:20 GMT-0500 (Central Daylight Time),233068.90000009537,A,su,I,u,92,3,266.0,232802.90000009537,8005,WL,C,5.0
2,4.865999937057495,learn,55134.000062942505,Wed May 21 2025 12:11:20 GMT-0500 (Central Daylight Time),233302.20000004768,A,sug,I,g,216,3,499.2999999523163,232802.90000009537,8005,WL,C,5.0
2,4.98199987411499,learn,55018.00012588501,Wed May 21 2025 12:11:20 GMT-0500 (Central Daylight Time),233418.70000004768,A,suga,I,a,111,3,615.7999999523163,232802.90000009537,8005,WL,C,5.0
2,5.082000017166138,learn,54917.99998283386,Wed May 21 2025 12:11:20 GMT-0500 (Central Daylight Time),233518.70000004768,A,sugar,I,r,91,3,715.7999999523163,232802.90000009537,8005,WL,C,5.0
2,5.198999881744385,learn,54801.000118255615,Wed May 21 2025 12:11:20 GMT-0500 (Central Daylight Time),233635.60000002384,A,sugarenter,I,enter,104,3,832.6999999284744,232802.90000009537,8005,WL,C,5.0
2,5.348999977111816,learn,54651.00002288818,Wed May 21 2025 12:11:20 GMT-0500 (Central Daylight Time),233785.5,A,w,I,w,130,3,149.59999990463257,233635.90000009537,8005,WL,C,6.0
2,5.4659998416900635,learn,54534.00015830994,Wed May 21 2025 12:11:20 GMT-0500 (Central Daylight Time),233902.0,A,wh,I,h,109,3,266.09999990463257,233635.90000009537,8005,WL,C,6.0
2,5.56499981880188,learn,54435.00018119812,Wed May 21 2025 12:11:20 GMT-0500 (Central Daylight Time),234001.90000009537,A,whe,I,e,79,3,366.0,233635.90000009537,8005,WL,C,6.0
2,5.648999929428101,learn,54351.0000705719,Wed May 21 2025 12:11:20 GMT-0500 (Central Daylight Time),234085.30000007153,A,whea,I,a,67,3,449.39999997615814,233635.90000009537,8005,WL,C,6.0
2,5.748999834060669,learn,54251.00016593933,Wed May 21 2025 12:11:20 GMT-0500 (Central Daylight Time),234185.5,A,wheat,I,t,80,3,549.5999999046326,233635.90000009537,8005,WL,C,6.0
2,6.131999969482422,learn,53868.00003051758,Wed May 21 2025 12:11:20 GMT-0500 (Central Daylight Time),234568.40000009537,A,wheatenter,I,enter,372,3,932.5,233635.90000009537,8005,WL,C,6.0
2,6.414999961853027,learn,53585.00003814697,Wed May 21 2025 12:11:20 GMT-0500 (Central Daylight Time),234851.80000007153,A,f,I,f,270,3,283.0,234568.80000007153,8005,WL,C,7.0
2,6.498999834060669,learn,53501.00016593933,Wed May 21 2025 12:11:20 GMT-0500 (Central Daylight Time),234935.10000002384,A,fl,I,l,67,3,366.2999999523163,234568.80000007153,8005,WL,C,7.0
2,6.615000009536743,learn,53384.99999046326,Wed May 21 2025 12:11:20 GMT-0500 (Central Daylight Time),235051.80000007153,A,fla,I,a,102,3,483.0,234568.80000007153,8005,WL,C,7.0
2,6.7149999141693115,learn,53285.00008583069,Wed May 21 2025 12:11:20 GMT-0500 (Central Daylight Time),235151.80000007153,A,flag,I,g,90,3,583.0,234568.80000007153,8005,WL,C,7.0
2,6.81499981880188,learn,53185.00018119812,Wed May 21 2025 12:11:20 GMT-0500 (Central Daylight Time),235251.30000007153,A,flagenter,I,enter,94,3,682.5,234568.80000007153,8005,WL,C,7.0
2,7.264999866485596,learn,52735.000133514404,Wed May 21 2025 12:11:20 GMT-0500 (Central Daylight Time),235701.40000009537,A,l,I,l,442,3,449.8000000715256,235251.60000002384,8005,WL,C,8.0
2,7.381999969482422,learn,52618.00003051758,Wed May 21 2025 12:11:20 GMT-0500 (Central Daylight Time),235818.0,A,le,I,e,96,3,566.3999999761581,235251.60000002384,8005,WL,C,8.0
2,7.514999866485596,learn,52485.000133514404,Wed May 21 2025 12:11:20 GMT-0500 (Central Daylight Time),235951.20000004768,A,let,I,t,123,3,699.6000000238419,235251.60000002384,8005,WL,C,8.0
2,7.648000001907349,learn,52351.99999809265,Wed May 21 2025 12:11:20 GMT-0500 (Central Daylight Time),236084.70000004768,A,lett,I,t,126,3,833.1000000238419,235251.60000002384,8005,WL,C,8.0
2,7.7809998989105225,learn,52219.00010108948,Wed May 21 2025 12:11:20 GMT-0500 (Central Daylight Time),236217.70000004768,A,lette,I,e,112,3,966.1000000238419,235251.60000002384,8005,WL,C,8.0
2,7.847999811172485,learn,52152.000188827515,Wed May 21 2025 12:11:20 GMT-0500 (Central Daylight Time),236284.40000009537,A,letter,I,r,52,3,1032.8000000715256,235251.60000002384,8005,WL,C,8.0
2,8.280999898910522,learn,51719.00010108948,Wed May 21 2025 12:11:20 GMT-0500 (Central Daylight Time),236717.90000009537,A,letterenter,I,enter,417,3,1466.3000000715256,235251.60000002384,8005,WL,C,8.0
2,8.696999788284302,learn,51303.0002117157,Wed May 21 2025 12:11:20 GMT-0500 (Central Daylight Time),237134.30000007153,A,q,I,q,407,3,416.0,236718.30000007153,8005,WL,C,9.0
2,8.79699993133545,learn,51203.00006866455,Wed May 21 2025 12:11:20 GMT-0500 (Central Daylight Time),237234.40000009537,A,qu,I,u,95,3,516.1000000238419,236718.30000007153,8005,WL,C,9.0
2,8.980000019073486,learn,51019.999980926514,Wed May 21 2025 12:11:20 GMT-0500 (Central Daylight Time),237417.5,A,que,I,e,171,3,699.1999999284744,236718.30000007153,8005,WL,C,9.0
2,9.13099980354309,learn,50869.00019645691,Wed May 21 2025 12:11:20 GMT-0500 (Central Daylight Time),237568.5,A,quee,I,e,132,3,850.1999999284744,236718.30000007153,8005,WL,C,9.0
2,9.21399998664856,learn,50786.00001335144,Wed May 21 2025 12:11:20 GMT-0500 (Central Daylight Time),237651.0,A,queen,I,n,68,3,932.6999999284744,236718.30000007153,8005,WL,C,9.0
2,9.379999876022339,learn,50620.00012397766,Wed May 21 2025 12:11:20 GMT-0500 (Central Daylight Time),237817.5,A,queenenter,I,enter,155,3,1099.1999999284744,236718.30000007153,8005,WL,C,9.0
2,9.480000019073486,learn,50519.999980926514,Wed May 21 2025 12:11:20 GMT-0500 (Central Daylight Time),237917.20000004768,A,d,I,d,84,3,99.39999997615814,237817.80000007153,8005,WL,C,10.0
2,9.613999843597412,learn,50386.00015640259,Wed May 21 2025 12:11:20 GMT-0500 (Central Daylight Time),238050.80000007153,A,do,I,o,128,3,233.0,237817.80000007153,8005,WL,C,10.0
2,9.696999788284302,learn,50303.0002117157,Wed May 21 2025 12:11:20 GMT-0500 (Central Daylight Time),238134.0,A,doc,I,c,75,3,316.1999999284744,237817.80000007153,8005,WL,C,10.0
2,9.896999835968018,learn,50103.00016403198,Wed May 21 2025 12:11:20 GMT-0500 (Central Daylight Time),238333.90000009537,A,doct,I,t,183,3,516.1000000238419,237817.80000007153,8005,WL,C,10.0
2,9.996999979019165,learn,50003.000020980835,Wed May 21 2025 12:11:20 GMT-0500 (Central Daylight Time),238433.90000009537,A,docto,I,o,87,3,616.1000000238419,237817.80000007153,8005,WL,C,10.0
2,10.063999891281128,learn,49936.00010871887,Wed May 21 2025 12:11:20 GMT-0500 (Central Daylight Time),238500.70000004768,A,doctor,I,r,51,3,682.8999999761581,237817.80000007153,8005,WL,C,10.0
2,10.246999979019165,learn,49753.000020980835,Wed May 21 2025 12:11:20 GMT-0500 (Central Daylight Time),238683.60000002384,A,doctorenter,I,enter,177,3,865.7999999523163,237817.80000007153,8005,WL,C,10.0
2,11.04699993133545,learn,48953.00006866455,Wed May 21 2025 12:11:20 GMT-0500 (Central Daylight Time),239483.60000002384,A,b,I,b,786,3,799.6999999284744,238683.90000009537,8005,WL,C,11.0
2,11.145999908447266,learn,48854.000091552734,Wed May 21 2025 12:11:20 GMT-0500 (Central Daylight Time),239583.5,A,bo,I,o,90,3,899.5999999046326,238683.90000009537,8005,WL,C,11.0
2,11.812999963760376,learn,48187.000036239624,Wed May 21 2025 12:11:20 GMT-0500 (Central Daylight Time),240249.70000004768,A,boy,I,y,654,3,1565.7999999523163,238683.90000009537,8005,WL,C,11.0
2,12.095999956130981,learn,47904.00004386902,Wed May 21 2025 12:11:20 GMT-0500 (Central Daylight Time),240533.20000004768,A,boyenter,I,enter,275,3,1849.2999999523163,238683.90000009537,8005,WL,C,11.0
2,12.36299991607666,learn,47637.00008392334,Wed May 21 2025 12:11:20 GMT-0500 (Central Daylight Time),240800.0,A,n,I,n,248,3,266.5,240533.5,8005,WL,C,12.0
2,12.580999851226807,learn,47419.00014877319,Wed May 21 2025 12:11:20 GMT-0500 (Central Daylight Time),241017.70000004768,A,na,I,a,197,3,484.2000000476837,240533.5,8005,WL,C,12.0
2,12.645999908447266,learn,47354.000091552734,Wed May 21 2025 12:11:20 GMT-0500 (Central Daylight Time),241083.0,A,nai,I,i,59,3,549.5,240533.5,8005,WL,C,12.0
2,12.728999853134155,learn,47271.000146865845,Wed May 21 2025 12:11:20 GMT-0500 (Central Daylight Time),241166.30000007153,A,nail,I,l,74,3,632.8000000715256,240533.5,8005,WL,C,12.0
2,13.02899980545044,learn,46971.00019454956,Wed May 21 2025 12:11:20 GMT-0500 (Central Daylight Time),241466.30000007153,A,nailenter,I,enter,287,3,932.8000000715256,240533.5,8005,WL,C,12.0
2,15.544999837875366,learn,44455.000162124634,Wed May 21 2025 12:11:20 GMT-0500 (Central Daylight Time),243982.20000004768,A,h,I,h,2499,3,2515.2999999523163,241466.90000009537,8005,WL,C,13.0
2,15.694999933242798,learn,44305.0000667572,Wed May 21 2025 12:11:20 GMT-0500 (Central Daylight Time),244132.10000002384,A,ho,I,o,135,3,2665.1999999284744,241466.90000009537,8005,WL,C,13.0
2,15.794999837875366,learn,44205.000162124634,Wed May 21 2025 12:11:20 GMT-0500 (Central Daylight Time),244232.10000002384,A,hom,I,m,89,3,2765.1999999284744,241466.90000009537,8005,WL,C,13.0
2,15.92799997329712,learn,44072.00002670288,Wed May 21 2025 12:11:20 GMT-0500 (Central Daylight Time),244365.40000009537,A,home,I,e,117,3,2898.5,241466.90000009537,8005,WL,C,13.0
2,16.027999877929688,learn,43972.00012207031,Wed May 21 2025 12:11:20 GMT-0500 (Central Daylight Time),244465.30000007153,A,homeenter,I,enter,88,3,2998.399999976158,241466.90000009537,8005,WL,C,13.0
2,16.61299991607666,learn,43387.00008392334,Wed May 21 2025 12:11:20 GMT-0500 (Central Daylight Time),245049.60000002384,A,t,I,t,564,3,583.8999999761581,244465.70000004768,8005,WL,C,14.0
2,16.694999933242798,learn,43305.0000667572,Wed May 21 2025 12:11:20 GMT-0500 (Central Daylight Time),245132.20000004768,A,to,I,o,67,3,666.5,244465.70000004768,8005,WL,C,14.0
2,16.777999877929688,learn,43222.00012207031,Wed May 21 2025 12:11:20 GMT-0500 (Central Daylight Time),245215.40000009537,A,tow,I,w,73,3,749.7000000476837,244465.70000004768,8005,WL,C,14.0
2,16.861999988555908,learn,43138.00001144409,Wed May 21 2025 12:11:20 GMT-0500 (Central Daylight Time),245299.5,A,towe,I,e,63,3,833.7999999523163,244465.70000004768,8005,WL,C,14.0
2,16.91100001335144,learn,43088.99998664856,Wed May 21 2025 12:11:20 GMT-0500 (Central Daylight Time),245348.10000002384,A,tower,I,r,42,3,882.3999999761581,244465.70000004768,8005,WL,C,14.0
2,17.560999870300293,learn,42439.00012969971,Wed May 21 2025 12:11:20 GMT-0500 (Central Daylight Time),245998.30000007153,A,towerenter,I,enter,641,3,1532.6000000238419,244465.70000004768,8005,WL,C,14.0
2,20.22699999809265,learn,39773.00000190735,Wed May 21 2025 12:11:20 GMT-0500 (Central Daylight Time),248664.10000002384,A,q,I,q,2655,3,2665.5,245998.60000002384,8005,WL,C,15.0
2,20.359999895095825,learn,39640.000104904175,Wed May 21 2025 12:11:20 GMT-0500 (Central Daylight Time),248797.30000007153,A,qu,I,u,125,3,2798.7000000476837,245998.60000002384,8005,WL,C,15.0
2,20.460999965667725,learn,39539.000034332275,Wed May 21 2025 12:11:20 GMT-0500 (Central Daylight Time),248897.60000002384,A,que,I,e,89,3,2899.0,245998.60000002384,8005,WL,C,15.0
2,20.609999895095825,learn,39390.000104904175,Wed May 21 2025 12:11:20 GMT-0500 (Central Daylight Time),249047.30000007153,A,quee,I,e,131,3,3048.7000000476837,245998.60000002384,8005,WL,C,15.0
2,20.676999807357788,learn,39323.00019264221,Wed May 21 2025 12:11:20 GMT-0500 (Central Daylight Time),249113.90000009537,A,queen,I,n,54,3,3115.3000000715256,245998.60000002384,8005,WL,C,15.0
2,20.859999895095825,learn,39140.000104904175,Wed May 21 2025 12:11:20 GMT-0500 (Central Daylight Time),249297.20000004768,A,queenenter,I,enter,171,3,3298.600000023842,245998.60000002384,8005,WL,C,15.0
3,0.6840000152587891,learn,59315.99998474121,Wed May 21 2025 12:11:20 GMT-0500 (Central Daylight Time),314060.5,A,c,I,c,677,3,683.2999999523163,313377.2000000477,8005,WL,C,1.0
3,0.8169999122619629,learn,59183.00008773804,Wed May 21 2025 12:11:20 GMT-0500 (Central Daylight Time),314193.40000009537,A,co,I,o,112,3,816.2000000476837,313377.2000000477,8005,WL,C,1.0
3,0.9170000553131104,learn,59082.99994468689,Wed May 21 2025 12:11:20 GMT-0500 (Central Daylight Time),314293.5,A,cor,I,r,93,3,916.2999999523163,313377.2000000477,8005,WL,C,1.0
3,1.0339999198913574,learn,58966.00008010864,Wed May 21 2025 12:11:20 GMT-0500 (Central Daylight Time),314410.2000000477,A,corn,I,n,104,3,1033.0,313377.2000000477,8005,WL,C,1.0
3,1.4000000953674316,learn,58599.99990463257,Wed May 21 2025 12:11:20 GMT-0500 (Central Daylight Time),314776.60000002384,A,cornenter,I,enter,347,3,1399.3999999761581,313377.2000000477,8005,WL,C,1.0
3,1.6500000953674316,learn,58349.99990463257,Wed May 21 2025 12:11:20 GMT-0500 (Central Daylight Time),315026.5,A,w,I,w,237,3,249.5,314777.0,8005,WL,C,2.0
3,1.9000000953674316,learn,58099.99990463257,Wed May 21 2025 12:11:20 GMT-0500 (Central Daylight Time),315276.40000009537,A,wh,I,h,235,3,499.40000009536743,314777.0,8005,WL,C,2.0
3,1.9830000400543213,learn,58016.99995994568,Wed May 21 2025 12:11:20 GMT-0500 (Central Daylight Time),315359.8000000715,A,whe,I,e,65,3,582.8000000715256,314777.0,8005,WL,C,2.0
3,2.049999952316284,learn,57950.000047683716,Wed May 21 2025 12:11:20 GMT-0500 (Central Daylight Time),315426.7000000477,A,whea,I,a,61,3,649.7000000476837,314777.0,8005,WL,C,2.0
3,2.1660001277923584,learn,57833.99987220764,Wed May 21 2025 12:11:20 GMT-0500 (Central Daylight Time),315543.2000000477,A,wheat,I,t,107,3,766.2000000476837,314777.0,8005,WL,C,2.0
3,2.4160001277923584,learn,57583.99987220764,Wed May 21 2025 12:11:20 GMT-0500 (Central Daylight Time),315793.10000002384,A,wheatenter,I,enter,230,3,1016.1000000238419,314777.0,8005,WL,C,2.0
3,2.699000120162964,learn,57300.999879837036,Wed May 21 2025 12:11:20 GMT-0500 (Central Daylight Time),316076.2000000477,A,s,I,s,268,3,282.7999999523163,315793.40000009537,8005,WL,C,3.0
3,2.8329999446868896,learn,57167.00005531311,Wed May 21 2025 12:11:20 GMT-0500 (Central Daylight Time),316209.3000000715,A,su,I,u,113,3,415.89999997615814,315793.40000009537,8005,WL,C,3.0
3,3.0329999923706055,learn,56967.000007629395,Wed May 21 2025 12:11:20 GMT-0500 (Central Daylight Time),316409.40000009537,A,sug,I,g,180,3,616.0,315793.40000009537,8005,WL,C,3.0
3,3.1660001277923584,learn,56833.99987220764,Wed May 21 2025 12:11:20 GMT-0500 (Central Daylight Time),316542.7000000477,A,suga,I,a,124,3,749.2999999523163,315793.40000009537,8005,WL,C,3.0
3,3.2660000324249268,learn,56733.99996757507,Wed May 21 2025 12:11:20 GMT-0500 (Central Daylight Time),316642.60000002384,A,sugar,I,r,79,3,849.1999999284744,315793.40000009537,8005,WL,C,3.0
3,3.365999937057495,learn,56634.000062942505,Wed May 21 2025 12:11:20 GMT-0500 (Central Daylight Time),316742.8000000715,A,sugarenter,I,enter,83,3,949.3999999761581,315793.40000009537,8005,WL,C,3.0
3,3.5329999923706055,learn,56467.000007629395,Wed May 21 2025 12:11:20 GMT-0500 (Central Daylight Time),316909.40000009537,A,c,I,c,159,3,166.30000007152557,316743.10000002384,8005,WL,C,4.0
3,3.6489999294281006,learn,56351.0000705719,Wed May 21 2025 12:11:20 GMT-0500 (Central Daylight Time),317026.10000002384,A,ca,I,a,96,3,283.0,316743.10000002384,8005,WL,C,4.0
3,3.815999984741211,learn,56184.00001525879,Wed May 21 2025 12:11:20 GMT-0500 (Central Daylight Time),317192.7000000477,A,cat,I,t,155,3,449.60000002384186,316743.10000002384,8005,WL,C,4.0
3,3.933000087738037,learn,56066.99991226196,Wed May 21 2025 12:11:20 GMT-0500 (Central Daylight Time),317309.40000009537,A,catt,I,t,101,3,566.3000000715256,316743.10000002384,8005,WL,C,4.0
3,4.065999984741211,learn,55934.00001525879,Wed May 21 2025 12:11:20 GMT-0500 (Central Daylight Time),317442.3000000715,A,cattl,I,l,120,3,699.2000000476837,316743.10000002384,8005,WL,C,4.0
3,4.166000127792358,learn,55833.99987220764,Wed May 21 2025 12:11:20 GMT-0500 (Central Daylight Time),317542.60000002384,A,cattle,I,e,92,3,799.5,316743.10000002384,8005,WL,C,4.0
3,4.2820000648498535,learn,55717.99993515015,Wed May 21 2025 12:11:20 GMT-0500 (Central Daylight Time),317658.90000009537,A,cattleenter,I,enter,110,3,915.8000000715256,316743.10000002384,8005,WL,C,4.0
3,4.615999937057495,learn,55384.000062942505,Wed May 21 2025 12:11:20 GMT-0500 (Central Daylight Time),317992.3000000715,A,t,I,t,323,3,333.2000000476837,317659.10000002384,8005,WL,C,5.0
3,4.699000120162964,learn,55300.999879837036,Wed May 21 2025 12:11:20 GMT-0500 (Central Daylight Time),318075.60000002384,A,to,I,o,69,3,416.5,317659.10000002384,8005,WL,C,5.0
3,4.7820000648498535,learn,55217.99993515015,Wed May 21 2025 12:11:20 GMT-0500 (Central Daylight Time),318159.0,A,tow,I,w,66,3,499.89999997615814,317659.10000002384,8005,WL,C,5.0
3,4.865999937057495,learn,55134.000062942505,Wed May 21 2025 12:11:20 GMT-0500 (Central Daylight Time),318242.40000009537,A,towe,I,e,62,3,583.3000000715256,317659.10000002384,8005,WL,C,5.0
3,5.0299999713897705,learn,54970.00002861023,Wed May 21 2025 12:11:20 GMT-0500 (Central Daylight Time),318406.7000000477,A,tower,I,r,159,3,747.6000000238419,317659.10000002384,8005,WL,C,5.0
3,5.177000045776367,learn,54822.99995422363,Wed May 21 2025 12:11:20 GMT-0500 (Central Daylight Time),318554.0,A,towerenter,I,enter,142,3,894.8999999761581,317659.10000002384,8005,WL,C,5.0
3,5.5320000648498535,learn,54467.99993515015,Wed May 21 2025 12:11:20 GMT-0500 (Central Daylight Time),318908.60000002384,A,q,I,q,339,3,354.1999999284744,318554.40000009537,8005,WL,C,6.0
3,5.615000009536743,learn,54384.99999046326,Wed May 21 2025 12:11:20 GMT-0500 (Central Daylight Time),318992.0,A,qu,I,u,65,3,437.59999990463257,318554.40000009537,8005,WL,C,6.0
3,5.732000112533569,learn,54267.99988746643,Wed May 21 2025 12:11:20 GMT-0500 (Central Daylight Time),319108.5,A,que,I,e,109,3,554.0999999046326,318554.40000009537,8005,WL,C,6.0
3,5.881999969482422,learn,54118.00003051758,Wed May 21 2025 12:11:20 GMT-0500 (Central Daylight Time),319258.7000000477,A,quee,I,e,145,3,704.2999999523163,318554.40000009537,8005,WL,C,6.0
3,5.982000112533569,learn,54017.99988746643,Wed May 21 2025 12:11:20 GMT-0500 (Central Daylight Time),319358.40000009537,A,queen,I,n,83,3,804.0,318554.40000009537,8005,WL,C,6.0
3,6.131999969482422,learn,53868.00003051758,Wed May 21 2025 12:11:20 GMT-0500 (Central Daylight Time),319508.5,A,queenenter,I,enter,136,3,954.0999999046326,318554.40000009537,8005,WL,C,6.0
3,6.865000009536743,learn,53134.99999046326,Wed May 21 2025 12:11:20 GMT-0500 (Central Daylight Time),320241.7000000477,A,b,I,b,721,3,732.7000000476837,319509.0,8005,WL,C,7.0
3,6.947999954223633,learn,53052.00004577637,Wed May 21 2025 12:11:20 GMT-0500 (Central Daylight Time),320324.90000009537,A,bo,I,o,68,3,815.9000000953674,319509.0,8005,WL,C,7.0
3,7.0320000648498535,learn,52967.99993515015,Wed May 21 2025 12:11:20 GMT-0500 (Central Daylight Time),320408.5,A,bod,I,d,72,3,899.5,319509.0,8005,WL,C,7.0
3,7.148000001907349,learn,52851.99999809265,Wed May 21 2025 12:11:20 GMT-0500 (Central Daylight Time),320524.90000009537,A,body,I,y,110,3,1015.9000000953674,319509.0,8005,WL,C,7.0
3,7.365000009536743,learn,52634.99999046326,Wed May 21 2025 12:11:20 GMT-0500 (Central Daylight Time),320741.40000009537,A,bodyenter,I,enter,201,3,1232.4000000953674,319509.0,8005,WL,C,7.0
3,7.482000112533569,learn,52517.99988746643,Wed May 21 2025 12:11:20 GMT-0500 (Central Daylight Time),320858.3000000715,A,d,I,d,96,3,116.60000002384186,320741.7000000477,8005,WL,C,8.0
3,8.280999898910522,learn,51719.00010108948,Wed May 21 2025 12:11:20 GMT-0500 (Central Daylight Time),321657.8000000715,A,do,I,o,787,3,916.1000000238419,320741.7000000477,8005,WL,C,8.0
3,8.348000049591064,learn,51651.999950408936,Wed May 21 2025 12:11:20 GMT-0500 (Central Daylight Time),321724.40000009537,A,doc,I,c,61,3,982.7000000476837,320741.7000000477,8005,WL,C,8.0
3,8.664000034332275,learn,51335.999965667725,Wed May 21 2025 12:11:20 GMT-0500 (Central Daylight Time),322041.0,A,doct,I,t,297,3,1299.2999999523163,320741.7000000477,8005,WL,C,8.0
3,8.814000129699707,learn,51185.99987030029,Wed May 21 2025 12:11:20 GMT-0500 (Central Daylight Time),322190.90000009537,A,doctr,I,r,133,3,1449.2000000476837,320741.7000000477,8005,WL,C,8.0
3,8.898000001907349,learn,51101.99999809265,Wed May 21 2025 12:11:20 GMT-0500 (Central Daylight Time),322274.5,A,doctro,I,o,78,3,1532.7999999523163,320741.7000000477,8005,WL,C,8.0
3,9.496999979019165,learn,50503.000020980835,Wed May 21 2025 12:11:20 GMT-0500 (Central Daylight Time),322874.2000000477,A,doctr,I,backspace,579,3,2132.5,320741.7000000477,8005,WL,C,8.0
3,9.664000034332275,learn,50335.999965667725,Wed May 21 2025 12:11:20 GMT-0500 (Central Daylight Time),323040.90000009537,A,doct,I,backspace,156,3,2299.2000000476837,320741.7000000477,8005,WL,C,8.0
3,9.897000074386597,learn,50102.9999256134,Wed May 21 2025 12:11:20 GMT-0500 (Central Daylight Time),323273.8000000715,A,docto,I,o,212,3,2532.100000023842,320741.7000000477,8005,WL,C,8.0
3,9.980999946594238,learn,50019.00005340576,Wed May 21 2025 12:11:20 GMT-0500 (Central Daylight Time),323357.3000000715,A,doctor,I,r,76,3,2615.600000023842,320741.7000000477,8005,WL,C,8.0
3,10.130000114440918,learn,49869.99988555908,Wed May 21 2025 12:11:20 GMT-0500 (Central Daylight Time),323507.2000000477,A,doctorenter,I,enter,137,3,2765.5,320741.7000000477,8005,WL,C,8.0
3,10.480000019073486,learn,49519.999980926514,Wed May 21 2025 12:11:20 GMT-0500 (Central Daylight Time),323857.2000000477,A,b,I,b,339,3,349.7000000476837,323507.5,8005,WL,C,9.0
3,10.614000082015991,learn,49385.99991798401,Wed May 21 2025 12:11:20 GMT-0500 (Central Daylight Time),323990.5,A,bo,I,o,125,3,483.0,323507.5,8005,WL,C,9.0
3,10.77999997138977,learn,49220.00002861023,Wed May 21 2025 12:11:20 GMT-0500 (Central Daylight Time),324157.10000002384,A,boy,I,y,160,3,649.6000000238419,323507.5,8005,WL,C,9.0
3,10.880000114440918,learn,49119.99988555908,Wed May 21 2025 12:11:20 GMT-0500 (Central Daylight Time),324257.10000002384,A,boyenter,I,enter,80,3,749.6000000238419,323507.5,8005,WL,C,9.0
3,11.114000082015991,learn,48885.99991798401,Wed May 21 2025 12:11:20 GMT-0500 (Central Daylight Time),324490.5,A,l,I,l,220,3,233.19999992847443,324257.3000000715,8005,WL,C,10.0
3,11.19700002670288,learn,48802.99997329712,Wed May 21 2025 12:11:20 GMT-0500 (Central Daylight Time),324573.5,A,le,I,e,67,3,316.1999999284744,324257.3000000715,8005,WL,C,10.0
3,11.364000082015991,learn,48635.99991798401,Wed May 21 2025 12:11:20 GMT-0500 (Central Daylight Time),324740.2000000477,A,let,I,t,161,3,482.89999997615814,324257.3000000715,8005,WL,C,10.0
3,11.496999979019165,learn,48503.000020980835,Wed May 21 2025 12:11:20 GMT-0500 (Central Daylight Time),324873.5,A,lett,I,t,121,3,616.1999999284744,324257.3000000715,8005,WL,C,10.0
3,11.647000074386597,learn,48352.9999256134,Wed May 21 2025 12:11:20 GMT-0500 (Central Daylight Time),325023.40000009537,A,lette,I,e,132,3,766.1000000238419,324257.3000000715,8005,WL,C,10.0
3,11.69700002670288,learn,48302.99997329712,Wed May 21 2025 12:11:20 GMT-0500 (Central Daylight Time),325073.40000009537,A,letter,I,r,38,3,816.1000000238419,324257.3000000715,8005,WL,C,10.0
3,11.77999997138977,learn,48220.00002861023,Wed May 21 2025 12:11:20 GMT-0500 (Central Daylight Time),325156.8000000715,A,letterenter,I,enter,76,3,899.5,324257.3000000715,8005,WL,C,10.0
3,12.380000114440918,learn,47619.99988555908,Wed May 21 2025 12:11:20 GMT-0500 (Central Daylight Time),325756.40000009537,A,n,I,n,593,3,599.3000000715256,325157.10000002384,8005,WL,C,11.0
3,12.463000059127808,learn,47536.99994087219,Wed May 21 2025 12:11:20 GMT-0500 (Central Daylight Time),325839.90000009537,A,na,I,a,65,3,682.8000000715256,325157.10000002384,8005,WL,C,11.0
3,12.579999923706055,learn,47420.000076293945,Wed May 21 2025 12:11:20 GMT-0500 (Central Daylight Time),325956.40000009537,A,nai,I,i,110,3,799.3000000715256,325157.10000002384,8005,WL,C,11.0
3,12.647000074386597,learn,47352.9999256134,Wed May 21 2025 12:11:20 GMT-0500 (Central Daylight Time),326023.3000000715,A,nail,I,l,49,3,866.2000000476837,325157.10000002384,8005,WL,C,11.0
3,13.046000003814697,learn,46953.9999961853,Wed May 21 2025 12:11:20 GMT-0500 (Central Daylight Time),326422.8000000715,A,nailenter,I,enter,382,3,1265.7000000476837,325157.10000002384,8005,WL,C,11.0
3,14.76200008392334,learn,45237.99991607666,Wed May 21 2025 12:11:20 GMT-0500 (Central Daylight Time),328139.10000002384,A,f,I,f,1703,3,1716.0,326423.10000002384,8005,WL,C,12.0
3,14.861999988555908,learn,45138.00001144409,Wed May 21 2025 12:11:20 GMT-0500 (Central Daylight Time),328239.10000002384,A,fl,I,l,90,3,1816.0,326423.10000002384,8005,WL,C,12.0
3,14.979000091552734,learn,45020.999908447266,Wed May 21 2025 12:11:20 GMT-0500 (Central Daylight Time),328355.8000000715,A,fla,I,a,102,3,1932.7000000476837,326423.10000002384,8005,WL,C,12.0
3,15.062999963760376,learn,44937.000036239624,Wed May 21 2025 12:11:20 GMT-0500 (Central Daylight Time),328439.90000009537,A,flag,I,g,74,3,2016.8000000715256,326423.10000002384,8005,WL,C,12.0
3,15.161999940872192,learn,44838.00005912781,Wed May 21 2025 12:11:20 GMT-0500 (Central Daylight Time),328538.90000009537,A,flagenter,I,enter,87,3,2115.8000000715256,326423.10000002384,8005,WL,C,12.0
3,15.861999988555908,learn,44138.00001144409,Wed May 21 2025 12:11:20 GMT-0500 (Central Daylight Time),329238.5,A,c,I,c,683,3,699.2999999523163,328539.2000000477,8005,WL,C,13.0
3,15.930000066757202,learn,44069.9999332428,Wed May 21 2025 12:11:20 GMT-0500 (Central Daylight Time),329306.8000000715,A,ca,I,a,47,3,767.6000000238419,328539.2000000477,8005,WL,C,13.0
3,15.961999893188477,learn,44038.00010681152,Wed May 21 2025 12:11:20 GMT-0500 (Central Daylight Time),329338.5,A,cam,I,m,26,3,799.2999999523163,328539.2000000477,8005,WL,C,13.0
3,16.078999996185303,learn,43921.0000038147,Wed May 21 2025 12:11:20 GMT-0500 (Central Daylight Time),329455.40000009537,A,camp,I,p,108,3,916.2000000476837,328539.2000000477,8005,WL,C,13.0
3,16.461999893188477,learn,43538.00010681152,Wed May 21 2025 12:11:20 GMT-0500 (Central Daylight Time),329838.5,A,campenter,I,enter,373,3,1299.2999999523163,328539.2000000477,8005,WL,C,13.0
3,17.99500012397766,learn,42004.99987602234,Wed May 21 2025 12:11:20 GMT-0500 (Central Daylight Time),331371.3000000715,A,h,I,h,1527,3,1532.5,329838.8000000715,8005,WL,C,14.0
3,18.144999980926514,learn,41855.000019073486,Wed May 21 2025 12:11:20 GMT-0500 (Central Daylight Time),331521.3000000715,A,ho,I,o,130,3,1682.5,329838.8000000715,8005,WL,C,14.0
3,18.210999965667725,learn,41789.000034332275,Wed May 21 2025 12:11:20 GMT-0500 (Central Daylight Time),331588.10000002384,A,hom,I,m,60,3,1749.2999999523163,329838.8000000715,8005,WL,C,14.0
3,18.34500002861023,learn,41654.99997138977,Wed May 21 2025 12:11:20 GMT-0500 (Central Daylight Time),331721.40000009537,A,home,I,e,113,3,1882.6000000238419,329838.8000000715,8005,WL,C,14.0
3,18.41100001335144,learn,41588.99998664856,Wed May 21 2025 12:11:20 GMT-0500 (Central Daylight Time),331787.90000009537,A,homeenter,I,enter,61,3,1949.1000000238419,329838.8000000715,8005,WL,C,14.0
3,21.01099991798401,learn,38989.00008201599,Wed May 21 2025 12:11:20 GMT-0500 (Central Daylight Time),334387.2000000477,A,s,I,s,2586,3,2599.100000023842,331788.10000002384,8005,WL,C,15.0
3,21.109999895095825,learn,38890.000104904175,Wed May 21 2025 12:11:20 GMT-0500 (Central Daylight Time),334487.2000000477,A,sh,I,h,82,3,2699.100000023842,331788.10000002384,8005,WL,C,15.0
3,21.194000005722046,learn,38805.999994277954,Wed May 21 2025 12:11:20 GMT-0500 (Central Daylight Time),334570.60000002384,A,sho,I,o,70,3,2782.5,331788.10000002384,8005,WL,C,15.0
3,21.293999910354614,learn,38706.000089645386,Wed May 21 2025 12:11:20 GMT-0500 (Central Daylight Time),334670.2000000477,A,shor,I,r,91,3,2882.100000023842,331788.10000002384,8005,WL,C,15.0
3,21.344000101089478,learn,38655.99989891052,Wed May 21 2025 12:11:20 GMT-0500 (Central Daylight Time),334720.3000000715,A,shore,I,e,39,3,2932.2000000476837,331788.10000002384,8005,WL,C,15.0
3,21.427000045776367,learn,38572.99995422363,Wed May 21 2025 12:11:20 GMT-0500 (Central Daylight Time),334803.7000000477,A,shoreenter,I,enter,69,3,3015.600000023842,331788.10000002384,8005,WL,C,15.0
4,0.6340000629425049,learn,59365.999937057495,Wed May 21 2025 12:11:20 GMT-0500 (Central Daylight Time),400100.0,A,c,I,c,620,3,633.0999999046326,399466.90000009537,8005,WL,C,1.0
4,0.7170000076293945,learn,59282.999992370605,Wed May 21 2025 12:11:20 GMT-0500 (Central Daylight Time),400183.5,A,ca,I,a,65,3,716.5999999046326,399466.90000009537,8005,WL,C,1.0
4,0.9170000553131104,learn,59082.99994468689,Wed May 21 2025 12:11:20 GMT-0500 (Central Daylight Time),400383.2000000477,A,cat,I,t,182,3,916.2999999523163,399466.90000009537,8005,WL,C,1.0
4,1.0329999923706055,learn,58967.000007629395,Wed May 21 2025 12:11:20 GMT-0500 (Central Daylight Time),400499.5,A,catt,I,t,111,3,1032.5999999046326,399466.90000009537,8005,WL,C,1.0
4,1.1170001029968262,learn,58882.999897003174,Wed May 21 2025 12:11:20 GMT-0500 (Central Daylight Time),400583.10000002384,A,cattl,I,l,74,3,1116.1999999284744,399466.90000009537,8005,WL,C,1.0
4,1.25,learn,58750.0,Wed May 21 2025 12:11:20 GMT-0500 (Central Daylight Time),400716.3000000715,A,cattle,I,e,118,3,1249.3999999761581,399466.90000009537,8005,WL,C,1.0
4,1.433000087738037,learn,58566.99991226196,Wed May 21 2025 12:11:20 GMT-0500 (Central Daylight Time),400899.60000002384,A,cattleenter,I,enter,170,3,1432.6999999284744,399466.90000009537,8005,WL,C,1.0
4,1.6500000953674316,learn,58349.99990463257,Wed May 21 2025 12:11:20 GMT-0500 (Central Daylight Time),401116.0,A,c,I,c,211,3,216.0,400900.0,8005,WL,C,2.0
4,1.7829999923706055,learn,58217.000007629395,Wed May 21 2025 12:11:20 GMT-0500 (Central Daylight Time),401249.60000002384,A,co,I,o,119,3,349.60000002384186,400900.0,8005,WL,C,2.0
4,1.933000087738037,learn,58066.99991226196,Wed May 21 2025 12:11:20 GMT-0500 (Central Daylight Time),401399.40000009537,A,cor,I,r,132,3,499.40000009536743,400900.0,8005,WL,C,2.0
4,2.0169999599456787,learn,57983.00004005432,Wed May 21 2025 12:11:20 GMT-0500 (Central Daylight Time),401482.90000009537,A,corn,I,n,70,3,582.9000000953674,400900.0,8005,WL,C,2.0
4,2.200000047683716,learn,57799.999952316284,Wed May 21 2025 12:11:20 GMT-0500 (Central Daylight Time),401666.3000000715,A,cornenter,I,enter,162,3,766.3000000715256,400900.0,8005,WL,C,2.0
4,2.5169999599456787,learn,57483.00004005432,Wed May 21 2025 12:11:20 GMT-0500 (Central Daylight Time),401982.7000000477,A,h,I,h,299,3,316.10000002384186,401666.60000002384,8005,WL,C,3.0
4,2.933000087738037,learn,57066.99991226196,Wed May 21 2025 12:11:20 GMT-0500 (Central Daylight Time),402399.2000000477,A,,I,backspace,399,3,732.6000000238419,401666.60000002384,8005,WL,C,3.0
4,3.0829999446868896,learn,56917.00005531311,Wed May 21 2025 12:11:20 GMT-0500 (Central Daylight Time),402548.90000009537,A,w,I,w,134,3,882.3000000715256,401666.60000002384,8005,WL,C,3.0
4,3.199000120162964,learn,56800.999879837036,Wed May 21 2025 12:11:20 GMT-0500 (Central Daylight Time),402665.60000002384,A,wh,I,h,97,3,999.0,401666.60000002384,8005,WL,C,3.0
4,3.2660000324249268,learn,56733.99996757507,Wed May 21 2025 12:11:20 GMT-0500 (Central Daylight Time),402732.40000009537,A,whe,I,e,59,3,1065.8000000715256,401666.60000002384,8005,WL,C,3.0
4,3.365999937057495,learn,56634.000062942505,Wed May 21 2025 12:11:20 GMT-0500 (Central Daylight Time),402832.7000000477,A,whea,I,a,90,3,1166.1000000238419,401666.60000002384,8005,WL,C,3.0
4,3.4660000801086426,learn,56533.99991989136,Wed May 21 2025 12:11:20 GMT-0500 (Central Daylight Time),402932.5,A,wheat,I,t,93,3,1265.8999999761581,401666.60000002384,8005,WL,C,3.0
4,3.7330000400543213,learn,56266.99995994568,Wed May 21 2025 12:11:20 GMT-0500 (Central Daylight Time),403199.0,A,wheatenter,I,enter,258,3,1532.3999999761581,401666.60000002384,8005,WL,C,3.0
4,4.08299994468689,learn,55917.00005531311,Wed May 21 2025 12:11:20 GMT-0500 (Central Daylight Time),403548.8000000715,A,s,I,s,342,3,349.5,403199.3000000715,8005,WL,C,4.0
4,4.233000040054321,learn,55766.99995994568,Wed May 21 2025 12:11:20 GMT-0500 (Central Daylight Time),403698.8000000715,A,su,I,u,137,3,499.5,403199.3000000715,8005,WL,C,4.0
4,4.365999937057495,learn,55634.000062942505,Wed May 21 2025 12:11:20 GMT-0500 (Central Daylight Time),403832.10000002384,A,sug,I,g,114,3,632.7999999523163,403199.3000000715,8005,WL,C,4.0
4,4.483000040054321,learn,55516.99995994568,Wed May 21 2025 12:11:20 GMT-0500 (Central Daylight Time),403948.7000000477,A,suga,I,a,109,3,749.3999999761581,403199.3000000715,8005,WL,C,4.0
4,4.58299994468689,learn,55417.00005531311,Wed May 21 2025 12:11:20 GMT-0500 (Central Daylight Time),404048.8000000715,A,sugar,I,r,81,3,849.5,403199.3000000715,8005,WL,C,4.0
4,4.898999929428101,learn,55101.0000705719,Wed May 21 2025 12:11:20 GMT-0500 (Central Daylight Time),404365.2000000477,A,sugarenter,I,enter,309,3,1165.8999999761581,403199.3000000715,8005,WL,C,4.0
4,5.664999961853027,learn,54335.00003814697,Wed May 21 2025 12:11:20 GMT-0500 (Central Daylight Time),405131.40000009537,A,q,I,q,761,3,765.8000000715256,404365.60000002384,8005,WL,C,5.0
4,5.7820000648498535,learn,54217.99993515015,Wed May 21 2025 12:11:20 GMT-0500 (Central Daylight Time),405248.5,A,qu,I,u,98,3,882.8999999761581,404365.60000002384,8005,WL,C,5.0
4,5.865000009536743,learn,54134.99999046326,Wed May 21 2025 12:11:20 GMT-0500 (Central Daylight Time),405331.2000000477,A,que,I,e,77,3,965.6000000238419,404365.60000002384,8005,WL,C,5.0
4,6.015000104904175,learn,53984.999895095825,Wed May 21 2025 12:11:20 GMT-0500 (Central Daylight Time),405481.40000009537,A,quee,I,e,130,3,1115.8000000715256,404365.60000002384,8005,WL,C,5.0
4,6.082000017166138,learn,53917.99998283386,Wed May 21 2025 12:11:20 GMT-0500 (Central Daylight Time),405548.0,A,queen,I,n,60,3,1182.3999999761581,404365.60000002384,8005,WL,C,5.0
4,6.2820000648498535,learn,53717.99993515015,Wed May 21 2025 12:11:20 GMT-0500 (Central Daylight Time),405748.2000000477,A,queenenter,I,enter,185,3,1382.6000000238419,404365.60000002384,8005,WL,C,5.0
4,6.565000057220459,learn,53434.99994277954,Wed May 21 2025 12:11:20 GMT-0500 (Central Daylight Time),406031.5,A,t,I,t,265,3,283.0,405748.5,8005,WL,C,6.0
4,6.648999929428101,learn,53351.0000705719,Wed May 21 2025 12:11:20 GMT-0500 (Central Daylight Time),406115.0,A,to,I,o,62,3,366.5,405748.5,8005,WL,C,6.0
4,6.747999906539917,learn,53252.00009346008,Wed May 21 2025 12:11:20 GMT-0500 (Central Daylight Time),406214.7000000477,A,tow,I,w,91,3,466.2000000476837,405748.5,8005,WL,C,6.0
4,6.832000017166138,learn,53167.99998283386,Wed May 21 2025 12:11:20 GMT-0500 (Central Daylight Time),406297.90000009537,A,towe,I,e,71,3,549.4000000953674,405748.5,8005,WL,C,6.0
4,6.898000001907349,learn,53101.99999809265,Wed May 21 2025 12:11:20 GMT-0500 (Central Daylight Time),406364.60000002384,A,tower,I,r,51,3,616.1000000238419,405748.5,8005,WL,C,6.0
4,7.04800009727478,learn,52951.99990272522,Wed May 21 2025 12:11:20 GMT-0500 (Central Daylight Time),406514.5,A,towerenter,I,enter,137,3,766.0,405748.5,8005,WL,C,6.0
4,7.247999906539917,learn,52752.00009346008,Wed May 21 2025 12:11:20 GMT-0500 (Central Daylight Time),406714.5,A,h,I,h,195,3,199.69999992847443,406514.8000000715,8005,WL,C,7.0
4,7.331000089645386,learn,52668.999910354614,Wed May 21 2025 12:11:20 GMT-0500 (Central Daylight Time),406797.7000000477,A,ho,I,o,76,3,282.89999997615814,406514.8000000715,8005,WL,C,7.0
4,7.582000017166138,learn,52417.99998283386,Wed May 21 2025 12:11:20 GMT-0500 (Central Daylight Time),407047.7000000477,A,hom,I,m,240,3,532.8999999761581,406514.8000000715,8005,WL,C,7.0
4,7.664999961853027,learn,52335.00003814697,Wed May 21 2025 12:11:20 GMT-0500 (Central Daylight Time),407131.10000002384,A,home,I,e,70,3,616.2999999523163,406514.8000000715,8005,WL,C,7.0
4,7.79800009727478,learn,52201.99990272522,Wed May 21 2025 12:11:20 GMT-0500 (Central Daylight Time),407264.40000009537,A,homeenter,I,enter,122,3,749.6000000238419,406514.8000000715,8005,WL,C,7.0
4,8.865000009536743,learn,51134.99999046326,Wed May 21 2025 12:11:20 GMT-0500 (Central Daylight Time),408330.90000009537,A,d,I,d,1046,3,1066.1000000238419,407264.8000000715,8005,WL,C,8.0
4,8.930999994277954,learn,51069.000005722046,Wed May 21 2025 12:11:20 GMT-0500 (Central Daylight Time),408397.3000000715,A,do,I,o,50,3,1132.5,407264.8000000715,8005,WL,C,8.0
4,9.04800009727478,learn,50951.99990272522,Wed May 21 2025 12:11:20 GMT-0500 (Central Daylight Time),408513.90000009537,A,doc,I,c,104,3,1249.1000000238419,407264.8000000715,8005,WL,C,8.0
4,9.263999938964844,learn,50736.000061035156,Wed May 21 2025 12:11:20 GMT-0500 (Central Daylight Time),408730.5,A,doct,I,t,195,3,1465.6999999284744,407264.8000000715,8005,WL,C,8.0
4,9.364000082015991,learn,50635.99991798401,Wed May 21 2025 12:11:20 GMT-0500 (Central Daylight Time),408830.3000000715,A,docto,I,o,91,3,1565.5,407264.8000000715,8005,WL,C,8.0
4,9.46399998664856,learn,50536.00001335144,Wed May 21 2025 12:11:20 GMT-0500 (Central Daylight Time),408930.7000000477,A,doctor,I,r,95,3,1665.8999999761581,407264.8000000715,8005,WL,C,8.0
4,9.648000001907349,learn,50351.99999809265,Wed May 21 2025 12:11:20 GMT-0500 (Central Daylight Time),409114.0,A,doctorenter,I,enter,171,3,1849.1999999284744,407264.8000000715,8005,WL,C,8.0
4,10.281000137329102,learn,49718.9998626709,Wed May 21 2025 12:11:20 GMT-0500 (Central Daylight Time),409746.8000000715,A,b,I,b,628,3,632.3999999761581,409114.40000009537,8005,WL,C,9.0
4,10.38100004196167,learn,49618.99995803833,Wed May 21 2025 12:11:20 GMT-0500 (Central Daylight Time),409846.90000009537,A,bo,I,o,82,3,732.5,409114.40000009537,8005,WL,C,9.0
4,10.564000129699707,learn,49435.99987030029,Wed May 21 2025 12:11:20 GMT-0500 (Central Daylight Time),410030.2000000477,A,boy,I,y,174,3,915.7999999523163,409114.40000009537,8005,WL,C,9.0
4,10.763999938964844,learn,49236.000061035156,Wed May 21 2025 12:11:20 GMT-0500 (Central Daylight Time),410230.0,A,boyenter,I,enter,192,3,1115.5999999046326,409114.40000009537,8005,WL,C,9.0
4,10.864000082015991,learn,49135.99991798401,Wed May 21 2025 12:11:20 GMT-0500 (Central Daylight Time),410330.2000000477,A,b,I,b,89,3,99.89999997615814,410230.3000000715,8005,WL,C,10.0
4,11.013999938964844,learn,48986.000061035156,Wed May 21 2025 12:11:20 GMT-0500 (Central Daylight Time),410479.90000009537,A,bo,I,o,131,3,249.60000002384186,410230.3000000715,8005,WL,C,10.0
4,11.081000089645386,learn,48918.999910354614,Wed May 21 2025 12:11:20 GMT-0500 (Central Daylight Time),410546.90000009537,A,bod,I,d,62,3,316.60000002384186,410230.3000000715,8005,WL,C,10.0
4,11.246999979019165,learn,48753.000020980835,Wed May 21 2025 12:11:20 GMT-0500 (Central Daylight Time),410713.2000000477,A,body,I,y,147,3,482.89999997615814,410230.3000000715,8005,WL,C,10.0
4,11.414000034332275,learn,48585.999965667725,Wed May 21 2025 12:11:20 GMT-0500 (Central Daylight Time),410879.7000000477,A,bodyenter,I,enter,156,3,649.3999999761581,410230.3000000715,8005,WL,C,10.0
4,11.52999997138977,learn,48470.00002861023,Wed May 21 2025 12:11:20 GMT-0500 (Central Daylight Time),410996.5,A,s,I,s,110,3,116.5,410880.0,8005,WL,C,11.0
4,11.647000074386597,learn,48352.9999256134,Wed May 21 2025 12:11:20 GMT-0500 (Central Daylight Time),411113.2000000477,A,sh,I,h,106,3,233.20000004768372,410880.0,8005,WL,C,11.0
4,11.713000059127808,learn,48286.99994087219,Wed May 21 2025 12:11:20 GMT-0500 (Central Daylight Time),411179.5,A,sho,I,o,61,3,299.5,410880.0,8005,WL,C,11.0
4,11.847000122070312,learn,48152.99987792969,Wed May 21 2025 12:11:20 GMT-0500 (Central Daylight Time),411313.10000002384,A,shor,I,r,122,3,433.10000002384186,410880.0,8005,WL,C,11.0
4,11.897000074386597,learn,48102.9999256134,Wed May 21 2025 12:11:20 GMT-0500 (Central Daylight Time),411363.0,A,shore,I,e,44,3,483.0,410880.0,8005,WL,C,11.0
4,12.079999923706055,learn,47920.000076293945,Wed May 21 2025 12:11:20 GMT-0500 (Central Daylight Time),411546.3000000715,A,shoreenter,I,enter,163,3,666.3000000715256,410880.0,8005,WL,C,11.0
4,12.347000122070312,learn,47652.99987792969,Wed May 21 2025 12:11:20 GMT-0500 (Central Daylight Time),411812.90000009537,A,n,I,n,251,3,266.3000000715256,411546.60000002384,8005,WL,C,12.0
4,12.430000066757202,learn,47569.9999332428,Wed May 21 2025 12:11:20 GMT-0500 (Central Daylight Time),411896.3000000715,A,na,I,a,65,3,349.7000000476837,411546.60000002384,8005,WL,C,12.0
4,12.52999997138977,learn,47470.00002861023,Wed May 21 2025 12:11:20 GMT-0500 (Central Daylight Time),411996.2000000477,A,nai,I,i,85,3,449.60000002384186,411546.60000002384,8005,WL,C,12.0
4,12.614000082015991,learn,47385.99991798401,Wed May 21 2025 12:11:20 GMT-0500 (Central Daylight Time),412079.90000009537,A,nail,I,l,65,3,533.3000000715256,411546.60000002384,8005,WL,C,12.0
4,12.79699993133545,learn,47203.00006866455,Wed May 21 2025 12:11:20 GMT-0500 (Central Daylight Time),412262.7000000477,A,nailenter,I,enter,174,3,716.1000000238419,411546.60000002384,8005,WL,C,12.0
4,13.17799997329712,learn,46822.00002670288,Wed May 21 2025 12:11:20 GMT-0500 (Central Daylight Time),412644.10000002384,A,l,I,l,239,3,381.0,412263.10000002384,8005,WL,C,13.0
4,13.342999935150146,learn,46657.00006484985,Wed May 21 2025 12:11:20 GMT-0500 (Central Daylight Time),412809.0,A,le,I,e,143,3,545.8999999761581,412263.10000002384,8005,WL,C,13.0
4,13.496999979019165,learn,46503.000020980835,Wed May 21 2025 12:11:20 GMT-0500 (Central Daylight Time),412962.7000000477,A,let,I,t,148,3,699.6000000238419,412263.10000002384,8005,WL,C,13.0
4,13.630000114440918,learn,46369.99988555908,Wed May 21 2025 12:11:20 GMT-0500 (Central Daylight Time),413095.8000000715,A,lett,I,t,123,3,832.7000000476837,412263.10000002384,8005,WL,C,13.0
4,13.812999963760376,learn,46187.000036239624,Wed May 21 2025 12:11:20 GMT-0500 (Central Daylight Time),413279.0,A,lette,I,e,175,3,1015.8999999761581,412263.10000002384,8005,WL,C,13.0
4,13.880000114440918,learn,46119.99988555908,Wed May 21 2025 12:11:20 GMT-0500 (Central Daylight Time),413346.0,A,letter,I,r,46,3,1082.8999999761581,412263.10000002384,8005,WL,C,13.0
4,14.013000011444092,learn,45986.99998855591,Wed May 21 2025 12:11:20 GMT-0500 (Central Daylight Time),413478.90000009537,A,letterenter,I,enter,124,3,1215.8000000715256,412263.10000002384,8005,WL,C,13.0
4,14.11299991607666,learn,45887.00008392334,Wed May 21 2025 12:11:20 GMT-0500 (Central Daylight Time),413578.90000009537,A,f,I,f,95,3,99.60000002384186,413479.3000000715,8005,WL,C,14.0
4,14.213000059127808,learn,45786.99994087219,Wed May 21 2025 12:11:20 GMT-0500 (Central Daylight Time),413678.90000009537,A,fa,I,a,83,3,199.60000002384186,413479.3000000715,8005,WL,C,14.0
4,14.296000003814697,learn,45703.9999961853,Wed May 21 2025 12:11:20 GMT-0500 (Central Daylight Time),413762.40000009537,A,fal,I,l,71,3,283.10000002384186,413479.3000000715,8005,WL,C,14.0
4,14.479000091552734,learn,45520.999908447266,Wed May 21 2025 12:11:20 GMT-0500 (Central Daylight Time),413945.40000009537,A,falg,I,g,163,3,466.10000002384186,413479.3000000715,8005,WL,C,14.0
4,15.062000036239624,learn,44937.999963760376,Wed May 21 2025 12:11:20 GMT-0500 (Central Daylight Time),414528.60000002384,A,fal,I,backspace,564,3,1049.2999999523163,413479.3000000715,8005,WL,C,14.0
4,15.196000099182129,learn,44803.99990081787,Wed May 21 2025 12:11:20 GMT-0500 (Central Daylight Time),414662.0,A,fa,I,backspace,125,3,1182.6999999284744,413479.3000000715,8005,WL,C,14.0
4,15.328999996185303,learn,44671.0000038147,Wed May 21 2025 12:11:20 GMT-0500 (Central Daylight Time),414795.3000000715,A,f,I,backspace,128,3,1316.0,413479.3000000715,8005,WL,C,14.0
4,15.546000003814697,learn,44453.9999961853,Wed May 21 2025 12:11:20 GMT-0500 (Central Daylight Time),415011.8000000715,A,fl,I,l,202,3,1532.5,413479.3000000715,8005,WL,C,14.0
4,15.595999956130981,learn,44404.00004386902,Wed May 21 2025 12:11:20 GMT-0500 (Central Daylight Time),415061.8000000715,A,fla,I,a,33,3,1582.5,413479.3000000715,8005,WL,C,14.0
4,15.644999980926514,learn,44355.000019073486,Wed May 21 2025 12:11:20 GMT-0500 (Central Daylight Time),415111.7000000477,A,flag,I,g,40,3,1632.3999999761581,413479.3000000715,8005,WL,C,14.0
4,16.02900004386902,learn,43970.99995613098,Wed May 21 2025 12:11:20 GMT-0500 (Central Daylight Time),415495.10000002384,A,flagenter,I,enter,366,3,2015.7999999523163,413479.3000000715,8005,WL,C,14.0
4,16.911999940872192,learn,43088.00005912781,Wed May 21 2025 12:11:20 GMT-0500 (Central Daylight Time),416378.2000000477,A,h,I,h,862,3,882.8999999761581,415495.3000000715,8005,WL,C,15.0
4,17.028000116348267,learn,42971.99988365173,Wed May 21 2025 12:11:20 GMT-0500 (Central Daylight Time),416494.7000000477,A,ho,I,o,99,3,999.3999999761581,415495.3000000715,8005,WL,C,15.0
4,17.111999988555908,learn,42888.00001144409,Wed May 21 2025 12:11:20 GMT-0500 (Central Daylight Time),416578.40000009537,A,hom,I,m,71,3,1083.1000000238419,415495.3000000715,8005,WL,C,15.0
4,17.210999965667725,learn,42789.000034332275,Wed May 21 2025 12:11:20 GMT-0500 (Central Daylight Time),416678.10000002384,A,home,I,e,91,3,1182.7999999523163,415495.3000000715,8005,WL,C,15.0
4,17.312000036239624,learn,42687.999963760376,Wed May 21 2025 12:11:20 GMT-0500 (Central Daylight Time),416778.2000000477,A,homeenter,I,enter,87,3,1282.8999999761581,415495.3000000715,8005,WL,C,15.0
5,0.9159998893737793,learn,60000.0,Wed May 21 2025 12:11:20 GMT-0500 (Central Daylight Time),482507.5,A,c,I,c,903,3,916.3999999761581,481591.10000002384,8005,WL,C,1.0
5,1.0499999523162842,learn,60000.0,Wed May 21 2025 12:11:20 GMT-0500 (Central Daylight Time),482640.7000000477,A,ca,I,a,122,3,1049.6000000238419,481591.10000002384,8005,WL,C,1.0
5,1.248999834060669,learn,60000.0,Wed May 21 2025 12:11:20 GMT-0500 (Central Daylight Time),482840.40000009537,A,cat,I,t,181,3,1249.3000000715256,481591.10000002384,8005,WL,C,1.0
5,1.3499999046325684,learn,60000.0,Wed May 21 2025 12:11:20 GMT-0500 (Central Daylight Time),482940.60000002384,A,catt,I,t,85,3,1349.5,481591.10000002384,8005,WL,C,1.0
5,1.4500000476837158,learn,60000.0,Wed May 21 2025 12:11:20 GMT-0500 (Central Daylight Time),483040.8000000715,A,cattl,I,l,90,3,1449.7000000476837,481591.10000002384,8005,WL,C,1.0
5,1.7139999866485596,learn,60000.0,Wed May 21 2025 12:11:20 GMT-0500 (Central Daylight Time),483304.90000009537,A,cattle,I,e,260,3,1713.8000000715256,481591.10000002384,8005,WL,C,1.0
5,1.7319998741149902,learn,60000.0,Wed May 21 2025 12:11:20 GMT-0500 (Central Daylight Time),483323.5,A,cattleenter,I,enter,4,3,1732.3999999761581,481591.10000002384,8005,WL,C,1.0
5,1.9159998893737793,learn,60000.0,Wed May 21 2025 12:11:20 GMT-0500 (Central Daylight Time),483506.8000000715,A,c,I,c,170,3,183.10000002384186,483323.7000000477,8005,WL,C,2.0
5,2.0820000171661377,learn,60000.0,Wed May 21 2025 12:11:20 GMT-0500 (Central Daylight Time),483673.60000002384,A,co,I,o,146,3,349.89999997615814,483323.7000000477,8005,WL,C,2.0
5,2.2820000648498535,learn,60000.0,Wed May 21 2025 12:11:20 GMT-0500 (Central Daylight Time),483873.5,A,cor,I,r,188,3,549.7999999523163,483323.7000000477,8005,WL,C,2.0
5,2.381999969482422,learn,60000.0,Wed May 21 2025 12:11:20 GMT-0500 (Central Daylight Time),483973.60000002384,A,corn,I,n,84,3,649.8999999761581,483323.7000000477,8005,WL,C,2.0
5,2.6659998893737793,learn,60000.0,Wed May 21 2025 12:11:20 GMT-0500 (Central Daylight Time),484256.8000000715,A,cornenter,I,enter,264,3,933.1000000238419,483323.7000000477,8005,WL,C,2.0
5,2.8989999294281006,learn,60000.0,Wed May 21 2025 12:11:20 GMT-0500 (Central Daylight Time),484490.10000002384,A,s,I,s,213,3,233.0,484257.10000002384,8005,WL,C,3.0
5,3.0149998664855957,learn,60000.0,Wed May 21 2025 12:11:20 GMT-0500 (Central Daylight Time),484606.60000002384,A,su,I,u,99,3,349.5,484257.10000002384,8005,WL,C,3.0
5,3.115999937057495,learn,60000.0,Wed May 21 2025 12:11:20 GMT-0500 (Central Daylight Time),484706.8000000715,A,sug,I,g,95,3,449.7000000476837,484257.10000002384,8005,WL,C,3.0
5,3.2660000324249268,learn,60000.0,Wed May 21 2025 12:11:20 GMT-0500 (Central Daylight Time),484856.7000000477,A,suga,I,a,139,3,599.6000000238419,484257.10000002384,8005,WL,C,3.0
5,3.365000009536743,learn,60000.0,Wed May 21 2025 12:11:20 GMT-0500 (Central Daylight Time),484956.60000002384,A,sugar,I,r,85,3,699.5,484257.10000002384,8005,WL,C,3.0
5,3.4819998741149902,learn,60000.0,Wed May 21 2025 12:11:20 GMT-0500 (Central Daylight Time),485073.3000000715,A,sugarenter,I,enter,105,3,816.2000000476837,484257.10000002384,8005,WL,C,3.0
5,3.6489999294281006,learn,60000.0,Wed May 21 2025 12:11:20 GMT-0500 (Central Daylight Time),485239.8000000715,A,w,I,w,148,3,166.10000002384186,485073.7000000477,8005,WL,C,4.0
5,3.748999834060669,learn,60000.0,Wed May 21 2025 12:11:20 GMT-0500 (Central Daylight Time),485339.90000009537,A,wh,I,h,94,3,266.2000000476837,485073.7000000477,8005,WL,C,4.0
5,3.8489999771118164,learn,60000.0,Wed May 21 2025 12:11:20 GMT-0500 (Central Daylight Time),485439.7000000477,A,whe,I,e,82,3,366.0,485073.7000000477,8005,WL,C,4.0
5,3.931999921798706,learn,60000.0,Wed May 21 2025 12:11:20 GMT-0500 (Central Daylight Time),485523.0,A,whea,I,a,63,3,449.2999999523163,485073.7000000477,8005,WL,C,4.0
5,4.014999866485596,learn,60000.0,Wed May 21 2025 12:11:20 GMT-0500 (Central Daylight Time),485606.5,A,wheat,I,t,74,3,532.7999999523163,485073.7000000477,8005,WL,C,4.0
5,4.381999969482422,learn,60000.0,Wed May 21 2025 12:11:20 GMT-0500 (Central Daylight Time),485972.8000000715,A,wheatenter,I,enter,359,3,899.1000000238419,485073.7000000477,8005,WL,C,4.0
5,5.497999906539917,learn,60000.0,Wed May 21 2025 12:11:20 GMT-0500 (Central Daylight Time),487089.3000000715,A,q,I,q,1097,3,1116.3000000715256,485973.0,8005,WL,C,5.0
5,5.615000009536743,learn,60000.0,Wed May 21 2025 12:11:20 GMT-0500 (Central Daylight Time),487206.0,A,qu,I,u,108,3,1233.0,485973.0,8005,WL,C,5.0
5,5.697999954223633,learn,60000.0,Wed May 21 2025 12:11:20 GMT-0500 (Central Daylight Time),487289.3000000715,A,que,I,e,71,3,1316.3000000715256,485973.0,8005,WL,C,5.0
5,5.830999851226807,learn,60000.0,Wed May 21 2025 12:11:20 GMT-0500 (Central Daylight Time),487422.60000002384,A,quee,I,e,116,3,1449.6000000238419,485973.0,8005,WL,C,5.0
5,5.931999921798706,learn,60000.0,Wed May 21 2025 12:11:20 GMT-0500 (Central Daylight Time),487522.7000000477,A,queen,I,n,87,3,1549.7000000476837,485973.0,8005,WL,C,5.0
5,6.080999851226807,learn,60000.0,Wed May 21 2025 12:11:20 GMT-0500 (Central Daylight Time),487672.40000009537,A,queenenter,I,enter,139,3,1699.4000000953674,485973.0,8005,WL,C,5.0
5,6.230999946594238,learn,60000.0,Wed May 21 2025 12:11:20 GMT-0500 (Central Daylight Time),487822.40000009537,A,t,I,t,133,3,149.60000002384186,487672.8000000715,8005,WL,C,6.0
5,6.3480000495910645,learn,60000.0,Wed May 21 2025 12:11:20 GMT-0500 (Central Daylight Time),487938.7000000477,A,to,I,o,111,3,265.89999997615814,487672.8000000715,8005,WL,C,6.0
5,6.697999954223633,learn,60000.0,Wed May 21 2025 12:11:20 GMT-0500 (Central Daylight Time),488288.8000000715,A,tow,I,w,331,3,616.0,487672.8000000715,8005,WL,C,6.0
5,6.797999858856201,learn,60000.0,Wed May 21 2025 12:11:20 GMT-0500 (Central Daylight Time),488389.0,A,towe,I,e,93,3,716.1999999284744,487672.8000000715,8005,WL,C,6.0
5,6.898000001907349,learn,60000.0,Wed May 21 2025 12:11:20 GMT-0500 (Central Daylight Time),488489.0,A,tower,I,r,89,3,816.1999999284744,487672.8000000715,8005,WL,C,6.0
5,6.980999946594238,learn,60000.0,Wed May 21 2025 12:11:20 GMT-0500 (Central Daylight Time),488572.0,A,towerenter,I,enter,78,3,899.1999999284744,487672.8000000715,8005,WL,C,6.0
5,7.363999843597412,learn,60000.0,Wed May 21 2025 12:11:20 GMT-0500 (Central Daylight Time),488955.10000002384,A,h,I,h,379,3,382.7999999523163,488572.3000000715,8005,WL,C,7.0
5,7.563999891281128,learn,60000.0,Wed May 21 2025 12:11:20 GMT-0500 (Central Daylight Time),489155.2000000477,A,ho,I,o,187,3,582.8999999761581,488572.3000000715,8005,WL,C,7.0
5,7.697999954223633,learn,60000.0,Wed May 21 2025 12:11:20 GMT-0500 (Central Daylight Time),489288.8000000715,A,hom,I,m,114,3,716.5,488572.3000000715,8005,WL,C,7.0
5,7.813999891281128,learn,60000.0,Wed May 21 2025 12:11:20 GMT-0500 (Central Daylight Time),489405.0,A,home,I,e,100,3,832.6999999284744,488572.3000000715,8005,WL,C,7.0
5,7.930999994277954,learn,60000.0,Wed May 21 2025 12:11:20 GMT-0500 (Central Daylight Time),489521.8000000715,A,homeenter,I,enter,104,3,949.5,488572.3000000715,8005,WL,C,7.0
5,8.613999843597412,learn,60000.0,Wed May 21 2025 12:11:20 GMT-0500 (Central Daylight Time),490205.0,A,b,I,b,668,3,682.8999999761581,489522.10000002384,8005,WL,C,8.0
5,8.71399998664856,learn,60000.0,Wed May 21 2025 12:11:20 GMT-0500 (Central Daylight Time),490304.90000009537,A,bo,I,o,81,3,782.8000000715256,489522.10000002384,8005,WL,C,8.0
5,8.863999843597412,learn,60000.0,Wed May 21 2025 12:11:20 GMT-0500 (Central Daylight Time),490454.8000000715,A,boy,I,y,133,3,932.7000000476837,489522.10000002384,8005,WL,C,8.0
5,8.96399998664856,learn,60000.0,Wed May 21 2025 12:11:20 GMT-0500 (Central Daylight Time),490555.0,A,boyenter,I,enter,87,3,1032.8999999761581,489522.10000002384,8005,WL,C,8.0
5,9.230000019073486,learn,60000.0,Wed May 21 2025 12:11:20 GMT-0500 (Central Daylight Time),490821.5,A,d,I,d,251,3,266.1999999284744,490555.3000000715,8005,WL,C,9.0
5,9.329999923706055,learn,60000.0,Wed May 21 2025 12:11:20 GMT-0500 (Central Daylight Time),490921.3000000715,A,do,I,o,80,3,366.0,490555.3000000715,8005,WL,C,9.0
5,9.412999868392944,learn,60000.0,Wed May 21 2025 12:11:20 GMT-0500 (Central Daylight Time),491004.60000002384,A,doc,I,c,76,3,449.2999999523163,490555.3000000715,8005,WL,C,9.0
5,9.629999876022339,learn,60000.0,Wed May 21 2025 12:11:20 GMT-0500 (Central Daylight Time),491221.40000009537,A,doct,I,t,201,3,666.1000000238419,490555.3000000715,8005,WL,C,9.0
5,9.77999997138977,learn,60000.0,Wed May 21 2025 12:11:20 GMT-0500 (Central Daylight Time),491371.3000000715,A,docto,I,o,136,3,816.0,490555.3000000715,8005,WL,C,9.0
5,9.896999835968018,learn,60000.0,Wed May 21 2025 12:11:20 GMT-0500 (Central Daylight Time),491487.90000009537,A,doctor,I,r,106,3,932.6000000238419,490555.3000000715,8005,WL,C,9.0
5,10.164000034332275,learn,60000.0,Wed May 21 2025 12:11:20 GMT-0500 (Central Daylight Time),491754.7000000477,A,doctorenter,I,enter,261,3,1199.3999999761581,490555.3000000715,8005,WL,C,9.0
5,11.345999956130981,learn,60000.0,Wed May 21 2025 12:11:20 GMT-0500 (Central Daylight Time),492937.60000002384,A,b,I,b,1171,3,1182.6999999284744,491754.90000009537,8005,WL,C,10.0
5,11.463000059127808,learn,60000.0,Wed May 21 2025 12:11:20 GMT-0500 (Central Daylight Time),493054.2000000477,A,bo,I,o,107,3,1299.2999999523163,491754.90000009537,8005,WL,C,10.0
5,11.579999923706055,learn,60000.0,Wed May 21 2025 12:11:20 GMT-0500 (Central Daylight Time),493170.8000000715,A,bod,I,d,104,3,1415.8999999761581,491754.90000009537,8005,WL,C,10.0
5,11.77999997138977,learn,60000.0,Wed May 21 2025 12:11:20 GMT-0500 (Central Daylight Time),493370.7000000477,A,body,I,y,195,3,1615.7999999523163,491754.90000009537,8005,WL,C,10.0
5,11.895999908447266,learn,60000.0,Wed May 21 2025 12:11:20 GMT-0500 (Central Daylight Time),493487.3000000715,A,bodyenter,I,enter,99,3,1732.3999999761581,491754.90000009537,8005,WL,C,10.0
5,12.013000011444092,learn,60000.0,Wed May 21 2025 12:11:20 GMT-0500 (Central Daylight Time),493604.10000002384,A,s,I,s,102,3,116.5,493487.60000002384,8005,WL,C,11.0
5,12.128999948501587,learn,60000.0,Wed May 21 2025 12:11:20 GMT-0500 (Central Daylight Time),493720.40000009537,A,sh,I,h,105,3,232.80000007152557,493487.60000002384,8005,WL,C,11.0
5,12.213000059127808,learn,60000.0,Wed May 21 2025 12:11:20 GMT-0500 (Central Daylight Time),493803.7000000477,A,sho,I,o,69,3,316.10000002384186,493487.60000002384,8005,WL,C,11.0
5,12.279000043869019,learn,60000.0,Wed May 21 2025 12:11:20 GMT-0500 (Central Daylight Time),493870.5,A,shor,I,r,51,3,382.89999997615814,493487.60000002384,8005,WL,C,11.0
5,12.345999956130981,learn,60000.0,Wed May 21 2025 12:11:20 GMT-0500 (Central Daylight Time),493937.0,A,shore,I,e,47,3,449.39999997615814,493487.60000002384,8005,WL,C,11.0
5,12.44599986076355,learn,60000.0,Wed May 21 2025 12:11:20 GMT-0500 (Central Daylight Time),494037.0,A,shoreenter,I,enter,92,3,549.3999999761581,493487.60000002384,8005,WL,C,11.0
5,12.996000051498413,learn,60000.0,Wed May 21 2025 12:11:20 GMT-0500 (Central Daylight Time),494587.0,A,f,I,f,537,3,549.5999999046326,494037.40000009537,8005,WL,C,12.0
5,13.095999956130981,learn,60000.0,Wed May 21 2025 12:11:20 GMT-0500 (Central Daylight Time),494686.90000009537,A,fl,I,l,91,3,649.5,494037.40000009537,8005,WL,C,12.0
5,13.213000059127808,learn,60000.0,Wed May 21 2025 12:11:20 GMT-0500 (Central Daylight Time),494804.5,A,fla,I,a,112,3,767.0999999046326,494037.40000009537,8005,WL,C,12.0
5,13.361999988555908,learn,60000.0,Wed May 21 2025 12:11:20 GMT-0500 (Central Daylight Time),494953.3000000715,A,flag,I,g,129,3,915.8999999761581,494037.40000009537,8005,WL,C,12.0
5,13.44599986076355,learn,60000.0,Wed May 21 2025 12:11:20 GMT-0500 (Central Daylight Time),495036.90000009537,A,flagenter,I,enter,68,3,999.5,494037.40000009537,8005,WL,C,12.0
5,13.779000043869019,learn,60000.0,Wed May 21 2025 12:11:20 GMT-0500 (Central Daylight Time),495370.2000000477,A,l,I,l,313,3,332.89999997615814,495037.3000000715,8005,WL,C,13.0
5,13.846999883651733,learn,60000.0,Wed May 21 2025 12:11:20 GMT-0500 (Central Daylight Time),495438.0,A,le,I,e,51,3,400.6999999284744,495037.3000000715,8005,WL,C,13.0
5,14.01199984550476,learn,60000.0,Wed May 21 2025 12:11:20 GMT-0500 (Central Daylight Time),495603.0,A,let,I,t,159,3,565.6999999284744,495037.3000000715,8005,WL,C,13.0
5,14.128999948501587,learn,60000.0,Wed May 21 2025 12:11:20 GMT-0500 (Central Daylight Time),495719.90000009537,A,lett,I,t,108,3,682.6000000238419,495037.3000000715,8005,WL,C,13.0
5,14.26199984550476,learn,60000.0,Wed May 21 2025 12:11:20 GMT-0500 (Central Daylight Time),495853.3000000715,A,lette,I,e,127,3,816.0,495037.3000000715,8005,WL,C,13.0
5,14.328999996185303,learn,60000.0,Wed May 21 2025 12:11:20 GMT-0500 (Central Daylight Time),495920.0,A,letter,I,r,57,3,882.6999999284744,495037.3000000715,8005,WL,C,13.0
5,14.478999853134155,learn,60000.0,Wed May 21 2025 12:11:20 GMT-0500 (Central Daylight Time),496069.8000000715,A,letterenter,I,enter,142,3,1032.5,495037.3000000715,8005,WL,C,13.0
5,14.794999837875366,learn,60000.0,Wed May 21 2025 12:11:20 GMT-0500 (Central Daylight Time),496386.5,A,n,I,n,297,3,316.39999997615814,496070.10000002384,8005,WL,C,14.0
5,14.878999948501587,learn,60000.0,Wed May 21 2025 12:11:20 GMT-0500 (Central Daylight Time),496469.60000002384,A,na,I,a,75,3,399.5,496070.10000002384,8005,WL,C,14.0
5,14.994999885559082,learn,60000.0,Wed May 21 2025 12:11:20 GMT-0500 (Central Daylight Time),496586.2000000477,A,nai,I,i,96,3,516.1000000238419,496070.10000002384,8005,WL,C,14.0
5,15.044999837875366,learn,60000.0,Wed May 21 2025 12:11:20 GMT-0500 (Central Daylight Time),496636.0,A,nail,I,l,44,3,565.8999999761581,496070.10000002384,8005,WL,C,14.0
5,15.244999885559082,learn,60000.0,Wed May 21 2025 12:11:20 GMT-0500 (Central Daylight Time),496836.2000000477,A,nailenter,I,enter,193,3,766.1000000238419,496070.10000002384,8005,WL,C,14.0
5,15.744999885559082,learn,60000.0,Wed May 21 2025 12:11:20 GMT-0500 (Central Daylight Time),497336.0,A,h,I,h,482,3,499.39999997615814,496836.60000002384,8005,WL,C,15.0
5,15.845999956130981,learn,60000.0,Wed May 21 2025 12:11:20 GMT-0500 (Central Daylight Time),497436.90000009537,A,ho,I,o,94,3,600.3000000715256,496836.60000002384,8005,WL,C,15.0
5,15.994999885559082,learn,60000.0,Wed May 21 2025 12:11:20 GMT-0500 (Central Daylight Time),497586.10000002384,A,hom,I,m,129,3,749.5,496836.60000002384,8005,WL,C,15.0
5,16.07800006866455,learn,60000.0,Wed May 21 2025 12:11:20 GMT-0500 (Central Daylight Time),497669.10000002384,A,home,I,e,77,3,832.5,496836.60000002384,8005,WL,C,15.0
5,16.17799997329712,learn,60000.0,Wed May 21 2025 12:11:20 GMT-0500 (Central Daylight Time),497769.60000002384,A,homeenter,I,enter,89,3,933.0,496836.60000002384,8005,WL,C,15.0
6,1.4489998817443848,distr,58551.000118255615,Wed May 21 2025 12:11:20 GMT-0500 (Central Daylight Time),565980.9000000954,B,c,I,c,1443,3,1449.7000000476837,564531.2000000477,8005,WL,C,1.0
6,1.565999984741211,distr,58434.00001525879,Wed May 21 2025 12:11:20 GMT-0500 (Central Daylight Time),566097.5,B,ch,I,h,103,3,1566.2999999523163,564531.2000000477,8005,WL,C,1.0
6,1.6989998817443848,distr,58301.000118255615,Wed May 21 2025 12:11:20 GMT-0500 (Central Daylight Time),566230.7000000477,B,chr,I,r,124,3,1699.5,564531.2000000477,8005,WL,C,1.0
6,2.1989998817443848,distr,57801.000118255615,Wed May 21 2025 12:11:20 GMT-0500 (Central Daylight Time),566730.8000000715,B,chri,I,i,487,3,2199.600000023842,564531.2000000477,8005,WL,C,1.0
6,2.2829999923706055,distr,57717.000007629395,Wed May 21 2025 12:11:20 GMT-0500 (Central Daylight Time),566814.4000000954,B,chris,I,s,75,3,2283.2000000476837,564531.2000000477,8005,WL,C,1.0
6,2.382999897003174,distr,57617.000102996826,Wed May 21 2025 12:11:20 GMT-0500 (Central Daylight Time),566914.7000000477,B,christ,I,t,95,3,2383.5,564531.2000000477,8005,WL,C,1.0
6,2.748999834060669,distr,57251.00016593933,Wed May 21 2025 12:11:20 GMT-0500 (Central Daylight Time),567281.0,B,christm,I,m,356,3,2749.7999999523163,564531.2000000477,8005,WL,C,1.0
6,2.865999937057495,distr,57134.000062942505,Wed May 21 2025 12:11:20 GMT-0500 (Central Daylight Time),567397.5,B,christma,I,a,100,3,2866.2999999523163,564531.2000000477,8005,WL,C,1.0
6,3.131999969482422,distr,56868.00003051758,Wed May 21 2025 12:11:20 GMT-0500 (Central Daylight Time),567663.7000000477,B,christmas,I,s,256,3,3132.5,564531.2000000477,8005,WL,C,1.0
6,3.2659997940063477,distr,56734.00020599365,Wed May 21 2025 12:11:20 GMT-0500 (Central Daylight Time),567797.3000000715,B,christmasenter,I,enter,127,3,3266.100000023842,564531.2000000477,8005,WL,C,1.0
6,3.565999984741211,distr,56434.00001525879,Wed May 21 2025 12:11:20 GMT-0500 (Central Daylight Time),568097.3000000715,B,m,I,m,289,3,299.7000000476837,567797.6000000238,8005,WL,C,2.0
6,3.6489999294281006,distr,56351.0000705719,Wed May 21 2025 12:11:20 GMT-0500 (Central Daylight Time),568180.8000000715,B,mo,I,o,68,3,383.2000000476837,567797.6000000238,8005,WL,C,2.0
6,3.798999786376953,distr,56201.00021362305,Wed May 21 2025 12:11:20 GMT-0500 (Central Daylight Time),568330.5,B,mot,I,t,129,3,532.8999999761581,567797.6000000238,8005,WL,C,2.0
6,3.8989999294281006,distr,56101.0000705719,Wed May 21 2025 12:11:20 GMT-0500 (Central Daylight Time),568430.2000000477,B,moth,I,h,84,3,632.6000000238419,567797.6000000238,8005,WL,C,2.0
6,3.9659998416900635,distr,56034.00015830994,Wed May 21 2025 12:11:20 GMT-0500 (Central Daylight Time),568497.1000000238,B,mothe,I,e,47,3,699.5,567797.6000000238,8005,WL,C,2.0
6,4.015999794006348,distr,55984.00020599365,Wed May 21 2025 12:11:20 GMT-0500 (Central Daylight Time),568547.1000000238,B,mother,I,r,29,3,749.5,567797.6000000238,8005,WL,C,2.0
6,4.264999866485596,distr,55735.000133514404,Wed May 21 2025 12:11:20 GMT-0500 (Central Daylight Time),568796.8000000715,B,motherenter,I,enter,242,3,999.2000000476837,567797.6000000238,8005,WL,C,2.0
6,4.881999969482422,distr,55118.00003051758,Wed May 21 2025 12:11:20 GMT-0500 (Central Daylight Time),569413.9000000954,B,b,I,b,601,3,616.8000000715256,568797.1000000238,8005,WL,C,3.0
6,4.998999834060669,distr,55001.00016593933,Wed May 21 2025 12:11:20 GMT-0500 (Central Daylight Time),569530.1000000238,B,bu,I,u,104,3,733.0,568797.1000000238,8005,WL,C,3.0
6,5.06499981880188,distr,54935.00018119812,Wed May 21 2025 12:11:20 GMT-0500 (Central Daylight Time),569596.8000000715,B,but,I,t,59,3,799.7000000476837,568797.1000000238,8005,WL,C,3.0
6,5.181999921798706,distr,54818.000078201294,Wed May 21 2025 12:11:20 GMT-0500 (Central Daylight Time),569713.5,B,butt,I,t,104,3,916.3999999761581,568797.1000000238,8005,WL,C,3.0
6,5.297999858856201,distr,54702.0001411438,Wed May 21 2025 12:11:20 GMT-0500 (Central Daylight Time),569830.0,B,butte,I,e,100,3,1032.8999999761581,568797.1000000238,8005,WL,C,3.0
6,5.381999969482422,distr,54618.00003051758,Wed May 21 2025 12:11:20 GMT-0500 (Central Daylight Time),569913.4000000954,B,butter,I,r,62,3,1116.3000000715256,568797.1000000238,8005,WL,C,3.0
6,5.447999954223633,distr,54552.00004577637,Wed May 21 2025 12:11:20 GMT-0500 (Central Daylight Time),569980.1000000238,B,butterenter,I,enter,53,3,1183.0,568797.1000000238,8005,WL,C,3.0
6,5.664999961853027,distr,54335.00003814697,Wed May 21 2025 12:11:20 GMT-0500 (Central Daylight Time),570196.5,B,m,I,m,209,3,216.09999990463257,569980.4000000954,8005,WL,C,4.0
6,5.7149999141693115,distr,54285.00008583069,Wed May 21 2025 12:11:20 GMT-0500 (Central Daylight Time),570246.6000000238,B,me,I,e,42,3,266.1999999284744,569980.4000000954,8005,WL,C,4.0
6,5.781999826431274,distr,54218.000173568726,Wed May 21 2025 12:11:20 GMT-0500 (Central Daylight Time),570313.3000000715,B,mea,I,a,47,3,332.89999997615814,569980.4000000954,8005,WL,C,4.0
6,5.997999906539917,distr,54002.00009346008,Wed May 21 2025 12:11:20 GMT-0500 (Central Daylight Time),570529.7000000477,B,meat,I,t,196,3,549.2999999523163,569980.4000000954,8005,WL,C,4.0
6,6.06499981880188,distr,53935.00018119812,Wed May 21 2025 12:11:20 GMT-0500 (Central Daylight Time),570596.6000000238,B,meatenter,I,enter,52,3,616.1999999284744,569980.4000000954,8005,WL,C,4.0
6,6.830999851226807,distr,53169.00014877319,Wed May 21 2025 12:11:20 GMT-0500 (Central Daylight Time),571362.8000000715,B,s,I,s,753,3,765.8999999761581,570596.9000000954,8005,WL,C,5.0
6,6.947999954223633,distr,53052.00004577637,Wed May 21 2025 12:11:20 GMT-0500 (Central Daylight Time),571479.5,B,sk,I,k,107,3,882.5999999046326,570596.9000000954,8005,WL,C,5.0
6,7.080999851226807,distr,52919.00014877319,Wed May 21 2025 12:11:20 GMT-0500 (Central Daylight Time),571612.8000000715,B,sky,I,y,118,3,1015.8999999761581,570596.9000000954,8005,WL,C,5.0
6,7.197999954223633,distr,52802.00004577637,Wed May 21 2025 12:11:20 GMT-0500 (Central Daylight Time),571729.5,B,skyenter,I,enter,105,3,1132.5999999046326,570596.9000000954,8005,WL,C,5.0
6,7.430999994277954,distr,52569.000005722046,Wed May 21 2025 12:11:20 GMT-0500 (Central Daylight Time),571962.9000000954,B,v,I,v,229,3,233.20000004768372,571729.7000000477,8005,WL,C,6.0
6,7.548999786376953,distr,52451.00021362305,Wed May 21 2025 12:11:20 GMT-0500 (Central Daylight Time),572080.3000000715,B,va,I,a,99,3,350.60000002384186,571729.7000000477,8005,WL,C,6.0
6,7.648000001907349,distr,52351.99999809265,Wed May 21 2025 12:11:20 GMT-0500 (Central Daylight Time),572179.1000000238,B,val,I,l,94,3,449.39999997615814,571729.7000000477,8005,WL,C,6.0
6,7.763999938964844,distr,52236.000061035156,Wed May 21 2025 12:11:20 GMT-0500 (Central Daylight Time),572295.8000000715,B,vall,I,l,106,3,566.1000000238419,571729.7000000477,8005,WL,C,6.0
6,7.813999891281128,distr,52186.00010871887,Wed May 21 2025 12:11:20 GMT-0500 (Central Daylight Time),572345.7000000477,B,valle,I,e,30,3,616.0,571729.7000000477,8005,WL,C,6.0
6,7.96399998664856,distr,52036.00001335144,Wed May 21 2025 12:11:20 GMT-0500 (Central Daylight Time),572495.6000000238,B,valley,I,y,140,3,765.8999999761581,571729.7000000477,8005,WL,C,6.0
6,8.330999851226807,distr,51669.00014877319,Wed May 21 2025 12:11:20 GMT-0500 (Central Daylight Time),572862.1000000238,B,valleyenter,I,enter,350,3,1132.3999999761581,571729.7000000477,8005,WL,C,6.0
6,8.896999835968018,distr,51103.00016403198,Wed May 21 2025 12:11:20 GMT-0500 (Central Daylight Time),573428.5,B,w,I,w,560,3,566.1999999284744,572862.3000000715,8005,WL,C,7.0
6,8.996999979019165,distr,51003.000020980835,Wed May 21 2025 12:11:20 GMT-0500 (Central Daylight Time),573528.4000000954,B,wi,I,i,81,3,666.1000000238419,572862.3000000715,8005,WL,C,7.0
6,9.096999883651733,distr,50903.00011634827,Wed May 21 2025 12:11:20 GMT-0500 (Central Daylight Time),573628.4000000954,B,win,I,n,85,3,766.1000000238419,572862.3000000715,8005,WL,C,7.0
6,9.146999835968018,distr,50853.00016403198,Wed May 21 2025 12:11:20 GMT-0500 (Central Daylight Time),573678.6000000238,B,wint,I,t,41,3,816.2999999523163,572862.3000000715,8005,WL,C,7.0
6,9.264999866485596,distr,50735.000133514404,Wed May 21 2025 12:11:20 GMT-0500 (Central Daylight Time),573796.2000000477,B,winte,I,e,103,3,933.8999999761581,572862.3000000715,8005,WL,C,7.0
6,9.330999851226807,distr,50669.00014877319,Wed May 21 2025 12:11:20 GMT-0500 (Central Daylight Time),573862.2000000477,B,winter,I,r,49,3,999.8999999761581,572862.3000000715,8005,WL,C,7.0
6,9.413999795913696,distr,50586.000204086304,Wed May 21 2025 12:11:20 GMT-0500 (Central Daylight Time),573945.6000000238,B,winterenter,I,enter,63,3,1083.2999999523163,572862.3000000715,8005,WL,C,7.0
6,9.629999876022339,distr,50370.00012397766,Wed May 21 2025 12:11:20 GMT-0500 (Central Daylight Time),574161.9000000954,B,t,I,t,204,3,215.90000009536743,573946.0,8005,WL,C,8.0
6,9.696999788284302,distr,50303.0002117157,Wed May 21 2025 12:11:20 GMT-0500 (Central Daylight Time),574228.7000000477,B,to,I,o,51,3,282.7000000476837,573946.0,8005,WL,C,8.0
6,9.829999923706055,distr,50170.000076293945,Wed May 21 2025 12:11:20 GMT-0500 (Central Daylight Time),574362.0,B,too,I,o,113,3,416.0,573946.0,8005,WL,C,8.0
6,9.96399998664856,distr,50036.00001335144,Wed May 21 2025 12:11:20 GMT-0500 (Central Daylight Time),574495.2000000477,B,tool,I,l,115,3,549.2000000476837,573946.0,8005,WL,C,8.0
6,10.363999843597412,distr,49636.00015640259,Wed May 21 2025 12:11:20 GMT-0500 (Central Daylight Time),574895.2000000477,B,toolenter,I,enter,390,3,949.2000000476837,573946.0,8005,WL,C,8.0
6,11.129999876022339,distr,48870.00012397766,Wed May 21 2025 12:11:20 GMT-0500 (Central Daylight Time),575661.5,B,d,I,d,751,3,766.0999999046326,574895.4000000954,8005,WL,C,9.0
6,11.196999788284302,distr,48803.0002117157,Wed May 21 2025 12:11:20 GMT-0500 (Central Daylight Time),575728.3000000715,B,di,I,i,56,3,832.8999999761581,574895.4000000954,8005,WL,C,9.0
6,11.27999997138977,distr,48720.00002861023,Wed May 21 2025 12:11:20 GMT-0500 (Central Daylight Time),575811.3000000715,B,dia,I,a,78,3,915.8999999761581,574895.4000000954,8005,WL,C,9.0
6,11.412999868392944,distr,48587.000131607056,Wed May 21 2025 12:11:20 GMT-0500 (Central Daylight Time),575944.8000000715,B,diam,I,m,122,3,1049.3999999761581,574895.4000000954,8005,WL,C,9.0
6,11.54699993133545,distr,48453.00006866455,Wed May 21 2025 12:11:20 GMT-0500 (Central Daylight Time),576078.1000000238,B,diamo,I,o,125,3,1182.6999999284744,574895.4000000954,8005,WL,C,9.0
6,11.645999908447266,distr,48354.000091552734,Wed May 21 2025 12:11:20 GMT-0500 (Central Daylight Time),576177.9000000954,B,diamon,I,n,87,3,1282.5,574895.4000000954,8005,WL,C,9.0
6,11.763000011444092,distr,48236.99998855591,Wed May 21 2025 12:11:20 GMT-0500 (Central Daylight Time),576294.9000000954,B,diamond,I,d,108,3,1399.5,574895.4000000954,8005,WL,C,9.0
6,11.895999908447266,distr,48104.000091552734,Wed May 21 2025 12:11:20 GMT-0500 (Central Daylight Time),576428.0,B,diamondenter,I,enter,120,3,1532.5999999046326,574895.4000000954,8005,WL,C,9.0
6,12.479999780654907,distr,47520.00021934509,Wed May 21 2025 12:11:20 GMT-0500 (Central Daylight Time),577011.1000000238,B,d,I,d,571,3,582.7999999523163,576428.3000000715,8005,WL,C,10.0
6,12.562999963760376,distr,47437.000036239624,Wed May 21 2025 12:11:20 GMT-0500 (Central Daylight Time),577094.5,B,do,I,o,74,3,666.1999999284744,576428.3000000715,8005,WL,C,10.0
6,12.77899980545044,distr,47221.00019454956,Wed May 21 2025 12:11:20 GMT-0500 (Central Daylight Time),577310.7000000477,B,dol,I,l,200,3,882.3999999761581,576428.3000000715,8005,WL,C,10.0
6,13.026999950408936,distr,46973.000049591064,Wed May 21 2025 12:11:20 GMT-0500 (Central Daylight Time),577558.8000000715,B,doll,I,l,103,3,1130.5,576428.3000000715,8005,WL,C,10.0
6,13.174999952316284,distr,46825.000047683716,Wed May 21 2025 12:11:20 GMT-0500 (Central Daylight Time),577706.2000000477,B,dolla,I,a,142,3,1277.8999999761581,576428.3000000715,8005,WL,C,10.0
6,13.29699993133545,distr,46703.00006866455,Wed May 21 2025 12:11:20 GMT-0500 (Central Daylight Time),577828.6000000238,B,dollar,I,r,101,3,1400.2999999523163,576428.3000000715,8005,WL,C,10.0
6,13.395999908447266,distr,46604.000091552734,Wed May 21 2025 12:11:20 GMT-0500 (Central Daylight Time),577927.5,B,dollarenter,I,enter,89,3,1499.1999999284744,576428.3000000715,8005,WL,C,10.0
6,13.69599986076355,distr,46304.00013923645,Wed May 21 2025 12:11:20 GMT-0500 (Central Daylight Time),578227.2000000477,B,m,I,m,294,3,299.39999997615814,577927.8000000715,8005,WL,C,11.0
6,13.878999948501587,distr,46121.00005149841,Wed May 21 2025 12:11:20 GMT-0500 (Central Daylight Time),578410.9000000954,B,mo,I,o,171,3,483.10000002384186,577927.8000000715,8005,WL,C,11.0
6,14.078999996185303,distr,45921.0000038147,Wed May 21 2025 12:11:20 GMT-0500 (Central Daylight Time),578610.6000000238,B,mon,I,n,194,3,682.7999999523163,577927.8000000715,8005,WL,C,11.0
6,14.361999988555908,distr,45638.00001144409,Wed May 21 2025 12:11:20 GMT-0500 (Central Daylight Time),578893.9000000954,B,mone,I,e,276,3,966.1000000238419,577927.8000000715,8005,WL,C,11.0
6,14.546000003814697,distr,45453.9999961853,Wed May 21 2025 12:11:20 GMT-0500 (Central Daylight Time),579077.2000000477,B,money,I,y,168,3,1149.3999999761581,577927.8000000715,8005,WL,C,11.0
6,14.894999980926514,distr,45105.000019073486,Wed May 21 2025 12:11:20 GMT-0500 (Central Daylight Time),579427.0,B,moneyenter,I,enter,345,3,1499.1999999284744,577927.8000000715,8005,WL,C,11.0
6,20.57699990272522,distr,39423.00009727478,Wed May 21 2025 12:11:20 GMT-0500 (Central Daylight Time),585108.7000000477,B,d,I,d,5676,3,5681.5,579427.2000000477,8005,WL,C,12.0
6,21.176999807357788,distr,38823.00019264221,Wed May 21 2025 12:11:20 GMT-0500 (Central Daylight Time),585708.2000000477,B,,I,backspace,594,3,6281.0,579427.2000000477,8005,WL,C,12.0
6,26.657999992370605,distr,33342.000007629395,Wed May 21 2025 12:11:20 GMT-0500 (Central Daylight Time),591189.8000000715,B,h,I,h,5465,3,11762.600000023842,579427.2000000477,8005,WL,C,12.0
6,26.774999856948853,distr,33225.00014305115,Wed May 21 2025 12:11:20 GMT-0500 (Central Daylight Time),591306.7000000477,B,ho,I,o,96,3,11879.5,579427.2000000477,8005,WL,C,12.0
6,26.95899987220764,distr,33041.00012779236,Wed May 21 2025 12:11:20 GMT-0500 (Central Daylight Time),591490.3000000715,B,hot,I,t,163,3,12063.100000023842,579427.2000000477,8005,WL,C,12.0
6,27.042999982833862,distr,32957.00001716614,Wed May 21 2025 12:11:20 GMT-0500 (Central Daylight Time),591574.1000000238,B,hote,I,e,67,3,12146.899999976158,579427.2000000477,8005,WL,C,12.0
6,27.14199995994568,distr,32858.00004005432,Wed May 21 2025 12:11:20 GMT-0500 (Central Daylight Time),591674.1000000238,B,hotel,I,l,88,3,12246.899999976158,579427.2000000477,8005,WL,C,12.0
6,27.342000007629395,distr,32657.999992370605,Wed May 21 2025 12:11:20 GMT-0500 (Central Daylight Time),591873.1000000238,B,hotelenter,I,enter,187,3,12445.899999976158,579427.2000000477,8005,WL,C,12.0
6,46.78600001335144,distr,13213.99998664856,Wed May 21 2025 12:11:20 GMT-0500 (Central Daylight Time),611317.9000000954,B,d,I,d,19428,3,19444.400000095367,591873.5,8005,WL,C,13.0
6,46.901999950408936,distr,13098.000049591064,Wed May 21 2025 12:11:20 GMT-0500 (Central Daylight Time),611433.7000000477,B,di,I,i,104,3,19560.200000047684,591873.5,8005,WL,C,13.0
6,47.01799988746643,distr,12982.00011253357,Wed May 21 2025 12:11:20 GMT-0500 (Central Daylight Time),611550.3000000715,B,dia,I,a,108,3,19676.800000071526,591873.5,8005,WL,C,13.0
6,47.13499999046326,distr,12865.000009536743,Wed May 21 2025 12:11:20 GMT-0500 (Central Daylight Time),611666.7000000477,B,diam,I,m,104,3,19793.200000047684,591873.5,8005,WL,C,13.0
6,47.46799993515015,distr,12532.000064849854,Wed May 21 2025 12:11:20 GMT-0500 (Central Daylight Time),612000.2000000477,B,diamo,I,o,315,3,20126.700000047684,591873.5,8005,WL,C,13.0
6,47.55199980735779,distr,12448.000192642212,Wed May 21 2025 12:11:20 GMT-0500 (Central Daylight Time),612083.7000000477,B,diamon,I,n,70,3,20210.200000047684,591873.5,8005,WL,C,13.0
6,47.78499984741211,distr,12215.00015258789,Wed May 21 2025 12:11:20 GMT-0500 (Central Daylight Time),612316.6000000238,B,diamond,I,d,226,3,20443.100000023842,591873.5,8005,WL,C,13.0
6,48.25099992752075,distr,11749.000072479248,Wed May 21 2025 12:11:20 GMT-0500 (Central Daylight Time),612783.3000000715,B,diamondenter,I,enter,449,3,20909.800000071526,591873.5,8005,WL,C,13.0
6,60.013999938964844,distr,-13.99993896484375,Wed May 21 2025 12:11:20 GMT-0500 (Central Daylight Time),624546.1000000238,B,None,I,None,11758,3,11762.399999976158,612783.7000000477,8005,WL,C,14.0
7,1.4160001277923584,immed,58583.99987220764,Wed May 21 2025 12:11:20 GMT-0500 (Central Daylight Time),629578.0,A,c,I,c,1397,3,1416.0999999046326,628161.9000000954,8005,WL,C,1.0
7,1.4830000400543213,immed,58516.99995994568,Wed May 21 2025 12:11:20 GMT-0500 (Central Daylight Time),629644.9000000954,A,ca,I,a,51,3,1483.0,628161.9000000954,8005,WL,C,1.0
7,1.6660001277923584,immed,58333.99987220764,Wed May 21 2025 12:11:20 GMT-0500 (Central Daylight Time),629828.0,A,cat,I,t,170,3,1666.0999999046326,628161.9000000954,8005,WL,C,1.0
7,1.7820000648498535,immed,58217.99993515015,Wed May 21 2025 12:11:20 GMT-0500 (Central Daylight Time),629944.5,A,catt,I,t,106,3,1782.5999999046326,628161.9000000954,8005,WL,C,1.0
7,1.8489999771118164,immed,58151.00002288818,Wed May 21 2025 12:11:20 GMT-0500 (Central Daylight Time),630011.0,A,cattl,I,l,62,3,1849.0999999046326,628161.9000000954,8005,WL,C,1.0
7,1.9830000400543213,immed,58016.99995994568,Wed May 21 2025 12:11:20 GMT-0500 (Central Daylight Time),630144.6000000238,A,cattle,I,e,123,3,1982.6999999284744,628161.9000000954,8005,WL,C,1.0
7,2.2660000324249268,immed,57733.99996757507,Wed May 21 2025 12:11:20 GMT-0500 (Central Daylight Time),630427.5,A,cattleenter,I,enter,268,3,2265.5999999046326,628161.9000000954,8005,WL,C,1.0
7,2.5490000247955322,immed,57450.99997520447,Wed May 21 2025 12:11:20 GMT-0500 (Central Daylight Time),630711.0,A,c,I,c,266,3,283.1999999284744,630427.8000000715,8005,WL,C,2.0
7,2.615999937057495,immed,57384.000062942505,Wed May 21 2025 12:11:20 GMT-0500 (Central Daylight Time),630777.7000000477,A,co,I,o,46,3,349.89999997615814,630427.8000000715,8005,WL,C,2.0
7,2.765000104904175,immed,57234.999895095825,Wed May 21 2025 12:11:20 GMT-0500 (Central Daylight Time),630927.5,A,cor,I,r,132,3,499.6999999284744,630427.8000000715,8005,WL,C,2.0
7,2.8489999771118164,immed,57151.00002288818,Wed May 21 2025 12:11:20 GMT-0500 (Central Daylight Time),631010.7000000477,A,corn,I,n,62,3,582.8999999761581,630427.8000000715,8005,WL,C,2.0
7,3.065000057220459,immed,56934.99994277954,Wed May 21 2025 12:11:20 GMT-0500 (Central Daylight Time),631227.3000000715,A,cornenter,I,enter,211,3,799.5,630427.8000000715,8005,WL,C,2.0
7,3.249000072479248,immed,56750.99992752075,Wed May 21 2025 12:11:20 GMT-0500 (Central Daylight Time),631410.6000000238,A,s,I,s,170,3,183.10000002384186,631227.5,8005,WL,C,3.0
7,3.365000009536743,immed,56634.99999046326,Wed May 21 2025 12:11:20 GMT-0500 (Central Daylight Time),631527.5,A,su,I,u,107,3,300.0,631227.5,8005,WL,C,3.0
7,3.6489999294281006,immed,56351.0000705719,Wed May 21 2025 12:11:20 GMT-0500 (Central Daylight Time),631810.7000000477,A,sug,I,g,277,3,583.2000000476837,631227.5,8005,WL,C,3.0
