Number,acc_sum,block,block_c,block_cond,con_img,correct,correct_response,datetime,endtime,jitter,project,response,response_time,row_sel,session_number,start_end,starttime,subject_id,task,task_vers,trial
4,0,prac,1,A,circle.png,0,z,Tue Aug 12 2025 09:53:10 GMT-0500 (Central Daylight Time),67870.39999985695,1400,O,None,1510,4,1,3701.2999999523163,64169.09999990463,7181,NTS,A,1
4,1,prac,1,A,circle.png,1,z,Tue Aug 12 2025 09:53:10 GMT-0500 (Central Daylight Time),71135.70000004768,1400,O,z,1057,4,1,3237.0,67898.70000004768,7181,NTS,A,2
9,2,prac,1,A,circle.png,1,m,Tue Aug 12 2025 09:53:10 GMT-0500 (Central Daylight Time),74451.5,1500,O,m,1007,8,1,3288.2999999523163,71163.20000004768,7181,NTS,A,3
3,3,prac,1,A,circle.png,1,z,Tue Aug 12 2025 09:53:10 GMT-0500 (Central Daylight Time),77167.29999995232,1200,O,z,692,3,1,2684.9000000953674,74482.39999985695,7181,NTS,A,4
2,4,prac,1,A,circle.png,1,z,Tue Aug 12 2025 09:53:10 GMT-0500 (Central Daylight Time),80666.39999985695,2000,O,z,680,2,1,3469.7999999523163,77196.59999990463,7181,NTS,A,5
6,5,prac,1,A,circle.png,1,m,Tue Aug 12 2025 09:53:10 GMT-0500 (Central Daylight Time),84115.0,1900,O,m,713,5,1,3415.2999999523163,80699.70000004768,7181,NTS,A,6
1,6,prac,1,A,circle.png,1,z,Tue Aug 12 2025 09:53:10 GMT-0500 (Central Daylight Time),86430.89999985695,1000,O,z,503,1,1,2286.2999999523163,84144.59999990463,7181,NTS,A,7
9,7,prac,1,A,circle.png,1,m,Tue Aug 12 2025 09:53:10 GMT-0500 (Central Daylight Time),89447.0,1500,O,m,704,8,1,2988.100000143051,86458.89999985695,7181,NTS,A,8
7,8,prac,1,A,circle.png,1,m,Tue Aug 12 2025 09:53:10 GMT-0500 (Central Daylight Time),92662.09999990463,1700,O,m,703,6,1,3192.2000000476837,89469.89999985695,7181,NTS,A,9
1,9,prac,1,A,circle.png,1,z,Tue Aug 12 2025 09:53:10 GMT-0500 (Central Daylight Time),95144.70000004768,1000,O,z,668,1,1,2454.100000143051,92690.59999990463,7181,NTS,A,10
8,10,prac,1,A,circle.png,1,m,Tue Aug 12 2025 09:53:10 GMT-0500 (Central Daylight Time),98293.70000004768,1600,O,m,739,7,1,3124.0,95169.70000004768,7181,NTS,A,11
6,11,prac,1,A,circle.png,1,m,Tue Aug 12 2025 09:53:10 GMT-0500 (Central Daylight Time),101642.5,1900,O,m,633,5,1,3323.7999999523163,98318.70000004768,7181,NTS,A,12
2,0,prac,1,B,triangle.png,0,m,Tue Aug 12 2025 09:53:10 GMT-0500 (Central Daylight Time),137730.5,1700,O,None,1515,2,1,3992.100000143051,133738.39999985695,7181,NTS,A,1
8,1,prac,1,B,triangle.png,1,m,Tue Aug 12 2025 09:53:10 GMT-0500 (Central Daylight Time),140579.0,1200,O,m,822,7,1,2818.100000143051,137760.89999985695,7181,NTS,A,2
6,2,prac,1,B,triangle.png,1,m,Tue Aug 12 2025 09:53:10 GMT-0500 (Central Daylight Time),143195.59999990463,1000,O,m,831,5,1,2608.7999999523163,140586.79999995232,7181,NTS,A,3
9,3,prac,1,B,triangle.png,1,z,Tue Aug 12 2025 09:53:10 GMT-0500 (Central Daylight Time),146227.79999995232,1400,O,z,823,8,1,3005.2999999523163,143222.5,7181,NTS,A,4
2,3,prac,1,B,triangle.png,0,m,Tue Aug 12 2025 09:53:10 GMT-0500 (Central Daylight Time),149626.0,1700,O,z,892,2,1,3371.7999999523163,146254.20000004768,7181,NTS,A,5
3,3,prac,1,B,triangle.png,0,z,Tue Aug 12 2025 09:53:10 GMT-0500 (Central Daylight Time),153525.09999990463,1600,O,None,1515,3,1,3890.2000000476837,149634.89999985695,7181,NTS,A,6
7,4,prac,1,B,triangle.png,1,z,Tue Aug 12 2025 09:53:10 GMT-0500 (Central Daylight Time),157224.59999990463,2000,O,z,884,6,1,3674.2000000476837,153550.39999985695,7181,NTS,A,7
3,5,prac,1,B,triangle.png,1,z,Tue Aug 12 2025 09:53:10 GMT-0500 (Central Daylight Time),160456.39999985695,1600,O,z,827,3,1,3205.199999809265,157251.20000004768,7181,NTS,A,8
1,6,prac,1,B,triangle.png,1,z,Tue Aug 12 2025 09:53:10 GMT-0500 (Central Daylight Time),163889.09999990463,1900,O,z,742,1,1,3410.899999856949,160478.20000004768,7181,NTS,A,9
8,7,prac,1,B,triangle.png,1,m,Tue Aug 12 2025 09:53:10 GMT-0500 (Central Daylight Time),166471.09999990463,1200,O,m,577,7,1,2554.0999999046326,163917.0,7181,NTS,A,10
4,8,prac,1,B,triangle.png,1,m,Tue Aug 12 2025 09:53:10 GMT-0500 (Central Daylight Time),169519.89999985695,1500,O,m,743,4,1,3022.699999809265,166497.20000004768,7181,NTS,A,11
7,9,prac,1,B,triangle.png,1,z,Tue Aug 12 2025 09:53:10 GMT-0500 (Central Daylight Time),172969.09999990463,2000,O,z,634,6,1,3420.7999999523163,169548.29999995232,7181,NTS,A,12
2,1,test,1,A,circle.png,1,z,Tue Aug 12 2025 09:53:10 GMT-0500 (Central Daylight Time),190663.5,2000,O,z,1054,2,1,3074.7999999523163,187588.70000004768,7181,NTS,A,1
6,1,test,1,A,circle.png,0,m,Tue Aug 12 2025 09:53:10 GMT-0500 (Central Daylight Time),193295.70000004768,1900,O,z,687,5,1,2611.4000000953674,190684.29999995232,7181,NTS,A,2
9,2,test,1,A,circle.png,1,m,Tue Aug 12 2025 09:53:10 GMT-0500 (Central Daylight Time),195611.5,1500,O,m,765,8,1,2297.100000143051,193314.39999985695,7181,NTS,A,3
9,3,test,1,A,circle.png,1,m,Tue Aug 12 2025 09:53:10 GMT-0500 (Central Daylight Time),197611.0,1500,O,m,459,8,1,1981.1000001430511,195629.89999985695,7181,NTS,A,4
1,4,test,1,A,circle.png,1,z,Tue Aug 12 2025 09:53:10 GMT-0500 (Central Daylight Time),199327.20000004768,1000,O,z,669,1,1,1697.1000001430511,197630.09999990463,7181,NTS,A,5
9,5,test,1,A,circle.png,1,m,Tue Aug 12 2025 09:53:10 GMT-0500 (Central Daylight Time),201443.09999990463,1500,O,m,569,8,1,2097.899999856949,199345.20000004768,7181,NTS,A,6
6,6,test,1,A,circle.png,1,m,Tue Aug 12 2025 09:53:10 GMT-0500 (Central Daylight Time),203909.59999990463,1900,O,m,530,5,1,2447.5999999046326,201462.0,7181,NTS,A,7
4,7,test,1,A,circle.png,1,z,Tue Aug 12 2025 09:53:10 GMT-0500 (Central Daylight Time),205891.39999985695,1400,O,z,532,4,1,1964.0,203927.39999985695,7181,NTS,A,8
8,8,test,1,A,circle.png,1,m,Tue Aug 12 2025 09:53:10 GMT-0500 (Central Daylight Time),208007.59999990463,1600,O,m,471,7,1,2097.7000000476837,205909.89999985695,7181,NTS,A,9
3,9,test,1,A,circle.png,1,z,Tue Aug 12 2025 09:53:10 GMT-0500 (Central Daylight Time),209873.59999990463,1200,O,z,618,3,1,1845.2999999523163,208028.29999995232,7181,NTS,A,10
1,10,test,1,A,circle.png,1,z,Tue Aug 12 2025 09:53:10 GMT-0500 (Central Daylight Time),211489.70000004768,1000,O,z,568,1,1,1596.5,209893.20000004768,7181,NTS,A,11
1,11,test,1,A,circle.png,1,z,Tue Aug 12 2025 09:53:10 GMT-0500 (Central Daylight Time),213389.09999990463,1000,O,z,862,1,1,1879.5999999046326,211509.5,7181,NTS,A,12
6,12,test,1,A,circle.png,1,m,Tue Aug 12 2025 09:53:10 GMT-0500 (Central Daylight Time),216054.89999985695,1900,O,m,722,5,1,2646.699999809265,213408.20000004768,7181,NTS,A,13
7,13,test,1,A,circle.png,1,m,Tue Aug 12 2025 09:53:10 GMT-0500 (Central Daylight Time),218270.70000004768,1700,O,m,478,6,1,2195.600000143051,216075.09999990463,7181,NTS,A,14
7,14,test,1,A,circle.png,1,m,Tue Aug 12 2025 09:53:10 GMT-0500 (Central Daylight Time),220570.20000004768,1700,O,m,551,6,1,2279.600000143051,218290.59999990463,7181,NTS,A,15
3,15,test,1,A,circle.png,1,z,Tue Aug 12 2025 09:53:10 GMT-0500 (Central Daylight Time),222402.59999990463,1200,O,z,581,3,1,1813.2999999523163,220589.29999995232,7181,NTS,A,16
6,16,test,1,A,circle.png,1,m,Tue Aug 12 2025 09:53:10 GMT-0500 (Central Daylight Time),224835.39999985695,1900,O,m,492,5,1,2413.899999856949,222421.5,7181,NTS,A,17
8,17,test,1,A,circle.png,1,m,Tue Aug 12 2025 09:53:10 GMT-0500 (Central Daylight Time),226968.0,1600,O,m,495,7,1,2113.2999999523163,224854.70000004768,7181,NTS,A,18
7,18,test,1,A,circle.png,1,m,Tue Aug 12 2025 09:53:10 GMT-0500 (Central Daylight Time),229150.59999990463,1700,O,m,438,6,1,2166.0999999046326,226984.5,7181,NTS,A,19
2,19,test,1,A,circle.png,1,z,Tue Aug 12 2025 09:53:10 GMT-0500 (Central Daylight Time),231616.39999985695,2000,O,z,430,2,1,2446.7999999523163,229169.59999990463,7181,NTS,A,20
4,20,test,1,A,circle.png,1,z,Tue Aug 12 2025 09:53:10 GMT-0500 (Central Daylight Time),233682.5,1400,O,z,625,4,1,2048.2000000476837,231634.29999995232,7181,NTS,A,21
4,21,test,1,A,circle.png,1,z,Tue Aug 12 2025 09:53:10 GMT-0500 (Central Daylight Time),235665.20000004768,1400,O,z,536,4,1,1964.1000001430511,233701.09999990463,7181,NTS,A,22
3,22,test,1,A,circle.png,1,z,Tue Aug 12 2025 09:53:10 GMT-0500 (Central Daylight Time),237431.20000004768,1200,O,z,528,3,1,1747.2000000476837,235684.0,7181,NTS,A,23
1,23,test,1,A,circle.png,1,z,Tue Aug 12 2025 09:53:10 GMT-0500 (Central Daylight Time),238980.0,1000,O,z,505,1,1,1530.2999999523163,237449.70000004768,7181,NTS,A,24
8,1,test,1,B,triangle.png,1,m,Tue Aug 12 2025 09:53:10 GMT-0500 (Central Daylight Time),250976.79999995232,1200,O,m,786,7,1,2015.4000000953674,248961.39999985695,7181,NTS,A,1
7,2,test,1,B,triangle.png,1,z,Tue Aug 12 2025 09:53:10 GMT-0500 (Central Daylight Time),253209.20000004768,1600,O,z,586,14,1,2213.100000143051,250996.09999990463,7181,NTS,A,2
6,3,test,1,B,triangle.png,1,m,Tue Aug 12 2025 09:53:10 GMT-0500 (Central Daylight Time),254908.70000004768,1000,O,m,650,5,1,1680.3000001907349,253228.39999985695,7181,NTS,A,3
3,4,test,1,B,triangle.png,1,z,Tue Aug 12 2025 09:53:10 GMT-0500 (Central Daylight Time),257474.70000004768,2000,O,z,543,11,1,2555.300000190735,254919.39999985695,7181,NTS,A,4
6,5,test,1,B,triangle.png,1,m,Tue Aug 12 2025 09:53:10 GMT-0500 (Central Daylight Time),259207.5,1000,O,m,696,5,1,1714.7000000476837,257492.79999995232,7181,NTS,A,5
9,6,test,1,B,triangle.png,1,z,Tue Aug 12 2025 09:53:10 GMT-0500 (Central Daylight Time),262023.20000004768,1900,O,z,881,16,1,2797.9000000953674,259225.29999995232,7181,NTS,A,6
9,7,test,1,B,triangle.png,1,z,Tue Aug 12 2025 09:53:10 GMT-0500 (Central Daylight Time),264672.2000000477,1900,O,z,705,16,1,2630.7000000476837,262041.5,7181,NTS,A,7
6,8,test,1,B,triangle.png,1,m,Tue Aug 12 2025 09:53:10 GMT-0500 (Central Daylight Time),267005.2000000477,1500,O,m,799,13,1,2314.7000000476837,264690.5,7181,NTS,A,8
2,8,test,1,B,triangle.png,0,m,Tue Aug 12 2025 09:53:10 GMT-0500 (Central Daylight Time),269337.39999985695,1200,O,z,1094,10,1,2312.5999999046326,267024.7999999523,7181,NTS,A,9
4,9,test,1,B,triangle.png,1,m,Tue Aug 12 2025 09:53:10 GMT-0500 (Central Daylight Time),271236.7999999523,1000,O,m,858,12,1,1879.5999999046326,269357.2000000477,7181,NTS,A,10
8,10,test,1,B,triangle.png,1,m,Tue Aug 12 2025 09:53:10 GMT-0500 (Central Daylight Time),273669.59999990463,1700,O,m,689,15,1,2414.2999999523163,271255.2999999523,7181,NTS,A,11
7,11,test,1,B,triangle.png,1,z,Tue Aug 12 2025 09:53:10 GMT-0500 (Central Daylight Time),275901.59999990463,1600,O,z,590,14,1,2212.899999856949,273688.7000000477,7181,NTS,A,12
1,12,test,1,B,triangle.png,1,z,Tue Aug 12 2025 09:53:10 GMT-0500 (Central Daylight Time),279034.39999985695,1900,O,z,1193,1,1,3113.7999999523163,275920.59999990463,7181,NTS,A,13
2,13,test,1,B,triangle.png,1,m,Tue Aug 12 2025 09:53:10 GMT-0500 (Central Daylight Time),281333.7000000477,1700,O,m,556,2,1,2280.800000190735,279052.89999985695,7181,NTS,A,14
1,14,test,1,B,triangle.png,1,z,Tue Aug 12 2025 09:53:10 GMT-0500 (Central Daylight Time),283466.2999999523,1400,O,z,686,9,1,2113.7000000476837,281352.59999990463,7181,NTS,A,15
7,15,test,1,B,triangle.png,1,z,Tue Aug 12 2025 09:53:10 GMT-0500 (Central Daylight Time),286615.09999990463,2000,O,z,1105,6,1,3130.7000000476837,283484.39999985695,7181,NTS,A,16
9,16,test,1,B,triangle.png,1,z,Tue Aug 12 2025 09:53:10 GMT-0500 (Central Daylight Time),288914.2000000477,1400,O,z,852,8,1,2281.4000000953674,286632.7999999523,7181,NTS,A,17
2,17,test,1,B,triangle.png,1,m,Tue Aug 12 2025 09:53:10 GMT-0500 (Central Daylight Time),290847.0,1200,O,m,688,10,1,1915.1000001430511,288931.89999985695,7181,NTS,A,18
8,18,test,1,B,triangle.png,1,m,Tue Aug 12 2025 09:53:10 GMT-0500 (Central Daylight Time),292963.09999990463,1200,O,m,893,7,1,2103.0999999046326,290860.0,7181,NTS,A,19
4,19,test,1,B,triangle.png,1,m,Tue Aug 12 2025 09:53:10 GMT-0500 (Central Daylight Time),294695.7000000477,1000,O,m,695,12,1,1713.7000000476837,292982.0,7181,NTS,A,20
6,20,test,1,B,triangle.png,1,m,Tue Aug 12 2025 09:53:10 GMT-0500 (Central Daylight Time),296911.39999985695,1500,O,m,673,13,1,2196.899999856949,294714.5,7181,NTS,A,21
3,21,test,1,B,triangle.png,1,z,Tue Aug 12 2025 09:53:10 GMT-0500 (Central Daylight Time),299077.7000000477,1600,O,z,533,3,1,2148.100000143051,296929.59999990463,7181,NTS,A,22
4,22,test,1,B,triangle.png,1,m,Tue Aug 12 2025 09:53:10 GMT-0500 (Central Daylight Time),301276.7000000477,1500,O,m,657,4,1,2181.2000000476837,299095.5,7181,NTS,A,23
4,23,test,1,B,triangle.png,1,m,Tue Aug 12 2025 09:53:10 GMT-0500 (Central Daylight Time),303309.2999999523,1500,O,m,498,4,1,2015.2000000476837,301294.09999990463,7181,NTS,A,24
8,0,prac,1,C,triangle.png,0,m,Tue Aug 12 2025 09:53:10 GMT-0500 (Central Daylight Time),350194.39999985695,1400,O,None,1514,7,1,3687.699999809265,346506.7000000477,7181,NTS,A,1
3,1,prac,1,C,triangle.png,1,z,Tue Aug 12 2025 09:53:10 GMT-0500 (Central Daylight Time),353525.7000000477,1500,O,z,1022,3,1,3303.100000143051,350222.59999990463,7181,NTS,A,2
8,2,prac,1,C,triangle.png,1,m,Tue Aug 12 2025 09:53:10 GMT-0500 (Central Daylight Time),356712.09999990463,1400,O,m,1012,7,1,3178.5999999046326,353533.5,7181,NTS,A,3
2,2,prac,1,C,triangle.png,0,m,Tue Aug 12 2025 09:53:10 GMT-0500 (Central Daylight Time),360306.7000000477,1600,O,z,1213,2,1,3586.5,356720.2000000477,7181,NTS,A,4
2,2,prac,1,C,triangle.png,0,m,Tue Aug 12 2025 09:53:10 GMT-0500 (Central Daylight Time),364022.2000000477,1600,O,z,1328,2,1,3707.2000000476837,360315.0,7181,NTS,A,5
6,3,prac,1,C,circle.png,1,m,Tue Aug 12 2025 09:53:10 GMT-0500 (Central Daylight Time),367804.2000000477,2000,O,m,989,5,1,3773.9000000953674,364030.2999999523,7181,NTS,A,6
4,3,prac,1,C,circle.png,0,z,Tue Aug 12 2025 09:53:10 GMT-0500 (Central Daylight Time),371103.2000000477,1000,O,None,1516,4,1,3289.9000000953674,367813.2999999523,7181,NTS,A,7
1,4,prac,1,C,circle.png,1,z,Tue Aug 12 2025 09:53:10 GMT-0500 (Central Daylight Time),374635.5,1700,O,z,1039,1,1,3524.7999999523163,371110.7000000477,7181,NTS,A,8
3,4,prac,1,C,triangle.png,0,z,Tue Aug 12 2025 09:53:10 GMT-0500 (Central Daylight Time),378434.0,1500,O,None,1516,3,1,3790.2999999523163,374643.7000000477,7181,NTS,A,9
6,5,prac,1,C,circle.png,1,m,Tue Aug 12 2025 09:53:10 GMT-0500 (Central Daylight Time),382299.7000000477,2000,O,m,1073,5,1,3858.800000190735,378440.89999985695,7181,NTS,A,10
7,6,prac,1,C,triangle.png,1,z,Tue Aug 12 2025 09:53:10 GMT-0500 (Central Daylight Time),385481.89999985695,1200,O,z,1191,6,1,3174.399999856949,382307.5,7181,NTS,A,11
9,7,prac,1,C,circle.png,1,m,Tue Aug 12 2025 09:53:10 GMT-0500 (Central Daylight Time),389280.59999990463,1900,O,m,1101,8,1,3792.0,385488.59999990463,7181,NTS,A,12
9,1,prac,2,C,circle.png,1,m,Tue Aug 12 2025 09:53:10 GMT-0500 (Central Daylight Time),399793.89999985695,1900,O,m,1266,8,1,3958.899999856949,395835.0,7181,NTS,A,1
2,2,prac,2,C,triangle.png,1,m,Tue Aug 12 2025 09:53:10 GMT-0500 (Central Daylight Time),403575.7999999523,1600,O,m,1393,2,1,3774.5999999046326,399801.2000000477,7181,NTS,A,2
7,3,prac,2,C,triangle.png,1,z,Tue Aug 12 2025 09:53:10 GMT-0500 (Central Daylight Time),406691.59999990463,1200,O,z,1122,6,1,3105.2000000476837,403586.39999985695,7181,NTS,A,3
1,4,prac,2,C,circle.png,1,z,Tue Aug 12 2025 09:53:10 GMT-0500 (Central Daylight Time),410408.09999990463,1700,O,z,1219,1,1,3708.0,406700.09999990463,7181,NTS,A,4
6,5,prac,2,C,circle.png,1,m,Tue Aug 12 2025 09:53:10 GMT-0500 (Central Daylight Time),413972.5,2000,O,m,762,5,1,3539.0,410433.5,7181,NTS,A,5
6,6,prac,2,C,circle.png,1,m,Tue Aug 12 2025 09:53:10 GMT-0500 (Central Daylight Time),417654.7000000477,2000,O,m,886,5,1,3675.0,413979.7000000477,7181,NTS,A,6
4,7,prac,2,C,circle.png,1,z,Tue Aug 12 2025 09:53:10 GMT-0500 (Central Daylight Time),420404.7999999523,1000,O,z,973,4,1,2742.7000000476837,417662.09999990463,7181,NTS,A,7
2,8,prac,2,C,triangle.png,1,m,Tue Aug 12 2025 09:53:10 GMT-0500 (Central Daylight Time),424302.59999990463,1600,O,m,1496,2,1,3874.7000000476837,420427.89999985695,7181,NTS,A,8
3,8,prac,2,C,triangle.png,0,z,Tue Aug 12 2025 09:53:10 GMT-0500 (Central Daylight Time),428102.09999990463,1500,O,None,1516,3,1,3788.5999999046326,424313.5,7181,NTS,A,9
1,9,prac,2,C,circle.png,1,z,Tue Aug 12 2025 09:53:10 GMT-0500 (Central Daylight Time),431551.0,1700,O,z,938,1,1,3425.2000000476837,428125.7999999523,7181,NTS,A,10
3,10,prac,2,C,triangle.png,1,z,Tue Aug 12 2025 09:53:10 GMT-0500 (Central Daylight Time),435049.89999985695,1500,O,z,1192,3,1,3472.7999999523163,431577.09999990463,7181,NTS,A,11
8,11,prac,2,C,triangle.png,1,m,Tue Aug 12 2025 09:53:10 GMT-0500 (Central Daylight Time),438498.59999990463,1400,O,m,1242,7,1,3424.0,435074.59999990463,7181,NTS,A,12
4,1,test,1,C,circle.png,1,z,Tue Aug 12 2025 09:53:10 GMT-0500 (Central Daylight Time),453677.39999985695,1400,O,z,1134,4,1,2547.5,451129.89999985695,7181,NTS,A,1
8,2,test,1,C,triangle.png,1,m,Tue Aug 12 2025 09:53:10 GMT-0500 (Central Daylight Time),456758.39999985695,1600,O,m,1436,23,1,3062.199999809265,453696.2000000477,7181,NTS,A,2
2,2,test,1,C,triangle.png,0,m,Tue Aug 12 2025 09:53:10 GMT-0500 (Central Daylight Time),460091.5,2000,O,z,1300,2,1,3327.2999999523163,456764.2000000477,7181,NTS,A,3
2,3,test,1,C,circle.png,1,z,Tue Aug 12 2025 09:53:10 GMT-0500 (Central Daylight Time),462756.7000000477,1700,O,z,924,10,1,2646.2000000476837,460110.5,7181,NTS,A,4
6,4,test,1,C,circle.png,1,m,Tue Aug 12 2025 09:53:10 GMT-0500 (Central Daylight Time),465506.5,1900,O,m,827,21,1,2739.0,462767.5,7181,NTS,A,5
1,5,test,1,C,triangle.png,1,z,Tue Aug 12 2025 09:53:10 GMT-0500 (Central Daylight Time),468538.7000000477,1900,O,z,1084,9,1,3012.2000000476837,465526.5,7181,NTS,A,6
7,6,test,1,C,circle.png,1,m,Tue Aug 12 2025 09:53:10 GMT-0500 (Central Daylight Time),471604.5,2000,O,m,1017,14,1,3046.7999999523163,468557.7000000477,7181,NTS,A,7
3,7,test,1,C,circle.png,1,z,Tue Aug 12 2025 09:53:10 GMT-0500 (Central Daylight Time),474003.7999999523,1600,O,z,759,11,1,2380.9000000953674,471622.89999985695,7181,NTS,A,8
6,8,test,1,C,circle.png,1,m,Tue Aug 12 2025 09:53:10 GMT-0500 (Central Daylight Time),476702.39999985695,1900,O,m,765,5,1,2680.699999809265,474021.7000000477,7181,NTS,A,9
4,9,test,1,C,triangle.png,1,m,Tue Aug 12 2025 09:53:10 GMT-0500 (Central Daylight Time),479468.59999990463,1500,O,m,1225,12,1,2746.5999999046326,476722.0,7181,NTS,A,10
3,10,test,1,C,circle.png,1,z,Tue Aug 12 2025 09:53:10 GMT-0500 (Central Daylight Time),482484.09999990463,1600,O,z,1375,19,1,2995.899999856949,479488.2000000477,7181,NTS,A,11
7,11,test,1,C,triangle.png,1,z,Tue Aug 12 2025 09:53:10 GMT-0500 (Central Daylight Time),485616.59999990463,1700,O,z,1388,22,1,3113.7999999523163,482502.7999999523,7181,NTS,A,12
2,12,test,1,C,circle.png,1,z,Tue Aug 12 2025 09:53:10 GMT-0500 (Central Daylight Time),488415.2999999523,1700,O,z,1063,18,1,2780.0999999046326,485635.2000000477,7181,NTS,A,13
9,13,test,1,C,circle.png,1,m,Tue Aug 12 2025 09:53:10 GMT-0500 (Central Daylight Time),490681.7000000477,1500,O,m,720,24,1,2247.9000000953674,488433.7999999523,7181,NTS,A,14
9,13,test,1,C,triangle.png,0,z,Tue Aug 12 2025 09:53:10 GMT-0500 (Central Daylight Time),493630.89999985695,1400,O,None,1516,16,1,2929.5999999046326,490701.2999999523,7181,NTS,A,15
8,14,test,1,C,circle.png,1,m,Tue Aug 12 2025 09:53:10 GMT-0500 (Central Daylight Time),496012.89999985695,1200,O,m,1133,15,1,2362.5999999046326,493650.2999999523,7181,NTS,A,16
1,15,test,1,C,triangle.png,1,z,Tue Aug 12 2025 09:53:10 GMT-0500 (Central Daylight Time),498778.7000000477,1900,O,z,818,17,1,2745.600000143051,496033.09999990463,7181,NTS,A,17
3,16,test,1,C,triangle.png,1,z,Tue Aug 12 2025 09:53:10 GMT-0500 (Central Daylight Time),500894.7999999523,1200,O,z,872,3,1,2097.2000000476837,498797.59999990463,7181,NTS,A,18
7,16,test,1,C,triangle.png,0,z,Tue Aug 12 2025 09:53:10 GMT-0500 (Central Daylight Time),503677.2999999523,1700,O,m,1042,6,1,2764.2000000476837,500913.09999990463,7181,NTS,A,19
4,16,test,1,C,triangle.png,0,m,Tue Aug 12 2025 09:53:10 GMT-0500 (Central Daylight Time),506576.39999985695,1500,O,z,1354,20,1,2880.5,503695.89999985695,7181,NTS,A,20
8,16,test,1,C,triangle.png,0,m,Tue Aug 12 2025 09:53:10 GMT-0500 (Central Daylight Time),509725.39999985695,1600,O,None,1515,7,1,3129.0,506596.39999985695,7181,NTS,A,21
6,17,test,1,C,triangle.png,1,m,Tue Aug 12 2025 09:53:10 GMT-0500 (Central Daylight Time),511674.59999990463,1000,O,m,902,13,1,1930.8999998569489,509743.7000000477,7181,NTS,A,22
9,18,test,1,C,circle.png,1,m,Tue Aug 12 2025 09:53:10 GMT-0500 (Central Daylight Time),514507.09999990463,1500,O,m,1284,8,1,2813.2999999523163,511693.7999999523,7181,NTS,A,23
1,19,test,1,C,circle.png,1,z,Tue Aug 12 2025 09:53:10 GMT-0500 (Central Daylight Time),516356.2999999523,1000,O,z,808,1,1,1830.9000000953674,514525.39999985695,7181,NTS,A,24
2,1,test,2,C,circle.png,1,z,Tue Aug 12 2025 09:53:10 GMT-0500 (Central Daylight Time),524520.899999857,1700,O,z,854,10,1,2581.899999856949,521939.0,7181,NTS,A,1
6,2,test,2,C,triangle.png,1,m,Tue Aug 12 2025 09:53:10 GMT-0500 (Central Daylight Time),526952.7999999523,1000,O,m,1395,13,1,2411.0999999046326,524541.7000000477,7181,NTS,A,2
2,3,test,2,C,triangle.png,1,m,Tue Aug 12 2025 09:53:10 GMT-0500 (Central Daylight Time),529935.2999999523,2000,O,m,939,2,1,2964.0999999046326,526971.2000000477,7181,NTS,A,3
9,4,test,2,C,triangle.png,1,z,Tue Aug 12 2025 09:53:10 GMT-0500 (Central Daylight Time),532418.0,1400,O,z,1044,24,1,2465.0,529953.0,7181,NTS,A,4
1,5,test,2,C,triangle.png,1,z,Tue Aug 12 2025 09:53:10 GMT-0500 (Central Daylight Time),535166.399999857,1900,O,z,813,9,1,2729.899999856949,532436.5,7181,NTS,A,5
4,6,test,2,C,triangle.png,1,m,Tue Aug 12 2025 09:53:10 GMT-0500 (Central Daylight Time),537516.0999999046,1500,O,m,825,12,1,2338.0999999046326,535178.0,7181,NTS,A,6
6,7,test,2,C,triangle.png,1,m,Tue Aug 12 2025 09:53:10 GMT-0500 (Central Daylight Time),539698.899999857,1000,O,m,1135,21,1,2163.2999999523163,537535.5999999046,7181,NTS,A,7
7,7,test,2,C,circle.png,0,m,Tue Aug 12 2025 09:53:10 GMT-0500 (Central Daylight Time),542564.0999999046,2000,O,z,825,14,1,2846.5999999046326,539717.5,7181,NTS,A,8
3,8,test,2,C,circle.png,1,z,Tue Aug 12 2025 09:53:10 GMT-0500 (Central Daylight Time),545330.2999999523,1600,O,z,1136,19,1,2755.7000000476837,542574.5999999046,7181,NTS,A,9
3,9,test,2,C,triangle.png,1,z,Tue Aug 12 2025 09:53:10 GMT-0500 (Central Daylight Time),548045.7000000477,1200,O,z,1481,3,1,2696.9000000953674,545348.7999999523,7181,NTS,A,10
9,10,test,2,C,triangle.png,1,z,Tue Aug 12 2025 09:53:10 GMT-0500 (Central Daylight Time),550894.7999999523,1400,O,z,1413,16,1,2825.5,548069.2999999523,7181,NTS,A,11
9,11,test,2,C,circle.png,1,m,Tue Aug 12 2025 09:53:10 GMT-0500 (Central Daylight Time),553644.2999999523,1500,O,m,1200,8,1,2731.2000000476837,550913.0999999046,7181,NTS,A,12
8,12,test,2,C,circle.png,1,m,Tue Aug 12 2025 09:53:10 GMT-0500 (Central Daylight Time),555993.5999999046,1200,O,m,1111,23,1,2329.899999856949,553663.7000000477,7181,NTS,A,13
6,13,test,2,C,circle.png,1,m,Tue Aug 12 2025 09:53:10 GMT-0500 (Central Daylight Time),558775.899999857,1900,O,m,846,5,1,2763.199999809265,556012.7000000477,7181,NTS,A,14
8,13,test,2,C,triangle.png,0,m,Tue Aug 12 2025 09:53:10 GMT-0500 (Central Daylight Time),561925.2000000477,1600,O,None,1516,7,1,3130.5,558794.7000000477,7181,NTS,A,15
7,14,test,2,C,circle.png,1,m,Tue Aug 12 2025 09:53:10 GMT-0500 (Central Daylight Time),565007.0,2000,O,m,1047,22,1,3062.5,561944.5,7181,NTS,A,16
4,15,test,2,C,circle.png,1,z,Tue Aug 12 2025 09:53:10 GMT-0500 (Central Daylight Time),567106.5999999046,1400,O,z,660,4,1,2081.5999999046326,565025.0,7181,NTS,A,17
7,16,test,2,C,triangle.png,1,z,Tue Aug 12 2025 09:53:10 GMT-0500 (Central Daylight Time),570322.2000000477,1700,O,z,1469,6,1,3197.7000000476837,567124.5,7181,NTS,A,18
4,17,test,2,C,triangle.png,1,m,Tue Aug 12 2025 09:53:10 GMT-0500 (Central Daylight Time),572637.7999999523,1500,O,m,781,20,1,2295.5999999046326,570342.2000000477,7181,NTS,A,19
1,18,test,2,C,circle.png,1,z,Tue Aug 12 2025 09:53:10 GMT-0500 (Central Daylight Time),574587.0999999046,1000,O,z,901,1,1,1930.3999998569489,572656.7000000477,7181,NTS,A,20
8,19,test,2,C,circle.png,1,m,Tue Aug 12 2025 09:53:10 GMT-0500 (Central Daylight Time),576502.5999999046,1200,O,m,671,15,1,1896.5,574606.0999999046,7181,NTS,A,21
2,20,test,2,C,circle.png,1,z,Tue Aug 12 2025 09:53:10 GMT-0500 (Central Daylight Time),578902.2000000477,1700,O,z,681,18,1,2393.600000143051,576508.5999999046,7181,NTS,A,22
1,21,test,2,C,triangle.png,1,z,Tue Aug 12 2025 09:53:10 GMT-0500 (Central Daylight Time),581918.399999857,1900,O,z,1073,17,1,2997.5999999046326,578920.7999999523,7181,NTS,A,23
3,22,test,2,C,circle.png,1,z,Tue Aug 12 2025 09:53:10 GMT-0500 (Central Daylight Time),584550.5999999046,1600,O,z,997,11,1,2613.899999856949,581936.7000000477,7181,NTS,A,24
9,1,test,3,C,circle.png,1,m,Tue Aug 12 2025 09:53:10 GMT-0500 (Central Daylight Time),588566.399999857,1500,O,m,807,8,1,2332.7999999523163,586233.5999999046,7181,NTS,A,1
2,2,test,3,C,circle.png,1,z,Tue Aug 12 2025 09:53:10 GMT-0500 (Central Daylight Time),590932.0999999046,1700,O,z,625,10,1,2346.399999856949,588585.7000000477,7181,NTS,A,2
1,3,test,3,C,circle.png,1,z,Tue Aug 12 2025 09:53:10 GMT-0500 (Central Daylight Time),592531.5,1000,O,z,551,17,1,1582.2000000476837,590949.2999999523,7181,NTS,A,3
7,4,test,3,C,circle.png,1,m,Tue Aug 12 2025 09:53:10 GMT-0500 (Central Daylight Time),595163.7999999523,2000,O,m,592,14,1,2613.2999999523163,592550.5,7181,NTS,A,4
3,5,test,3,C,circle.png,1,z,Tue Aug 12 2025 09:53:10 GMT-0500 (Central Daylight Time),597363.0999999046,1600,O,z,551,11,1,2180.5,595182.5999999046,7181,NTS,A,5
3,6,test,3,C,triangle.png,1,z,Tue Aug 12 2025 09:53:10 GMT-0500 (Central Daylight Time),599912.5,1200,O,z,1313,3,1,2531.2999999523163,597381.2000000477,7181,NTS,A,6
2,7,test,3,C,triangle.png,1,m,Tue Aug 12 2025 09:53:10 GMT-0500 (Central Daylight Time),602745.0,2000,O,m,795,18,1,2813.7999999523163,599931.2000000477,7181,NTS,A,7
7,8,test,3,C,triangle.png,1,z,Tue Aug 12 2025 09:53:10 GMT-0500 (Central Daylight Time),605477.2999999523,1700,O,z,991,6,1,2712.5,602764.7999999523,7181,NTS,A,8
4,8,test,3,C,circle.png,0,z,Tue Aug 12 2025 09:53:10 GMT-0500 (Central Daylight Time),608426.2999999523,1400,O,None,1515,4,1,2931.0999999046326,605495.2000000477,7181,NTS,A,9
4,9,test,3,C,triangle.png,1,m,Tue Aug 12 2025 09:53:10 GMT-0500 (Central Daylight Time),610892.2999999523,1500,O,m,925,12,1,2447.2999999523163,608445.0,7181,NTS,A,10
7,10,test,3,C,triangle.png,1,z,Tue Aug 12 2025 09:53:10 GMT-0500 (Central Daylight Time),613308.0999999046,1700,O,z,672,22,1,2396.0999999046326,610912.0,7181,NTS,A,11
8,11,test,3,C,triangle.png,1,m,Tue Aug 12 2025 09:53:10 GMT-0500 (Central Daylight Time),615640.5999999046,1600,O,m,687,7,1,2313.5,613327.0999999046,7181,NTS,A,12
1,12,test,3,C,circle.png,1,z,Tue Aug 12 2025 09:53:10 GMT-0500 (Central Daylight Time),617556.0,1000,O,z,874,1,1,1897.4000000953674,615658.5999999046,7181,NTS,A,13
2,12,test,3,C,triangle.png,0,m,Tue Aug 12 2025 09:53:10 GMT-0500 (Central Daylight Time),621088.2999999523,2000,O,None,1515,2,1,3524.0,617564.2999999523,7181,NTS,A,14
6,13,test,3,C,triangle.png,1,m,Tue Aug 12 2025 09:53:10 GMT-0500 (Central Daylight Time),622704.2000000477,1000,O,m,586,13,1,1604.8000001907349,621099.399999857,7181,NTS,A,15
6,13,test,3,C,circle.png,0,m,Tue Aug 12 2025 09:53:10 GMT-0500 (Central Daylight Time),625570.7000000477,1900,O,z,935,21,1,2862.0,622708.7000000477,7181,NTS,A,16
9,14,test,3,C,circle.png,1,m,Tue Aug 12 2025 09:53:10 GMT-0500 (Central Daylight Time),627736.2999999523,1500,O,m,629,24,1,2146.2000000476837,625590.0999999046,7181,NTS,A,17
9,15,test,3,C,triangle.png,1,z,Tue Aug 12 2025 09:53:10 GMT-0500 (Central Daylight Time),630669.5,1400,O,z,1499,16,1,2915.0,627754.5,7181,NTS,A,18
4,15,test,3,C,circle.png,0,z,Tue Aug 12 2025 09:53:10 GMT-0500 (Central Daylight Time),633018.2999999523,1400,O,m,902,20,1,2330.5,630687.7999999523,7181,NTS,A,19
8,16,test,3,C,triangle.png,1,m,Tue Aug 12 2025 09:53:10 GMT-0500 (Central Daylight Time),635500.7000000477,1600,O,m,841,23,1,2464.100000143051,633036.5999999046,7181,NTS,A,20
6,17,test,3,C,circle.png,1,m,Tue Aug 12 2025 09:53:10 GMT-0500 (Central Daylight Time),638483.2000000477,1900,O,m,1043,5,1,2964.600000143051,635518.5999999046,7181,NTS,A,21
8,18,test,3,C,circle.png,1,m,Tue Aug 12 2025 09:53:10 GMT-0500 (Central Daylight Time),640282.7000000477,1200,O,m,552,15,1,1781.8000001907349,638500.899999857,7181,NTS,A,22
3,19,test,3,C,triangle.png,1,z,Tue Aug 12 2025 09:53:10 GMT-0500 (Central Daylight Time),642665.0999999046,1200,O,z,1145,19,1,2364.2000000476837,640300.899999857,7181,NTS,A,23
1,20,test,3,C,triangle.png,1,z,Tue Aug 12 2025 09:53:10 GMT-0500 (Central Daylight Time),645214.0,1900,O,z,615,9,1,2530.7000000476837,642683.2999999523,7181,NTS,A,24
4,1,test,4,C,circle.png,1,z,Tue Aug 12 2025 09:53:10 GMT-0500 (Central Daylight Time),649296.5,1400,O,z,946,4,1,2365.600000143051,646930.899999857,7181,NTS,A,1
8,2,test,4,C,circle.png,1,m,Tue Aug 12 2025 09:53:10 GMT-0500 (Central Daylight Time),651195.7999999523,1200,O,m,651,15,1,1879.2000000476837,649316.5999999046,7181,NTS,A,2
6,3,test,4,C,circle.png,1,m,Tue Aug 12 2025 09:53:10 GMT-0500 (Central Daylight Time),653794.7999999523,1900,O,m,660,5,1,2580.0,651214.7999999523,7181,NTS,A,3
1,4,test,4,C,triangle.png,1,z,Tue Aug 12 2025 09:53:10 GMT-0500 (Central Daylight Time),656326.7000000477,1900,O,z,598,9,1,2513.5,653813.2000000477,7181,NTS,A,4
6,5,test,4,C,triangle.png,1,m,Tue Aug 12 2025 09:53:10 GMT-0500 (Central Daylight Time),658109.899999857,1000,O,m,748,13,1,1763.6999998092651,656346.2000000477,7181,NTS,A,5
9,6,test,4,C,triangle.png,1,z,Tue Aug 12 2025 09:53:10 GMT-0500 (Central Daylight Time),660592.5,1400,O,z,1045,16,1,2464.0,658128.5,7181,NTS,A,6
8,7,test,4,C,triangle.png,1,m,Tue Aug 12 2025 09:53:10 GMT-0500 (Central Daylight Time),662958.0,1600,O,m,732,7,1,2348.0,660610.0,7181,NTS,A,7
4,8,test,4,C,triangle.png,1,m,Tue Aug 12 2025 09:53:10 GMT-0500 (Central Daylight Time),665424.2999999523,1500,O,m,929,12,1,2447.0999999046326,662977.2000000477,7181,NTS,A,8
1,9,test,4,C,circle.png,1,z,Tue Aug 12 2025 09:53:10 GMT-0500 (Central Daylight Time),667039.7000000477,1000,O,z,570,17,1,1597.5,665442.2000000477,7181,NTS,A,9
1,10,test,4,C,circle.png,1,z,Tue Aug 12 2025 09:53:10 GMT-0500 (Central Daylight Time),668573.2000000477,1000,O,z,499,1,1,1523.5,667049.7000000477,7181,NTS,A,10
8,10,test,4,C,triangle.png,0,m,Tue Aug 12 2025 09:53:10 GMT-0500 (Central Daylight Time),671505.5,1600,O,z,1294,23,1,2914.600000143051,668590.899999857,7181,NTS,A,11
9,11,test,4,C,circle.png,1,m,Tue Aug 12 2025 09:53:10 GMT-0500 (Central Daylight Time),674304.7000000477,1500,O,m,1262,24,1,2781.800000190735,671522.899999857,7181,NTS,A,12
4,12,test,4,C,circle.png,1,z,Tue Aug 12 2025 09:53:10 GMT-0500 (Central Daylight Time),676853.899999857,1400,O,z,1103,20,1,2530.899999856949,674323.0,7181,NTS,A,13
2,13,test,4,C,triangle.png,1,m,Tue Aug 12 2025 09:53:10 GMT-0500 (Central Daylight Time),680052.899999857,2000,O,m,1158,18,1,3181.0,676871.899999857,7181,NTS,A,14
3,14,test,4,C,triangle.png,1,z,Tue Aug 12 2025 09:53:10 GMT-0500 (Central Daylight Time),681918.7000000477,1200,O,z,630,19,1,1848.2000000476837,680070.5,7181,NTS,A,15
3,15,test,4,C,circle.png,1,z,Tue Aug 12 2025 09:53:10 GMT-0500 (Central Daylight Time),684501.7000000477,1600,O,z,949,11,1,2565.300000190735,681936.399999857,7181,NTS,A,16
6,16,test,4,C,circle.png,1,m,Tue Aug 12 2025 09:53:10 GMT-0500 (Central Daylight Time),687383.899999857,1900,O,m,945,21,1,2865.699999809265,684518.2000000477,7181,NTS,A,17
9,17,test,4,C,circle.png,1,m,Tue Aug 12 2025 09:53:10 GMT-0500 (Central Daylight Time),689615.5999999046,1500,O,m,687,8,1,2214.5999999046326,687401.0,7181,NTS,A,18
7,18,test,4,C,circle.png,1,m,Tue Aug 12 2025 09:53:10 GMT-0500 (Central Daylight Time),692548.399999857,2000,O,m,908,14,1,2927.5999999046326,689620.7999999523,7181,NTS,A,19
7,19,test,4,C,triangle.png,1,z,Tue Aug 12 2025 09:53:10 GMT-0500 (Central Daylight Time),695781.5999999046,1700,O,z,1498,6,1,3214.2999999523163,692567.2999999523,7181,NTS,A,20
3,20,test,4,C,triangle.png,1,z,Tue Aug 12 2025 09:53:10 GMT-0500 (Central Daylight Time),697763.7999999523,1200,O,z,743,3,1,1965.0999999046326,695798.7000000477,7181,NTS,A,21
2,21,test,4,C,circle.png,1,z,Tue Aug 12 2025 09:53:10 GMT-0500 (Central Daylight Time),700429.7000000477,1700,O,z,917,10,1,2643.5,697786.2000000477,7181,NTS,A,22
7,21,test,4,C,triangle.png,0,z,Tue Aug 12 2025 09:53:10 GMT-0500 (Central Daylight Time),702862.2000000477,1700,O,m,698,22,1,2414.300000190735,700447.899999857,7181,NTS,A,23
2,22,test,4,C,triangle.png,1,m,Tue Aug 12 2025 09:53:10 GMT-0500 (Central Daylight Time),705994.2999999523,2000,O,m,1086,2,1,3115.2000000476837,702879.0999999046,7181,NTS,A,24
