Q,Q1,Q2,Q3,Q4,acc_sum,block,block_c,correct,correct_response,datetime,endtime,project,response,response_time,row_sel,session_number,squiggle1,squiggle1x,squiggle1y,squiggle2,squiggle2x,squiggle2y,squiggle3,squiggle3x,squiggle3y,squiggle4,squiggle4x,squiggle4y,start_end,starttime,subject_id,target_congruent,task,task_vers,testsquiggle,testsquigglex,testsquiggley,time_practice_delay,time_practice_fixation,time_practice_stimuli,time_practice_study,time_test_delay,time_test_fixation,time_test_stimuli,time_test_study,trial
1,1,0,0,0,1,prac,1,1,z,Tue Aug 06 2024 18:44:08 GMT-0500 (Central Daylight Time),170416.89999999944,O,z,1124,1,1,116.bmp,-120,-120,117.bmp,120,-120,118.bmp,-120,120,119.bmp,120,120,9942.299999999814,160474.59999999963,7009,yes,SM,A,116.bmp,-120,-120,164178,158152,166195,160163,,,,,1
3,0,0,1,0,1,prac,1,0,m,Tue Aug 06 2024 18:44:08 GMT-0500 (Central Daylight Time),180813.7999999998,O,z,1578,2,1,120.bmp,-120,-120,121.bmp,120,-120,122.bmp,-120,120,123.bmp,120,120,10393.200000000186,170420.59999999963,7009,no,SM,A,123.bmp,-120,120,174125,168098,176141,170110,,,,,2
4,0,0,0,1,2,prac,1,1,m,Tue Aug 06 2024 18:44:08 GMT-0500 (Central Daylight Time),191560.2999999998,O,m,1925,3,1,124.bmp,-120,-120,125.bmp,120,-120,126.bmp,-120,120,127.bmp,120,120,10743.0,180817.2999999998,7009,no,SM,A,124.bmp,120,120,184522,178494,186538,180508,,,,,3
2,0,1,0,0,3,prac,1,1,z,Tue Aug 06 2024 18:44:08 GMT-0500 (Central Daylight Time),201940.2999999998,O,z,1554,4,1,128.bmp,-120,-120,129.bmp,120,-120,130.bmp,-120,120,131.bmp,120,120,10376.400000000373,191563.89999999944,7009,yes,SM,A,129.bmp,120,-120,195269,189241,197285,191253,,,,,4
3,0,0,1,0,4,prac,1,1,z,Tue Aug 06 2024 18:44:08 GMT-0500 (Central Daylight Time),212087.2000000002,O,z,1326,5,1,132.bmp,-120,-120,133.bmp,120,-120,134.bmp,-120,120,135.bmp,120,120,10143.700000000186,201943.5,7009,yes,SM,A,134.bmp,-120,120,205649,199621,207665,201635,,,,,5
1,1,0,0,0,5,prac,1,1,m,Tue Aug 06 2024 18:44:08 GMT-0500 (Central Daylight Time),222167.09999999963,O,m,1251,6,1,136.bmp,-120,-120,137.bmp,120,-120,138.bmp,-120,120,139.bmp,120,120,10076.5,212090.59999999963,7009,no,SM,A,139.bmp,-120,-120,215797,209768,217812,211781,,,,,6
2,0,1,0,0,6,prac,1,1,m,Tue Aug 06 2024 18:44:08 GMT-0500 (Central Daylight Time),232414.09999999963,O,m,1419,7,1,140.bmp,-120,-120,141.bmp,120,-120,142.bmp,-120,120,143.bmp,120,120,10243.5,222170.59999999963,7009,no,SM,A,140.bmp,120,-120,225876,219848,227892,221862,,,,,7
4,0,0,0,1,6,prac,1,0,z,Tue Aug 06 2024 18:44:08 GMT-0500 (Central Daylight Time),243243.89999999944,O,None,2016,8,1,144.bmp,-120,-120,145.bmp,120,-120,146.bmp,-120,120,147.bmp,120,120,10826.899999999441,232417.0,7009,yes,SM,A,147.bmp,120,120,236123,230094,238139,232107,,,,,8
4,0,0,0,1,1,test,1,1,m,Tue Aug 06 2024 18:44:08 GMT-0500 (Central Daylight Time),290929.0,O,m,1518,1,1,148.bmp,-120,-120,149.bmp,120,-120,150.bmp,-120,120,143.bmp,120,120,9578.100000000559,281350.89999999944,7009,no,SM,A,150.bmp,120,120,236123,230094,238139,232107,285057.0,279028.0,287073.0,281042.0,1
2,0,1,0,0,2,test,1,1,m,Tue Aug 06 2024 18:44:08 GMT-0500 (Central Daylight Time),300442.5999999996,O,m,1457,2,1,101.bmp,-120,-120,102.bmp,120,-120,103.bmp,-120,120,104.bmp,120,120,9510.799999999814,290931.7999999998,7009,no,SM,A,103.bmp,120,-120,236123,230094,238139,232107,294637.0,288609.0,296654.0,290622.0,2
1,1,0,0,0,2,test,1,0,z,Tue Aug 06 2024 18:44:08 GMT-0500 (Central Daylight Time),310506.0999999996,O,None,2016,3,1,105.bmp,-120,-120,106.bmp,120,-120,107.bmp,-120,120,108.bmp,120,120,10060.599999999627,300445.5,7009,yes,SM,A,105.bmp,-120,-120,236123,230094,238139,232107,304151.0,298123.0,306167.0,300136.0,3
3,0,0,1,0,2,test,1,0,m,Tue Aug 06 2024 18:44:08 GMT-0500 (Central Daylight Time),319754.2000000002,O,z,1184,4,1,109.bmp,-120,-120,110.bmp,120,-120,111.bmp,-120,120,112.bmp,120,120,9244.5,310509.7000000002,7009,no,SM,A,109.bmp,-120,120,236123,230094,238139,232107,314215.0,308187.0,316231.0,310200.0,4
2,0,1,0,0,3,test,1,1,z,Tue Aug 06 2024 18:44:08 GMT-0500 (Central Daylight Time),328934.7000000002,O,z,1121,5,1,113.bmp,-120,-120,114.bmp,120,-120,115.bmp,-120,120,116.bmp,120,120,9177.100000000559,319757.5999999996,7009,yes,SM,A,114.bmp,120,-120,236123,230094,238139,232107,323462.0,317435.0,325478.0,319448.0,5
3,0,0,1,0,4,test,1,1,z,Tue Aug 06 2024 18:44:08 GMT-0500 (Central Daylight Time),338047.39999999944,O,z,1053,6,1,117.bmp,-120,-120,118.bmp,120,-120,119.bmp,-120,120,120.bmp,120,120,9109.299999999814,328938.0999999996,7009,yes,SM,A,119.bmp,-120,120,236123,230094,238139,232107,332642.0,326615.0,334658.0,328627.0,6
4,0,0,0,1,4,test,1,0,z,Tue Aug 06 2024 18:44:08 GMT-0500 (Central Daylight Time),347044.5999999996,O,m,939,7,1,121.bmp,-120,-120,122.bmp,120,-120,123.bmp,-120,120,124.bmp,120,120,8993.599999999627,338051.0,7009,yes,SM,A,124.bmp,120,120,236123,230094,238139,232107,341756.0,335728.0,343772.0,337741.0,7
2,0,1,0,0,5,test,1,1,m,Tue Aug 06 2024 18:44:08 GMT-0500 (Central Daylight Time),356624.7999999998,O,m,1518,8,1,125.bmp,-120,-120,126.bmp,120,-120,127.bmp,-120,120,128.bmp,120,120,9577.099999999627,347047.7000000002,7009,no,SM,A,125.bmp,120,-120,236123,230094,238139,232107,350753.0,344725.0,352769.0,346738.0,8
3,0,0,1,0,6,test,1,1,m,Tue Aug 06 2024 18:44:08 GMT-0500 (Central Daylight Time),366555.0,O,m,1881,9,1,129.bmp,-120,-120,130.bmp,120,-120,131.bmp,-120,120,132.bmp,120,120,9926.400000000373,356628.5999999996,7009,no,SM,A,130.bmp,-120,120,236123,230094,238139,232107,360334.0,354306.0,362350.0,356318.0,9
4,0,0,0,1,7,test,1,1,z,Tue Aug 06 2024 18:44:08 GMT-0500 (Central Daylight Time),376585.2000000002,O,z,1967,10,1,137.bmp,-120,-120,138.bmp,120,-120,139.bmp,-120,120,140.bmp,120,120,10027.100000000559,366558.0999999996,7009,yes,SM,A,140.bmp,120,120,236123,230094,238139,232107,370264.0,364235.0,372280.0,366249.0,10
3,0,0,1,0,8,test,1,1,z,Tue Aug 06 2024 18:44:08 GMT-0500 (Central Daylight Time),386049.0,O,z,1401,11,1,133.bmp,-120,-120,134.bmp,120,-120,135.bmp,-120,120,136.bmp,120,120,9460.5,376588.5,7009,yes,SM,A,135.bmp,-120,120,236123,230094,238139,232107,380294.0,374266.0,382310.0,376279.0,11
2,0,1,0,0,9,test,1,1,m,Tue Aug 06 2024 18:44:08 GMT-0500 (Central Daylight Time),395696.0999999996,O,m,1585,12,1,141.bmp,-120,-120,142.bmp,120,-120,143.bmp,-120,120,144.bmp,120,120,9643.899999999441,386052.2000000002,7009,no,SM,A,141.bmp,120,-120,236123,230094,238139,232107,389757.0,383729.0,391774.0,385742.0,12
3,0,0,1,0,9,test,1,0,m,Tue Aug 06 2024 18:44:08 GMT-0500 (Central Daylight Time),405759.39999999944,O,None,2015,13,1,145.bmp,-120,-120,146.bmp,120,-120,147.bmp,-120,120,148.bmp,120,120,10060.199999999255,395699.2000000002,7009,no,SM,A,146.bmp,-120,120,236123,230094,238139,232107,399405.0,393376.0,401421.0,395389.0,13
1,1,0,0,0,10,test,1,1,z,Tue Aug 06 2024 18:44:08 GMT-0500 (Central Daylight Time),415573.0999999996,O,z,1763,14,1,149.bmp,-120,-120,150.bmp,120,-120,104.bmp,-120,120,101.bmp,120,120,9809.700000000186,405763.39999999944,7009,yes,SM,A,149.bmp,-120,-120,236123,230094,238139,232107,409468.0,403441.0,411484.0,405453.0,14
4,0,0,0,1,10,test,1,0,m,Tue Aug 06 2024 18:44:08 GMT-0500 (Central Daylight Time),425286.7999999998,O,z,1661,15,1,110.bmp,-120,-120,111.bmp,120,-120,112.bmp,-120,120,113.bmp,120,120,9710.0,415576.7999999998,7009,no,SM,A,111.bmp,120,120,236123,230094,238139,232107,419282.0,413254.0,421298.0,415266.0,15
1,1,0,0,0,11,test,1,1,m,Tue Aug 06 2024 18:44:08 GMT-0500 (Central Daylight Time),434717.2000000002,O,m,1379,16,1,102.bmp,-120,-120,103.bmp,120,-120,104.bmp,-120,120,105.bmp,120,120,9427.0,425290.2000000002,7009,no,SM,A,105.bmp,-120,-120,236123,230094,238139,232107,428995.0,422967.0,431012.0,424980.0,16
3,0,0,1,0,11,test,1,0,m,Tue Aug 06 2024 18:44:08 GMT-0500 (Central Daylight Time),444780.7000000002,O,None,2016,17,1,122.bmp,-120,-120,123.bmp,120,-120,124.bmp,-120,120,125.bmp,120,120,10060.0,434720.7000000002,7009,no,SM,A,122.bmp,-120,120,236123,230094,238139,232107,438426.0,432398.0,440442.0,434411.0,17
1,1,0,0,0,12,test,1,1,z,Tue Aug 06 2024 18:44:08 GMT-0500 (Central Daylight Time),454477.39999999944,O,z,1645,18,1,106.bmp,-120,-120,107.bmp,120,-120,108.bmp,-120,120,109.bmp,120,120,9694.0,444783.39999999944,7009,yes,SM,A,106.bmp,-120,-120,236123,230094,238139,232107,448489.0,442461.0,450506.0,444474.0,18
2,0,1,0,0,13,test,1,1,z,Tue Aug 06 2024 18:44:08 GMT-0500 (Central Daylight Time),464524.2999999998,O,z,1990,19,1,126.bmp,-120,-120,127.bmp,120,-120,128.bmp,-120,120,129.bmp,120,120,10044.099999999627,454480.2000000002,7009,yes,SM,A,127.bmp,120,-120,236123,230094,238139,232107,458186.0,452157.0,460202.0,454171.0,19
3,0,0,1,0,14,test,1,1,z,Tue Aug 06 2024 18:44:08 GMT-0500 (Central Daylight Time),473804.7999999998,O,z,1222,20,1,130.bmp,-120,-120,131.bmp,120,-120,132.bmp,-120,120,133.bmp,120,120,9277.099999999627,464527.7000000002,7009,yes,SM,A,132.bmp,-120,120,236123,230094,238139,232107,468233.0,462205.0,470249.0,464218.0,20
1,1,0,0,0,14,test,1,0,m,Tue Aug 06 2024 18:44:08 GMT-0500 (Central Daylight Time),483118.7000000002,O,z,1261,21,1,114.bmp,-120,-120,115.bmp,120,-120,116.bmp,-120,120,117.bmp,120,120,9311.100000000559,473807.5999999996,7009,no,SM,A,116.bmp,-120,-120,236123,230094,238139,232107,477514.0,471485.0,479530.0,473498.0,21
4,0,0,0,1,15,test,1,1,z,Tue Aug 06 2024 18:44:08 GMT-0500 (Central Daylight Time),492849.2000000002,O,z,1667,22,1,118.bmp,-120,-120,119.bmp,120,-120,120.bmp,-120,120,121.bmp,120,120,9727.800000000745,483121.39999999944,7009,yes,SM,A,121.bmp,120,120,236123,230094,238139,232107,486827.0,480799.0,488844.0,482812.0,22
1,1,0,0,0,16,test,1,1,m,Tue Aug 06 2024 18:44:08 GMT-0500 (Central Daylight Time),502062.5,O,m,1153,23,1,134.bmp,-120,-120,135.bmp,120,-120,136.bmp,-120,120,137.bmp,120,120,9210.100000000559,492852.39999999944,7009,no,SM,A,137.bmp,-120,-120,236123,230094,238139,232107,496557.0,490530.0,498574.0,492542.0,23
2,0,1,0,0,16,test,1,0,z,Tue Aug 06 2024 18:44:08 GMT-0500 (Central Daylight Time),512126.2000000002,O,None,2016,24,1,142.bmp,-120,-120,143.bmp,120,-120,144.bmp,-120,120,145.bmp,120,120,10060.900000000373,502065.2999999998,7009,yes,SM,A,143.bmp,120,-120,236123,230094,238139,232107,505772.0,499742.0,507787.0,501756.0,24
4,0,0,0,1,17,test,1,1,m,Tue Aug 06 2024 18:44:08 GMT-0500 (Central Daylight Time),521489.89999999944,O,m,1300,25,1,146.bmp,-120,-120,147.bmp,120,-120,148.bmp,-120,120,149.bmp,120,120,9360.799999999814,512129.0999999996,7009,no,SM,A,148.bmp,120,120,236123,230094,238139,232107,515835.0,509806.0,517851.0,511820.0,25
1,1,0,0,0,18,test,1,1,z,Tue Aug 06 2024 18:44:08 GMT-0500 (Central Daylight Time),531136.8999999994,O,z,1584,26,1,138.bmp,-120,-120,139.bmp,120,-120,140.bmp,-120,120,141.bmp,120,120,9643.899999999441,521493.0,7009,yes,SM,A,138.bmp,-120,-120,236123,230094,238139,232107,525198.0,519170.0,527215.0,521183.0,26
4,0,0,0,1,19,test,1,1,z,Tue Aug 06 2024 18:44:08 GMT-0500 (Central Daylight Time),540683.7999999998,O,z,1497,27,1,150.bmp,-120,-120,111.bmp,120,-120,101.bmp,-120,120,102.bmp,120,120,9543.5,531140.2999999998,7009,yes,SM,A,102.bmp,120,120,236123,230094,238139,232107,534845.0,528818.0,536862.0,530830.0,27
3,0,0,1,0,20,test,1,1,m,Tue Aug 06 2024 18:44:08 GMT-0500 (Central Daylight Time),550280.7999999998,O,m,1542,28,1,103.bmp,-120,-120,104.bmp,120,-120,105.bmp,-120,120,106.bmp,120,120,9593.900000000373,540686.8999999994,7009,no,SM,A,103.bmp,-120,120,236123,230094,238139,232107,544392.0,538367.0,546409.0,540377.0,28
2,0,1,0,0,21,test,1,1,z,Tue Aug 06 2024 18:44:08 GMT-0500 (Central Daylight Time),560194.0,O,z,1849,29,1,107.bmp,-120,-120,108.bmp,120,-120,109.bmp,-120,120,110.bmp,120,120,9910.0,550284.0,7009,yes,SM,A,108.bmp,120,-120,236123,230094,238139,232107,553989.0,547961.0,556005.0,549974.0,29
3,0,0,1,0,22,test,1,1,z,Tue Aug 06 2024 18:44:08 GMT-0500 (Central Daylight Time),569574.2000000002,O,z,1320,30,1,111.bmp,-120,-120,112.bmp,120,-120,113.bmp,-120,120,114.bmp,120,120,9376.600000000559,560197.5999999996,7009,yes,SM,A,113.bmp,-120,120,236123,230094,238139,232107,563903.0,557875.0,565919.0,559888.0,30
1,1,0,0,0,23,test,1,1,z,Tue Aug 06 2024 18:44:08 GMT-0500 (Central Daylight Time),579238.0,O,z,1612,31,1,115.bmp,-120,-120,116.bmp,120,-120,117.bmp,-120,120,118.bmp,120,120,9659.900000000373,569578.0999999996,7009,yes,SM,A,115.bmp,-120,-120,236123,230094,238139,232107,573283.0,567255.0,575299.0,569268.0,31
2,0,1,0,0,24,test,1,1,m,Tue Aug 06 2024 18:44:08 GMT-0500 (Central Daylight Time),588501.7999999998,O,m,1204,32,1,119.bmp,-120,-120,120.bmp,120,-120,121.bmp,-120,120,122.bmp,120,120,9260.900000000373,579240.8999999994,7009,no,SM,A,119.bmp,120,-120,236123,230094,238139,232107,582947.0,576918.0,584963.0,578931.0,32
4,0,0,0,1,25,test,1,1,z,Tue Aug 06 2024 18:44:08 GMT-0500 (Central Daylight Time),598265.3999999994,O,z,1708,33,1,131.bmp,-120,-120,132.bmp,120,-120,133.bmp,-120,120,134.bmp,120,120,9760.5,588504.8999999994,7009,yes,SM,A,134.bmp,120,120,236123,230094,238139,232107,592210.0,586182.0,594227.0,588195.0,33
2,0,1,0,0,26,test,1,1,z,Tue Aug 06 2024 18:44:08 GMT-0500 (Central Daylight Time),607629.0,O,z,1205,34,1,123.bmp,-120,-120,124.bmp,120,-120,125.bmp,-120,120,126.bmp,120,120,9360.799999999814,598268.2000000002,7009,yes,SM,A,124.bmp,120,-120,236123,230094,238139,232107,602074.0,595945.0,604090.0,598073.0,34
4,0,0,0,1,27,test,1,1,m,Tue Aug 06 2024 18:44:08 GMT-0500 (Central Daylight Time),617026.7999999998,O,m,1341,35,1,127.bmp,-120,-120,128.bmp,120,-120,129.bmp,-120,120,130.bmp,120,120,9389.799999999814,607637.0,7009,no,SM,A,129.bmp,120,120,236123,230094,238139,232107,611337.0,605314.0,613354.0,607322.0,35
3,0,0,1,0,27,test,1,0,m,Tue Aug 06 2024 18:44:08 GMT-0500 (Central Daylight Time),626956.5999999996,O,z,1880,36,1,135.bmp,-120,-120,136.bmp,120,-120,137.bmp,-120,120,138.bmp,120,120,9926.899999999441,617029.7000000002,7009,no,SM,A,135.bmp,-120,120,236123,230094,238139,232107,620735.0,614707.0,622751.0,616720.0,36
1,1,0,0,0,28,test,1,1,m,Tue Aug 06 2024 18:44:08 GMT-0500 (Central Daylight Time),636353.7000000002,O,m,1334,37,1,139.bmp,-120,-120,140.bmp,120,-120,141.bmp,-120,120,142.bmp,120,120,9393.800000000745,626959.8999999994,7009,no,SM,A,140.bmp,-120,-120,236123,230094,238139,232107,630665.0,624637.0,632681.0,626650.0,37
2,0,1,0,0,28,test,1,0,m,Tue Aug 06 2024 18:44:08 GMT-0500 (Central Daylight Time),646417.3999999994,O,None,2016,38,1,143.bmp,-120,-120,144.bmp,120,-120,145.bmp,-120,120,146.bmp,120,120,10060.299999999814,636357.0999999996,7009,no,SM,A,145.bmp,120,-120,236123,230094,238139,232107,640062.0,634034.0,642078.0,636047.0,38
4,0,0,0,1,29,test,1,1,z,Tue Aug 06 2024 18:44:08 GMT-0500 (Central Daylight Time),655681.0,O,z,1209,39,1,147.bmp,-120,-120,148.bmp,120,-120,149.bmp,-120,120,150.bmp,120,120,9260.600000000559,646420.3999999994,7009,yes,SM,A,150.bmp,120,120,236123,230094,238139,232107,650126.0,644098.0,652142.0,646110.0,39
3,0,0,1,0,30,test,1,1,m,Tue Aug 06 2024 18:44:08 GMT-0500 (Central Daylight Time),665161.2999999998,O,m,1418,40,1,104.bmp,-120,-120,105.bmp,120,-120,106.bmp,-120,120,107.bmp,120,120,9477.299999999814,655684.0,7009,no,SM,A,105.bmp,-120,120,236123,230094,238139,232107,659390.0,653361.0,661405.0,655374.0,40
1,1,0,0,0,31,test,1,1,z,Tue Aug 06 2024 18:44:08 GMT-0500 (Central Daylight Time),674325.2999999998,O,z,1088,41,1,108.bmp,-120,-120,109.bmp,120,-120,110.bmp,-120,120,111.bmp,120,120,9161.099999999627,665164.2000000002,7009,yes,SM,A,108.bmp,-120,-120,236123,230094,238139,232107,668895.0,662842.0,670903.0,664855.0,41
4,0,0,0,1,32,test,1,1,z,Tue Aug 06 2024 18:44:08 GMT-0500 (Central Daylight Time),683955.2999999998,O,z,1582,42,1,112.bmp,-120,-120,113.bmp,120,-120,114.bmp,-120,120,115.bmp,120,120,9627.299999999814,674328.0,7009,yes,SM,A,115.bmp,120,120,236123,230094,238139,232107,678034.0,672005.0,680050.0,674019.0,42
1,1,0,0,0,33,test,1,1,z,Tue Aug 06 2024 18:44:08 GMT-0500 (Central Daylight Time),693202.5,O,z,1199,43,1,116.bmp,-120,-120,117.bmp,120,-120,118.bmp,-120,120,119.bmp,120,120,9244.100000000559,683958.3999999994,7009,yes,SM,A,116.bmp,-120,-120,236123,230094,238139,232107,687664.0,681636.0,689680.0,683649.0,43
4,0,0,0,1,34,test,1,1,m,Tue Aug 06 2024 18:44:08 GMT-0500 (Central Daylight Time),702416.2999999998,O,m,1160,44,1,104.bmp,-120,-120,101.bmp,120,-120,102.bmp,-120,120,103.bmp,120,120,9211.0,693205.2999999998,7009,no,SM,A,104.bmp,120,120,236123,230094,238139,232107,696911.0,690883.0,698927.0,692896.0,44
1,1,0,0,0,35,test,1,1,m,Tue Aug 06 2024 18:44:08 GMT-0500 (Central Daylight Time),711630.0999999996,O,m,1154,45,1,128.bmp,-120,-120,129.bmp,120,-120,130.bmp,-120,120,131.bmp,120,120,9210.899999999441,702419.2000000002,7009,no,SM,A,131.bmp,-120,-120,236123,230094,238139,232107,706125.0,700096.0,708141.0,702110.0,45
1,1,0,0,0,36,test,1,1,m,Tue Aug 06 2024 18:44:08 GMT-0500 (Central Daylight Time),720860.5,O,m,1181,46,1,120.bmp,-120,-120,121.bmp,120,-120,122.bmp,-120,120,123.bmp,120,120,9227.5,711633.0,7009,no,SM,A,121.bmp,-120,-120,236123,230094,238139,232107,715339.0,709310.0,717355.0,711324.0,46
3,0,0,1,0,37,test,1,1,z,Tue Aug 06 2024 18:44:08 GMT-0500 (Central Daylight Time),730207.5,O,z,1294,47,1,124.bmp,-120,-120,125.bmp,120,-120,126.bmp,-120,120,127.bmp,120,120,9344.100000000559,720863.3999999994,7009,yes,SM,A,126.bmp,-120,120,236123,230094,238139,232107,724569.0,718541.0,726586.0,720554.0,47
3,0,0,1,0,38,test,1,1,z,Tue Aug 06 2024 18:44:08 GMT-0500 (Central Daylight Time),739122.7999999998,O,z,860,48,1,140.bmp,-120,-120,141.bmp,120,-120,142.bmp,-120,120,143.bmp,120,120,8912.400000000373,730210.3999999994,7009,yes,SM,A,142.bmp,-120,120,236123,230094,238139,232107,733916.0,727888.0,735932.0,729902.0,48
2,0,1,0,0,39,test,1,1,z,Tue Aug 06 2024 18:44:08 GMT-0500 (Central Daylight Time),748885.0999999996,O,z,1713,49,1,136.bmp,-120,-120,137.bmp,120,-120,138.bmp,-120,120,139.bmp,120,120,9758.700000000186,739126.3999999994,7009,yes,SM,A,137.bmp,120,-120,236123,230094,238139,232107,742830.0,736804.0,744846.0,738815.0,49
3,0,0,1,0,39,test,1,0,m,Tue Aug 06 2024 18:44:08 GMT-0500 (Central Daylight Time),758265.3999999994,O,z,1317,50,1,132.bmp,-120,-120,133.bmp,120,-120,134.bmp,-120,120,135.bmp,120,120,9377.299999999814,748888.0999999996,7009,no,SM,A,132.bmp,-120,120,236123,230094,238139,232107,752594.0,746565.0,754610.0,748578.0,50
2,0,1,0,0,40,test,1,1,z,Tue Aug 06 2024 18:44:08 GMT-0500 (Central Daylight Time),767429.3999999994,O,z,1105,51,1,144.bmp,-120,-120,145.bmp,120,-120,146.bmp,-120,120,147.bmp,120,120,9161.099999999627,758268.2999999998,7009,yes,SM,A,145.bmp,120,-120,236123,230094,238139,232107,761974.0,755946.0,763990.0,757959.0,51
4,0,0,0,1,41,test,1,1,m,Tue Aug 06 2024 18:44:08 GMT-0500 (Central Daylight Time),776709.8999999994,O,m,1221,52,1,148.bmp,-120,-120,149.bmp,120,-120,150.bmp,-120,120,131.bmp,120,120,9277.799999999814,767432.0999999996,7009,no,SM,A,148.bmp,120,120,236123,230094,238139,232107,771138.0,765109.0,773154.0,767123.0,52
3,0,0,1,0,42,test,1,1,z,Tue Aug 06 2024 18:44:08 GMT-0500 (Central Daylight Time),786506.5999999996,O,z,1748,53,1,101.bmp,-120,-120,102.bmp,120,-120,103.bmp,-120,120,104.bmp,120,120,9793.299999999814,776713.2999999998,7009,yes,SM,A,103.bmp,-120,120,236123,230094,238139,232107,780419.0,774391.0,782434.0,776403.0,53
1,1,0,0,0,42,test,1,0,m,Tue Aug 06 2024 18:44:08 GMT-0500 (Central Daylight Time),796254.5,O,z,1688,54,1,105.bmp,-120,-120,106.bmp,120,-120,107.bmp,-120,120,108.bmp,120,120,9744.600000000559,786509.8999999994,7009,no,SM,A,107.bmp,-120,-120,236123,230094,238139,232107,790216.0,784187.0,792231.0,786200.0,54
4,0,0,0,1,43,test,1,1,z,Tue Aug 06 2024 18:44:08 GMT-0500 (Central Daylight Time),805667.0999999996,O,z,1365,55,1,109.bmp,-120,-120,110.bmp,120,-120,111.bmp,-120,120,112.bmp,120,120,9409.700000000186,796257.3999999994,7009,yes,SM,A,112.bmp,120,120,236123,230094,238139,232107,799962.0,793935.0,801978.0,795947.0,55
2,0,1,0,0,44,test,1,1,m,Tue Aug 06 2024 18:44:08 GMT-0500 (Central Daylight Time),814814.3999999994,O,m,1096,56,1,113.bmp,-120,-120,114.bmp,120,-120,115.bmp,-120,120,116.bmp,120,120,9144.199999999255,805670.2000000002,7009,no,SM,A,113.bmp,120,-120,236123,230094,238139,232107,809376.0,803347.0,811392.0,805361.0,56
4,0,0,0,1,44,test,1,0,m,Tue Aug 06 2024 18:44:08 GMT-0500 (Central Daylight Time),824078.0999999996,O,z,1212,57,1,117.bmp,-120,-120,118.bmp,120,-120,119.bmp,-120,120,120.bmp,120,120,9260.899999999441,814817.2000000002,7009,no,SM,A,118.bmp,120,120,236123,230094,238139,232107,818523.0,812494.0,820539.0,814508.0,57
3,0,0,1,0,45,test,1,1,z,Tue Aug 06 2024 18:44:08 GMT-0500 (Central Daylight Time),833308.7000000002,O,z,1181,58,1,121.bmp,-120,-120,122.bmp,120,-120,123.bmp,-120,120,124.bmp,120,120,9227.600000000559,824081.0999999996,7009,yes,SM,A,123.bmp,-120,120,236123,230094,238139,232107,827787.0,821758.0,829803.0,823771.0,58
2,0,1,0,0,45,test,1,0,m,Tue Aug 06 2024 18:44:08 GMT-0500 (Central Daylight Time),842305.7999999998,O,z,942,59,1,125.bmp,-120,-120,126.bmp,120,-120,127.bmp,-120,120,128.bmp,120,120,8994.0,833311.7999999998,7009,no,SM,A,128.bmp,120,-120,236123,230094,238139,232107,837017.0,830989.0,839033.0,833002.0,59
1,1,0,0,0,46,test,1,1,z,Tue Aug 06 2024 18:44:08 GMT-0500 (Central Daylight Time),852186.0,O,z,1816,60,1,129.bmp,-120,-120,130.bmp,120,-120,131.bmp,-120,120,132.bmp,120,120,9877.700000000186,842308.2999999998,7009,yes,SM,A,129.bmp,-120,-120,236123,230094,238139,232107,846015.0,839985.0,848031.0,841999.0,60
2,0,1,0,0,47,test,1,1,z,Tue Aug 06 2024 18:44:08 GMT-0500 (Central Daylight Time),861183.2000000002,O,z,944,61,1,133.bmp,-120,-120,134.bmp,120,-120,135.bmp,-120,120,136.bmp,120,120,8994.400000000373,852188.7999999998,7009,yes,SM,A,134.bmp,120,-120,236123,230094,238139,232107,855895.0,849866.0,857911.0,851879.0,61
4,0,0,0,1,48,test,1,1,z,Tue Aug 06 2024 18:44:08 GMT-0500 (Central Daylight Time),870346.8999999994,O,z,1115,62,1,141.bmp,-120,-120,142.bmp,120,-120,143.bmp,-120,120,144.bmp,120,120,9160.399999999441,861186.5,7009,yes,SM,A,144.bmp,120,120,236123,230094,238139,232107,864892.0,858864.0,866908.0,860876.0,62
1,1,0,0,0,48,test,1,0,m,Tue Aug 06 2024 18:44:08 GMT-0500 (Central Daylight Time),879727.5,O,z,1327,63,1,145.bmp,-120,-120,146.bmp,120,-120,147.bmp,-120,120,148.bmp,120,120,9377.5,870350.0,7009,no,SM,A,145.bmp,-120,120,236123,230094,238139,232107,874056.0,868027.0,876072.0,870040.0,63
2,0,1,0,0,49,test,1,1,z,Tue Aug 06 2024 18:44:08 GMT-0500 (Central Daylight Time),888674.5,O,z,891,64,1,149.bmp,-120,-120,150.bmp,120,-120,112.bmp,-120,120,101.bmp,120,120,8944.200000000186,879730.2999999998,7009,yes,SM,A,150.bmp,120,-120,236123,230094,238139,232107,883436.0,877408.0,885452.0,879421.0,64
4,0,0,0,1,50,test,1,1,m,Tue Aug 06 2024 18:44:08 GMT-0500 (Central Daylight Time),897971.5999999996,O,m,1240,65,1,102.bmp,-120,-120,103.bmp,120,-120,104.bmp,-120,120,105.bmp,120,120,9294.5,888677.0999999996,7009,no,SM,A,104.bmp,120,120,236123,230094,238139,232107,892383.0,886354.0,894399.0,888368.0,65
3,0,0,1,0,51,test,1,1,m,Tue Aug 06 2024 18:44:08 GMT-0500 (Central Daylight Time),907535.3999999994,O,m,1512,66,1,106.bmp,-120,-120,107.bmp,120,-120,108.bmp,-120,120,109.bmp,120,120,9561.0,897974.3999999994,7009,no,SM,A,109.bmp,-120,120,236123,230094,238139,232107,901680.0,895652.0,903696.0,897665.0,66
2,0,1,0,0,52,test,1,1,m,Tue Aug 06 2024 18:44:08 GMT-0500 (Central Daylight Time),916615.7000000002,O,m,1019,67,1,137.bmp,-120,-120,138.bmp,120,-120,139.bmp,-120,120,140.bmp,120,120,9077.200000000186,907538.5,7009,no,SM,A,139.bmp,120,-120,236123,230094,238139,232107,911244.0,905216.0,913260.0,907230.0,67
3,0,0,1,0,53,test,1,1,z,Tue Aug 06 2024 18:44:08 GMT-0500 (Central Daylight Time),925762.8999999994,O,z,1100,68,1,110.bmp,-120,-120,111.bmp,120,-120,112.bmp,-120,120,113.bmp,120,120,9144.299999999814,916618.5999999996,7009,yes,SM,A,112.bmp,-120,120,236123,230094,238139,232107,920325.0,914296.0,922340.0,916309.0,68
1,1,0,0,0,54,test,1,1,m,Tue Aug 06 2024 18:44:08 GMT-0500 (Central Daylight Time),934876.8999999994,O,m,1064,69,1,114.bmp,-120,-120,115.bmp,120,-120,116.bmp,-120,120,117.bmp,120,120,9111.5,925765.3999999994,7009,no,SM,A,115.bmp,-120,-120,236123,230094,238139,232107,929472.0,923443.0,931488.0,925456.0,69
2,0,1,0,0,55,test,1,1,m,Tue Aug 06 2024 18:44:08 GMT-0500 (Central Daylight Time),944306.7000000002,O,m,1383,70,1,118.bmp,-120,-120,119.bmp,120,-120,120.bmp,-120,120,121.bmp,120,120,9427.100000000559,934879.5999999996,7009,no,SM,A,120.bmp,120,-120,236123,230094,238139,232107,938585.0,932557.0,940601.0,934570.0,70
4,0,0,0,1,56,test,1,1,z,Tue Aug 06 2024 18:44:08 GMT-0500 (Central Daylight Time),953820.3999999994,O,z,1455,71,1,122.bmp,-120,-120,123.bmp,120,-120,124.bmp,-120,120,125.bmp,120,120,9510.799999999814,944309.5999999996,7009,yes,SM,A,125.bmp,120,120,236123,230094,238139,232107,948016.0,941987.0,950032.0,944000.0,71
1,1,0,0,0,57,test,1,1,z,Tue Aug 06 2024 18:44:08 GMT-0500 (Central Daylight Time),963567.5,O,z,1693,72,1,126.bmp,-120,-120,127.bmp,120,-120,128.bmp,-120,120,129.bmp,120,120,9743.600000000559,953823.8999999994,7009,yes,SM,A,126.bmp,-120,-120,236123,230094,238139,232107,957529.0,951501.0,959546.0,953514.0,72
2,0,1,0,0,58,test,1,1,z,Tue Aug 06 2024 18:44:08 GMT-0500 (Central Daylight Time),973148.0999999996,O,z,1522,73,1,130.bmp,-120,-120,131.bmp,120,-120,132.bmp,-120,120,133.bmp,120,120,9578.099999999627,963570.0,7009,yes,SM,A,131.bmp,120,-120,236123,230094,238139,232107,967276.0,961247.0,969293.0,963261.0,73
4,0,0,0,1,59,test,1,1,m,Tue Aug 06 2024 18:44:08 GMT-0500 (Central Daylight Time),982778.5,O,m,1582,74,1,134.bmp,-120,-120,135.bmp,120,-120,136.bmp,-120,120,137.bmp,120,120,9627.600000000559,973150.8999999994,7009,no,SM,A,136.bmp,120,120,236123,230094,238139,232107,976857.0,970828.0,978873.0,972841.0,74
2,0,1,0,0,59,test,1,0,m,Tue Aug 06 2024 18:44:08 GMT-0500 (Central Daylight Time),992841.8999999994,O,None,2016,75,1,138.bmp,-120,-120,139.bmp,120,-120,140.bmp,-120,120,141.bmp,120,120,10060.299999999814,982781.5999999996,7009,no,SM,A,141.bmp,120,-120,236123,230094,238139,232107,986487.0,980459.0,988503.0,982472.0,75
1,1,0,0,0,60,test,1,1,z,Tue Aug 06 2024 18:44:08 GMT-0500 (Central Daylight Time),1002055.5,O,z,1153,76,1,142.bmp,-120,-120,143.bmp,120,-120,144.bmp,-120,120,145.bmp,120,120,9211.0,992844.5,7009,yes,SM,A,142.bmp,-120,-120,236123,230094,238139,232107,996551.0,990522.0,998566.0,992536.0,76
3,0,0,1,0,61,test,1,1,z,Tue Aug 06 2024 18:44:08 GMT-0500 (Central Daylight Time),1011435.7000000002,O,z,1331,77,1,150.bmp,-120,-120,111.bmp,120,-120,101.bmp,-120,120,102.bmp,120,120,9377.300000000745,1002058.3999999994,7009,yes,SM,A,101.bmp,-120,120,236123,230094,238139,232107,1005764.0,999736.0,1007781.0,1001749.0,77
1,1,0,0,0,62,test,1,1,m,Tue Aug 06 2024 18:44:08 GMT-0500 (Central Daylight Time),1020999.5999999996,O,m,1502,78,1,146.bmp,-120,-120,147.bmp,120,-120,148.bmp,-120,120,149.bmp,120,120,9560.799999999814,1011438.7999999998,7009,no,SM,A,147.bmp,-120,-120,236123,230094,238139,232107,1015145.0,1009116.0,1017161.0,1011129.0,78
4,0,0,0,1,63,test,1,1,m,Tue Aug 06 2024 18:44:08 GMT-0500 (Central Daylight Time),1030413.2000000002,O,m,1355,79,1,107.bmp,-120,-120,108.bmp,120,-120,109.bmp,-120,120,110.bmp,120,120,9409.900000000373,1021003.2999999998,7009,no,SM,A,107.bmp,120,120,236123,230094,238139,232107,1024708.0,1018681.0,1026724.0,1020693.0,79
3,0,0,1,0,64,test,1,1,m,Tue Aug 06 2024 18:44:08 GMT-0500 (Central Daylight Time),1039827.0999999996,O,m,1357,80,1,103.bmp,-120,-120,104.bmp,120,-120,105.bmp,-120,120,106.bmp,120,120,9410.399999999441,1030416.7000000002,7009,no,SM,A,106.bmp,-120,120,236123,230094,238139,232107,1034122.0,1028094.0,1036138.0,1030107.0,80
