block_c,block_dur,condition,countdown,datetime,endtime,list,multichar_response,project,response,response_time,session_number,start_end,starttime,subject_id,task,task_vers,trial
,,,,Wed Jan 14 2026 13:28:51 GMT-0600 (Central Standard Time),,,,I,space,547,3,,,8056,WL,B,
prac,,0,,Wed Jan 14 2026 13:28:51 GMT-0600 (Central Standard Time),,NA,b,I,b,2549,3,,,8056,WL,B,1.0
prac,,0,,Wed Jan 14 2026 13:28:51 GMT-0600 (Central Standard Time),,NA,bo,I,o,922,3,,,8056,WL,B,1.0
prac,,0,,Wed Jan 14 2026 13:28:51 GMT-0600 (Central Standard Time),,NA,boo,I,o,151,3,,,8056,WL,B,1.0
prac,,0,,Wed Jan 14 2026 13:28:51 GMT-0600 (Central Standard Time),,NA,boos,I,s,135,3,,,8056,WL,B,1.0
prac,,0,,Wed Jan 14 2026 13:28:51 GMT-0600 (Central Standard Time),,NA,boost,I,t,186,3,,,8056,WL,B,1.0
prac,,0,,Wed Jan 14 2026 13:28:51 GMT-0600 (Central Standard Time),,NA,boostenter,I,enter,3619,3,,,8056,WL,B,1.0
1,0.7330000400543213,learn,59266.99995994568,Wed Jan 14 2026 13:28:51 GMT-0600 (Central Standard Time),264386.90000000596,A,s,I,s,725,3,732.4000000059605,263654.5,8056,WL,B,1.0
1,0.9660000801086426,learn,59033.99991989136,Wed Jan 14 2026 13:28:51 GMT-0600 (Central Standard Time),264620.09999999404,A,st,I,t,223,3,965.5999999940395,263654.5,8056,WL,B,1.0
1,1.2330000400543213,learn,58766.99995994568,Wed Jan 14 2026 13:28:51 GMT-0600 (Central Standard Time),264886.8000000119,A,str,I,r,254,3,1232.300000011921,263654.5,8056,WL,B,1.0
1,1.6159999370574951,learn,58384.000062942505,Wed Jan 14 2026 13:28:51 GMT-0600 (Central Standard Time),265270.1999999881,A,stre,I,e,365,3,1615.699999988079,263654.5,8056,WL,B,1.0
1,1.7999999523162842,learn,58200.000047683716,Wed Jan 14 2026 13:28:51 GMT-0600 (Central Standard Time),265453.6999999881,A,stree,I,e,165,3,1799.199999988079,263654.5,8056,WL,B,1.0
1,2.4159998893737793,learn,57584.00011062622,Wed Jan 14 2026 13:28:51 GMT-0600 (Central Standard Time),266070.0,A,street,I,t,598,3,2415.5,263654.5,8056,WL,B,1.0
1,5.7149999141693115,learn,54285.00008583069,Wed Jan 14 2026 13:28:51 GMT-0600 (Central Standard Time),269369.09999999404,A,streetenter,I,enter,3278,3,5714.5999999940395,263654.5,8056,WL,B,1.0
1,6.63100004196167,learn,53368.99995803833,Wed Jan 14 2026 13:28:51 GMT-0600 (Central Standard Time),270285.5,A,a,I,a,906,3,915.9000000059605,269369.59999999404,8056,WL,B,2.0
1,6.931999921798706,learn,53068.000078201294,Wed Jan 14 2026 13:28:51 GMT-0600 (Central Standard Time),270586.3000000119,A,ar,I,r,286,3,1216.7000000178814,269369.59999999404,8056,WL,B,2.0
1,7.563999891281128,learn,52436.00010871887,Wed Jan 14 2026 13:28:51 GMT-0600 (Central Standard Time),271218.3000000119,A,arm,I,m,625,3,1848.7000000178814,269369.59999999404,8056,WL,B,2.0
1,8.347000122070312,learn,51652.99987792969,Wed Jan 14 2026 13:28:51 GMT-0600 (Central Standard Time),272001.5,A,armenter,I,enter,769,3,2631.9000000059605,269369.59999999404,8056,WL,B,2.0
1,8.69700002670288,learn,51302.99997329712,Wed Jan 14 2026 13:28:51 GMT-0600 (Central Standard Time),272351.40000000596,A,w,I,w,338,3,349.40000000596046,272002.0,8056,WL,B,3.0
1,8.763999938964844,learn,51236.000061035156,Wed Jan 14 2026 13:28:51 GMT-0600 (Central Standard Time),272417.8000000119,A,wi,I,i,60,3,415.80000001192093,272002.0,8056,WL,B,3.0
1,8.96399998664856,learn,51036.00001335144,Wed Jan 14 2026 13:28:51 GMT-0600 (Central Standard Time),272617.6999999881,A,wif,I,f,194,3,615.6999999880791,272002.0,8056,WL,B,3.0
1,9.246999979019165,learn,50753.000020980835,Wed Jan 14 2026 13:28:51 GMT-0600 (Central Standard Time),272901.3000000119,A,wife,I,e,267,3,899.3000000119209,272002.0,8056,WL,B,3.0
1,9.561000108718872,learn,50438.99989128113,Wed Jan 14 2026 13:28:51 GMT-0600 (Central Standard Time),273214.6999999881,A,wifeenter,I,enter,308,3,1212.699999988079,272002.0,8056,WL,B,3.0
1,10.263000011444092,learn,49736.99998855591,Wed Jan 14 2026 13:28:51 GMT-0600 (Central Standard Time),273917.5,A,d,I,d,683,3,702.5,273215.0,8056,WL,B,4.0
1,10.397000074386597,learn,49602.9999256134,Wed Jan 14 2026 13:28:51 GMT-0600 (Central Standard Time),274050.90000000596,A,do,I,o,126,3,835.9000000059605,273215.0,8056,WL,B,4.0
1,10.713000059127808,learn,49286.99994087219,Wed Jan 14 2026 13:28:51 GMT-0600 (Central Standard Time),274367.1999999881,A,doo,I,o,304,3,1152.199999988079,273215.0,8056,WL,B,4.0
1,10.913000106811523,learn,49086.99989318848,Wed Jan 14 2026 13:28:51 GMT-0600 (Central Standard Time),274567.1999999881,A,door,I,r,180,3,1352.199999988079,273215.0,8056,WL,B,4.0
1,11.329999923706055,learn,48670.000076293945,Wed Jan 14 2026 13:28:51 GMT-0600 (Central Standard Time),274983.8000000119,A,doorenter,I,enter,395,3,1768.800000011921,273215.0,8056,WL,B,4.0
1,11.713000059127808,learn,48286.99994087219,Wed Jan 14 2026 13:28:51 GMT-0600 (Central Standard Time),275367.0,A,w,I,w,372,3,382.80000001192093,274984.1999999881,8056,WL,B,5.0
1,11.845999956130981,learn,48154.00004386902,Wed Jan 14 2026 13:28:51 GMT-0600 (Central Standard Time),275500.5,A,wi,I,i,124,3,516.3000000119209,274984.1999999881,8056,WL,B,5.0
1,12.013000011444092,learn,47986.99998855591,Wed Jan 14 2026 13:28:51 GMT-0600 (Central Standard Time),275667.1999999881,A,win,I,n,151,3,683.0,274984.1999999881,8056,WL,B,5.0
1,12.213000059127808,learn,47786.99994087219,Wed Jan 14 2026 13:28:51 GMT-0600 (Central Standard Time),275867.0,A,wind,I,d,185,3,882.8000000119209,274984.1999999881,8056,WL,B,5.0
1,12.36299991607666,learn,47637.00008392334,Wed Jan 14 2026 13:28:51 GMT-0600 (Central Standard Time),276016.90000000596,A,windo,I,o,129,3,1032.7000000178814,274984.1999999881,8056,WL,B,5.0
1,15.078999996185303,learn,44921.0000038147,Wed Jan 14 2026 13:28:51 GMT-0600 (Central Standard Time),278732.59999999404,A,window,I,w,2698,3,3748.4000000059605,274984.1999999881,8056,WL,B,5.0
1,15.51200008392334,learn,44487.99991607666,Wed Jan 14 2026 13:28:51 GMT-0600 (Central Standard Time),279165.90000000596,A,windowenter,I,enter,416,3,4181.700000017881,274984.1999999881,8056,WL,B,5.0
1,17.144999980926514,learn,42855.000019073486,Wed Jan 14 2026 13:28:51 GMT-0600 (Central Standard Time),280798.5,A,g,I,g,1613,3,1632.199999988079,279166.3000000119,8056,WL,B,6.0
1,17.34500002861023,learn,42654.99997138977,Wed Jan 14 2026 13:28:51 GMT-0600 (Central Standard Time),280998.8000000119,A,gr,I,r,181,3,1832.5,279166.3000000119,8056,WL,B,6.0
1,17.545000076293945,learn,42454.999923706055,Wed Jan 14 2026 13:28:51 GMT-0600 (Central Standard Time),281198.59999999404,A,gra,I,a,181,3,2032.2999999821186,279166.3000000119,8056,WL,B,6.0
1,17.76099991798401,learn,42239.00008201599,Wed Jan 14 2026 13:28:51 GMT-0600 (Central Standard Time),281415.1999999881,A,gras,I,s,204,3,2248.899999976158,279166.3000000119,8056,WL,B,6.0
1,17.944000005722046,learn,42055.999994277954,Wed Jan 14 2026 13:28:51 GMT-0600 (Central Standard Time),281598.40000000596,A,grass,I,s,164,3,2432.0999999940395,279166.3000000119,8056,WL,B,6.0
1,18.278000116348267,learn,41721.99988365173,Wed Jan 14 2026 13:28:51 GMT-0600 (Central Standard Time),281931.90000000596,A,grassenter,I,enter,318,3,2765.5999999940395,279166.3000000119,8056,WL,B,6.0
1,18.811000108718872,learn,41188.99989128113,Wed Jan 14 2026 13:28:51 GMT-0600 (Central Standard Time),282465.0,A,p,I,p,511,3,532.6999999880791,281932.3000000119,8056,WL,B,7.0
1,19.210999965667725,learn,40789.000034332275,Wed Jan 14 2026 13:28:51 GMT-0600 (Central Standard Time),282864.6999999881,A,pi,I,i,378,3,932.3999999761581,281932.3000000119,8056,WL,B,7.0
1,19.51099991798401,learn,40489.00008201599,Wed Jan 14 2026 13:28:51 GMT-0600 (Central Standard Time),283164.5,A,pic,I,c,282,3,1232.199999988079,281932.3000000119,8056,WL,B,7.0
1,19.66100001335144,learn,40338.99998664856,Wed Jan 14 2026 13:28:51 GMT-0600 (Central Standard Time),283314.6999999881,A,picp,I,p,143,3,1382.3999999761581,281932.3000000119,8056,WL,B,7.0
1,20.07699990272522,learn,39923.00009727478,Wed Jan 14 2026 13:28:51 GMT-0600 (Central Standard Time),283730.6999999881,A,pic,I,backspace,409,3,1798.3999999761581,281932.3000000119,8056,WL,B,7.0
1,20.243000030517578,learn,39756.99996948242,Wed Jan 14 2026 13:28:51 GMT-0600 (Central Standard Time),283897.3000000119,A,pi,I,backspace,153,3,1965.0,281932.3000000119,8056,WL,B,7.0
1,20.526999950408936,learn,39473.000049591064,Wed Jan 14 2026 13:28:51 GMT-0600 (Central Standard Time),284180.8000000119,A,pip,I,p,275,3,2248.5,281932.3000000119,8056,WL,B,7.0
1,20.710000038146973,learn,39289.99996185303,Wed Jan 14 2026 13:28:51 GMT-0600 (Central Standard Time),284364.40000000596,A,pipe,I,e,167,3,2432.0999999940395,281932.3000000119,8056,WL,B,7.0
1,21.14299988746643,learn,38857.00011253357,Wed Jan 14 2026 13:28:51 GMT-0600 (Central Standard Time),284797.40000000596,A,pipeenter,I,enter,424,3,2865.0999999940395,281932.3000000119,8056,WL,B,7.0
1,24.441999912261963,learn,35558.00008773804,Wed Jan 14 2026 13:28:51 GMT-0600 (Central Standard Time),288096.5,A,l,I,l,3285,3,3298.699999988079,284797.8000000119,8056,WL,B,8.0
1,24.55900001525879,learn,35440.99998474121,Wed Jan 14 2026 13:28:51 GMT-0600 (Central Standard Time),288213.09999999404,A,la,I,a,99,3,3415.2999999821186,284797.8000000119,8056,WL,B,8.0
1,24.691999912261963,learn,35308.00008773804,Wed Jan 14 2026 13:28:51 GMT-0600 (Central Standard Time),288346.0,A,lak,I,k,126,3,3548.199999988079,284797.8000000119,8056,WL,B,8.0
1,24.842000007629395,learn,35157.999992370605,Wed Jan 14 2026 13:28:51 GMT-0600 (Central Standard Time),288496.3000000119,A,lake,I,e,138,3,3698.5,284797.8000000119,8056,WL,B,8.0
1,25.907999992370605,learn,34092.000007629395,Wed Jan 14 2026 13:28:51 GMT-0600 (Central Standard Time),289562.40000000596,A,lakeenter,I,enter,1059,3,4764.5999999940395,284797.8000000119,8056,WL,B,8.0
1,26.52500009536743,learn,33474.99990463257,Wed Jan 14 2026 13:28:51 GMT-0600 (Central Standard Time),290179.09999999404,A,c,I,c,602,3,616.2999999821186,289562.8000000119,8056,WL,B,9.0
1,26.941999912261963,learn,33058.00008773804,Wed Jan 14 2026 13:28:51 GMT-0600 (Central Standard Time),290595.6999999881,A,ca,I,a,401,3,1032.8999999761581,289562.8000000119,8056,WL,B,9.0
1,27.27500009536743,learn,32724.99990463257,Wed Jan 14 2026 13:28:51 GMT-0600 (Central Standard Time),290929.09999999404,A,cab,I,b,321,3,1366.2999999821186,289562.8000000119,8056,WL,B,9.0
1,27.94099998474121,learn,32059.00001525879,Wed Jan 14 2026 13:28:51 GMT-0600 (Central Standard Time),291595.1999999881,A,cabi,I,i,659,3,2032.3999999761581,289562.8000000119,8056,WL,B,9.0
1,28.10800004005432,learn,31891.99995994568,Wed Jan 14 2026 13:28:51 GMT-0600 (Central Standard Time),291761.8000000119,A,cabin,I,n,153,3,2199.0,289562.8000000119,8056,WL,B,9.0
1,28.574000120162964,learn,31425.999879837036,Wed Jan 14 2026 13:28:51 GMT-0600 (Central Standard Time),292228.40000000596,A,cabinenter,I,enter,451,3,2665.5999999940395,289562.8000000119,8056,WL,B,9.0
1,32.723000049591064,learn,27276.999950408936,Wed Jan 14 2026 13:28:51 GMT-0600 (Central Standard Time),296377.40000000596,A,c,I,c,4129,3,4148.5999999940395,292228.8000000119,8056,WL,B,10.0
1,32.83999991416931,learn,27160.00008583069,Wed Jan 14 2026 13:28:51 GMT-0600 (Central Standard Time),296493.90000000596,A,ci,I,i,107,3,4265.0999999940395,292228.8000000119,8056,WL,B,10.0
1,33.15300011634827,learn,26846.999883651733,Wed Jan 14 2026 13:28:51 GMT-0600 (Central Standard Time),296806.8000000119,A,cit,I,t,308,3,4578.0,292228.8000000119,8056,WL,B,10.0
1,33.299999952316284,learn,26700.000047683716,Wed Jan 14 2026 13:28:51 GMT-0600 (Central Standard Time),296954.3000000119,A,city,I,y,142,3,4725.5,292228.8000000119,8056,WL,B,10.0
1,33.58899998664856,learn,26411.00001335144,Wed Jan 14 2026 13:28:51 GMT-0600 (Central Standard Time),297243.3000000119,A,cityenter,I,enter,282,3,5014.5,292228.8000000119,8056,WL,B,10.0
1,54.34999990463257,learn,5650.000095367432,Wed Jan 14 2026 13:28:51 GMT-0600 (Central Standard Time),318004.0,A,enter,I,enter,20746,3,20760.5,297243.5,8056,WL,B,11.0
1,54.93300008773804,learn,5066.999912261963,Wed Jan 14 2026 13:28:51 GMT-0600 (Central Standard Time),318587.0,A,enter,I,enter,568,3,582.5999999940395,318004.40000000596,8056,WL,B,12.0
1,55.46600008010864,learn,4533.999919891357,Wed Jan 14 2026 13:28:51 GMT-0600 (Central Standard Time),319120.1999999881,A,enter,I,enter,512,3,532.7999999821186,318587.40000000596,8056,WL,B,13.0
1,55.865999937057495,learn,4134.000062942505,Wed Jan 14 2026 13:28:51 GMT-0600 (Central Standard Time),319520.09999999404,A,enter,I,enter,379,3,399.40000000596046,319120.6999999881,8056,WL,B,14.0
1,56.348999977111816,learn,3651.0000228881836,Wed Jan 14 2026 13:28:51 GMT-0600 (Central Standard Time),320003.0,A,enter,I,enter,476,3,482.59999999403954,319520.40000000596,8056,WL,B,15.0
2,0.8320000171661377,learn,59167.99998283386,Wed Jan 14 2026 13:28:51 GMT-0600 (Central Standard Time),392013.90000000596,A,f,I,f,823,3,832.2000000178814,391181.6999999881,8056,WL,B,1.0
2,0.999000072479248,learn,59000.99992752075,Wed Jan 14 2026 13:28:51 GMT-0600 (Central Standard Time),392180.5,A,fi,I,i,157,3,998.8000000119209,391181.6999999881,8056,WL,B,1.0
2,1.315999984741211,learn,58684.00001525879,Wed Jan 14 2026 13:28:51 GMT-0600 (Central Standard Time),392497.1999999881,A,fir,I,r,296,3,1315.5,391181.6999999881,8056,WL,B,1.0
2,1.6159999370574951,learn,58384.000062942505,Wed Jan 14 2026 13:28:51 GMT-0600 (Central Standard Time),392797.0,A,fire,I,e,291,3,1615.300000011921,391181.6999999881,8056,WL,B,1.0
2,2.4650001525878906,learn,57534.99984741211,Wed Jan 14 2026 13:28:51 GMT-0600 (Central Standard Time),393647.0,A,fireenter,I,enter,831,3,2465.300000011921,391181.6999999881,8056,WL,B,1.0
2,2.865000009536743,learn,57134.99999046326,Wed Jan 14 2026 13:28:51 GMT-0600 (Central Standard Time),394046.6999999881,A,c,I,c,389,3,399.2999999821186,393647.40000000596,8056,WL,B,2.0
2,2.998000144958496,learn,57001.999855041504,Wed Jan 14 2026 13:28:51 GMT-0600 (Central Standard Time),394179.90000000596,A,cl,I,l,117,3,532.5,393647.40000000596,8056,WL,B,2.0
2,3.1649999618530273,learn,56835.00003814697,Wed Jan 14 2026 13:28:51 GMT-0600 (Central Standard Time),394346.6999999881,A,clo,I,o,161,3,699.2999999821186,393647.40000000596,8056,WL,B,2.0
2,3.315000057220459,learn,56684.99994277954,Wed Jan 14 2026 13:28:51 GMT-0600 (Central Standard Time),394496.3000000119,A,cloc,I,c,138,3,848.9000000059605,393647.40000000596,8056,WL,B,2.0
2,3.3980000019073486,learn,56601.99999809265,Wed Jan 14 2026 13:28:51 GMT-0600 (Central Standard Time),394580.0,A,clock,I,k,76,3,932.5999999940395,393647.40000000596,8056,WL,B,2.0
2,3.697999954223633,learn,56302.00004577637,Wed Jan 14 2026 13:28:51 GMT-0600 (Central Standard Time),394879.59999999404,A,clockenter,I,enter,280,3,1232.199999988079,393647.40000000596,8056,WL,B,2.0
2,4.63100004196167,learn,55368.99995803833,Wed Jan 14 2026 13:28:51 GMT-0600 (Central Standard Time),395812.59999999404,A,s,I,s,924,3,932.5999999940395,394880.0,8056,WL,B,3.0
2,4.831000089645386,learn,55168.999910354614,Wed Jan 14 2026 13:28:51 GMT-0600 (Central Standard Time),396012.5,A,st,I,t,183,3,1132.5,394880.0,8056,WL,B,3.0
2,5.031000137329102,learn,54968.9998626709,Wed Jan 14 2026 13:28:51 GMT-0600 (Central Standard Time),396212.6999999881,A,sta,I,a,192,3,1332.699999988079,394880.0,8056,WL,B,3.0
2,5.13100004196167,learn,54868.99995803833,Wed Jan 14 2026 13:28:51 GMT-0600 (Central Standard Time),396312.8000000119,A,star,I,r,95,3,1432.800000011921,394880.0,8056,WL,B,3.0
2,5.96399998664856,learn,54036.00001335144,Wed Jan 14 2026 13:28:51 GMT-0600 (Central Standard Time),397145.3000000119,A,starenter,I,enter,826,3,2265.300000011921,394880.0,8056,WL,B,3.0
2,6.96399998664856,learn,53036.00001335144,Wed Jan 14 2026 13:28:51 GMT-0600 (Central Standard Time),398145.40000000596,A,d,I,d,986,3,999.8000000119209,397145.59999999404,8056,WL,B,4.0
2,7.147000074386597,learn,52852.9999256134,Wed Jan 14 2026 13:28:51 GMT-0600 (Central Standard Time),398328.5,A,do,I,o,171,3,1182.9000000059605,397145.59999999404,8056,WL,B,4.0
2,7.314000129699707,learn,52685.99987030029,Wed Jan 14 2026 13:28:51 GMT-0600 (Central Standard Time),398495.3000000119,A,doo,I,o,147,3,1349.7000000178814,397145.59999999404,8056,WL,B,4.0
2,7.397000074386597,learn,52602.9999256134,Wed Jan 14 2026 13:28:51 GMT-0600 (Central Standard Time),398578.6999999881,A,door,I,r,77,3,1433.0999999940395,397145.59999999404,8056,WL,B,4.0
2,7.8470001220703125,learn,52152.99987792969,Wed Jan 14 2026 13:28:51 GMT-0600 (Central Standard Time),399028.5,A,doorenter,I,enter,434,3,1882.9000000059605,397145.59999999404,8056,WL,B,4.0
2,8.163000106811523,learn,51836.99989318848,Wed Jan 14 2026 13:28:51 GMT-0600 (Central Standard Time),399345.0,A,w,I,w,304,3,316.19999998807907,399028.8000000119,8056,WL,B,5.0
2,8.263999938964844,learn,51736.000061035156,Wed Jan 14 2026 13:28:51 GMT-0600 (Central Standard Time),399445.09999999404,A,wi,I,i,83,3,416.2999999821186,399028.8000000119,8056,WL,B,5.0
2,8.463000059127808,learn,51536.99994087219,Wed Jan 14 2026 13:28:51 GMT-0600 (Central Standard Time),399644.6999999881,A,win,I,n,192,3,615.8999999761581,399028.8000000119,8056,WL,B,5.0
2,8.646000146865845,learn,51353.999853134155,Wed Jan 14 2026 13:28:51 GMT-0600 (Central Standard Time),399828.0,A,wind,I,d,168,3,799.1999999880791,399028.8000000119,8056,WL,B,5.0
2,8.763000011444092,learn,51236.99998855591,Wed Jan 14 2026 13:28:51 GMT-0600 (Central Standard Time),399944.6999999881,A,windo,I,o,111,3,915.8999999761581,399028.8000000119,8056,WL,B,5.0
2,8.930000066757202,learn,51069.9999332428,Wed Jan 14 2026 13:28:51 GMT-0600 (Central Standard Time),400111.3000000119,A,window,I,w,156,3,1082.5,399028.8000000119,8056,WL,B,5.0
2,9.345999956130981,learn,50654.00004386902,Wed Jan 14 2026 13:28:51 GMT-0600 (Central Standard Time),400528.0,A,windowenter,I,enter,405,3,1499.199999988079,399028.8000000119,8056,WL,B,5.0
2,10.080000162124634,learn,49919.999837875366,Wed Jan 14 2026 13:28:51 GMT-0600 (Central Standard Time),401261.09999999404,A,a,I,a,725,3,732.5999999940395,400528.5,8056,WL,B,6.0
2,10.279000043869019,learn,49720.99995613098,Wed Jan 14 2026 13:28:51 GMT-0600 (Central Standard Time),401460.90000000596,A,ar,I,r,191,3,932.4000000059605,400528.5,8056,WL,B,6.0
2,10.546000003814697,learn,49453.9999961853,Wed Jan 14 2026 13:28:51 GMT-0600 (Central Standard Time),401727.59999999404,A,arm,I,m,247,3,1199.0999999940395,400528.5,8056,WL,B,6.0
2,10.878999948501587,learn,49121.00005149841,Wed Jan 14 2026 13:28:51 GMT-0600 (Central Standard Time),402060.6999999881,A,armenter,I,enter,325,3,1532.199999988079,400528.5,8056,WL,B,6.0
2,11.212000131607056,learn,48787.999868392944,Wed Jan 14 2026 13:28:51 GMT-0600 (Central Standard Time),402393.8000000119,A,s,I,s,327,3,332.80000001192093,402061.0,8056,WL,B,7.0
2,11.345999956130981,learn,48654.00004386902,Wed Jan 14 2026 13:28:51 GMT-0600 (Central Standard Time),402527.5,A,sk,I,k,122,3,466.5,402061.0,8056,WL,B,7.0
2,11.51200008392334,learn,48487.99991607666,Wed Jan 14 2026 13:28:51 GMT-0600 (Central Standard Time),402693.90000000596,A,ski,I,i,157,3,632.9000000059605,402061.0,8056,WL,B,7.0
2,11.646000146865845,learn,48353.999853134155,Wed Jan 14 2026 13:28:51 GMT-0600 (Central Standard Time),402827.3000000119,A,skin,I,n,127,3,766.3000000119209,402061.0,8056,WL,B,7.0
2,12.095999956130981,learn,47904.00004386902,Wed Jan 14 2026 13:28:51 GMT-0600 (Central Standard Time),403277.09999999404,A,skinenter,I,enter,440,3,1216.0999999940395,402061.0,8056,WL,B,7.0
2,16.311000108718872,learn,43688.99989128113,Wed Jan 14 2026 13:28:51 GMT-0600 (Central Standard Time),407492.59999999404,A,w,I,w,4199,3,4215.0999999940395,403277.5,8056,WL,B,8.0
2,16.378000020980835,learn,43621.999979019165,Wed Jan 14 2026 13:28:51 GMT-0600 (Central Standard Time),407559.3000000119,A,wi,I,i,56,3,4281.800000011921,403277.5,8056,WL,B,8.0
2,17.41100001335144,learn,42588.99998664856,Wed Jan 14 2026 13:28:51 GMT-0600 (Central Standard Time),408592.09999999404,A,wif,I,f,1021,3,5314.5999999940395,403277.5,8056,WL,B,8.0
2,18.14400005340576,learn,41855.99994659424,Wed Jan 14 2026 13:28:51 GMT-0600 (Central Standard Time),409325.1999999881,A,wife,I,e,716,3,6047.699999988079,403277.5,8056,WL,B,8.0
2,18.544000148773193,learn,41455.99985122681,Wed Jan 14 2026 13:28:51 GMT-0600 (Central Standard Time),409725.09999999404,A,wifeenter,I,enter,391,3,6447.5999999940395,403277.5,8056,WL,B,8.0
2,19.14300012588501,learn,40856.99987411499,Wed Jan 14 2026 13:28:51 GMT-0600 (Central Standard Time),410324.90000000596,A,c,I,c,583,3,599.5,409725.40000000596,8056,WL,B,9.0
2,19.41000008583069,learn,40589.99991416931,Wed Jan 14 2026 13:28:51 GMT-0600 (Central Standard Time),410591.5,A,ca,I,a,247,3,866.0999999940395,409725.40000000596,8056,WL,B,9.0
2,19.843000173568726,learn,40156.999826431274,Wed Jan 14 2026 13:28:51 GMT-0600 (Central Standard Time),411024.6999999881,A,cab,I,b,428,3,1299.2999999821186,409725.40000000596,8056,WL,B,9.0
2,19.993000030517578,learn,40006.99996948242,Wed Jan 14 2026 13:28:51 GMT-0600 (Central Standard Time),411174.59999999404,A,cabi,I,i,140,3,1449.199999988079,409725.40000000596,8056,WL,B,9.0
2,20.14300012588501,learn,39856.99987411499,Wed Jan 14 2026 13:28:51 GMT-0600 (Central Standard Time),411324.40000000596,A,cabin,I,n,142,3,1599.0,409725.40000000596,8056,WL,B,9.0
2,20.909000158309937,learn,39090.99984169006,Wed Jan 14 2026 13:28:51 GMT-0600 (Central Standard Time),412090.8000000119,A,cabinenter,I,enter,760,3,2365.4000000059605,409725.40000000596,8056,WL,B,9.0
2,24.442000150680542,learn,35557.99984931946,Wed Jan 14 2026 13:28:51 GMT-0600 (Central Standard Time),415623.0,A,l,I,l,3521,3,3531.9000000059605,412091.09999999404,8056,WL,B,10.0
2,24.55900001525879,learn,35440.99998474121,Wed Jan 14 2026 13:28:51 GMT-0600 (Central Standard Time),415740.09999999404,A,la,I,a,100,3,3649.0,412091.09999999404,8056,WL,B,10.0
2,24.674999952316284,learn,35325.000047683716,Wed Jan 14 2026 13:28:51 GMT-0600 (Central Standard Time),415856.40000000596,A,lak,I,k,103,3,3765.300000011921,412091.09999999404,8056,WL,B,10.0
2,24.825000047683716,learn,35174.999952316284,Wed Jan 14 2026 13:28:51 GMT-0600 (Central Standard Time),416006.40000000596,A,lake,I,e,131,3,3915.300000011921,412091.09999999404,8056,WL,B,10.0
2,24.992000102996826,learn,35007.999897003174,Wed Jan 14 2026 13:28:51 GMT-0600 (Central Standard Time),416173.09999999404,A,lakeenter,I,enter,157,3,4082.0,412091.09999999404,8056,WL,B,10.0
2,25.44099998474121,learn,34559.00001525879,Wed Jan 14 2026 13:28:51 GMT-0600 (Central Standard Time),416623.0,A,s,I,s,440,3,449.59999999403954,416173.40000000596,8056,WL,B,11.0
2,25.641000032424927,learn,34358.99996757507,Wed Jan 14 2026 13:28:51 GMT-0600 (Central Standard Time),416822.6999999881,A,st,I,t,180,3,649.2999999821186,416173.40000000596,8056,WL,B,11.0
2,25.94099998474121,learn,34059.00001525879,Wed Jan 14 2026 13:28:51 GMT-0600 (Central Standard Time),417122.90000000596,A,str,I,r,285,3,949.5,416173.40000000596,8056,WL,B,11.0
2,26.20799994468689,learn,33792.00005531311,Wed Jan 14 2026 13:28:51 GMT-0600 (Central Standard Time),417389.3000000119,A,stre,I,e,257,3,1215.9000000059605,416173.40000000596,8056,WL,B,11.0
2,26.35800004005432,learn,33641.99995994568,Wed Jan 14 2026 13:28:51 GMT-0600 (Central Standard Time),417539.09999999404,A,stree,I,e,143,3,1365.699999988079,416173.40000000596,8056,WL,B,11.0
2,26.574000120162964,learn,33425.999879837036,Wed Jan 14 2026 13:28:51 GMT-0600 (Central Standard Time),417755.6999999881,A,street,I,t,200,3,1582.2999999821186,416173.40000000596,8056,WL,B,11.0
2,26.77400016784668,learn,33225.99983215332,Wed Jan 14 2026 13:28:51 GMT-0600 (Central Standard Time),417955.59999999404,A,streetenter,I,enter,192,3,1782.199999988079,416173.40000000596,8056,WL,B,11.0
2,27.407000064849854,learn,32592.999935150146,Wed Jan 14 2026 13:28:51 GMT-0600 (Central Standard Time),418588.8000000119,A,c,I,c,624,3,632.8000000119209,417956.0,8056,WL,B,12.0
2,27.557000160217285,learn,32442.999839782715,Wed Jan 14 2026 13:28:51 GMT-0600 (Central Standard Time),418738.90000000596,A,ci,I,i,144,3,782.9000000059605,417956.0,8056,WL,B,12.0
2,27.740000009536743,learn,32259.999990463257,Wed Jan 14 2026 13:28:51 GMT-0600 (Central Standard Time),418921.90000000596,A,cit,I,t,177,3,965.9000000059605,417956.0,8056,WL,B,12.0
2,27.875,learn,32125.0,Wed Jan 14 2026 13:28:51 GMT-0600 (Central Standard Time),419056.6999999881,A,city,I,y,114,3,1100.699999988079,417956.0,8056,WL,B,12.0
2,28.10700011253357,learn,31892.99988746643,Wed Jan 14 2026 13:28:51 GMT-0600 (Central Standard Time),419288.90000000596,A,cityenter,I,enter,228,3,1332.9000000059605,417956.0,8056,WL,B,12.0
2,30.77300000190735,learn,29226.99999809265,Wed Jan 14 2026 13:28:51 GMT-0600 (Central Standard Time),421954.5,A,g,I,g,2651,3,2665.300000011921,419289.1999999881,8056,WL,B,13.0
2,30.973000049591064,learn,29026.999950408936,Wed Jan 14 2026 13:28:51 GMT-0600 (Central Standard Time),422154.40000000596,A,gr,I,r,194,3,2865.2000000178814,419289.1999999881,8056,WL,B,13.0
2,31.206000089645386,learn,28793.999910354614,Wed Jan 14 2026 13:28:51 GMT-0600 (Central Standard Time),422387.8000000119,A,gra,I,a,218,3,3098.600000023842,419289.1999999881,8056,WL,B,13.0
2,31.539000034332275,learn,28460.999965667725,Wed Jan 14 2026 13:28:51 GMT-0600 (Central Standard Time),422721.09999999404,A,gras,I,s,321,3,3431.9000000059605,419289.1999999881,8056,WL,B,13.0
2,31.706000089645386,learn,28293.999910354614,Wed Jan 14 2026 13:28:51 GMT-0600 (Central Standard Time),422887.5,A,grass,I,s,155,3,3598.300000011921,419289.1999999881,8056,WL,B,13.0
2,32.206000089645386,learn,27793.999910354614,Wed Jan 14 2026 13:28:51 GMT-0600 (Central Standard Time),423387.5,A,grassenter,I,enter,493,3,4098.300000011921,419289.1999999881,8056,WL,B,13.0
2,32.9060001373291,learn,27093.9998626709,Wed Jan 14 2026 13:28:51 GMT-0600 (Central Standard Time),424087.3000000119,A,p,I,p,689,3,699.5,423387.8000000119,8056,WL,B,14.0
2,33.138999938964844,learn,26861.000061035156,Wed Jan 14 2026 13:28:51 GMT-0600 (Central Standard Time),424320.5,A,pi,I,i,213,3,932.6999999880791,423387.8000000119,8056,WL,B,14.0
2,33.355000019073486,learn,26644.999980926514,Wed Jan 14 2026 13:28:51 GMT-0600 (Central Standard Time),424537.1999999881,A,pip,I,p,196,3,1149.3999999761581,423387.8000000119,8056,WL,B,14.0
2,33.92200016975403,learn,26077.99983024597,Wed Jan 14 2026 13:28:51 GMT-0600 (Central Standard Time),425103.5,A,pipe,I,e,555,3,1715.699999988079,423387.8000000119,8056,WL,B,14.0
2,34.187999963760376,learn,25812.000036239624,Wed Jan 14 2026 13:28:51 GMT-0600 (Central Standard Time),425369.8000000119,A,pipeenter,I,enter,261,3,1982.0,423387.8000000119,8056,WL,B,14.0
2,35.78800010681152,learn,24211.999893188477,Wed Jan 14 2026 13:28:51 GMT-0600 (Central Standard Time),426969.6999999881,A,p,I,p,1587,3,1599.5,425370.1999999881,8056,WL,B,15.0
2,35.98800015449524,learn,24011.99984550476,Wed Jan 14 2026 13:28:51 GMT-0600 (Central Standard Time),427169.40000000596,A,pu,I,u,185,3,1799.2000000178814,425370.1999999881,8056,WL,B,15.0
2,36.17300009727478,learn,23826.99990272522,Wed Jan 14 2026 13:28:51 GMT-0600 (Central Standard Time),427354.40000000596,A,pup,I,p,171,3,1984.2000000178814,425370.1999999881,8056,WL,B,15.0
2,36.75399994850159,learn,23246.000051498413,Wed Jan 14 2026 13:28:51 GMT-0600 (Central Standard Time),427935.8000000119,A,pupi,I,i,569,3,2565.600000023842,425370.1999999881,8056,WL,B,15.0
2,36.90499997138977,learn,23095.00002861023,Wed Jan 14 2026 13:28:51 GMT-0600 (Central Standard Time),428086.3000000119,A,pupil,I,l,140,3,2716.100000023842,425370.1999999881,8056,WL,B,15.0
2,37.25399994850159,learn,22746.000051498413,Wed Jan 14 2026 13:28:51 GMT-0600 (Central Standard Time),428436.09999999404,A,pupilenter,I,enter,342,3,3065.9000000059605,425370.1999999881,8056,WL,B,15.0
3,0.8830001354217529,learn,59116.99986457825,Wed Jan 14 2026 13:28:51 GMT-0600 (Central Standard Time),495614.90000000596,A,f,I,f,864,3,882.7000000178814,494732.1999999881,8056,WL,B,1.0
3,0.9830000400543213,learn,59016.99995994568,Wed Jan 14 2026 13:28:51 GMT-0600 (Central Standard Time),495714.90000000596,A,fi,I,i,93,3,982.7000000178814,494732.1999999881,8056,WL,B,1.0
3,1.1160001754760742,learn,58883.999824523926,Wed Jan 14 2026 13:28:51 GMT-0600 (Central Standard Time),495848.1999999881,A,fir,I,r,122,3,1116.0,494732.1999999881,8056,WL,B,1.0
3,1.5329999923706055,learn,58467.000007629395,Wed Jan 14 2026 13:28:51 GMT-0600 (Central Standard Time),496264.6999999881,A,fire,I,e,403,3,1532.5,494732.1999999881,8056,WL,B,1.0
3,2.1490001678466797,learn,57850.99983215332,Wed Jan 14 2026 13:28:51 GMT-0600 (Central Standard Time),496881.3000000119,A,fireenter,I,enter,604,3,2149.100000023842,494732.1999999881,8056,WL,B,1.0
3,2.5990002155303955,learn,57400.999784469604,Wed Jan 14 2026 13:28:51 GMT-0600 (Central Standard Time),497330.90000000596,A,c,I,c,434,3,449.30000001192093,496881.59999999404,8056,WL,B,2.0
3,2.7320001125335693,learn,57267.99988746643,Wed Jan 14 2026 13:28:51 GMT-0600 (Central Standard Time),497464.40000000596,A,cl,I,l,121,3,582.8000000119209,496881.59999999404,8056,WL,B,2.0
3,2.8990001678466797,learn,57100.99983215332,Wed Jan 14 2026 13:28:51 GMT-0600 (Central Standard Time),497631.0,A,clo,I,o,155,3,749.4000000059605,496881.59999999404,8056,WL,B,2.0
3,3.0160000324249268,learn,56983.99996757507,Wed Jan 14 2026 13:28:51 GMT-0600 (Central Standard Time),497747.5,A,cloc,I,c,101,3,865.9000000059605,496881.59999999404,8056,WL,B,2.0
3,3.132000207901001,learn,56867.999792099,Wed Jan 14 2026 13:28:51 GMT-0600 (Central Standard Time),497864.3000000119,A,clock,I,k,106,3,982.7000000178814,496881.59999999404,8056,WL,B,2.0
3,3.4650001525878906,learn,56534.99984741211,Wed Jan 14 2026 13:28:51 GMT-0600 (Central Standard Time),498197.40000000596,A,clockenter,I,enter,323,3,1315.800000011921,496881.59999999404,8056,WL,B,2.0
3,3.949000120162964,learn,56050.999879837036,Wed Jan 14 2026 13:28:51 GMT-0600 (Central Standard Time),498680.6999999881,A,a,I,a,471,3,483.0,498197.6999999881,8056,WL,B,3.0
3,4.132000207901001,learn,55867.999792099,Wed Jan 14 2026 13:28:51 GMT-0600 (Central Standard Time),498863.90000000596,A,ar,I,r,163,3,666.2000000178814,498197.6999999881,8056,WL,B,3.0
3,4.265000104904175,learn,55734.999895095825,Wed Jan 14 2026 13:28:51 GMT-0600 (Central Standard Time),498997.09999999404,A,arm,I,m,125,3,799.4000000059605,498197.6999999881,8056,WL,B,3.0
3,4.9150002002716064,learn,55084.99979972839,Wed Jan 14 2026 13:28:51 GMT-0600 (Central Standard Time),499646.90000000596,A,armenter,I,enter,639,3,1449.2000000178814,498197.6999999881,8056,WL,B,3.0
3,5.3480000495910645,learn,54651.999950408936,Wed Jan 14 2026 13:28:51 GMT-0600 (Central Standard Time),500080.0,A,s,I,s,413,3,432.69999998807907,499647.3000000119,8056,WL,B,4.0
3,5.482000112533569,learn,54517.99988746643,Wed Jan 14 2026 13:28:51 GMT-0600 (Central Standard Time),500213.59999999404,A,sk,I,k,117,3,566.2999999821186,499647.3000000119,8056,WL,B,4.0
3,5.632000207901001,learn,54367.999792099,Wed Jan 14 2026 13:28:51 GMT-0600 (Central Standard Time),500363.40000000596,A,ski,I,i,143,3,716.0999999940395,499647.3000000119,8056,WL,B,4.0
3,5.898000001907349,learn,54101.99999809265,Wed Jan 14 2026 13:28:51 GMT-0600 (Central Standard Time),500630.09999999404,A,skin,I,n,257,3,982.7999999821186,499647.3000000119,8056,WL,B,4.0
3,6.1650002002716064,learn,53834.99979972839,Wed Jan 14 2026 13:28:51 GMT-0600 (Central Standard Time),500896.5,A,skinenter,I,enter,254,3,1249.199999988079,499647.3000000119,8056,WL,B,4.0
3,7.697000026702881,learn,52302.99997329712,Wed Jan 14 2026 13:28:51 GMT-0600 (Central Standard Time),502429.1999999881,A,d,I,d,1516,3,1532.2999999821186,500896.90000000596,8056,WL,B,5.0
3,7.830000162124634,learn,52169.999837875366,Wed Jan 14 2026 13:28:51 GMT-0600 (Central Standard Time),502562.3000000119,A,do,I,o,127,3,1665.4000000059605,500896.90000000596,8056,WL,B,5.0
3,7.998000144958496,learn,52001.999855041504,Wed Jan 14 2026 13:28:51 GMT-0600 (Central Standard Time),502730.3000000119,A,doo,I,o,162,3,1833.4000000059605,500896.90000000596,8056,WL,B,5.0
3,8.164000034332275,learn,51835.999965667725,Wed Jan 14 2026 13:28:51 GMT-0600 (Central Standard Time),502895.90000000596,A,door,I,r,153,3,1999.0,500896.90000000596,8056,WL,B,5.0
3,8.364000082015991,learn,51635.99991798401,Wed Jan 14 2026 13:28:51 GMT-0600 (Central Standard Time),503095.6999999881,A,doorenter,I,enter,180,3,2198.7999999821186,500896.90000000596,8056,WL,B,5.0
3,8.96399998664856,learn,51036.00001335144,Wed Jan 14 2026 13:28:51 GMT-0600 (Central Standard Time),503695.5,A,w,I,w,580,3,599.5,503096.0,8056,WL,B,6.0
3,9.081000089645386,learn,50918.999910354614,Wed Jan 14 2026 13:28:51 GMT-0600 (Central Standard Time),503812.40000000596,A,wi,I,i,108,3,716.4000000059605,503096.0,8056,WL,B,6.0
3,9.21399998664856,learn,50786.00001335144,Wed Jan 14 2026 13:28:51 GMT-0600 (Central Standard Time),503946.1999999881,A,win,I,n,120,3,850.1999999880791,503096.0,8056,WL,B,6.0
3,9.330000162124634,learn,50669.999837875366,Wed Jan 14 2026 13:28:51 GMT-0600 (Central Standard Time),504062.1999999881,A,wind,I,d,98,3,966.1999999880791,503096.0,8056,WL,B,6.0
3,9.497000217437744,learn,50502.999782562256,Wed Jan 14 2026 13:28:51 GMT-0600 (Central Standard Time),504229.0,A,windo,I,o,149,3,1133.0,503096.0,8056,WL,B,6.0
3,9.797000169754028,learn,50202.99983024597,Wed Jan 14 2026 13:28:51 GMT-0600 (Central Standard Time),504528.8000000119,A,window,I,w,279,3,1432.800000011921,503096.0,8056,WL,B,6.0
3,10.213000059127808,learn,49786.99994087219,Wed Jan 14 2026 13:28:51 GMT-0600 (Central Standard Time),504945.09999999404,A,windowenter,I,enter,396,3,1849.0999999940395,503096.0,8056,WL,B,6.0
3,11.34600019454956,learn,48653.99980545044,Wed Jan 14 2026 13:28:51 GMT-0600 (Central Standard Time),506078.1999999881,A,g,I,g,1116,3,1132.7999999821186,504945.40000000596,8056,WL,B,7.0
3,11.563000202178955,learn,48436.999797821045,Wed Jan 14 2026 13:28:51 GMT-0600 (Central Standard Time),506294.6999999881,A,gr,I,r,197,3,1349.2999999821186,504945.40000000596,8056,WL,B,7.0
3,11.796000003814697,learn,48203.9999961853,Wed Jan 14 2026 13:28:51 GMT-0600 (Central Standard Time),506528.3000000119,A,gra,I,a,213,3,1582.9000000059605,504945.40000000596,8056,WL,B,7.0
3,12.046000003814697,learn,47953.9999961853,Wed Jan 14 2026 13:28:51 GMT-0600 (Central Standard Time),506778.09999999404,A,gras,I,s,236,3,1832.699999988079,504945.40000000596,8056,WL,B,7.0
3,12.230000019073486,learn,47769.999980926514,Wed Jan 14 2026 13:28:51 GMT-0600 (Central Standard Time),506961.59999999404,A,grass,I,s,170,3,2016.199999988079,504945.40000000596,8056,WL,B,7.0
3,12.496000051498413,learn,47503.99994850159,Wed Jan 14 2026 13:28:51 GMT-0600 (Central Standard Time),507228.0,A,grassenter,I,enter,250,3,2282.5999999940395,504945.40000000596,8056,WL,B,7.0
3,13.029000043869019,learn,46970.99995613098,Wed Jan 14 2026 13:28:51 GMT-0600 (Central Standard Time),507761.0,A,s,I,s,521,3,532.5999999940395,507228.40000000596,8056,WL,B,8.0
3,13.279000043869019,learn,46720.99995613098,Wed Jan 14 2026 13:28:51 GMT-0600 (Central Standard Time),508011.0,A,st,I,t,235,3,782.5999999940395,507228.40000000596,8056,WL,B,8.0
3,13.445000171661377,learn,46554.99982833862,Wed Jan 14 2026 13:28:51 GMT-0600 (Central Standard Time),508177.3000000119,A,str,I,r,161,3,948.9000000059605,507228.40000000596,8056,WL,B,8.0
3,13.645000219345093,learn,46354.99978065491,Wed Jan 14 2026 13:28:51 GMT-0600 (Central Standard Time),508377.40000000596,A,stre,I,e,195,3,1149.0,507228.40000000596,8056,WL,B,8.0
3,13.828999996185303,learn,46171.0000038147,Wed Jan 14 2026 13:28:51 GMT-0600 (Central Standard Time),508560.90000000596,A,stree,I,e,170,3,1332.5,507228.40000000596,8056,WL,B,8.0
3,14.029000043869019,learn,45970.99995613098,Wed Jan 14 2026 13:28:51 GMT-0600 (Central Standard Time),508760.6999999881,A,street,I,t,187,3,1532.2999999821186,507228.40000000596,8056,WL,B,8.0
3,14.309000015258789,learn,45690.99998474121,Wed Jan 14 2026 13:28:51 GMT-0600 (Central Standard Time),509040.6999999881,A,streetenter,I,enter,275,3,1812.2999999821186,507228.40000000596,8056,WL,B,8.0
3,14.92900013923645,learn,45070.99986076355,Wed Jan 14 2026 13:28:51 GMT-0600 (Central Standard Time),509660.59999999404,A,c,I,c,604,3,619.5,509041.09999999404,8056,WL,B,9.0
3,15.045000076293945,learn,44954.999923706055,Wed Jan 14 2026 13:28:51 GMT-0600 (Central Standard Time),509777.0,A,ci,I,i,104,3,735.9000000059605,509041.09999999404,8056,WL,B,9.0
3,15.212000131607056,learn,44787.999868392944,Wed Jan 14 2026 13:28:51 GMT-0600 (Central Standard Time),509943.8000000119,A,cit,I,t,147,3,902.7000000178814,509041.09999999404,8056,WL,B,9.0
3,15.328999996185303,learn,44671.0000038147,Wed Jan 14 2026 13:28:51 GMT-0600 (Central Standard Time),510061.3000000119,A,city,I,y,101,3,1020.2000000178814,509041.09999999404,8056,WL,B,9.0
3,15.778000116348267,learn,44221.99988365173,Wed Jan 14 2026 13:28:51 GMT-0600 (Central Standard Time),510510.0,A,cityenter,I,enter,439,3,1468.9000000059605,509041.09999999404,8056,WL,B,9.0
3,16.528000116348267,learn,43471.99988365173,Wed Jan 14 2026 13:28:51 GMT-0600 (Central Standard Time),511259.90000000596,A,c,I,c,734,3,749.7000000178814,510510.1999999881,8056,WL,B,10.0
3,16.628000020980835,learn,43371.999979019165,Wed Jan 14 2026 13:28:51 GMT-0600 (Central Standard Time),511359.90000000596,A,ca,I,a,89,3,849.7000000178814,510510.1999999881,8056,WL,B,10.0
3,16.91100001335144,learn,43088.99998664856,Wed Jan 14 2026 13:28:51 GMT-0600 (Central Standard Time),511643.0,A,cab,I,b,277,3,1132.800000011921,510510.1999999881,8056,WL,B,10.0
3,16.99500012397766,learn,43004.99987602234,Wed Jan 14 2026 13:28:51 GMT-0600 (Central Standard Time),511726.6999999881,A,cabi,I,i,67,3,1216.5,510510.1999999881,8056,WL,B,10.0
3,17.094000101089478,learn,42905.99989891052,Wed Jan 14 2026 13:28:51 GMT-0600 (Central Standard Time),511826.40000000596,A,cabin,I,n,86,3,1316.2000000178814,510510.1999999881,8056,WL,B,10.0
3,17.4280002117157,learn,42571.9997882843,Wed Jan 14 2026 13:28:51 GMT-0600 (Central Standard Time),512159.5,A,cabinenter,I,enter,321,3,1649.300000011921,510510.1999999881,8056,WL,B,10.0
3,17.861000061035156,learn,42138.999938964844,Wed Jan 14 2026 13:28:51 GMT-0600 (Central Standard Time),512593.0,A,l,I,l,412,3,433.09999999403954,512159.90000000596,8056,WL,B,11.0
3,17.944000005722046,learn,42055.999994277954,Wed Jan 14 2026 13:28:51 GMT-0600 (Central Standard Time),512676.3000000119,A,la,I,a,75,3,516.4000000059605,512159.90000000596,8056,WL,B,11.0
3,18.128000020980835,learn,41871.999979019165,Wed Jan 14 2026 13:28:51 GMT-0600 (Central Standard Time),512859.6999999881,A,lak,I,k,168,3,699.7999999821186,512159.90000000596,8056,WL,B,11.0
3,18.294000148773193,learn,41705.99985122681,Wed Jan 14 2026 13:28:51 GMT-0600 (Central Standard Time),513026.09999999404,A,lake,I,e,160,3,866.1999999880791,512159.90000000596,8056,WL,B,11.0
3,18.694000005722046,learn,41305.999994277954,Wed Jan 14 2026 13:28:51 GMT-0600 (Central Standard Time),513426.1999999881,A,lakeenter,I,enter,387,3,1266.2999999821186,512159.90000000596,8056,WL,B,11.0
3,20.06000018119812,learn,39939.99981880188,Wed Jan 14 2026 13:28:51 GMT-0600 (Central Standard Time),514792.09999999404,A,w,I,w,1345,3,1365.5999999940395,513426.5,8056,WL,B,12.0
3,20.177000045776367,learn,39822.99995422363,Wed Jan 14 2026 13:28:51 GMT-0600 (Central Standard Time),514908.90000000596,A,wi,I,i,100,3,1482.4000000059605,513426.5,8056,WL,B,12.0
3,20.360000133514404,learn,39639.999866485596,Wed Jan 14 2026 13:28:51 GMT-0600 (Central Standard Time),515092.0,A,wif,I,f,168,3,1665.5,513426.5,8056,WL,B,12.0
3,20.593000173568726,learn,39406.999826431274,Wed Jan 14 2026 13:28:51 GMT-0600 (Central Standard Time),515325.40000000596,A,wife,I,e,215,3,1898.9000000059605,513426.5,8056,WL,B,12.0
3,20.844000101089478,learn,39155.99989891052,Wed Jan 14 2026 13:28:51 GMT-0600 (Central Standard Time),515575.5,A,wifeenter,I,enter,239,3,2149.0,513426.5,8056,WL,B,12.0
3,21.177000045776367,learn,38822.99995422363,Wed Jan 14 2026 13:28:51 GMT-0600 (Central Standard Time),515908.59999999404,A,s,I,s,317,3,332.69999998807907,515575.90000000596,8056,WL,B,13.0
3,21.37600016593933,learn,38623.99983406067,Wed Jan 14 2026 13:28:51 GMT-0600 (Central Standard Time),516108.3000000119,A,st,I,t,184,3,532.4000000059605,515575.90000000596,8056,WL,B,13.0
3,21.56000018119812,learn,38439.99981880188,Wed Jan 14 2026 13:28:51 GMT-0600 (Central Standard Time),516291.8000000119,A,sta,I,a,176,3,715.9000000059605,515575.90000000596,8056,WL,B,13.0
3,21.693000078201294,learn,38306.999921798706,Wed Jan 14 2026 13:28:51 GMT-0600 (Central Standard Time),516425.09999999404,A,star,I,r,120,3,849.1999999880791,515575.90000000596,8056,WL,B,13.0
3,22.676000118255615,learn,37323.999881744385,Wed Jan 14 2026 13:28:51 GMT-0600 (Central Standard Time),517408.0,A,starenter,I,enter,963,3,1832.0999999940395,515575.90000000596,8056,WL,B,13.0
3,24.909000158309937,learn,35090.99984169006,Wed Jan 14 2026 13:28:51 GMT-0600 (Central Standard Time),519640.6999999881,A,p,I,p,2212,3,2232.2999999821186,517408.40000000596,8056,WL,B,14.0
3,25.142000198364258,learn,34857.99980163574,Wed Jan 14 2026 13:28:51 GMT-0600 (Central Standard Time),519873.90000000596,A,pi,I,i,219,3,2465.5,517408.40000000596,8056,WL,B,14.0
3,25.342000007629395,learn,34657.999992370605,Wed Jan 14 2026 13:28:51 GMT-0600 (Central Standard Time),520073.8000000119,A,pip,I,p,187,3,2665.4000000059605,517408.40000000596,8056,WL,B,14.0
3,25.825000047683716,learn,34174.999952316284,Wed Jan 14 2026 13:28:51 GMT-0600 (Central Standard Time),520557.09999999404,A,pipe,I,e,467,3,3148.699999988079,517408.40000000596,8056,WL,B,14.0
3,26.075000047683716,learn,33924.999952316284,Wed Jan 14 2026 13:28:51 GMT-0600 (Central Standard Time),520807.1999999881,A,pipeenter,I,enter,238,3,3398.7999999821186,517408.40000000596,8056,WL,B,14.0
3,27.624000072479248,learn,32375.999927520752,Wed Jan 14 2026 13:28:51 GMT-0600 (Central Standard Time),522356.40000000596,A,p,I,p,1534,3,1548.9000000059605,520807.5,8056,WL,B,15.0
3,28.724000215530396,learn,31275.999784469604,Wed Jan 14 2026 13:28:51 GMT-0600 (Central Standard Time),523456.0,A,pu,I,u,1088,3,2648.5,520807.5,8056,WL,B,15.0
3,28.907999992370605,learn,31092.000007629395,Wed Jan 14 2026 13:28:51 GMT-0600 (Central Standard Time),523639.5,A,pup,I,p,173,3,2832.0,520807.5,8056,WL,B,15.0
3,29.391000032424927,learn,30608.999967575073,Wed Jan 14 2026 13:28:51 GMT-0600 (Central Standard Time),524122.5,A,pupi,I,i,469,3,3315.0,520807.5,8056,WL,B,15.0
3,29.557000160217285,learn,30442.999839782715,Wed Jan 14 2026 13:28:51 GMT-0600 (Central Standard Time),524289.0,A,pupil,I,l,161,3,3481.5,520807.5,8056,WL,B,15.0
3,30.007000207901,learn,29992.999792099,Wed Jan 14 2026 13:28:51 GMT-0600 (Central Standard Time),524738.900000006,A,pupilenter,I,enter,436,3,3931.4000000059605,520807.5,8056,WL,B,15.0
4,1.0989999771118164,learn,58901.00002288818,Wed Jan 14 2026 13:28:51 GMT-0600 (Central Standard Time),591718.400000006,A,c,I,c,1082,3,1099.5,590618.900000006,8056,WL,B,1.0
4,1.1990001201629639,learn,58800.999879837036,Wed Jan 14 2026 13:28:51 GMT-0600 (Central Standard Time),591818.0,A,cl,I,l,85,3,1199.0999999940395,590618.900000006,8056,WL,B,1.0
4,1.3659999370574951,learn,58634.000062942505,Wed Jan 14 2026 13:28:51 GMT-0600 (Central Standard Time),591984.6999999881,A,clo,I,o,153,3,1365.7999999821186,590618.900000006,8056,WL,B,1.0
4,1.565000057220459,learn,58434.99994277954,Wed Jan 14 2026 13:28:51 GMT-0600 (Central Standard Time),592184.5,A,cloc,I,c,179,3,1565.5999999940395,590618.900000006,8056,WL,B,1.0
4,1.6489999294281006,learn,58351.0000705719,Wed Jan 14 2026 13:28:51 GMT-0600 (Central Standard Time),592268.099999994,A,clock,I,k,68,3,1649.199999988079,590618.900000006,8056,WL,B,1.0
4,2.0989999771118164,learn,57901.00002288818,Wed Jan 14 2026 13:28:51 GMT-0600 (Central Standard Time),592717.8000000119,A,clockenter,I,enter,441,3,2098.9000000059605,590618.900000006,8056,WL,B,1.0
4,2.865000009536743,learn,57134.99999046326,Wed Jan 14 2026 13:28:51 GMT-0600 (Central Standard Time),593484.400000006,A,f,I,f,751,3,766.3000000119209,592718.099999994,8056,WL,B,2.0
4,2.999000072479248,learn,57000.99992752075,Wed Jan 14 2026 13:28:51 GMT-0600 (Central Standard Time),593617.8000000119,A,fi,I,i,119,3,899.7000000178814,592718.099999994,8056,WL,B,2.0
4,3.447999954223633,learn,56552.00004577637,Wed Jan 14 2026 13:28:51 GMT-0600 (Central Standard Time),594067.5,A,fir,I,r,435,3,1349.4000000059605,592718.099999994,8056,WL,B,2.0
4,3.631999969482422,learn,56368.00003051758,Wed Jan 14 2026 13:28:51 GMT-0600 (Central Standard Time),594250.8000000119,A,fire,I,e,168,3,1532.7000000178814,592718.099999994,8056,WL,B,2.0
4,3.931999921798706,learn,56068.000078201294,Wed Jan 14 2026 13:28:51 GMT-0600 (Central Standard Time),594550.599999994,A,fireenter,I,enter,290,3,1832.5,592718.099999994,8056,WL,B,2.0
4,4.315000057220459,learn,55684.99994277954,Wed Jan 14 2026 13:28:51 GMT-0600 (Central Standard Time),594933.8000000119,A,d,I,d,373,3,382.90000000596046,594550.900000006,8056,WL,B,3.0
4,4.431999921798706,learn,55568.000078201294,Wed Jan 14 2026 13:28:51 GMT-0600 (Central Standard Time),595050.599999994,A,do,I,o,102,3,499.69999998807907,594550.900000006,8056,WL,B,3.0
4,4.5980000495910645,learn,55401.999950408936,Wed Jan 14 2026 13:28:51 GMT-0600 (Central Standard Time),595217.400000006,A,dor,I,r,154,3,666.5,594550.900000006,8056,WL,B,3.0
4,4.747999906539917,learn,55252.00009346008,Wed Jan 14 2026 13:28:51 GMT-0600 (Central Standard Time),595367.099999994,A,dorr,I,r,138,3,816.1999999880791,594550.900000006,8056,WL,B,3.0
4,4.980999946594238,learn,55019.00005340576,Wed Jan 14 2026 13:28:51 GMT-0600 (Central Standard Time),595600.1999999881,A,dorrenter,I,enter,221,3,1049.2999999821186,594550.900000006,8056,WL,B,3.0
4,8.27999997138977,learn,51720.00002861023,Wed Jan 14 2026 13:28:51 GMT-0600 (Central Standard Time),598899.3000000119,A,w,I,w,3292,3,3298.7000000178814,595600.599999994,8056,WL,B,4.0
4,8.413000106811523,learn,51586.99989318848,Wed Jan 14 2026 13:28:51 GMT-0600 (Central Standard Time),599032.400000006,A,wi,I,i,112,3,3431.800000011921,595600.599999994,8056,WL,B,4.0
4,8.54699993133545,learn,51453.00006866455,Wed Jan 14 2026 13:28:51 GMT-0600 (Central Standard Time),599165.8000000119,A,win,I,n,116,3,3565.2000000178814,595600.599999994,8056,WL,B,4.0
4,8.663000106811523,learn,51336.99989318848,Wed Jan 14 2026 13:28:51 GMT-0600 (Central Standard Time),599282.5,A,wind,I,d,103,3,3681.9000000059605,595600.599999994,8056,WL,B,4.0
4,8.79699993133545,learn,51203.00006866455,Wed Jan 14 2026 13:28:51 GMT-0600 (Central Standard Time),599416.099999994,A,windo,I,o,113,3,3815.5,595600.599999994,8056,WL,B,4.0
4,9.095999956130981,learn,50904.00004386902,Wed Jan 14 2026 13:28:51 GMT-0600 (Central Standard Time),599715.5,A,window,I,w,291,3,4114.9000000059605,595600.599999994,8056,WL,B,4.0
4,9.44700002670288,learn,50552.99997329712,Wed Jan 14 2026 13:28:51 GMT-0600 (Central Standard Time),600065.599999994,A,windowenter,I,enter,336,3,4465.0,595600.599999994,8056,WL,B,4.0
4,10.462000131607056,learn,49537.999868392944,Wed Jan 14 2026 13:28:51 GMT-0600 (Central Standard Time),601081.900000006,A,s,I,s,1003,3,1015.9000000059605,600066.0,8056,WL,B,5.0
4,10.611999988555908,learn,49388.00001144409,Wed Jan 14 2026 13:28:51 GMT-0600 (Central Standard Time),601231.900000006,A,sk,I,k,138,3,1165.9000000059605,600066.0,8056,WL,B,5.0
4,10.779000043869019,learn,49220.99995613098,Wed Jan 14 2026 13:28:51 GMT-0600 (Central Standard Time),601398.3000000119,A,ski,I,i,156,3,1332.300000011921,600066.0,8056,WL,B,5.0
4,10.962000131607056,learn,49037.999868392944,Wed Jan 14 2026 13:28:51 GMT-0600 (Central Standard Time),601581.5,A,skin,I,n,166,3,1515.5,600066.0,8056,WL,B,5.0
4,11.312000036239624,learn,48687.999963760376,Wed Jan 14 2026 13:28:51 GMT-0600 (Central Standard Time),601931.900000006,A,skinenter,I,enter,334,3,1865.9000000059605,600066.0,8056,WL,B,5.0
4,13.32800006866455,learn,46671.99993133545,Wed Jan 14 2026 13:28:51 GMT-0600 (Central Standard Time),603947.599999994,A,w,I,w,2000,3,2015.2999999821186,601932.3000000119,8056,WL,B,6.0
4,13.460999965667725,learn,46539.000034332275,Wed Jan 14 2026 13:28:51 GMT-0600 (Central Standard Time),604081.0,A,wi,I,i,113,3,2148.699999988079,601932.3000000119,8056,WL,B,6.0
4,13.66100001335144,learn,46338.99998664856,Wed Jan 14 2026 13:28:51 GMT-0600 (Central Standard Time),604281.0,A,wif,I,f,196,3,2348.699999988079,601932.3000000119,8056,WL,B,6.0
4,13.861000061035156,learn,46138.999938964844,Wed Jan 14 2026 13:28:51 GMT-0600 (Central Standard Time),604480.900000006,A,wife,I,e,195,3,2548.5999999940395,601932.3000000119,8056,WL,B,6.0
4,14.061000108718872,learn,45938.99989128113,Wed Jan 14 2026 13:28:51 GMT-0600 (Central Standard Time),604680.8000000119,A,wifeenter,I,enter,187,3,2748.5,601932.3000000119,8056,WL,B,6.0
4,14.276999950408936,learn,45723.000049591064,Wed Jan 14 2026 13:28:51 GMT-0600 (Central Standard Time),604897.0,A,s,I,s,211,3,215.90000000596046,604681.099999994,8056,WL,B,7.0
4,14.510999917984009,learn,45489.00008201599,Wed Jan 14 2026 13:28:51 GMT-0600 (Central Standard Time),605130.599999994,A,st,I,t,220,3,449.5,604681.099999994,8056,WL,B,7.0
4,14.877000093460083,learn,45122.99990653992,Wed Jan 14 2026 13:28:51 GMT-0600 (Central Standard Time),605497.3000000119,A,sta,I,a,346,3,816.2000000178814,604681.099999994,8056,WL,B,7.0
4,15.028000116348267,learn,44971.99988365173,Wed Jan 14 2026 13:28:51 GMT-0600 (Central Standard Time),605647.599999994,A,star,I,r,139,3,966.5,604681.099999994,8056,WL,B,7.0
4,15.759999990463257,learn,44240.00000953674,Wed Jan 14 2026 13:28:51 GMT-0600 (Central Standard Time),606380.3000000119,A,starenter,I,enter,725,3,1699.2000000178814,604681.099999994,8056,WL,B,7.0
4,16.210000038146973,learn,43789.99996185303,Wed Jan 14 2026 13:28:51 GMT-0600 (Central Standard Time),606829.900000006,A,s,I,s,432,3,449.30000001192093,606380.599999994,8056,WL,B,8.0
4,16.444000005722046,learn,43555.999994277954,Wed Jan 14 2026 13:28:51 GMT-0600 (Central Standard Time),607063.3000000119,A,st,I,t,214,3,682.7000000178814,606380.599999994,8056,WL,B,8.0
4,16.64400005340576,learn,43355.99994659424,Wed Jan 14 2026 13:28:51 GMT-0600 (Central Standard Time),607263.5,A,str,I,r,189,3,882.9000000059605,606380.599999994,8056,WL,B,8.0
4,16.877000093460083,learn,43122.99990653992,Wed Jan 14 2026 13:28:51 GMT-0600 (Central Standard Time),607496.5,A,stre,I,e,220,3,1115.9000000059605,606380.599999994,8056,WL,B,8.0
4,17.042999982833862,learn,42957.00001716614,Wed Jan 14 2026 13:28:51 GMT-0600 (Central Standard Time),607663.1999999881,A,stree,I,e,156,3,1282.5999999940395,606380.599999994,8056,WL,B,8.0
4,17.30999994277954,learn,42690.00005722046,Wed Jan 14 2026 13:28:51 GMT-0600 (Central Standard Time),607929.599999994,A,street,I,t,245,3,1549.0,606380.599999994,8056,WL,B,8.0
4,17.542999982833862,learn,42457.00001716614,Wed Jan 14 2026 13:28:51 GMT-0600 (Central Standard Time),608162.8000000119,A,streetenter,I,enter,227,3,1782.2000000178814,606380.599999994,8056,WL,B,8.0
4,18.276000022888184,learn,41723.99997711182,Wed Jan 14 2026 13:28:51 GMT-0600 (Central Standard Time),608896.099999994,A,g,I,g,722,3,732.9000000059605,608163.1999999881,8056,WL,B,9.0
4,18.4760000705719,learn,41523.9999294281,Wed Jan 14 2026 13:28:51 GMT-0600 (Central Standard Time),609096.099999994,A,gr,I,r,179,3,932.9000000059605,608163.1999999881,8056,WL,B,9.0
4,18.64300012588501,learn,41356.99987411499,Wed Jan 14 2026 13:28:51 GMT-0600 (Central Standard Time),609262.8000000119,A,gra,I,a,156,3,1099.6000000238419,608163.1999999881,8056,WL,B,9.0
4,18.842999935150146,learn,41157.00006484985,Wed Jan 14 2026 13:28:51 GMT-0600 (Central Standard Time),609462.6999999881,A,gras,I,s,190,3,1299.5,608163.1999999881,8056,WL,B,9.0
4,18.9760000705719,learn,41023.9999294281,Wed Jan 14 2026 13:28:51 GMT-0600 (Central Standard Time),609596.099999994,A,grass,I,s,118,3,1432.9000000059605,608163.1999999881,8056,WL,B,9.0
4,19.292999982833862,learn,40707.00001716614,Wed Jan 14 2026 13:28:51 GMT-0600 (Central Standard Time),609912.400000006,A,grassenter,I,enter,304,3,1749.2000000178814,608163.1999999881,8056,WL,B,9.0
4,19.592999935150146,learn,40407.00006484985,Wed Jan 14 2026 13:28:51 GMT-0600 (Central Standard Time),610212.3000000119,A,c,I,c,284,3,299.60000002384186,609912.6999999881,8056,WL,B,10.0
4,19.70900011062622,learn,40290.99988937378,Wed Jan 14 2026 13:28:51 GMT-0600 (Central Standard Time),610328.599999994,A,ci,I,i,111,3,415.90000000596046,609912.6999999881,8056,WL,B,10.0
4,19.926000118255615,learn,40073.999881744385,Wed Jan 14 2026 13:28:51 GMT-0600 (Central Standard Time),610545.6999999881,A,cit,I,t,204,3,633.0,609912.6999999881,8056,WL,B,10.0
4,20.042999982833862,learn,39957.00001716614,Wed Jan 14 2026 13:28:51 GMT-0600 (Central Standard Time),610662.5,A,city,I,y,99,3,749.8000000119209,609912.6999999881,8056,WL,B,10.0
4,20.39199995994568,learn,39608.00004005432,Wed Jan 14 2026 13:28:51 GMT-0600 (Central Standard Time),611011.900000006,A,cityenter,I,enter,342,3,1099.2000000178814,609912.6999999881,8056,WL,B,10.0
4,20.89199995994568,learn,39108.00004005432,Wed Jan 14 2026 13:28:51 GMT-0600 (Central Standard Time),611512.099999994,A,c,I,c,480,3,499.90000000596046,611012.1999999881,8056,WL,B,11.0
4,21.075000047683716,learn,38924.999952316284,Wed Jan 14 2026 13:28:51 GMT-0600 (Central Standard Time),611695.099999994,A,ca,I,a,172,3,682.9000000059605,611012.1999999881,8056,WL,B,11.0
4,21.47499990463257,learn,38525.00009536743,Wed Jan 14 2026 13:28:51 GMT-0600 (Central Standard Time),612095.3000000119,A,cab,I,b,381,3,1083.1000000238419,611012.1999999881,8056,WL,B,11.0
4,21.592000007629395,learn,38407.999992370605,Wed Jan 14 2026 13:28:51 GMT-0600 (Central Standard Time),612211.900000006,A,cabi,I,i,108,3,1199.7000000178814,611012.1999999881,8056,WL,B,11.0
4,21.72499990463257,learn,38275.00009536743,Wed Jan 14 2026 13:28:51 GMT-0600 (Central Standard Time),612345.0,A,cabin,I,n,128,3,1332.800000011921,611012.1999999881,8056,WL,B,11.0
4,22.10800004005432,learn,37891.99995994568,Wed Jan 14 2026 13:28:51 GMT-0600 (Central Standard Time),612728.1999999881,A,cabinenter,I,enter,363,3,1716.0,611012.1999999881,8056,WL,B,11.0
4,22.941999912261963,learn,37058.00008773804,Wed Jan 14 2026 13:28:51 GMT-0600 (Central Standard Time),613561.3000000119,A,l,I,l,812,3,832.8000000119209,612728.5,8056,WL,B,12.0
4,23.04100012779236,learn,36958.99987220764,Wed Jan 14 2026 13:28:51 GMT-0600 (Central Standard Time),613661.1999999881,A,la,I,a,91,3,932.6999999880791,612728.5,8056,WL,B,12.0
4,23.174999952316284,learn,36825.000047683716,Wed Jan 14 2026 13:28:51 GMT-0600 (Central Standard Time),613794.6999999881,A,lak,I,k,118,3,1066.199999988079,612728.5,8056,WL,B,12.0
4,23.29100012779236,learn,36708.99987220764,Wed Jan 14 2026 13:28:51 GMT-0600 (Central Standard Time),613911.3000000119,A,lake,I,e,106,3,1182.800000011921,612728.5,8056,WL,B,12.0
4,23.70799994468689,learn,36292.00005531311,Wed Jan 14 2026 13:28:51 GMT-0600 (Central Standard Time),614327.6999999881,A,lakeenter,I,enter,396,3,1599.199999988079,612728.5,8056,WL,B,12.0
4,24.424000024795532,learn,35575.99997520447,Wed Jan 14 2026 13:28:51 GMT-0600 (Central Standard Time),615044.099999994,A,p,I,p,701,3,716.0999999940395,614328.0,8056,WL,B,13.0
4,24.824000120162964,learn,35175.999879837036,Wed Jan 14 2026 13:28:51 GMT-0600 (Central Standard Time),615444.1999999881,A,pi,I,i,392,3,1116.199999988079,614328.0,8056,WL,B,13.0
4,25.058000087738037,learn,34941.99991226196,Wed Jan 14 2026 13:28:51 GMT-0600 (Central Standard Time),615677.400000006,A,pip,I,p,223,3,1349.4000000059605,614328.0,8056,WL,B,13.0
4,25.240999937057495,learn,34759.000062942505,Wed Jan 14 2026 13:28:51 GMT-0600 (Central Standard Time),615860.3000000119,A,pipe,I,e,167,3,1532.300000011921,614328.0,8056,WL,B,13.0
4,25.457000017166138,learn,34542.99998283386,Wed Jan 14 2026 13:28:51 GMT-0600 (Central Standard Time),616077.3000000119,A,pipeenter,I,enter,208,3,1749.300000011921,614328.0,8056,WL,B,13.0
4,25.824000120162964,learn,34175.999879837036,Wed Jan 14 2026 13:28:51 GMT-0600 (Central Standard Time),616443.599999994,A,p,I,p,350,3,365.69999998807907,616077.900000006,8056,WL,B,14.0
4,26.35700011253357,learn,33642.99988746643,Wed Jan 14 2026 13:28:51 GMT-0600 (Central Standard Time),616976.6999999881,A,pu,I,u,528,3,898.7999999821186,616077.900000006,8056,WL,B,14.0
4,26.674000024795532,learn,33325.99997520447,Wed Jan 14 2026 13:28:51 GMT-0600 (Central Standard Time),617293.400000006,A,pup,I,p,300,3,1215.5,616077.900000006,8056,WL,B,14.0
4,26.924000024795532,learn,33075.99997520447,Wed Jan 14 2026 13:28:51 GMT-0600 (Central Standard Time),617543.400000006,A,pupl,I,l,239,3,1465.5,616077.900000006,8056,WL,B,14.0
4,27.322999954223633,learn,32677.000045776367,Wed Jan 14 2026 13:28:51 GMT-0600 (Central Standard Time),617943.3000000119,A,pup,I,backspace,389,3,1865.4000000059605,616077.900000006,8056,WL,B,14.0
4,27.539999961853027,learn,32460.000038146973,Wed Jan 14 2026 13:28:51 GMT-0600 (Central Standard Time),618159.8000000119,A,pupi,I,i,196,3,2081.9000000059605,616077.900000006,8056,WL,B,14.0
4,27.707000017166138,learn,32292.999982833862,Wed Jan 14 2026 13:28:51 GMT-0600 (Central Standard Time),618326.3000000119,A,pupil,I,l,149,3,2248.4000000059605,616077.900000006,8056,WL,B,14.0
4,28.02300000190735,learn,31976.99999809265,Wed Jan 14 2026 13:28:51 GMT-0600 (Central Standard Time),618643.0,A,pupilenter,I,enter,309,3,2565.0999999940395,616077.900000006,8056,WL,B,14.0
4,45.068000078201294,learn,14931.999921798706,Wed Jan 14 2026 13:28:51 GMT-0600 (Central Standard Time),635687.8000000119,A,s,I,s,17026,3,17044.40000000596,618643.400000006,8056,WL,B,15.0
4,45.25099992752075,learn,14749.000072479248,Wed Jan 14 2026 13:28:51 GMT-0600 (Central Standard Time),635871.0,A,st,I,t,164,3,17227.59999999404,618643.400000006,8056,WL,B,15.0
4,45.41799998283386,learn,14582.000017166138,Wed Jan 14 2026 13:28:51 GMT-0600 (Central Standard Time),636037.8000000119,A,sta,I,a,157,3,17394.40000000596,618643.400000006,8056,WL,B,15.0
4,45.551000118255615,learn,14448.999881744385,Wed Jan 14 2026 13:28:51 GMT-0600 (Central Standard Time),636170.900000006,A,star,I,r,118,3,17527.5,618643.400000006,8056,WL,B,15.0
4,46.51699995994568,learn,13483.000040054321,Wed Jan 14 2026 13:28:51 GMT-0600 (Central Standard Time),637137.1999999881,A,starenter,I,enter,946,3,18493.79999998212,618643.400000006,8056,WL,B,15.0
5,1.5160000324249268,learn,60000.0,Wed Jan 14 2026 13:28:51 GMT-0600 (Central Standard Time),704649.5,A,f,I,f,1511,3,1515.9000000059605,703133.599999994,8056,WL,B,1.0
5,1.6329998970031738,learn,60000.0,Wed Jan 14 2026 13:28:51 GMT-0600 (Central Standard Time),704766.1999999881,A,fi,I,i,105,3,1632.5999999940395,703133.599999994,8056,WL,B,1.0
5,2.115999937057495,learn,60000.0,Wed Jan 14 2026 13:28:51 GMT-0600 (Central Standard Time),705249.1999999881,A,fir,I,r,462,3,2115.5999999940395,703133.599999994,8056,WL,B,1.0
5,2.315999984741211,learn,60000.0,Wed Jan 14 2026 13:28:51 GMT-0600 (Central Standard Time),705449.3000000119,A,fire,I,e,179,3,2315.7000000178814,703133.599999994,8056,WL,B,1.0
5,3.2330000400543213,learn,60000.0,Wed Jan 14 2026 13:28:51 GMT-0600 (Central Standard Time),706365.599999994,A,fireenter,I,enter,899,3,3232.0,703133.599999994,8056,WL,B,1.0
5,3.931999921798706,learn,60000.0,Wed Jan 14 2026 13:28:51 GMT-0600 (Central Standard Time),707065.3000000119,A,c,I,c,695,3,699.3000000119209,706366.0,8056,WL,B,2.0
5,4.049000024795532,learn,60000.0,Wed Jan 14 2026 13:28:51 GMT-0600 (Central Standard Time),707182.1999999881,A,cl,I,l,98,3,816.1999999880791,706366.0,8056,WL,B,2.0
5,4.2159998416900635,learn,60000.0,Wed Jan 14 2026 13:28:51 GMT-0600 (Central Standard Time),707348.6999999881,A,clo,I,o,158,3,982.6999999880791,706366.0,8056,WL,B,2.0
5,4.348999977111816,learn,60000.0,Wed Jan 14 2026 13:28:51 GMT-0600 (Central Standard Time),707481.900000006,A,cloc,I,c,120,3,1115.9000000059605,706366.0,8056,WL,B,2.0
5,4.431999921798706,learn,60000.0,Wed Jan 14 2026 13:28:51 GMT-0600 (Central Standard Time),707565.3000000119,A,clock,I,k,67,3,1199.300000011921,706366.0,8056,WL,B,2.0
5,4.914999961853027,learn,60000.0,Wed Jan 14 2026 13:28:51 GMT-0600 (Central Standard Time),708048.400000006,A,clockenter,I,enter,462,3,1682.4000000059605,706366.0,8056,WL,B,2.0
5,5.198999881744385,learn,60000.0,Wed Jan 14 2026 13:28:51 GMT-0600 (Central Standard Time),708331.599999994,A,s,I,s,276,3,282.90000000596046,708048.6999999881,8056,WL,B,3.0
5,5.264999866485596,learn,60000.0,Wed Jan 14 2026 13:28:51 GMT-0600 (Central Standard Time),708398.3000000119,A,sk,I,k,49,3,349.60000002384186,708048.6999999881,8056,WL,B,3.0
5,5.431999921798706,learn,60000.0,Wed Jan 14 2026 13:28:51 GMT-0600 (Central Standard Time),708565.099999994,A,ski,I,i,158,3,516.4000000059605,708048.6999999881,8056,WL,B,3.0
5,5.616999864578247,learn,60000.0,Wed Jan 14 2026 13:28:51 GMT-0600 (Central Standard Time),708749.8000000119,A,skin,I,n,166,3,701.1000000238419,708048.6999999881,8056,WL,B,3.0
5,5.865000009536743,learn,60000.0,Wed Jan 14 2026 13:28:51 GMT-0600 (Central Standard Time),708998.3000000119,A,skinenter,I,enter,238,3,949.6000000238419,708048.6999999881,8056,WL,B,3.0
5,6.5980000495910645,learn,60000.0,Wed Jan 14 2026 13:28:51 GMT-0600 (Central Standard Time),709731.1999999881,A,s,I,s,726,3,732.5999999940395,708998.599999994,8056,WL,B,4.0
5,6.797999858856201,learn,60000.0,Wed Jan 14 2026 13:28:51 GMT-0600 (Central Standard Time),709931.400000006,A,st,I,t,185,3,932.8000000119209,708998.599999994,8056,WL,B,4.0
5,6.980999946594238,learn,60000.0,Wed Jan 14 2026 13:28:51 GMT-0600 (Central Standard Time),710114.0,A,sta,I,a,177,3,1115.4000000059605,708998.599999994,8056,WL,B,4.0
5,7.06499981880188,learn,60000.0,Wed Jan 14 2026 13:28:51 GMT-0600 (Central Standard Time),710197.599999994,A,star,I,r,75,3,1199.0,708998.599999994,8056,WL,B,4.0
5,7.3480000495910645,learn,60000.0,Wed Jan 14 2026 13:28:51 GMT-0600 (Central Standard Time),710481.0,A,start,I,t,271,3,1482.4000000059605,708998.599999994,8056,WL,B,4.0
5,7.830999851226807,learn,60000.0,Wed Jan 14 2026 13:28:51 GMT-0600 (Central Standard Time),710964.099999994,A,star,I,backspace,476,3,1965.5,708998.599999994,8056,WL,B,4.0
5,8.447999954223633,learn,60000.0,Wed Jan 14 2026 13:28:51 GMT-0600 (Central Standard Time),711580.599999994,A,starenter,I,enter,608,3,2582.0,708998.599999994,8056,WL,B,4.0
5,9.46399998664856,learn,60000.0,Wed Jan 14 2026 13:28:51 GMT-0600 (Central Standard Time),712597.099999994,A,a,I,a,1008,3,1016.0999999940395,711581.0,8056,WL,B,5.0
5,9.664000034332275,learn,60000.0,Wed Jan 14 2026 13:28:51 GMT-0600 (Central Standard Time),712796.900000006,A,ar,I,r,191,3,1215.9000000059605,711581.0,8056,WL,B,5.0
5,9.914000034332275,learn,60000.0,Wed Jan 14 2026 13:28:51 GMT-0600 (Central Standard Time),713046.6999999881,A,arm,I,m,239,3,1465.699999988079,711581.0,8056,WL,B,5.0
5,10.29699993133545,learn,60000.0,Wed Jan 14 2026 13:28:51 GMT-0600 (Central Standard Time),713429.8000000119,A,armenter,I,enter,365,3,1848.800000011921,711581.0,8056,WL,B,5.0
5,10.980000019073486,learn,60000.0,Wed Jan 14 2026 13:28:51 GMT-0600 (Central Standard Time),714113.0,A,w,I,w,671,3,683.0,713430.0,8056,WL,B,6.0
5,11.096999883651733,learn,60000.0,Wed Jan 14 2026 13:28:51 GMT-0600 (Central Standard Time),714229.900000006,A,wi,I,i,99,3,799.9000000059605,713430.0,8056,WL,B,6.0
5,11.246999979019165,learn,60000.0,Wed Jan 14 2026 13:28:51 GMT-0600 (Central Standard Time),714379.6999999881,A,wif,I,f,134,3,949.6999999880791,713430.0,8056,WL,B,6.0
5,11.44700002670288,learn,60000.0,Wed Jan 14 2026 13:28:51 GMT-0600 (Central Standard Time),714579.599999994,A,wife,I,e,193,3,1149.5999999940395,713430.0,8056,WL,B,6.0
5,11.812999963760376,learn,60000.0,Wed Jan 14 2026 13:28:51 GMT-0600 (Central Standard Time),714946.400000006,A,wifeenter,I,enter,353,3,1516.4000000059605,713430.0,8056,WL,B,6.0
5,13.44599986076355,learn,60000.0,Wed Jan 14 2026 13:28:51 GMT-0600 (Central Standard Time),716578.8000000119,A,s,I,s,1625,3,1632.2000000178814,714946.599999994,8056,WL,B,7.0
5,13.645999908447266,learn,60000.0,Wed Jan 14 2026 13:28:51 GMT-0600 (Central Standard Time),716778.599999994,A,st,I,t,192,3,1832.0,714946.599999994,8056,WL,B,7.0
5,13.845999956130981,learn,60000.0,Wed Jan 14 2026 13:28:51 GMT-0600 (Central Standard Time),716979.1999999881,A,str,I,r,187,3,2032.5999999940395,714946.599999994,8056,WL,B,7.0
5,14.078999996185303,learn,60000.0,Wed Jan 14 2026 13:28:51 GMT-0600 (Central Standard Time),717212.1999999881,A,stre,I,e,225,3,2265.5999999940395,714946.599999994,8056,WL,B,7.0
5,14.26199984550476,learn,60000.0,Wed Jan 14 2026 13:28:51 GMT-0600 (Central Standard Time),717395.400000006,A,stree,I,e,176,3,2448.800000011921,714946.599999994,8056,WL,B,7.0
5,14.496000051498413,learn,60000.0,Wed Jan 14 2026 13:28:51 GMT-0600 (Central Standard Time),717628.8000000119,A,street,I,t,225,3,2682.2000000178814,714946.599999994,8056,WL,B,7.0
5,14.779000043869019,learn,60000.0,Wed Jan 14 2026 13:28:51 GMT-0600 (Central Standard Time),717912.099999994,A,streetenter,I,enter,263,3,2965.5,714946.599999994,8056,WL,B,7.0
5,15.312000036239624,learn,60000.0,Wed Jan 14 2026 13:28:51 GMT-0600 (Central Standard Time),718445.3000000119,A,g,I,g,516,3,532.8000000119209,717912.5,8056,WL,B,8.0
5,15.529000043869019,learn,60000.0,Wed Jan 14 2026 13:28:51 GMT-0600 (Central Standard Time),718661.6999999881,A,gr,I,r,199,3,749.1999999880791,717912.5,8056,WL,B,8.0
5,15.728999853134155,learn,60000.0,Wed Jan 14 2026 13:28:51 GMT-0600 (Central Standard Time),718861.5,A,gra,I,a,183,3,949.0,717912.5,8056,WL,B,8.0
5,15.911999940872192,learn,60000.0,Wed Jan 14 2026 13:28:51 GMT-0600 (Central Standard Time),719045.099999994,A,gras,I,s,174,3,1132.5999999940395,717912.5,8056,WL,B,8.0
5,16.078999996185303,learn,60000.0,Wed Jan 14 2026 13:28:51 GMT-0600 (Central Standard Time),719211.599999994,A,grass,I,s,150,3,1299.0999999940395,717912.5,8056,WL,B,8.0
5,16.312000036239624,learn,60000.0,Wed Jan 14 2026 13:28:51 GMT-0600 (Central Standard Time),719445.1999999881,A,grassenter,I,enter,216,3,1532.699999988079,717912.5,8056,WL,B,8.0
5,17.65999984741211,learn,60000.0,Wed Jan 14 2026 13:28:51 GMT-0600 (Central Standard Time),720794.5,A,c,I,c,1335,3,1348.9000000059605,719445.599999994,8056,WL,B,9.0
5,17.776999950408936,learn,60000.0,Wed Jan 14 2026 13:28:51 GMT-0600 (Central Standard Time),720911.099999994,A,ci,I,i,106,3,1465.5,719445.599999994,8056,WL,B,9.0
5,18.10800004005432,learn,60000.0,Wed Jan 14 2026 13:28:51 GMT-0600 (Central Standard Time),721242.599999994,A,ciy,I,y,326,3,1797.0,719445.599999994,8056,WL,B,9.0
5,18.710000038146973,learn,60000.0,Wed Jan 14 2026 13:28:51 GMT-0600 (Central Standard Time),721844.099999994,A,ciyenter,I,enter,592,3,2398.5,719445.599999994,8056,WL,B,9.0
5,25.891000032424927,learn,60000.0,Wed Jan 14 2026 13:28:51 GMT-0600 (Central Standard Time),729025.1999999881,A,l,I,l,7168,3,7180.699999988079,721844.5,8056,WL,B,10.0
5,26.006999969482422,learn,60000.0,Wed Jan 14 2026 13:28:51 GMT-0600 (Central Standard Time),729141.599999994,A,la,I,a,98,3,7297.0999999940395,721844.5,8056,WL,B,10.0
5,26.157999992370605,learn,60000.0,Wed Jan 14 2026 13:28:51 GMT-0600 (Central Standard Time),729291.900000006,A,lak,I,k,135,3,7447.4000000059605,721844.5,8056,WL,B,10.0
5,26.257999897003174,learn,60000.0,Wed Jan 14 2026 13:28:51 GMT-0600 (Central Standard Time),729391.900000006,A,lake,I,e,89,3,7547.4000000059605,721844.5,8056,WL,B,10.0
5,26.674000024795532,learn,60000.0,Wed Jan 14 2026 13:28:51 GMT-0600 (Central Standard Time),729808.400000006,A,lakeenter,I,enter,396,3,7963.9000000059605,721844.5,8056,WL,B,10.0
5,27.073999881744385,learn,60000.0,Wed Jan 14 2026 13:28:51 GMT-0600 (Central Standard Time),730208.1999999881,A,c,I,c,379,3,399.39999997615814,729808.8000000119,8056,WL,B,11.0
5,27.674000024795532,learn,60000.0,Wed Jan 14 2026 13:28:51 GMT-0600 (Central Standard Time),730808.400000006,A,ca,I,a,579,3,999.5999999940395,729808.8000000119,8056,WL,B,11.0
5,28.056999921798706,learn,60000.0,Wed Jan 14 2026 13:28:51 GMT-0600 (Central Standard Time),731191.099999994,A,cab,I,b,363,3,1382.2999999821186,729808.8000000119,8056,WL,B,11.0
5,28.174000024795532,learn,60000.0,Wed Jan 14 2026 13:28:51 GMT-0600 (Central Standard Time),731308.0,A,cabi,I,i,110,3,1499.199999988079,729808.8000000119,8056,WL,B,11.0
5,28.289999961853027,learn,60000.0,Wed Jan 14 2026 13:28:51 GMT-0600 (Central Standard Time),731424.5,A,cabin,I,n,104,3,1615.699999988079,729808.8000000119,8056,WL,B,11.0
5,28.68999981880188,learn,60000.0,Wed Jan 14 2026 13:28:51 GMT-0600 (Central Standard Time),731824.400000006,A,cabinenter,I,enter,379,3,2015.5999999940395,729808.8000000119,8056,WL,B,11.0
5,30.424000024795532,learn,60000.0,Wed Jan 14 2026 13:28:51 GMT-0600 (Central Standard Time),733558.099999994,A,p,I,p,1716,3,1733.2999999821186,731824.8000000119,8056,WL,B,12.0
5,30.68999981880188,learn,60000.0,Wed Jan 14 2026 13:28:51 GMT-0600 (Central Standard Time),733824.6999999881,A,pi,I,i,246,3,1999.8999999761581,731824.8000000119,8056,WL,B,12.0
5,30.9229998588562,learn,60000.0,Wed Jan 14 2026 13:28:51 GMT-0600 (Central Standard Time),734056.900000006,A,pip,I,p,212,3,2232.0999999940395,731824.8000000119,8056,WL,B,12.0
5,31.488999843597412,learn,60000.0,Wed Jan 14 2026 13:28:51 GMT-0600 (Central Standard Time),734623.3000000119,A,pipe,I,e,554,3,2798.5,731824.8000000119,8056,WL,B,12.0
5,31.888999938964844,learn,60000.0,Wed Jan 14 2026 13:28:51 GMT-0600 (Central Standard Time),735023.3000000119,A,pipeenter,I,enter,381,3,3198.5,731824.8000000119,8056,WL,B,12.0
5,32.138999938964844,learn,60000.0,Wed Jan 14 2026 13:28:51 GMT-0600 (Central Standard Time),735273.1999999881,A,p,I,p,236,3,249.69999998807907,735023.5,8056,WL,B,13.0
5,32.72199988365173,learn,60000.0,Wed Jan 14 2026 13:28:51 GMT-0600 (Central Standard Time),735856.099999994,A,pu,I,u,562,3,832.5999999940395,735023.5,8056,WL,B,13.0
5,32.92199993133545,learn,60000.0,Wed Jan 14 2026 13:28:51 GMT-0600 (Central Standard Time),736056.400000006,A,pup,I,p,187,3,1032.9000000059605,735023.5,8056,WL,B,13.0
5,33.27199983596802,learn,60000.0,Wed Jan 14 2026 13:28:51 GMT-0600 (Central Standard Time),736406.3000000119,A,pupi,I,i,340,3,1382.800000011921,735023.5,8056,WL,B,13.0
5,33.537999868392944,learn,60000.0,Wed Jan 14 2026 13:28:51 GMT-0600 (Central Standard Time),736672.5,A,pupil,I,l,254,3,1649.0,735023.5,8056,WL,B,13.0
5,33.855000019073486,learn,60000.0,Wed Jan 14 2026 13:28:51 GMT-0600 (Central Standard Time),736989.3000000119,A,pupilenter,I,enter,300,3,1965.800000011921,735023.5,8056,WL,B,13.0
5,55.56499981880188,learn,60000.0,Wed Jan 14 2026 13:28:51 GMT-0600 (Central Standard Time),758699.3000000119,A,s,I,s,21703,3,21709.5,736989.8000000119,8056,WL,B,14.0
5,55.7979998588562,learn,60000.0,Wed Jan 14 2026 13:28:51 GMT-0600 (Central Standard Time),758932.599999994,A,st,I,t,216,3,21942.79999998212,736989.8000000119,8056,WL,B,14.0
5,55.948999881744385,learn,60000.0,Wed Jan 14 2026 13:28:51 GMT-0600 (Central Standard Time),759083.5,A,sta,I,a,144,3,22093.69999998808,736989.8000000119,8056,WL,B,14.0
5,56.11500000953674,learn,60000.0,Wed Jan 14 2026 13:28:51 GMT-0600 (Central Standard Time),759248.900000006,A,star,I,r,145,3,22259.09999999404,736989.8000000119,8056,WL,B,14.0
5,57.0479998588562,learn,60000.0,Wed Jan 14 2026 13:28:51 GMT-0600 (Central Standard Time),760182.0,A,starenter,I,enter,923,3,23192.19999998808,736989.8000000119,8056,WL,B,14.0
5,64.59500002861023,learn,60000.0,Wed Jan 14 2026 13:28:51 GMT-0600 (Central Standard Time),767729.599999994,A,w,I,w,7542,3,7547.199999988079,760182.400000006,8056,WL,B,15.0
6,0.5840001106262207,distr,59415.99988937378,Wed Jan 14 2026 13:28:51 GMT-0600 (Central Standard Time),838391.1999999881,B,b,I,b,565,3,583.0999999940395,837808.099999994,8056,WL,B,1.0
6,0.7999999523162842,distr,59200.000047683716,Wed Jan 14 2026 13:28:51 GMT-0600 (Central Standard Time),838607.6999999881,B,ba,I,a,195,3,799.5999999940395,837808.099999994,8056,WL,B,1.0
6,1.1630001068115234,distr,58836.99989318848,Wed Jan 14 2026 13:28:51 GMT-0600 (Central Standard Time),838970.900000006,B,bab,I,b,212,3,1162.800000011921,837808.099999994,8056,WL,B,1.0
6,1.309999942779541,distr,58690.00005722046,Wed Jan 14 2026 13:28:51 GMT-0600 (Central Standard Time),839117.900000006,B,baby,I,y,142,3,1309.800000011921,837808.099999994,8056,WL,B,1.0
6,2.25,distr,57750.0,Wed Jan 14 2026 13:28:51 GMT-0600 (Central Standard Time),840057.3000000119,B,babyenter,I,enter,919,3,2249.2000000178814,837808.099999994,8056,WL,B,1.0
6,2.615000009536743,distr,57384.99999046326,Wed Jan 14 2026 13:28:51 GMT-0600 (Central Standard Time),840423.6999999881,B,o,I,o,347,3,366.09999999403954,840057.599999994,8056,WL,B,2.0
6,3.115000009536743,distr,56884.99999046326,Wed Jan 14 2026 13:28:51 GMT-0600 (Central Standard Time),840923.599999994,B,oc,I,c,485,3,866.0,840057.599999994,8056,WL,B,2.0
6,3.4149999618530273,distr,56585.00003814697,Wed Jan 14 2026 13:28:51 GMT-0600 (Central Standard Time),841223.400000006,B,oce,I,e,289,3,1165.800000011921,840057.599999994,8056,WL,B,2.0
6,3.5980000495910645,distr,56401.999950408936,Wed Jan 14 2026 13:28:51 GMT-0600 (Central Standard Time),841406.6999999881,B,ocea,I,a,173,3,1349.0999999940395,840057.599999994,8056,WL,B,2.0
6,3.7639999389648438,distr,56236.000061035156,Wed Jan 14 2026 13:28:51 GMT-0600 (Central Standard Time),841573.1999999881,B,ocean,I,n,158,3,1515.5999999940395,840057.599999994,8056,WL,B,2.0
6,4.0309998989105225,distr,55969.00010108948,Wed Jan 14 2026 13:28:51 GMT-0600 (Central Standard Time),841839.900000006,B,oceanenter,I,enter,255,3,1782.300000011921,840057.599999994,8056,WL,B,2.0
6,4.398000001907349,distr,55601.99999809265,Wed Jan 14 2026 13:28:51 GMT-0600 (Central Standard Time),842206.3000000119,B,p,I,p,356,3,366.0,841840.3000000119,8056,WL,B,3.0
6,4.581000089645386,distr,55418.999910354614,Wed Jan 14 2026 13:28:51 GMT-0600 (Central Standard Time),842389.900000006,B,pa,I,a,166,3,549.5999999940395,841840.3000000119,8056,WL,B,3.0
6,4.71399998664856,distr,55286.00001335144,Wed Jan 14 2026 13:28:51 GMT-0600 (Central Standard Time),842523.0,B,pal,I,l,126,3,682.6999999880791,841840.3000000119,8056,WL,B,3.0
6,4.96399998664856,distr,55036.00001335144,Wed Jan 14 2026 13:28:51 GMT-0600 (Central Standard Time),842773.0,B,pala,I,a,241,3,932.6999999880791,841840.3000000119,8056,WL,B,3.0
6,5.313999891281128,distr,54686.00010871887,Wed Jan 14 2026 13:28:51 GMT-0600 (Central Standard Time),843122.900000006,B,palac,I,c,342,3,1282.5999999940395,841840.3000000119,8056,WL,B,3.0
6,5.5309998989105225,distr,54469.00010108948,Wed Jan 14 2026 13:28:51 GMT-0600 (Central Standard Time),843339.400000006,B,palace,I,e,202,3,1499.0999999940395,841840.3000000119,8056,WL,B,3.0
6,6.013999938964844,distr,53986.000061035156,Wed Jan 14 2026 13:28:51 GMT-0600 (Central Standard Time),843822.6999999881,B,palaceenter,I,enter,472,3,1982.3999999761581,841840.3000000119,8056,WL,B,3.0
6,6.697000026702881,distr,53302.99997329712,Wed Jan 14 2026 13:28:51 GMT-0600 (Central Standard Time),844505.8000000119,B,f,I,f,670,3,682.7000000178814,843823.099999994,8056,WL,B,4.0
6,6.897000074386597,distr,53102.9999256134,Wed Jan 14 2026 13:28:51 GMT-0600 (Central Standard Time),844705.6999999881,B,fr,I,r,187,3,882.5999999940395,843823.099999994,8056,WL,B,4.0
6,6.980999946594238,distr,53019.00005340576,Wed Jan 14 2026 13:28:51 GMT-0600 (Central Standard Time),844789.3000000119,B,fri,I,i,74,3,966.2000000178814,843823.099999994,8056,WL,B,4.0
6,7.147000074386597,distr,52852.9999256134,Wed Jan 14 2026 13:28:51 GMT-0600 (Central Standard Time),844955.599999994,B,frie,I,e,159,3,1132.5,843823.099999994,8056,WL,B,4.0
6,7.296999931335449,distr,52703.00006866455,Wed Jan 14 2026 13:28:51 GMT-0600 (Central Standard Time),845105.900000006,B,frien,I,n,137,3,1282.800000011921,843823.099999994,8056,WL,B,4.0
6,7.447000026702881,distr,52552.99997329712,Wed Jan 14 2026 13:28:51 GMT-0600 (Central Standard Time),845255.6999999881,B,frient,I,t,130,3,1432.5999999940395,843823.099999994,8056,WL,B,4.0
6,8.079999923706055,distr,51920.000076293945,Wed Jan 14 2026 13:28:51 GMT-0600 (Central Standard Time),845888.900000006,B,frien,I,backspace,612,3,2065.800000011921,843823.099999994,8056,WL,B,4.0
6,8.413000106811523,distr,51586.99989318848,Wed Jan 14 2026 13:28:51 GMT-0600 (Central Standard Time),846221.6999999881,B,friend,I,d,315,3,2398.5999999940395,843823.099999994,8056,WL,B,4.0
6,8.645999908447266,distr,51354.000091552734,Wed Jan 14 2026 13:28:51 GMT-0600 (Central Standard Time),846455.099999994,B,friendenter,I,enter,215,3,2632.0,843823.099999994,8056,WL,B,4.0
6,10.128999948501587,distr,49871.00005149841,Wed Jan 14 2026 13:28:51 GMT-0600 (Central Standard Time),847937.8000000119,B,c,I,c,1477,3,1482.4000000059605,846455.400000006,8056,WL,B,5.0
6,10.229000091552734,distr,49770.999908447266,Wed Jan 14 2026 13:28:51 GMT-0600 (Central Standard Time),848038.0,B,co,I,o,91,3,1582.5999999940395,846455.400000006,8056,WL,B,5.0
6,10.361999988555908,distr,49638.00001144409,Wed Jan 14 2026 13:28:51 GMT-0600 (Central Standard Time),848171.1999999881,B,coi,I,i,119,3,1715.7999999821186,846455.400000006,8056,WL,B,5.0
6,10.428999900817871,distr,49571.00009918213,Wed Jan 14 2026 13:28:51 GMT-0600 (Central Standard Time),848238.0,B,coin,I,n,57,3,1782.5999999940395,846455.400000006,8056,WL,B,5.0
6,10.979000091552734,distr,49020.999908447266,Wed Jan 14 2026 13:28:51 GMT-0600 (Central Standard Time),848787.5,B,coinenter,I,enter,534,3,2332.0999999940395,846455.400000006,8056,WL,B,5.0
6,14.278000116348267,distr,45721.99988365173,Wed Jan 14 2026 13:28:51 GMT-0600 (Central Standard Time),852086.6999999881,B,s,I,s,3281,3,3298.899999976158,848787.8000000119,8056,WL,B,6.0
6,14.510999917984009,distr,45489.00008201599,Wed Jan 14 2026 13:28:51 GMT-0600 (Central Standard Time),852319.900000006,B,st,I,t,213,3,3532.0999999940395,848787.8000000119,8056,WL,B,6.0
6,14.760999917984009,distr,45239.00008201599,Wed Jan 14 2026 13:28:51 GMT-0600 (Central Standard Time),852569.900000006,B,sto,I,o,237,3,3782.0999999940395,848787.8000000119,8056,WL,B,6.0
6,14.91100001335144,distr,45088.99998664856,Wed Jan 14 2026 13:28:51 GMT-0600 (Central Standard Time),852719.8000000119,B,stor,I,r,130,3,3932.0,848787.8000000119,8056,WL,B,6.0
6,15.07800006866455,distr,44921.99993133545,Wed Jan 14 2026 13:28:51 GMT-0600 (Central Standard Time),852886.400000006,B,storm,I,m,156,3,4098.5999999940395,848787.8000000119,8056,WL,B,6.0
6,15.561000108718872,distr,44438.99989128113,Wed Jan 14 2026 13:28:51 GMT-0600 (Central Standard Time),853369.599999994,B,stormenter,I,enter,462,3,4581.799999982119,848787.8000000119,8056,WL,B,6.0
6,41.22000002861023,distr,18779.99997138977,Wed Jan 14 2026 13:28:51 GMT-0600 (Central Standard Time),879028.400000006,B,b,I,b,25643,3,25658.40000000596,853370.0,8056,WL,B,7.0
6,41.40300011634827,distr,18596.999883651733,Wed Jan 14 2026 13:28:51 GMT-0600 (Central Standard Time),879212.099999994,B,bu,I,u,168,3,25842.09999999404,853370.0,8056,WL,B,7.0
6,41.72000002861023,distr,18279.99997138977,Wed Jan 14 2026 13:28:51 GMT-0600 (Central Standard Time),879528.400000006,B,bui,I,i,295,3,26158.40000000596,853370.0,8056,WL,B,7.0
6,41.918999910354614,distr,18081.000089645386,Wed Jan 14 2026 13:28:51 GMT-0600 (Central Standard Time),879728.0,B,buil,I,l,187,3,26358.0,853370.0,8056,WL,B,7.0
6,42.78500008583069,distr,17214.99991416931,Wed Jan 14 2026 13:28:51 GMT-0600 (Central Standard Time),880594.1999999881,B,build,I,d,861,3,27224.19999998808,853370.0,8056,WL,B,7.0
6,42.920000076293945,distr,17079.999923706055,Wed Jan 14 2026 13:28:51 GMT-0600 (Central Standard Time),880728.8000000119,B,buildi,I,i,130,3,27358.80000001192,853370.0,8056,WL,B,7.0
6,43.069000005722046,distr,16930.999994277954,Wed Jan 14 2026 13:28:51 GMT-0600 (Central Standard Time),880877.599999994,B,buildin,I,n,139,3,27507.59999999404,853370.0,8056,WL,B,7.0
6,43.168999910354614,distr,16831.000089645386,Wed Jan 14 2026 13:28:51 GMT-0600 (Central Standard Time),880977.5,B,building,I,g,94,3,27607.5,853370.0,8056,WL,B,7.0
6,43.78500008583069,distr,16214.999914169312,Wed Jan 14 2026 13:28:51 GMT-0600 (Central Standard Time),881593.900000006,B,buildingenter,I,enter,611,3,28223.90000000596,853370.0,8056,WL,B,7.0
6,48.394999980926514,distr,11605.000019073486,Wed Jan 14 2026 13:28:51 GMT-0600 (Central Standard Time),886203.900000006,B,enter,I,enter,4605,3,4609.5999999940395,881594.3000000119,8056,WL,B,8.0
6,48.59999990463257,distr,11400.000095367432,Wed Jan 14 2026 13:28:51 GMT-0600 (Central Standard Time),886409.1999999881,B,enter,I,enter,193,3,204.89999997615814,886204.3000000119,8056,WL,B,9.0
6,48.83400011062622,distr,11165.99988937378,Wed Jan 14 2026 13:28:51 GMT-0600 (Central Standard Time),886642.400000006,B,enter,I,enter,219,3,232.90000000596046,886409.5,8056,WL,B,10.0
6,49.00099992752075,distr,10999.000072479248,Wed Jan 14 2026 13:28:51 GMT-0600 (Central Standard Time),886809.3000000119,B,enter,I,enter,154,3,166.5,886642.8000000119,8056,WL,B,11.0
6,49.217000007629395,distr,10782.999992370605,Wed Jan 14 2026 13:28:51 GMT-0600 (Central Standard Time),887025.900000006,B,enter,I,enter,203,3,216.2000000178814,886809.6999999881,8056,WL,B,12.0
6,49.41700005531311,distr,10582.99994468689,Wed Jan 14 2026 13:28:51 GMT-0600 (Central Standard Time),887225.900000006,B,enter,I,enter,187,3,199.7000000178814,887026.1999999881,8056,WL,B,13.0
6,49.700000047683716,distr,10299.999952316284,Wed Jan 14 2026 13:28:51 GMT-0600 (Central Standard Time),887509.0,B,enter,I,enter,275,3,282.69999998807907,887226.3000000119,8056,WL,B,14.0
6,49.93300008773804,distr,10066.999912261963,Wed Jan 14 2026 13:28:51 GMT-0600 (Central Standard Time),887742.1999999881,B,enter,I,enter,216,3,232.89999997615814,887509.3000000119,8056,WL,B,15.0
7,1.3660001754760742,immed,58633.999824523926,Wed Jan 14 2026 13:28:51 GMT-0600 (Central Standard Time),908035.900000006,A,c,I,c,1359,3,1366.0,906669.900000006,8056,WL,B,1.0
7,1.5,immed,58500.0,Wed Jan 14 2026 13:28:51 GMT-0600 (Central Standard Time),908169.1999999881,A,ci,I,i,112,3,1499.2999999821186,906669.900000006,8056,WL,B,1.0
7,1.6670000553131104,immed,58332.99994468689,Wed Jan 14 2026 13:28:51 GMT-0600 (Central Standard Time),908336.1999999881,A,cit,I,t,147,3,1666.2999999821186,906669.900000006,8056,WL,B,1.0
7,1.8000001907348633,immed,58199.99980926514,Wed Jan 14 2026 13:28:51 GMT-0600 (Central Standard Time),908469.1999999881,A,city,I,y,116,3,1799.2999999821186,906669.900000006,8056,WL,B,1.0
7,3.3490002155303955,immed,56650.999784469604,Wed Jan 14 2026 13:28:51 GMT-0600 (Central Standard Time),910018.599999994,A,cityenter,I,enter,1543,3,3348.699999988079,906669.900000006,8056,WL,B,1.0
7,3.682000160217285,immed,56317.999839782715,Wed Jan 14 2026 13:28:51 GMT-0600 (Central Standard Time),910351.8000000119,A,s,I,s,313,3,332.90000000596046,910018.900000006,8056,WL,B,2.0
7,3.866000175476074,immed,56133.999824523926,Wed Jan 14 2026 13:28:51 GMT-0600 (Central Standard Time),910535.099999994,A,st,I,t,165,3,516.1999999880791,910018.900000006,8056,WL,B,2.0
7,4.082000017166138,immed,55917.99998283386,Wed Jan 14 2026 13:28:51 GMT-0600 (Central Standard Time),910751.5,A,str,I,r,205,3,732.5999999940395,910018.900000006,8056,WL,B,2.0
7,4.2820000648498535,immed,55717.99993515015,Wed Jan 14 2026 13:28:51 GMT-0600 (Central Standard Time),910951.599999994,A,stre,I,e,189,3,932.6999999880791,910018.900000006,8056,WL,B,2.0
7,4.465000152587891,immed,55534.99984741211,Wed Jan 14 2026 13:28:51 GMT-0600 (Central Standard Time),911134.900000006,A,stree,I,e,164,3,1116.0,910018.900000006,8056,WL,B,2.0
7,4.648000001907349,immed,55351.99999809265,Wed Jan 14 2026 13:28:51 GMT-0600 (Central Standard Time),911318.0,A,street,I,t,172,3,1299.0999999940395,910018.900000006,8056,WL,B,2.0
7,4.882000207901001,immed,55117.999792099,Wed Jan 14 2026 13:28:51 GMT-0600 (Central Standard Time),911551.400000006,A,streetenter,I,enter,214,3,1532.5,910018.900000006,8056,WL,B,2.0
7,6.04800009727478,immed,53951.99990272522,Wed Jan 14 2026 13:28:51 GMT-0600 (Central Standard Time),912717.6999999881,A,g,I,g,1157,3,1165.8999999761581,911551.8000000119,8056,WL,B,3.0
7,6.231000185012817,immed,53768.99981498718,Wed Jan 14 2026 13:28:51 GMT-0600 (Central Standard Time),912900.8000000119,A,gr,I,r,174,3,1349.0,911551.8000000119,8056,WL,B,3.0
7,6.4150002002716064,immed,53584.99979972839,Wed Jan 14 2026 13:28:51 GMT-0600 (Central Standard Time),913084.5,A,gra,I,a,167,3,1532.699999988079,911551.8000000119,8056,WL,B,3.0
7,6.615000009536743,immed,53384.99999046326,Wed Jan 14 2026 13:28:51 GMT-0600 (Central Standard Time),913284.6999999881,A,gras,I,s,192,3,1732.8999999761581,911551.8000000119,8056,WL,B,3.0
7,6.748000144958496,immed,53251.999855041504,Wed Jan 14 2026 13:28:51 GMT-0600 (Central Standard Time),913417.400000006,A,grass,I,s,128,3,1865.5999999940395,911551.8000000119,8056,WL,B,3.0
7,6.998000144958496,immed,53001.999855041504,Wed Jan 14 2026 13:28:51 GMT-0600 (Central Standard Time),913667.1999999881,A,grassenter,I,enter,235,3,2115.399999976158,911551.8000000119,8056,WL,B,3.0
7,7.464000225067139,immed,52535.99977493286,Wed Jan 14 2026 13:28:51 GMT-0600 (Central Standard Time),914134.0,A,w,I,w,457,3,466.30000001192093,913667.6999999881,8056,WL,B,4.0
7,7.564000129699707,immed,52435.99987030029,Wed Jan 14 2026 13:28:51 GMT-0600 (Central Standard Time),914233.6999999881,A,wi,I,i,94,3,566.0,913667.6999999881,8056,WL,B,4.0
7,7.748000144958496,immed,52251.999855041504,Wed Jan 14 2026 13:28:51 GMT-0600 (Central Standard Time),914417.6999999881,A,wif,I,f,171,3,750.0,913667.6999999881,8056,WL,B,4.0
7,7.914000034332275,immed,52085.999965667725,Wed Jan 14 2026 13:28:51 GMT-0600 (Central Standard Time),914583.6999999881,A,wife,I,e,155,3,916.0,913667.6999999881,8056,WL,B,4.0
7,8.13100004196167,immed,51868.99995803833,Wed Jan 14 2026 13:28:51 GMT-0600 (Central Standard Time),914800.5,A,wifeenter,I,enter,196,3,1132.800000011921,913667.6999999881,8056,WL,B,4.0
7,8.44700002670288,immed,51552.99997329712,Wed Jan 14 2026 13:28:51 GMT-0600 (Central Standard Time),915117.0,A,a,I,a,300,3,316.19999998807907,914800.8000000119,8056,WL,B,5.0
7,8.731000185012817,immed,51268.99981498718,Wed Jan 14 2026 13:28:51 GMT-0600 (Central Standard Time),915400.8000000119,A,ar,I,r,262,3,600.0,914800.8000000119,8056,WL,B,5.0
7,8.964000225067139,immed,51035.99977493286,Wed Jan 14 2026 13:28:51 GMT-0600 (Central Standard Time),915633.599999994,A,arm,I,m,212,3,832.7999999821186,914800.8000000119,8056,WL,B,5.0
7,9.214000225067139,immed,50785.99977493286,Wed Jan 14 2026 13:28:51 GMT-0600 (Central Standard Time),915883.1999999881,A,armenter,I,enter,243,3,1082.3999999761581,914800.8000000119,8056,WL,B,5.0
7,10.247000217437744,immed,49752.999782562256,Wed Jan 14 2026 13:28:51 GMT-0600 (Central Standard Time),916916.8000000119,A,f,I,f,1017,3,1033.300000011921,915883.5,8056,WL,B,6.0
7,10.430000066757202,immed,49569.9999332428,Wed Jan 14 2026 13:28:51 GMT-0600 (Central Standard Time),917099.6999999881,A,fi,I,i,176,3,1216.199999988079,915883.5,8056,WL,B,6.0
7,10.547000169754028,immed,49452.99983024597,Wed Jan 14 2026 13:28:51 GMT-0600 (Central Standard Time),917216.3000000119,A,fir,I,r,96,3,1332.800000011921,915883.5,8056,WL,B,6.0
7,10.897000074386597,immed,49102.9999256134,Wed Jan 14 2026 13:28:51 GMT-0600 (Central Standard Time),917566.099999994,A,fire,I,e,332,3,1682.5999999940395,915883.5,8056,WL,B,6.0
7,11.380000114440918,immed,48619.99988555908,Wed Jan 14 2026 13:28:51 GMT-0600 (Central Standard Time),918049.099999994,A,fireenter,I,enter,478,3,2165.5999999940395,915883.5,8056,WL,B,6.0
7,11.980000019073486,immed,48019.999980926514,Wed Jan 14 2026 13:28:51 GMT-0600 (Central Standard Time),918649.099999994,A,s,I,s,587,3,599.7999999821186,918049.3000000119,8056,WL,B,7.0
7,12.09600019454956,immed,47903.99980545044,Wed Jan 14 2026 13:28:51 GMT-0600 (Central Standard Time),918765.8000000119,A,sk,I,k,100,3,716.5,918049.3000000119,8056,WL,B,7.0
7,12.263000011444092,immed,47736.99998855591,Wed Jan 14 2026 13:28:51 GMT-0600 (Central Standard Time),918932.599999994,A,ski,I,i,151,3,883.2999999821186,918049.3000000119,8056,WL,B,7.0
7,12.380000114440918,immed,47619.99988555908,Wed Jan 14 2026 13:28:51 GMT-0600 (Central Standard Time),919049.1999999881,A,skin,I,n,104,3,999.8999999761581,918049.3000000119,8056,WL,B,7.0
7,12.61300015449524,immed,47386.99984550476,Wed Jan 14 2026 13:28:51 GMT-0600 (Central Standard Time),919282.400000006,A,skinenter,I,enter,219,3,1233.0999999940395,918049.3000000119,8056,WL,B,7.0
7,13.729000091552734,immed,46270.999908447266,Wed Jan 14 2026 13:28:51 GMT-0600 (Central Standard Time),920398.6999999881,A,p,I,p,1106,3,1116.0,919282.6999999881,8056,WL,B,8.0
7,13.912000179290771,immed,46087.99982070923,Wed Jan 14 2026 13:28:51 GMT-0600 (Central Standard Time),920582.0,A,pi,I,i,165,3,1299.300000011921,919282.6999999881,8056,WL,B,8.0
7,14.09600019454956,immed,45903.99980545044,Wed Jan 14 2026 13:28:51 GMT-0600 (Central Standard Time),920765.3000000119,A,pip,I,p,167,3,1482.6000000238419,919282.6999999881,8056,WL,B,8.0
7,14.630000114440918,immed,45369.99988555908,Wed Jan 14 2026 13:28:51 GMT-0600 (Central Standard Time),921299.400000006,A,pipe,I,e,527,3,2016.7000000178814,919282.6999999881,8056,WL,B,8.0
7,14.945000171661377,immed,45054.99982833862,Wed Jan 14 2026 13:28:51 GMT-0600 (Central Standard Time),921614.900000006,A,pipeenter,I,enter,297,3,2332.2000000178814,919282.6999999881,8056,WL,B,8.0
7,15.495000123977661,immed,44504.99987602234,Wed Jan 14 2026 13:28:51 GMT-0600 (Central Standard Time),922164.599999994,A,p,I,p,541,3,549.2999999821186,921615.3000000119,8056,WL,B,9.0
7,15.67900013923645,immed,44320.99986076355,Wed Jan 14 2026 13:28:51 GMT-0600 (Central Standard Time),922348.1999999881,A,pu,I,u,176,3,732.8999999761581,921615.3000000119,8056,WL,B,9.0
7,16.41100001335144,immed,43588.99998664856,Wed Jan 14 2026 13:28:51 GMT-0600 (Central Standard Time),923081.099999994,A,pup,I,p,720,3,1465.7999999821186,921615.3000000119,8056,WL,B,9.0
7,16.82800006866455,immed,43171.99993133545,Wed Jan 14 2026 13:28:51 GMT-0600 (Central Standard Time),923497.6999999881,A,pupi,I,i,411,3,1882.3999999761581,921615.3000000119,8056,WL,B,9.0
7,17.028000116348267,immed,42971.99988365173,Wed Jan 14 2026 13:28:51 GMT-0600 (Central Standard Time),923697.400000006,A,pupil,I,l,195,3,2082.0999999940395,921615.3000000119,8056,WL,B,9.0
7,17.478000164031982,immed,42521.99983596802,Wed Jan 14 2026 13:28:51 GMT-0600 (Central Standard Time),924147.5,A,pupilenter,I,enter,435,3,2532.199999988079,921615.3000000119,8056,WL,B,9.0
7,20.794000148773193,immed,39205.99985122681,Wed Jan 14 2026 13:28:51 GMT-0600 (Central Standard Time),927463.099999994,A,l,I,l,3297,3,3315.2999999821186,924147.8000000119,8056,WL,B,10.0
7,20.89400005340576,immed,39105.99994659424,Wed Jan 14 2026 13:28:51 GMT-0600 (Central Standard Time),927563.1999999881,A,la,I,a,85,3,3415.399999976158,924147.8000000119,8056,WL,B,10.0
7,21.04300022125244,immed,38956.99977874756,Wed Jan 14 2026 13:28:51 GMT-0600 (Central Standard Time),927713.0,A,lak,I,k,128,3,3565.199999988079,924147.8000000119,8056,WL,B,10.0
7,21.16000008583069,immed,38839.99991416931,Wed Jan 14 2026 13:28:51 GMT-0600 (Central Standard Time),927829.400000006,A,lake,I,e,107,3,3681.5999999940395,924147.8000000119,8056,WL,B,10.0
7,21.693000078201294,immed,38306.999921798706,Wed Jan 14 2026 13:28:51 GMT-0600 (Central Standard Time),928362.6999999881,A,lakeenter,I,enter,526,3,4214.899999976158,924147.8000000119,8056,WL,B,10.0
7,23.29300022125244,immed,36706.99977874756,Wed Jan 14 2026 13:28:51 GMT-0600 (Central Standard Time),929962.5,A,c,I,c,1586,3,1599.5,928363.0,8056,WL,B,11.0
7,23.426000118255615,immed,36573.999881744385,Wed Jan 14 2026 13:28:51 GMT-0600 (Central Standard Time),930095.6999999881,A,ca,I,a,122,3,1732.699999988079,928363.0,8056,WL,B,11.0
7,23.676000118255615,immed,36323.999881744385,Wed Jan 14 2026 13:28:51 GMT-0600 (Central Standard Time),930345.400000006,A,cab,I,b,245,3,1982.4000000059605,928363.0,8056,WL,B,11.0
7,23.843000173568726,immed,36156.999826431274,Wed Jan 14 2026 13:28:51 GMT-0600 (Central Standard Time),930512.1999999881,A,cabi,I,i,146,3,2149.199999988079,928363.0,8056,WL,B,11.0
7,23.95900011062622,immed,36040.99988937378,Wed Jan 14 2026 13:28:51 GMT-0600 (Central Standard Time),930628.8000000119,A,cabin,I,n,100,3,2265.800000011921,928363.0,8056,WL,B,11.0
7,24.076000213623047,immed,35923.99978637695,Wed Jan 14 2026 13:28:51 GMT-0600 (Central Standard Time),930745.3000000119,A,cabine,I,e,104,3,2382.300000011921,928363.0,8056,WL,B,11.0
7,24.926000118255615,immed,35073.999881744385,Wed Jan 14 2026 13:28:51 GMT-0600 (Central Standard Time),931595.3000000119,A,cabin,I,backspace,835,3,3232.300000011921,928363.0,8056,WL,B,11.0
7,25.592000007629395,immed,34407.999992370605,Wed Jan 14 2026 13:28:51 GMT-0600 (Central Standard Time),932261.6999999881,A,cabinenter,I,enter,657,3,3898.699999988079,928363.0,8056,WL,B,11.0
7,28.824000120162964,immed,31175.999879837036,Wed Jan 14 2026 13:28:51 GMT-0600 (Central Standard Time),935494.099999994,A,s,I,s,3215,3,3232.199999988079,932261.900000006,8056,WL,B,12.0
7,29.02400016784668,immed,30975.99983215332,Wed Jan 14 2026 13:28:51 GMT-0600 (Central Standard Time),935693.900000006,A,st,I,t,182,3,3432.0,932261.900000006,8056,WL,B,12.0
7,29.19100022315979,immed,30808.99977684021,Wed Jan 14 2026 13:28:51 GMT-0600 (Central Standard Time),935860.8000000119,A,sta,I,a,159,3,3598.9000000059605,932261.900000006,8056,WL,B,12.0
7,29.35700011253357,immed,30642.99988746643,Wed Jan 14 2026 13:28:51 GMT-0600 (Central Standard Time),936026.900000006,A,star,I,r,161,3,3765.0,932261.900000006,8056,WL,B,12.0
7,30.724000215530396,immed,29275.999784469604,Wed Jan 14 2026 13:28:51 GMT-0600 (Central Standard Time),937393.099999994,A,starenter,I,enter,1361,3,5131.199999988079,932261.900000006,8056,WL,B,12.0
7,44.40300011634827,immed,15596.999883651733,Wed Jan 14 2026 13:28:51 GMT-0600 (Central Standard Time),951072.400000006,A,c,I,c,13660,3,13679.09999999404,937393.3000000119,8056,WL,B,13.0
7,44.503000020980835,immed,15496.999979019165,Wed Jan 14 2026 13:28:51 GMT-0600 (Central Standard Time),951172.1999999881,A,cl,I,l,92,3,13778.899999976158,937393.3000000119,8056,WL,B,13.0
7,44.70300006866455,immed,15296.99993133545,Wed Jan 14 2026 13:28:51 GMT-0600 (Central Standard Time),951372.3000000119,A,clo,I,o,192,3,13979.0,937393.3000000119,8056,WL,B,13.0
7,45.253000020980835,immed,14746.999979019165,Wed Jan 14 2026 13:28:51 GMT-0600 (Central Standard Time),951922.400000006,A,cloc,I,c,536,3,14529.09999999404,937393.3000000119,8056,WL,B,13.0
7,45.36900019645691,immed,14630.99980354309,Wed Jan 14 2026 13:28:51 GMT-0600 (Central Standard Time),952038.400000006,A,clock,I,k,106,3,14645.09999999404,937393.3000000119,8056,WL,B,13.0
7,46.01900005340576,immed,13980.999946594238,Wed Jan 14 2026 13:28:51 GMT-0600 (Central Standard Time),952688.599999994,A,clockenter,I,enter,638,3,15295.299999982119,937393.3000000119,8056,WL,B,13.0
7,51.717000007629395,immed,8282.999992370605,Wed Jan 14 2026 13:28:51 GMT-0600 (Central Standard Time),958386.8000000119,A,w,I,w,5684,3,5697.800000011921,952689.0,8056,WL,B,14.0
7,51.83400011062622,immed,8165.999889373779,Wed Jan 14 2026 13:28:51 GMT-0600 (Central Standard Time),958503.5,A,wi,I,i,97,3,5814.5,952689.0,8056,WL,B,14.0
7,51.950000047683716,immed,8049.999952316284,Wed Jan 14 2026 13:28:51 GMT-0600 (Central Standard Time),958619.8000000119,A,win,I,n,109,3,5930.800000011921,952689.0,8056,WL,B,14.0
7,52.18400001525879,immed,7815.999984741211,Wed Jan 14 2026 13:28:51 GMT-0600 (Central Standard Time),958853.400000006,A,wind,I,d,225,3,6164.4000000059605,952689.0,8056,WL,B,14.0
7,52.31700015068054,immed,7682.999849319458,Wed Jan 14 2026 13:28:51 GMT-0600 (Central Standard Time),958986.6999999881,A,windo,I,o,119,3,6297.699999988079,952689.0,8056,WL,B,14.0
7,52.85000014305115,immed,7149.9998569488525,Wed Jan 14 2026 13:28:51 GMT-0600 (Central Standard Time),959519.8000000119,A,window,I,w,522,3,6830.800000011921,952689.0,8056,WL,B,14.0
7,53.05000019073486,immed,6949.999809265137,Wed Jan 14 2026 13:28:51 GMT-0600 (Central Standard Time),959719.8000000119,A,windowenter,I,enter,189,3,7030.800000011921,952689.0,8056,WL,B,14.0
7,53.28400015830994,immed,6715.9998416900635,Wed Jan 14 2026 13:28:51 GMT-0600 (Central Standard Time),959953.3000000119,A,d,I,d,221,3,233.2000000178814,959720.099999994,8056,WL,B,15.0
7,53.33400011062622,immed,6665.999889373779,Wed Jan 14 2026 13:28:51 GMT-0600 (Central Standard Time),960003.8000000119,A,do,I,o,43,3,283.7000000178814,959720.099999994,8056,WL,B,15.0
7,54.0,immed,6000.0,Wed Jan 14 2026 13:28:51 GMT-0600 (Central Standard Time),960669.599999994,A,doo,I,o,657,3,949.5,959720.099999994,8056,WL,B,15.0
7,54.23200011253357,immed,5767.999887466431,Wed Jan 14 2026 13:28:51 GMT-0600 (Central Standard Time),960902.5,A,door,I,r,223,3,1182.4000000059605,959720.099999994,8056,WL,B,15.0
7,54.51600003242493,immed,5483.999967575073,Wed Jan 14 2026 13:28:51 GMT-0600 (Central Standard Time),961186.0,A,doorenter,I,enter,262,3,1465.9000000059605,959720.099999994,8056,WL,B,15.0
