block_c,block_dur,condition,countdown,datetime,endtime,list,multichar_response,project,response,response_time,session_number,start_end,starttime,subject_id,task,task_vers,trial
,,,,Wed Sep 24 2025 14:31:50 GMT-0500 (Central Daylight Time),,,,I,space,365,2,,,8056,WL,C,
prac,,0,,Wed Sep 24 2025 14:31:50 GMT-0500 (Central Daylight Time),,NA,b,I,b,7921,2,,,8056,WL,C,1.0
prac,,0,,Wed Sep 24 2025 14:31:50 GMT-0500 (Central Daylight Time),,NA,bo,I,o,178,2,,,8056,WL,C,1.0
prac,,0,,Wed Sep 24 2025 14:31:50 GMT-0500 (Central Daylight Time),,NA,boo,I,o,156,2,,,8056,WL,C,1.0
prac,,0,,Wed Sep 24 2025 14:31:50 GMT-0500 (Central Daylight Time),,NA,boos,I,s,341,2,,,8056,WL,C,1.0
prac,,0,,Wed Sep 24 2025 14:31:50 GMT-0500 (Central Daylight Time),,NA,boost,I,t,150,2,,,8056,WL,C,1.0
prac,,0,,Wed Sep 24 2025 14:31:50 GMT-0500 (Central Daylight Time),,NA,boostenter,I,enter,1704,2,,,8056,WL,C,1.0
1,1.0499999523162842,learn,58950.000047683716,Wed Sep 24 2025 14:31:50 GMT-0500 (Central Daylight Time),128168.60000000894,A,t,I,t,1030,2,1049.5,127119.10000000894,8056,WL,C,1.0
1,1.1989998817443848,learn,58801.000118255615,Wed Sep 24 2025 14:31:50 GMT-0500 (Central Daylight Time),128318.20000000298,A,to,I,o,133,2,1199.0999999940395,127119.10000000894,8056,WL,C,1.0
1,1.3989999294281006,learn,58601.0000705719,Wed Sep 24 2025 14:31:50 GMT-0500 (Central Daylight Time),128518.20000000298,A,tow,I,w,182,2,1399.0999999940395,127119.10000000894,8056,WL,C,1.0
1,1.8659999370574951,learn,58134.000062942505,Wed Sep 24 2025 14:31:50 GMT-0500 (Central Daylight Time),128984.79999999702,A,towe,I,e,447,2,1865.699999988079,127119.10000000894,8056,WL,C,1.0
1,2.0159997940063477,learn,57984.00020599365,Wed Sep 24 2025 14:31:50 GMT-0500 (Central Daylight Time),129134.90000000596,A,tower,I,r,141,2,2015.7999999970198,127119.10000000894,8056,WL,C,1.0
1,3.0989999771118164,learn,56901.00002288818,Wed Sep 24 2025 14:31:50 GMT-0500 (Central Daylight Time),130217.60000000894,A,towerenter,I,enter,1061,2,3098.5,127119.10000000894,8056,WL,C,1.0
1,4.131999969482422,learn,55868.00003051758,Wed Sep 24 2025 14:31:50 GMT-0500 (Central Daylight Time),131250.60000000894,A,b,I,b,1019,2,1032.5,130218.10000000894,8056,WL,C,2.0
1,5.031999826431274,learn,54968.000173568726,Wed Sep 24 2025 14:31:50 GMT-0500 (Central Daylight Time),132150.70000000298,A,bo,I,o,889,2,1932.5999999940395,130218.10000000894,8056,WL,C,2.0
1,5.332000017166138,learn,54667.99998283386,Wed Sep 24 2025 14:31:50 GMT-0500 (Central Daylight Time),132450.5,A,boy,I,y,278,2,2232.3999999910593,130218.10000000894,8056,WL,C,2.0
1,5.847999811172485,learn,54152.000188827515,Wed Sep 24 2025 14:31:50 GMT-0500 (Central Daylight Time),132967.10000000894,A,boyenter,I,enter,499,2,2749.0,130218.10000000894,8056,WL,C,2.0
1,6.547999858856201,learn,53452.0001411438,Wed Sep 24 2025 14:31:50 GMT-0500 (Central Daylight Time),133666.70000000298,A,q,I,q,685,2,699.0,132967.70000000298,8056,WL,C,3.0
1,6.747999906539917,learn,53252.00009346008,Wed Sep 24 2025 14:31:50 GMT-0500 (Central Daylight Time),133866.5,A,qu,I,u,178,2,898.7999999970198,132967.70000000298,8056,WL,C,3.0
1,7.063999891281128,learn,52936.00010871887,Wed Sep 24 2025 14:31:50 GMT-0500 (Central Daylight Time),134183.20000000298,A,que,I,e,307,2,1215.5,132967.70000000298,8056,WL,C,3.0
1,7.2809998989105225,learn,52719.00010108948,Wed Sep 24 2025 14:31:50 GMT-0500 (Central Daylight Time),134399.79999999702,A,quee,I,e,206,2,1432.0999999940395,132967.70000000298,8056,WL,C,3.0
1,7.446999788284302,learn,52553.0002117157,Wed Sep 24 2025 14:31:50 GMT-0500 (Central Daylight Time),134566.20000000298,A,queen,I,n,159,2,1598.5,132967.70000000298,8056,WL,C,3.0
1,8.163999795913696,learn,51836.000204086304,Wed Sep 24 2025 14:31:50 GMT-0500 (Central Daylight Time),135282.70000000298,A,queenenter,I,enter,694,2,2315.0,132967.70000000298,8056,WL,C,3.0
1,10.758999824523926,learn,49241.000175476074,Wed Sep 24 2025 14:31:50 GMT-0500 (Central Daylight Time),137877.90000000596,A,o,I,o,2590,2,2594.7999999970198,135283.10000000894,8056,WL,C,4.0
1,10.931999921798706,learn,49068.000078201294,Wed Sep 24 2025 14:31:50 GMT-0500 (Central Daylight Time),138051.20000000298,A,om,I,m,159,2,2768.0999999940395,135283.10000000894,8056,WL,C,4.0
1,11.129999876022339,learn,48870.00012397766,Wed Sep 24 2025 14:31:50 GMT-0500 (Central Daylight Time),138248.60000000894,A,ome,I,e,176,2,2965.5,135283.10000000894,8056,WL,C,4.0
1,11.962999820709229,learn,48037.00017929077,Wed Sep 24 2025 14:31:50 GMT-0500 (Central Daylight Time),139081.70000000298,A,om,I,backspace,821,2,3798.5999999940395,135283.10000000894,8056,WL,C,4.0
1,12.145999908447266,learn,47854.000091552734,Wed Sep 24 2025 14:31:50 GMT-0500 (Central Daylight Time),139264.90000000596,A,o,I,backspace,163,2,3981.7999999970198,135283.10000000894,8056,WL,C,4.0
1,12.27899980545044,learn,47721.00019454956,Wed Sep 24 2025 14:31:50 GMT-0500 (Central Daylight Time),139398.20000000298,A,,I,backspace,116,2,4115.0999999940395,135283.10000000894,8056,WL,C,4.0
1,13.095999956130981,learn,46904.00004386902,Wed Sep 24 2025 14:31:50 GMT-0500 (Central Daylight Time),140214.70000000298,A,h,I,h,808,2,4931.5999999940395,135283.10000000894,8056,WL,C,4.0
1,13.52899980545044,learn,46471.00019454956,Wed Sep 24 2025 14:31:50 GMT-0500 (Central Daylight Time),140647.70000000298,A,ho,I,o,414,2,5364.5999999940395,135283.10000000894,8056,WL,C,4.0
1,13.76199984550476,learn,46238.00015449524,Wed Sep 24 2025 14:31:50 GMT-0500 (Central Daylight Time),140881.29999999702,A,hom,I,m,223,2,5598.199999988079,135283.10000000894,8056,WL,C,4.0
1,14.061999797821045,learn,45938.000202178955,Wed Sep 24 2025 14:31:50 GMT-0500 (Central Daylight Time),141181.20000000298,A,home,I,e,284,2,5898.0999999940395,135283.10000000894,8056,WL,C,4.0
1,14.394999980926514,learn,45605.000019073486,Wed Sep 24 2025 14:31:50 GMT-0500 (Central Daylight Time),141514.40000000596,A,homeenter,I,enter,320,2,6231.29999999702,135283.10000000894,8056,WL,C,4.0
1,26.108999967575073,learn,33891.00003242493,Wed Sep 24 2025 14:31:50 GMT-0500 (Central Daylight Time),153227.70000000298,A,q,I,q,11692,2,11712.90000000596,141514.79999999702,8056,WL,C,5.0
1,26.324999809265137,learn,33675.00019073486,Wed Sep 24 2025 14:31:50 GMT-0500 (Central Daylight Time),153443.40000000596,A,qu,I,u,210,2,11928.60000000894,141514.79999999702,8056,WL,C,5.0
1,26.574999809265137,learn,33425.00019073486,Wed Sep 24 2025 14:31:50 GMT-0500 (Central Daylight Time),153693.5,A,que,I,e,242,2,12178.70000000298,141514.79999999702,8056,WL,C,5.0
1,26.740999937057495,learn,33259.000062942505,Wed Sep 24 2025 14:31:50 GMT-0500 (Central Daylight Time),153860.29999999702,A,quee,I,e,160,2,12345.5,141514.79999999702,8056,WL,C,5.0
1,26.924999952316284,learn,33075.000047683716,Wed Sep 24 2025 14:31:50 GMT-0500 (Central Daylight Time),154043.70000000298,A,queen,I,n,170,2,12528.90000000596,141514.79999999702,8056,WL,C,5.0
1,27.20799994468689,learn,32792.00005531311,Wed Sep 24 2025 14:31:50 GMT-0500 (Central Daylight Time),154326.90000000596,A,queenenter,I,enter,265,2,12812.10000000894,141514.79999999702,8056,WL,C,5.0
1,47.46799993515015,learn,12532.000064849854,Wed Sep 24 2025 14:31:50 GMT-0500 (Central Daylight Time),174587.0,A,enter,I,enter,20239,2,20259.70000000298,154327.29999999702,8056,WL,C,6.0
1,51.0,learn,9000.0,Wed Sep 24 2025 14:31:50 GMT-0500 (Central Daylight Time),178119.40000000596,A,enter,I,enter,3521,2,3532.0,174587.40000000596,8056,WL,C,7.0
1,51.31699991226196,learn,8683.000087738037,Wed Sep 24 2025 14:31:50 GMT-0500 (Central Daylight Time),178435.90000000596,A,enter,I,enter,302,2,316.1000000089407,178119.79999999702,8056,WL,C,8.0
1,51.68299984931946,learn,8317.000150680542,Wed Sep 24 2025 14:31:50 GMT-0500 (Central Daylight Time),178802.5,A,enter,I,enter,345,2,366.0,178436.5,8056,WL,C,9.0
1,52.0,learn,8000.0,Wed Sep 24 2025 14:31:50 GMT-0500 (Central Daylight Time),179119.0,A,enter,I,enter,307,2,316.0,178803.0,8056,WL,C,10.0
1,52.299999952316284,learn,7700.000047683716,Wed Sep 24 2025 14:31:50 GMT-0500 (Central Daylight Time),179419.20000000298,A,enter,I,enter,287,2,299.79999999701977,179119.40000000596,8056,WL,C,11.0
1,52.51599979400635,learn,7484.000205993652,Wed Sep 24 2025 14:31:50 GMT-0500 (Central Daylight Time),179635.40000000596,A,enter,I,enter,210,2,215.90000000596046,179419.5,8056,WL,C,12.0
1,52.75,learn,7250.0,Wed Sep 24 2025 14:31:50 GMT-0500 (Central Daylight Time),179868.90000000596,A,enter,I,enter,226,2,233.20000000298023,179635.70000000298,8056,WL,C,13.0
1,52.94999980926514,learn,7050.000190734863,Wed Sep 24 2025 14:31:50 GMT-0500 (Central Daylight Time),180068.90000000596,A,enter,I,enter,186,2,199.70000000298023,179869.20000000298,8056,WL,C,14.0
1,53.23299980163574,learn,6767.000198364258,Wed Sep 24 2025 14:31:50 GMT-0500 (Central Daylight Time),180352.0,A,enter,I,enter,273,2,282.8999999910593,180069.10000000894,8056,WL,C,15.0
2,0.7999999523162842,learn,59200.000047683716,Wed Sep 24 2025 14:31:50 GMT-0500 (Central Daylight Time),254311.90000000596,A,b,I,b,783,2,799.4000000059605,253512.5,8056,WL,C,1.0
2,0.9000000953674316,learn,59099.99990463257,Wed Sep 24 2025 14:31:50 GMT-0500 (Central Daylight Time),254412.10000000894,A,bo,I,o,85,2,899.6000000089407,253512.5,8056,WL,C,1.0
2,1.500999927520752,learn,58499.00007247925,Wed Sep 24 2025 14:31:50 GMT-0500 (Central Daylight Time),255012.79999999702,A,bod,I,d,587,2,1500.2999999970198,253512.5,8056,WL,C,1.0
2,1.8499999046325684,learn,58150.00009536743,Wed Sep 24 2025 14:31:50 GMT-0500 (Central Daylight Time),255361.79999999702,A,body,I,y,328,2,1849.2999999970198,253512.5,8056,WL,C,1.0
2,3.0,learn,57000.0,Wed Sep 24 2025 14:31:50 GMT-0500 (Central Daylight Time),256511.79999999702,A,bodyenter,I,enter,1131,2,2999.2999999970198,253512.5,8056,WL,C,1.0
2,3.449000120162964,learn,56550.999879837036,Wed Sep 24 2025 14:31:50 GMT-0500 (Central Daylight Time),256961.60000000894,A,s,I,s,430,2,449.5,256512.10000000894,8056,WL,C,2.0
2,3.5490000247955322,learn,56450.99997520447,Wed Sep 24 2025 14:31:50 GMT-0500 (Central Daylight Time),257061.29999999702,A,sh,I,h,92,2,549.1999999880791,256512.10000000894,8056,WL,C,2.0
2,3.683000087738037,learn,56316.99991226196,Wed Sep 24 2025 14:31:50 GMT-0500 (Central Daylight Time),257194.70000000298,A,sho,I,o,112,2,682.5999999940395,256512.10000000894,8056,WL,C,2.0
2,3.9160001277923584,learn,56083.99987220764,Wed Sep 24 2025 14:31:50 GMT-0500 (Central Daylight Time),257427.79999999702,A,shor,I,r,220,2,915.6999999880791,256512.10000000894,8056,WL,C,2.0
2,4.898999929428101,learn,55101.0000705719,Wed Sep 24 2025 14:31:50 GMT-0500 (Central Daylight Time),258411.0,A,sho,I,backspace,970,2,1898.8999999910593,256512.10000000894,8056,WL,C,2.0
2,6.232000112533569,learn,53767.99988746643,Wed Sep 24 2025 14:31:50 GMT-0500 (Central Daylight Time),259743.70000000298,A,shor,I,r,1315,2,3231.5999999940395,256512.10000000894,8056,WL,C,2.0
2,6.4649999141693115,learn,53535.00008583069,Wed Sep 24 2025 14:31:50 GMT-0500 (Central Daylight Time),259976.79999999702,A,shore,I,e,222,2,3464.699999988079,256512.10000000894,8056,WL,C,2.0
2,6.96399998664856,learn,53036.00001335144,Wed Sep 24 2025 14:31:50 GMT-0500 (Central Daylight Time),260476.40000000596,A,shoreenter,I,enter,493,2,3964.2999999970198,256512.10000000894,8056,WL,C,2.0
2,7.79800009727478,learn,52201.99990272522,Wed Sep 24 2025 14:31:50 GMT-0500 (Central Daylight Time),261309.79999999702,A,c,I,c,817,2,833.0999999940395,260476.70000000298,8056,WL,C,3.0
2,7.930999994277954,learn,52069.000005722046,Wed Sep 24 2025 14:31:50 GMT-0500 (Central Daylight Time),261443.29999999702,A,ca,I,a,121,2,966.5999999940395,260476.70000000298,8056,WL,C,3.0
2,8.197999954223633,learn,51802.00004577637,Wed Sep 24 2025 14:31:50 GMT-0500 (Central Daylight Time),261709.79999999702,A,cat,I,t,251,2,1233.0999999940395,260476.70000000298,8056,WL,C,3.0
2,8.348000049591064,learn,51651.999950408936,Wed Sep 24 2025 14:31:50 GMT-0500 (Central Daylight Time),261859.79999999702,A,catt,I,t,137,2,1383.0999999940395,260476.70000000298,8056,WL,C,3.0
2,8.497999906539917,learn,51502.00009346008,Wed Sep 24 2025 14:31:50 GMT-0500 (Central Daylight Time),262009.79999999702,A,cattl,I,l,137,2,1533.0999999940395,260476.70000000298,8056,WL,C,3.0
2,8.664000034332275,learn,51335.999965667725,Wed Sep 24 2025 14:31:50 GMT-0500 (Central Daylight Time),262176.299999997,A,cattle,I,e,155,2,1699.5999999940395,260476.70000000298,8056,WL,C,3.0
2,8.914000034332275,learn,51085.999965667725,Wed Sep 24 2025 14:31:50 GMT-0500 (Central Daylight Time),262426.10000000894,A,cattleenter,I,enter,238,2,1949.4000000059605,260476.70000000298,8056,WL,C,3.0
2,11.114000082015991,learn,48885.99991798401,Wed Sep 24 2025 14:31:50 GMT-0500 (Central Daylight Time),264625.90000000596,A,s,I,s,2188,2,2199.5,262426.40000000596,8056,WL,C,4.0
2,11.329999923706055,learn,48670.000076293945,Wed Sep 24 2025 14:31:50 GMT-0500 (Central Daylight Time),264842.200000003,A,su,I,u,196,2,2415.7999999970198,262426.40000000596,8056,WL,C,4.0
2,11.564000129699707,learn,48435.99987030029,Wed Sep 24 2025 14:31:50 GMT-0500 (Central Daylight Time),265075.60000000894,A,sug,I,g,220,2,2649.2000000029802,262426.40000000596,8056,WL,C,4.0
2,11.77999997138977,learn,48220.00002861023,Wed Sep 24 2025 14:31:50 GMT-0500 (Central Daylight Time),265291.700000003,A,suga,I,a,211,2,2865.2999999970198,262426.40000000596,8056,WL,C,4.0
2,11.980000019073486,learn,48019.999980926514,Wed Sep 24 2025 14:31:50 GMT-0500 (Central Daylight Time),265491.90000000596,A,sugar,I,r,187,2,3065.5,262426.40000000596,8056,WL,C,4.0
2,12.663000106811523,learn,47336.99989318848,Wed Sep 24 2025 14:31:50 GMT-0500 (Central Daylight Time),266175.10000000894,A,sugarenter,I,enter,674,2,3748.7000000029802,262426.40000000596,8056,WL,C,4.0
2,13.163000106811523,learn,46836.99989318848,Wed Sep 24 2025 14:31:50 GMT-0500 (Central Daylight Time),266675.10000000894,A,h,I,h,480,2,499.70000000298023,266175.40000000596,8056,WL,C,5.0
2,13.263000011444092,learn,46736.99998855591,Wed Sep 24 2025 14:31:50 GMT-0500 (Central Daylight Time),266775.299999997,A,ho,I,o,82,2,599.8999999910593,266175.40000000596,8056,WL,C,5.0
2,13.395999908447266,learn,46604.000091552734,Wed Sep 24 2025 14:31:50 GMT-0500 (Central Daylight Time),266908.200000003,A,hom,I,m,126,2,732.7999999970198,266175.40000000596,8056,WL,C,5.0
2,13.595999956130981,learn,46404.00004386902,Wed Sep 24 2025 14:31:50 GMT-0500 (Central Daylight Time),267107.90000000596,A,home,I,e,193,2,932.5,266175.40000000596,8056,WL,C,5.0
2,13.812999963760376,learn,46187.000036239624,Wed Sep 24 2025 14:31:50 GMT-0500 (Central Daylight Time),267324.60000000894,A,homeenter,I,enter,210,2,1149.2000000029802,266175.40000000596,8056,WL,C,5.0
2,14.578999996185303,learn,45421.0000038147,Wed Sep 24 2025 14:31:50 GMT-0500 (Central Daylight Time),268090.700000003,A,b,I,b,761,2,765.7999999970198,267324.90000000596,8056,WL,C,6.0
2,14.746000051498413,learn,45253.99994850159,Wed Sep 24 2025 14:31:50 GMT-0500 (Central Daylight Time),268257.60000000894,A,bo,I,o,147,2,932.7000000029802,267324.90000000596,8056,WL,C,6.0
2,14.962000131607056,learn,45037.999868392944,Wed Sep 24 2025 14:31:50 GMT-0500 (Central Daylight Time),268474.299999997,A,boy,I,y,212,2,1149.3999999910593,267324.90000000596,8056,WL,C,6.0
2,15.312000036239624,learn,44687.999963760376,Wed Sep 24 2025 14:31:50 GMT-0500 (Central Daylight Time),268824.200000003,A,boyenter,I,enter,338,2,1499.2999999970198,267324.90000000596,8056,WL,C,6.0
2,17.42899990081787,learn,42571.00009918213,Wed Sep 24 2025 14:31:50 GMT-0500 (Central Daylight Time),270940.90000000596,A,q,I,q,2102,2,2116.4000000059605,268824.5,8056,WL,C,7.0
2,17.59500002861023,learn,42404.99997138977,Wed Sep 24 2025 14:31:50 GMT-0500 (Central Daylight Time),271106.90000000596,A,qu,I,u,154,2,2282.4000000059605,268824.5,8056,WL,C,7.0
2,17.84500002861023,learn,42154.99997138977,Wed Sep 24 2025 14:31:50 GMT-0500 (Central Daylight Time),271356.799999997,A,que,I,e,235,2,2532.2999999970198,268824.5,8056,WL,C,7.0
2,18.01099991798401,learn,41989.00008201599,Wed Sep 24 2025 14:31:50 GMT-0500 (Central Daylight Time),271523.10000000894,A,quee,I,e,154,2,2698.6000000089407,268824.5,8056,WL,C,7.0
2,18.17799997329712,learn,41822.00002670288,Wed Sep 24 2025 14:31:50 GMT-0500 (Central Daylight Time),271690.0,A,queen,I,n,147,2,2865.5,268824.5,8056,WL,C,7.0
2,18.49399995803833,learn,41506.00004196167,Wed Sep 24 2025 14:31:50 GMT-0500 (Central Daylight Time),272006.299999997,A,queenenter,I,enter,308,2,3181.7999999970198,268824.5,8056,WL,C,7.0
2,18.811000108718872,learn,41188.99989128113,Wed Sep 24 2025 14:31:50 GMT-0500 (Central Daylight Time),272322.700000003,A,t,I,t,311,2,316.09999999403954,272006.60000000894,8056,WL,C,8.0
2,19.013000011444092,learn,40986.99998855591,Wed Sep 24 2025 14:31:50 GMT-0500 (Central Daylight Time),272524.60000000894,A,to,I,o,195,2,518.0,272006.60000000894,8056,WL,C,8.0
2,19.17799997329712,learn,40822.00002670288,Wed Sep 24 2025 14:31:50 GMT-0500 (Central Daylight Time),272689.60000000894,A,tow,I,w,145,2,683.0,272006.60000000894,8056,WL,C,8.0
2,19.444000005722046,learn,40555.999994277954,Wed Sep 24 2025 14:31:50 GMT-0500 (Central Daylight Time),272956.200000003,A,towe,I,e,253,2,949.5999999940395,272006.60000000894,8056,WL,C,8.0
2,19.74399995803833,learn,40256.00004196167,Wed Sep 24 2025 14:31:50 GMT-0500 (Central Daylight Time),273256.200000003,A,tower,I,r,290,2,1249.5999999940395,272006.60000000894,8056,WL,C,8.0
2,20.05999994277954,learn,39940.00005722046,Wed Sep 24 2025 14:31:50 GMT-0500 (Central Daylight Time),273572.60000000894,A,towerenter,I,enter,309,2,1566.0,272006.60000000894,8056,WL,C,8.0
2,28.95799994468689,learn,31042.00005531311,Wed Sep 24 2025 14:31:50 GMT-0500 (Central Daylight Time),282470.0,A,d,I,d,8882,2,8897.09999999404,273572.90000000596,8056,WL,C,9.0
2,29.141000032424927,learn,30858.999967575073,Wed Sep 24 2025 14:31:50 GMT-0500 (Central Daylight Time),282653.200000003,A,do,I,o,175,2,9080.29999999702,273572.90000000596,8056,WL,C,9.0
2,29.407999992370605,learn,30592.000007629395,Wed Sep 24 2025 14:31:50 GMT-0500 (Central Daylight Time),282919.799999997,A,doc,I,c,257,2,9346.89999999106,273572.90000000596,8056,WL,C,9.0
2,29.69099998474121,learn,30309.00001525879,Wed Sep 24 2025 14:31:50 GMT-0500 (Central Daylight Time),283203.0,A,doct,I,t,271,2,9630.09999999404,273572.90000000596,8056,WL,C,9.0
2,29.841000080108643,learn,30158.999919891357,Wed Sep 24 2025 14:31:50 GMT-0500 (Central Daylight Time),283352.90000000596,A,docto,I,o,139,2,9780.0,273572.90000000596,8056,WL,C,9.0
2,30.056999921798706,learn,29943.000078201294,Wed Sep 24 2025 14:31:50 GMT-0500 (Central Daylight Time),283569.5,A,doctor,I,r,196,2,9996.59999999404,273572.90000000596,8056,WL,C,9.0
2,30.473999977111816,learn,29526.000022888184,Wed Sep 24 2025 14:31:50 GMT-0500 (Central Daylight Time),283986.0,A,doctorenter,I,enter,396,2,10413.09999999404,273572.90000000596,8056,WL,C,9.0
2,35.1560001373291,learn,24843.9998626709,Wed Sep 24 2025 14:31:50 GMT-0500 (Central Daylight Time),288667.700000003,A,l,I,l,4677,2,4681.4000000059605,283986.299999997,8056,WL,C,10.0
2,35.32200002670288,learn,24677.99997329712,Wed Sep 24 2025 14:31:50 GMT-0500 (Central Daylight Time),288834.299999997,A,le,I,e,155,2,4848.0,283986.299999997,8056,WL,C,10.0
2,35.539000034332275,learn,24460.999965667725,Wed Sep 24 2025 14:31:50 GMT-0500 (Central Daylight Time),289051.0,A,let,I,t,196,2,5064.70000000298,283986.299999997,8056,WL,C,10.0
2,35.6560001373291,learn,24343.9998626709,Wed Sep 24 2025 14:31:50 GMT-0500 (Central Daylight Time),289167.90000000596,A,lett,I,t,108,2,5181.600000008941,283986.299999997,8056,WL,C,10.0
2,35.871999979019165,learn,24128.000020980835,Wed Sep 24 2025 14:31:50 GMT-0500 (Central Daylight Time),289384.299999997,A,lette,I,e,206,2,5398.0,283986.299999997,8056,WL,C,10.0
2,35.97200012207031,learn,24027.999877929688,Wed Sep 24 2025 14:31:50 GMT-0500 (Central Daylight Time),289484.200000003,A,letter,I,r,94,2,5497.9000000059605,283986.299999997,8056,WL,C,10.0
2,36.32200002670288,learn,23677.99997329712,Wed Sep 24 2025 14:31:50 GMT-0500 (Central Daylight Time),289834.299999997,A,letterenter,I,enter,329,2,5848.0,283986.299999997,8056,WL,C,10.0
2,50.1010000705719,learn,9898.9999294281,Wed Sep 24 2025 14:31:50 GMT-0500 (Central Daylight Time),303613.299999997,A,w,I,w,13772,2,13778.699999988079,289834.60000000894,8056,WL,C,11.0
2,50.26900005340576,learn,9730.999946594238,Wed Sep 24 2025 14:31:50 GMT-0500 (Central Daylight Time),303781.299999997,A,wh,I,h,159,2,13946.699999988079,289834.60000000894,8056,WL,C,11.0
2,50.551000118255615,learn,9448.999881744385,Wed Sep 24 2025 14:31:50 GMT-0500 (Central Daylight Time),304062.799999997,A,whe,I,e,272,2,14228.199999988079,289834.60000000894,8056,WL,C,11.0
2,50.86800003051758,learn,9131.999969482422,Wed Sep 24 2025 14:31:50 GMT-0500 (Central Daylight Time),304380.60000000894,A,whea,I,a,311,2,14546.0,289834.60000000894,8056,WL,C,11.0
2,51.08400011062622,learn,8915.99988937378,Wed Sep 24 2025 14:31:50 GMT-0500 (Central Daylight Time),304596.299999997,A,wheat,I,t,208,2,14761.699999988079,289834.60000000894,8056,WL,C,11.0
2,52.18400001525879,learn,7815.999984741211,Wed Sep 24 2025 14:31:50 GMT-0500 (Central Daylight Time),305695.799999997,A,wheatenter,I,enter,1082,2,15861.199999988079,289834.60000000894,8056,WL,C,11.0
2,55.348999977111816,learn,4651.000022888184,Wed Sep 24 2025 14:31:50 GMT-0500 (Central Daylight Time),308861.60000000894,A,c,I,c,3151,2,3165.5,305696.10000000894,8056,WL,C,12.0
2,55.699000120162964,learn,4300.999879837036,Wed Sep 24 2025 14:31:50 GMT-0500 (Central Daylight Time),309211.299999997,A,ca,I,a,329,2,3515.199999988079,305696.10000000894,8056,WL,C,12.0
2,56.199000120162964,learn,3800.999879837036,Wed Sep 24 2025 14:31:50 GMT-0500 (Central Daylight Time),309711.5,A,cas,I,s,482,2,4015.3999999910593,305696.10000000894,8056,WL,C,12.0
2,56.949000120162964,learn,3050.999879837036,Wed Sep 24 2025 14:31:50 GMT-0500 (Central Daylight Time),310461.0,A,casl,I,l,735,2,4764.899999991059,305696.10000000894,8056,WL,C,12.0
2,57.21600008010864,learn,2783.9999198913574,Wed Sep 24 2025 14:31:50 GMT-0500 (Central Daylight Time),310727.700000003,A,casle,I,e,257,2,5031.5999999940395,305696.10000000894,8056,WL,C,12.0
2,58.89800000190735,learn,1101.9999980926514,Wed Sep 24 2025 14:31:50 GMT-0500 (Central Daylight Time),312410.5,A,casl,I,backspace,1677,2,6714.399999991059,305696.10000000894,8056,WL,C,12.0
2,59.08200001716614,learn,917.9999828338623,Wed Sep 24 2025 14:31:50 GMT-0500 (Central Daylight Time),312593.700000003,A,cas,I,backspace,172,2,6897.5999999940395,305696.10000000894,8056,WL,C,12.0
2,59.28200006484985,learn,717.9999351501465,Wed Sep 24 2025 14:31:50 GMT-0500 (Central Daylight Time),312794.0,A,ca,I,backspace,180,2,7097.899999991059,305696.10000000894,8056,WL,C,12.0
2,59.431999921798706,learn,568.000078201294,Wed Sep 24 2025 14:31:50 GMT-0500 (Central Daylight Time),312943.700000003,A,c,I,backspace,139,2,7247.5999999940395,305696.10000000894,8056,WL,C,12.0
2,59.61500000953674,learn,384.99999046325684,Wed Sep 24 2025 14:31:50 GMT-0500 (Central Daylight Time),313126.799999997,A,,I,backspace,166,2,7430.699999988079,305696.10000000894,8056,WL,C,12.0
2,60.015000104904175,learn,-15.000104904174805,Wed Sep 24 2025 14:31:50 GMT-0500 (Central Daylight Time),313527.0,A,None,I,None,396,2,7830.899999991059,305696.10000000894,8056,WL,C,12.0
3,0.4659998416900635,learn,59534.00015830994,Wed Sep 24 2025 14:31:50 GMT-0500 (Central Daylight Time),396700.60000000894,A,s,I,s,453,2,466.20000000298023,396234.40000000596,8056,WL,C,1.0
3,0.5499999523162842,learn,59450.000047683716,Wed Sep 24 2025 14:31:50 GMT-0500 (Central Daylight Time),396783.90000000596,A,sh,I,h,65,2,549.5,396234.40000000596,8056,WL,C,1.0
3,0.6329998970031738,learn,59367.000102996826,Wed Sep 24 2025 14:31:50 GMT-0500 (Central Daylight Time),396867.60000000894,A,sho,I,o,70,2,633.2000000029802,396234.40000000596,8056,WL,C,1.0
3,0.7999999523162842,learn,59200.000047683716,Wed Sep 24 2025 14:31:50 GMT-0500 (Central Daylight Time),397033.700000003,A,shor,I,r,155,2,799.2999999970198,396234.40000000596,8056,WL,C,1.0
3,1.7329998016357422,learn,58267.00019836426,Wed Sep 24 2025 14:31:50 GMT-0500 (Central Daylight Time),397967.0,A,shore,I,e,925,2,1732.5999999940395,396234.40000000596,8056,WL,C,1.0
3,2.2659997940063477,learn,57734.00020599365,Wed Sep 24 2025 14:31:50 GMT-0500 (Central Daylight Time),398500.200000003,A,shoreenter,I,enter,519,2,2265.7999999970198,396234.40000000596,8056,WL,C,1.0
3,2.6489999294281006,learn,57351.0000705719,Wed Sep 24 2025 14:31:50 GMT-0500 (Central Daylight Time),398883.5,A,b,I,b,362,2,383.0,398500.5,8056,WL,C,2.0
3,2.732999801635742,learn,57267.00019836426,Wed Sep 24 2025 14:31:50 GMT-0500 (Central Daylight Time),398966.799999997,A,bo,I,o,75,2,466.29999999701977,398500.5,8056,WL,C,2.0
3,3.1659998893737793,learn,56834.00011062622,Wed Sep 24 2025 14:31:50 GMT-0500 (Central Daylight Time),399400.40000000596,A,bod,I,d,415,2,899.9000000059605,398500.5,8056,WL,C,2.0
3,3.2819998264312744,learn,56718.000173568726,Wed Sep 24 2025 14:31:50 GMT-0500 (Central Daylight Time),399516.5,A,body,I,y,109,2,1016.0,398500.5,8056,WL,C,2.0
3,3.681999921798706,learn,56318.000078201294,Wed Sep 24 2025 14:31:50 GMT-0500 (Central Daylight Time),399916.200000003,A,bodyenter,I,enter,385,2,1415.7000000029802,398500.5,8056,WL,C,2.0
3,4.081999778747559,learn,55918.00022125244,Wed Sep 24 2025 14:31:50 GMT-0500 (Central Daylight Time),400315.90000000596,A,n,I,n,393,2,399.20000000298023,399916.700000003,8056,WL,C,3.0
3,4.23199987411499,learn,55768.00012588501,Wed Sep 24 2025 14:31:50 GMT-0500 (Central Daylight Time),400466.5,A,na,I,a,137,2,549.7999999970198,399916.700000003,8056,WL,C,3.0
3,4.331999778747559,learn,55668.00022125244,Wed Sep 24 2025 14:31:50 GMT-0500 (Central Daylight Time),400566.299999997,A,nai,I,i,91,2,649.5999999940395,399916.700000003,8056,WL,C,3.0
3,4.531999826431274,learn,55468.000173568726,Wed Sep 24 2025 14:31:50 GMT-0500 (Central Daylight Time),400766.200000003,A,nail,I,l,183,2,849.5,399916.700000003,8056,WL,C,3.0
3,4.998999834060669,learn,55001.00016593933,Wed Sep 24 2025 14:31:50 GMT-0500 (Central Daylight Time),401232.799999997,A,nailenter,I,enter,455,2,1316.0999999940395,399916.700000003,8056,WL,C,3.0
3,6.447999954223633,learn,53552.00004577637,Wed Sep 24 2025 14:31:50 GMT-0500 (Central Daylight Time),402682.200000003,A,l,I,l,1437,2,1449.0999999940395,401233.10000000894,8056,WL,C,4.0
3,6.615000009536743,learn,53384.99999046326,Wed Sep 24 2025 14:31:50 GMT-0500 (Central Daylight Time),402848.700000003,A,le,I,e,148,2,1615.5999999940395,401233.10000000894,8056,WL,C,4.0
3,6.81499981880188,learn,53185.00018119812,Wed Sep 24 2025 14:31:50 GMT-0500 (Central Daylight Time),403048.799999997,A,let,I,t,188,2,1815.699999988079,401233.10000000894,8056,WL,C,4.0
3,6.9649999141693115,learn,53035.00008583069,Wed Sep 24 2025 14:31:50 GMT-0500 (Central Daylight Time),403198.90000000596,A,lett,I,t,134,2,1965.7999999970198,401233.10000000894,8056,WL,C,4.0
3,7.180999994277954,learn,52819.000005722046,Wed Sep 24 2025 14:31:50 GMT-0500 (Central Daylight Time),403415.40000000596,A,lette,I,e,199,2,2182.2999999970198,401233.10000000894,8056,WL,C,4.0
3,7.247999906539917,learn,52752.00009346008,Wed Sep 24 2025 14:31:50 GMT-0500 (Central Daylight Time),403482.10000000894,A,letter,I,r,46,2,2249.0,401233.10000000894,8056,WL,C,4.0
3,7.681999921798706,learn,52318.000078201294,Wed Sep 24 2025 14:31:50 GMT-0500 (Central Daylight Time),403916.200000003,A,letterenter,I,enter,427,2,2683.0999999940395,401233.10000000894,8056,WL,C,4.0
3,7.98199987411499,learn,52018.00012588501,Wed Sep 24 2025 14:31:50 GMT-0500 (Central Daylight Time),404216.299999997,A,d,I,d,282,2,299.69999998807907,403916.60000000894,8056,WL,C,5.0
3,8.080999851226807,learn,51919.00014877319,Wed Sep 24 2025 14:31:50 GMT-0500 (Central Daylight Time),404314.90000000596,A,do,I,o,78,2,398.29999999701977,403916.60000000894,8056,WL,C,5.0
3,8.21399998664856,learn,51786.00001335144,Wed Sep 24 2025 14:31:50 GMT-0500 (Central Daylight Time),404448.200000003,A,doc,I,c,116,2,531.5999999940395,403916.60000000894,8056,WL,C,5.0
3,8.430999994277954,learn,51569.000005722046,Wed Sep 24 2025 14:31:50 GMT-0500 (Central Daylight Time),404664.799999997,A,doct,I,t,205,2,748.1999999880791,403916.60000000894,8056,WL,C,5.0
3,8.580999851226807,learn,51419.00014877319,Wed Sep 24 2025 14:31:50 GMT-0500 (Central Daylight Time),404815.0,A,docto,I,o,142,2,898.3999999910593,403916.60000000894,8056,WL,C,5.0
3,8.763999938964844,learn,51236.000061035156,Wed Sep 24 2025 14:31:50 GMT-0500 (Central Daylight Time),404997.90000000596,A,doctor,I,r,176,2,1081.2999999970198,403916.60000000894,8056,WL,C,5.0
3,9.129999876022339,learn,50870.00012397766,Wed Sep 24 2025 14:31:50 GMT-0500 (Central Daylight Time),405364.60000000894,A,doctorenter,I,enter,361,2,1448.0,403916.60000000894,8056,WL,C,5.0
3,10.79699993133545,learn,49203.00006866455,Wed Sep 24 2025 14:31:50 GMT-0500 (Central Daylight Time),407030.700000003,A,b,I,b,1650,2,1665.7000000029802,405365.0,8056,WL,C,6.0
3,10.896999835968018,learn,49103.00016403198,Wed Sep 24 2025 14:31:50 GMT-0500 (Central Daylight Time),407130.90000000596,A,bo,I,o,88,2,1765.9000000059605,405365.0,8056,WL,C,6.0
3,11.095999956130981,learn,48904.00004386902,Wed Sep 24 2025 14:31:50 GMT-0500 (Central Daylight Time),407330.60000000894,A,boy,I,y,194,2,1965.6000000089407,405365.0,8056,WL,C,6.0
3,11.345999956130981,learn,48654.00004386902,Wed Sep 24 2025 14:31:50 GMT-0500 (Central Daylight Time),407580.60000000894,A,boyenter,I,enter,243,2,2215.6000000089407,405365.0,8056,WL,C,6.0
3,12.013000011444092,learn,47986.99998855591,Wed Sep 24 2025 14:31:50 GMT-0500 (Central Daylight Time),408247.200000003,A,l,I,l,649,2,666.2999999970198,407580.90000000596,8056,WL,C,7.0
3,12.478999853134155,learn,47521.000146865845,Wed Sep 24 2025 14:31:50 GMT-0500 (Central Daylight Time),408713.60000000894,A,,I,backspace,455,2,1132.7000000029802,407580.90000000596,8056,WL,C,7.0
3,13.428999900817871,learn,46571.00009918213,Wed Sep 24 2025 14:31:50 GMT-0500 (Central Daylight Time),409663.40000000596,A,h,I,h,932,2,2082.5,407580.90000000596,8056,WL,C,7.0
3,13.51199984550476,learn,46488.00015449524,Wed Sep 24 2025 14:31:50 GMT-0500 (Central Daylight Time),409746.5,A,ho,I,o,70,2,2165.5999999940395,407580.90000000596,8056,WL,C,7.0
3,13.678999900817871,learn,46321.00009918213,Wed Sep 24 2025 14:31:50 GMT-0500 (Central Daylight Time),409913.40000000596,A,hom,I,m,155,2,2332.5,407580.90000000596,8056,WL,C,7.0
3,13.828999996185303,learn,46171.0000038147,Wed Sep 24 2025 14:31:50 GMT-0500 (Central Daylight Time),410063.10000000894,A,home,I,e,133,2,2482.2000000029802,407580.90000000596,8056,WL,C,7.0
3,14.928999900817871,learn,45071.00009918213,Wed Sep 24 2025 14:31:50 GMT-0500 (Central Daylight Time),411162.90000000596,A,homeenter,I,enter,1078,2,3582.0,407580.90000000596,8056,WL,C,7.0
3,15.178999900817871,learn,44821.00009918213,Wed Sep 24 2025 14:31:50 GMT-0500 (Central Daylight Time),411412.799999997,A,c,I,c,235,2,249.5,411163.299999997,8056,WL,C,8.0
3,15.327999830245972,learn,44672.00016975403,Wed Sep 24 2025 14:31:50 GMT-0500 (Central Daylight Time),411562.40000000596,A,cm,I,m,145,2,399.1000000089407,411163.299999997,8056,WL,C,8.0
3,15.727999925613403,learn,44272.0000743866,Wed Sep 24 2025 14:31:50 GMT-0500 (Central Daylight Time),411962.5,A,c,I,backspace,388,2,799.2000000029802,411163.299999997,8056,WL,C,8.0
3,15.861999988555908,learn,44138.00001144409,Wed Sep 24 2025 14:31:50 GMT-0500 (Central Daylight Time),412095.90000000596,A,ca,I,a,116,2,932.6000000089407,411163.299999997,8056,WL,C,8.0
3,15.961999893188477,learn,44038.00010681152,Wed Sep 24 2025 14:31:50 GMT-0500 (Central Daylight Time),412195.799999997,A,cam,I,m,87,2,1032.5,411163.299999997,8056,WL,C,8.0
3,16.127999782562256,learn,43872.000217437744,Wed Sep 24 2025 14:31:50 GMT-0500 (Central Daylight Time),412362.299999997,A,camp,I,p,146,2,1199.0,411163.299999997,8056,WL,C,8.0
3,16.710999965667725,learn,43289.000034332275,Wed Sep 24 2025 14:31:50 GMT-0500 (Central Daylight Time),412945.700000003,A,campenter,I,enter,563,2,1782.4000000059605,411163.299999997,8056,WL,C,8.0
3,17.07799983024597,learn,42922.00016975403,Wed Sep 24 2025 14:31:50 GMT-0500 (Central Daylight Time),413312.0,A,c,I,c,349,2,366.0,412946.0,8056,WL,C,9.0
3,17.194999933242798,learn,42805.0000667572,Wed Sep 24 2025 14:31:50 GMT-0500 (Central Daylight Time),413428.90000000596,A,co,I,o,101,2,482.90000000596046,412946.0,8056,WL,C,9.0
3,17.394999980926514,learn,42605.000019073486,Wed Sep 24 2025 14:31:50 GMT-0500 (Central Daylight Time),413628.700000003,A,cor,I,r,186,2,682.7000000029802,412946.0,8056,WL,C,9.0
3,17.643999814987183,learn,42356.00018501282,Wed Sep 24 2025 14:31:50 GMT-0500 (Central Daylight Time),413878.60000000894,A,corn,I,n,241,2,932.6000000089407,412946.0,8056,WL,C,9.0
3,17.92799997329712,learn,42072.00002670288,Wed Sep 24 2025 14:31:50 GMT-0500 (Central Daylight Time),414161.90000000596,A,cornenter,I,enter,272,2,1215.9000000059605,412946.0,8056,WL,C,9.0
3,22.859999895095825,learn,37140.000104904175,Wed Sep 24 2025 14:31:50 GMT-0500 (Central Daylight Time),419093.799999997,A,q,I,q,4924,2,4931.29999999702,414162.5,8056,WL,C,10.0
3,22.97599983215332,learn,37024.00016784668,Wed Sep 24 2025 14:31:50 GMT-0500 (Central Daylight Time),419210.40000000596,A,qu,I,u,110,2,5047.9000000059605,414162.5,8056,WL,C,10.0
3,23.125999927520752,learn,36874.00007247925,Wed Sep 24 2025 14:31:50 GMT-0500 (Central Daylight Time),419360.299999997,A,que,I,e,140,2,5197.79999999702,414162.5,8056,WL,C,10.0
3,23.325999975204468,learn,36674.00002479553,Wed Sep 24 2025 14:31:50 GMT-0500 (Central Daylight Time),419560.299999997,A,quee,I,e,189,2,5397.79999999702,414162.5,8056,WL,C,10.0
3,23.442999839782715,learn,36557.000160217285,Wed Sep 24 2025 14:31:50 GMT-0500 (Central Daylight Time),419676.90000000596,A,queen,I,n,110,2,5514.4000000059605,414162.5,8056,WL,C,10.0
3,23.80900001525879,learn,36190.99998474121,Wed Sep 24 2025 14:31:50 GMT-0500 (Central Daylight Time),420043.200000003,A,queenenter,I,enter,362,2,5880.70000000298,414162.5,8056,WL,C,10.0
3,24.05900001525879,learn,35940.99998474121,Wed Sep 24 2025 14:31:50 GMT-0500 (Central Daylight Time),420293.40000000596,A,h,I,h,235,2,250.0,420043.40000000596,8056,WL,C,11.0
3,24.22599983215332,learn,35774.00016784668,Wed Sep 24 2025 14:31:50 GMT-0500 (Central Daylight Time),420459.799999997,A,ho,I,o,152,2,416.3999999910593,420043.40000000596,8056,WL,C,11.0
3,24.32699990272522,learn,35673.00009727478,Wed Sep 24 2025 14:31:50 GMT-0500 (Central Daylight Time),420561.0,A,hom,I,m,82,2,517.5999999940395,420043.40000000596,8056,WL,C,11.0
3,24.519999980926514,learn,35480.000019073486,Wed Sep 24 2025 14:31:50 GMT-0500 (Central Daylight Time),420754.700000003,A,home,I,e,188,2,711.2999999970198,420043.40000000596,8056,WL,C,11.0
3,25.30900001525879,learn,34690.99998474121,Wed Sep 24 2025 14:31:50 GMT-0500 (Central Daylight Time),421542.90000000596,A,hom,I,backspace,771,2,1499.5,420043.40000000596,8056,WL,C,11.0
3,25.47499990463257,learn,34525.00009536743,Wed Sep 24 2025 14:31:50 GMT-0500 (Central Daylight Time),421709.60000000894,A,ho,I,backspace,150,2,1666.2000000029802,420043.40000000596,8056,WL,C,11.0
3,25.64199995994568,learn,34358.00004005432,Wed Sep 24 2025 14:31:50 GMT-0500 (Central Daylight Time),421875.799999997,A,h,I,backspace,161,2,1832.3999999910593,420043.40000000596,8056,WL,C,11.0
3,25.79199981689453,learn,34208.00018310547,Wed Sep 24 2025 14:31:50 GMT-0500 (Central Daylight Time),422025.90000000596,A,,I,backspace,139,2,1982.5,420043.40000000596,8056,WL,C,11.0
3,25.95799994468689,learn,34042.00005531311,Wed Sep 24 2025 14:31:50 GMT-0500 (Central Daylight Time),422192.60000000894,A,,I,backspace,148,2,2149.2000000029802,420043.40000000596,8056,WL,C,11.0
3,27.357999801635742,learn,32642.000198364258,Wed Sep 24 2025 14:31:50 GMT-0500 (Central Daylight Time),423592.200000003,A,w,I,w,1382,2,3548.7999999970198,420043.40000000596,8056,WL,C,11.0
3,27.54099988937378,learn,32459.00011062622,Wed Sep 24 2025 14:31:50 GMT-0500 (Central Daylight Time),423775.60000000894,A,wh,I,h,165,2,3732.2000000029802,420043.40000000596,8056,WL,C,11.0
3,28.473999977111816,learn,31526.000022888184,Wed Sep 24 2025 14:31:50 GMT-0500 (Central Daylight Time),424708.200000003,A,whe,I,e,918,2,4664.79999999702,420043.40000000596,8056,WL,C,11.0
3,28.70799994468689,learn,31292.00005531311,Wed Sep 24 2025 14:31:50 GMT-0500 (Central Daylight Time),424941.90000000596,A,whea,I,a,218,2,4898.5,420043.40000000596,8056,WL,C,11.0
3,28.890999794006348,learn,31109.000205993652,Wed Sep 24 2025 14:31:50 GMT-0500 (Central Daylight Time),425124.90000000596,A,wheat,I,t,176,2,5081.5,420043.40000000596,8056,WL,C,11.0
3,29.157999992370605,learn,30842.000007629395,Wed Sep 24 2025 14:31:50 GMT-0500 (Central Daylight Time),425391.799999997,A,wheatenter,I,enter,258,2,5348.399999991059,420043.40000000596,8056,WL,C,11.0
3,54.21599984169006,learn,5784.0001583099365,Wed Sep 24 2025 14:31:50 GMT-0500 (Central Daylight Time),450450.5,A,enter,I,enter,25054,2,25058.29999999702,425392.200000003,8056,WL,C,12.0
3,54.66599988937378,learn,5334.000110626221,Wed Sep 24 2025 14:31:50 GMT-0500 (Central Daylight Time),450900.200000003,A,enter,I,enter,444,2,449.40000000596046,450450.799999997,8056,WL,C,13.0
3,54.91599988937378,learn,5084.000110626221,Wed Sep 24 2025 14:31:50 GMT-0500 (Central Daylight Time),451150.40000000596,A,enter,I,enter,241,2,249.90000000596046,450900.5,8056,WL,C,14.0
3,55.31599998474121,learn,4684.000015258789,Wed Sep 24 2025 14:31:50 GMT-0500 (Central Daylight Time),451550.299999997,A,enter,I,enter,384,2,399.59999999403954,451150.700000003,8056,WL,C,15.0
4,0.5329999923706055,learn,59467.000007629395,Wed Sep 24 2025 14:31:50 GMT-0500 (Central Daylight Time),518029.40000000596,A,t,I,t,527,2,533.1000000089407,517496.299999997,8056,WL,C,1.0
4,1.0499999523162842,learn,58950.000047683716,Wed Sep 24 2025 14:31:50 GMT-0500 (Central Daylight Time),518545.90000000596,A,to,I,o,505,2,1049.6000000089407,517496.299999997,8056,WL,C,1.0
4,1.2990000247955322,learn,58700.99997520447,Wed Sep 24 2025 14:31:50 GMT-0500 (Central Daylight Time),518795.799999997,A,tow,I,w,244,2,1299.5,517496.299999997,8056,WL,C,1.0
4,1.5490000247955322,learn,58450.99997520447,Wed Sep 24 2025 14:31:50 GMT-0500 (Central Daylight Time),519045.40000000596,A,towe,I,e,235,2,1549.1000000089407,517496.299999997,8056,WL,C,1.0
4,2.8990001678466797,learn,57100.99983215332,Wed Sep 24 2025 14:31:50 GMT-0500 (Central Daylight Time),520395.40000000596,A,tower,I,r,1336,2,2899.1000000089407,517496.299999997,8056,WL,C,1.0
4,4.248000144958496,learn,55751.999855041504,Wed Sep 24 2025 14:31:50 GMT-0500 (Central Daylight Time),521744.60000000894,A,towerenter,I,enter,1339,2,4248.300000011921,517496.299999997,8056,WL,C,1.0
4,4.664999961853027,learn,55335.00003814697,Wed Sep 24 2025 14:31:50 GMT-0500 (Central Daylight Time),522161.299999997,A,q,I,q,405,2,416.29999999701977,521745.0,8056,WL,C,2.0
4,4.815000057220459,learn,55184.99994277954,Wed Sep 24 2025 14:31:50 GMT-0500 (Central Daylight Time),522311.200000003,A,qu,I,u,140,2,566.2000000029802,521745.0,8056,WL,C,2.0
4,5.0320000648498535,learn,54967.99993515015,Wed Sep 24 2025 14:31:50 GMT-0500 (Central Daylight Time),522528.0,A,que,I,e,199,2,783.0,521745.0,8056,WL,C,2.0
4,5.197999954223633,learn,54802.00004577637,Wed Sep 24 2025 14:31:50 GMT-0500 (Central Daylight Time),522694.40000000596,A,quee,I,e,150,2,949.4000000059605,521745.0,8056,WL,C,2.0
4,5.3480000495910645,learn,54651.999950408936,Wed Sep 24 2025 14:31:50 GMT-0500 (Central Daylight Time),522844.40000000596,A,queen,I,n,136,2,1099.4000000059605,521745.0,8056,WL,C,2.0
4,5.79800009727478,learn,54201.99990272522,Wed Sep 24 2025 14:31:50 GMT-0500 (Central Daylight Time),523294.299999997,A,queenenter,I,enter,434,2,1549.2999999970198,521745.0,8056,WL,C,2.0
4,11.38100004196167,learn,48618.99995803833,Wed Sep 24 2025 14:31:50 GMT-0500 (Central Daylight Time),528876.900000006,A,s,I,s,5576,2,5582.20000000298,523294.700000003,8056,WL,C,3.0
4,11.562999963760376,learn,48437.000036239624,Wed Sep 24 2025 14:31:50 GMT-0500 (Central Daylight Time),529059.1000000089,A,su,I,u,160,2,5764.4000000059605,523294.700000003,8056,WL,C,3.0
4,11.729000091552734,learn,48270.999908447266,Wed Sep 24 2025 14:31:50 GMT-0500 (Central Daylight Time),529225.6000000089,A,sug,I,g,146,2,5930.9000000059605,523294.700000003,8056,WL,C,3.0
4,11.979000091552734,learn,48020.999908447266,Wed Sep 24 2025 14:31:50 GMT-0500 (Central Daylight Time),529475.799999997,A,suga,I,a,229,2,6181.0999999940395,523294.700000003,8056,WL,C,3.0
4,12.213000059127808,learn,47786.99994087219,Wed Sep 24 2025 14:31:50 GMT-0500 (Central Daylight Time),529708.900000006,A,sugar,I,r,226,2,6414.20000000298,523294.700000003,8056,WL,C,3.0
4,12.463000059127808,learn,47536.99994087219,Wed Sep 24 2025 14:31:50 GMT-0500 (Central Daylight Time),529958.799999997,A,sugarenter,I,enter,241,2,6664.0999999940395,523294.700000003,8056,WL,C,3.0
4,12.845999956130981,learn,47154.00004386902,Wed Sep 24 2025 14:31:50 GMT-0500 (Central Daylight Time),530342.0,A,b,I,b,368,2,382.79999999701977,529959.200000003,8056,WL,C,4.0
4,12.962000131607056,learn,47037.999868392944,Wed Sep 24 2025 14:31:50 GMT-0500 (Central Daylight Time),530458.6000000089,A,bo,I,o,97,2,499.40000000596046,529959.200000003,8056,WL,C,4.0
4,13.196000099182129,learn,46803.99990081787,Wed Sep 24 2025 14:31:50 GMT-0500 (Central Daylight Time),530691.900000006,A,boy,I,y,220,2,732.7000000029802,529959.200000003,8056,WL,C,4.0
4,13.495000123977661,learn,46504.99987602234,Wed Sep 24 2025 14:31:50 GMT-0500 (Central Daylight Time),530991.700000003,A,boyenter,I,enter,290,2,1032.5,529959.200000003,8056,WL,C,4.0
4,14.062000036239624,learn,45937.999963760376,Wed Sep 24 2025 14:31:50 GMT-0500 (Central Daylight Time),531558.6000000089,A,h,I,h,551,2,566.6000000089407,530992.0,8056,WL,C,5.0
4,14.17799997329712,learn,45822.00002670288,Wed Sep 24 2025 14:31:50 GMT-0500 (Central Daylight Time),531674.700000003,A,ho,I,o,104,2,682.7000000029802,530992.0,8056,WL,C,5.0
4,14.328999996185303,learn,45671.0000038147,Wed Sep 24 2025 14:31:50 GMT-0500 (Central Daylight Time),531825.0,A,hom,I,m,132,2,833.0,530992.0,8056,WL,C,5.0
4,14.57800006866455,learn,45421.99993133545,Wed Sep 24 2025 14:31:50 GMT-0500 (Central Daylight Time),532074.6000000089,A,home,I,e,244,2,1082.6000000089407,530992.0,8056,WL,C,5.0
4,15.01200008392334,learn,44987.99991607666,Wed Sep 24 2025 14:31:50 GMT-0500 (Central Daylight Time),532507.799999997,A,homeenter,I,enter,420,2,1515.7999999970198,530992.0,8056,WL,C,5.0
4,15.32800006866455,learn,44671.99993133545,Wed Sep 24 2025 14:31:50 GMT-0500 (Central Daylight Time),532824.400000006,A,d,I,d,299,2,316.20000000298023,532508.200000003,8056,WL,C,6.0
4,15.394999980926514,learn,44605.000019073486,Wed Sep 24 2025 14:31:50 GMT-0500 (Central Daylight Time),532891.200000003,A,do,I,o,62,2,383.0,532508.200000003,8056,WL,C,6.0
4,15.59500002861023,learn,44404.99997138977,Wed Sep 24 2025 14:31:50 GMT-0500 (Central Daylight Time),533091.0,A,doc,I,c,187,2,582.7999999970198,532508.200000003,8056,WL,C,6.0
4,15.811000108718872,learn,44188.99989128113,Wed Sep 24 2025 14:31:50 GMT-0500 (Central Daylight Time),533307.5,A,doct,I,t,212,2,799.2999999970198,532508.200000003,8056,WL,C,6.0
4,15.978000164031982,learn,44021.99983596802,Wed Sep 24 2025 14:31:50 GMT-0500 (Central Daylight Time),533474.700000003,A,docto,I,o,146,2,966.5,532508.200000003,8056,WL,C,6.0
4,16.11300015449524,learn,43886.99984550476,Wed Sep 24 2025 14:31:50 GMT-0500 (Central Daylight Time),533608.799999997,A,doctor,I,r,116,2,1100.5999999940395,532508.200000003,8056,WL,C,6.0
4,16.32800006866455,learn,43671.99993133545,Wed Sep 24 2025 14:31:50 GMT-0500 (Central Daylight Time),533824.0,A,doctorenter,I,enter,206,2,1315.7999999970198,532508.200000003,8056,WL,C,6.0
4,16.761000156402588,learn,43238.99984359741,Wed Sep 24 2025 14:31:50 GMT-0500 (Central Daylight Time),534257.5,A,l,I,l,422,2,433.20000000298023,533824.299999997,8056,WL,C,7.0
4,16.92799997329712,learn,43072.00002670288,Wed Sep 24 2025 14:31:50 GMT-0500 (Central Daylight Time),534424.0,A,le,I,e,148,2,599.7000000029802,533824.299999997,8056,WL,C,7.0
4,17.111000061035156,learn,42888.999938964844,Wed Sep 24 2025 14:31:50 GMT-0500 (Central Daylight Time),534607.200000003,A,let,I,t,173,2,782.9000000059605,533824.299999997,8056,WL,C,7.0
4,17.311000108718872,learn,42688.99989128113,Wed Sep 24 2025 14:31:50 GMT-0500 (Central Daylight Time),534807.299999997,A,lett,I,t,183,2,983.0,533824.299999997,8056,WL,C,7.0
4,17.561000108718872,learn,42438.99989128113,Wed Sep 24 2025 14:31:50 GMT-0500 (Central Daylight Time),535057.1000000089,A,lette,I,e,230,2,1232.800000011921,533824.299999997,8056,WL,C,7.0
4,17.627000093460083,learn,42372.99990653992,Wed Sep 24 2025 14:31:50 GMT-0500 (Central Daylight Time),535123.700000003,A,letter,I,r,60,2,1299.4000000059605,533824.299999997,8056,WL,C,7.0
4,18.061000108718872,learn,41938.99989128113,Wed Sep 24 2025 14:31:50 GMT-0500 (Central Daylight Time),535557.1000000089,A,letterenter,I,enter,427,2,1732.800000011921,533824.299999997,8056,WL,C,7.0
4,18.39400005340576,learn,41605.99994659424,Wed Sep 24 2025 14:31:50 GMT-0500 (Central Daylight Time),535890.299999997,A,s,I,s,313,2,332.8999999910593,535557.400000006,8056,WL,C,8.0
4,18.47699999809265,learn,41523.00000190735,Wed Sep 24 2025 14:31:50 GMT-0500 (Central Daylight Time),535973.6000000089,A,sh,I,h,76,2,416.20000000298023,535557.400000006,8056,WL,C,8.0
4,18.5770001411438,learn,41422.9998588562,Wed Sep 24 2025 14:31:50 GMT-0500 (Central Daylight Time),536073.799999997,A,sho,I,o,80,2,516.3999999910593,535557.400000006,8056,WL,C,8.0
4,18.710999965667725,learn,41289.000034332275,Wed Sep 24 2025 14:31:50 GMT-0500 (Central Daylight Time),536206.900000006,A,shor,I,r,116,2,649.5,535557.400000006,8056,WL,C,8.0
4,18.91100001335144,learn,41088.99998664856,Wed Sep 24 2025 14:31:50 GMT-0500 (Central Daylight Time),536407.0,A,short,I,t,184,2,849.5999999940395,535557.400000006,8056,WL,C,8.0
4,19.55999994277954,learn,40440.00005722046,Wed Sep 24 2025 14:31:50 GMT-0500 (Central Daylight Time),537056.5,A,shor,I,backspace,639,2,1499.0999999940395,535557.400000006,8056,WL,C,8.0
4,20.360000133514404,learn,39639.999866485596,Wed Sep 24 2025 14:31:50 GMT-0500 (Central Daylight Time),537856.299999997,A,shore,I,e,782,2,2298.8999999910593,535557.400000006,8056,WL,C,8.0
4,20.64300012588501,learn,39356.99987411499,Wed Sep 24 2025 14:31:50 GMT-0500 (Central Daylight Time),538139.5,A,shoreenter,I,enter,278,2,2582.0999999940395,535557.400000006,8056,WL,C,8.0
4,22.4760000705719,learn,37523.9999294281,Wed Sep 24 2025 14:31:50 GMT-0500 (Central Daylight Time),539972.1000000089,A,b,I,b,1826,2,1832.4000000059605,538139.700000003,8056,WL,C,9.0
4,22.55900001525879,learn,37440.99998474121,Wed Sep 24 2025 14:31:50 GMT-0500 (Central Daylight Time),540055.799999997,A,bo,I,o,66,2,1916.0999999940395,538139.700000003,8056,WL,C,9.0
4,22.87600016593933,learn,37123.99983406067,Wed Sep 24 2025 14:31:50 GMT-0500 (Central Daylight Time),540372.299999997,A,bod,I,d,310,2,2232.5999999940395,538139.700000003,8056,WL,C,9.0
4,23.04200005531311,learn,36957.99994468689,Wed Sep 24 2025 14:31:50 GMT-0500 (Central Daylight Time),540538.799999997,A,body,I,y,146,2,2399.0999999940395,538139.700000003,8056,WL,C,9.0
4,23.442000150680542,learn,36557.99984931946,Wed Sep 24 2025 14:31:50 GMT-0500 (Central Daylight Time),540938.700000003,A,bodyenter,I,enter,388,2,2799.0,538139.700000003,8056,WL,C,9.0
4,25.64199995994568,learn,34358.00004005432,Wed Sep 24 2025 14:31:50 GMT-0500 (Central Daylight Time),543137.900000006,A,c,I,c,2179,2,2198.7999999970198,540939.1000000089,8056,WL,C,10.0
4,25.808000087738037,learn,34191.99991226196,Wed Sep 24 2025 14:31:50 GMT-0500 (Central Daylight Time),543304.799999997,A,ca,I,a,156,2,2365.699999988079,540939.1000000089,8056,WL,C,10.0
4,26.14300012588501,learn,33856.99987411499,Wed Sep 24 2025 14:31:50 GMT-0500 (Central Daylight Time),543639.0,A,cat,I,t,326,2,2699.8999999910593,540939.1000000089,8056,WL,C,10.0
4,26.341000080108643,learn,33658.99991989136,Wed Sep 24 2025 14:31:50 GMT-0500 (Central Daylight Time),543837.799999997,A,catt,I,t,191,2,2898.699999988079,540939.1000000089,8056,WL,C,10.0
4,26.52500009536743,learn,33474.99990463257,Wed Sep 24 2025 14:31:50 GMT-0500 (Central Daylight Time),544020.900000006,A,cattl,I,l,168,2,3081.7999999970198,540939.1000000089,8056,WL,C,10.0
4,26.674999952316284,learn,33325.000047683716,Wed Sep 24 2025 14:31:50 GMT-0500 (Central Daylight Time),544171.1000000089,A,cattle,I,e,145,2,3232.0,540939.1000000089,8056,WL,C,10.0
4,26.95799994468689,learn,33042.00005531311,Wed Sep 24 2025 14:31:50 GMT-0500 (Central Daylight Time),544454.400000006,A,cattleenter,I,enter,275,2,3515.2999999970198,540939.1000000089,8056,WL,C,10.0
4,37.07100009918213,learn,22928.99990081787,Wed Sep 24 2025 14:31:50 GMT-0500 (Central Daylight Time),554567.799999997,A,s,I,s,10095,2,10113.0,544454.799999997,8056,WL,C,11.0
4,37.23800015449524,learn,22761.99984550476,Wed Sep 24 2025 14:31:50 GMT-0500 (Central Daylight Time),554734.400000006,A,su,I,u,149,2,10279.60000000894,544454.799999997,8056,WL,C,11.0
4,37.354000091552734,learn,22645.999908447266,Wed Sep 24 2025 14:31:50 GMT-0500 (Central Daylight Time),554850.700000003,A,sug,I,g,111,2,10395.90000000596,544454.799999997,8056,WL,C,11.0
4,37.55400013923645,learn,22445.99986076355,Wed Sep 24 2025 14:31:50 GMT-0500 (Central Daylight Time),555050.799999997,A,suga,I,a,195,2,10596.0,544454.799999997,8056,WL,C,11.0
4,37.80400013923645,learn,22195.99986076355,Wed Sep 24 2025 14:31:50 GMT-0500 (Central Daylight Time),555300.900000006,A,sugar,I,r,243,2,10846.10000000894,544454.799999997,8056,WL,C,11.0
4,38.25399994850159,learn,21746.000051498413,Wed Sep 24 2025 14:31:50 GMT-0500 (Central Daylight Time),555750.799999997,A,sugarenter,I,enter,441,2,11296.0,544454.799999997,8056,WL,C,11.0
4,41.37000012397766,learn,18629.99987602234,Wed Sep 24 2025 14:31:50 GMT-0500 (Central Daylight Time),558866.400000006,A,w,I,w,3104,2,3115.2000000029802,555751.200000003,8056,WL,C,12.0
4,41.5699999332428,learn,18430.000066757202,Wed Sep 24 2025 14:31:50 GMT-0500 (Central Daylight Time),559066.6000000089,A,wh,I,h,179,2,3315.4000000059605,555751.200000003,8056,WL,C,12.0
4,41.753000020980835,learn,18246.999979019165,Wed Sep 24 2025 14:31:50 GMT-0500 (Central Daylight Time),559249.700000003,A,whe,I,e,163,2,3498.5,555751.200000003,8056,WL,C,12.0
4,41.90300011634827,learn,18096.999883651733,Wed Sep 24 2025 14:31:50 GMT-0500 (Central Daylight Time),559399.6000000089,A,whea,I,a,140,2,3648.4000000059605,555751.200000003,8056,WL,C,12.0
4,42.085999965667725,learn,17914.000034332275,Wed Sep 24 2025 14:31:50 GMT-0500 (Central Daylight Time),559582.799999997,A,wheat,I,t,175,2,3831.5999999940395,555751.200000003,8056,WL,C,12.0
4,42.47000002861023,learn,17529.99997138977,Wed Sep 24 2025 14:31:50 GMT-0500 (Central Daylight Time),559966.1000000089,A,wheatenter,I,enter,376,2,4214.9000000059605,555751.200000003,8056,WL,C,12.0
4,45.35199999809265,learn,14648.000001907349,Wed Sep 24 2025 14:31:50 GMT-0500 (Central Daylight Time),562848.799999997,A,f,I,f,2863,2,2882.2999999970198,559966.5,8056,WL,C,13.0
4,45.50200009346008,learn,14497.999906539917,Wed Sep 24 2025 14:31:50 GMT-0500 (Central Daylight Time),562998.5,A,fl,I,l,142,2,3032.0,559966.5,8056,WL,C,13.0
4,45.66900014877319,learn,14330.999851226807,Wed Sep 24 2025 14:31:50 GMT-0500 (Central Daylight Time),563165.1000000089,A,fla,I,a,151,2,3198.6000000089407,559966.5,8056,WL,C,13.0
4,45.85199999809265,learn,14148.000001907349,Wed Sep 24 2025 14:31:50 GMT-0500 (Central Daylight Time),563348.5,A,flag,I,g,169,2,3382.0,559966.5,8056,WL,C,13.0
4,46.36899995803833,learn,13631.00004196167,Wed Sep 24 2025 14:31:50 GMT-0500 (Central Daylight Time),563865.200000003,A,flagenter,I,enter,497,2,3898.7000000029802,559966.5,8056,WL,C,13.0
4,55.54900002479553,learn,4450.999975204468,Wed Sep 24 2025 14:31:50 GMT-0500 (Central Daylight Time),573045.299999997,A,b,I,b,9164,2,9179.699999988079,563865.6000000089,8056,WL,C,14.0
4,55.71500015258789,learn,4284.999847412109,Wed Sep 24 2025 14:31:50 GMT-0500 (Central Daylight Time),573211.799999997,A,bo,I,o,146,2,9346.199999988079,563865.6000000089,8056,WL,C,14.0
4,56.03200006484985,learn,3967.9999351501465,Wed Sep 24 2025 14:31:50 GMT-0500 (Central Daylight Time),573528.6000000089,A,boy,I,y,298,2,9663.0,563865.6000000089,8056,WL,C,14.0
4,56.38199996948242,learn,3618.000030517578,Wed Sep 24 2025 14:31:50 GMT-0500 (Central Daylight Time),573878.400000006,A,bo,I,backspace,342,2,10012.79999999702,563865.6000000089,8056,WL,C,14.0
4,56.49900007247925,learn,3500.999927520752,Wed Sep 24 2025 14:31:50 GMT-0500 (Central Daylight Time),573994.900000006,A,bod,I,d,112,2,10129.29999999702,563865.6000000089,8056,WL,C,14.0
4,56.63199996948242,learn,3368.000030517578,Wed Sep 24 2025 14:31:50 GMT-0500 (Central Daylight Time),574128.5,A,body,I,y,123,2,10262.89999999106,563865.6000000089,8056,WL,C,14.0
4,60.013999938964844,learn,-13.99993896484375,Wed Sep 24 2025 14:31:50 GMT-0500 (Central Daylight Time),577510.700000003,A,bodyNone,I,None,3378,2,13645.09999999404,563865.6000000089,8056,WL,C,14.0
5,1.6999998092651367,learn,60000.0,Wed Sep 24 2025 14:31:50 GMT-0500 (Central Daylight Time),645806.200000003,A,t,I,t,1692,2,1699.9000000059605,644106.299999997,8056,WL,C,1.0
5,1.8829998970031738,learn,60000.0,Wed Sep 24 2025 14:31:50 GMT-0500 (Central Daylight Time),645989.1000000089,A,to,I,o,168,2,1882.800000011921,644106.299999997,8056,WL,C,1.0
5,2.0329999923706055,learn,60000.0,Wed Sep 24 2025 14:31:50 GMT-0500 (Central Daylight Time),646139.200000003,A,tow,I,w,137,2,2032.9000000059605,644106.299999997,8056,WL,C,1.0
5,2.1989998817443848,learn,60000.0,Wed Sep 24 2025 14:31:50 GMT-0500 (Central Daylight Time),646305.6000000089,A,towe,I,e,155,2,2199.300000011921,644106.299999997,8056,WL,C,1.0
5,2.315999984741211,learn,60000.0,Wed Sep 24 2025 14:31:50 GMT-0500 (Central Daylight Time),646422.200000003,A,tower,I,r,109,2,2315.9000000059605,644106.299999997,8056,WL,C,1.0
5,3.2649998664855957,learn,60000.0,Wed Sep 24 2025 14:31:50 GMT-0500 (Central Daylight Time),647371.900000006,A,towerenter,I,enter,935,2,3265.6000000089407,644106.299999997,8056,WL,C,1.0
5,6.047999858856201,learn,60000.0,Wed Sep 24 2025 14:31:50 GMT-0500 (Central Daylight Time),650154.400000006,A,q,I,q,2771,2,2782.2000000029802,647372.200000003,8056,WL,C,2.0
5,6.164999961853027,learn,60000.0,Wed Sep 24 2025 14:31:50 GMT-0500 (Central Daylight Time),650271.1000000089,A,qh,I,h,99,2,2898.9000000059605,647372.200000003,8056,WL,C,2.0
5,6.2809998989105225,learn,60000.0,Wed Sep 24 2025 14:31:50 GMT-0500 (Central Daylight Time),650387.799999997,A,qhe,I,e,104,2,3015.5999999940395,647372.200000003,8056,WL,C,2.0
5,6.447999954223633,learn,60000.0,Wed Sep 24 2025 14:31:50 GMT-0500 (Central Daylight Time),650554.299999997,A,qhea,I,a,146,2,3182.0999999940395,647372.200000003,8056,WL,C,2.0
5,6.615000009536743,learn,60000.0,Wed Sep 24 2025 14:31:50 GMT-0500 (Central Daylight Time),650721.0,A,qheat,I,t,156,2,3348.7999999970198,647372.200000003,8056,WL,C,2.0
5,7.380999803543091,learn,60000.0,Wed Sep 24 2025 14:31:50 GMT-0500 (Central Daylight Time),651487.299999997,A,qhea,I,backspace,749,2,4115.0999999940395,647372.200000003,8056,WL,C,2.0
5,7.563999891281128,learn,60000.0,Wed Sep 24 2025 14:31:50 GMT-0500 (Central Daylight Time),651670.5,A,qhe,I,backspace,175,2,4298.29999999702,647372.200000003,8056,WL,C,2.0
5,7.730999946594238,learn,60000.0,Wed Sep 24 2025 14:31:50 GMT-0500 (Central Daylight Time),651837.0,A,qh,I,backspace,152,2,4464.79999999702,647372.200000003,8056,WL,C,2.0
5,7.880999803543091,learn,60000.0,Wed Sep 24 2025 14:31:50 GMT-0500 (Central Daylight Time),651987.200000003,A,q,I,backspace,137,2,4615.0,647372.200000003,8056,WL,C,2.0
5,8.04699993133545,learn,60000.0,Wed Sep 24 2025 14:31:50 GMT-0500 (Central Daylight Time),652153.700000003,A,,I,backspace,146,2,4781.5,647372.200000003,8056,WL,C,2.0
5,8.146999835968018,learn,60000.0,Wed Sep 24 2025 14:31:50 GMT-0500 (Central Daylight Time),652253.900000006,A,w,I,w,92,2,4881.70000000298,647372.200000003,8056,WL,C,2.0
5,8.27999997138977,learn,60000.0,Wed Sep 24 2025 14:31:50 GMT-0500 (Central Daylight Time),652386.700000003,A,wh,I,h,127,2,5014.5,647372.200000003,8056,WL,C,2.0
5,8.679999828338623,learn,60000.0,Wed Sep 24 2025 14:31:50 GMT-0500 (Central Daylight Time),652786.700000003,A,whe,I,e,395,2,5414.5,647372.200000003,8056,WL,C,2.0
5,8.829999923706055,learn,60000.0,Wed Sep 24 2025 14:31:50 GMT-0500 (Central Daylight Time),652936.700000003,A,whea,I,a,140,2,5564.5,647372.200000003,8056,WL,C,2.0
5,9.063999891281128,learn,60000.0,Wed Sep 24 2025 14:31:50 GMT-0500 (Central Daylight Time),653170.299999997,A,wheat,I,t,213,2,5798.0999999940395,647372.200000003,8056,WL,C,2.0
5,9.379999876022339,learn,60000.0,Wed Sep 24 2025 14:31:50 GMT-0500 (Central Daylight Time),653486.700000003,A,wheatenter,I,enter,300,2,6114.5,647372.200000003,8056,WL,C,2.0
5,10.395999908447266,learn,60000.0,Wed Sep 24 2025 14:31:50 GMT-0500 (Central Daylight Time),654502.799999997,A,q,I,q,1008,2,1015.7999999970198,653487.0,8056,WL,C,3.0
5,10.562999963760376,learn,60000.0,Wed Sep 24 2025 14:31:50 GMT-0500 (Central Daylight Time),654669.700000003,A,qu,I,u,160,2,1182.7000000029802,653487.0,8056,WL,C,3.0
5,10.746999979019165,learn,60000.0,Wed Sep 24 2025 14:31:50 GMT-0500 (Central Daylight Time),654853.1000000089,A,que,I,e,169,2,1366.1000000089407,653487.0,8056,WL,C,3.0
5,10.929999828338623,learn,60000.0,Wed Sep 24 2025 14:31:50 GMT-0500 (Central Daylight Time),655036.200000003,A,quee,I,e,177,2,1549.2000000029802,653487.0,8056,WL,C,3.0
5,11.095999956130981,learn,60000.0,Wed Sep 24 2025 14:31:50 GMT-0500 (Central Daylight Time),655202.799999997,A,queen,I,n,154,2,1715.7999999970198,653487.0,8056,WL,C,3.0
5,11.546000003814697,learn,60000.0,Wed Sep 24 2025 14:31:50 GMT-0500 (Central Daylight Time),655652.6000000089,A,queenenter,I,enter,444,2,2165.6000000089407,653487.0,8056,WL,C,3.0
5,12.312000036239624,learn,60000.0,Wed Sep 24 2025 14:31:50 GMT-0500 (Central Daylight Time),656418.799999997,A,b,I,b,762,2,765.7999999970198,655653.0,8056,WL,C,4.0
5,12.607999801635742,learn,60000.0,Wed Sep 24 2025 14:31:50 GMT-0500 (Central Daylight Time),656714.0,A,bo,I,o,290,2,1061.0,655653.0,8056,WL,C,4.0
5,12.73199987411499,learn,60000.0,Wed Sep 24 2025 14:31:50 GMT-0500 (Central Daylight Time),656838.799999997,A,boy,I,y,115,2,1185.7999999970198,655653.0,8056,WL,C,4.0
5,13.19599986076355,learn,60000.0,Wed Sep 24 2025 14:31:50 GMT-0500 (Central Daylight Time),657302.1000000089,A,boyenter,I,enter,454,2,1649.1000000089407,655653.0,8056,WL,C,4.0
5,14.727999925613403,learn,60000.0,Wed Sep 24 2025 14:31:50 GMT-0500 (Central Daylight Time),658835.200000003,A,l,I,l,1520,2,1532.7000000029802,657302.5,8056,WL,C,5.0
5,14.893999814987183,learn,60000.0,Wed Sep 24 2025 14:31:50 GMT-0500 (Central Daylight Time),659001.700000003,A,le,I,e,154,2,1699.2000000029802,657302.5,8056,WL,C,5.0
5,15.060999870300293,learn,60000.0,Wed Sep 24 2025 14:31:50 GMT-0500 (Central Daylight Time),659168.400000006,A,let,I,t,156,2,1865.9000000059605,657302.5,8056,WL,C,5.0
5,15.24399995803833,learn,60000.0,Wed Sep 24 2025 14:31:50 GMT-0500 (Central Daylight Time),659351.700000003,A,lett,I,t,165,2,2049.2000000029802,657302.5,8056,WL,C,5.0
5,15.510999917984009,learn,60000.0,Wed Sep 24 2025 14:31:50 GMT-0500 (Central Daylight Time),659618.1000000089,A,lette,I,e,254,2,2315.6000000089407,657302.5,8056,WL,C,5.0
5,15.543999910354614,learn,60000.0,Wed Sep 24 2025 14:31:50 GMT-0500 (Central Daylight Time),659651.400000006,A,letter,I,r,27,2,2348.9000000059605,657302.5,8056,WL,C,5.0
5,16.259999990463257,learn,60000.0,Wed Sep 24 2025 14:31:50 GMT-0500 (Central Daylight Time),660367.700000003,A,letterenter,I,enter,700,2,3065.2000000029802,657302.5,8056,WL,C,5.0
5,17.55999994277954,learn,60000.0,Wed Sep 24 2025 14:31:50 GMT-0500 (Central Daylight Time),661667.400000006,A,c,I,c,1287,2,1299.2999999970198,660368.1000000089,8056,WL,C,6.0
5,17.709999799728394,learn,60000.0,Wed Sep 24 2025 14:31:50 GMT-0500 (Central Daylight Time),661817.5,A,co,I,o,130,2,1449.3999999910593,660368.1000000089,8056,WL,C,6.0
5,17.842999935150146,learn,60000.0,Wed Sep 24 2025 14:31:50 GMT-0500 (Central Daylight Time),661950.700000003,A,cor,I,r,124,2,1582.5999999940395,660368.1000000089,8056,WL,C,6.0
5,17.97699999809265,learn,60000.0,Wed Sep 24 2025 14:31:50 GMT-0500 (Central Daylight Time),662084.200000003,A,corn,I,n,120,2,1716.0999999940395,660368.1000000089,8056,WL,C,6.0
5,18.542999982833862,learn,60000.0,Wed Sep 24 2025 14:31:50 GMT-0500 (Central Daylight Time),662650.6000000089,A,cornenter,I,enter,554,2,2282.5,660368.1000000089,8056,WL,C,6.0
5,19.14299988746643,learn,60000.0,Wed Sep 24 2025 14:31:50 GMT-0500 (Central Daylight Time),663250.200000003,A,f,I,f,579,2,599.2999999970198,662650.900000006,8056,WL,C,7.0
5,19.259999990463257,learn,60000.0,Wed Sep 24 2025 14:31:50 GMT-0500 (Central Daylight Time),663366.900000006,A,fl,I,l,108,2,716.0,662650.900000006,8056,WL,C,7.0
5,19.40999984741211,learn,60000.0,Wed Sep 24 2025 14:31:50 GMT-0500 (Central Daylight Time),663517.400000006,A,fla,I,a,144,2,866.5,662650.900000006,8056,WL,C,7.0
5,19.758999824523926,learn,60000.0,Wed Sep 24 2025 14:31:50 GMT-0500 (Central Daylight Time),663866.799999997,A,flag,I,g,345,2,1215.8999999910593,662650.900000006,8056,WL,C,7.0
5,20.325999975204468,learn,60000.0,Wed Sep 24 2025 14:31:50 GMT-0500 (Central Daylight Time),664433.400000006,A,flagenter,I,enter,555,2,1782.5,662650.900000006,8056,WL,C,7.0
5,22.79199981689453,learn,60000.0,Wed Sep 24 2025 14:31:50 GMT-0500 (Central Daylight Time),666899.200000003,A,n,I,n,2453,2,2465.5,664433.700000003,8056,WL,C,8.0
5,22.924999952316284,learn,60000.0,Wed Sep 24 2025 14:31:50 GMT-0500 (Central Daylight Time),667032.5,A,na,I,a,122,2,2598.7999999970198,664433.700000003,8056,WL,C,8.0
5,23.024999856948853,learn,60000.0,Wed Sep 24 2025 14:31:50 GMT-0500 (Central Daylight Time),667132.299999997,A,nai,I,i,94,2,2698.5999999940395,664433.700000003,8056,WL,C,8.0
5,23.20899987220764,learn,60000.0,Wed Sep 24 2025 14:31:50 GMT-0500 (Central Daylight Time),667315.900000006,A,nail,I,l,170,2,2882.2000000029802,664433.700000003,8056,WL,C,8.0
5,24.007999897003174,learn,60000.0,Wed Sep 24 2025 14:31:50 GMT-0500 (Central Daylight Time),668115.5,A,nailenter,I,enter,779,2,3681.7999999970198,664433.700000003,8056,WL,C,8.0
5,24.45799994468689,learn,60000.0,Wed Sep 24 2025 14:31:50 GMT-0500 (Central Daylight Time),668565.200000003,A,s,I,s,443,2,449.40000000596046,668115.799999997,8056,WL,C,9.0
5,24.54099988937378,learn,60000.0,Wed Sep 24 2025 14:31:50 GMT-0500 (Central Daylight Time),668648.799999997,A,sh,I,h,73,2,533.0,668115.799999997,8056,WL,C,9.0
5,24.625,learn,60000.0,Wed Sep 24 2025 14:31:50 GMT-0500 (Central Daylight Time),668732.299999997,A,sho,I,o,69,2,616.5,668115.799999997,8056,WL,C,9.0
5,24.740999937057495,learn,60000.0,Wed Sep 24 2025 14:31:50 GMT-0500 (Central Daylight Time),668848.799999997,A,shor,I,r,106,2,733.0,668115.799999997,8056,WL,C,9.0
5,25.04099988937378,learn,60000.0,Wed Sep 24 2025 14:31:50 GMT-0500 (Central Daylight Time),669148.1000000089,A,shore,I,e,293,2,1032.300000011921,668115.799999997,8056,WL,C,9.0
5,25.357999801635742,learn,60000.0,Wed Sep 24 2025 14:31:50 GMT-0500 (Central Daylight Time),669464.900000006,A,shoreenter,I,enter,297,2,1349.1000000089407,668115.799999997,8056,WL,C,9.0
5,30.039000034332275,learn,60000.0,Wed Sep 24 2025 14:31:50 GMT-0500 (Central Daylight Time),674146.900000006,A,h,I,h,4670,2,4681.70000000298,669465.200000003,8056,WL,C,10.0
5,30.155999898910522,learn,60000.0,Wed Sep 24 2025 14:31:50 GMT-0500 (Central Daylight Time),674263.5,A,ho,I,o,99,2,4798.29999999702,669465.200000003,8056,WL,C,10.0
5,30.27300000190735,learn,60000.0,Wed Sep 24 2025 14:31:50 GMT-0500 (Central Daylight Time),674380.1000000089,A,hom,I,m,102,2,4914.9000000059605,669465.200000003,8056,WL,C,10.0
5,30.43999981880188,learn,60000.0,Wed Sep 24 2025 14:31:50 GMT-0500 (Central Daylight Time),674547.1000000089,A,home,I,e,146,2,5081.9000000059605,669465.200000003,8056,WL,C,10.0
5,30.805999994277954,learn,60000.0,Wed Sep 24 2025 14:31:50 GMT-0500 (Central Daylight Time),674913.700000003,A,homeenter,I,enter,355,2,5448.5,669465.200000003,8056,WL,C,10.0
5,38.53699994087219,learn,60000.0,Wed Sep 24 2025 14:31:50 GMT-0500 (Central Daylight Time),682644.200000003,A,b,I,b,7724,2,7730.0999999940395,674914.1000000089,8056,WL,C,11.0
5,38.65299987792969,learn,60000.0,Wed Sep 24 2025 14:31:50 GMT-0500 (Central Daylight Time),682760.799999997,A,bo,I,o,105,2,7846.699999988079,674914.1000000089,8056,WL,C,11.0
5,38.8529999256134,learn,60000.0,Wed Sep 24 2025 14:31:50 GMT-0500 (Central Daylight Time),682960.799999997,A,bod,I,d,190,2,8046.699999988079,674914.1000000089,8056,WL,C,11.0
5,39.003000020980835,learn,60000.0,Wed Sep 24 2025 14:31:50 GMT-0500 (Central Daylight Time),683110.700000003,A,body,I,y,133,2,8196.59999999404,674914.1000000089,8056,WL,C,11.0
5,39.61999988555908,learn,60000.0,Wed Sep 24 2025 14:31:50 GMT-0500 (Central Daylight Time),683727.299999997,A,bodyenter,I,enter,607,2,8813.199999988079,674914.1000000089,8056,WL,C,11.0
5,40.63599991798401,learn,60000.0,Wed Sep 24 2025 14:31:50 GMT-0500 (Central Daylight Time),684743.700000003,A,d,I,d,1007,2,1016.2000000029802,683727.5,8056,WL,C,12.0
5,40.73599982261658,learn,60000.0,Wed Sep 24 2025 14:31:50 GMT-0500 (Central Daylight Time),684843.299999997,A,do,I,o,94,2,1115.7999999970198,683727.5,8056,WL,C,12.0
5,40.918999910354614,learn,60000.0,Wed Sep 24 2025 14:31:50 GMT-0500 (Central Daylight Time),685026.700000003,A,doc,I,c,162,2,1299.2000000029802,683727.5,8056,WL,C,12.0
5,41.15299987792969,learn,60000.0,Wed Sep 24 2025 14:31:50 GMT-0500 (Central Daylight Time),685260.0,A,doct,I,t,227,2,1532.5,683727.5,8056,WL,C,12.0
5,41.319000005722046,learn,60000.0,Wed Sep 24 2025 14:31:50 GMT-0500 (Central Daylight Time),685426.700000003,A,docto,I,o,161,2,1699.2000000029802,683727.5,8056,WL,C,12.0
5,41.4689998626709,learn,60000.0,Wed Sep 24 2025 14:31:50 GMT-0500 (Central Daylight Time),685576.400000006,A,doctor,I,r,131,2,1848.9000000059605,683727.5,8056,WL,C,12.0
5,41.751999855041504,learn,60000.0,Wed Sep 24 2025 14:31:50 GMT-0500 (Central Daylight Time),685860.0,A,doctorenter,I,enter,270,2,2132.5,683727.5,8056,WL,C,12.0
5,62.5789999961853,learn,60000.0,Wed Sep 24 2025 14:31:50 GMT-0500 (Central Daylight Time),706686.700000003,A,b,I,b,20819,2,20826.29999999702,685860.400000006,8056,WL,C,13.0
6,0.8830001354217529,distr,59116.99986457825,Wed Sep 24 2025 14:31:50 GMT-0500 (Central Daylight Time),781479.6000000089,B,s,I,s,866,2,882.6000000089407,780597.0,8056,WL,C,1.0
6,1.0,distr,59000.0,Wed Sep 24 2025 14:31:50 GMT-0500 (Central Daylight Time),781596.5,B,sk,I,k,108,2,999.5,780597.0,8056,WL,C,1.0
6,1.2999999523162842,distr,58700.000047683716,Wed Sep 24 2025 14:31:50 GMT-0500 (Central Daylight Time),781896.299999997,B,sky,I,y,290,2,1299.2999999970198,780597.0,8056,WL,C,1.0
6,2.5,distr,57500.0,Wed Sep 24 2025 14:31:50 GMT-0500 (Central Daylight Time),783096.0,B,skyenter,I,enter,1190,2,2499.0,780597.0,8056,WL,C,1.0
6,3.3989999294281006,distr,56601.0000705719,Wed Sep 24 2025 14:31:50 GMT-0500 (Central Daylight Time),783995.700000003,B,m,I,m,887,2,899.4000000059605,783096.299999997,8056,WL,C,2.0
6,3.5490000247955322,distr,56450.99997520447,Wed Sep 24 2025 14:31:50 GMT-0500 (Central Daylight Time),784145.700000003,B,me,I,e,130,2,1049.4000000059605,783096.299999997,8056,WL,C,2.0
6,3.6660001277923584,distr,56333.99987220764,Wed Sep 24 2025 14:31:50 GMT-0500 (Central Daylight Time),784262.200000003,B,mea,I,a,109,2,1165.9000000059605,783096.299999997,8056,WL,C,2.0
6,3.865999937057495,distr,56134.000062942505,Wed Sep 24 2025 14:31:50 GMT-0500 (Central Daylight Time),784462.299999997,B,meat,I,t,184,2,1366.0,783096.299999997,8056,WL,C,2.0
6,4.199000120162964,distr,55800.999879837036,Wed Sep 24 2025 14:31:50 GMT-0500 (Central Daylight Time),784795.400000006,B,meatenter,I,enter,327,2,1699.1000000089407,783096.299999997,8056,WL,C,2.0
6,4.615999937057495,distr,55384.000062942505,Wed Sep 24 2025 14:31:50 GMT-0500 (Central Daylight Time),785211.900000006,B,m,I,m,410,2,416.20000000298023,784795.700000003,8056,WL,C,3.0
6,4.7829999923706055,distr,55217.000007629395,Wed Sep 24 2025 14:31:50 GMT-0500 (Central Daylight Time),785379.0,B,mo,I,o,145,2,583.2999999970198,784795.700000003,8056,WL,C,3.0
6,4.865999937057495,distr,55134.000062942505,Wed Sep 24 2025 14:31:50 GMT-0500 (Central Daylight Time),785461.900000006,B,mon,I,n,66,2,666.2000000029802,784795.700000003,8056,WL,C,3.0
6,4.982000112533569,distr,55017.99988746643,Wed Sep 24 2025 14:31:50 GMT-0500 (Central Daylight Time),785578.6000000089,B,mone,I,e,104,2,782.9000000059605,784795.700000003,8056,WL,C,3.0
6,5.166000127792358,distr,54833.99987220764,Wed Sep 24 2025 14:31:50 GMT-0500 (Central Daylight Time),785762.0,B,money,I,y,163,2,966.2999999970198,784795.700000003,8056,WL,C,3.0
6,5.449000120162964,distr,54550.999879837036,Wed Sep 24 2025 14:31:50 GMT-0500 (Central Daylight Time),786044.900000006,B,moneyenter,I,enter,268,2,1249.2000000029802,784795.700000003,8056,WL,C,3.0
6,6.54800009727478,distr,53451.99990272522,Wed Sep 24 2025 14:31:50 GMT-0500 (Central Daylight Time),787144.400000006,B,f,I,f,1082,2,1099.2000000029802,786045.200000003,8056,WL,C,4.0
6,6.664999961853027,distr,53335.00003814697,Wed Sep 24 2025 14:31:50 GMT-0500 (Central Daylight Time),787261.6000000089,B,fo,I,o,102,2,1216.4000000059605,786045.200000003,8056,WL,C,4.0
6,6.832000017166138,distr,53167.99998283386,Wed Sep 24 2025 14:31:50 GMT-0500 (Central Daylight Time),787427.900000006,B,for,I,r,153,2,1382.7000000029802,786045.200000003,8056,WL,C,4.0
6,9.814000129699707,distr,50185.99987030029,Wed Sep 24 2025 14:31:50 GMT-0500 (Central Daylight Time),790410.5,B,fore,I,e,2971,2,4365.29999999702,786045.200000003,8056,WL,C,4.0
6,9.996999979019165,distr,50003.000020980835,Wed Sep 24 2025 14:31:50 GMT-0500 (Central Daylight Time),790593.700000003,B,fores,I,s,172,2,4548.5,786045.200000003,8056,WL,C,4.0
6,10.21399998664856,distr,49786.00001335144,Wed Sep 24 2025 14:31:50 GMT-0500 (Central Daylight Time),790810.299999997,B,forest,I,t,204,2,4765.0999999940395,786045.200000003,8056,WL,C,4.0
6,10.597000122070312,distr,49402.99987792969,Wed Sep 24 2025 14:31:50 GMT-0500 (Central Daylight Time),791193.400000006,B,fores,I,backspace,363,2,5148.20000000298,786045.200000003,8056,WL,C,4.0
6,10.847000122070312,distr,49152.99987792969,Wed Sep 24 2025 14:31:50 GMT-0500 (Central Daylight Time),791443.299999997,B,fore,I,backspace,245,2,5398.0999999940395,786045.200000003,8056,WL,C,4.0
6,11.02999997138977,distr,48970.00002861023,Wed Sep 24 2025 14:31:50 GMT-0500 (Central Daylight Time),791626.5,B,for,I,backspace,163,2,5581.29999999702,786045.200000003,8056,WL,C,4.0
6,11.246999979019165,distr,48753.000020980835,Wed Sep 24 2025 14:31:50 GMT-0500 (Central Daylight Time),791843.0,B,fors,I,s,212,2,5797.79999999702,786045.200000003,8056,WL,C,4.0
6,11.61299991607666,distr,48387.00008392334,Wed Sep 24 2025 14:31:50 GMT-0500 (Central Daylight Time),792209.700000003,B,forst,I,t,347,2,6164.5,786045.200000003,8056,WL,C,4.0
6,13.829999923706055,distr,46170.000076293945,Wed Sep 24 2025 14:31:50 GMT-0500 (Central Daylight Time),794425.799999997,B,fors,I,backspace,2196,2,8380.59999999404,786045.200000003,8056,WL,C,4.0
6,14.029000043869019,distr,45970.99995613098,Wed Sep 24 2025 14:31:50 GMT-0500 (Central Daylight Time),794625.799999997,B,for,I,backspace,180,2,8580.59999999404,786045.200000003,8056,WL,C,4.0
6,14.163000106811523,distr,45836.99989318848,Wed Sep 24 2025 14:31:50 GMT-0500 (Central Daylight Time),794759.0,B,fore,I,e,117,2,8713.79999999702,786045.200000003,8056,WL,C,4.0
6,14.36299991607666,distr,45637.00008392334,Wed Sep 24 2025 14:31:50 GMT-0500 (Central Daylight Time),794958.900000006,B,fores,I,s,190,2,8913.70000000298,786045.200000003,8056,WL,C,4.0
6,14.546000003814697,distr,45453.9999961853,Wed Sep 24 2025 14:31:50 GMT-0500 (Central Daylight Time),795142.0,B,forest,I,t,176,2,9096.79999999702,786045.200000003,8056,WL,C,4.0
6,14.895999908447266,distr,45104.000091552734,Wed Sep 24 2025 14:31:50 GMT-0500 (Central Daylight Time),795492.1000000089,B,forestenter,I,enter,336,2,9446.90000000596,786045.200000003,8056,WL,C,4.0
6,18.811000108718872,distr,41188.99989128113,Wed Sep 24 2025 14:31:50 GMT-0500 (Central Daylight Time),799407.6000000089,B,t,I,t,3899,2,3915.1000000089407,795492.5,8056,WL,C,5.0
6,18.944000005722046,distr,41055.999994277954,Wed Sep 24 2025 14:31:50 GMT-0500 (Central Daylight Time),799540.799999997,B,to,I,o,126,2,4048.2999999970198,795492.5,8056,WL,C,5.0
6,19.111000061035156,distr,40888.999938964844,Wed Sep 24 2025 14:31:50 GMT-0500 (Central Daylight Time),799707.200000003,B,too,I,o,160,2,4214.70000000298,795492.5,8056,WL,C,5.0
6,19.42799997329712,distr,40572.00002670288,Wed Sep 24 2025 14:31:50 GMT-0500 (Central Daylight Time),800023.799999997,B,tool,I,l,298,2,4531.29999999702,795492.5,8056,WL,C,5.0
6,19.72699999809265,distr,40273.00000190735,Wed Sep 24 2025 14:31:50 GMT-0500 (Central Daylight Time),800323.700000003,B,toolenter,I,enter,295,2,4831.20000000298,795492.5,8056,WL,C,5.0
6,22.05999994277954,distr,37940.00005722046,Wed Sep 24 2025 14:31:50 GMT-0500 (Central Daylight Time),802656.6000000089,B,p,I,p,2315,2,2332.6000000089407,800324.0,8056,WL,C,6.0
6,22.22699999809265,distr,37773.00000190735,Wed Sep 24 2025 14:31:50 GMT-0500 (Central Daylight Time),802823.1000000089,B,pl,I,l,148,2,2499.1000000089407,800324.0,8056,WL,C,6.0
6,22.377000093460083,distr,37622.99990653992,Wed Sep 24 2025 14:31:50 GMT-0500 (Central Daylight Time),802973.200000003,B,pla,I,a,135,2,2649.2000000029802,800324.0,8056,WL,C,6.0
6,22.526999950408936,distr,37473.000049591064,Wed Sep 24 2025 14:31:50 GMT-0500 (Central Daylight Time),803123.0,B,plan,I,n,136,2,2799.0,800324.0,8056,WL,C,6.0
6,22.72699999809265,distr,37273.00000190735,Wed Sep 24 2025 14:31:50 GMT-0500 (Central Daylight Time),803322.900000006,B,plant,I,t,188,2,2998.9000000059605,800324.0,8056,WL,C,6.0
6,23.16000008583069,distr,36839.99991416931,Wed Sep 24 2025 14:31:50 GMT-0500 (Central Daylight Time),803756.1000000089,B,plantenter,I,enter,428,2,3432.1000000089407,800324.0,8056,WL,C,6.0
6,27.77500009536743,distr,32224.99990463257,Wed Sep 24 2025 14:31:50 GMT-0500 (Central Daylight Time),808371.200000003,B,v,I,v,4611,2,4614.9000000059605,803756.299999997,8056,WL,C,7.0
6,27.941999912261963,distr,32058.000087738037,Wed Sep 24 2025 14:31:50 GMT-0500 (Central Daylight Time),808538.0,B,va,I,a,155,2,4781.70000000298,803756.299999997,8056,WL,C,7.0
6,28.092000007629395,distr,31907.999992370605,Wed Sep 24 2025 14:31:50 GMT-0500 (Central Daylight Time),808687.900000006,B,val,I,l,132,2,4931.600000008941,803756.299999997,8056,WL,C,7.0
6,28.22499990463257,distr,31775.00009536743,Wed Sep 24 2025 14:31:50 GMT-0500 (Central Daylight Time),808821.299999997,B,vall,I,l,119,2,5065.0,803756.299999997,8056,WL,C,7.0
6,28.70799994468689,distr,31292.00005531311,Wed Sep 24 2025 14:31:50 GMT-0500 (Central Daylight Time),809304.299999997,B,valle,I,e,472,2,5548.0,803756.299999997,8056,WL,C,7.0
6,28.907999992370605,distr,31092.000007629395,Wed Sep 24 2025 14:31:50 GMT-0500 (Central Daylight Time),809504.1000000089,B,valley,I,y,181,2,5747.800000011921,803756.299999997,8056,WL,C,7.0
6,29.52500009536743,distr,30474.99990463257,Wed Sep 24 2025 14:31:50 GMT-0500 (Central Daylight Time),810121.0,B,valleyenter,I,enter,597,2,6364.70000000298,803756.299999997,8056,WL,C,7.0
6,38.50500011444092,distr,21494.999885559082,Wed Sep 24 2025 14:31:50 GMT-0500 (Central Daylight Time),819101.200000003,B,enter,I,enter,8966,2,8979.90000000596,810121.299999997,8056,WL,C,8.0
6,38.78800010681152,distr,21211.999893188477,Wed Sep 24 2025 14:31:50 GMT-0500 (Central Daylight Time),819384.700000003,B,enter,I,enter,273,2,283.29999999701977,819101.400000006,8056,WL,C,9.0
6,39.00500011444092,distr,20994.999885559082,Wed Sep 24 2025 14:31:50 GMT-0500 (Central Daylight Time),819601.200000003,B,enter,I,enter,197,2,216.20000000298023,819385.0,8056,WL,C,10.0
6,39.33800005912781,distr,20661.999940872192,Wed Sep 24 2025 14:31:50 GMT-0500 (Central Daylight Time),819934.299999997,B,enter,I,enter,324,2,332.79999999701977,819601.5,8056,WL,C,11.0
6,39.605000019073486,distr,20394.999980926514,Wed Sep 24 2025 14:31:50 GMT-0500 (Central Daylight Time),820201.0,B,enter,I,enter,256,2,266.3999999910593,819934.6000000089,8056,WL,C,12.0
6,40.32100009918213,distr,19678.99990081787,Wed Sep 24 2025 14:31:50 GMT-0500 (Central Daylight Time),820917.200000003,B,enter,I,enter,702,2,715.7999999970198,820201.400000006,8056,WL,C,13.0
6,40.80400013923645,distr,19195.99986076355,Wed Sep 24 2025 14:31:50 GMT-0500 (Central Daylight Time),821400.400000006,B,enter,I,enter,465,2,482.90000000596046,820917.5,8056,WL,C,14.0
6,41.38700008392334,distr,18612.99991607666,Wed Sep 24 2025 14:31:50 GMT-0500 (Central Daylight Time),821983.700000003,B,enter,I,enter,575,2,583.0999999940395,821400.6000000089,8056,WL,C,15.0
7,1.4659998416900635,immed,58534.00015830994,Wed Sep 24 2025 14:31:50 GMT-0500 (Central Daylight Time),856073.1000000089,A,b,I,b,1447,2,1466.0,854607.1000000089,8056,WL,C,1.0
7,1.5490000247955322,immed,58450.99997520447,Wed Sep 24 2025 14:31:50 GMT-0500 (Central Daylight Time),856156.400000006,A,bo,I,o,76,2,1549.2999999970198,854607.1000000089,8056,WL,C,1.0
7,1.75,immed,58250.0,Wed Sep 24 2025 14:31:50 GMT-0500 (Central Daylight Time),856357.400000006,A,boy,I,y,186,2,1750.2999999970198,854607.1000000089,8056,WL,C,1.0
7,2.5149998664855957,immed,57485.000133514404,Wed Sep 24 2025 14:31:50 GMT-0500 (Central Daylight Time),857122.400000006,A,boyenter,I,enter,760,2,2515.2999999970198,854607.1000000089,8056,WL,C,1.0
7,3.947999954223633,immed,56052.00004577637,Wed Sep 24 2025 14:31:50 GMT-0500 (Central Daylight Time),858555.400000006,A,t,I,t,1429,2,1432.7000000029802,857122.700000003,8056,WL,C,2.0
7,4.082000017166138,immed,55917.99998283386,Wed Sep 24 2025 14:31:50 GMT-0500 (Central Daylight Time),858689.1000000089,A,to,I,o,114,2,1566.4000000059605,857122.700000003,8056,WL,C,2.0
7,4.181999921798706,immed,55818.000078201294,Wed Sep 24 2025 14:31:50 GMT-0500 (Central Daylight Time),858788.900000006,A,tow,I,w,86,2,1666.2000000029802,857122.700000003,8056,WL,C,2.0
7,4.365000009536743,immed,55634.99999046326,Wed Sep 24 2025 14:31:50 GMT-0500 (Central Daylight Time),858972.299999997,A,towe,I,e,176,2,1849.5999999940395,857122.700000003,8056,WL,C,2.0
7,4.497999906539917,immed,55502.00009346008,Wed Sep 24 2025 14:31:50 GMT-0500 (Central Daylight Time),859105.299999997,A,tower,I,r,121,2,1982.5999999940395,857122.700000003,8056,WL,C,2.0
7,4.830999851226807,immed,55169.00014877319,Wed Sep 24 2025 14:31:50 GMT-0500 (Central Daylight Time),859438.700000003,A,towerenter,I,enter,325,2,2316.0,857122.700000003,8056,WL,C,2.0
7,5.363999843597412,immed,54636.00015640259,Wed Sep 24 2025 14:31:50 GMT-0500 (Central Daylight Time),859971.6000000089,A,w,I,w,527,2,532.6000000089407,859439.0,8056,WL,C,3.0
7,5.797999858856201,immed,54202.0001411438,Wed Sep 24 2025 14:31:50 GMT-0500 (Central Daylight Time),860405.200000003,A,,I,backspace,426,2,966.2000000029802,859439.0,8056,WL,C,3.0
7,6.0309998989105225,immed,53969.00010108948,Wed Sep 24 2025 14:31:50 GMT-0500 (Central Daylight Time),860638.400000006,A,q,I,q,226,2,1199.4000000059605,859439.0,8056,WL,C,3.0
7,6.247999906539917,immed,53752.00009346008,Wed Sep 24 2025 14:31:50 GMT-0500 (Central Daylight Time),860855.0,A,qu,I,u,200,2,1416.0,859439.0,8056,WL,C,3.0
7,6.497999906539917,immed,53502.00009346008,Wed Sep 24 2025 14:31:50 GMT-0500 (Central Daylight Time),861105.0,A,que,I,e,231,2,1666.0,859439.0,8056,WL,C,3.0
7,6.71399998664856,immed,53286.00001335144,Wed Sep 24 2025 14:31:50 GMT-0500 (Central Daylight Time),861321.400000006,A,quee,I,e,197,2,1882.4000000059605,859439.0,8056,WL,C,3.0
7,6.863999843597412,immed,53136.00015640259,Wed Sep 24 2025 14:31:50 GMT-0500 (Central Daylight Time),861471.400000006,A,queen,I,n,141,2,2032.4000000059605,859439.0,8056,WL,C,3.0
7,7.147000074386597,immed,52852.9999256134,Wed Sep 24 2025 14:31:50 GMT-0500 (Central Daylight Time),861754.5,A,queenenter,I,enter,278,2,2315.5,859439.0,8056,WL,C,3.0
7,8.662999868392944,immed,51337.000131607056,Wed Sep 24 2025 14:31:50 GMT-0500 (Central Daylight Time),863270.6000000089,A,h,I,h,1499,2,1515.800000011921,861754.799999997,8056,WL,C,4.0
7,8.746999979019165,immed,51253.000020980835,Wed Sep 24 2025 14:31:50 GMT-0500 (Central Daylight Time),863354.5,A,ho,I,o,72,2,1599.7000000029802,861754.799999997,8056,WL,C,4.0
7,8.897000074386597,immed,51102.9999256134,Wed Sep 24 2025 14:31:50 GMT-0500 (Central Daylight Time),863504.1000000089,A,hom,I,m,132,2,1749.300000011921,861754.799999997,8056,WL,C,4.0
7,9.02999997138977,immed,50970.00002861023,Wed Sep 24 2025 14:31:50 GMT-0500 (Central Daylight Time),863637.299999997,A,home,I,e,118,2,1882.5,861754.799999997,8056,WL,C,4.0
7,9.77999997138977,immed,50220.00002861023,Wed Sep 24 2025 14:31:50 GMT-0500 (Central Daylight Time),864387.0,A,homeenter,I,enter,745,2,2632.2000000029802,861754.799999997,8056,WL,C,4.0
7,10.213000059127808,immed,49786.99994087219,Wed Sep 24 2025 14:31:50 GMT-0500 (Central Daylight Time),864820.299999997,A,c,I,c,427,2,433.0,864387.299999997,8056,WL,C,5.0
7,10.378999948501587,immed,49621.00005149841,Wed Sep 24 2025 14:31:50 GMT-0500 (Central Daylight Time),864986.700000003,A,ca,I,a,162,2,599.4000000059605,864387.299999997,8056,WL,C,5.0
7,10.562999963760376,immed,49437.000036239624,Wed Sep 24 2025 14:31:50 GMT-0500 (Central Daylight Time),865170.200000003,A,cam,I,m,163,2,782.9000000059605,864387.299999997,8056,WL,C,5.0
7,10.746000051498413,immed,49253.99994850159,Wed Sep 24 2025 14:31:50 GMT-0500 (Central Daylight Time),865353.6000000089,A,camp,I,p,173,2,966.3000000119209,864387.299999997,8056,WL,C,5.0
7,11.078999996185303,immed,48921.0000038147,Wed Sep 24 2025 14:31:50 GMT-0500 (Central Daylight Time),865686.799999997,A,campenter,I,enter,317,2,1299.5,864387.299999997,8056,WL,C,5.0
7,12.029000043869019,immed,47970.99995613098,Wed Sep 24 2025 14:31:50 GMT-0500 (Central Daylight Time),866636.5,A,s,I,s,943,2,949.3999999910593,865687.1000000089,8056,WL,C,6.0
7,12.128999948501587,immed,47871.00005149841,Wed Sep 24 2025 14:31:50 GMT-0500 (Central Daylight Time),866736.400000006,A,sh,I,h,81,2,1049.2999999970198,865687.1000000089,8056,WL,C,6.0
7,12.19599986076355,immed,47804.00013923645,Wed Sep 24 2025 14:31:50 GMT-0500 (Central Daylight Time),866802.799999997,A,sho,I,o,53,2,1115.699999988079,865687.1000000089,8056,WL,C,6.0
7,12.329999923706055,immed,47670.000076293945,Wed Sep 24 2025 14:31:50 GMT-0500 (Central Daylight Time),866937.0,A,shor,I,r,115,2,1249.8999999910593,865687.1000000089,8056,WL,C,6.0
7,12.51199984550476,immed,47488.00015449524,Wed Sep 24 2025 14:31:50 GMT-0500 (Central Daylight Time),867119.799999997,A,short,I,t,174,2,1432.699999988079,865687.1000000089,8056,WL,C,6.0
7,13.01199984550476,immed,46988.00015449524,Wed Sep 24 2025 14:31:50 GMT-0500 (Central Daylight Time),867619.400000006,A,shor,I,backspace,487,2,1932.2999999970198,865687.1000000089,8056,WL,C,6.0
7,13.128999948501587,immed,46871.00005149841,Wed Sep 24 2025 14:31:50 GMT-0500 (Central Daylight Time),867736.1000000089,A,shore,I,e,106,2,2049.0,865687.1000000089,8056,WL,C,6.0
7,13.562000036239624,immed,46437.999963760376,Wed Sep 24 2025 14:31:50 GMT-0500 (Central Daylight Time),868169.200000003,A,shoreenter,I,enter,414,2,2482.0999999940395,865687.1000000089,8056,WL,C,6.0
7,16.17799997329712,immed,43822.00002670288,Wed Sep 24 2025 14:31:50 GMT-0500 (Central Daylight Time),870785.1000000089,A,l,I,l,2596,2,2615.5,868169.6000000089,8056,WL,C,7.0
7,16.32800006866455,immed,43671.99993133545,Wed Sep 24 2025 14:31:50 GMT-0500 (Central Daylight Time),870935.299999997,A,le,I,e,132,2,2765.699999988079,868169.6000000089,8056,WL,C,7.0
7,16.527999877929688,immed,43472.00012207031,Wed Sep 24 2025 14:31:50 GMT-0500 (Central Daylight Time),871134.900000006,A,let,I,t,183,2,2965.2999999970198,868169.6000000089,8056,WL,C,7.0
7,16.694000005722046,immed,43305.999994277954,Wed Sep 24 2025 14:31:50 GMT-0500 (Central Daylight Time),871301.6000000089,A,lett,I,t,158,2,3132.0,868169.6000000089,8056,WL,C,7.0
7,16.91100001335144,immed,43088.99998664856,Wed Sep 24 2025 14:31:50 GMT-0500 (Central Daylight Time),871517.900000006,A,lette,I,e,200,2,3348.2999999970198,868169.6000000089,8056,WL,C,7.0
7,16.97699999809265,immed,43023.00000190735,Wed Sep 24 2025 14:31:50 GMT-0500 (Central Daylight Time),871584.700000003,A,letter,I,r,49,2,3415.0999999940395,868169.6000000089,8056,WL,C,7.0
7,17.543999910354614,immed,42456.000089645386,Wed Sep 24 2025 14:31:50 GMT-0500 (Central Daylight Time),872151.299999997,A,letterenter,I,enter,558,2,3981.699999988079,868169.6000000089,8056,WL,C,7.0
7,20.65999984741211,immed,39340.00015258789,Wed Sep 24 2025 14:31:50 GMT-0500 (Central Daylight Time),875267.299999997,A,n,I,n,3095,2,3115.5999999940395,872151.700000003,8056,WL,C,8.0
7,20.858999967575073,immed,39141.00003242493,Wed Sep 24 2025 14:31:50 GMT-0500 (Central Daylight Time),875466.799999997,A,na,I,a,186,2,3315.0999999940395,872151.700000003,8056,WL,C,8.0
7,20.960000038146973,immed,39039.99996185303,Wed Sep 24 2025 14:31:50 GMT-0500 (Central Daylight Time),875567.1000000089,A,nai,I,i,84,2,3415.4000000059605,872151.700000003,8056,WL,C,8.0
7,21.125999927520752,immed,38874.00007247925,Wed Sep 24 2025 14:31:50 GMT-0500 (Central Daylight Time),875733.0,A,nail,I,l,150,2,3581.2999999970198,872151.700000003,8056,WL,C,8.0
7,21.625999927520752,immed,38374.00007247925,Wed Sep 24 2025 14:31:50 GMT-0500 (Central Daylight Time),876233.0,A,nailenter,I,enter,489,2,4081.2999999970198,872151.700000003,8056,WL,C,8.0
7,27.307999849319458,immed,32692.000150680542,Wed Sep 24 2025 14:31:50 GMT-0500 (Central Daylight Time),881915.200000003,A,f,I,f,5668,2,5681.9000000059605,876233.299999997,8056,WL,C,9.0
7,27.44099998474121,immed,32559.00001525879,Wed Sep 24 2025 14:31:50 GMT-0500 (Central Daylight Time),882048.1000000089,A,fl,I,l,121,2,5814.800000011921,876233.299999997,8056,WL,C,9.0
7,27.624000072479248,immed,32375.999927520752,Wed Sep 24 2025 14:31:50 GMT-0500 (Central Daylight Time),882231.6000000089,A,fla,I,a,173,2,5998.300000011921,876233.299999997,8056,WL,C,9.0
7,27.823999881744385,immed,32176.000118255615,Wed Sep 24 2025 14:31:50 GMT-0500 (Central Daylight Time),882431.400000006,A,flag,I,g,191,2,6198.100000008941,876233.299999997,8056,WL,C,9.0
7,28.090999841690063,immed,31909.000158309937,Wed Sep 24 2025 14:31:50 GMT-0500 (Central Daylight Time),882698.0,A,flagenter,I,enter,254,2,6464.70000000298,876233.299999997,8056,WL,C,9.0
7,32.83899998664856,immed,27161.00001335144,Wed Sep 24 2025 14:31:50 GMT-0500 (Central Daylight Time),887446.6000000089,A,d,I,d,4741,2,4748.20000000298,882698.400000006,8056,WL,C,10.0
7,32.9229998588562,immed,27077.0001411438,Wed Sep 24 2025 14:31:50 GMT-0500 (Central Daylight Time),887530.0,A,do,I,o,71,2,4831.5999999940395,882698.400000006,8056,WL,C,10.0
7,33.08899998664856,immed,26911.00001335144,Wed Sep 24 2025 14:31:50 GMT-0500 (Central Daylight Time),887696.400000006,A,doc,I,c,156,2,4998.0,882698.400000006,8056,WL,C,10.0
7,33.42199993133545,immed,26578.00006866455,Wed Sep 24 2025 14:31:50 GMT-0500 (Central Daylight Time),888029.200000003,A,doct,I,t,325,2,5330.79999999702,882698.400000006,8056,WL,C,10.0
7,33.539000034332275,immed,26460.999965667725,Wed Sep 24 2025 14:31:50 GMT-0500 (Central Daylight Time),888146.1000000089,A,docto,I,o,112,2,5447.70000000298,882698.400000006,8056,WL,C,10.0
7,33.72199988365173,immed,26278.000116348267,Wed Sep 24 2025 14:31:50 GMT-0500 (Central Daylight Time),888329.799999997,A,doctor,I,r,163,2,5631.399999991059,882698.400000006,8056,WL,C,10.0
7,34.204999923706055,immed,25795.000076293945,Wed Sep 24 2025 14:31:50 GMT-0500 (Central Daylight Time),888812.700000003,A,doctorenter,I,enter,476,2,6114.29999999702,882698.400000006,8056,WL,C,10.0
7,47.365999937057495,immed,12634.000062942505,Wed Sep 24 2025 14:31:50 GMT-0500 (Central Daylight Time),901975.400000006,A,h,I,h,13146,2,13162.29999999702,888813.1000000089,8056,WL,C,11.0
7,47.43299984931946,immed,12567.000150680542,Wed Sep 24 2025 14:31:50 GMT-0500 (Central Daylight Time),902041.799999997,A,ho,I,o,55,2,13228.699999988079,888813.1000000089,8056,WL,C,11.0
7,47.632999897003174,immed,12367.000102996826,Wed Sep 24 2025 14:31:50 GMT-0500 (Central Daylight Time),902242.0,A,hom,I,m,180,2,13428.89999999106,888813.1000000089,8056,WL,C,11.0
7,47.782999992370605,immed,12217.000007629395,Wed Sep 24 2025 14:31:50 GMT-0500 (Central Daylight Time),902392.1000000089,A,home,I,e,140,2,13579.0,888813.1000000089,8056,WL,C,11.0
7,48.08299994468689,immed,11917.00005531311,Wed Sep 24 2025 14:31:50 GMT-0500 (Central Daylight Time),902691.900000006,A,homeenter,I,enter,286,2,13878.79999999702,888813.1000000089,8056,WL,C,11.0
7,50.014999866485596,immed,9985.000133514404,Wed Sep 24 2025 14:31:50 GMT-0500 (Central Daylight Time),904624.400000006,A,c,I,c,1922,2,1932.1000000089407,902692.299999997,8056,WL,C,12.0
7,50.14800000190735,immed,9851.999998092651,Wed Sep 24 2025 14:31:50 GMT-0500 (Central Daylight Time),904757.700000003,A,ca,I,a,126,2,2065.4000000059605,902692.299999997,8056,WL,C,12.0
7,50.48199987411499,immed,9518.00012588501,Wed Sep 24 2025 14:31:50 GMT-0500 (Central Daylight Time),905090.799999997,A,cat,I,t,328,2,2398.5,902692.299999997,8056,WL,C,12.0
7,50.63199996948242,immed,9368.000030517578,Wed Sep 24 2025 14:31:50 GMT-0500 (Central Daylight Time),905240.900000006,A,catt,I,t,139,2,2548.6000000089407,902692.299999997,8056,WL,C,12.0
7,50.78200006484985,immed,9217.999935150146,Wed Sep 24 2025 14:31:50 GMT-0500 (Central Daylight Time),905390.900000006,A,cattl,I,l,134,2,2698.6000000089407,902692.299999997,8056,WL,C,12.0
7,50.89800000190735,immed,9101.999998092651,Wed Sep 24 2025 14:31:50 GMT-0500 (Central Daylight Time),905507.299999997,A,cattle,I,e,110,2,2815.0,902692.299999997,8056,WL,C,12.0
7,51.28200006484985,immed,8717.999935150146,Wed Sep 24 2025 14:31:50 GMT-0500 (Central Daylight Time),905890.799999997,A,cattleenter,I,enter,379,2,3198.5,902692.299999997,8056,WL,C,12.0
7,54.33099985122681,immed,5669.000148773193,Wed Sep 24 2025 14:31:50 GMT-0500 (Central Daylight Time),908939.900000006,A,s,I,s,3036,2,3048.7999999970198,905891.1000000089,8056,WL,C,13.0
7,54.46399998664856,immed,5536.00001335144,Wed Sep 24 2025 14:31:50 GMT-0500 (Central Daylight Time),909072.900000006,A,sh,I,h,115,2,3181.7999999970198,905891.1000000089,8056,WL,C,13.0
7,54.56399989128113,immed,5436.000108718872,Wed Sep 24 2025 14:31:50 GMT-0500 (Central Daylight Time),909172.700000003,A,sho,I,o,86,2,3281.5999999940395,905891.1000000089,8056,WL,C,13.0
7,54.69700002670288,immed,5302.999973297119,Wed Sep 24 2025 14:31:50 GMT-0500 (Central Daylight Time),909306.400000006,A,shor,I,r,114,2,3415.2999999970198,905891.1000000089,8056,WL,C,13.0
7,54.87999987602234,immed,5120.000123977661,Wed Sep 24 2025 14:31:50 GMT-0500 (Central Daylight Time),909489.6000000089,A,short,I,t,171,2,3598.5,905891.1000000089,8056,WL,C,13.0
7,55.37999987602234,immed,4620.000123977661,Wed Sep 24 2025 14:31:50 GMT-0500 (Central Daylight Time),909989.400000006,A,shor,I,backspace,493,2,4098.29999999702,905891.1000000089,8056,WL,C,13.0
7,55.51300001144409,immed,4486.999988555908,Wed Sep 24 2025 14:31:50 GMT-0500 (Central Daylight Time),910122.6000000089,A,shore,I,e,112,2,4231.5,905891.1000000089,8056,WL,C,13.0
7,56.062999963760376,immed,3937.000036239624,Wed Sep 24 2025 14:31:50 GMT-0500 (Central Daylight Time),910672.700000003,A,shor,I,backspace,530,2,4781.5999999940395,905891.1000000089,8056,WL,C,13.0
7,56.26300001144409,immed,3736.999988555908,Wed Sep 24 2025 14:31:50 GMT-0500 (Central Daylight Time),910872.5,A,sho,I,backspace,190,2,4981.399999991059,905891.1000000089,8056,WL,C,13.0
7,56.3970000743866,immed,3602.9999256134033,Wed Sep 24 2025 14:31:50 GMT-0500 (Central Daylight Time),911006.0,A,sh,I,backspace,126,2,5114.899999991059,905891.1000000089,8056,WL,C,13.0
7,56.59599995613098,immed,3404.0000438690186,Wed Sep 24 2025 14:31:50 GMT-0500 (Central Daylight Time),911205.700000003,A,s,I,backspace,183,2,5314.5999999940395,905891.1000000089,8056,WL,C,13.0
7,56.77999997138977,immed,3220.0000286102295,Wed Sep 24 2025 14:31:50 GMT-0500 (Central Daylight Time),911388.900000006,A,,I,backspace,169,2,5497.79999999702,905891.1000000089,8056,WL,C,13.0
7,56.9300000667572,immed,3069.999933242798,Wed Sep 24 2025 14:31:50 GMT-0500 (Central Daylight Time),911538.799999997,A,,I,backspace,138,2,5647.699999988079,905891.1000000089,8056,WL,C,13.0
7,60.01199984550476,immed,-11.999845504760742,Wed Sep 24 2025 14:31:50 GMT-0500 (Central Daylight Time),914621.299999997,A,None,I,None,3078,2,8730.199999988079,905891.1000000089,8056,WL,C,13.0
