acc_sum,block,block_c,condition,correct,correct_response,datetime,endtime,flanker,jitter,project,response,response_test_buffer_response,response_test_target_response,response_time,response_time_test_buffer_response,response_time_test_target_response,row_sel,session_number,start_end,starttime,subject_id,target,task,task_vers,time_test_buffer,time_test_buffer_response,time_test_constants,time_test_flanker,time_test_jitter,time_test_logger,time_test_target,time_test_target_response,time_test_variables,trial
0,prac,1,con,0,z,Wed Jun 03 2026 16:11:24 GMT-0500 (Central Daylight Time),109480.79999995232,lime,800,I,None,,,1799,,,5,3,4859.899999976158,104620.89999997616,8084,lime,NF,C,,,,,,,,,,1
1,prac,1,con,1,m,Wed Jun 03 2026 16:11:24 GMT-0500 (Central Daylight Time),112529.89999997616,silver,1000,I,m,,,740,,,11,3,3042.5,109487.39999997616,8084,silver,NF,C,,,,,,,,,,2
2,prac,1,inc,1,z,Wed Jun 03 2026 16:11:24 GMT-0500 (Central Daylight Time),115348.89999997616,iron,900,I,z,,,606,,,6,3,2813.7000000476837,112535.19999992847,8084,pear,NF,C,,,,,,,,,,3
3,prac,1,con,1,z,Wed Jun 03 2026 16:11:24 GMT-0500 (Central Daylight Time),118228.0,kiwi,1000,I,z,,,579,,,7,3,2873.5,115354.5,8084,kiwi,NF,C,,,,,,,,,,4
3,prac,1,inc,0,z,Wed Jun 03 2026 16:11:24 GMT-0500 (Central Daylight Time),120843.69999992847,copper,900,I,m,,,405,,,2,3,2611.0,118232.69999992847,8084,cherry,NF,C,,,,,,,,,,5
4,prac,1,inc,1,m,Wed Jun 03 2026 16:11:24 GMT-0500 (Central Daylight Time),123593.79999995232,pear,900,I,m,,,549,,,14,3,2745.100000023842,120848.69999992847,8084,iron,NF,C,,,,,,,,,,6
5,prac,1,inc,1,m,Wed Jun 03 2026 16:11:24 GMT-0500 (Central Daylight Time),126592.19999992847,plum,1100,I,m,,,583,,,16,3,2992.6999999284744,123599.5,8084,lead,NF,C,,,,,,,,,,7
6,prac,1,con,1,z,Wed Jun 03 2026 16:11:24 GMT-0500 (Central Daylight Time),129491.0,orange,1000,I,z,,,589,,,3,3,2893.600000023842,126597.39999997616,8084,orange,NF,C,,,,,,,,,,8
7,prac,1,inc,1,m,Wed Jun 03 2026 16:11:24 GMT-0500 (Central Daylight Time),132256.89999997616,cherry,900,I,m,,,558,,,10,3,2760.5,129496.39999997616,8084,copper,NF,C,,,,,,,,,,9
8,prac,1,con,1,m,Wed Jun 03 2026 16:11:24 GMT-0500 (Central Daylight Time),135722.5,zinc,1000,I,m,,,1163,,,15,3,3460.600000023842,132261.89999997616,8084,zinc,NF,C,,,,,,,,,,10
9,prac,1,con,1,m,Wed Jun 03 2026 16:11:24 GMT-0500 (Central Daylight Time),138488.29999995232,bronze,800,I,m,,,667,,,9,3,2760.7999999523163,135727.5,8084,bronze,NF,C,,,,,,,,,,11
10,prac,1,inc,1,z,Wed Jun 03 2026 16:11:24 GMT-0500 (Central Daylight Time),141520.69999992847,cobalt,1100,I,z,,,633,,,4,3,3027.899999976158,138492.79999995232,8084,raisin,NF,C,,,,,,,,,,12
11,prac,1,inc,1,z,Wed Jun 03 2026 16:11:24 GMT-0500 (Central Daylight Time),144486.39999997616,lead,1100,I,z,,,550,,,8,3,2960.600000023842,141525.79999995232,8084,plum,NF,C,,,,,,,,,,13
12,prac,1,con,1,z,Wed Jun 03 2026 16:11:24 GMT-0500 (Central Daylight Time),147135.39999997616,banana,800,I,z,,,533,,,1,3,2643.899999976158,144491.5,8084,banana,NF,C,,,,,,,,,,14
13,prac,1,inc,1,m,Wed Jun 03 2026 16:11:24 GMT-0500 (Central Daylight Time),150517.79999995232,raisin,1100,I,m,,,968,,,12,3,3377.600000023842,147140.19999992847,8084,cobalt,NF,C,,,,,,,,,,15
14,prac,1,con,1,m,Wed Jun 03 2026 16:11:24 GMT-0500 (Central Daylight Time),153183.59999990463,gold,800,I,m,,,551,,,13,3,2661.2999999523163,150522.29999995232,8084,gold,NF,C,,,,,,,,,,16
0,test,1,inc,0,z,Wed Jun 03 2026 16:11:24 GMT-0500 (Central Daylight Time),165430.0,copper,900,I,m,m,None,820,621.0,199.0,30,3,2262.3000000715256,163167.69999992847,8084,raisin,NF,C,159522,159522,157893,158805,157893,160155,159322,159322,160155,1
1,test,1,con,1,m,Wed Jun 03 2026 16:11:24 GMT-0500 (Central Daylight Time),167345.69999992847,zinc,800,I,m,m,None,583,383.0,200.0,113,3,1909.6000000238419,165436.09999990463,8084,zinc,NF,C,161688,161688,160161,160971,160161,162071,161488,161488,162071,2
2,test,1,con,1,z,Wed Jun 03 2026 16:11:24 GMT-0500 (Central Daylight Time),169379.69999992847,plum,900,I,z,z,None,599,399.0,200.0,58,3,2028.7999999523163,167350.89999997616,8084,plum,NF,C,163704,163704,162076,162988,162076,164105,163504,163504,164105,3
3,test,1,inc,1,m,Wed Jun 03 2026 16:11:24 GMT-0500 (Central Daylight Time),171378.09999990463,pear,900,I,m,m,None,558,358.0,200.0,118,3,1993.5,169384.59999990463,8084,zinc,NF,C,165737,165737,164110,165020,164110,166103,165537,165537,166103,4
4,test,1,con,1,m,Wed Jun 03 2026 16:11:24 GMT-0500 (Central Daylight Time),173377.39999997616,lead,1000,I,m,m,None,458,259.0,199.0,123,3,1993.7000000476837,171383.69999992847,8084,lead,NF,C,167836,167836,166109,167122,166109,168102,167637,167637,168102,5
5,test,1,con,1,z,Wed Jun 03 2026 16:11:24 GMT-0500 (Central Daylight Time),175426.59999990463,banana,1100,I,z,z,None,408,208.0,200.0,4,3,2044.5,173382.09999990463,8084,banana,NF,C,169935,169935,168107,169219,168107,170152,169735,169735,170152,6
6,test,1,con,1,z,Wed Jun 03 2026 16:11:24 GMT-0500 (Central Daylight Time),177559.39999997616,banana,1000,I,z,z,None,585,386.0,199.0,3,3,2128.399999976158,175431.0,8084,banana,NF,C,171885,171885,170156,171168,170156,172284,171685,171685,172284,7
7,test,1,con,1,m,Wed Jun 03 2026 16:11:24 GMT-0500 (Central Daylight Time),179641.89999997616,gold,1100,I,m,m,None,450,250.0,200.0,100,3,2077.600000023842,177564.29999995232,8084,gold,NF,C,174117,174117,172289,173401,172290,174367,173917,173917,174367,8
8,test,1,con,1,z,Wed Jun 03 2026 16:11:24 GMT-0500 (Central Daylight Time),181608.0,orange,800,I,z,z,None,627,427.0,200.0,17,3,1961.6000000238419,179646.39999997616,8084,orange,NF,C,175900,175900,174371,175183,174372,176333,175700,175700,176333,9
9,test,1,con,1,m,Wed Jun 03 2026 16:11:24 GMT-0500 (Central Daylight Time),183407.5,gold,800,I,m,m,None,453,253.0,200.0,97,3,1794.8000000715256,181612.69999992847,8084,gold,NF,C,177866,177866,176338,177150,176338,178133,177666,177666,178133,10
10,test,1,con,1,z,Wed Jun 03 2026 16:11:24 GMT-0500 (Central Daylight Time),185190.09999990463,kiwi,800,I,z,z,None,437,238.0,199.0,49,3,1778.0,183412.09999990463,8084,kiwi,NF,C,179665,179665,178137,178949,178137,179915,179466,179466,179915,11
11,test,1,con,1,z,Wed Jun 03 2026 16:11:24 GMT-0500 (Central Daylight Time),187172.79999995232,cherry,800,I,z,z,None,639,439.0,200.0,9,3,1978.1000000238419,185194.69999992847,8084,cherry,NF,C,181448,181448,179920,180732,179920,181898,181248,181248,181898,12
12,test,1,con,1,z,Wed Jun 03 2026 16:11:24 GMT-0500 (Central Daylight Time),189188.89999997616,cherry,1000,I,z,z,None,480,280.0,200.0,11,3,2011.6000000238419,187177.29999995232,8084,cherry,NF,C,183631,183631,181902,182915,181903,183914,183431,183431,183914,13
13,test,1,con,1,m,Wed Jun 03 2026 16:11:24 GMT-0500 (Central Daylight Time),190938.39999997616,copper,800,I,m,m,None,416,216.0,200.0,73,3,1744.1000000238419,189194.29999995232,8084,copper,NF,C,185447,185447,183919,184731,183920,185663,185247,185247,185663,14
14,test,1,con,1,z,Wed Jun 03 2026 16:11:24 GMT-0500 (Central Daylight Time),192854.59999990463,kiwi,1000,I,z,z,None,378,178.0,200.0,51,3,1911.8999999761581,190942.69999992847,8084,kiwi,NF,C,187397,187397,185668,186680,185668,187580,187196,187196,187580,15
15,test,1,inc,1,m,Wed Jun 03 2026 16:11:24 GMT-0500 (Central Daylight Time),195003.69999992847,orange,1000,I,m,m,None,606,407.0,199.0,95,3,2144.5,192859.19999992847,8084,cobalt,NF,C,189312,189312,187584,188596,187584,189729,189113,189113,189729,16
16,test,1,con,1,z,Wed Jun 03 2026 16:11:24 GMT-0500 (Central Daylight Time),197269.69999992847,cherry,1100,I,z,z,None,629,429.0,200.0,12,3,2261.600000023842,195008.09999990463,8084,cherry,NF,C,191562,191562,189733,190845,189733,191995,191362,191362,191995,17
17,test,1,con,1,z,Wed Jun 03 2026 16:11:24 GMT-0500 (Central Daylight Time),199102.5,plum,800,I,z,z,None,495,295.0,200.0,57,3,1828.2000000476837,197274.29999995232,8084,plum,NF,C,193528,193528,191999,192811,192000,193828,193328,193328,193828,18
18,test,1,con,1,m,Wed Jun 03 2026 16:11:24 GMT-0500 (Central Daylight Time),201085.09999990463,cobalt,800,I,m,m,None,645,446.0,199.0,89,3,1978.0999999046326,199107.0,8084,cobalt,NF,C,195361,195361,193832,194645,193832,195810,195161,195161,195810,19
19,test,1,con,1,m,Wed Jun 03 2026 16:11:24 GMT-0500 (Central Daylight Time),203151.19999992847,zinc,1000,I,m,m,None,528,328.0,200.0,115,3,2059.6999999284744,201091.5,8084,zinc,NF,C,197543,197543,195817,196827,195817,197876,197343,197343,197876,20
20,test,1,inc,1,m,Wed Jun 03 2026 16:11:24 GMT-0500 (Central Daylight Time),205283.89999997616,pear,900,I,m,m,None,690,490.0,200.0,102,3,2128.3000000715256,203155.59999990463,8084,gold,NF,C,199509,199509,197881,198793,197881,200009,199309,199309,200009,21
21,test,1,inc,1,m,Wed Jun 03 2026 16:11:24 GMT-0500 (Central Daylight Time),207403.69999992847,cherry,900,I,m,m,None,668,468.0,200.0,70,3,2114.100000023842,205289.59999990463,8084,bronze,NF,C,201642,201642,200015,200926,200015,202129,201442,201442,202129,22
22,test,1,inc,1,z,Wed Jun 03 2026 16:11:24 GMT-0500 (Central Daylight Time),209599.19999992847,silver,1000,I,z,z,None,661,461.0,200.0,7,3,2190.6999999284744,207408.5,8084,banana,NF,C,203858,203858,202133,203142,202134,204324,203658,203658,204324,23
23,test,1,inc,1,m,Wed Jun 03 2026 16:11:24 GMT-0500 (Central Daylight Time),211848.59999990463,raisin,1100,I,m,m,None,610,410.0,200.0,88,3,2244.5999999046326,209604.0,8084,silver,NF,C,206157,206157,204329,205441,204329,206574,205957,205957,206574,24
24,test,1,inc,1,m,Wed Jun 03 2026 16:11:24 GMT-0500 (Central Daylight Time),213914.5,cherry,900,I,m,m,None,631,432.0,199.0,86,3,2061.7000000476837,211852.79999995232,8084,silver,NF,C,208207,208207,206578,207490,206578,208640,208007,208007,208639,25
25,test,1,con,1,z,Wed Jun 03 2026 16:11:24 GMT-0500 (Central Daylight Time),216113.89999997616,orange,1100,I,z,z,None,566,367.0,199.0,20,3,2195.0,213918.89999997616,8084,orange,NF,C,210472,210472,208644,209756,208644,210839,210273,210273,210839,26
26,test,1,con,1,m,Wed Jun 03 2026 16:11:24 GMT-0500 (Central Daylight Time),218146.5,bronze,900,I,m,m,None,599,399.0,200.0,66,3,2028.3000000715256,216118.19999992847,8084,bronze,NF,C,212472,212472,210843,211755,210844,212872,212272,212272,212872,27
27,test,1,inc,1,z,Wed Jun 03 2026 16:11:24 GMT-0500 (Central Daylight Time),220512.39999997616,cobalt,1100,I,z,z,None,725,526.0,199.0,16,3,2361.7000000476837,218150.69999992847,8084,cherry,NF,C,214705,214705,212876,213988,212876,215237,214505,214505,215237,28
28,test,1,con,1,m,Wed Jun 03 2026 16:11:24 GMT-0500 (Central Daylight Time),222728.29999995232,bronze,1100,I,m,m,None,568,368.0,200.0,68,3,2211.5,220516.79999995232,8084,bronze,NF,C,217071,217071,215242,216354,215242,217453,216870,216870,217453,29
29,test,1,inc,1,m,Wed Jun 03 2026 16:11:24 GMT-0500 (Central Daylight Time),224911.0,kiwi,1000,I,m,m,None,636,437.0,199.0,103,3,2178.2000000476837,222732.79999995232,8084,gold,NF,C,219186,219186,217458,218470,217458,219636,218987,218987,219636,30
30,test,1,con,1,m,Wed Jun 03 2026 16:11:24 GMT-0500 (Central Daylight Time),227093.79999995232,zinc,900,I,m,m,None,746,546.0,200.0,114,3,2178.5,224915.29999995232,8084,zinc,NF,C,221269,221269,219640,220554,219640,221819,221069,221069,221819,31
31,test,1,con,1,m,Wed Jun 03 2026 16:11:24 GMT-0500 (Central Daylight Time),228893.09999990463,lead,800,I,m,m,None,455,255.0,200.0,121,3,1795.0,227098.09999990463,8084,lead,NF,C,223352,223352,221823,222635,221823,223618,223152,223152,223618,32
32,test,1,inc,1,m,Wed Jun 03 2026 16:11:24 GMT-0500 (Central Daylight Time),230852.39999997616,banana,800,I,m,m,None,608,408.0,200.0,93,3,1954.8000000715256,228897.59999990463,8084,cobalt,NF,C,225151,225151,223623,224435,223623,225577,224951,224951,225577,33
33,test,1,inc,1,z,Wed Jun 03 2026 16:11:24 GMT-0500 (Central Daylight Time),232792.0,gold,800,I,z,z,None,594,394.0,200.0,61,3,1931.9000000953674,230860.09999990463,8084,plum,NF,C,227117,227117,225585,226401,225586,227517,226917,226917,227517,34
34,test,1,con,1,m,Wed Jun 03 2026 16:11:24 GMT-0500 (Central Daylight Time),234991.09999990463,lead,1100,I,m,m,None,553,353.0,200.0,124,3,2194.1999999284744,232796.89999997616,8084,lead,NF,C,229350,229350,227522,228634,227522,229716,229150,229150,229716,35
35,test,1,inc,1,z,Wed Jun 03 2026 16:11:24 GMT-0500 (Central Daylight Time),236973.89999997616,iron,900,I,z,z,None,538,338.0,200.0,46,3,1978.5,234995.39999997616,8084,pear,NF,C,231349,231349,229720,230633,229721,231699,231149,231149,231699,36
36,test,1,con,1,z,Wed Jun 03 2026 16:11:24 GMT-0500 (Central Daylight Time),239406.59999990463,plum,1100,I,z,z,None,795,595.0,200.0,60,3,2427.5,236979.09999990463,8084,plum,NF,C,233532,233532,231704,232815,231704,234132,233332,233332,234132,37
37,test,1,con,1,m,Wed Jun 03 2026 16:11:24 GMT-0500 (Central Daylight Time),241339.19999992847,cobalt,900,I,m,m,None,497,298.0,199.0,90,3,1928.5,239410.69999992847,8084,cobalt,NF,C,235765,235765,234136,235048,234136,236064,235565,235565,236064,38
38,test,1,con,1,z,Wed Jun 03 2026 16:11:24 GMT-0500 (Central Daylight Time),243338.5,banana,800,I,z,z,None,666,466.0,200.0,1,3,1995.4000000953674,241343.09999990463,8084,banana,NF,C,237597,237597,236068,236882,236068,238064,237397,237397,238064,39
39,test,1,con,1,z,Wed Jun 03 2026 16:11:24 GMT-0500 (Central Daylight Time),245337.89999997616,plum,1000,I,z,z,None,465,266.0,199.0,59,3,1994.2000000476837,243343.69999992847,8084,plum,NF,C,239797,239797,238069,239080,238069,240063,239597,239597,240063,40
40,test,1,inc,1,m,Wed Jun 03 2026 16:11:24 GMT-0500 (Central Daylight Time),247353.89999997616,pear,900,I,m,m,None,583,383.0,200.0,110,3,2011.7000000476837,245342.19999992847,8084,iron,NF,C,241696,241696,240067,240979,240067,242079,241496,241496,242079,41
41,test,1,inc,1,m,Wed Jun 03 2026 16:11:24 GMT-0500 (Central Daylight Time),249453.29999995232,lime,800,I,m,m,None,763,563.0,200.0,101,3,2095.2000000476837,247358.09999990463,8084,gold,NF,C,243612,243612,242083,242896,242083,244178,243412,243412,244178,42
42,test,1,con,1,m,Wed Jun 03 2026 16:11:24 GMT-0500 (Central Daylight Time),251486.09999990463,gold,1000,I,m,m,None,487,288.0,199.0,99,3,2028.2999999523163,249457.79999995232,8084,gold,NF,C,245911,245911,244183,245195,244183,246211,245712,245712,246211,43
43,test,1,inc,1,z,Wed Jun 03 2026 16:11:24 GMT-0500 (Central Daylight Time),253602.09999990463,iron,900,I,z,z,None,683,483.0,200.0,54,3,2110.6999999284744,251491.39999997616,8084,kiwi,NF,C,247844,247844,246216,247127,246217,248327,247644,247644,248327,44
44,test,1,con,1,z,Wed Jun 03 2026 16:11:24 GMT-0500 (Central Daylight Time),255751.39999997616,raisin,800,I,z,z,None,785,586.0,199.0,25,3,2144.2000000476837,253607.19999992847,8084,raisin,NF,C,249877,249877,248332,249171,248333,250477,249677,249677,250476,45
45,test,1,con,1,z,Wed Jun 03 2026 16:11:24 GMT-0500 (Central Daylight Time),257817.39999997616,orange,900,I,z,z,None,618,418.0,200.0,18,3,2061.7000000476837,255755.69999992847,8084,orange,NF,C,252109,252109,250481,251393,250481,252542,251909,251909,252542,46
46,test,1,inc,1,m,Wed Jun 03 2026 16:11:24 GMT-0500 (Central Daylight Time),259666.89999997616,lime,800,I,m,m,None,508,308.0,200.0,125,3,1845.0,257821.89999997616,8084,lead,NF,C,254075,254075,252547,253359,252547,254392,253875,253875,254392,47
47,test,1,con,1,z,Wed Jun 03 2026 16:11:24 GMT-0500 (Central Daylight Time),261649.59999990463,cherry,900,I,z,z,None,542,342.0,200.0,10,3,1978.3999999761581,259671.19999992847,8084,cherry,NF,C,256025,256025,254396,255308,254396,256375,255825,255825,256375,48
47,test,1,inc,0,z,Wed Jun 03 2026 16:11:24 GMT-0500 (Central Daylight Time),263716.7999999523,iron,900,I,m,m,None,622,423.0,199.0,38,3,2063.2999999523163,261653.5,8084,lime,NF,C,258008,258008,256379,257291,256379,258442,257808,257808,258442,49
48,test,1,inc,1,z,Wed Jun 03 2026 16:11:24 GMT-0500 (Central Daylight Time),265964.89999997616,lead,1100,I,z,z,None,604,405.0,199.0,56,3,2242.8000000715256,263722.09999990463,8084,kiwi,NF,C,260274,260274,258447,259557,258448,260690,260074,260074,260690,50
49,test,1,con,1,m,Wed Jun 03 2026 16:11:24 GMT-0500 (Central Daylight Time),268097.59999990463,copper,1000,I,m,m,None,592,392.0,200.0,75,3,2128.5,265969.09999990463,8084,copper,NF,C,262423,262423,260694,261706,260694,262823,262223,262223,262823,51
50,test,1,inc,1,m,Wed Jun 03 2026 16:11:24 GMT-0500 (Central Daylight Time),270213.59999990463,cherry,900,I,m,m,None,670,471.0,199.0,94,3,2111.5999999046326,268102.0,8084,cobalt,NF,C,264456,264456,262827,263739,262827,264939,264256,264256,264939,52
51,test,1,inc,1,m,Wed Jun 03 2026 16:11:24 GMT-0500 (Central Daylight Time),272412.7999999523,raisin,1100,I,m,m,None,563,364.0,199.0,80,3,2195.0,270217.7999999523,8084,copper,NF,C,266771,266771,264943,266055,264943,267138,266572,266572,267138,53
52,test,1,inc,1,m,Wed Jun 03 2026 16:11:24 GMT-0500 (Central Daylight Time),274345.89999997616,lime,800,I,m,m,None,592,392.0,200.0,117,3,1928.8000000715256,272417.09999990463,8084,zinc,NF,C,268671,268671,267142,267954,267142,269071,268471,268471,269071,54
53,test,1,inc,1,m,Wed Jun 03 2026 16:11:24 GMT-0500 (Central Daylight Time),276544.7999999523,raisin,1100,I,m,m,None,550,351.0,199.0,72,3,2194.100000023842,274350.6999999285,8084,bronze,NF,C,270904,270904,269076,270187,269076,271270,270704,270704,271270,55
54,test,1,con,1,m,Wed Jun 03 2026 16:11:24 GMT-0500 (Central Daylight Time),278910.7999999523,copper,1100,I,m,m,None,735,520.0,215.0,76,3,2361.5,276549.2999999523,8084,copper,NF,C,273103,273103,271274,272387,271275,273636,272888,272888,273636,56
55,test,1,inc,1,m,Wed Jun 03 2026 16:11:24 GMT-0500 (Central Daylight Time),281110.09999990463,plum,1100,I,m,m,None,562,362.0,200.0,104,3,2194.6999999284744,278915.39999997616,8084,gold,NF,C,275469,275469,273640,274752,273641,275835,275269,275269,275835,57
56,test,1,inc,1,m,Wed Jun 03 2026 16:11:24 GMT-0500 (Central Daylight Time),283076.0,lime,800,I,m,m,None,631,431.0,200.0,109,3,1961.8000000715256,281114.1999999285,8084,iron,NF,C,277368,277368,275839,276652,275840,277801,277168,277168,277801,58
57,test,1,con,1,m,Wed Jun 03 2026 16:11:24 GMT-0500 (Central Daylight Time),285192.09999990463,iron,1100,I,m,m,None,477,277.0,200.0,108,3,2112.0999999046326,283080.0,8084,iron,NF,C,279634,279634,277805,278918,277805,279917,279434,279434,279917,59
58,test,1,inc,1,z,Wed Jun 03 2026 16:11:24 GMT-0500 (Central Daylight Time),287241.59999990463,copper,900,I,z,z,None,601,401.0,200.0,22,3,2044.8999999761581,285196.6999999285,8084,orange,NF,C,281550,281550,279922,280834,279922,281967,281350,281350,281967,60
59,test,1,inc,1,z,Wed Jun 03 2026 16:11:24 GMT-0500 (Central Daylight Time),289407.5,iron,900,I,z,z,None,720,519.0,201.0,62,3,2161.5,287246.0,8084,plum,NF,C,283600,283600,281971,282883,281971,284133,283399,283399,284132,61
60,test,1,inc,1,m,Wed Jun 03 2026 16:11:24 GMT-0500 (Central Daylight Time),291423.7999999523,pear,900,I,m,m,None,568,369.0,199.0,126,3,2011.8999999761581,289411.89999997616,8084,lead,NF,C,285766,285766,284137,285049,284137,286149,285566,285566,286149,62
61,test,1,con,1,m,Wed Jun 03 2026 16:11:24 GMT-0500 (Central Daylight Time),293489.6999999285,iron,900,I,m,m,None,624,425.0,199.0,106,3,2061.7999999523163,291427.89999997616,8084,iron,NF,C,287782,287782,286153,287065,286153,288215,287582,287582,288215,63
62,test,1,inc,1,m,Wed Jun 03 2026 16:11:24 GMT-0500 (Central Daylight Time),295538.7999999523,orange,1000,I,m,m,None,514,315.0,199.0,87,3,2044.1000000238419,293494.6999999285,8084,silver,NF,C,289948,289948,288220,289231,288220,290264,289748,289748,290264,64
63,test,1,inc,1,m,Wed Jun 03 2026 16:11:24 GMT-0500 (Central Daylight Time),297505.09999990463,cherry,900,I,m,m,None,518,318.0,200.0,78,3,1960.6999999284744,295544.39999997616,8084,copper,NF,C,291897,291897,290269,291180,290270,292230,291697,291697,292230,65
64,test,1,inc,1,z,Wed Jun 03 2026 16:11:24 GMT-0500 (Central Daylight Time),299770.89999997616,lead,1100,I,z,z,None,632,432.0,200.0,40,3,2260.899999976158,297510.0,8084,lime,NF,C,294063,294063,292235,293346,292235,294496,293863,293863,294496,66
65,test,1,con,1,m,Wed Jun 03 2026 16:11:24 GMT-0500 (Central Daylight Time),301937.0,silver,900,I,m,m,None,726,462.0,264.0,82,3,2161.8000000715256,299775.1999999285,8084,silver,NF,C,296193,296193,294500,295412,294501,296662,295929,295929,296662,67
66,test,1,inc,1,z,Wed Jun 03 2026 16:11:24 GMT-0500 (Central Daylight Time),304252.7999999523,lead,1100,I,z,z,None,680,480.0,200.0,64,3,2311.399999976158,301941.39999997616,8084,plum,NF,C,298495,298495,296666,297779,296667,298978,298295,298295,298978,68
67,test,1,con,1,m,Wed Jun 03 2026 16:11:24 GMT-0500 (Central Daylight Time),306452.1999999285,bronze,1000,I,m,m,None,656,456.0,200.0,67,3,2195.1999999284744,304257.0,8084,bronze,NF,C,300711,300711,298982,299994,298982,301177,300511,300511,301177,69
68,test,1,con,1,z,Wed Jun 03 2026 16:11:24 GMT-0500 (Central Daylight Time),308751.59999990463,pear,1100,I,z,z,None,653,453.0,200.0,44,3,2294.399999976158,306457.1999999285,8084,pear,NF,C,303010,303010,301182,302294,301182,303477,302810,302810,303477,70
69,test,1,con,1,m,Wed Jun 03 2026 16:11:24 GMT-0500 (Central Daylight Time),310734.0,gold,900,I,m,m,None,544,345.0,199.0,98,3,1977.7000000476837,308756.2999999523,8084,gold,NF,C,305110,305110,303481,304393,303482,305459,304910,304910,305459,71
70,test,1,inc,1,z,Wed Jun 03 2026 16:11:24 GMT-0500 (Central Daylight Time),312983.39999997616,zinc,1000,I,z,z,None,711,511.0,200.0,63,3,2245.100000023842,310738.2999999523,8084,plum,NF,C,307192,307192,305463,306476,305464,307708,306992,306992,307708,72
71,test,1,inc,1,m,Wed Jun 03 2026 16:11:24 GMT-0500 (Central Daylight Time),315332.7999999523,plum,1100,I,m,m,None,713,513.0,200.0,112,3,2345.2999999523163,312987.5,8084,iron,NF,C,309542,309542,307713,308825,307713,310058,309341,309341,310058,73
72,test,1,inc,1,m,Wed Jun 03 2026 16:11:24 GMT-0500 (Central Daylight Time),317498.6999999285,plum,1100,I,m,m,None,532,332.0,200.0,120,3,2161.7999999523163,315336.89999997616,8084,zinc,NF,C,311891,311891,310062,311174,310062,312224,311691,311691,312224,74
73,test,1,inc,1,z,Wed Jun 03 2026 16:11:24 GMT-0500 (Central Daylight Time),319431.2999999523,copper,900,I,z,z,None,493,294.0,199.0,14,3,1928.1000000238419,317503.1999999285,8084,cherry,NF,C,313857,313857,312228,313140,312229,314156,313657,313657,314156,75
74,test,1,inc,1,z,Wed Jun 03 2026 16:11:24 GMT-0500 (Central Daylight Time),321480.89999997616,gold,800,I,z,z,None,700,501.0,199.0,45,3,2045.6000000238419,319435.2999999523,8084,pear,NF,C,315690,315690,314160,314973,314161,316206,315490,315490,316206,76
75,test,1,con,1,m,Wed Jun 03 2026 16:11:24 GMT-0500 (Central Daylight Time),323346.89999997616,silver,800,I,m,m,None,532,332.0,200.0,81,3,1861.2000000476837,321485.6999999285,8084,silver,NF,C,317739,317739,316211,317022,316211,318072,317539,317539,318072,77
76,test,1,inc,1,m,Wed Jun 03 2026 16:11:24 GMT-0500 (Central Daylight Time),325265.1999999285,banana,800,I,m,m,None,578,378.0,200.0,77,3,1914.0,323351.1999999285,8084,copper,NF,C,319605,319605,318076,318889,318077,319990,319405,319405,319990,78
77,test,1,con,1,m,Wed Jun 03 2026 16:11:24 GMT-0500 (Central Daylight Time),327362.1999999285,iron,1000,I,m,m,None,566,366.0,200.0,107,3,2091.899999976158,325270.2999999523,8084,iron,NF,C,321721,321721,319995,321006,319996,322087,321521,321521,322087,79
78,test,1,inc,1,m,Wed Jun 03 2026 16:11:24 GMT-0500 (Central Daylight Time),329545.0,kiwi,1000,I,m,m,None,643,443.0,200.0,111,3,2178.2000000476837,327366.7999999523,8084,iron,NF,C,323820,323820,322092,323104,322092,324270,323620,323620,324270,80
79,test,1,con,1,z,Wed Jun 03 2026 16:11:24 GMT-0500 (Central Daylight Time),331844.09999990463,raisin,1100,I,z,z,None,664,464.0,200.0,28,3,2294.5,329549.59999990463,8084,raisin,NF,C,326103,326103,324275,325386,324275,326569,325903,325903,326569,81
80,test,1,inc,1,z,Wed Jun 03 2026 16:11:24 GMT-0500 (Central Daylight Time),333926.89999997616,zinc,1000,I,z,z,None,537,337.0,200.0,39,3,2078.8000000715256,331848.09999990463,8084,lime,NF,C,328302,328302,326573,327586,326573,328652,328102,328102,328652,82
81,test,1,inc,1,z,Wed Jun 03 2026 16:11:24 GMT-0500 (Central Daylight Time),336109.5,copper,900,I,z,z,None,745,545.0,200.0,6,3,2178.0,333931.5,8084,banana,NF,C,330285,330285,328657,329568,328657,330835,330085,330085,330835,83
82,test,1,inc,1,z,Wed Jun 03 2026 16:11:24 GMT-0500 (Central Daylight Time),338025.6999999285,bronze,800,I,z,z,None,574,375.0,199.0,5,3,1911.6999999284744,336114.0,8084,banana,NF,C,332367,332368,330839,331651,330839,332751,332168,332168,332751,84
83,test,1,con,1,z,Wed Jun 03 2026 16:11:24 GMT-0500 (Central Daylight Time),340175.0,lime,1100,I,z,z,None,511,311.0,200.0,36,3,2144.9000000953674,338030.09999990463,8084,lime,NF,C,334584,334584,332755,333867,332755,334900,334384,334384,334900,85
84,test,1,inc,1,z,Wed Jun 03 2026 16:11:24 GMT-0500 (Central Daylight Time),342374.09999990463,silver,1000,I,z,z,None,654,454.0,200.0,23,3,2194.399999976158,340179.6999999285,8084,orange,NF,C,336633,336633,334905,335916,334905,337099,336433,336433,337099,86
85,test,1,con,1,m,Wed Jun 03 2026 16:11:24 GMT-0500 (Central Daylight Time),344607.0,zinc,1100,I,m,m,None,587,387.0,200.0,116,3,2228.7000000476837,342378.2999999523,8084,zinc,NF,C,338932,338932,337103,338216,337104,339332,338732,338732,339332,87
86,test,1,con,1,m,Wed Jun 03 2026 16:11:24 GMT-0500 (Central Daylight Time),346689.5,silver,1100,I,m,m,None,434,234.0,200.0,84,3,2078.600000023842,344610.89999997616,8084,silver,NF,C,341165,341165,339336,340448,339336,341415,340965,340965,341415,88
87,test,1,con,1,m,Wed Jun 03 2026 16:11:24 GMT-0500 (Central Daylight Time),348622.39999997616,bronze,800,I,m,m,None,595,395.0,200.0,65,3,1928.7000000476837,346693.6999999285,8084,bronze,NF,C,342948,342948,341419,342231,341419,343348,342748,342748,343347,89
88,test,1,con,1,z,Wed Jun 03 2026 16:11:24 GMT-0500 (Central Daylight Time),350588.5,lime,800,I,z,z,None,629,429.0,200.0,33,3,1961.9000000953674,348626.59999990463,8084,lime,NF,C,344881,344881,343352,344164,343352,345314,344680,344680,345314,90
89,test,1,inc,1,m,Wed Jun 03 2026 16:11:24 GMT-0500 (Central Daylight Time),352687.6999999285,banana,800,I,m,m,None,753,553.0,200.0,85,3,2094.600000023842,350593.09999990463,8084,silver,NF,C,346846,346846,345318,346130,345318,347413,346646,346646,347413,91
90,test,1,inc,1,m,Wed Jun 03 2026 16:11:24 GMT-0500 (Central Daylight Time),354787.0,orange,1000,I,m,m,None,564,365.0,199.0,71,3,2095.100000023842,352691.89999997616,8084,bronze,NF,C,349146,349146,347417,348429,347417,349512,348946,348946,349512,92
91,test,1,con,1,z,Wed Jun 03 2026 16:11:24 GMT-0500 (Central Daylight Time),356953.0,kiwi,900,I,z,z,None,718,518.0,200.0,50,3,2160.8000000715256,354792.1999999285,8084,kiwi,NF,C,351145,351145,349517,350428,349518,351678,350945,350945,351678,93
92,test,1,inc,1,z,Wed Jun 03 2026 16:11:24 GMT-0500 (Central Daylight Time),358835.6999999285,bronze,800,I,z,z,None,548,348.0,200.0,29,3,1878.6999999284744,356957.0,8084,raisin,NF,C,353211,353211,351682,352495,351682,353561,353011,353011,353561,94
93,test,1,inc,1,z,Wed Jun 03 2026 16:11:24 GMT-0500 (Central Daylight Time),360918.5,gold,800,I,z,z,None,745,545.0,200.0,53,3,2078.4000000953674,358840.09999990463,8084,kiwi,NF,C,355094,355094,353565,354377,353565,355644,354894,354894,355644,95
94,test,1,inc,1,z,Wed Jun 03 2026 16:11:24 GMT-0500 (Central Daylight Time),362751.1999999285,gold,800,I,z,z,None,493,294.0,199.0,37,3,1828.3999999761581,360922.7999999523,8084,lime,NF,C,357177,357177,355648,356460,355648,357476,356976,356977,357476,96
95,test,1,inc,1,m,Wed Jun 03 2026 16:11:24 GMT-0500 (Central Daylight Time),364933.7999999523,kiwi,1000,I,m,m,None,646,446.0,200.0,119,3,2178.399999976158,362755.39999997616,8084,zinc,NF,C,359209,359209,357480,358493,357481,359659,359009,359009,359659,97
96,test,1,con,1,z,Wed Jun 03 2026 16:11:24 GMT-0500 (Central Daylight Time),366783.2999999523,banana,900,I,z,z,None,411,211.0,200.0,2,3,1845.2999999523163,364938.0,8084,banana,NF,C,361292,361292,359663,360576,359663,361508,361092,361092,361508,98
97,test,1,con,1,z,Wed Jun 03 2026 16:11:24 GMT-0500 (Central Daylight Time),368849.2999999523,lime,900,I,z,z,None,617,418.0,199.0,34,3,2062.2999999523163,366787.0,8084,lime,NF,C,363141,363141,361512,362425,361513,363574,362942,362942,363574,99
98,test,1,inc,1,z,Wed Jun 03 2026 16:11:24 GMT-0500 (Central Daylight Time),371232.0,cobalt,1100,I,z,z,None,744,544.0,200.0,24,3,2378.8000000715256,368853.1999999285,8084,orange,NF,C,365407,365407,363578,364691,363579,365957,365207,365207,365957,100
99,test,1,con,1,z,Wed Jun 03 2026 16:11:24 GMT-0500 (Central Daylight Time),373464.39999997616,raisin,1000,I,z,z,None,593,393.0,200.0,27,3,2227.0,371237.39999997616,8084,raisin,NF,C,367790,367790,365962,367082,365963,368189,367590,367590,368189,101
100,test,1,inc,1,z,Wed Jun 03 2026 16:11:24 GMT-0500 (Central Daylight Time),375630.5,cobalt,1100,I,z,z,None,527,328.0,199.0,32,3,2161.600000023842,373468.89999997616,8084,raisin,NF,C,370023,370023,368194,369306,368194,370356,369823,369823,370355,102
101,test,1,inc,1,z,Wed Jun 03 2026 16:11:24 GMT-0500 (Central Daylight Time),377846.5,lead,1100,I,z,z,None,569,370.0,199.0,48,3,2212.0,375634.5,8084,pear,NF,C,372189,372189,370360,371472,370360,372572,371989,371989,372572,103
101,test,1,con,0,z,Wed Jun 03 2026 16:11:24 GMT-0500 (Central Daylight Time),380162.39999997616,kiwi,1100,I,m,m,None,674,475.0,199.0,52,3,2311.8000000715256,377850.59999990463,8084,kiwi,NF,C,374404,374404,372576,373688,372576,374887,374205,374205,374887,104
102,test,1,inc,1,z,Wed Jun 03 2026 16:11:24 GMT-0500 (Central Daylight Time),382361.6999999285,zinc,1000,I,z,z,None,651,451.0,200.0,55,3,2194.899999976158,380166.7999999523,8084,kiwi,NF,C,376620,376620,374892,375904,374892,377087,376420,376420,377087,105
103,test,1,con,1,m,Wed Jun 03 2026 16:11:24 GMT-0500 (Central Daylight Time),384327.7999999523,iron,800,I,m,m,None,619,419.0,200.0,105,3,1961.5,382366.2999999523,8084,iron,NF,C,378620,378620,377091,377903,377092,379053,378420,378420,379053,106
104,test,1,inc,1,m,Wed Jun 03 2026 16:11:24 GMT-0500 (Central Daylight Time),386310.5,banana,800,I,m,m,None,637,437.0,200.0,69,3,1978.5,384332.0,8084,bronze,NF,C,380586,380586,379057,379869,379057,381036,380386,380386,381036,107
105,test,1,inc,1,m,Wed Jun 03 2026 16:11:24 GMT-0500 (Central Daylight Time),388459.7999999523,orange,1000,I,m,m,None,614,415.0,199.0,79,3,2145.2999999523163,386314.5,8084,copper,NF,C,382768,382768,381040,382052,381040,383185,382569,382569,383185,108
106,test,1,inc,1,m,Wed Jun 03 2026 16:11:24 GMT-0500 (Central Daylight Time),390642.5,plum,1100,I,m,m,None,549,349.0,200.0,128,3,2178.5,388464.0,8084,lead,NF,C,385018,385018,383189,384301,383189,385368,384818,384818,385367,109
107,test,1,inc,1,z,Wed Jun 03 2026 16:11:24 GMT-0500 (Central Daylight Time),392792.0,silver,1000,I,z,z,None,602,403.0,199.0,31,3,2145.100000023842,390646.89999997616,8084,raisin,NF,C,387100,387100,385372,386384,385372,387517,386901,386901,387517,110
108,test,1,con,1,m,Wed Jun 03 2026 16:11:24 GMT-0500 (Central Daylight Time),394791.09999990463,silver,1000,I,m,m,None,453,253.0,200.0,83,3,1994.5999999046326,392796.5,8084,silver,NF,C,389250,389250,387522,388533,387522,389516,389050,389050,389516,111
109,test,1,inc,1,z,Wed Jun 03 2026 16:11:24 GMT-0500 (Central Daylight Time),396973.7999999523,zinc,1000,I,z,z,None,538,338.0,200.0,47,3,2178.5,394795.2999999523,8084,pear,NF,C,391349,391349,389520,390644,389521,391699,391149,391149,391699,112
110,test,1,con,1,z,Wed Jun 03 2026 16:11:24 GMT-0500 (Central Daylight Time),399006.5,pear,900,I,z,z,None,587,387.0,200.0,42,3,2028.6000000238419,396977.89999997616,8084,pear,NF,C,393332,393332,391703,392615,391703,393732,393132,393132,393731,113
111,test,1,con,1,m,Wed Jun 03 2026 16:11:24 GMT-0500 (Central Daylight Time),401272.5,cobalt,1000,I,m,m,None,717,518.0,199.0,91,3,2262.100000023842,399010.39999997616,8084,cobalt,NF,C,395465,395465,393735,394748,393736,395998,395265,395265,395998,114
112,test,1,inc,1,m,Wed Jun 03 2026 16:11:24 GMT-0500 (Central Daylight Time),403405.1999999285,kiwi,1000,I,m,m,None,587,387.0,200.0,127,3,2128.6999999284744,401276.5,8084,lead,NF,C,397732,397732,396002,397014,396002,398130,397531,397531,398130,115
113,test,1,inc,1,z,Wed Jun 03 2026 16:11:24 GMT-0500 (Central Daylight Time),405337.89999997616,bronze,800,I,z,z,None,592,392.0,200.0,13,3,1928.3999999761581,403409.5,8084,cherry,NF,C,399663,399663,398135,398947,398135,400063,399463,399463,400063,116
114,test,1,con,1,z,Wed Jun 03 2026 16:11:24 GMT-0500 (Central Daylight Time),407520.39999997616,pear,1000,I,z,z,None,635,435.0,200.0,43,3,2178.100000023842,405342.2999999523,8084,pear,NF,C,401796,401796,400067,401079,400068,402245,401596,401596,402245,117
115,test,1,inc,1,z,Wed Jun 03 2026 16:11:24 GMT-0500 (Central Daylight Time),409669.89999997616,silver,1000,I,z,z,None,604,404.0,200.0,15,3,2145.3000000715256,407524.59999990463,8084,cherry,NF,C,403978,403979,402250,403262,402250,404395,403778,403778,404395,118
116,test,1,inc,1,z,Wed Jun 03 2026 16:11:24 GMT-0500 (Central Daylight Time),411719.09999990463,bronze,800,I,z,z,None,703,503.0,200.0,21,3,2045.3999999761581,409673.6999999285,8084,orange,NF,C,405928,405928,404399,405211,404399,406444,405728,405728,406444,119
117,test,1,con,1,m,Wed Jun 03 2026 16:11:24 GMT-0500 (Central Daylight Time),413651.89999997616,lead,900,I,m,m,None,498,298.0,200.0,122,3,1928.8999999761581,411723.0,8084,lead,NF,C,408077,408077,406448,407361,406448,408377,407877,407877,408377,120
118,test,1,inc,1,z,Wed Jun 03 2026 16:11:24 GMT-0500 (Central Daylight Time),415784.59999990463,cobalt,1100,I,z,z,None,485,285.0,200.0,8,3,2128.5,413656.09999990463,8084,banana,NF,C,410210,410210,408381,409494,408381,410510,410010,410010,410510,121
119,test,1,inc,1,m,Wed Jun 03 2026 16:11:24 GMT-0500 (Central Daylight Time),418184.0,raisin,1100,I,m,m,None,751,552.0,199.0,96,3,2394.600000023842,415789.39999997616,8084,cobalt,NF,C,412343,412343,410514,411626,410515,412909,412142,412143,412909,122
120,test,1,con,1,m,Wed Jun 03 2026 16:11:24 GMT-0500 (Central Daylight Time),420166.5,copper,900,I,m,m,None,535,336.0,199.0,74,3,1978.2000000476837,418188.2999999523,8084,copper,NF,C,414542,414542,412913,413825,412914,414892,414342,414343,414892,123
121,test,1,con,1,z,Wed Jun 03 2026 16:11:24 GMT-0500 (Central Daylight Time),422315.7999999523,raisin,900,I,z,z,None,706,506.0,200.0,26,3,2145.100000023842,420170.6999999285,8084,raisin,NF,C,416525,416525,414896,415808,414896,417041,416325,416325,417041,124
122,test,1,con,1,z,Wed Jun 03 2026 16:11:24 GMT-0500 (Central Daylight Time),424681.7999999523,pear,800,I,z,z,None,1017,817.0,200.0,41,3,2361.7000000476837,422320.09999990463,8084,pear,NF,C,418574,418574,417045,417857,417045,419407,418374,418374,419407,125
123,test,1,con,1,z,Wed Jun 03 2026 16:11:24 GMT-0500 (Central Daylight Time),426631.1999999285,orange,1000,I,z,z,None,403,203.0,200.0,19,3,1944.5,424686.6999999285,8084,orange,NF,C,421140,421140,419412,420423,419412,421356,420940,420940,421356,126
124,test,1,con,1,z,Wed Jun 03 2026 16:11:24 GMT-0500 (Central Daylight Time),428663.89999997616,lime,1000,I,z,z,None,494,294.0,200.0,35,3,2028.3999999761581,426635.5,8084,lime,NF,C,423089,423089,421360,422373,421361,423389,422889,422889,423389,127
125,test,1,con,1,m,Wed Jun 03 2026 16:11:24 GMT-0500 (Central Daylight Time),430779.7999999523,cobalt,1100,I,m,m,None,481,281.0,200.0,92,3,2110.7999999523163,428669.0,8084,cobalt,NF,C,425222,425222,423394,424505,423394,425505,425022,425022,425505,128
