acc_sum,block,block_c,condition,correct,correct_response,datetime,endtime,flanker,jitter,project,response,response_test_buffer_response,response_test_target_response,response_time,response_time_test_buffer_response,response_time_test_target_response,row_sel,session_number,start_end,starttime,subject_id,target,task,task_vers,time_test_buffer,time_test_buffer_response,time_test_constants,time_test_flanker,time_test_jitter,time_test_logger,time_test_target,time_test_target_response,time_test_variables,trial
1,prac,1,con,1,z,Mon May 19 2025 08:06:26 GMT-0500 (Central Daylight Time),130903.0,kiwi,1000,I,z,,,718,,,7,1,3028.1999999284744,127874.80000007153,8042,kiwi,NF,C,,,,,,,,,,1
2,prac,1,con,1,z,Mon May 19 2025 08:06:26 GMT-0500 (Central Daylight Time),133718.90000009537,banana,800,I,z,,,709,,,1,1,2810.5,130908.40000009537,8042,banana,NF,C,,,,,,,,,,2
3,prac,1,inc,1,m,Mon May 19 2025 08:06:26 GMT-0500 (Central Daylight Time),136634.60000002384,raisin,1100,I,m,,,513,,,12,1,2911.0,133723.60000002384,8042,cobalt,NF,C,,,,,,,,,,3
4,prac,1,con,1,m,Mon May 19 2025 08:06:26 GMT-0500 (Central Daylight Time),139433.90000009537,silver,1000,I,m,,,497,,,11,1,2794.9000000953674,136639.0,8042,silver,NF,C,,,,,,,,,,4
5,prac,1,inc,1,m,Mon May 19 2025 08:06:26 GMT-0500 (Central Daylight Time),142282.5,pear,900,I,m,,,646,,,14,1,2843.5999999046326,139438.90000009537,8042,iron,NF,C,,,,,,,,,,5
6,prac,1,inc,1,z,Mon May 19 2025 08:06:26 GMT-0500 (Central Daylight Time),145315.10000002384,lead,1100,I,z,,,630,,,8,1,3028.0,142287.10000002384,8042,plum,NF,C,,,,,,,,,,6
7,prac,1,con,1,m,Mon May 19 2025 08:06:26 GMT-0500 (Central Daylight Time),148014.20000004768,bronze,800,I,m,,,593,,,9,1,2694.7999999523163,145319.40000009537,8042,bronze,NF,C,,,,,,,,,,7
8,prac,1,inc,1,m,Mon May 19 2025 08:06:26 GMT-0500 (Central Daylight Time),150963.40000009537,plum,1100,I,m,,,537,,,16,1,2945.100000023842,148018.30000007153,8042,lead,NF,C,,,,,,,,,,8
9,prac,1,con,1,m,Mon May 19 2025 08:06:26 GMT-0500 (Central Daylight Time),153779.0,zinc,1000,I,m,,,513,,,15,1,2811.399999976158,150967.60000002384,8042,zinc,NF,C,,,,,,,,,,9
10,prac,1,inc,1,z,Mon May 19 2025 08:06:26 GMT-0500 (Central Daylight Time),156428.30000007153,iron,900,I,z,,,445,,,6,1,2643.899999976158,153784.40000009537,8042,pear,NF,C,,,,,,,,,,10
10,prac,1,inc,0,z,Mon May 19 2025 08:06:26 GMT-0500 (Central Daylight Time),159077.5,copper,900,I,m,,,436,,,2,1,2644.2999999523163,156433.20000004768,8042,cherry,NF,C,,,,,,,,,,11
11,prac,1,con,1,z,Mon May 19 2025 08:06:26 GMT-0500 (Central Daylight Time),161909.90000009537,lime,800,I,z,,,726,,,5,1,2827.9000000953674,159082.0,8042,lime,NF,C,,,,,,,,,,12
12,prac,1,con,1,z,Mon May 19 2025 08:06:26 GMT-0500 (Central Daylight Time),164825.5,orange,1000,I,z,,,607,,,3,1,2911.2999999523163,161914.20000004768,8042,orange,NF,C,,,,,,,,,,13
13,prac,1,con,1,m,Mon May 19 2025 08:06:26 GMT-0500 (Central Daylight Time),167474.70000004768,gold,800,I,m,,,539,,,13,1,2644.2999999523163,164830.40000009537,8042,gold,NF,C,,,,,,,,,,14
14,prac,1,inc,1,z,Mon May 19 2025 08:06:26 GMT-0500 (Central Daylight Time),170557.20000004768,cobalt,1100,I,z,,,677,,,4,1,3078.100000023842,167479.10000002384,8042,raisin,NF,C,,,,,,,,,,15
15,prac,1,inc,1,m,Mon May 19 2025 08:06:26 GMT-0500 (Central Daylight Time),173273.10000002384,cherry,900,I,m,,,437,,,10,1,2711.6999999284744,170561.40000009537,8042,copper,NF,C,,,,,,,,,,16
1,test,1,inc,1,m,Mon May 19 2025 08:06:26 GMT-0500 (Central Daylight Time),190401.10000002384,cherry,900,I,m,m,None,526,326.0,200.0,78,1,1962.6999999284744,188438.40000009537,8042,copper,NF,C,186745,186745,185115,186029,185116,187078,186545,186545,187078,1
1,test,1,con,0,z,Mon May 19 2025 08:06:26 GMT-0500 (Central Daylight Time),192433.60000002384,pear,1000,I,m,m,None,484,284.0,200.0,43,1,2027.6000000238419,190406.0,8042,pear,NF,C,188811,188811,187083,188095,187083,189111,188611,188611,189110,2
2,test,1,inc,1,m,Mon May 19 2025 08:06:26 GMT-0500 (Central Daylight Time),194483.20000004768,banana,800,I,m,m,None,707,507.0,200.0,69,1,2045.3999999761581,192437.80000007153,8042,bronze,NF,C,190644,190644,189115,189927,189115,191160,190444,190444,191160,3
3,test,1,con,1,z,Mon May 19 2025 08:06:26 GMT-0500 (Central Daylight Time),196549.0,orange,900,I,z,z,None,580,380.0,200.0,18,1,2061.899999976158,194487.10000002384,8042,orange,NF,C,192843,192843,191164,192141,191164,193226,192643,192643,193226,4
4,test,1,inc,1,z,Mon May 19 2025 08:06:26 GMT-0500 (Central Daylight Time),198514.70000004768,gold,800,I,z,z,None,632,432.0,200.0,45,1,1961.7000000476837,196553.0,8042,pear,NF,C,194759,194759,193230,194043,193230,195192,194559,194559,195192,5
4,test,1,con,0,m,Mon May 19 2025 08:06:26 GMT-0500 (Central Daylight Time),200431.0,silver,900,I,z,z,None,478,278.0,200.0,82,1,1912.3999999761581,198518.60000002384,8042,silver,NF,C,196825,196825,195196,196109,195196,197108,196625,196625,197108,6
4,test,1,con,0,z,Mon May 19 2025 08:06:26 GMT-0500 (Central Daylight Time),202763.80000007153,cherry,1100,I,m,m,None,689,490.0,199.0,12,1,2328.399999976158,200435.40000009537,8042,cherry,NF,C,198941,198941,197112,198225,197113,199441,198742,198742,199441,7
5,test,1,con,1,z,Mon May 19 2025 08:06:26 GMT-0500 (Central Daylight Time),204946.20000004768,raisin,800,I,z,z,None,848,648.0,200.0,25,1,2178.600000023842,202767.60000002384,8042,raisin,NF,C,200974,200974,199445,200258,199445,201623,200774,200774,201623,8
6,test,1,con,1,m,Mon May 19 2025 08:06:26 GMT-0500 (Central Daylight Time),207229.0,iron,1000,I,m,m,None,738,538.0,200.0,107,1,2279.0,204950.0,8042,iron,NF,C,203356,203357,201627,202640,201628,203906,203156,203156,203906,9
7,test,1,con,1,z,Mon May 19 2025 08:06:26 GMT-0500 (Central Daylight Time),209294.90000009537,cherry,800,I,z,z,None,720,520.0,200.0,9,1,2061.8000000715256,207233.10000002384,8042,cherry,NF,C,205439,205439,203910,204723,203910,205972,205239,205239,205972,10
8,test,1,con,1,m,Mon May 19 2025 08:06:26 GMT-0500 (Central Daylight Time),211361.0,gold,800,I,m,m,None,718,518.0,200.0,97,1,2061.5999999046326,209299.40000009537,8042,gold,NF,C,207505,207505,205976,206789,205977,208038,207305,207305,208038,11
9,test,1,inc,1,m,Mon May 19 2025 08:06:26 GMT-0500 (Central Daylight Time),213526.90000009537,orange,1000,I,m,m,None,628,428.0,200.0,79,1,2161.7000000476837,211365.20000004768,8042,copper,NF,C,209771,209771,208042,209055,208043,210204,209571,209571,210204,12
9,test,1,inc,0,m,Mon May 19 2025 08:06:26 GMT-0500 (Central Daylight Time),215693.0,plum,1100,I,z,z,None,522,322.0,200.0,128,1,2162.0,213531.0,8042,lead,NF,C,212037,212037,210208,211321,210208,212370,211837,211837,212370,13
10,test,1,con,1,z,Mon May 19 2025 08:06:26 GMT-0500 (Central Daylight Time),217809.20000004768,pear,800,I,z,z,None,775,575.0,200.0,41,1,2112.0,215697.20000004768,8042,pear,NF,C,213903,213903,212374,213187,212375,214486,213703,213703,214486,14
11,test,1,inc,1,z,Mon May 19 2025 08:06:26 GMT-0500 (Central Daylight Time),219941.70000004768,iron,900,I,z,z,None,695,496.0,199.0,62,1,2128.5,217813.20000004768,8042,plum,NF,C,216119,216119,214490,215403,214491,216619,215920,215920,216619,15
12,test,1,con,1,m,Mon May 19 2025 08:06:26 GMT-0500 (Central Daylight Time),222273.90000009537,silver,1000,I,m,m,None,798,599.0,199.0,83,1,2328.3000000715256,219945.60000002384,8042,silver,NF,C,218352,218352,216623,217635,216623,218951,218152,218152,218951,16
13,test,1,inc,1,m,Mon May 19 2025 08:06:26 GMT-0500 (Central Daylight Time),224623.30000007153,raisin,1100,I,m,m,None,710,510.0,200.0,96,1,2345.2000000476837,222278.10000002384,8042,cobalt,NF,C,220784,220784,218955,220068,218955,221300,220584,220584,221300,17
14,test,1,con,1,m,Mon May 19 2025 08:06:26 GMT-0500 (Central Daylight Time),226889.5,zinc,1000,I,m,m,None,716,517.0,199.0,115,1,2262.2999999523163,224627.20000004768,8042,zinc,NF,C,223034,223034,221304,222317,221305,223567,222834,222834,223566,18
15,test,1,inc,1,z,Mon May 19 2025 08:06:26 GMT-0500 (Central Daylight Time),228988.60000002384,silver,1000,I,z,z,None,562,363.0,199.0,23,1,2095.2999999523163,226893.30000007153,8042,orange,NF,C,225300,225300,223570,224583,223571,225666,225100,225100,225666,19
16,test,1,inc,1,m,Mon May 19 2025 08:06:26 GMT-0500 (Central Daylight Time),231054.80000007153,orange,1000,I,m,m,None,527,328.0,199.0,95,1,2061.100000023842,228993.70000004768,8042,cobalt,NF,C,227399,227399,225671,226682,225671,227732,227199,227199,227732,20
17,test,1,con,1,z,Mon May 19 2025 08:06:26 GMT-0500 (Central Daylight Time),233337.70000004768,banana,1100,I,z,z,None,642,442.0,200.0,4,1,2278.899999976158,231058.80000007153,8042,banana,NF,C,229565,229565,227736,228849,227736,230015,229365,229365,230015,21
18,test,1,con,1,z,Mon May 19 2025 08:06:26 GMT-0500 (Central Daylight Time),235519.90000009537,kiwi,1000,I,z,z,None,633,434.0,199.0,51,1,2175.8000000715256,233344.10000002384,8042,kiwi,NF,C,231748,231748,230021,231031,230022,232197,231548,231548,232197,22
19,test,1,inc,1,m,Mon May 19 2025 08:06:26 GMT-0500 (Central Daylight Time),237752.80000007153,raisin,1100,I,m,m,None,593,393.0,200.0,88,1,2228.0,235524.80000007153,8042,silver,NF,C,234030,234030,232202,233314,232202,234430,233830,233830,234430,23
20,test,1,inc,1,z,Mon May 19 2025 08:06:26 GMT-0500 (Central Daylight Time),239768.60000002384,gold,800,I,z,z,None,675,476.0,199.0,53,1,2011.6999999284744,237756.90000009537,8042,kiwi,NF,C,235963,235963,234434,235247,234434,236446,235763,235763,236446,24
21,test,1,inc,1,m,Mon May 19 2025 08:06:26 GMT-0500 (Central Daylight Time),242101.30000007153,plum,1100,I,m,m,None,695,496.0,199.0,120,1,2329.0,239772.30000007153,8042,zinc,NF,C,238279,238279,236449,237562,236450,238778,238079,238079,238778,25
22,test,1,con,1,m,Mon May 19 2025 08:06:26 GMT-0500 (Central Daylight Time),244250.80000007153,bronze,1000,I,m,m,None,607,408.0,199.0,67,1,2145.5,242105.30000007153,8042,bronze,NF,C,240511,240511,238782,239795,238783,240928,240312,240312,240928,26
23,test,1,inc,1,m,Mon May 19 2025 08:06:26 GMT-0500 (Central Daylight Time),246300.20000004768,cherry,900,I,m,m,None,613,414.0,199.0,70,1,2044.7999999523163,244255.40000009537,8042,bronze,NF,C,242561,242561,240932,241845,240933,242977,242361,242361,242977,27
24,test,1,con,1,z,Mon May 19 2025 08:06:26 GMT-0500 (Central Daylight Time),248482.5,pear,1100,I,z,z,None,549,349.0,200.0,44,1,2178.1999999284744,246304.30000007153,8042,pear,NF,C,244810,244810,242981,244094,242982,245160,244610,244610,245159,28
25,test,1,con,1,m,Mon May 19 2025 08:06:26 GMT-0500 (Central Daylight Time),250548.60000002384,cobalt,900,I,m,m,None,630,430.0,200.0,90,1,2062.600000023842,248486.0,8042,cobalt,NF,C,246793,246793,245163,246076,245163,247226,246593,246593,247226,29
26,test,1,inc,1,z,Mon May 19 2025 08:06:26 GMT-0500 (Central Daylight Time),252598.40000009537,bronze,800,I,z,z,None,704,504.0,200.0,13,1,2045.9000000953674,250552.5,8042,cherry,NF,C,248759,248759,247230,248042,247230,249275,248559,248559,249275,30
27,test,1,con,1,z,Mon May 19 2025 08:06:26 GMT-0500 (Central Daylight Time),254630.70000004768,kiwi,900,I,z,z,None,595,395.0,200.0,50,1,2028.2999999523163,252602.40000009537,8042,kiwi,NF,C,250908,250908,249279,250192,249280,251308,250708,250708,251308,31
28,test,1,inc,1,z,Mon May 19 2025 08:06:26 GMT-0500 (Central Daylight Time),256780.0,iron,900,I,z,z,None,706,506.0,200.0,46,1,2145.2999999523163,254634.70000004768,8042,pear,NF,C,252941,252941,251312,252224,251312,253457,252741,252741,253457,32
29,test,1,inc,1,z,Mon May 19 2025 08:06:26 GMT-0500 (Central Daylight Time),259079.30000007153,zinc,1000,I,z,z,None,753,553.0,200.0,55,1,2295.600000023842,256783.70000004768,8042,kiwi,NF,C,255190,255190,253461,254474,253461,255756,254990,254990,255756,33
30,test,1,con,1,m,Mon May 19 2025 08:06:26 GMT-0500 (Central Daylight Time),261162.0,copper,900,I,m,m,None,641,442.0,199.0,74,1,2078.7999999523163,259083.20000004768,8042,copper,NF,C,257389,257389,255760,256673,255760,257839,257190,257190,257839,34
31,test,1,inc,1,z,Mon May 19 2025 08:06:26 GMT-0500 (Central Daylight Time),263427.90000009537,lead,1100,I,z,z,None,630,431.0,199.0,56,1,2262.100000023842,261165.80000007153,8042,kiwi,NF,C,259672,259672,257843,258956,257843,260105,259473,259473,260105,35
32,test,1,inc,1,m,Mon May 19 2025 08:06:26 GMT-0500 (Central Daylight Time),265543.90000009537,orange,1000,I,m,m,None,577,377.0,200.0,87,1,2112.4000000953674,263431.5,8042,silver,NF,C,261838,261838,260108,261122,260109,262221,261638,261638,262221,36
33,test,1,inc,1,z,Mon May 19 2025 08:06:26 GMT-0500 (Central Daylight Time),267759.8000000715,copper,900,I,z,z,None,769,569.0,200.0,6,1,2211.899999976158,265547.90000009537,8042,banana,NF,C,263854,263854,262225,263138,262225,264437,263654,263654,264437,37
34,test,1,inc,1,z,Mon May 19 2025 08:06:26 GMT-0500 (Central Daylight Time),270026.0,lead,1100,I,z,z,None,624,424.0,200.0,40,1,2262.2999999523163,267763.7000000477,8042,lime,NF,C,266270,266270,264441,265554,264441,266703,266070,266070,266703,38
35,test,1,con,1,z,Mon May 19 2025 08:06:26 GMT-0500 (Central Daylight Time),272125.3000000715,banana,900,I,z,z,None,662,463.0,199.0,2,1,2095.7000000476837,270029.60000002384,8042,banana,NF,C,268336,268336,266707,267620,266707,268802,268137,268137,268802,39
36,test,1,con,1,z,Mon May 19 2025 08:06:26 GMT-0500 (Central Daylight Time),274058.10000002384,plum,900,I,z,z,None,500,300.0,200.0,58,1,1928.8999999761581,272129.2000000477,8042,plum,NF,C,270435,270435,268806,269719,268807,270735,270235,270235,270735,40
37,test,1,inc,1,z,Mon May 19 2025 08:06:26 GMT-0500 (Central Daylight Time),276174.2000000477,silver,1000,I,z,z,None,579,379.0,200.0,31,1,2112.399999976158,274061.8000000715,8042,raisin,NF,C,272468,272468,270739,271752,270739,272851,272268,272268,272851,41
38,test,1,inc,1,m,Mon May 19 2025 08:06:26 GMT-0500 (Central Daylight Time),278290.2000000477,kiwi,1000,I,m,m,None,567,367.0,200.0,111,1,2112.0,276178.2000000477,8042,iron,NF,C,274584,274584,272855,273868,272856,274967,274384,274384,274967,42
39,test,1,con,1,z,Mon May 19 2025 08:06:26 GMT-0500 (Central Daylight Time),280239.5,kiwi,800,I,z,z,None,602,403.0,199.0,49,1,1946.0,278293.5,8042,kiwi,NF,C,276500,276500,274971,275784,274971,276917,276301,276301,276916,43
40,test,1,inc,1,m,Mon May 19 2025 08:06:26 GMT-0500 (Central Daylight Time),282155.40000009537,lime,800,I,m,m,None,581,382.0,199.0,117,1,1912.4000000953674,280243.0,8042,zinc,NF,C,278449,278449,276920,277733,276920,278832,278250,278250,278832,44
41,test,1,inc,1,m,Mon May 19 2025 08:06:26 GMT-0500 (Central Daylight Time),284005.0,lime,800,I,m,m,None,503,304.0,199.0,125,1,1845.6999999284744,282159.3000000715,8042,lead,NF,C,280366,280366,278836,279649,278837,280682,280166,280166,280682,45
42,test,1,inc,1,z,Mon May 19 2025 08:06:26 GMT-0500 (Central Daylight Time),286037.5,gold,800,I,z,z,None,688,488.0,200.0,61,1,2028.5999999046326,284008.90000009537,8042,plum,NF,C,282215,282215,280686,281498,280686,282715,282015,282015,282715,46
42,test,1,con,0,m,Mon May 19 2025 08:06:26 GMT-0500 (Central Daylight Time),288286.90000009537,zinc,1100,I,z,z,None,610,411.0,199.0,116,1,2245.5,286041.40000009537,8042,zinc,NF,C,284548,284548,282718,283831,282719,284964,284348,284348,284964,47
43,test,1,inc,1,m,Mon May 19 2025 08:06:26 GMT-0500 (Central Daylight Time),290486.3000000715,kiwi,1000,I,m,m,None,637,429.0,208.0,119,1,2195.3000000715256,288291.0,8042,zinc,NF,C,286730,286730,284968,285981,284968,287163,286522,286522,287163,48
44,test,1,con,1,m,Mon May 19 2025 08:06:26 GMT-0500 (Central Daylight Time),292718.90000009537,bronze,1100,I,m,m,None,595,395.0,200.0,68,1,2229.0,290489.90000009537,8042,bronze,NF,C,288996,288996,287167,288280,287167,289396,288796,288796,289396,49
45,test,1,inc,1,m,Mon May 19 2025 08:06:26 GMT-0500 (Central Daylight Time),294951.5,plum,1100,I,m,m,None,586,386.0,200.0,112,1,2229.0,292722.5,8042,iron,NF,C,291229,291229,289400,290512,289400,291629,291029,291029,291628,50
46,test,1,con,1,z,Mon May 19 2025 08:06:26 GMT-0500 (Central Daylight Time),297167.5,raisin,1000,I,z,z,None,668,469.0,199.0,27,1,2212.1999999284744,294955.3000000715,8042,raisin,NF,C,293362,293362,291632,292645,291633,293845,293162,293162,293845,51
47,test,1,con,1,z,Mon May 19 2025 08:06:26 GMT-0500 (Central Daylight Time),299233.5,orange,800,I,z,z,None,725,525.0,200.0,17,1,2062.0,297171.5,8042,orange,NF,C,295378,295378,293849,294661,293849,295911,295177,295177,295910,52
48,test,1,inc,1,z,Mon May 19 2025 08:06:26 GMT-0500 (Central Daylight Time),301316.2000000477,copper,900,I,z,z,None,639,440.0,199.0,22,1,2079.100000023842,299237.10000002384,8042,orange,NF,C,297543,297543,295914,296828,295914,297993,297344,297344,297993,53
49,test,1,con,1,z,Mon May 19 2025 08:06:26 GMT-0500 (Central Daylight Time),303581.90000009537,banana,1000,I,z,z,None,721,521.0,200.0,3,1,2262.0,301319.90000009537,8042,banana,NF,C,299726,299726,297997,299010,297997,300259,299526,299526,300259,54
50,test,1,con,1,z,Mon May 19 2025 08:06:26 GMT-0500 (Central Daylight Time),305731.40000009537,orange,1000,I,z,z,None,606,406.0,200.0,19,1,2145.7000000476837,303585.7000000477,8042,orange,NF,C,301992,301993,300263,301276,300263,302408,301792,301792,302408,55
51,test,1,inc,1,z,Mon May 19 2025 08:06:26 GMT-0500 (Central Daylight Time),307930.3000000715,zinc,1000,I,z,z,None,664,465.0,199.0,63,1,2194.8000000715256,305735.5,8042,plum,NF,C,304141,304141,302413,303425,302413,304607,303942,303942,304607,56
52,test,1,inc,1,z,Mon May 19 2025 08:06:26 GMT-0500 (Central Daylight Time),310013.40000009537,gold,800,I,z,z,None,746,546.0,200.0,37,1,2079.600000023842,307933.8000000715,8042,lime,NF,C,306141,306141,304611,305424,304611,306690,305941,305941,306690,57
53,test,1,con,1,m,Mon May 19 2025 08:06:26 GMT-0500 (Central Daylight Time),312229.40000009537,lead,1100,I,m,m,None,570,371.0,199.0,124,1,2212.100000023842,310017.3000000715,8042,lead,NF,C,308524,308524,306694,307807,306695,308906,308324,308324,308906,58
54,test,1,con,1,z,Mon May 19 2025 08:06:26 GMT-0500 (Central Daylight Time),314411.8000000715,cherry,900,I,z,z,None,664,464.0,200.0,10,1,2178.8000000715256,312233.0,8042,cherry,NF,C,310623,310623,308910,309918,308910,311089,310423,310423,311089,59
55,test,1,con,1,m,Mon May 19 2025 08:06:26 GMT-0500 (Central Daylight Time),316427.90000009537,copper,800,I,m,m,None,681,481.0,200.0,73,1,2012.4000000953674,314415.5,8042,copper,NF,C,312622,312622,311093,311906,311093,313105,312422,312422,313105,60
56,test,1,inc,1,z,Mon May 19 2025 08:06:26 GMT-0500 (Central Daylight Time),318594.10000002384,iron,900,I,z,z,None,717,517.0,200.0,38,1,2162.399999976158,316431.7000000477,8042,lime,NF,C,314738,314738,313109,314022,313109,315271,314538,314538,315271,61
57,test,1,con,1,m,Mon May 19 2025 08:06:26 GMT-0500 (Central Daylight Time),320609.8000000715,lead,1000,I,m,m,None,475,275.0,200.0,123,1,2011.8000000715256,318598.0,8042,lead,NF,C,317004,317004,315275,316288,315276,317287,316804,316804,317287,62
58,test,1,inc,1,m,Mon May 19 2025 08:06:26 GMT-0500 (Central Daylight Time),322642.5,pear,900,I,m,m,None,599,399.0,200.0,110,1,2028.7999999523163,320613.7000000477,8042,iron,NF,C,318920,318920,317291,318204,317291,319320,318720,318720,319320,63
59,test,1,inc,1,m,Mon May 19 2025 08:06:26 GMT-0500 (Central Daylight Time),324642.0,banana,800,I,m,m,None,650,450.0,200.0,85,1,1996.0999999046326,322645.90000009537,8042,silver,NF,C,320853,320853,319323,320137,319323,321319,320653,320653,321319,64
60,test,1,con,1,z,Mon May 19 2025 08:06:26 GMT-0500 (Central Daylight Time),326558.2000000477,banana,800,I,z,z,None,578,379.0,199.0,1,1,1912.6000000238419,324645.60000002384,8042,banana,NF,C,322852,322852,321323,322136,321323,323235,322653,322653,323235,65
61,test,1,con,1,m,Mon May 19 2025 08:06:26 GMT-0500 (Central Daylight Time),328707.60000002384,iron,1100,I,m,m,None,507,307.0,200.0,108,1,2145.6999999284744,326561.90000009537,8042,iron,NF,C,325068,325068,323239,324352,323239,325385,324868,324868,325385,66
62,test,1,con,1,z,Mon May 19 2025 08:06:26 GMT-0500 (Central Daylight Time),330856.90000009537,raisin,1100,I,z,z,None,500,301.0,199.0,28,1,2145.7000000476837,328711.2000000477,8042,raisin,NF,C,327218,327218,325388,326501,325388,327534,327018,327018,327534,67
63,test,1,con,1,m,Mon May 19 2025 08:06:26 GMT-0500 (Central Daylight Time),333089.40000009537,silver,1100,I,m,m,None,591,392.0,199.0,84,1,2228.8000000715256,330860.60000002384,8042,silver,NF,C,329367,329367,327538,328650,327538,329767,329167,329167,329766,68
64,test,1,inc,1,m,Mon May 19 2025 08:06:26 GMT-0500 (Central Daylight Time),335138.8000000715,cherry,900,I,m,m,None,608,408.0,200.0,86,1,2045.6000000238419,333093.2000000477,8042,silver,NF,C,331399,331399,329770,330683,329770,331816,331199,331199,331816,69
65,test,1,inc,1,m,Mon May 19 2025 08:06:26 GMT-0500 (Central Daylight Time),337338.2000000477,kiwi,1000,I,m,m,None,536,333.0,203.0,127,1,2195.7999999523163,335142.40000009537,8042,lead,NF,C,333666,333666,331819,332832,331820,334015,333462,333462,334015,70
66,test,1,con,1,z,Mon May 19 2025 08:06:26 GMT-0500 (Central Daylight Time),339470.8000000715,lime,900,I,z,z,None,687,487.0,200.0,34,1,2128.899999976158,337341.90000009537,8042,lime,NF,C,335648,335648,334019,334932,334019,336148,335448,335448,336148,71
67,test,1,inc,1,m,Mon May 19 2025 08:06:26 GMT-0500 (Central Daylight Time),341470.2000000477,pear,900,I,m,m,None,562,362.0,200.0,118,1,1995.7999999523163,339474.40000009537,8042,zinc,NF,C,337781,337781,336151,337065,336152,338147,337581,337581,338147,72
68,test,1,inc,1,m,Mon May 19 2025 08:06:26 GMT-0500 (Central Daylight Time),343535.90000009537,pear,900,I,m,m,None,627,427.0,200.0,102,1,2061.4000000953674,341474.5,8042,gold,NF,C,339780,339780,338152,339064,338152,340213,339580,339580,340213,73
69,test,1,inc,1,z,Mon May 19 2025 08:06:26 GMT-0500 (Central Daylight Time),345718.90000009537,silver,1000,I,z,z,None,645,445.0,200.0,7,1,2179.4000000953674,343539.5,8042,banana,NF,C,341946,341946,340217,341229,340217,342396,341746,341746,342396,74
70,test,1,inc,1,m,Mon May 19 2025 08:06:26 GMT-0500 (Central Daylight Time),347718.10000002384,banana,800,I,m,m,None,654,454.0,200.0,93,1,1995.6999999284744,345722.40000009537,8042,cobalt,NF,C,343929,343929,342399,343213,342400,344395,343729,343729,344395,75
71,test,1,inc,1,z,Mon May 19 2025 08:06:26 GMT-0500 (Central Daylight Time),349685.0,bronze,800,I,z,z,None,623,423.0,200.0,21,1,1963.1999999284744,347721.8000000715,8042,orange,NF,C,345928,345928,344399,345212,344399,346362,345728,345728,346362,76
72,test,1,con,1,z,Mon May 19 2025 08:06:26 GMT-0500 (Central Daylight Time),351816.8000000715,raisin,900,I,z,z,None,692,493.0,199.0,26,1,2128.2000000476837,349688.60000002384,8042,raisin,NF,C,347994,347994,346366,347278,346366,348494,347795,347795,348494,77
73,test,1,con,1,z,Mon May 19 2025 08:06:26 GMT-0500 (Central Daylight Time),354066.0,orange,1100,I,z,z,None,600,400.0,200.0,20,1,2245.5,351820.5,8042,orange,NF,C,350327,350327,348498,349611,348498,350743,350127,350127,350743,78
74,test,1,con,1,m,Mon May 19 2025 08:06:26 GMT-0500 (Central Daylight Time),355849.0,silver,800,I,m,m,None,433,234.0,199.0,81,1,1779.1999999284744,354069.8000000715,8042,silver,NF,C,352276,352276,350747,351560,350747,352526,352077,352077,352526,79
75,test,1,inc,1,z,Mon May 19 2025 08:06:26 GMT-0500 (Central Daylight Time),358098.3000000715,cobalt,1100,I,z,z,None,600,400.0,200.0,16,1,2245.7000000476837,355852.60000002384,8042,cherry,NF,C,354359,354359,352530,353643,352530,354775,354159,354159,354775,80
76,test,1,inc,1,z,Mon May 19 2025 08:06:26 GMT-0500 (Central Daylight Time),360551.40000009537,lead,1100,I,z,z,None,814,615.0,199.0,64,1,2449.4000000953674,358102.0,8042,plum,NF,C,356608,356608,354779,355892,354779,357229,356409,356409,357228,81
77,test,1,con,1,m,Mon May 19 2025 08:06:26 GMT-0500 (Central Daylight Time),362513.60000002384,bronze,900,I,m,m,None,524,325.0,199.0,66,1,1958.1999999284744,360555.40000009537,8042,bronze,NF,C,358858,358858,357232,358141,357233,359191,358658,358658,359191,82
78,test,1,inc,1,z,Mon May 19 2025 08:06:26 GMT-0500 (Central Daylight Time),364746.3000000715,cobalt,1100,I,z,z,None,590,391.0,199.0,8,1,2228.600000023842,362517.7000000477,8042,banana,NF,C,361023,361024,359195,360307,359195,361423,360824,360824,361423,83
79,test,1,inc,1,z,Mon May 19 2025 08:06:26 GMT-0500 (Central Daylight Time),367178.8000000715,cobalt,1100,I,z,z,None,791,591.0,200.0,32,1,2428.3000000715256,364750.5,8042,raisin,NF,C,363256,363256,361428,362540,361428,363856,363056,363056,363856,84
80,test,1,con,1,m,Mon May 19 2025 08:06:26 GMT-0500 (Central Daylight Time),369211.40000009537,copper,1000,I,m,m,None,489,290.0,199.0,75,1,2029.0,367182.40000009537,8042,copper,NF,C,365589,365589,363859,364872,363860,365888,365389,365389,365888,85
81,test,1,con,1,m,Mon May 19 2025 08:06:26 GMT-0500 (Central Daylight Time),371360.60000002384,gold,900,I,m,m,None,700,501.0,199.0,98,1,2145.600000023842,369215.0,8042,gold,NF,C,367522,367522,365892,366805,365892,368038,367322,367322,368038,86
82,test,1,con,1,m,Mon May 19 2025 08:06:26 GMT-0500 (Central Daylight Time),373410.10000002384,bronze,800,I,m,m,None,716,516.0,200.0,65,1,2045.8999999761581,371364.2000000477,8042,bronze,NF,C,369571,369571,368041,368854,368042,370087,369371,369371,370087,87
83,test,1,inc,1,z,Mon May 19 2025 08:06:26 GMT-0500 (Central Daylight Time),375375.90000009537,bronze,800,I,z,z,None,627,427.0,200.0,5,1,1962.1000000238419,373413.8000000715,8042,banana,NF,C,371620,371620,370091,370904,370091,372053,371420,371420,372053,88
84,test,1,inc,1,z,Mon May 19 2025 08:06:26 GMT-0500 (Central Daylight Time),377775.5,lead,1100,I,z,z,None,753,553.0,200.0,48,1,2396.1999999284744,375379.3000000715,8042,pear,NF,C,373886,373886,372056,373170,372057,374453,373686,373686,374452,89
85,test,1,con,1,m,Mon May 19 2025 08:06:26 GMT-0500 (Central Daylight Time),379825.0,iron,900,I,m,m,None,609,410.0,199.0,106,1,2045.8999999761581,377779.10000002384,8042,iron,NF,C,376085,376085,374456,375369,374456,376502,375886,375886,376502,90
86,test,1,inc,1,m,Mon May 19 2025 08:06:26 GMT-0500 (Central Daylight Time),382074.10000002384,plum,1100,I,m,m,None,616,416.0,200.0,104,1,2245.600000023842,379828.5,8042,gold,NF,C,378335,378335,376506,377618,376506,378751,378135,378135,378751,91
87,test,1,inc,1,m,Mon May 19 2025 08:06:26 GMT-0500 (Central Daylight Time),384373.3000000715,raisin,1100,I,m,m,None,655,408.0,247.0,72,1,2295.7000000476837,382077.60000002384,8042,bronze,NF,C,380631,380631,378755,379868,378755,381050,380384,380384,381050,92
88,test,1,inc,1,z,Mon May 19 2025 08:06:26 GMT-0500 (Central Daylight Time),386472.8000000715,silver,1000,I,z,z,None,558,359.0,199.0,15,1,2095.5,384377.3000000715,8042,cherry,NF,C,382783,382783,381054,382067,381055,383150,382584,382584,383150,93
89,test,1,con,1,m,Mon May 19 2025 08:06:26 GMT-0500 (Central Daylight Time),388372.0,iron,800,I,m,m,None,556,356.0,200.0,105,1,1895.5999999046326,386476.40000009537,8042,iron,NF,C,384683,384683,383153,383966,383154,385049,384483,384483,385049,94
90,test,1,con,1,m,Mon May 19 2025 08:06:26 GMT-0500 (Central Daylight Time),390521.40000009537,copper,1100,I,m,m,None,501,301.0,200.0,76,1,2145.9000000953674,388375.5,8042,copper,NF,C,386882,386882,385053,386166,385053,387198,386682,386682,387198,95
91,test,1,con,1,m,Mon May 19 2025 08:06:26 GMT-0500 (Central Daylight Time),392437.5,cobalt,800,I,m,m,None,570,371.0,199.0,89,1,1912.2999999523163,390525.2000000477,8042,cobalt,NF,C,388732,388732,387202,388015,387203,389115,388532,388532,389115,96
92,test,1,con,1,z,Mon May 19 2025 08:06:26 GMT-0500 (Central Daylight Time),394719.8000000715,plum,1100,I,z,z,None,641,442.0,199.0,60,1,2278.899999976158,392440.90000009537,8042,plum,NF,C,390948,390948,389118,390231,389118,391397,390748,390748,391397,97
93,test,1,inc,1,m,Mon May 19 2025 08:06:26 GMT-0500 (Central Daylight Time),396769.5,orange,1000,I,m,m,None,509,309.0,200.0,71,1,2045.0999999046326,394724.40000009537,8042,bronze,NF,C,393130,393130,391401,392414,391402,393447,392930,392930,393446,98
94,test,1,inc,1,m,Mon May 19 2025 08:06:26 GMT-0500 (Central Daylight Time),398818.8000000715,cherry,900,I,m,m,None,606,407.0,199.0,94,1,2045.6000000238419,396773.2000000477,8042,cobalt,NF,C,395080,395080,393450,394363,393450,395496,394880,394880,395496,99
95,test,1,inc,1,m,Mon May 19 2025 08:06:26 GMT-0500 (Central Daylight Time),400834.60000002384,lime,800,I,m,m,None,682,482.0,200.0,109,1,2012.0,398822.60000002384,8042,iron,NF,C,397029,397029,395500,396313,395500,397512,396829,396829,397512,100
96,test,1,con,1,z,Mon May 19 2025 08:06:26 GMT-0500 (Central Daylight Time),403150.8000000715,lime,1100,I,z,z,None,677,478.0,199.0,36,1,2312.8000000715256,400838.0,8042,lime,NF,C,399345,399345,397515,398629,397515,399828,399145,399145,399828,101
97,test,1,inc,1,m,Mon May 19 2025 08:06:26 GMT-0500 (Central Daylight Time),405266.40000009537,raisin,1100,I,m,m,None,480,281.0,199.0,80,1,2111.9000000953674,403154.5,8042,copper,NF,C,401661,401661,399832,400944,399832,401943,401461,401461,401943,102
98,test,1,con,1,m,Mon May 19 2025 08:06:26 GMT-0500 (Central Daylight Time),407349.40000009537,gold,1000,I,m,m,None,546,346.0,200.0,99,1,2079.2000000476837,405270.2000000477,8042,gold,NF,C,403677,403677,401947,402960,401948,404027,403477,403477,404026,103
99,test,1,con,1,m,Mon May 19 2025 08:06:26 GMT-0500 (Central Daylight Time),409465.2000000477,cobalt,1100,I,m,m,None,467,268.0,199.0,92,1,2112.2000000476837,407353.0,8042,cobalt,NF,C,405859,405859,404030,405143,404030,406142,405660,405660,406142,104
100,test,1,con,1,m,Mon May 19 2025 08:06:26 GMT-0500 (Central Daylight Time),411231.5,lead,800,I,m,m,None,426,227.0,199.0,121,1,1762.7999999523163,409468.7000000477,8042,lead,NF,C,407675,407676,406146,406959,406146,407909,407476,407476,407909,105
101,test,1,con,1,z,Mon May 19 2025 08:06:26 GMT-0500 (Central Daylight Time),413197.7000000477,pear,900,I,z,z,None,528,329.0,199.0,42,1,1962.6000000238419,411235.10000002384,8042,pear,NF,C,409542,409542,407912,408825,407912,409875,409342,409342,409875,106
102,test,1,con,1,z,Mon May 19 2025 08:06:26 GMT-0500 (Central Daylight Time),416080.0,kiwi,1100,I,z,z,None,1234,1035.0,199.0,52,1,2878.5999999046326,413201.40000009537,8042,kiwi,NF,C,411708,411708,409878,410991,409879,412757,411508,411508,412757,107
102,test,1,con,0,m,Mon May 19 2025 08:06:26 GMT-0500 (Central Daylight Time),417896.10000002384,zinc,800,I,z,z,None,469,269.0,200.0,113,1,1812.3999999761581,416083.7000000477,8042,zinc,NF,C,414290,414290,412761,413574,412761,414573,414090,414090,414573,108
103,test,1,con,1,z,Mon May 19 2025 08:06:26 GMT-0500 (Central Daylight Time),420028.8000000715,lime,1000,I,z,z,None,589,389.0,200.0,35,1,2129.0,417899.8000000715,8042,lime,NF,C,416306,416306,414577,415590,414577,416706,416106,416106,416706,109
103,test,1,con,0,m,Mon May 19 2025 08:06:26 GMT-0500 (Central Daylight Time),421961.60000002384,lead,900,I,z,z,None,491,292.0,199.0,122,1,1929.0,420032.60000002384,8042,lead,NF,C,418339,418339,416710,417622,416710,418639,418139,418139,418639,110
104,test,1,inc,1,m,Mon May 19 2025 08:06:26 GMT-0500 (Central Daylight Time),423927.7000000477,lime,800,I,m,m,None,626,427.0,199.0,101,1,1962.2999999523163,421965.40000009537,8042,gold,NF,C,420172,420172,418642,419455,418643,420605,419972,419972,420605,111
105,test,1,inc,1,m,Mon May 19 2025 08:06:26 GMT-0500 (Central Daylight Time),425943.60000002384,pear,900,I,m,m,None,577,377.0,200.0,126,1,2012.2999999523163,423931.3000000715,8042,lead,NF,C,422238,422238,420608,421521,420609,422621,422038,422038,422621,112
106,test,1,con,1,m,Mon May 19 2025 08:06:26 GMT-0500 (Central Daylight Time),428109.5,cobalt,1000,I,m,m,None,628,429.0,199.0,91,1,2162.1999999284744,425947.3000000715,8042,cobalt,NF,C,424354,424354,422624,423637,422625,424787,424154,424154,424787,113
107,test,1,inc,1,m,Mon May 19 2025 08:06:26 GMT-0500 (Central Daylight Time),430125.60000002384,banana,800,I,m,m,None,679,479.0,200.0,77,1,2012.1000000238419,428113.5,8042,copper,NF,C,426320,426320,424791,425603,424791,426803,426120,426120,426803,114
108,test,1,con,1,z,Mon May 19 2025 08:06:26 GMT-0500 (Central Daylight Time),432374.7000000477,cherry,1000,I,z,z,None,653,454.0,199.0,11,1,2245.2999999523163,430129.40000009537,8042,cherry,NF,C,428585,428585,426806,427879,426807,429052,428386,428386,429052,115
109,test,1,inc,1,m,Mon May 19 2025 08:06:26 GMT-0500 (Central Daylight Time),434357.5,kiwi,1000,I,m,m,None,438,238.0,200.0,103,1,1979.0999999046326,432378.40000009537,8042,gold,NF,C,430785,430785,429055,430068,429056,431035,430585,430585,431035,116
110,test,1,con,1,m,Mon May 19 2025 08:06:26 GMT-0500 (Central Daylight Time),436407.0,gold,1100,I,m,m,None,410,211.0,199.0,100,1,2045.5,434361.5,8042,gold,NF,C,432867,432868,431039,432151,431039,433084,432668,432668,433084,117
111,test,1,inc,1,z,Mon May 19 2025 08:06:26 GMT-0500 (Central Daylight Time),438272.90000009537,iron,900,I,z,z,None,425,226.0,199.0,54,1,1862.4000000953674,436410.5,8042,kiwi,NF,C,434717,434717,433087,434000,433088,434950,434518,434518,434950,118
112,test,1,con,1,z,Mon May 19 2025 08:06:26 GMT-0500 (Central Daylight Time),440355.90000009537,lime,800,I,z,z,None,740,540.0,200.0,33,1,2079.2000000476837,438276.7000000477,8042,lime,NF,C,436483,436483,434954,435767,434954,437033,436283,436283,437033,119
113,test,1,con,1,z,Mon May 19 2025 08:06:26 GMT-0500 (Central Daylight Time),442338.3000000715,plum,800,I,z,z,None,649,449.0,200.0,57,1,1978.6000000238419,440359.7000000477,8042,plum,NF,C,438566,438566,437037,437849,437037,439015,438366,438366,439015,120
114,test,1,con,1,m,Mon May 19 2025 08:06:26 GMT-0500 (Central Daylight Time),444137.8000000715,zinc,900,I,m,m,None,357,158.0,199.0,114,1,1796.1000000238419,442341.7000000477,8042,zinc,NF,C,440649,440649,439019,439932,439019,440815,440449,440449,440815,121
115,test,1,inc,1,z,Mon May 19 2025 08:06:26 GMT-0500 (Central Daylight Time),446253.8000000715,zinc,1000,I,z,z,None,579,379.0,200.0,39,1,2112.399999976158,444141.40000009537,8042,lime,NF,C,442548,442548,440818,441832,440819,442931,442348,442348,442931,122
116,test,1,inc,1,z,Mon May 19 2025 08:06:26 GMT-0500 (Central Daylight Time),448503.0,zinc,1000,I,z,z,None,711,511.0,200.0,47,1,2245.2999999523163,446257.7000000477,8042,pear,NF,C,444664,444664,442935,443948,442935,445180,444464,444464,445180,123
116,test,1,inc,0,z,Mon May 19 2025 08:06:26 GMT-0500 (Central Daylight Time),450435.8000000715,copper,900,I,m,m,None,490,290.0,200.0,14,1,1928.7000000476837,448507.10000002384,8042,cherry,NF,C,446813,446813,445184,446097,445184,447113,446613,446613,447113,124
117,test,1,inc,1,z,Mon May 19 2025 08:06:26 GMT-0500 (Central Daylight Time),452435.2000000477,bronze,800,I,z,z,None,665,465.0,200.0,29,1,1996.1000000238419,450439.10000002384,8042,raisin,NF,C,448646,448646,447116,447930,447116,449112,448446,448446,449112,125
118,test,1,inc,1,z,Mon May 19 2025 08:06:26 GMT-0500 (Central Daylight Time),454776.7000000477,cobalt,1100,I,z,z,None,690,491.0,199.0,24,1,2338.0,452438.7000000477,8042,orange,NF,C,450945,450945,449116,450229,449116,451454,450746,450746,451454,126
119,test,1,inc,1,z,Mon May 19 2025 08:06:26 GMT-0500 (Central Daylight Time),457133.90000009537,copper,900,I,z,z,None,921,721.0,200.0,30,1,2353.2000000476837,454780.7000000477,8042,raisin,NF,C,453078,453078,451458,452362,451458,453811,452878,452878,453811,127
120,test,1,con,1,z,Mon May 19 2025 08:06:26 GMT-0500 (Central Daylight Time),459532.90000009537,plum,1000,I,z,z,None,863,663.0,200.0,59,1,2395.3000000715256,457137.60000002384,8042,plum,NF,C,455544,455544,453815,454827,453815,456210,455344,455344,456210,128
