acc_sum,block,block_c,condition,correct,correct_response,datetime,endtime,flanker,jitter,project,response,response_test_buffer_response,response_test_target_response,response_time,response_time_test_buffer_response,response_time_test_target_response,row_sel,session_number,start_end,starttime,subject_id,target,task,task_vers,time_test_buffer,time_test_buffer_response,time_test_constants,time_test_flanker,time_test_jitter,time_test_logger,time_test_target,time_test_target_response,time_test_variables,trial
0,prac,1,inc,0,m,Wed Oct 08 2025 15:00:42 GMT-0500 (Central Daylight Time),179292.80000007153,cherry,900,I,None,,,1813,,,10,1,4991.5,174301.30000007153,7702,copper,NF,C,,,,,,,,,,1
1,prac,1,inc,1,m,Wed Oct 08 2025 15:00:42 GMT-0500 (Central Daylight Time),182493.5,pear,900,I,m,,,985,,,14,1,3194.7999999523163,179298.70000004768,7702,iron,NF,C,,,,,,,,,,2
2,prac,1,inc,1,z,Wed Oct 08 2025 15:00:42 GMT-0500 (Central Daylight Time),186025.10000002384,iron,900,I,z,,,1322,,,6,1,3525.399999976158,182499.70000004768,7702,pear,NF,C,,,,,,,,,,3
3,prac,1,con,1,z,Wed Oct 08 2025 15:00:42 GMT-0500 (Central Daylight Time),189624.89999997616,orange,1000,I,z,,,1300,,,3,1,3596.0999999046326,186028.80000007153,7702,orange,NF,C,,,,,,,,,,4
4,prac,1,inc,1,m,Wed Oct 08 2025 15:00:42 GMT-0500 (Central Daylight Time),192673.0,raisin,1100,I,m,,,665,,,12,1,3043.899999976158,189629.10000002384,7702,cobalt,NF,C,,,,,,,,,,5
4,prac,1,con,0,m,Wed Oct 08 2025 15:00:42 GMT-0500 (Central Daylight Time),195539.10000002384,gold,800,I,z,,,765,,,13,1,2859.5,192679.60000002384,7702,gold,NF,C,,,,,,,,,,6
5,prac,1,con,1,z,Wed Oct 08 2025 15:00:42 GMT-0500 (Central Daylight Time),198537.0,kiwi,1000,I,z,,,690,,,7,1,2991.899999976158,195545.10000002384,7702,kiwi,NF,C,,,,,,,,,,7
6,prac,1,inc,1,z,Wed Oct 08 2025 15:00:42 GMT-0500 (Central Daylight Time),201703.39999997616,cobalt,1100,I,z,,,764,,,4,1,3160.5,198542.89999997616,7702,raisin,NF,C,,,,,,,,,,8
7,prac,1,con,1,m,Wed Oct 08 2025 15:00:42 GMT-0500 (Central Daylight Time),204602.30000007153,zinc,1000,I,m,,,590,,,15,1,2892.8000000715256,201709.5,7702,zinc,NF,C,,,,,,,,,,9
8,prac,1,con,1,m,Wed Oct 08 2025 15:00:42 GMT-0500 (Central Daylight Time),207302.5,bronze,800,I,m,,,585,,,9,1,2695.1999999284744,204607.30000007153,7702,bronze,NF,C,,,,,,,,,,10
9,prac,1,con,1,z,Wed Oct 08 2025 15:00:42 GMT-0500 (Central Daylight Time),209983.39999997616,banana,800,I,z,,,575,,,1,1,2674.899999976158,207308.5,7702,banana,NF,C,,,,,,,,,,11
10,prac,1,con,1,m,Wed Oct 08 2025 15:00:42 GMT-0500 (Central Daylight Time),212982.5,silver,1000,I,m,,,694,,,11,1,2994.2999999523163,209988.20000004768,7702,silver,NF,C,,,,,,,,,,12
11,prac,1,inc,1,z,Wed Oct 08 2025 15:00:42 GMT-0500 (Central Daylight Time),216049.30000007153,lead,1100,I,z,,,666,,,8,1,3061.9000000953674,212987.39999997616,7702,plum,NF,C,,,,,,,,,,13
12,prac,1,inc,1,m,Wed Oct 08 2025 15:00:42 GMT-0500 (Central Daylight Time),218997.10000002384,plum,1100,I,m,,,549,,,16,1,2943.0,216054.10000002384,7702,lead,NF,C,,,,,,,,,,14
13,prac,1,con,1,z,Wed Oct 08 2025 15:00:42 GMT-0500 (Central Daylight Time),221696.60000002384,lime,800,I,z,,,593,,,5,1,2695.2999999523163,219001.30000007153,7702,lime,NF,C,,,,,,,,,,15
14,prac,1,inc,1,z,Wed Oct 08 2025 15:00:42 GMT-0500 (Central Daylight Time),224412.30000007153,copper,900,I,z,,,503,,,2,1,2711.5,221700.80000007153,7702,cherry,NF,C,,,,,,,,,,16
0,test,1,con,0,m,Wed Oct 08 2025 15:00:42 GMT-0500 (Central Daylight Time),236058.89999997616,bronze,900,I,None,None,None,1815,1815.0,199.0,66,1,3445.399999976158,232613.5,7702,bronze,NF,C,228784,228785,227155,228068,227155,230600,228585,228585,230600,1
1,test,1,inc,1,m,Wed Oct 08 2025 15:00:42 GMT-0500 (Central Daylight Time),237927.20000004768,banana,800,I,m,m,None,540,332.0,208.0,85,1,1864.1000000238419,236063.10000002384,7702,silver,NF,C,232131,232131,230604,231418,230604,232468,231923,231923,232468,2
2,test,1,con,1,m,Wed Oct 08 2025 15:00:42 GMT-0500 (Central Daylight Time),240156.70000004768,gold,900,I,m,m,None,795,596.0,199.0,98,1,2224.2000000476837,237932.5,7702,gold,NF,C,234099,234099,232474,233382,232474,234698,233899,233899,234698,3
3,test,1,inc,1,z,Wed Oct 08 2025 15:00:42 GMT-0500 (Central Daylight Time),242390.39999997616,cobalt,1100,I,z,z,None,594,375.0,219.0,32,1,2225.899999976158,240164.5,7702,raisin,NF,C,236551,236552,234706,235815,234706,236931,236332,236332,236931,4
4,test,1,inc,1,z,Wed Oct 08 2025 15:00:42 GMT-0500 (Central Daylight Time),244339.30000007153,copper,900,I,z,z,None,507,307.0,200.0,22,1,1944.3000000715256,242395.0,7702,orange,NF,C,238564,238564,236936,237848,236936,238880,238364,238364,238880,5
5,test,1,con,1,z,Wed Oct 08 2025 15:00:42 GMT-0500 (Central Daylight Time),246688.70000004768,cherry,900,I,z,z,None,908,709.0,199.0,10,1,2344.100000023842,244344.60000002384,7702,cherry,NF,C,240514,240514,238886,239796,238886,241230,240315,240315,241230,6
6,test,1,inc,1,z,Wed Oct 08 2025 15:00:42 GMT-0500 (Central Daylight Time),248854.30000007153,zinc,1000,I,z,z,None,618,403.0,215.0,39,1,2159.3000000715256,246695.0,7702,lime,NF,C,242979,242980,241236,242247,241236,243395,242764,242764,243395,7
7,test,1,inc,1,z,Wed Oct 08 2025 15:00:42 GMT-0500 (Central Daylight Time),250837.30000007153,bronze,800,I,z,z,None,645,446.0,199.0,21,1,1973.9000000953674,248863.39999997616,7702,orange,NF,C,244929,244929,243404,244212,243405,245378,244729,244729,245378,8
8,test,1,con,1,z,Wed Oct 08 2025 15:00:42 GMT-0500 (Central Daylight Time),253069.39999997616,raisin,1100,I,z,z,None,588,389.0,199.0,28,1,2225.899999976158,250843.5,7702,raisin,NF,C,247211,247211,245384,246495,245385,247610,247011,247011,247610,9
9,test,1,con,1,z,Wed Oct 08 2025 15:00:42 GMT-0500 (Central Daylight Time),255336.0,banana,1100,I,z,z,None,618,418.0,200.0,4,1,2259.1999999284744,253076.80000007153,7702,banana,NF,C,249444,249444,247618,248728,247618,249877,249244,249244,249877,10
10,test,1,con,1,z,Wed Oct 08 2025 15:00:42 GMT-0500 (Central Daylight Time),257384.5,raisin,1000,I,z,z,None,499,299.0,200.0,27,1,2042.0,255342.5,7702,raisin,NF,C,251611,251611,249884,250894,249884,251926,251410,251410,251926,11
11,test,1,inc,1,m,Wed Oct 08 2025 15:00:42 GMT-0500 (Central Daylight Time),259701.60000002384,raisin,1100,I,m,m,None,681,479.0,202.0,80,1,2311.2000000476837,257390.39999997616,7702,copper,NF,C,253760,253760,251931,253044,251932,254243,253558,253558,254243,12
12,test,1,inc,1,m,Wed Oct 08 2025 15:00:42 GMT-0500 (Central Daylight Time),261701.10000002384,cherry,900,I,m,m,None,564,365.0,199.0,94,1,1992.8999999761581,259708.20000004768,7702,cobalt,NF,C,255874,255874,254249,255160,254249,256242,255674,255674,256242,13
13,test,1,inc,1,z,Wed Oct 08 2025 15:00:42 GMT-0500 (Central Daylight Time),264000.89999997616,lead,1100,I,z,z,None,661,461.0,200.0,48,1,2294.0,261706.89999997616,7702,pear,NF,C,258074,258074,256248,257360,256248,258542,257874,257874,258542,14
14,test,1,con,1,z,Wed Oct 08 2025 15:00:42 GMT-0500 (Central Daylight Time),266065.3000000715,pear,900,I,z,z,None,615,400.0,215.0,42,1,2058.2000000476837,264007.10000002384,7702,pear,NF,C,260191,260191,258548,259458,258548,260606,259975,259975,260606,15
15,test,1,inc,1,z,Wed Oct 08 2025 15:00:42 GMT-0500 (Central Daylight Time),267898.2000000477,bronze,800,I,z,z,None,491,292.0,199.0,5,1,1826.0,266072.2000000477,7702,banana,NF,C,262140,262140,260613,261424,260614,262439,261940,261940,262439,16
16,test,1,con,1,z,Wed Oct 08 2025 15:00:42 GMT-0500 (Central Daylight Time),269914.7000000477,cherry,1000,I,z,z,None,465,266.0,199.0,11,1,2013.7000000476837,267901.0,7702,cherry,NF,C,264173,264173,262442,263457,262442,264456,263973,263973,264456,17
17,test,1,inc,1,m,Wed Oct 08 2025 15:00:42 GMT-0500 (Central Daylight Time),272146.5,orange,1000,I,m,m,None,689,489.0,200.0,71,1,2228.5,269918.0,7702,bronze,NF,C,266190,266190,264459,265473,264459,266688,265989,265989,266688,18
18,test,1,inc,1,z,Wed Oct 08 2025 15:00:42 GMT-0500 (Central Daylight Time),274348.3000000715,silver,1000,I,z,z,None,665,466.0,199.0,7,1,2196.9000000953674,272151.39999997616,7702,banana,NF,C,268422,268422,266692,267705,266693,268889,268222,268222,268889,19
19,test,1,con,1,m,Wed Oct 08 2025 15:00:42 GMT-0500 (Central Daylight Time),276579.10000002384,iron,1100,I,m,m,None,598,399.0,199.0,108,1,2225.399999976158,274353.7000000477,7702,iron,NF,C,270721,270721,268895,270004,268895,271120,270521,270521,271120,20
20,test,1,con,1,m,Wed Oct 08 2025 15:00:42 GMT-0500 (Central Daylight Time),278977.89999997616,silver,1100,I,m,m,None,756,541.0,215.0,84,1,2391.5999999046326,276586.3000000715,7702,silver,NF,C,272970,272970,271127,272239,271128,273519,272754,272754,273519,21
21,test,1,inc,1,m,Wed Oct 08 2025 15:00:42 GMT-0500 (Central Daylight Time),280910.8000000715,cherry,900,I,m,m,None,492,278.0,214.0,70,1,1927.8000000715256,278983.0,7702,bronze,NF,C,275169,275169,273524,274437,273524,275452,274954,274954,275452,22
22,test,1,con,1,z,Wed Oct 08 2025 15:00:42 GMT-0500 (Central Daylight Time),283093.60000002384,orange,900,I,z,z,None,737,521.0,216.0,18,1,2177.899999976158,280915.7000000477,7702,orange,NF,C,277102,277102,275457,276369,275457,277635,276886,276886,277635,23
23,test,1,con,1,m,Wed Oct 08 2025 15:00:42 GMT-0500 (Central Daylight Time),285542.5,bronze,1100,I,m,m,None,806,594.0,212.0,68,1,2446.0,283096.5,7702,bronze,NF,C,279484,279484,277638,278751,277638,280084,279272,279272,280084,24
24,test,1,con,1,z,Wed Oct 08 2025 15:00:42 GMT-0500 (Central Daylight Time),287642.10000002384,plum,900,I,z,z,None,672,456.0,216.0,58,1,2096.899999976158,285545.2000000477,7702,plum,NF,C,281718,281719,280086,281000,280086,282183,281502,281502,282183,25
25,test,1,inc,1,z,Wed Oct 08 2025 15:00:42 GMT-0500 (Central Daylight Time),289975.3000000715,lead,1100,I,z,z,None,701,486.0,215.0,56,1,2327.600000023842,287647.7000000477,7702,kiwi,NF,C,284017,284017,282189,283300,282189,284516,283801,283801,284516,26
26,test,1,con,1,z,Wed Oct 08 2025 15:00:42 GMT-0500 (Central Daylight Time),292090.3000000715,orange,1100,I,z,z,None,481,282.0,199.0,20,1,2110.5,289979.8000000715,7702,orange,NF,C,286333,286333,284521,285632,284521,286631,286133,286133,286631,27
27,test,1,con,1,z,Wed Oct 08 2025 15:00:42 GMT-0500 (Central Daylight Time),294125.60000002384,raisin,900,I,z,z,None,617,417.0,200.0,26,1,2029.3999999761581,292096.2000000477,7702,raisin,NF,C,288249,288249,286637,287548,286638,288667,288049,288049,288667,28
28,test,1,inc,1,m,Wed Oct 08 2025 15:00:42 GMT-0500 (Central Daylight Time),296273.2000000477,kiwi,1000,I,m,m,None,609,408.0,201.0,119,1,2143.899999976158,294129.3000000715,7702,zinc,NF,C,290399,290399,288670,289681,288670,290814,290198,290198,290814,29
29,test,1,inc,1,m,Wed Oct 08 2025 15:00:42 GMT-0500 (Central Daylight Time),298288.8000000715,lime,800,I,m,m,None,667,466.0,201.0,117,1,2012.2000000476837,296276.60000002384,7702,zinc,NF,C,292348,292348,290818,291631,290818,292830,292147,292147,292830,30
30,test,1,inc,1,m,Wed Oct 08 2025 15:00:42 GMT-0500 (Central Daylight Time),300488.2000000477,raisin,1100,I,m,m,None,559,360.0,199.0,96,1,2194.3000000715256,298293.89999997616,7702,cobalt,NF,C,294663,294663,292835,293947,292835,295029,294464,294464,295029,31
31,test,1,inc,1,z,Wed Oct 08 2025 15:00:42 GMT-0500 (Central Daylight Time),302486.5,gold,800,I,z,z,None,666,453.0,213.0,53,1,1994.2999999523163,300492.2000000477,7702,kiwi,NF,C,296561,296561,295033,295846,295034,297028,296348,296348,297028,32
32,test,1,inc,1,z,Wed Oct 08 2025 15:00:42 GMT-0500 (Central Daylight Time),304586.60000002384,zinc,1000,I,z,z,None,555,356.0,199.0,55,1,2096.7999999523163,302489.8000000715,7702,kiwi,NF,C,298762,298762,297031,298046,297031,299128,298563,298563,299128,33
33,test,1,con,1,z,Wed Oct 08 2025 15:00:42 GMT-0500 (Central Daylight Time),306637.0,banana,900,I,z,z,None,616,416.0,200.0,2,1,2046.1000000238419,304590.89999997616,7702,banana,NF,C,300762,300762,299132,300044,299132,301178,300562,300562,301178,34
34,test,1,con,1,m,Wed Oct 08 2025 15:00:42 GMT-0500 (Central Daylight Time),308586.0,zinc,900,I,m,m,None,509,310.0,199.0,114,1,1944.8999999761581,306641.10000002384,7702,zinc,NF,C,302809,302809,301182,302094,301182,303127,302610,302610,303127,35
35,test,1,inc,1,z,Wed Oct 08 2025 15:00:42 GMT-0500 (Central Daylight Time),310835.60000002384,cobalt,1100,I,z,z,None,631,415.0,216.0,8,1,2245.2000000476837,308590.39999997616,7702,banana,NF,C,304961,304961,303131,304243,303132,305377,304745,304745,305377,36
36,test,1,con,1,m,Wed Oct 08 2025 15:00:42 GMT-0500 (Central Daylight Time),313117.39999997616,zinc,1100,I,m,m,None,637,437.0,200.0,116,1,2277.399999976158,310840.0,7702,zinc,NF,C,307210,307210,305381,306492,305381,307658,307009,307009,307658,37
37,test,1,inc,1,m,Wed Oct 08 2025 15:00:42 GMT-0500 (Central Daylight Time),315234.3000000715,kiwi,1000,I,m,m,None,581,365.0,216.0,103,1,2112.9000000953674,313121.39999997616,7702,gold,NF,C,309394,309394,307662,308675,307663,309775,309176,309177,309775,38
38,test,1,con,1,m,Wed Oct 08 2025 15:00:42 GMT-0500 (Central Daylight Time),317382.8000000715,copper,1100,I,m,m,None,528,329.0,199.0,76,1,2143.100000023842,315239.7000000477,7702,copper,NF,C,311591,311591,309781,310891,309781,311924,311392,311392,311924,39
39,test,1,inc,1,z,Wed Oct 08 2025 15:00:42 GMT-0500 (Central Daylight Time),319482.3000000715,gold,800,I,z,z,None,750,551.0,199.0,45,1,2095.600000023842,317386.7000000477,7702,pear,NF,C,313457,313457,311928,312741,311928,314023,313257,313257,314023,40
40,test,1,inc,1,z,Wed Oct 08 2025 15:00:42 GMT-0500 (Central Daylight Time),321831.0,cobalt,1100,I,z,z,None,717,501.0,216.0,16,1,2345.2999999523163,319485.7000000477,7702,cherry,NF,C,315858,315858,314027,315139,314027,316372,315641,315641,316372,41
41,test,1,con,1,z,Wed Oct 08 2025 15:00:42 GMT-0500 (Central Daylight Time),323879.7000000477,kiwi,900,I,z,z,None,600,401.0,199.0,50,1,2044.6000000238419,321835.10000002384,7702,kiwi,NF,C,318006,318006,316376,317289,316376,318421,317806,317806,318421,42
42,test,1,inc,1,m,Wed Oct 08 2025 15:00:42 GMT-0500 (Central Daylight Time),326064.2000000477,plum,1100,I,m,m,None,535,335.0,200.0,128,1,2180.8000000715256,323883.39999997616,7702,lead,NF,C,320255,320255,318424,319539,318425,320605,320055,320055,320605,43
43,test,1,inc,1,z,Wed Oct 08 2025 15:00:42 GMT-0500 (Central Daylight Time),328047.0,bronze,800,I,z,z,None,636,421.0,215.0,13,1,1978.8999999761581,326068.10000002384,7702,cherry,NF,C,322154,322154,320609,321423,320609,322588,321939,321939,322588,44
44,test,1,con,1,m,Wed Oct 08 2025 15:00:42 GMT-0500 (Central Daylight Time),330112.39999997616,lead,900,I,m,m,None,617,418.0,199.0,122,1,2060.5999999046326,328051.8000000715,7702,lead,NF,C,324220,324220,322593,323504,322593,324653,324021,324021,324653,45
45,test,1,inc,1,m,Wed Oct 08 2025 15:00:42 GMT-0500 (Central Daylight Time),332060.89999997616,pear,900,I,m,m,None,512,296.0,216.0,110,1,1943.7999999523163,330117.10000002384,7702,iron,NF,C,326303,326303,324658,325570,324659,326602,326087,326087,326602,46
46,test,1,inc,1,m,Wed Oct 08 2025 15:00:42 GMT-0500 (Central Daylight Time),334260.39999997616,raisin,1100,I,m,m,None,578,364.0,214.0,88,1,2193.7999999523163,332066.60000002384,7702,silver,NF,C,328436,328436,326608,327719,326608,328801,328221,328221,328801,47
47,test,1,con,1,z,Wed Oct 08 2025 15:00:42 GMT-0500 (Central Daylight Time),336860.8000000715,plum,1100,I,z,z,None,967,766.0,201.0,60,1,2594.8000000715256,334266.0,7702,plum,NF,C,330636,330636,328807,329921,328807,331402,330435,330435,331402,48
48,test,1,con,1,m,Wed Oct 08 2025 15:00:42 GMT-0500 (Central Daylight Time),338776.7000000477,bronze,800,I,m,m,None,568,367.0,201.0,65,1,1910.3000000715256,336866.39999997616,7702,bronze,NF,C,332936,332936,331407,332217,331408,333318,332734,332734,333318,49
49,test,1,con,1,z,Wed Oct 08 2025 15:00:42 GMT-0500 (Central Daylight Time),340708.60000002384,lime,900,I,z,z,None,490,290.0,200.0,34,1,1926.8999999761581,338781.7000000477,7702,lime,NF,C,334950,334950,333323,334234,333323,335250,334749,334749,335250,50
50,test,1,inc,1,z,Wed Oct 08 2025 15:00:42 GMT-0500 (Central Daylight Time),342891.5,lead,1100,I,z,z,None,549,349.0,200.0,40,1,2178.7999999523163,340712.7000000477,7702,lime,NF,C,337083,337083,335254,336366,335254,337433,336883,336883,337432,51
51,test,1,inc,1,m,Wed Oct 08 2025 15:00:42 GMT-0500 (Central Daylight Time),345140.39999997616,plum,1100,I,m,m,None,604,405.0,199.0,112,1,2243.7999999523163,342896.60000002384,7702,iron,NF,C,339266,339266,337438,338549,337438,339681,339066,339066,339681,52
52,test,1,con,1,m,Wed Oct 08 2025 15:00:42 GMT-0500 (Central Daylight Time),347458.2000000477,iron,800,I,m,m,None,967,768.0,199.0,105,1,2312.3000000715256,345145.89999997616,7702,iron,NF,C,341215,341215,339687,340498,339687,341999,341015,341015,341999,53
53,test,1,con,1,m,Wed Oct 08 2025 15:00:42 GMT-0500 (Central Daylight Time),349571.7000000477,lead,1000,I,m,m,None,573,373.0,200.0,123,1,2107.8000000715256,347463.89999997616,7702,lead,NF,C,343731,343731,342005,343014,342005,344113,343531,343531,344113,54
54,test,1,inc,1,z,Wed Oct 08 2025 15:00:42 GMT-0500 (Central Daylight Time),351838.5,zinc,1000,I,z,z,None,729,529.0,200.0,63,1,2262.399999976158,349576.10000002384,7702,plum,NF,C,345847,345847,344117,345130,344117,346380,345647,345647,346380,55
55,test,1,con,1,z,Wed Oct 08 2025 15:00:42 GMT-0500 (Central Daylight Time),353988.89999997616,plum,1000,I,z,z,None,606,407.0,199.0,59,1,2146.1999999284744,351842.7000000477,7702,plum,NF,C,348112,348112,346384,347399,346384,348530,347913,347913,348530,56
56,test,1,con,1,m,Wed Oct 08 2025 15:00:42 GMT-0500 (Central Daylight Time),356169.89999997616,zinc,1000,I,m,m,None,634,433.0,201.0,115,1,2177.899999976158,353992.0,7702,zinc,NF,C,350262,350262,348533,349546,348533,350711,350061,350061,350711,57
57,test,1,con,1,z,Wed Oct 08 2025 15:00:42 GMT-0500 (Central Daylight Time),358502.39999997616,lime,1100,I,z,z,None,686,472.0,214.0,36,1,2329.1999999284744,356173.2000000477,7702,lime,NF,C,352560,352560,350714,351830,350715,353043,352346,352346,353043,58
58,test,1,inc,1,z,Wed Oct 08 2025 15:00:42 GMT-0500 (Central Daylight Time),360553.39999997616,iron,900,I,z,z,None,602,402.0,200.0,38,1,2046.3999999761581,358507.0,7702,lime,NF,C,354677,354677,353048,353965,353048,355094,354477,354477,355094,59
59,test,1,con,1,m,Wed Oct 08 2025 15:00:42 GMT-0500 (Central Daylight Time),362519.7000000477,zinc,800,I,m,m,None,621,421.0,200.0,113,1,1960.5,360559.2000000477,7702,zinc,NF,C,356626,356626,355100,355913,355100,357061,356426,356426,357061,60
60,test,1,inc,1,m,Wed Oct 08 2025 15:00:42 GMT-0500 (Central Daylight Time),364768.60000002384,pear,900,I,m,m,None,818,618.0,200.0,102,1,2242.7000000476837,362525.89999997616,7702,gold,NF,C,358677,358677,357067,357975,357067,359310,358476,358476,359310,61
61,test,1,con,1,m,Wed Oct 08 2025 15:00:42 GMT-0500 (Central Daylight Time),366916.5,copper,1000,I,m,m,None,616,417.0,199.0,75,1,2143.0,364773.5,7702,copper,NF,C,361025,361025,359315,360325,359315,361458,360826,360826,361458,62
62,test,1,inc,1,m,Wed Oct 08 2025 15:00:42 GMT-0500 (Central Daylight Time),369033.39999997616,kiwi,1000,I,m,m,None,568,368.0,200.0,111,1,2111.399999976158,366922.0,7702,iron,NF,C,363191,363191,361463,362475,361463,363574,362991,362991,363574,63
63,test,1,inc,1,m,Wed Oct 08 2025 15:00:42 GMT-0500 (Central Daylight Time),371234.10000002384,raisin,1100,I,m,m,None,561,360.0,201.0,72,1,2196.0,369038.10000002384,7702,bronze,NF,C,365407,365408,363579,364691,363580,365775,365206,365206,365775,64
64,test,1,inc,1,z,Wed Oct 08 2025 15:00:42 GMT-0500 (Central Daylight Time),373315.10000002384,copper,900,I,z,z,None,642,441.0,201.0,30,1,2077.899999976158,371237.2000000477,7702,raisin,NF,C,367408,367408,365778,366690,365778,367856,367206,367206,367856,65
65,test,1,con,1,z,Wed Oct 08 2025 15:00:42 GMT-0500 (Central Daylight Time),375231.5,pear,800,I,z,z,None,592,378.0,214.0,41,1,1911.0,373320.5,7702,pear,NF,C,369390,369390,367862,368672,367862,369773,369175,369175,369773,66
66,test,1,inc,1,z,Wed Oct 08 2025 15:00:42 GMT-0500 (Central Daylight Time),377280.39999997616,copper,900,I,z,z,None,623,409.0,214.0,6,1,2044.1999999284744,375236.2000000477,7702,banana,NF,C,371405,371406,369777,370690,369777,371821,371191,371191,371821,67
67,test,1,inc,1,z,Wed Oct 08 2025 15:00:42 GMT-0500 (Central Daylight Time),379345.89999997616,iron,900,I,z,z,None,624,423.0,201.0,62,1,2059.899999976158,377286.0,7702,plum,NF,C,373456,373456,371827,372739,371828,373887,373255,373255,373887,68
68,test,1,con,1,m,Wed Oct 08 2025 15:00:42 GMT-0500 (Central Daylight Time),381661.8000000715,cobalt,900,I,m,m,None,877,678.0,199.0,90,1,2310.2000000476837,379351.60000002384,7702,cobalt,NF,C,375521,375521,373893,374805,373893,376203,375322,375322,376203,69
69,test,1,con,1,m,Wed Oct 08 2025 15:00:42 GMT-0500 (Central Daylight Time),383794.10000002384,silver,1000,I,m,m,None,591,391.0,200.0,83,1,2127.7999999523163,381666.3000000715,7702,silver,NF,C,377936,377936,376207,377220,376208,378335,377736,377736,378335,70
70,test,1,inc,1,m,Wed Oct 08 2025 15:00:42 GMT-0500 (Central Daylight Time),386126.89999997616,plum,1100,I,m,m,None,699,481.0,218.0,104,1,2328.399999976158,383798.5,7702,gold,NF,C,380173,380173,378340,379453,378340,380668,379955,379955,380668,71
71,test,1,inc,1,z,Wed Oct 08 2025 15:00:42 GMT-0500 (Central Daylight Time),388328.5,gold,800,I,z,z,None,860,645.0,215.0,37,1,2197.6999999284744,386130.8000000715,7702,lime,NF,C,382219,382219,380672,381487,380672,382870,382004,382004,382870,72
72,test,1,con,1,z,Wed Oct 08 2025 15:00:42 GMT-0500 (Central Daylight Time),390214.10000002384,banana,800,I,z,z,None,537,338.0,199.0,1,1,1880.5,388333.60000002384,7702,banana,NF,C,384401,384401,382875,383684,382875,384755,384201,384201,384755,73
73,test,1,inc,1,z,Wed Oct 08 2025 15:00:42 GMT-0500 (Central Daylight Time),392326.5,iron,900,I,z,z,None,670,471.0,199.0,54,1,2105.100000023842,390221.39999997616,7702,kiwi,NF,C,386384,386384,384762,385669,384763,386868,386185,386185,386868,74
74,test,1,con,1,m,Wed Oct 08 2025 15:00:42 GMT-0500 (Central Daylight Time),394326.5,silver,800,I,m,m,None,666,467.0,199.0,81,1,1995.2999999523163,392331.2000000477,7702,silver,NF,C,388400,388400,386872,387683,386873,388868,388201,388201,388868,75
75,test,1,con,1,m,Wed Oct 08 2025 15:00:42 GMT-0500 (Central Daylight Time),396490.8000000715,cobalt,1000,I,m,m,None,625,424.0,201.0,91,1,2159.9000000953674,394330.89999997616,7702,cobalt,NF,C,390600,390600,388872,389882,388872,391032,390399,390399,391032,76
76,test,1,con,1,z,Wed Oct 08 2025 15:00:42 GMT-0500 (Central Daylight Time),398891.0,pear,1100,I,z,z,None,765,565.0,200.0,44,1,2396.1999999284744,396494.8000000715,7702,pear,NF,C,392865,392865,391036,392149,391036,393432,392665,392665,393432,77
77,test,1,inc,1,z,Wed Oct 08 2025 15:00:42 GMT-0500 (Central Daylight Time),401256.0,gold,800,I,z,z,None,1026,827.0,199.0,61,1,2361.1999999284744,398894.8000000715,7702,plum,NF,C,394964,394964,393436,394248,393436,395797,394764,394764,395797,78
78,test,1,con,1,z,Wed Oct 08 2025 15:00:42 GMT-0500 (Central Daylight Time),403207.10000002384,raisin,800,I,z,z,None,615,405.0,210.0,25,1,1947.0,401260.10000002384,7702,raisin,NF,C,397331,397331,395801,396614,395801,397748,397120,397120,397748,79
79,test,1,con,1,m,Wed Oct 08 2025 15:00:42 GMT-0500 (Central Daylight Time),405255.0,iron,900,I,m,m,None,617,402.0,215.0,106,1,2043.6999999284744,403211.3000000715,7702,iron,NF,C,399381,399381,397752,398663,397753,399796,399165,399165,399796,80
80,test,1,inc,1,m,Wed Oct 08 2025 15:00:42 GMT-0500 (Central Daylight Time),407420.10000002384,orange,1000,I,m,m,None,623,424.0,199.0,79,1,2161.399999976158,405258.7000000477,7702,copper,NF,C,401528,401528,399800,400812,399800,401961,401329,401329,401961,81
81,test,1,con,1,m,Wed Oct 08 2025 15:00:42 GMT-0500 (Central Daylight Time),409636.8000000715,gold,1000,I,m,m,None,671,472.0,199.0,99,1,2212.3000000715256,407424.5,7702,gold,NF,C,403695,403695,401966,402980,401966,404178,403496,403496,404178,82
82,test,1,inc,1,m,Wed Oct 08 2025 15:00:42 GMT-0500 (Central Daylight Time),411771.3000000715,kiwi,1000,I,m,m,None,600,383.0,217.0,127,1,2130.2000000476837,409641.10000002384,7702,lead,NF,C,405913,405913,404182,405193,404182,406312,405695,405695,406312,83
83,test,1,inc,1,z,Wed Oct 08 2025 15:00:42 GMT-0500 (Central Daylight Time),413935.2000000477,silver,1000,I,z,z,None,627,427.0,200.0,15,1,2158.899999976158,411776.3000000715,7702,cherry,NF,C,408044,408044,406317,407329,406318,408476,407844,407844,408476,84
84,test,1,inc,1,m,Wed Oct 08 2025 15:00:42 GMT-0500 (Central Daylight Time),416051.3000000715,cherry,900,I,m,m,None,681,482.0,199.0,86,1,2111.0,413940.3000000715,7702,silver,NF,C,410110,410110,408481,409393,408482,410592,409910,409910,410592,85
85,test,1,inc,1,z,Wed Oct 08 2025 15:00:42 GMT-0500 (Central Daylight Time),418332.89999997616,zinc,1000,I,z,z,None,761,561.0,200.0,47,1,2278.899999976158,416054.0,7702,pear,NF,C,412310,412310,410595,411608,410595,412874,412110,412110,412874,86
86,test,1,inc,1,z,Wed Oct 08 2025 15:00:42 GMT-0500 (Central Daylight Time),420748.89999997616,iron,900,I,z,z,None,968,753.0,215.0,46,1,2413.0,418335.89999997616,7702,pear,NF,C,414524,414525,412877,413794,412877,415290,414309,414309,415290,87
87,test,1,con,1,z,Wed Oct 08 2025 15:00:42 GMT-0500 (Central Daylight Time),422949.10000002384,kiwi,1000,I,z,z,None,654,455.0,199.0,51,1,2196.100000023842,420753.0,7702,kiwi,NF,C,417024,417025,415294,416308,415294,417490,416825,416825,417490,88
88,test,1,con,1,m,Wed Oct 08 2025 15:00:42 GMT-0500 (Central Daylight Time),424897.8000000715,lead,800,I,m,m,None,632,432.0,200.0,121,1,1946.1000000238419,422951.7000000477,7702,lead,NF,C,419007,419007,417493,418306,417493,419439,418807,418807,419439,89
89,test,1,inc,1,m,Wed Oct 08 2025 15:00:42 GMT-0500 (Central Daylight Time),427081.8000000715,cherry,900,I,m,m,None,743,543.0,200.0,78,1,2180.9000000953674,424900.89999997616,7702,copper,NF,C,421072,421072,419442,420357,419442,421623,420872,420872,421623,90
90,test,1,inc,1,m,Wed Oct 08 2025 15:00:42 GMT-0500 (Central Daylight Time),429214.10000002384,banana,800,I,m,m,None,788,589.0,199.0,93,1,2129.0,427085.10000002384,7702,cobalt,NF,C,423156,423156,421626,422439,421626,423755,422956,422956,423755,91
91,test,1,con,1,z,Wed Oct 08 2025 15:00:42 GMT-0500 (Central Daylight Time),431496.89999997616,banana,1000,I,z,z,None,735,534.0,201.0,3,1,2279.399999976158,429217.5,7702,banana,NF,C,425490,425490,423759,424772,423759,426038,425288,425288,426038,92
92,test,1,con,1,z,Wed Oct 08 2025 15:00:42 GMT-0500 (Central Daylight Time),433780.10000002384,kiwi,1100,I,z,z,None,640,441.0,199.0,52,1,2279.0,431501.10000002384,7702,kiwi,NF,C,427870,427870,426042,427155,426042,428321,427671,427671,428321,93
93,test,1,inc,1,m,Wed Oct 08 2025 15:00:42 GMT-0500 (Central Daylight Time),435780.0,banana,800,I,m,m,None,682,468.0,214.0,69,1,1995.6000000238419,433784.39999997616,7702,bronze,NF,C,429853,429853,428325,429137,428326,430321,429638,429638,430321,94
94,test,1,inc,1,m,Wed Oct 08 2025 15:00:42 GMT-0500 (Central Daylight Time),437728.5,lime,800,I,m,m,None,606,394.0,212.0,101,1,1945.2999999523163,435783.2000000477,7702,gold,NF,C,431869,431869,430324,431137,430324,432270,431656,431656,432269,95
95,test,1,con,1,m,Wed Oct 08 2025 15:00:42 GMT-0500 (Central Daylight Time),439693.7000000477,silver,900,I,m,m,None,528,329.0,199.0,82,1,1961.7000000476837,437732.0,7702,silver,NF,C,433902,433902,432273,433187,432273,434235,433703,433703,434235,96
96,test,1,con,1,m,Wed Oct 08 2025 15:00:42 GMT-0500 (Central Daylight Time),441793.39999997616,cobalt,800,I,m,m,None,773,559.0,214.0,89,1,2097.0,439696.39999997616,7702,cobalt,NF,C,435768,435768,434237,435052,434238,436334,435554,435554,436334,97
97,test,1,inc,1,m,Wed Oct 08 2025 15:00:42 GMT-0500 (Central Daylight Time),443826.3000000715,pear,900,I,m,m,None,600,397.0,203.0,118,1,2028.9000000953674,441797.39999997616,7702,zinc,NF,C,437970,437970,436338,437251,436339,438367,437767,437767,438367,98
98,test,1,con,1,z,Wed Oct 08 2025 15:00:42 GMT-0500 (Central Daylight Time),445957.7000000477,pear,1000,I,z,z,None,596,394.0,202.0,43,1,2127.7000000476837,443830.0,7702,pear,NF,C,440101,440101,438371,439383,438371,440499,439899,439899,440499,99
99,test,1,inc,1,m,Wed Oct 08 2025 15:00:42 GMT-0500 (Central Daylight Time),448007.60000002384,pear,900,I,m,m,None,602,403.0,199.0,126,1,2046.5,445961.10000002384,7702,lead,NF,C,442132,442132,440502,441419,440502,442549,441933,441933,442549,100
100,test,1,con,1,z,Wed Oct 08 2025 15:00:42 GMT-0500 (Central Daylight Time),450025.0,plum,800,I,z,z,None,668,466.0,202.0,57,1,2013.0,448012.0,7702,plum,NF,C,444086,444086,442553,443366,442553,444566,443883,443883,444566,101
101,test,1,inc,1,m,Wed Oct 08 2025 15:00:42 GMT-0500 (Central Daylight Time),451956.3000000715,banana,800,I,m,m,None,587,388.0,199.0,77,1,1928.8000000715256,450027.5,7702,copper,NF,C,446098,446099,444569,445383,444569,446497,445899,445899,446497,102
102,test,1,inc,1,m,Wed Oct 08 2025 15:00:42 GMT-0500 (Central Daylight Time),453924.89999997616,lime,800,I,m,m,None,622,408.0,214.0,109,1,1965.8999999761581,451959.0,7702,iron,NF,C,448047,448048,446500,447316,446500,448466,447833,447833,448466,103
103,test,1,inc,1,z,Wed Oct 08 2025 15:00:42 GMT-0500 (Central Daylight Time),455972.60000002384,bronze,800,I,z,z,None,714,499.0,215.0,29,1,2043.2999999523163,453929.3000000715,7702,raisin,NF,C,450014,450014,448470,449281,448471,450514,449798,449798,450514,104
104,test,1,inc,1,m,Wed Oct 08 2025 15:00:42 GMT-0500 (Central Daylight Time),458122.10000002384,orange,1000,I,m,m,None,616,417.0,199.0,87,1,2144.899999976158,455977.2000000477,7702,silver,NF,C,452246,452246,450518,451530,450518,452663,452047,452047,452663,105
105,test,1,inc,1,m,Wed Oct 08 2025 15:00:42 GMT-0500 (Central Daylight Time),460420.2000000477,orange,1000,I,m,m,None,757,557.0,200.0,95,1,2292.600000023842,458127.60000002384,7702,cobalt,NF,C,454395,454395,452669,453679,452669,454961,454195,454195,454961,106
106,test,1,con,1,z,Wed Oct 08 2025 15:00:42 GMT-0500 (Central Daylight Time),462403.8000000715,lime,800,I,z,z,None,664,465.0,199.0,33,1,1980.7000000476837,460423.10000002384,7702,lime,NF,C,456479,456479,454964,455778,454964,456945,456280,456280,456945,107
107,test,1,con,1,z,Wed Oct 08 2025 15:00:42 GMT-0500 (Central Daylight Time),464518.89999997616,lime,1000,I,z,z,None,578,379.0,199.0,35,1,2112.399999976158,462406.5,7702,lime,NF,C,458678,458678,456948,457961,456948,459060,458479,458479,459060,108
108,test,1,inc,1,m,Wed Oct 08 2025 15:00:42 GMT-0500 (Central Daylight Time),466717.8000000715,plum,1100,I,m,m,None,577,377.0,200.0,120,1,2195.4000000953674,464522.39999997616,7702,zinc,NF,C,460878,460878,459063,460177,459064,461259,460678,460678,461259,109
109,test,1,con,1,m,Wed Oct 08 2025 15:00:42 GMT-0500 (Central Daylight Time),468717.8000000715,gold,800,I,m,m,None,663,462.0,201.0,97,1,1996.5,466721.3000000715,7702,gold,NF,C,462793,462793,461262,462078,461262,463259,462592,462592,463259,110
110,test,1,con,1,m,Wed Oct 08 2025 15:00:42 GMT-0500 (Central Daylight Time),470734.3000000715,copper,900,I,m,m,None,571,371.0,200.0,74,1,2013.5,468720.8000000715,7702,copper,NF,C,464892,464892,463262,464176,463262,465275,464692,464692,465275,111
111,test,1,con,1,m,Wed Oct 08 2025 15:00:42 GMT-0500 (Central Daylight Time),472850.2000000477,copper,800,I,m,m,None,766,567.0,199.0,73,1,2111.600000023842,470738.60000002384,7702,copper,NF,C,466808,466808,465280,466093,465280,467391,466609,466609,467391,112
111,test,1,inc,0,z,Wed Oct 08 2025 15:00:42 GMT-0500 (Central Daylight Time),474966.3000000715,cobalt,1100,I,m,m,None,487,272.0,215.0,24,1,2112.600000023842,472853.7000000477,7702,orange,NF,C,469223,469223,467395,468507,467395,469507,469008,469008,469507,113
112,test,1,con,1,m,Wed Oct 08 2025 15:00:42 GMT-0500 (Central Daylight Time),477248.89999997616,gold,1100,I,m,m,None,657,442.0,215.0,100,1,2277.1999999284744,474971.7000000477,7702,gold,NF,C,471341,471341,469513,470622,469513,471790,471125,471125,471790,114
113,test,1,con,1,z,Wed Oct 08 2025 15:00:42 GMT-0500 (Central Daylight Time),479297.39999997616,kiwi,800,I,z,z,None,700,501.0,199.0,49,1,2045.0,477252.39999997616,7702,kiwi,NF,C,473322,473322,471793,472606,471794,473838,473123,473123,473838,115
114,test,1,con,1,m,Wed Oct 08 2025 15:00:42 GMT-0500 (Central Daylight Time),481631.10000002384,cobalt,1100,I,m,m,None,686,487.0,199.0,92,1,2326.5,479304.60000002384,7702,cobalt,NF,C,475672,475672,473846,474955,473846,476172,475472,475472,476172,116
115,test,1,inc,1,z,Wed Oct 08 2025 15:00:42 GMT-0500 (Central Daylight Time),483896.8000000715,silver,1000,I,z,z,None,719,518.0,201.0,31,1,2256.5,481640.3000000715,7702,raisin,NF,C,477905,477905,476181,477188,476182,478438,477704,477704,478438,117
116,test,1,con,1,z,Wed Oct 08 2025 15:00:42 GMT-0500 (Central Daylight Time),486062.39999997616,orange,1000,I,z,z,None,637,436.0,201.0,19,1,2161.899999976158,483900.5,7702,orange,NF,C,480155,480155,478442,479453,478442,480603,479954,479954,480603,118
117,test,1,inc,1,m,Wed Oct 08 2025 15:00:42 GMT-0500 (Central Daylight Time),488128.0,lime,800,I,m,m,None,728,527.0,201.0,125,1,2061.5,486066.5,7702,lead,NF,C,482137,482137,480608,481421,480608,482669,481936,481936,482669,119
118,test,1,con,1,m,Wed Oct 08 2025 15:00:42 GMT-0500 (Central Daylight Time),490260.89999997616,bronze,1000,I,m,m,None,596,381.0,215.0,67,1,2124.1999999284744,488136.7000000477,7702,bronze,NF,C,484419,484419,482678,483686,482678,484802,484203,484203,484802,120
119,test,1,con,1,m,Wed Oct 08 2025 15:00:42 GMT-0500 (Central Daylight Time),492560.2000000477,iron,1000,I,m,m,None,760,560.0,200.0,107,1,2292.600000023842,490267.60000002384,7702,iron,NF,C,486535,486535,484809,485819,484809,487101,486335,486335,487101,121
120,test,1,inc,1,z,Wed Oct 08 2025 15:00:42 GMT-0500 (Central Daylight Time),494992.8000000715,lead,1100,I,z,z,None,792,592.0,200.0,64,1,2428.2000000476837,492564.60000002384,7702,plum,NF,C,488935,488935,487106,488218,487106,489534,488734,488734,489534,122
121,test,1,con,1,z,Wed Oct 08 2025 15:00:42 GMT-0500 (Central Daylight Time),497042.7000000477,cherry,800,I,z,z,None,698,499.0,199.0,9,1,2042.2000000476837,495000.5,7702,cherry,NF,C,491068,491068,489542,490350,489542,491584,490867,490868,491584,123
122,test,1,con,1,z,Wed Oct 08 2025 15:00:42 GMT-0500 (Central Daylight Time),499241.39999997616,cherry,1100,I,z,z,None,550,349.0,201.0,12,1,2193.5999999046326,497047.8000000715,7702,cherry,NF,C,493418,493418,491589,492700,491589,493783,493217,493217,493782,124
123,test,1,con,1,z,Wed Oct 08 2025 15:00:42 GMT-0500 (Central Daylight Time),501191.39999997616,orange,800,I,z,z,None,603,404.0,199.0,17,1,1944.1999999284744,499247.2000000477,7702,orange,NF,C,495315,495315,493788,494599,493788,495732,495116,495116,495732,125
124,test,1,con,1,m,Wed Oct 08 2025 15:00:42 GMT-0500 (Central Daylight Time),503307.7000000477,lead,1100,I,m,m,None,488,274.0,214.0,124,1,2110.5,501197.2000000477,7702,lead,NF,C,497565,497565,495738,496848,495738,497849,497350,497350,497849,126
125,test,1,inc,1,z,Wed Oct 08 2025 15:00:42 GMT-0500 (Central Daylight Time),505724.7000000477,silver,1000,I,z,z,None,872,673.0,199.0,23,1,2408.600000023842,503316.10000002384,7702,orange,NF,C,499581,499581,497857,498864,497857,500266,499381,499381,500266,127
126,test,1,inc,1,z,Wed Oct 08 2025 15:00:42 GMT-0500 (Central Daylight Time),507888.89999997616,copper,900,I,z,z,None,727,527.0,200.0,14,1,2161.5,505727.39999997616,7702,cherry,NF,C,501897,501897,500268,501180,500269,502430,501697,501697,502430,128
