acc_sum,block,block_c,change,condition,correct,correct_response,datetime,endtime,face,project,response,response_time,row_sel,session_number,start_end,starttime,subject_id,task,task_vers,trial
0,prac,1,,1-Back,,,Mon Dec 08 2025 08:32:27 GMT-0600 (Central Standard Time),,097_m_f_n_a.png,I,space,1653,1,2,,,8064,NNB,B,0
1,prac,1,0.0,1-Back,1.0,m,Mon Dec 08 2025 08:32:27 GMT-0600 (Central Standard Time),187511.0,152_y_f_n_a.png,I,m,1039,2,2,1903.5,185607.5,8064,NNB,B,1
2,prac,1,1.0,1-Back,1.0,z,Mon Dec 08 2025 08:32:27 GMT-0600 (Central Standard Time),188993.5,152_y_f_n_a.png,I,z,696,3,2,1475.3000000715256,187518.19999992847,8064,NNB,B,2
3,prac,1,0.0,1-Back,1.0,m,Mon Dec 08 2025 08:32:27 GMT-0600 (Central Standard Time),190426.79999995232,176_o_m_n_a.png,I,m,551,4,2,1423.5,189003.29999995232,8064,NNB,B,3
4,prac,1,0.0,1-Back,1.0,m,Mon Dec 08 2025 08:32:27 GMT-0600 (Central Standard Time),191826.19999992847,126_m_m_n_a.png,I,m,620,5,2,1391.7999999523163,190434.39999997616,8064,NNB,B,4
5,prac,1,1.0,1-Back,1.0,z,Mon Dec 08 2025 08:32:27 GMT-0600 (Central Standard Time),193192.19999992847,126_m_m_n_a.png,I,z,587,6,2,1356.6999999284744,191835.5,8064,NNB,B,5
6,prac,1,0.0,1-Back,1.0,m,Mon Dec 08 2025 08:32:27 GMT-0600 (Central Standard Time),194541.89999997616,086_o_f_n_a.png,I,m,570,7,2,1337.8999999761581,193204.0,8064,NNB,B,6
7,prac,1,0.0,1-Back,1.0,m,Mon Dec 08 2025 08:32:27 GMT-0600 (Central Standard Time),196108.19999992847,178_m_m_n_a.png,I,m,683,8,2,1557.1999999284744,194551.0,8064,NNB,B,7
8,prac,1,0.0,1-Back,1.0,m,Mon Dec 08 2025 08:32:27 GMT-0600 (Central Standard Time),197607.69999992847,097_m_f_n_a.png,I,m,713,9,2,1490.5,196117.19999992847,8064,NNB,B,8
9,prac,1,1.0,1-Back,1.0,z,Mon Dec 08 2025 08:32:27 GMT-0600 (Central Standard Time),198923.79999995232,097_m_f_n_a.png,I,z,535,10,2,1308.6000000238419,197615.19999992847,8064,NNB,B,9
10,prac,1,0.0,1-Back,1.0,m,Mon Dec 08 2025 08:32:27 GMT-0600 (Central Standard Time),200356.69999992847,176_o_m_n_a.png,I,m,649,11,2,1423.0999999046326,198933.60000002384,8064,NNB,B,10
11,prac,1,0.0,1-Back,1.0,m,Mon Dec 08 2025 08:32:27 GMT-0600 (Central Standard Time),201856.29999995232,173_y_f_n_a.png,I,m,625,12,2,1489.5,200366.79999995232,8064,NNB,B,11
0,test,1,0.0,1-Back,,,Mon Dec 08 2025 08:32:27 GMT-0600 (Central Standard Time),201856.29999995232,152_y_f_n_a.png,I,space,2308,1,2,1489.5,200366.79999995232,8064,NNB,B,0
1,test,1,0.0,1-Back,1.0,m,Mon Dec 08 2025 08:32:27 GMT-0600 (Central Standard Time),214968.79999995232,029_m_f_n_a.png,I,m,764,2,2,1775.5,213193.29999995232,8064,NNB,B,1
2,test,1,0.0,1-Back,1.0,m,Mon Dec 08 2025 08:32:27 GMT-0600 (Central Standard Time),217151.29999995232,173_y_f_n_a.png,I,m,1165,3,2,2177.1999999284744,214974.10000002384,8064,NNB,B,2
3,test,1,1.0,1-Back,1.0,z,Mon Dec 08 2025 08:32:27 GMT-0600 (Central Standard Time),218717.79999995232,173_y_f_n_a.png,I,z,534,4,2,1560.6000000238419,217157.19999992847,8064,NNB,B,3
4,test,1,0.0,1-Back,1.0,m,Mon Dec 08 2025 08:32:27 GMT-0600 (Central Standard Time),220367.60000002384,029_m_f_n_a.png,I,m,624,5,2,1642.9000000953674,218724.69999992847,8064,NNB,B,4
5,test,1,0.0,1-Back,1.0,m,Mon Dec 08 2025 08:32:27 GMT-0600 (Central Standard Time),222033.39999997616,176_o_m_n_a.png,I,m,639,6,2,1659.1000000238419,220374.29999995232,8064,NNB,B,5
6,test,1,1.0,1-Back,1.0,z,Mon Dec 08 2025 08:32:27 GMT-0600 (Central Standard Time),223666.19999992847,176_o_m_n_a.png,I,z,604,7,2,1628.5999999046326,222037.60000002384,8064,NNB,B,6
7,test,1,0.0,1-Back,1.0,m,Mon Dec 08 2025 08:32:27 GMT-0600 (Central Standard Time),225365.89999997616,126_m_m_n_a.png,I,m,676,8,2,1693.2999999523163,223672.60000002384,8064,NNB,B,7
8,test,1,0.0,1-Back,1.0,m,Mon Dec 08 2025 08:32:27 GMT-0600 (Central Standard Time),227232.60000002384,086_o_f_n_a.png,I,m,848,9,2,1861.0,225371.60000002384,8064,NNB,B,8
9,test,1,0.0,1-Back,1.0,m,Mon Dec 08 2025 08:32:27 GMT-0600 (Central Standard Time),229081.19999992847,126_m_m_n_a.png,I,m,823,10,2,1843.7999999523163,227237.39999997616,8064,NNB,B,9
10,test,1,0.0,1-Back,1.0,m,Mon Dec 08 2025 08:32:27 GMT-0600 (Central Standard Time),230914.0,153_y_m_n_a.png,I,m,805,11,2,1827.8999999761581,229086.10000002384,8064,NNB,B,10
11,test,1,1.0,1-Back,1.0,z,Mon Dec 08 2025 08:32:27 GMT-0600 (Central Standard Time),232796.69999992847,153_y_m_n_a.png,I,z,852,12,2,1877.7999999523163,230918.89999997616,8064,NNB,B,11
12,test,1,0.0,1-Back,1.0,m,Mon Dec 08 2025 08:32:27 GMT-0600 (Central Standard Time),234446.29999995232,110_o_f_n_a.png,I,m,617,13,2,1644.6000000238419,232801.69999992847,8064,NNB,B,12
13,test,1,1.0,1-Back,1.0,z,Mon Dec 08 2025 08:32:27 GMT-0600 (Central Standard Time),236129.0,110_o_f_n_a.png,I,z,655,14,2,1677.7000000476837,234451.29999995232,8064,NNB,B,13
14,test,1,0.0,1-Back,1.0,m,Mon Dec 08 2025 08:32:27 GMT-0600 (Central Standard Time),237778.5,013_y_m_n_a.png,I,m,629,15,2,1641.0,236137.5,8064,NNB,B,14
15,test,1,0.0,1-Back,1.0,m,Mon Dec 08 2025 08:32:27 GMT-0600 (Central Standard Time),239411.29999995232,097_m_f_n_a.png,I,m,603,16,2,1628.1000000238419,237783.19999992847,8064,NNB,B,15
16,test,1,0.0,1-Back,1.0,m,Mon Dec 08 2025 08:32:27 GMT-0600 (Central Standard Time),241277.29999995232,065_o_m_n_a.png,I,m,843,17,2,1862.0,239415.29999995232,8064,NNB,B,16
17,test,1,0.0,1-Back,1.0,m,Mon Dec 08 2025 08:32:27 GMT-0600 (Central Standard Time),243010.19999992847,097_m_f_n_a.png,I,m,713,18,2,1725.5999999046326,241284.60000002384,8064,NNB,B,17
0,test,2,0.0,1-Back,,,Mon Dec 08 2025 08:32:27 GMT-0600 (Central Standard Time),243010.19999992847,126_m_m_n_a.png,I,space,2708,1,2,1725.5999999046326,241284.60000002384,8064,NNB,B,0
1,test,2,0.0,1-Back,1.0,m,Mon Dec 08 2025 08:32:27 GMT-0600 (Central Standard Time),249991.10000002384,029_m_f_n_a.png,I,m,1217,2,2,2243.7000000476837,247747.39999997616,8064,NNB,B,1
2,test,2,1.0,1-Back,1.0,z,Mon Dec 08 2025 08:32:27 GMT-0600 (Central Standard Time),251790.5,029_m_f_n_a.png,I,z,766,3,2,1793.2000000476837,249997.29999995232,8064,NNB,B,2
3,test,2,0.0,1-Back,1.0,m,Mon Dec 08 2025 08:32:27 GMT-0600 (Central Standard Time),253623.29999995232,126_m_m_n_a.png,I,m,800,4,2,1826.6000000238419,251796.69999992847,8064,NNB,B,3
4,test,2,0.0,1-Back,1.0,m,Mon Dec 08 2025 08:32:27 GMT-0600 (Central Standard Time),255389.5,153_y_m_n_a.png,I,m,743,5,2,1759.7000000476837,253629.79999995232,8064,NNB,B,4
5,test,2,0.0,1-Back,1.0,m,Mon Dec 08 2025 08:32:27 GMT-0600 (Central Standard Time),257055.60000002384,152_y_f_n_a.png,I,m,632,6,2,1658.8000000715256,255396.79999995232,8064,NNB,B,5
6,test,2,1.0,1-Back,1.0,z,Mon Dec 08 2025 08:32:27 GMT-0600 (Central Standard Time),258821.60000002384,152_y_f_n_a.png,I,z,734,7,2,1760.3000000715256,257061.29999995232,8064,NNB,B,6
7,test,2,0.0,1-Back,1.0,m,Mon Dec 08 2025 08:32:27 GMT-0600 (Central Standard Time),260421.39999997616,153_y_m_n_a.png,I,m,569,8,2,1594.7999999523163,258826.60000002384,8064,NNB,B,7
8,test,2,0.0,1-Back,1.0,m,Mon Dec 08 2025 08:32:27 GMT-0600 (Central Standard Time),262087.69999992847,110_o_f_n_a.png,I,m,641,9,2,1661.8999999761581,260425.79999995232,8064,NNB,B,8
9,test,2,0.0,1-Back,1.0,m,Mon Dec 08 2025 08:32:27 GMT-0600 (Central Standard Time),263720.39999997616,178_m_m_n_a.png,I,m,607,10,2,1625.8999999761581,262094.5,8064,NNB,B,9
10,test,2,1.0,1-Back,1.0,z,Mon Dec 08 2025 08:32:27 GMT-0600 (Central Standard Time),265353.1999999285,178_m_m_n_a.png,I,z,606,11,2,1627.2999999523163,263725.89999997616,8064,NNB,B,10
11,test,2,0.0,1-Back,1.0,m,Mon Dec 08 2025 08:32:27 GMT-0600 (Central Standard Time),267052.60000002384,110_o_f_n_a.png,I,m,677,12,2,1693.9000000953674,265358.6999999285,8064,NNB,B,11
12,test,2,0.0,1-Back,1.0,m,Mon Dec 08 2025 08:32:27 GMT-0600 (Central Standard Time),268718.89999997616,086_o_f_n_a.png,I,m,633,13,2,1657.6000000238419,267061.2999999523,8064,NNB,B,12
13,test,2,0.0,1-Back,1.0,m,Mon Dec 08 2025 08:32:27 GMT-0600 (Central Standard Time),270368.1999999285,176_o_m_n_a.png,I,m,632,14,2,1643.5999999046326,268724.60000002384,8064,NNB,B,13
14,test,2,0.0,1-Back,1.0,m,Mon Dec 08 2025 08:32:27 GMT-0600 (Central Standard Time),272034.0,065_o_m_n_a.png,I,m,638,15,2,1659.8000000715256,270374.1999999285,8064,NNB,B,14
15,test,2,1.0,1-Back,1.0,z,Mon Dec 08 2025 08:32:27 GMT-0600 (Central Standard Time),273717.39999997616,065_o_m_n_a.png,I,z,660,16,2,1676.1000000238419,272041.2999999523,8064,NNB,B,15
16,test,2,0.0,1-Back,1.0,m,Mon Dec 08 2025 08:32:27 GMT-0600 (Central Standard Time),275366.89999997616,013_y_m_n_a.png,I,m,624,17,2,1645.2000000476837,273721.6999999285,8064,NNB,B,16
17,test,2,1.0,1-Back,1.0,z,Mon Dec 08 2025 08:32:27 GMT-0600 (Central Standard Time),276949.5,013_y_m_n_a.png,I,z,551,18,2,1576.5,275373.0,8064,NNB,B,17
0,test,3,1.0,1-Back,,,Mon Dec 08 2025 08:32:27 GMT-0600 (Central Standard Time),276949.5,173_y_f_n_a.png,I,space,2201,1,2,1576.5,275373.0,8064,NNB,B,0
1,test,3,0.0,1-Back,1.0,m,Mon Dec 08 2025 08:32:27 GMT-0600 (Central Standard Time),283047.2999999523,065_o_m_n_a.png,I,m,757,1,2,1774.8999999761581,281272.39999997616,8064,NNB,B,1
2,test,3,1.0,1-Back,1.0,z,Mon Dec 08 2025 08:32:27 GMT-0600 (Central Standard Time),284647.39999997616,065_o_m_n_a.png,I,z,575,1,2,1591.3999999761581,283056.0,8064,NNB,B,2
3,test,3,0.0,1-Back,1.0,m,Mon Dec 08 2025 08:32:27 GMT-0600 (Central Standard Time),286314.1999999285,097_m_f_n_a.png,I,m,639,1,2,1661.3999999761581,284652.7999999523,8064,NNB,B,3
4,test,3,1.0,1-Back,1.0,z,Mon Dec 08 2025 08:32:27 GMT-0600 (Central Standard Time),287962.6999999285,097_m_f_n_a.png,I,z,629,1,2,1641.6999999284744,286321.0,8064,NNB,B,4
5,test,3,0.0,1-Back,1.0,m,Mon Dec 08 2025 08:32:27 GMT-0600 (Central Standard Time),289645.5,110_o_f_n_a.png,I,m,658,1,2,1678.1000000238419,287967.39999997616,8064,NNB,B,5
6,test,3,0.0,1-Back,1.0,m,Mon Dec 08 2025 08:32:27 GMT-0600 (Central Standard Time),291211.7999999523,153_y_m_n_a.png,I,m,537,1,2,1559.7999999523163,289652.0,8064,NNB,B,6
7,test,3,0.0,1-Back,1.0,m,Mon Dec 08 2025 08:32:27 GMT-0600 (Central Standard Time),292811.10000002384,110_o_f_n_a.png,I,m,578,1,2,1593.8000000715256,291217.2999999523,8064,NNB,B,7
8,test,3,0.0,1-Back,1.0,m,Mon Dec 08 2025 08:32:27 GMT-0600 (Central Standard Time),294560.39999997616,013_y_m_n_a.png,I,m,723,1,2,1743.5,292816.89999997616,8064,NNB,B,8
9,test,3,1.0,1-Back,1.0,z,Mon Dec 08 2025 08:32:27 GMT-0600 (Central Standard Time),296126.7999999523,013_y_m_n_a.png,I,z,534,1,2,1560.6000000238419,294566.1999999285,8064,NNB,B,9
10,test,3,0.0,1-Back,1.0,m,Mon Dec 08 2025 08:32:27 GMT-0600 (Central Standard Time),297743.10000002384,029_m_f_n_a.png,I,m,584,1,2,1609.8000000715256,296133.2999999523,8064,NNB,B,10
11,test,3,0.0,1-Back,1.0,m,Mon Dec 08 2025 08:32:27 GMT-0600 (Central Standard Time),299359.0,152_y_f_n_a.png,I,m,599,1,2,1607.7000000476837,297751.2999999523,8064,NNB,B,11
12,test,3,1.0,1-Back,1.0,z,Mon Dec 08 2025 08:32:27 GMT-0600 (Central Standard Time),301092.0,152_y_f_n_a.png,I,z,711,1,2,1727.1000000238419,299364.89999997616,8064,NNB,B,12
13,test,3,0.0,1-Back,1.0,m,Mon Dec 08 2025 08:32:27 GMT-0600 (Central Standard Time),302741.39999997616,029_m_f_n_a.png,I,m,618,1,2,1643.2999999523163,301098.10000002384,8064,NNB,B,13
14,test,3,0.0,1-Back,1.0,m,Mon Dec 08 2025 08:32:27 GMT-0600 (Central Standard Time),304407.1999999285,126_m_m_n_a.png,I,m,649,1,2,1659.8999999761581,302747.2999999523,8064,NNB,B,14
15,test,3,1.0,1-Back,1.0,z,Mon Dec 08 2025 08:32:27 GMT-0600 (Central Standard Time),306007.0,126_m_m_n_a.png,I,z,575,1,2,1595.0,304412.0,8064,NNB,B,15
16,test,3,0.0,1-Back,1.0,m,Mon Dec 08 2025 08:32:27 GMT-0600 (Central Standard Time),307639.5,086_o_f_n_a.png,I,m,607,1,2,1625.3000000715256,306014.1999999285,8064,NNB,B,16
17,test,3,1.0,1-Back,1.0,z,Mon Dec 08 2025 08:32:27 GMT-0600 (Central Standard Time),309322.60000002384,086_o_f_n_a.png,I,z,654,1,2,1678.5,307644.10000002384,8064,NNB,B,17
0,test,4,1.0,1-Back,,,Mon Dec 08 2025 08:32:27 GMT-0600 (Central Standard Time),309322.60000002384,097_m_f_n_a.png,I,space,1612,1,2,1678.5,307644.10000002384,8064,NNB,B,0
1,test,4,0.0,1-Back,1.0,m,Mon Dec 08 2025 08:32:27 GMT-0600 (Central Standard Time),314704.60000002384,065_o_m_n_a.png,I,m,640,2,2,1660.3000000715256,313044.2999999523,8064,NNB,B,1
2,test,4,0.0,1-Back,1.0,m,Mon Dec 08 2025 08:32:27 GMT-0600 (Central Standard Time),316403.7999999523,097_m_f_n_a.png,I,m,670,3,2,1692.5,314711.2999999523,8064,NNB,B,2
3,test,4,0.0,1-Back,1.0,m,Mon Dec 08 2025 08:32:27 GMT-0600 (Central Standard Time),318186.5,110_o_f_n_a.png,I,m,763,4,2,1776.2000000476837,316410.2999999523,8064,NNB,B,3
4,test,4,1.0,1-Back,1.0,z,Mon Dec 08 2025 08:32:27 GMT-0600 (Central Standard Time),319786.10000002384,110_o_f_n_a.png,I,z,580,5,2,1595.0,318191.10000002384,8064,NNB,B,4
5,test,4,0.0,1-Back,1.0,m,Mon Dec 08 2025 08:32:27 GMT-0600 (Central Standard Time),321468.6999999285,152_y_f_n_a.png,I,m,660,6,2,1678.6999999284744,319790.0,8064,NNB,B,5
6,test,4,0.0,1-Back,1.0,m,Mon Dec 08 2025 08:32:27 GMT-0600 (Central Standard Time),323135.0,153_y_m_n_a.png,I,m,633,7,2,1661.1000000238419,321473.89999997616,8064,NNB,B,6
7,test,4,1.0,1-Back,1.0,z,Mon Dec 08 2025 08:32:27 GMT-0600 (Central Standard Time),324767.7999999523,153_y_m_n_a.png,I,z,607,8,2,1627.7999999523163,323140.0,8064,NNB,B,7
8,test,4,0.0,1-Back,1.0,m,Mon Dec 08 2025 08:32:27 GMT-0600 (Central Standard Time),326383.60000002384,152_y_f_n_a.png,I,m,598,9,2,1609.3000000715256,324774.2999999523,8064,NNB,B,8
9,test,4,0.0,1-Back,1.0,m,Mon Dec 08 2025 08:32:27 GMT-0600 (Central Standard Time),328033.39999997616,178_m_m_n_a.png,I,m,622,10,2,1642.1000000238419,326391.2999999523,8064,NNB,B,9
10,test,4,1.0,1-Back,1.0,z,Mon Dec 08 2025 08:32:27 GMT-0600 (Central Standard Time),329666.2999999523,178_m_m_n_a.png,I,z,613,11,2,1627.6999999284744,328038.60000002384,8064,NNB,B,10
11,test,4,0.0,1-Back,1.0,m,Mon Dec 08 2025 08:32:27 GMT-0600 (Central Standard Time),331332.5,086_o_f_n_a.png,I,m,636,12,2,1660.0,329672.5,8064,NNB,B,11
12,test,4,0.0,1-Back,1.0,m,Mon Dec 08 2025 08:32:27 GMT-0600 (Central Standard Time),332998.2999999523,176_o_m_n_a.png,I,m,632,13,2,1658.1999999284744,331340.10000002384,8064,NNB,B,12
13,test,4,0.0,1-Back,1.0,m,Mon Dec 08 2025 08:32:27 GMT-0600 (Central Standard Time),334614.7999999523,086_o_f_n_a.png,I,m,584,14,2,1609.5,333005.2999999523,8064,NNB,B,13
14,test,4,0.0,1-Back,1.0,m,Mon Dec 08 2025 08:32:27 GMT-0600 (Central Standard Time),336464.0,173_y_f_n_a.png,I,m,823,15,2,1843.2000000476837,334620.7999999523,8064,NNB,B,14
15,test,4,1.0,1-Back,1.0,z,Mon Dec 08 2025 08:32:27 GMT-0600 (Central Standard Time),338146.89999997616,173_y_f_n_a.png,I,z,654,16,2,1676.3999999761581,336470.5,8064,NNB,B,15
16,test,4,0.0,1-Back,1.0,m,Mon Dec 08 2025 08:32:27 GMT-0600 (Central Standard Time),339796.6999999285,029_m_f_n_a.png,I,m,628,17,2,1643.7999999523163,338152.89999997616,8064,NNB,B,16
17,test,4,1.0,1-Back,1.0,z,Mon Dec 08 2025 08:32:27 GMT-0600 (Central Standard Time),341412.6999999285,029_m_f_n_a.png,I,z,585,18,2,1610.0,339802.6999999285,8064,NNB,B,17
0,test,5,1.0,1-Back,,,Mon Dec 08 2025 08:32:27 GMT-0600 (Central Standard Time),341412.6999999285,176_o_m_n_a.png,I,space,1553,1,2,1610.0,339802.6999999285,8064,NNB,B,0
1,test,5,1.0,1-Back,1.0,z,Mon Dec 08 2025 08:32:27 GMT-0600 (Central Standard Time),346727.2999999523,176_o_m_n_a.png,I,z,716,2,2,1728.1999999284744,344999.10000002384,8064,NNB,B,1
2,test,5,0.0,1-Back,1.0,m,Mon Dec 08 2025 08:32:27 GMT-0600 (Central Standard Time),348460.5,152_y_f_n_a.png,I,m,702,3,2,1728.3999999761581,346732.10000002384,8064,NNB,B,2
3,test,5,0.0,1-Back,1.0,m,Mon Dec 08 2025 08:32:27 GMT-0600 (Central Standard Time),350126.39999997616,153_y_m_n_a.png,I,m,642,4,2,1660.3999999761581,348466.0,8064,NNB,B,3
4,test,5,0.0,1-Back,1.0,m,Mon Dec 08 2025 08:32:27 GMT-0600 (Central Standard Time),351808.89999997616,152_y_f_n_a.png,I,m,664,5,2,1676.0,350132.89999997616,8064,NNB,B,4
5,test,5,0.0,1-Back,1.0,m,Mon Dec 08 2025 08:32:27 GMT-0600 (Central Standard Time),353753.7999999523,126_m_m_n_a.png,I,m,781,6,2,1940.6999999284744,351813.10000002384,8064,NNB,B,5
6,test,5,1.0,1-Back,1.0,z,Mon Dec 08 2025 08:32:27 GMT-0600 (Central Standard Time),355358.5,126_m_m_n_a.png,I,z,583,7,2,1597.5,353761.0,8064,NNB,B,6
7,test,5,0.0,1-Back,1.0,m,Mon Dec 08 2025 08:32:27 GMT-0600 (Central Standard Time),357157.60000002384,173_y_f_n_a.png,I,m,777,8,2,1791.4000000953674,355366.1999999285,8064,NNB,B,7
8,test,5,0.0,1-Back,1.0,m,Mon Dec 08 2025 08:32:27 GMT-0600 (Central Standard Time),359040.1999999285,013_y_m_n_a.png,I,m,857,9,2,1877.0,357163.1999999285,8064,NNB,B,8
9,test,5,0.0,1-Back,1.0,m,Mon Dec 08 2025 08:32:27 GMT-0600 (Central Standard Time),361040.0,173_y_f_n_a.png,I,m,974,10,2,1994.0,359046.0,8064,NNB,B,9
10,test,5,0.0,1-Back,1.0,m,Mon Dec 08 2025 08:32:27 GMT-0600 (Central Standard Time),363222.2999999523,086_o_f_n_a.png,I,m,1158,11,2,2178.100000023842,361044.1999999285,8064,NNB,B,10
11,test,5,1.0,1-Back,1.0,z,Mon Dec 08 2025 08:32:27 GMT-0600 (Central Standard Time),364838.6999999285,086_o_f_n_a.png,I,z,583,12,2,1608.5,363230.1999999285,8064,NNB,B,11
12,test,5,0.0,1-Back,1.0,m,Mon Dec 08 2025 08:32:27 GMT-0600 (Central Standard Time),366538.0,065_o_m_n_a.png,I,m,672,13,2,1692.8999999761581,364845.10000002384,8064,NNB,B,12
13,test,5,0.0,1-Back,1.0,m,Mon Dec 08 2025 08:32:27 GMT-0600 (Central Standard Time),368170.89999997616,097_m_f_n_a.png,I,m,612,14,2,1627.2000000476837,366543.6999999285,8064,NNB,B,13
14,test,5,1.0,1-Back,1.0,z,Mon Dec 08 2025 08:32:27 GMT-0600 (Central Standard Time),369820.2999999523,097_m_f_n_a.png,I,z,628,15,2,1645.6000000238419,368174.6999999285,8064,NNB,B,14
15,test,5,0.0,1-Back,1.0,m,Mon Dec 08 2025 08:32:27 GMT-0600 (Central Standard Time),371453.0,065_o_m_n_a.png,I,m,602,16,2,1626.3000000715256,369826.6999999285,8064,NNB,B,15
16,test,5,0.0,1-Back,1.0,m,Mon Dec 08 2025 08:32:27 GMT-0600 (Central Standard Time),373086.0,029_m_f_n_a.png,I,m,609,17,2,1629.3999999761581,371456.60000002384,8064,NNB,B,16
17,test,5,0.0,1-Back,1.0,m,Mon Dec 08 2025 08:32:27 GMT-0600 (Central Standard Time),374753.10000002384,178_m_m_n_a.png,I,m,640,18,2,1663.3000000715256,373089.7999999523,8064,NNB,B,17
0,prac,1,0.0,2-Back,,,Mon Dec 08 2025 08:32:27 GMT-0600 (Central Standard Time),374753.10000002384,013_y_m_n_a.png,I,space,2296,1,2,1663.3000000715256,373089.7999999523,8064,NNB,B,0
0,prac,1,0.0,2-Back,,,Mon Dec 08 2025 08:32:27 GMT-0600 (Central Standard Time),374753.10000002384,029_m_f_n_a.png,I,space,2296,2,2,1663.3000000715256,373089.7999999523,8064,NNB,B,0
1,prac,1,1.0,2-Back,1.0,m,Mon Dec 08 2025 08:32:27 GMT-0600 (Central Standard Time),455093.60000002384,065_o_m_n_a.png,I,m,810,3,2,1687.7000000476837,453405.89999997616,8064,NNB,B,1
2,prac,1,0.0,2-Back,1.0,m,Mon Dec 08 2025 08:32:27 GMT-0600 (Central Standard Time),456943.0,086_o_f_n_a.png,I,m,956,4,2,1839.8999999761581,455103.10000002384,8064,NNB,B,2
3,prac,1,0.0,2-Back,1.0,z,Mon Dec 08 2025 08:32:27 GMT-0600 (Central Standard Time),458692.39999997616,065_o_m_n_a.png,I,z,956,5,2,1739.2999999523163,456953.10000002384,8064,NNB,B,3
4,prac,1,1.0,2-Back,1.0,z,Mon Dec 08 2025 08:32:27 GMT-0600 (Central Standard Time),460192.0,086_o_f_n_a.png,I,z,714,6,2,1492.0,458700.0,8064,NNB,B,4
5,prac,1,0.0,2-Back,1.0,m,Mon Dec 08 2025 08:32:27 GMT-0600 (Central Standard Time),461991.60000002384,178_m_m_n_a.png,I,m,936,7,2,1793.3000000715256,460198.2999999523,8064,NNB,B,5
5,prac,1,0.0,2-Back,0.0,m,Mon Dec 08 2025 08:32:27 GMT-0600 (Central Standard Time),464524.10000002384,176_o_m_n_a.png,I,z,1658,8,2,2524.0,462000.10000002384,8064,NNB,B,6
6,prac,1,0.0,2-Back,1.0,m,Mon Dec 08 2025 08:32:27 GMT-0600 (Central Standard Time),467106.5,173_y_f_n_a.png,I,m,1706,9,2,2573.899999976158,464532.60000002384,8064,NNB,B,7
7,prac,1,1.0,2-Back,1.0,z,Mon Dec 08 2025 08:32:27 GMT-0600 (Central Standard Time),468772.7999999523,176_o_m_n_a.png,I,z,884,10,2,1658.2999999523163,467114.5,8064,NNB,B,8
8,prac,1,0.0,2-Back,1.0,m,Mon Dec 08 2025 08:32:27 GMT-0600 (Central Standard Time),470722.10000002384,152_y_f_n_a.png,I,m,1081,11,2,1939.5,468782.60000002384,8064,NNB,B,9
8,prac,1,0.0,2-Back,0.0,m,Mon Dec 08 2025 08:32:27 GMT-0600 (Central Standard Time),472521.1999999285,178_m_m_n_a.png,I,z,1021,12,2,1792.3999999761581,470728.7999999523,8064,NNB,B,10
0,test,1,0.0,2-Back,,,Mon Dec 08 2025 08:32:27 GMT-0600 (Central Standard Time),472521.1999999285,153_y_m_n_a.png,I,space,1614,1,2,1792.3999999761581,470728.7999999523,8064,NNB,B,0
0,test,1,0.0,2-Back,,,Mon Dec 08 2025 08:32:27 GMT-0600 (Central Standard Time),472521.1999999285,153_y_m_n_a.png,I,space,1614,2,2,1792.3999999761581,470728.7999999523,8064,NNB,B,0
1,test,1,0.0,2-Back,1.0,m,Mon Dec 08 2025 08:32:27 GMT-0600 (Central Standard Time),494581.10000002384,086_o_f_n_a.png,I,m,1026,3,2,2042.9000000953674,492538.1999999285,8064,NNB,B,1
2,test,1,0.0,2-Back,1.0,m,Mon Dec 08 2025 08:32:27 GMT-0600 (Central Standard Time),496680.1999999285,126_m_m_n_a.png,I,m,1081,4,2,2093.7999999523163,494586.39999997616,8064,NNB,B,2
3,test,1,1.0,2-Back,1.0,z,Mon Dec 08 2025 08:32:27 GMT-0600 (Central Standard Time),498563.1999999285,086_o_f_n_a.png,I,z,862,5,2,1876.0999999046326,496687.10000002384,8064,NNB,B,3
4,test,1,0.0,2-Back,1.0,m,Mon Dec 08 2025 08:32:27 GMT-0600 (Central Standard Time),500679.0,152_y_f_n_a.png,I,m,1098,6,2,2107.899999976158,498571.10000002384,8064,NNB,B,4
5,test,1,0.0,2-Back,1.0,m,Mon Dec 08 2025 08:32:27 GMT-0600 (Central Standard Time),503578.1999999285,126_m_m_n_a.png,I,m,1878,7,2,2892.6999999284744,500685.5,8064,NNB,B,5
6,test,1,1.0,2-Back,1.0,z,Mon Dec 08 2025 08:32:27 GMT-0600 (Central Standard Time),505394.5,152_y_f_n_a.png,I,z,796,8,2,1810.5,503584.0,8064,NNB,B,6
7,test,1,0.0,2-Back,1.0,m,Mon Dec 08 2025 08:32:27 GMT-0600 (Central Standard Time),507726.7999999523,013_y_m_n_a.png,I,m,1316,9,2,2328.399999976158,505398.39999997616,8064,NNB,B,7
8,test,1,0.0,2-Back,1.0,m,Mon Dec 08 2025 08:32:27 GMT-0600 (Central Standard Time),509876.39999997616,110_o_f_n_a.png,I,m,1119,10,2,2146.0,507730.39999997616,8064,NNB,B,8
9,test,1,1.0,2-Back,1.0,z,Mon Dec 08 2025 08:32:27 GMT-0600 (Central Standard Time),512059.5,013_y_m_n_a.png,I,z,1154,11,2,2177.399999976158,509882.10000002384,8064,NNB,B,9
10,test,1,0.0,2-Back,1.0,m,Mon Dec 08 2025 08:32:27 GMT-0600 (Central Standard Time),514708.1999999285,029_m_f_n_a.png,I,m,1627,12,2,2642.5,512065.6999999285,8064,NNB,B,10
10,test,1,0.0,2-Back,0.0,m,Mon Dec 08 2025 08:32:27 GMT-0600 (Central Standard Time),516640.89999997616,029_m_f_n_a.png,I,z,906,13,2,1926.7000000476837,514714.1999999285,8064,NNB,B,11
11,test,1,0.0,2-Back,1.0,m,Mon Dec 08 2025 08:32:27 GMT-0600 (Central Standard Time),519639.6999999285,065_o_m_n_a.png,I,m,1981,14,2,2993.0,516646.6999999285,8064,NNB,B,12
12,test,1,0.0,2-Back,1.0,m,Mon Dec 08 2025 08:32:27 GMT-0600 (Central Standard Time),521855.60000002384,110_o_f_n_a.png,I,m,1198,15,2,2210.9000000953674,519644.6999999285,8064,NNB,B,13
13,test,1,1.0,2-Back,1.0,z,Mon Dec 08 2025 08:32:27 GMT-0600 (Central Standard Time),523605.39999997616,065_o_m_n_a.png,I,z,717,16,2,1745.8999999761581,521859.5,8064,NNB,B,14
14,test,1,0.0,2-Back,1.0,m,Mon Dec 08 2025 08:32:27 GMT-0600 (Central Standard Time),525588.0,097_m_f_n_a.png,I,m,952,17,2,1976.8999999761581,523611.10000002384,8064,NNB,B,15
15,test,1,0.0,2-Back,1.0,m,Mon Dec 08 2025 08:32:27 GMT-0600 (Central Standard Time),527503.8999999762,178_m_m_n_a.png,I,m,898,18,2,1911.7000000476837,525592.1999999285,8064,NNB,B,16
0,test,2,0.0,2-Back,,,Mon Dec 08 2025 08:32:27 GMT-0600 (Central Standard Time),527503.8999999762,178_m_m_n_a.png,I,space,3879,1,2,1911.7000000476837,525592.1999999285,8064,NNB,B,0
0,test,2,0.0,2-Back,,,Mon Dec 08 2025 08:32:27 GMT-0600 (Central Standard Time),527503.8999999762,173_y_f_n_a.png,I,space,3879,2,2,1911.7000000476837,525592.1999999285,8064,NNB,B,0
1,test,2,1.0,2-Back,1.0,z,Mon Dec 08 2025 08:32:27 GMT-0600 (Central Standard Time),538317.3999999762,178_m_m_n_a.png,I,z,768,3,2,1793.1000000238419,536524.2999999523,8064,NNB,B,1
2,test,2,0.0,2-Back,1.0,m,Mon Dec 08 2025 08:32:27 GMT-0600 (Central Standard Time),540283.3999999762,097_m_f_n_a.png,I,m,937,4,2,1960.2000000476837,538323.1999999285,8064,NNB,B,2
3,test,2,0.0,2-Back,1.0,m,Mon Dec 08 2025 08:32:27 GMT-0600 (Central Standard Time),542343.6999999285,173_y_f_n_a.png,I,m,1027,5,2,2054.2999999523163,540289.3999999762,8064,NNB,B,3
4,test,2,0.0,2-Back,1.0,m,Mon Dec 08 2025 08:32:27 GMT-0600 (Central Standard Time),544582.2999999523,065_o_m_n_a.png,I,m,1209,6,2,2226.600000023842,542355.6999999285,8064,NNB,B,4
5,test,2,0.0,2-Back,1.0,m,Mon Dec 08 2025 08:32:27 GMT-0600 (Central Standard Time),546648.5,152_y_f_n_a.png,I,m,1047,7,2,2060.399999976158,544588.1000000238,8064,NNB,B,5
6,test,2,1.0,2-Back,1.0,z,Mon Dec 08 2025 08:32:27 GMT-0600 (Central Standard Time),548347.6000000238,065_o_m_n_a.png,I,z,669,8,2,1692.3000000715256,546655.2999999523,8064,NNB,B,6
7,test,2,0.0,2-Back,1.0,m,Mon Dec 08 2025 08:32:27 GMT-0600 (Central Standard Time),550230.5,013_y_m_n_a.png,I,m,859,9,2,1878.0,548352.5,8064,NNB,B,7
7,test,2,0.0,2-Back,0.0,m,Mon Dec 08 2025 08:32:27 GMT-0600 (Central Standard Time),552046.6999999285,013_y_m_n_a.png,I,z,792,10,2,1812.3999999761581,550234.2999999523,8064,NNB,B,8
8,test,2,0.0,2-Back,1.0,m,Mon Dec 08 2025 08:32:27 GMT-0600 (Central Standard Time),554129.1999999285,029_m_f_n_a.png,I,m,1064,11,2,2078.5,552050.6999999285,8064,NNB,B,9
9,test,2,0.0,2-Back,1.0,m,Mon Dec 08 2025 08:32:27 GMT-0600 (Central Standard Time),556561.8999999762,173_y_f_n_a.png,I,m,1412,12,2,2428.899999976158,554133.0,8064,NNB,B,10
10,test,2,1.0,2-Back,1.0,z,Mon Dec 08 2025 08:32:27 GMT-0600 (Central Standard Time),558261.1000000238,029_m_f_n_a.png,I,z,669,13,2,1694.9000000953674,556566.1999999285,8064,NNB,B,11
11,test,2,0.0,2-Back,1.0,m,Mon Dec 08 2025 08:32:27 GMT-0600 (Central Standard Time),560293.8999999762,176_o_m_n_a.png,I,m,1009,14,2,2027.3999999761581,558266.5,8064,NNB,B,12
12,test,2,0.0,2-Back,1.0,m,Mon Dec 08 2025 08:32:27 GMT-0600 (Central Standard Time),562576.6999999285,176_o_m_n_a.png,I,m,1257,15,2,2277.1999999284744,560299.5,8064,NNB,B,13
13,test,2,0.0,2-Back,1.0,m,Mon Dec 08 2025 08:32:27 GMT-0600 (Central Standard Time),564492.7999999523,110_o_f_n_a.png,I,m,885,16,2,1911.1000000238419,562581.6999999285,8064,NNB,B,14
14,test,2,0.0,2-Back,1.0,m,Mon Dec 08 2025 08:32:27 GMT-0600 (Central Standard Time),566591.8999999762,126_m_m_n_a.png,I,m,1073,17,2,2095.0,564496.8999999762,8064,NNB,B,15
15,test,2,1.0,2-Back,1.0,z,Mon Dec 08 2025 08:32:27 GMT-0600 (Central Standard Time),568591.2999999523,110_o_f_n_a.png,I,z,982,18,2,1995.6000000238419,566595.6999999285,8064,NNB,B,16
0,test,3,1.0,2-Back,,,Mon Dec 08 2025 08:32:27 GMT-0600 (Central Standard Time),568591.2999999523,153_y_m_n_a.png,I,space,1455,1,2,1995.6000000238419,566595.6999999285,8064,NNB,B,0
0,test,3,1.0,2-Back,,,Mon Dec 08 2025 08:32:27 GMT-0600 (Central Standard Time),568591.2999999523,153_y_m_n_a.png,I,space,1455,2,2,1995.6000000238419,566595.6999999285,8064,NNB,B,0
1,test,3,0.0,2-Back,1.0,m,Mon Dec 08 2025 08:32:27 GMT-0600 (Central Standard Time),577105.2999999523,110_o_f_n_a.png,I,m,897,3,2,1912.5,575192.7999999523,8064,NNB,B,1
2,test,3,0.0,2-Back,1.0,m,Mon Dec 08 2025 08:32:27 GMT-0600 (Central Standard Time),579171.6000000238,178_m_m_n_a.png,I,m,1045,4,2,2060.4000000953674,577111.1999999285,8064,NNB,B,2
3,test,3,1.0,2-Back,1.0,z,Mon Dec 08 2025 08:32:27 GMT-0600 (Central Standard Time),580853.8999999762,110_o_f_n_a.png,I,z,659,5,2,1676.2000000476837,579177.6999999285,8064,NNB,B,3
4,test,3,0.0,2-Back,1.0,m,Mon Dec 08 2025 08:32:27 GMT-0600 (Central Standard Time),582820.1999999285,013_y_m_n_a.png,I,m,936,6,2,1960.8999999761581,580859.2999999523,8064,NNB,B,4
5,test,3,0.0,2-Back,1.0,m,Mon Dec 08 2025 08:32:27 GMT-0600 (Central Standard Time),585685.7999999523,178_m_m_n_a.png,I,m,1833,7,2,2858.399999976158,582827.3999999762,8064,NNB,B,5
6,test,3,1.0,2-Back,1.0,z,Mon Dec 08 2025 08:32:27 GMT-0600 (Central Standard Time),587318.6999999285,013_y_m_n_a.png,I,z,609,8,2,1626.7999999523163,585691.8999999762,8064,NNB,B,6
7,test,3,0.0,2-Back,1.0,m,Mon Dec 08 2025 08:32:27 GMT-0600 (Central Standard Time),589934.2999999523,173_y_f_n_a.png,I,m,1599,9,2,2610.1999999284744,587324.1000000238,8064,NNB,B,7
8,test,3,0.0,2-Back,1.0,m,Mon Dec 08 2025 08:32:27 GMT-0600 (Central Standard Time),591950.8999999762,126_m_m_n_a.png,I,m,1000,10,2,2011.5,589939.3999999762,8064,NNB,B,8
9,test,3,1.0,2-Back,1.0,z,Mon Dec 08 2025 08:32:27 GMT-0600 (Central Standard Time),593683.3999999762,173_y_f_n_a.png,I,z,712,11,2,1726.7999999523163,591956.6000000238,8064,NNB,B,9
10,test,3,1.0,2-Back,1.0,z,Mon Dec 08 2025 08:32:27 GMT-0600 (Central Standard Time),596415.6999999285,126_m_m_n_a.png,I,z,1706,12,2,2725.0,593690.6999999285,8064,NNB,B,10
11,test,3,0.0,2-Back,1.0,m,Mon Dec 08 2025 08:32:27 GMT-0600 (Central Standard Time),598532.2999999523,110_o_f_n_a.png,I,m,1087,13,2,2112.7999999523163,596419.5,8064,NNB,B,11
12,test,3,0.0,2-Back,1.0,m,Mon Dec 08 2025 08:32:27 GMT-0600 (Central Standard Time),600747.8999999762,097_m_f_n_a.png,I,m,1186,14,2,2210.899999976158,598537.0,8064,NNB,B,12
13,test,3,0.0,2-Back,1.0,m,Mon Dec 08 2025 08:32:27 GMT-0600 (Central Standard Time),602713.8999999762,065_o_m_n_a.png,I,m,939,15,2,1962.2000000476837,600751.6999999285,8064,NNB,B,13
14,test,3,1.0,2-Back,1.0,z,Mon Dec 08 2025 08:32:27 GMT-0600 (Central Standard Time),604479.7999999523,097_m_f_n_a.png,I,z,749,16,2,1761.3999999761581,602718.3999999762,8064,NNB,B,14
15,test,3,0.0,2-Back,1.0,m,Mon Dec 08 2025 08:32:27 GMT-0600 (Central Standard Time),606312.8999999762,086_o_f_n_a.png,I,m,805,17,2,1828.5,604484.3999999762,8064,NNB,B,15
16,test,3,0.0,2-Back,1.0,m,Mon Dec 08 2025 08:32:27 GMT-0600 (Central Standard Time),608428.6000000238,086_o_f_n_a.png,I,m,1091,18,2,2109.3000000715256,606319.2999999523,8064,NNB,B,16
0,test,4,0.0,2-Back,,,Mon Dec 08 2025 08:32:27 GMT-0600 (Central Standard Time),608428.6000000238,176_o_m_n_a.png,I,space,1298,1,2,2109.3000000715256,606319.2999999523,8064,NNB,B,0
0,test,4,0.0,2-Back,,,Mon Dec 08 2025 08:32:27 GMT-0600 (Central Standard Time),608428.6000000238,152_y_f_n_a.png,I,space,1298,2,2,2109.3000000715256,606319.2999999523,8064,NNB,B,0
1,test,4,1.0,2-Back,1.0,z,Mon Dec 08 2025 08:32:27 GMT-0600 (Central Standard Time),616692.7999999523,176_o_m_n_a.png,I,z,693,3,2,1707.7999999523163,614985.0,8064,NNB,B,1
2,test,4,1.0,2-Back,1.0,z,Mon Dec 08 2025 08:32:27 GMT-0600 (Central Standard Time),618875.3999999762,152_y_f_n_a.png,I,z,1161,4,2,2176.600000023842,616698.7999999523,8064,NNB,B,2
3,test,4,0.0,2-Back,1.0,m,Mon Dec 08 2025 08:32:27 GMT-0600 (Central Standard Time),620808.1999999285,110_o_f_n_a.png,I,m,907,5,2,1927.0,618881.1999999285,8064,NNB,B,3
3,test,4,0.0,2-Back,0.0,m,Mon Dec 08 2025 08:32:27 GMT-0600 (Central Standard Time),623607.1000000238,110_o_f_n_a.png,I,z,1781,6,2,2794.7000000476837,620812.3999999762,8064,NNB,B,4
4,test,4,0.0,2-Back,1.0,m,Mon Dec 08 2025 08:32:27 GMT-0600 (Central Standard Time),625556.7999999523,029_m_f_n_a.png,I,m,926,7,2,1943.6999999284744,623613.1000000238,8064,NNB,B,5
5,test,4,0.0,2-Back,1.0,m,Mon Dec 08 2025 08:32:27 GMT-0600 (Central Standard Time),627572.8999999762,013_y_m_n_a.png,I,m,994,8,2,2010.7999999523163,625562.1000000238,8064,NNB,B,6
6,test,4,1.0,2-Back,1.0,z,Mon Dec 08 2025 08:32:27 GMT-0600 (Central Standard Time),629238.7999999523,029_m_f_n_a.png,I,z,650,9,2,1662.0,627576.7999999523,8064,NNB,B,7
7,test,4,0.0,2-Back,1.0,m,Mon Dec 08 2025 08:32:27 GMT-0600 (Central Standard Time),631071.5,126_m_m_n_a.png,I,m,815,10,2,1829.2000000476837,629242.2999999523,8064,NNB,B,8
8,test,4,0.0,2-Back,1.0,m,Mon Dec 08 2025 08:32:27 GMT-0600 (Central Standard Time),633437.7999999523,013_y_m_n_a.png,I,m,1343,11,2,2362.5,631075.2999999523,8064,NNB,B,9
9,test,4,0.0,2-Back,1.0,m,Mon Dec 08 2025 08:32:27 GMT-0600 (Central Standard Time),635337.0,086_o_f_n_a.png,I,m,873,12,2,1894.1000000238419,633442.8999999762,8064,NNB,B,10
10,test,4,0.0,2-Back,1.0,m,Mon Dec 08 2025 08:32:27 GMT-0600 (Central Standard Time),637519.6999999285,153_y_m_n_a.png,I,m,1042,13,2,2176.1999999284744,635343.5,8064,NNB,B,11
11,test,4,1.0,2-Back,1.0,z,Mon Dec 08 2025 08:32:27 GMT-0600 (Central Standard Time),639852.3999999762,086_o_f_n_a.png,I,z,1311,14,2,2327.899999976158,637524.5,8064,NNB,B,12
12,test,4,1.0,2-Back,1.0,z,Mon Dec 08 2025 08:32:27 GMT-0600 (Central Standard Time),642184.7999999523,153_y_m_n_a.png,I,z,1305,15,2,2327.5,639857.2999999523,8064,NNB,B,13
13,test,4,0.0,2-Back,1.0,m,Mon Dec 08 2025 08:32:27 GMT-0600 (Central Standard Time),644218.3999999762,178_m_m_n_a.png,I,m,1014,16,2,2029.2000000476837,642189.1999999285,8064,NNB,B,14
14,test,4,0.0,2-Back,1.0,m,Mon Dec 08 2025 08:32:27 GMT-0600 (Central Standard Time),646283.3999999762,097_m_f_n_a.png,I,m,1044,17,2,2060.100000023842,644223.2999999523,8064,NNB,B,15
15,test,4,1.0,2-Back,1.0,z,Mon Dec 08 2025 08:32:27 GMT-0600 (Central Standard Time),648049.6000000238,178_m_m_n_a.png,I,z,739,18,2,1761.9000000953674,646287.6999999285,8064,NNB,B,16
0,test,5,1.0,2-Back,,,Mon Dec 08 2025 08:32:27 GMT-0600 (Central Standard Time),648049.6000000238,153_y_m_n_a.png,I,space,1293,1,2,1761.9000000953674,646287.6999999285,8064,NNB,B,0
0,test,5,1.0,2-Back,,,Mon Dec 08 2025 08:32:27 GMT-0600 (Central Standard Time),648049.6000000238,097_m_f_n_a.png,I,space,1293,2,2,1761.9000000953674,646287.6999999285,8064,NNB,B,0
1,test,5,1.0,2-Back,1.0,z,Mon Dec 08 2025 08:32:27 GMT-0600 (Central Standard Time),656247.0,153_y_m_n_a.png,I,z,817,3,2,1845.3000000715256,654401.6999999285,8064,NNB,B,1
2,test,5,1.0,2-Back,1.0,z,Mon Dec 08 2025 08:32:27 GMT-0600 (Central Standard Time),657996.6000000238,097_m_f_n_a.png,I,z,726,4,2,1745.6000000238419,656251.0,8064,NNB,B,2
3,test,5,0.0,2-Back,1.0,m,Mon Dec 08 2025 08:32:27 GMT-0600 (Central Standard Time),659879.3999999762,086_o_f_n_a.png,I,m,857,5,2,1878.5,658000.8999999762,8064,NNB,B,3
4,test,5,0.0,2-Back,1.0,m,Mon Dec 08 2025 08:32:27 GMT-0600 (Central Standard Time),661862.0,153_y_m_n_a.png,I,m,950,6,2,1978.6000000238419,659883.3999999762,8064,NNB,B,4
5,test,5,0.0,2-Back,1.0,m,Mon Dec 08 2025 08:32:27 GMT-0600 (Central Standard Time),663894.6999999285,173_y_f_n_a.png,I,m,1007,7,2,2028.5999999046326,661866.1000000238,8064,NNB,B,5
5,test,5,0.0,2-Back,0.0,m,Mon Dec 08 2025 08:32:27 GMT-0600 (Central Standard Time),666877.0,086_o_f_n_a.png,I,z,1952,8,2,2978.3000000715256,663898.6999999285,8064,NNB,B,6
6,test,5,1.0,2-Back,1.0,z,Mon Dec 08 2025 08:32:27 GMT-0600 (Central Standard Time),668910.0,173_y_f_n_a.png,I,z,1009,9,2,2029.3999999761581,666880.6000000238,8064,NNB,B,7
7,test,5,0.0,2-Back,1.0,m,Mon Dec 08 2025 08:32:27 GMT-0600 (Central Standard Time),670742.6000000238,065_o_m_n_a.png,I,m,809,10,2,1828.7000000476837,668913.8999999762,8064,NNB,B,8
8,test,5,0.0,2-Back,1.0,m,Mon Dec 08 2025 08:32:27 GMT-0600 (Central Standard Time),672542.0,029_m_f_n_a.png,I,m,776,11,2,1794.8000000715256,670747.1999999285,8064,NNB,B,9
9,test,5,0.0,2-Back,1.0,m,Mon Dec 08 2025 08:32:27 GMT-0600 (Central Standard Time),674424.6999999285,126_m_m_n_a.png,I,m,864,12,2,1878.8999999761581,672545.7999999523,8064,NNB,B,10
10,test,5,0.0,2-Back,1.0,m,Mon Dec 08 2025 08:32:27 GMT-0600 (Central Standard Time),676274.1000000238,065_o_m_n_a.png,I,m,822,13,2,1845.1000000238419,674429.0,8064,NNB,B,11
10,test,5,1.0,2-Back,0.0,z,Mon Dec 08 2025 08:32:27 GMT-0600 (Central Standard Time),678390.5,126_m_m_n_a.png,I,m,1083,14,2,2111.7000000476837,676278.7999999523,8064,NNB,B,12
11,test,5,0.0,2-Back,1.0,m,Mon Dec 08 2025 08:32:27 GMT-0600 (Central Standard Time),680373.0,152_y_f_n_a.png,I,m,952,15,2,1978.3000000715256,678394.6999999285,8064,NNB,B,13
12,test,5,0.0,2-Back,1.0,m,Mon Dec 08 2025 08:32:27 GMT-0600 (Central Standard Time),682271.8999999762,176_o_m_n_a.png,I,m,882,16,2,1894.2999999523163,680377.6000000238,8064,NNB,B,14
12,test,5,0.0,2-Back,0.0,m,Mon Dec 08 2025 08:32:27 GMT-0600 (Central Standard Time),684204.8999999762,029_m_f_n_a.png,I,z,902,17,2,1924.7999999523163,682280.1000000238,8064,NNB,B,15
13,test,5,1.0,2-Back,1.0,z,Mon Dec 08 2025 08:32:27 GMT-0600 (Central Standard Time),686537.6999999285,176_o_m_n_a.png,I,z,1304,18,2,2328.899999976158,684208.7999999523,8064,NNB,B,16
