acc_sum,block,block_c,change,condition,correct,correct_response,datetime,endtime,face,project,response,response_time,row_sel,session_number,start_end,starttime,subject_id,task,task_vers,trial
0,prac,1,,1-Back,,,Fri Apr 17 2026 14:54:58 GMT-0400 (Eastern Daylight Time),,097_m_f_n_a.png,I,space,11465,1,1,,,9078,NNB,B,0
0,prac,1,0.0,1-Back,0.0,m,Fri Apr 17 2026 14:54:58 GMT-0400 (Eastern Daylight Time),122246.0,152_y_f_n_a.png,I,z,1641,2,1,2536.5999999046326,119709.40000009537,9078,NNB,B,1
0,prac,1,1.0,1-Back,0.0,z,Fri Apr 17 2026 14:54:58 GMT-0400 (Eastern Daylight Time),124479.40000009537,152_y_f_n_a.png,I,m,1443,3,1,2221.4000000953674,122258.0,9078,NNB,B,2
0,prac,1,0.0,1-Back,0.0,m,Fri Apr 17 2026 14:54:58 GMT-0400 (Eastern Daylight Time),127362.69999980927,176_o_m_n_a.png,I,z,1905,4,1,2871.699999809265,124491.0,9078,NNB,B,3
0,prac,1,0.0,1-Back,0.0,m,Fri Apr 17 2026 14:54:58 GMT-0400 (Eastern Daylight Time),129979.40000009537,126_m_m_n_a.png,I,z,1833,5,1,2606.7000002861023,127372.69999980927,9078,NNB,B,4
0,prac,1,1.0,1-Back,0.0,z,Fri Apr 17 2026 14:54:58 GMT-0400 (Eastern Daylight Time),132329.40000009537,126_m_m_n_a.png,I,m,1567,6,1,2339.2000002861023,129990.19999980927,9078,NNB,B,5
0,prac,1,0.0,1-Back,0.0,m,Fri Apr 17 2026 14:54:58 GMT-0400 (Eastern Daylight Time),134462.69999980927,086_o_f_n_a.png,I,z,1346,7,1,2123.5,132339.19999980927,9078,NNB,B,6
0,prac,1,0.0,1-Back,0.0,m,Fri Apr 17 2026 14:54:58 GMT-0400 (Eastern Daylight Time),137279.40000009537,178_m_m_n_a.png,I,z,1898,8,1,2804.4000000953674,134475.0,9078,NNB,B,7
0,prac,1,0.0,1-Back,0.0,m,Fri Apr 17 2026 14:54:58 GMT-0400 (Eastern Daylight Time),140062.40000009537,097_m_f_n_a.png,I,None,2003,9,1,2769.800000190735,137292.59999990463,9078,NNB,B,8
0,prac,1,1.0,1-Back,0.0,z,Fri Apr 17 2026 14:54:58 GMT-0400 (Eastern Daylight Time),142712.69999980927,097_m_f_n_a.png,I,m,1868,10,1,2639.199999809265,140073.5,9078,NNB,B,9
0,prac,1,0.0,1-Back,0.0,m,Fri Apr 17 2026 14:54:58 GMT-0400 (Eastern Daylight Time),145495.90000009537,176_o_m_n_a.png,I,None,2005,11,1,2772.4000000953674,142723.5,9078,NNB,B,10
0,prac,1,0.0,1-Back,0.0,m,Fri Apr 17 2026 14:54:58 GMT-0400 (Eastern Daylight Time),148246.0,173_y_f_n_a.png,I,z,1846,12,1,2735.2000002861023,145510.7999997139,9078,NNB,B,11
0,prac,2,0.0,1-Back,,,Fri Apr 17 2026 14:54:58 GMT-0400 (Eastern Daylight Time),148246.0,097_m_f_n_a.png,I,a,44584,1,1,2735.2000002861023,145510.7999997139,9078,NNB,B,0
1,prac,2,0.0,1-Back,1.0,m,Fri Apr 17 2026 14:54:58 GMT-0400 (Eastern Daylight Time),197996.09999990463,152_y_f_n_a.png,I,m,1201,2,1,2108.199999809265,195887.90000009537,9078,NNB,B,1
2,prac,2,1.0,1-Back,1.0,z,Fri Apr 17 2026 14:54:58 GMT-0400 (Eastern Daylight Time),200012.69999980927,152_y_f_n_a.png,I,z,1230,3,1,2005.1999998092651,198007.5,9078,NNB,B,2
3,prac,2,0.0,1-Back,1.0,m,Fri Apr 17 2026 14:54:58 GMT-0400 (Eastern Daylight Time),202446.0,176_o_m_n_a.png,I,m,1516,4,1,2419.7000002861023,200026.2999997139,9078,NNB,B,3
4,prac,2,0.0,1-Back,1.0,m,Fri Apr 17 2026 14:54:58 GMT-0400 (Eastern Daylight Time),204612.69999980927,126_m_m_n_a.png,I,m,1247,5,1,2155.5999999046326,202457.09999990463,9078,NNB,B,4
5,prac,2,1.0,1-Back,1.0,z,Fri Apr 17 2026 14:54:58 GMT-0400 (Eastern Daylight Time),206429.2999997139,126_m_m_n_a.png,I,z,1029,6,1,1804.5,204624.7999997139,9078,NNB,B,5
6,prac,2,0.0,1-Back,1.0,m,Fri Apr 17 2026 14:54:58 GMT-0400 (Eastern Daylight Time),208746.0,086_o_f_n_a.png,I,m,1386,7,1,2305.5999999046326,206440.40000009537,9078,NNB,B,6
7,prac,2,0.0,1-Back,1.0,m,Fri Apr 17 2026 14:54:58 GMT-0400 (Eastern Daylight Time),211595.90000009537,178_m_m_n_a.png,I,m,1935,8,1,2840.4000000953674,208755.5,9078,NNB,B,7
8,prac,2,0.0,1-Back,1.0,m,Fri Apr 17 2026 14:54:58 GMT-0400 (Eastern Daylight Time),213729.2999997139,097_m_f_n_a.png,I,m,1341,9,1,2121.5,211607.7999997139,9078,NNB,B,8
9,prac,2,1.0,1-Back,1.0,z,Fri Apr 17 2026 14:54:58 GMT-0400 (Eastern Daylight Time),215579.40000009537,097_m_f_n_a.png,I,z,1066,10,1,1839.6000003814697,213739.7999997139,9078,NNB,B,9
10,prac,2,0.0,1-Back,1.0,m,Fri Apr 17 2026 14:54:58 GMT-0400 (Eastern Daylight Time),217745.90000009537,176_o_m_n_a.png,I,m,1373,11,1,2154.6000003814697,215591.2999997139,9078,NNB,B,10
11,prac,2,0.0,1-Back,1.0,m,Fri Apr 17 2026 14:54:58 GMT-0400 (Eastern Daylight Time),219812.59999990463,173_y_f_n_a.png,I,m,1150,12,1,2055.699999809265,217756.90000009537,9078,NNB,B,11
0,test,1,0.0,1-Back,,,Fri Apr 17 2026 14:54:58 GMT-0400 (Eastern Daylight Time),219812.59999990463,152_y_f_n_a.png,I,space,10434,1,1,2055.699999809265,217756.90000009537,9078,NNB,B,0
1,test,1,0.0,1-Back,1.0,m,Fri Apr 17 2026 14:54:58 GMT-0400 (Eastern Daylight Time),238629.19999980927,029_m_f_n_a.png,I,m,833,2,1,1857.6999998092651,236771.5,9078,NNB,B,1
2,test,1,0.0,1-Back,1.0,m,Fri Apr 17 2026 14:54:58 GMT-0400 (Eastern Daylight Time),240745.69999980927,173_y_f_n_a.png,I,m,1096,3,1,2106.9000000953674,238638.7999997139,9078,NNB,B,2
3,test,1,1.0,1-Back,1.0,z,Fri Apr 17 2026 14:54:58 GMT-0400 (Eastern Daylight Time),243045.59999990463,173_y_f_n_a.png,I,z,1266,4,1,2291.9000000953674,240753.69999980927,9078,NNB,B,3
4,test,1,0.0,1-Back,1.0,m,Fri Apr 17 2026 14:54:58 GMT-0400 (Eastern Daylight Time),245429.09999990463,029_m_f_n_a.png,I,m,1351,5,1,2375.5999999046326,243053.5,9078,NNB,B,4
4,test,1,0.0,1-Back,0.0,m,Fri Apr 17 2026 14:54:58 GMT-0400 (Eastern Daylight Time),247829.09999990463,176_o_m_n_a.png,I,z,1367,6,1,2392.300000190735,245436.7999997139,9078,NNB,B,5
4,test,1,1.0,1-Back,0.0,z,Fri Apr 17 2026 14:54:58 GMT-0400 (Eastern Daylight Time),250862.69999980927,176_o_m_n_a.png,I,None,2016,7,1,3024.5999999046326,247838.09999990463,9078,NNB,B,6
5,test,1,0.0,1-Back,1.0,m,Fri Apr 17 2026 14:54:58 GMT-0400 (Eastern Daylight Time),253795.69999980927,126_m_m_n_a.png,I,m,1902,8,1,2925.0999999046326,250870.59999990463,9078,NNB,B,7
6,test,1,0.0,1-Back,1.0,m,Fri Apr 17 2026 14:54:58 GMT-0400 (Eastern Daylight Time),256062.19999980927,086_o_f_n_a.png,I,m,1240,9,1,2257.4000000953674,253804.7999997139,9078,NNB,B,8
7,test,1,0.0,1-Back,1.0,m,Fri Apr 17 2026 14:54:58 GMT-0400 (Eastern Daylight Time),258229.0,126_m_m_n_a.png,I,m,1134,10,1,2159.7000002861023,256069.2999997139,9078,NNB,B,9
8,test,1,0.0,1-Back,1.0,m,Fri Apr 17 2026 14:54:58 GMT-0400 (Eastern Daylight Time),260345.69999980927,153_y_m_n_a.png,I,m,1095,11,1,2109.4000000953674,258236.2999997139,9078,NNB,B,10
9,test,1,1.0,1-Back,1.0,z,Fri Apr 17 2026 14:54:58 GMT-0400 (Eastern Daylight Time),262645.59999990463,153_y_m_n_a.png,I,z,1267,12,1,2288.300000190735,260357.2999997139,9078,NNB,B,11
10,test,1,0.0,1-Back,1.0,m,Fri Apr 17 2026 14:54:58 GMT-0400 (Eastern Daylight Time),264462.40000009537,110_o_f_n_a.png,I,m,791,13,1,1807.5,262654.90000009537,9078,NNB,B,12
11,test,1,1.0,1-Back,1.0,z,Fri Apr 17 2026 14:54:58 GMT-0400 (Eastern Daylight Time),266745.59999990463,110_o_f_n_a.png,I,z,1262,14,1,2274.5999999046326,264471.0,9078,NNB,B,13
12,test,1,0.0,1-Back,1.0,m,Fri Apr 17 2026 14:54:58 GMT-0400 (Eastern Daylight Time),268429.0,013_y_m_n_a.png,I,m,658,15,1,1674.7000002861023,266754.2999997139,9078,NNB,B,14
13,test,1,0.0,1-Back,1.0,m,Fri Apr 17 2026 14:54:58 GMT-0400 (Eastern Daylight Time),270629.0,097_m_f_n_a.png,I,m,1166,16,1,2190.2000002861023,268438.7999997139,9078,NNB,B,15
14,test,1,0.0,1-Back,1.0,m,Fri Apr 17 2026 14:54:58 GMT-0400 (Eastern Daylight Time),272379.0,065_o_m_n_a.png,I,m,726,17,1,1737.2000002861023,270641.7999997139,9078,NNB,B,16
14,test,1,0.0,1-Back,0.0,m,Fri Apr 17 2026 14:54:58 GMT-0400 (Eastern Daylight Time),275412.59999990463,097_m_f_n_a.png,I,None,2016,18,1,3025.800000190735,272386.7999997139,9078,NNB,B,17
0,test,2,0.0,1-Back,,,Fri Apr 17 2026 14:54:58 GMT-0400 (Eastern Daylight Time),275412.59999990463,126_m_m_n_a.png,I,space,4176,1,1,3025.800000190735,272386.7999997139,9078,NNB,B,0
1,test,2,0.0,1-Back,1.0,m,Fri Apr 17 2026 14:54:58 GMT-0400 (Eastern Daylight Time),283846.09999990463,029_m_f_n_a.png,I,m,1216,2,1,2223.4000000953674,281622.69999980927,9078,NNB,B,1
2,test,2,1.0,1-Back,1.0,z,Fri Apr 17 2026 14:54:58 GMT-0400 (Eastern Daylight Time),285828.90000009537,029_m_f_n_a.png,I,z,950,3,1,1973.0,283855.90000009537,9078,NNB,B,2
3,test,2,0.0,1-Back,1.0,m,Fri Apr 17 2026 14:54:58 GMT-0400 (Eastern Daylight Time),287762.2999997139,126_m_m_n_a.png,I,m,904,4,1,1924.1999998092651,285838.09999990463,9078,NNB,B,3
4,test,2,0.0,1-Back,1.0,m,Fri Apr 17 2026 14:54:58 GMT-0400 (Eastern Daylight Time),289862.40000009537,153_y_m_n_a.png,I,m,1066,5,1,2091.0,287771.40000009537,9078,NNB,B,4
5,test,2,0.0,1-Back,1.0,m,Fri Apr 17 2026 14:54:58 GMT-0400 (Eastern Daylight Time),291880.40000009537,152_y_f_n_a.png,I,m,997,6,1,2010.4000000953674,289870.0,9078,NNB,B,5
6,test,2,1.0,1-Back,1.0,z,Fri Apr 17 2026 14:54:58 GMT-0400 (Eastern Daylight Time),293862.40000009537,152_y_f_n_a.png,I,z,966,7,1,1975.5,291886.90000009537,9078,NNB,B,6
7,test,2,0.0,1-Back,1.0,m,Fri Apr 17 2026 14:54:58 GMT-0400 (Eastern Daylight Time),296162.2999997139,153_y_m_n_a.png,I,m,1269,8,1,2289.0999999046326,293873.19999980927,9078,NNB,B,7
8,test,2,0.0,1-Back,1.0,m,Fri Apr 17 2026 14:54:58 GMT-0400 (Eastern Daylight Time),298229.0,110_o_f_n_a.png,I,m,1033,9,1,2057.7000002861023,296171.2999997139,9078,NNB,B,8
9,test,2,0.0,1-Back,1.0,m,Fri Apr 17 2026 14:54:58 GMT-0400 (Eastern Daylight Time),300095.40000009537,178_m_m_n_a.png,I,m,839,10,1,1859.4000000953674,298236.0,9078,NNB,B,9
10,test,2,1.0,1-Back,1.0,z,Fri Apr 17 2026 14:54:58 GMT-0400 (Eastern Daylight Time),301979.0,178_m_m_n_a.png,I,z,860,11,1,1874.9000000953674,300104.09999990463,9078,NNB,B,10
11,test,2,0.0,1-Back,1.0,m,Fri Apr 17 2026 14:54:58 GMT-0400 (Eastern Daylight Time),303895.2999997139,110_o_f_n_a.png,I,m,898,12,1,1907.5999999046326,301987.69999980927,9078,NNB,B,11
12,test,2,0.0,1-Back,1.0,m,Fri Apr 17 2026 14:54:58 GMT-0400 (Eastern Daylight Time),306162.19999980927,086_o_f_n_a.png,I,m,1236,13,1,2258.199999809265,303904.0,9078,NNB,B,12
13,test,2,0.0,1-Back,1.0,m,Fri Apr 17 2026 14:54:58 GMT-0400 (Eastern Daylight Time),307962.2999997139,176_o_m_n_a.png,I,m,777,14,1,1790.6999998092651,306171.59999990463,9078,NNB,B,13
14,test,2,0.0,1-Back,1.0,m,Fri Apr 17 2026 14:54:58 GMT-0400 (Eastern Daylight Time),309878.69999980927,065_o_m_n_a.png,I,m,897,15,1,1909.0,307969.69999980927,9078,NNB,B,14
15,test,2,1.0,1-Back,1.0,z,Fri Apr 17 2026 14:54:58 GMT-0400 (Eastern Daylight Time),311829.0,065_o_m_n_a.png,I,z,918,16,1,1939.8000001907349,309889.19999980927,9078,NNB,B,15
16,test,2,0.0,1-Back,1.0,m,Fri Apr 17 2026 14:54:58 GMT-0400 (Eastern Daylight Time),313712.7999997139,013_y_m_n_a.png,I,m,855,17,1,1875.8999996185303,311836.90000009537,9078,NNB,B,16
17,test,2,1.0,1-Back,1.0,z,Fri Apr 17 2026 14:54:58 GMT-0400 (Eastern Daylight Time),315779.0,013_y_m_n_a.png,I,z,1036,18,1,2060.4000000953674,313718.59999990463,9078,NNB,B,17
0,test,3,1.0,1-Back,,,Fri Apr 17 2026 14:54:58 GMT-0400 (Eastern Daylight Time),315779.0,173_y_f_n_a.png,I,space,1536,1,1,2060.4000000953674,313718.59999990463,9078,NNB,B,0
1,test,3,0.0,1-Back,1.0,m,Fri Apr 17 2026 14:54:58 GMT-0400 (Eastern Daylight Time),321362.40000009537,065_o_m_n_a.png,I,m,870,1,1,1891.0,319471.40000009537,9078,NNB,B,1
2,test,3,1.0,1-Back,1.0,z,Fri Apr 17 2026 14:54:58 GMT-0400 (Eastern Daylight Time),323745.69999980927,065_o_m_n_a.png,I,z,1354,1,1,2374.699999809265,321371.0,9078,NNB,B,2
3,test,3,0.0,1-Back,1.0,m,Fri Apr 17 2026 14:54:58 GMT-0400 (Eastern Daylight Time),325445.5,097_m_f_n_a.png,I,m,667,1,1,1689.8000001907349,323755.69999980927,9078,NNB,B,3
4,test,3,1.0,1-Back,1.0,z,Fri Apr 17 2026 14:54:58 GMT-0400 (Eastern Daylight Time),327512.09999990463,097_m_f_n_a.png,I,z,1046,1,1,2057.4000000953674,325454.69999980927,9078,NNB,B,4
5,test,3,0.0,1-Back,1.0,m,Fri Apr 17 2026 14:54:58 GMT-0400 (Eastern Daylight Time),329262.19999980927,110_o_f_n_a.png,I,m,723,1,1,1740.4000000953674,327521.7999997139,9078,NNB,B,5
6,test,3,0.0,1-Back,1.0,m,Fri Apr 17 2026 14:54:58 GMT-0400 (Eastern Daylight Time),330945.59999990463,153_y_m_n_a.png,I,m,653,1,1,1674.9000000953674,329270.69999980927,9078,NNB,B,6
7,test,3,0.0,1-Back,1.0,m,Fri Apr 17 2026 14:54:58 GMT-0400 (Eastern Daylight Time),332678.59999990463,110_o_f_n_a.png,I,m,714,1,1,1724.9000000953674,330953.69999980927,9078,NNB,B,7
8,test,3,0.0,1-Back,1.0,m,Fri Apr 17 2026 14:54:58 GMT-0400 (Eastern Daylight Time),334595.5,013_y_m_n_a.png,I,m,886,1,1,1907.3000001907349,332688.19999980927,9078,NNB,B,8
9,test,3,1.0,1-Back,1.0,z,Fri Apr 17 2026 14:54:58 GMT-0400 (Eastern Daylight Time),336228.90000009537,013_y_m_n_a.png,I,z,600,1,1,1623.7000002861023,334605.19999980927,9078,NNB,B,9
10,test,3,0.0,1-Back,1.0,m,Fri Apr 17 2026 14:54:58 GMT-0400 (Eastern Daylight Time),338145.59999990463,029_m_f_n_a.png,I,m,886,1,1,1908.3000001907349,336237.2999997139,9078,NNB,B,10
11,test,3,0.0,1-Back,1.0,m,Fri Apr 17 2026 14:54:58 GMT-0400 (Eastern Daylight Time),339862.2999997139,152_y_f_n_a.png,I,m,699,1,1,1707.7999997138977,338154.5,9078,NNB,B,11
12,test,3,1.0,1-Back,1.0,z,Fri Apr 17 2026 14:54:58 GMT-0400 (Eastern Daylight Time),341678.90000009537,152_y_f_n_a.png,I,z,790,1,1,1809.9000000953674,339869.0,9078,NNB,B,12
13,test,3,0.0,1-Back,1.0,m,Fri Apr 17 2026 14:54:58 GMT-0400 (Eastern Daylight Time),343578.90000009537,029_m_f_n_a.png,I,m,876,1,1,1891.9000000953674,341687.0,9078,NNB,B,13
14,test,3,0.0,1-Back,1.0,m,Fri Apr 17 2026 14:54:58 GMT-0400 (Eastern Daylight Time),346045.19999980927,126_m_m_n_a.png,I,m,1441,1,1,2457.0999999046326,343588.09999990463,9078,NNB,B,14
15,test,3,1.0,1-Back,1.0,z,Fri Apr 17 2026 14:54:58 GMT-0400 (Eastern Daylight Time),347828.90000009537,126_m_m_n_a.png,I,z,750,1,1,1775.7000002861023,346053.19999980927,9078,NNB,B,15
16,test,3,0.0,1-Back,1.0,m,Fri Apr 17 2026 14:54:58 GMT-0400 (Eastern Daylight Time),349445.59999990463,086_o_f_n_a.png,I,m,584,1,1,1605.1999998092651,347840.40000009537,9078,NNB,B,16
17,test,3,1.0,1-Back,1.0,z,Fri Apr 17 2026 14:54:58 GMT-0400 (Eastern Daylight Time),351095.2999997139,086_o_f_n_a.png,I,z,630,1,1,1641.3999996185303,349453.90000009537,9078,NNB,B,17
0,test,4,1.0,1-Back,,,Fri Apr 17 2026 14:54:58 GMT-0400 (Eastern Daylight Time),351095.2999997139,097_m_f_n_a.png,I,space,1372,1,1,1641.3999996185303,349453.90000009537,9078,NNB,B,0
1,test,4,0.0,1-Back,1.0,m,Fri Apr 17 2026 14:54:58 GMT-0400 (Eastern Daylight Time),356578.90000009537,065_o_m_n_a.png,I,m,937,2,1,1957.6000003814697,354621.2999997139,9078,NNB,B,1
2,test,4,0.0,1-Back,1.0,m,Fri Apr 17 2026 14:54:58 GMT-0400 (Eastern Daylight Time),359112.09999990463,097_m_f_n_a.png,I,m,1513,3,1,2523.5999999046326,356588.5,9078,NNB,B,2
3,test,4,0.0,1-Back,1.0,m,Fri Apr 17 2026 14:54:58 GMT-0400 (Eastern Daylight Time),361045.5,110_o_f_n_a.png,I,m,899,4,1,1924.3000001907349,359121.19999980927,9078,NNB,B,3
4,test,4,1.0,1-Back,1.0,z,Fri Apr 17 2026 14:54:58 GMT-0400 (Eastern Daylight Time),362578.90000009537,110_o_f_n_a.png,I,z,502,5,1,1525.0,361053.90000009537,9078,NNB,B,4
5,test,4,0.0,1-Back,1.0,m,Fri Apr 17 2026 14:54:58 GMT-0400 (Eastern Daylight Time),364412.09999990463,152_y_f_n_a.png,I,m,809,6,1,1825.6999998092651,362586.40000009537,9078,NNB,B,5
6,test,4,0.0,1-Back,1.0,m,Fri Apr 17 2026 14:54:58 GMT-0400 (Eastern Daylight Time),366245.59999990463,153_y_m_n_a.png,I,m,799,7,1,1825.0,364420.59999990463,9078,NNB,B,6
7,test,4,1.0,1-Back,1.0,z,Fri Apr 17 2026 14:54:58 GMT-0400 (Eastern Daylight Time),367928.19999980927,153_y_m_n_a.png,I,z,662,8,1,1674.9000000953674,366253.2999997139,9078,NNB,B,7
8,test,4,0.0,1-Back,1.0,m,Fri Apr 17 2026 14:54:58 GMT-0400 (Eastern Daylight Time),369528.2999997139,152_y_f_n_a.png,I,m,579,9,1,1595.3999996185303,367932.90000009537,9078,NNB,B,8
9,test,4,0.0,1-Back,1.0,m,Fri Apr 17 2026 14:54:58 GMT-0400 (Eastern Daylight Time),371112.0,178_m_m_n_a.png,I,m,563,10,1,1579.9000000953674,369532.09999990463,9078,NNB,B,9
10,test,4,1.0,1-Back,1.0,z,Fri Apr 17 2026 14:54:58 GMT-0400 (Eastern Daylight Time),372862.2999997139,178_m_m_n_a.png,I,z,723,11,1,1742.2999997138977,371120.0,9078,NNB,B,10
11,test,4,0.0,1-Back,1.0,m,Fri Apr 17 2026 14:54:58 GMT-0400 (Eastern Daylight Time),375245.5,086_o_f_n_a.png,I,m,1357,12,1,2374.7000002861023,372870.7999997139,9078,NNB,B,11
12,test,4,0.0,1-Back,1.0,m,Fri Apr 17 2026 14:54:58 GMT-0400 (Eastern Daylight Time),376978.90000009537,176_o_m_n_a.png,I,m,703,13,1,1724.4000000953674,375254.5,9078,NNB,B,12
13,test,4,0.0,1-Back,1.0,m,Fri Apr 17 2026 14:54:58 GMT-0400 (Eastern Daylight Time),378895.59999990463,086_o_f_n_a.png,I,m,890,14,1,1908.8000001907349,376986.7999997139,9078,NNB,B,13
14,test,4,0.0,1-Back,1.0,m,Fri Apr 17 2026 14:54:58 GMT-0400 (Eastern Daylight Time),381378.90000009537,173_y_f_n_a.png,I,m,1452,15,1,2473.6000003814697,378905.2999997139,9078,NNB,B,14
15,test,4,1.0,1-Back,1.0,z,Fri Apr 17 2026 14:54:58 GMT-0400 (Eastern Daylight Time),383112.09999990463,173_y_f_n_a.png,I,z,713,16,1,1724.3000001907349,381387.7999997139,9078,NNB,B,15
16,test,4,0.0,1-Back,1.0,m,Fri Apr 17 2026 14:54:58 GMT-0400 (Eastern Daylight Time),385028.7999997139,029_m_f_n_a.png,I,m,883,17,1,1908.0,383120.7999997139,9078,NNB,B,16
17,test,4,1.0,1-Back,1.0,z,Fri Apr 17 2026 14:54:58 GMT-0400 (Eastern Daylight Time),387528.7999997139,029_m_f_n_a.png,I,z,1479,18,1,2492.0,385036.7999997139,9078,NNB,B,17
0,test,5,1.0,1-Back,,,Fri Apr 17 2026 14:54:58 GMT-0400 (Eastern Daylight Time),387528.7999997139,176_o_m_n_a.png,I,space,1291,1,1,2492.0,385036.7999997139,9078,NNB,B,0
0,test,5,1.0,1-Back,0.0,z,Fri Apr 17 2026 14:54:58 GMT-0400 (Eastern Daylight Time),392578.90000009537,176_o_m_n_a.png,I,m,703,2,1,1722.5,390856.40000009537,9078,NNB,B,1
1,test,5,0.0,1-Back,1.0,m,Fri Apr 17 2026 14:54:58 GMT-0400 (Eastern Daylight Time),394662.19999980927,152_y_f_n_a.png,I,m,1066,3,1,2074.0999999046326,392588.09999990463,9078,NNB,B,2
2,test,5,0.0,1-Back,1.0,m,Fri Apr 17 2026 14:54:58 GMT-0400 (Eastern Daylight Time),396678.59999990463,153_y_m_n_a.png,I,m,997,4,1,2006.3000001907349,394672.2999997139,9078,NNB,B,3
3,test,5,0.0,1-Back,1.0,m,Fri Apr 17 2026 14:54:58 GMT-0400 (Eastern Daylight Time),398428.90000009537,152_y_f_n_a.png,I,m,725,5,1,1741.1000003814697,396687.7999997139,9078,NNB,B,4
4,test,5,0.0,1-Back,1.0,m,Fri Apr 17 2026 14:54:58 GMT-0400 (Eastern Daylight Time),400345.5,126_m_m_n_a.png,I,m,894,6,1,1908.8000001907349,398436.69999980927,9078,NNB,B,5
5,test,5,1.0,1-Back,1.0,z,Fri Apr 17 2026 14:54:58 GMT-0400 (Eastern Daylight Time),402062.09999990463,126_m_m_n_a.png,I,z,690,7,1,1707.0999999046326,400355.0,9078,NNB,B,6
6,test,5,0.0,1-Back,1.0,m,Fri Apr 17 2026 14:54:58 GMT-0400 (Eastern Daylight Time),404012.19999980927,173_y_f_n_a.png,I,m,927,8,1,1942.1999998092651,402070.0,9078,NNB,B,7
7,test,5,0.0,1-Back,1.0,m,Fri Apr 17 2026 14:54:58 GMT-0400 (Eastern Daylight Time),406078.7999997139,013_y_m_n_a.png,I,m,1039,9,1,2055.199999809265,404023.59999990463,9078,NNB,B,8
8,test,5,0.0,1-Back,1.0,m,Fri Apr 17 2026 14:54:58 GMT-0400 (Eastern Daylight Time),407911.90000009537,173_y_f_n_a.png,I,m,813,10,1,1825.4000000953674,406086.5,9078,NNB,B,9
9,test,5,0.0,1-Back,1.0,m,Fri Apr 17 2026 14:54:58 GMT-0400 (Eastern Daylight Time),409962.90000009537,086_o_f_n_a.png,I,m,1027,11,1,2044.7000002861023,407918.19999980927,9078,NNB,B,10
10,test,5,1.0,1-Back,1.0,z,Fri Apr 17 2026 14:54:58 GMT-0400 (Eastern Daylight Time),411462.09999990463,086_o_f_n_a.png,I,z,482,12,1,1493.9000000953674,409968.19999980927,9078,NNB,B,11
11,test,5,0.0,1-Back,1.0,m,Fri Apr 17 2026 14:54:58 GMT-0400 (Eastern Daylight Time),413378.7999997139,065_o_m_n_a.png,I,m,885,13,1,1907.5,411471.2999997139,9078,NNB,B,12
12,test,5,0.0,1-Back,1.0,m,Fri Apr 17 2026 14:54:58 GMT-0400 (Eastern Daylight Time),415178.7999997139,097_m_f_n_a.png,I,m,778,14,1,1787.6999998092651,413391.09999990463,9078,NNB,B,13
13,test,5,1.0,1-Back,1.0,z,Fri Apr 17 2026 14:54:58 GMT-0400 (Eastern Daylight Time),417328.90000009537,097_m_f_n_a.png,I,z,1121,15,1,2142.2000002861023,415186.69999980927,9078,NNB,B,14
13,test,5,0.0,1-Back,0.0,m,Fri Apr 17 2026 14:54:58 GMT-0400 (Eastern Daylight Time),420362.40000009537,065_o_m_n_a.png,I,None,2016,16,1,3026.1000003814697,417336.2999997139,9078,NNB,B,15
14,test,5,0.0,1-Back,1.0,m,Fri Apr 17 2026 14:54:58 GMT-0400 (Eastern Daylight Time),422128.7999997139,029_m_f_n_a.png,I,m,737,17,1,1757.0,420371.7999997139,9078,NNB,B,16
15,test,5,0.0,1-Back,1.0,m,Fri Apr 17 2026 14:54:58 GMT-0400 (Eastern Daylight Time),423812.19999980927,178_m_m_n_a.png,I,m,651,18,1,1675.9000000953674,422136.2999997139,9078,NNB,B,17
0,prac,1,0.0,2-Back,,,Fri Apr 17 2026 14:54:58 GMT-0400 (Eastern Daylight Time),423812.19999980927,013_y_m_n_a.png,I,space,7670,1,1,1675.9000000953674,422136.2999997139,9078,NNB,B,0
0,prac,1,0.0,2-Back,,,Fri Apr 17 2026 14:54:58 GMT-0400 (Eastern Daylight Time),423812.19999980927,029_m_f_n_a.png,I,space,7670,2,1,1675.9000000953674,422136.2999997139,9078,NNB,B,0
0,prac,1,1.0,2-Back,0.0,m,Fri Apr 17 2026 14:54:58 GMT-0400 (Eastern Daylight Time),532062.0,065_o_m_n_a.png,I,None,2009,3,1,2904.4000000953674,529157.5999999046,9078,NNB,B,1
0,prac,1,0.0,2-Back,0.0,m,Fri Apr 17 2026 14:54:58 GMT-0400 (Eastern Daylight Time),534995.4000000954,086_o_f_n_a.png,I,None,2006,4,1,2920.2000002861023,532075.1999998093,9078,NNB,B,2
0,prac,1,0.0,2-Back,0.0,z,Fri Apr 17 2026 14:54:58 GMT-0400 (Eastern Daylight Time),536812.0999999046,065_o_m_n_a.png,I,m,1030,5,1,1804.5999999046326,535007.5,9078,NNB,B,3
0,prac,1,1.0,2-Back,0.0,z,Fri Apr 17 2026 14:54:58 GMT-0400 (Eastern Daylight Time),539595.2999997139,086_o_f_n_a.png,I,None,2004,6,1,2770.699999809265,536824.5999999046,9078,NNB,B,4
0,prac,1,0.0,2-Back,0.0,m,Fri Apr 17 2026 14:54:58 GMT-0400 (Eastern Daylight Time),542511.9000000954,178_m_m_n_a.png,I,None,2002,7,1,2905.1000003814697,539606.7999997139,9078,NNB,B,5
0,prac,1,0.0,2-Back,0.0,m,Fri Apr 17 2026 14:54:58 GMT-0400 (Eastern Daylight Time),545428.6999998093,176_o_m_n_a.png,I,None,2011,8,1,2906.0,542522.6999998093,9078,NNB,B,6
0,prac,1,0.0,2-Back,0.0,m,Fri Apr 17 2026 14:54:58 GMT-0400 (Eastern Daylight Time),548345.1999998093,173_y_f_n_a.png,I,None,2012,9,1,2904.7999997138977,545440.4000000954,9078,NNB,B,7
1,prac,1,1.0,2-Back,1.0,z,Fri Apr 17 2026 14:54:58 GMT-0400 (Eastern Daylight Time),550595.5999999046,176_o_m_n_a.png,I,z,1457,10,1,2239.9000000953674,548355.6999998093,9078,NNB,B,8
1,prac,1,0.0,2-Back,0.0,m,Fri Apr 17 2026 14:54:58 GMT-0400 (Eastern Daylight Time),553511.9000000954,152_y_f_n_a.png,I,None,2010,11,1,2905.2000002861023,550606.6999998093,9078,NNB,B,9
1,prac,1,0.0,2-Back,0.0,m,Fri Apr 17 2026 14:54:58 GMT-0400 (Eastern Daylight Time),556295.1999998093,178_m_m_n_a.png,I,None,2001,12,1,2768.7999997138977,553526.4000000954,9078,NNB,B,10
0,prac,2,0.0,2-Back,,,Fri Apr 17 2026 14:54:58 GMT-0400 (Eastern Daylight Time),556295.1999998093,013_y_m_n_a.png,I,a,22198,1,1,2768.7999997138977,553526.4000000954,9078,NNB,B,0
0,prac,2,0.0,2-Back,,,Fri Apr 17 2026 14:54:58 GMT-0400 (Eastern Daylight Time),556295.1999998093,029_m_f_n_a.png,I,a,22198,2,1,2768.7999997138977,553526.4000000954,9078,NNB,B,0
1,prac,2,1.0,2-Back,1.0,m,Fri Apr 17 2026 14:54:58 GMT-0400 (Eastern Daylight Time),585945.4000000954,065_o_m_n_a.png,I,m,1216,3,1,2117.7000002861023,583827.6999998093,9078,NNB,B,1
1,prac,2,0.0,2-Back,0.0,m,Fri Apr 17 2026 14:54:58 GMT-0400 (Eastern Daylight Time),588878.5999999046,086_o_f_n_a.png,I,None,2005,4,1,2920.199999809265,585958.4000000954,9078,NNB,B,2
2,prac,2,0.0,2-Back,1.0,z,Fri Apr 17 2026 14:54:58 GMT-0400 (Eastern Daylight Time),590728.5999999046,065_o_m_n_a.png,I,z,1065,5,1,1836.1999998092651,588892.4000000954,9078,NNB,B,3
2,prac,2,1.0,2-Back,0.0,z,Fri Apr 17 2026 14:54:58 GMT-0400 (Eastern Daylight Time),593095.2999997139,086_o_f_n_a.png,I,m,1579,6,1,2350.0999999046326,590745.1999998093,9078,NNB,B,4
2,prac,2,0.0,2-Back,0.0,m,Fri Apr 17 2026 14:54:58 GMT-0400 (Eastern Daylight Time),596011.9000000954,178_m_m_n_a.png,I,None,2005,7,1,2893.300000190735,593118.5999999046,9078,NNB,B,5
2,prac,2,0.0,2-Back,0.0,m,Fri Apr 17 2026 14:54:58 GMT-0400 (Eastern Daylight Time),598795.2999997139,176_o_m_n_a.png,I,z,1864,8,1,2771.8999996185303,596023.4000000954,9078,NNB,B,6
2,prac,2,0.0,2-Back,0.0,m,Fri Apr 17 2026 14:54:58 GMT-0400 (Eastern Daylight Time),601711.7999997139,173_y_f_n_a.png,I,None,2009,9,1,2896.0999999046326,598815.6999998093,9078,NNB,B,7
2,prac,2,1.0,2-Back,0.0,z,Fri Apr 17 2026 14:54:58 GMT-0400 (Eastern Daylight Time),604478.5999999046,176_o_m_n_a.png,I,m,1975,10,1,2752.800000190735,601725.7999997139,9078,NNB,B,8
2,prac,2,0.0,2-Back,0.0,m,Fri Apr 17 2026 14:54:58 GMT-0400 (Eastern Daylight Time),607411.6999998093,152_y_f_n_a.png,I,None,2012,11,1,2909.0999999046326,604502.5999999046,9078,NNB,B,9
2,prac,2,0.0,2-Back,0.0,m,Fri Apr 17 2026 14:54:58 GMT-0400 (Eastern Daylight Time),610195.1999998093,178_m_m_n_a.png,I,None,2002,12,1,2771.0,607424.1999998093,9078,NNB,B,10
0,test,1,0.0,2-Back,,,Fri Apr 17 2026 14:54:58 GMT-0400 (Eastern Daylight Time),610195.1999998093,153_y_m_n_a.png,I,space,47709,1,1,2771.0,607424.1999998093,9078,NNB,B,0
0,test,1,0.0,2-Back,,,Fri Apr 17 2026 14:54:58 GMT-0400 (Eastern Daylight Time),610195.1999998093,153_y_m_n_a.png,I,space,47709,2,1,2771.0,607424.1999998093,9078,NNB,B,0
1,test,1,0.0,2-Back,1.0,m,Fri Apr 17 2026 14:54:58 GMT-0400 (Eastern Daylight Time),674861.9000000954,086_o_f_n_a.png,I,m,1224,3,1,2241.6000003814697,672620.2999997139,9078,NNB,B,1
1,test,1,0.0,2-Back,0.0,m,Fri Apr 17 2026 14:54:58 GMT-0400 (Eastern Daylight Time),677895.1999998093,126_m_m_n_a.png,I,None,2015,4,1,3024.7999997138977,674870.4000000954,9078,NNB,B,2
2,test,1,1.0,2-Back,1.0,z,Fri Apr 17 2026 14:54:58 GMT-0400 (Eastern Daylight Time),680244.4000000954,086_o_f_n_a.png,I,z,1316,5,1,2342.0,677902.4000000954,9078,NNB,B,3
2,test,1,0.0,2-Back,0.0,m,Fri Apr 17 2026 14:54:58 GMT-0400 (Eastern Daylight Time),683278.5,152_y_f_n_a.png,I,None,2016,6,1,3029.9000000953674,680248.5999999046,9078,NNB,B,4
3,test,1,0.0,2-Back,1.0,m,Fri Apr 17 2026 14:54:58 GMT-0400 (Eastern Daylight Time),685928.4000000954,126_m_m_n_a.png,I,m,1629,7,1,2641.9000000953674,683286.5,9078,NNB,B,5
3,test,1,1.0,2-Back,0.0,z,Fri Apr 17 2026 14:54:58 GMT-0400 (Eastern Daylight Time),688961.9000000954,152_y_f_n_a.png,I,None,2016,8,1,3025.4000000953674,685936.5,9078,NNB,B,6
4,test,1,0.0,2-Back,1.0,m,Fri Apr 17 2026 14:54:58 GMT-0400 (Eastern Daylight Time),691611.6999998093,013_y_m_n_a.png,I,m,1626,9,1,2642.5,688969.1999998093,9078,NNB,B,7
5,test,1,0.0,2-Back,1.0,m,Fri Apr 17 2026 14:54:58 GMT-0400 (Eastern Daylight Time),694044.7999997139,110_o_f_n_a.png,I,m,1407,10,1,2425.0999999046326,691619.6999998093,9078,NNB,B,8
6,test,1,1.0,2-Back,1.0,z,Fri Apr 17 2026 14:54:58 GMT-0400 (Eastern Daylight Time),696461.6999998093,013_y_m_n_a.png,I,z,1391,11,1,2412.5,694049.1999998093,9078,NNB,B,9
7,test,1,0.0,2-Back,1.0,m,Fri Apr 17 2026 14:54:58 GMT-0400 (Eastern Daylight Time),699111.5999999046,029_m_f_n_a.png,I,m,1631,12,1,2641.0999999046326,696470.5,9078,NNB,B,10
7,test,1,0.0,2-Back,0.0,m,Fri Apr 17 2026 14:54:58 GMT-0400 (Eastern Daylight Time),702145.0,029_m_f_n_a.png,I,None,2016,13,1,3023.0999999046326,699121.9000000954,9078,NNB,B,11
8,test,1,0.0,2-Back,1.0,m,Fri Apr 17 2026 14:54:58 GMT-0400 (Eastern Daylight Time),704961.6999998093,065_o_m_n_a.png,I,m,1786,14,1,2809.0999999046326,702152.5999999046,9078,NNB,B,12
9,test,1,0.0,2-Back,1.0,m,Fri Apr 17 2026 14:54:58 GMT-0400 (Eastern Daylight Time),707544.9000000954,110_o_f_n_a.png,I,m,1562,15,1,2575.1000003814697,704969.7999997139,9078,NNB,B,13
10,test,1,1.0,2-Back,1.0,z,Fri Apr 17 2026 14:54:58 GMT-0400 (Eastern Daylight Time),710261.7999997139,065_o_m_n_a.png,I,z,1699,16,1,2708.5,707553.2999997139,9078,NNB,B,14
11,test,1,0.0,2-Back,1.0,m,Fri Apr 17 2026 14:54:58 GMT-0400 (Eastern Daylight Time),712478.2999997139,097_m_f_n_a.png,I,m,1190,17,1,2208.0,710270.2999997139,9078,NNB,B,15
12,test,1,0.0,2-Back,1.0,m,Fri Apr 17 2026 14:54:58 GMT-0400 (Eastern Daylight Time),714861.5999999046,178_m_m_n_a.png,I,m,1357,18,1,2372.5,712489.0999999046,9078,NNB,B,16
0,test,2,0.0,2-Back,,,Fri Apr 17 2026 14:54:58 GMT-0400 (Eastern Daylight Time),714861.5999999046,178_m_m_n_a.png,I,space,1638,1,1,2372.5,712489.0999999046,9078,NNB,B,0
0,test,2,0.0,2-Back,,,Fri Apr 17 2026 14:54:58 GMT-0400 (Eastern Daylight Time),714861.5999999046,173_y_f_n_a.png,I,space,1638,2,1,2372.5,712489.0999999046,9078,NNB,B,0
1,test,2,1.0,2-Back,1.0,z,Fri Apr 17 2026 14:54:58 GMT-0400 (Eastern Daylight Time),724445.0,178_m_m_n_a.png,I,z,1741,3,1,2759.0,721686.0,9078,NNB,B,1
2,test,2,0.0,2-Back,1.0,m,Fri Apr 17 2026 14:54:58 GMT-0400 (Eastern Daylight Time),726661.6999998093,097_m_f_n_a.png,I,m,1183,4,1,2208.0999999046326,724453.5999999046,9078,NNB,B,2
2,test,2,0.0,2-Back,0.0,m,Fri Apr 17 2026 14:54:58 GMT-0400 (Eastern Daylight Time),728978.4000000954,173_y_f_n_a.png,I,z,1286,5,1,2302.800000190735,726675.5999999046,9078,NNB,B,3
3,test,2,0.0,2-Back,1.0,m,Fri Apr 17 2026 14:54:58 GMT-0400 (Eastern Daylight Time),731111.5,065_o_m_n_a.png,I,m,1113,6,1,2123.5999999046326,728987.9000000954,9078,NNB,B,4
4,test,2,0.0,2-Back,1.0,m,Fri Apr 17 2026 14:54:58 GMT-0400 (Eastern Daylight Time),733511.5,152_y_f_n_a.png,I,m,1380,7,1,2391.7000002861023,731119.7999997139,9078,NNB,B,5
5,test,2,1.0,2-Back,1.0,z,Fri Apr 17 2026 14:54:58 GMT-0400 (Eastern Daylight Time),735494.5999999046,065_o_m_n_a.png,I,z,964,8,1,1975.3000001907349,733519.2999997139,9078,NNB,B,6
6,test,2,0.0,2-Back,1.0,m,Fri Apr 17 2026 14:54:58 GMT-0400 (Eastern Daylight Time),738161.5,013_y_m_n_a.png,I,m,1636,9,1,2658.5999999046326,735502.9000000954,9078,NNB,B,7
6,test,2,0.0,2-Back,0.0,m,Fri Apr 17 2026 14:54:58 GMT-0400 (Eastern Daylight Time),741194.6999998093,013_y_m_n_a.png,I,None,2017,10,1,3021.199999809265,738173.5,9078,NNB,B,8
6,test,2,0.0,2-Back,0.0,m,Fri Apr 17 2026 14:54:58 GMT-0400 (Eastern Daylight Time),744228.0999999046,029_m_f_n_a.png,I,None,2016,11,1,3028.800000190735,741199.2999997139,9078,NNB,B,9
6,test,2,0.0,2-Back,0.0,m,Fri Apr 17 2026 14:54:58 GMT-0400 (Eastern Daylight Time),746628.2999997139,173_y_f_n_a.png,I,z,1368,12,1,2394.2999997138977,744234.0,9078,NNB,B,10
6,test,2,1.0,2-Back,0.0,z,Fri Apr 17 2026 14:54:58 GMT-0400 (Eastern Daylight Time),749661.6999998093,029_m_f_n_a.png,I,None,2016,13,1,3023.7999997138977,746637.9000000954,9078,NNB,B,11
7,test,2,0.0,2-Back,1.0,m,Fri Apr 17 2026 14:54:58 GMT-0400 (Eastern Daylight Time),751728.1999998093,176_o_m_n_a.png,I,m,1037,14,1,2059.0,749669.1999998093,9078,NNB,B,12
7,test,2,0.0,2-Back,0.0,m,Fri Apr 17 2026 14:54:58 GMT-0400 (Eastern Daylight Time),754761.6999998093,176_o_m_n_a.png,I,None,2016,15,1,3021.199999809265,751740.5,9078,NNB,B,13
8,test,2,0.0,2-Back,1.0,m,Fri Apr 17 2026 14:54:58 GMT-0400 (Eastern Daylight Time),757178.2999997139,110_o_f_n_a.png,I,m,1394,16,1,2408.8999996185303,754769.4000000954,9078,NNB,B,14
9,test,2,0.0,2-Back,1.0,m,Fri Apr 17 2026 14:54:58 GMT-0400 (Eastern Daylight Time),759911.4000000954,126_m_m_n_a.png,I,m,1713,17,1,2724.0,757187.4000000954,9078,NNB,B,15
10,test,2,1.0,2-Back,1.0,z,Fri Apr 17 2026 14:54:58 GMT-0400 (Eastern Daylight Time),762061.5,110_o_f_n_a.png,I,z,1124,18,1,2141.2000002861023,759920.2999997139,9078,NNB,B,16
0,test,3,1.0,2-Back,,,Fri Apr 17 2026 14:54:58 GMT-0400 (Eastern Daylight Time),762061.5,153_y_m_n_a.png,I,space,1254,1,1,2141.2000002861023,759920.2999997139,9078,NNB,B,0
0,test,3,1.0,2-Back,,,Fri Apr 17 2026 14:54:58 GMT-0400 (Eastern Daylight Time),762061.5,153_y_m_n_a.png,I,space,1254,2,1,2141.2000002861023,759920.2999997139,9078,NNB,B,0
1,test,3,0.0,2-Back,1.0,m,Fri Apr 17 2026 14:54:58 GMT-0400 (Eastern Daylight Time),770844.9000000954,110_o_f_n_a.png,I,m,1308,3,1,2325.4000000953674,768519.5,9078,NNB,B,1
2,test,3,0.0,2-Back,1.0,m,Fri Apr 17 2026 14:54:58 GMT-0400 (Eastern Daylight Time),773794.7999997139,178_m_m_n_a.png,I,m,1918,4,1,2940.5999999046326,770854.1999998093,9078,NNB,B,2
3,test,3,1.0,2-Back,1.0,z,Fri Apr 17 2026 14:54:58 GMT-0400 (Eastern Daylight Time),775861.5999999046,110_o_f_n_a.png,I,z,1049,5,1,2057.699999809265,773803.9000000954,9078,NNB,B,3
3,test,3,0.0,2-Back,0.0,m,Fri Apr 17 2026 14:54:58 GMT-0400 (Eastern Daylight Time),778894.9000000954,013_y_m_n_a.png,I,None,2016,6,1,3025.7000002861023,775869.1999998093,9078,NNB,B,4
3,test,3,0.0,2-Back,0.0,m,Fri Apr 17 2026 14:54:58 GMT-0400 (Eastern Daylight Time),780961.5999999046,178_m_m_n_a.png,I,z,1037,7,1,2059.0999999046326,778902.5,9078,NNB,B,5
3,test,3,1.0,2-Back,0.0,z,Fri Apr 17 2026 14:54:58 GMT-0400 (Eastern Daylight Time),783995.0,013_y_m_n_a.png,I,None,2016,8,1,3024.0999999046326,780970.9000000954,9078,NNB,B,6
4,test,3,0.0,2-Back,1.0,m,Fri Apr 17 2026 14:54:58 GMT-0400 (Eastern Daylight Time),786928.2999997139,173_y_f_n_a.png,I,m,1904,9,1,2924.5,784003.7999997139,9078,NNB,B,7
5,test,3,0.0,2-Back,1.0,m,Fri Apr 17 2026 14:54:58 GMT-0400 (Eastern Daylight Time),788828.1999998093,126_m_m_n_a.png,I,m,876,10,1,1888.1999998092651,786940.0,9078,NNB,B,8
6,test,3,1.0,2-Back,1.0,z,Fri Apr 17 2026 14:54:58 GMT-0400 (Eastern Daylight Time),790828.1999998093,173_y_f_n_a.png,I,z,976,11,1,1990.0,788838.1999998093,9078,NNB,B,9
6,test,3,1.0,2-Back,0.0,z,Fri Apr 17 2026 14:54:58 GMT-0400 (Eastern Daylight Time),793428.1999998093,126_m_m_n_a.png,I,m,1568,12,1,2592.2999997138977,790835.9000000954,9078,NNB,B,10
7,test,3,0.0,2-Back,1.0,m,Fri Apr 17 2026 14:54:58 GMT-0400 (Eastern Daylight Time),795561.5,110_o_f_n_a.png,I,m,1111,13,1,2123.5999999046326,793437.9000000954,9078,NNB,B,11
8,test,3,0.0,2-Back,1.0,m,Fri Apr 17 2026 14:54:58 GMT-0400 (Eastern Daylight Time),797611.5999999046,097_m_f_n_a.png,I,m,1026,14,1,2042.5999999046326,795569.0,9078,NNB,B,12
9,test,3,0.0,2-Back,1.0,m,Fri Apr 17 2026 14:54:58 GMT-0400 (Eastern Daylight Time),799611.5,065_o_m_n_a.png,I,m,976,15,1,1991.5999999046326,797619.9000000954,9078,NNB,B,13
10,test,3,1.0,2-Back,1.0,z,Fri Apr 17 2026 14:54:58 GMT-0400 (Eastern Daylight Time),801828.2999997139,097_m_f_n_a.png,I,z,1183,16,1,2209.699999809265,799618.5999999046,9078,NNB,B,14
11,test,3,0.0,2-Back,1.0,m,Fri Apr 17 2026 14:54:58 GMT-0400 (Eastern Daylight Time),803978.0999999046,086_o_f_n_a.png,I,m,1127,17,1,2141.9000000953674,801836.1999998093,9078,NNB,B,15
11,test,3,0.0,2-Back,0.0,m,Fri Apr 17 2026 14:54:58 GMT-0400 (Eastern Daylight Time),807011.5999999046,086_o_f_n_a.png,I,None,2015,18,1,3025.300000190735,803986.2999997139,9078,NNB,B,16
0,test,4,0.0,2-Back,,,Fri Apr 17 2026 14:54:58 GMT-0400 (Eastern Daylight Time),807011.5999999046,176_o_m_n_a.png,I,space,2224,1,1,3025.300000190735,803986.2999997139,9078,NNB,B,0
0,test,4,0.0,2-Back,,,Fri Apr 17 2026 14:54:58 GMT-0400 (Eastern Daylight Time),807011.5999999046,152_y_f_n_a.png,I,space,2224,2,1,3025.300000190735,803986.2999997139,9078,NNB,B,0
1,test,4,1.0,2-Back,1.0,z,Fri Apr 17 2026 14:54:58 GMT-0400 (Eastern Daylight Time),816861.5,176_o_m_n_a.png,I,z,1307,3,1,2325.0,814536.5,9078,NNB,B,1
2,test,4,1.0,2-Back,1.0,z,Fri Apr 17 2026 14:54:58 GMT-0400 (Eastern Daylight Time),819561.5,152_y_f_n_a.png,I,z,1678,4,1,2690.5,816871.0,9078,NNB,B,2
3,test,4,0.0,2-Back,1.0,m,Fri Apr 17 2026 14:54:58 GMT-0400 (Eastern Daylight Time),821461.5999999046,110_o_f_n_a.png,I,m,882,5,1,1890.8000001907349,819570.7999997139,9078,NNB,B,3
3,test,4,0.0,2-Back,0.0,m,Fri Apr 17 2026 14:54:58 GMT-0400 (Eastern Daylight Time),824494.9000000954,110_o_f_n_a.png,I,None,2016,6,1,3026.300000190735,821468.5999999046,9078,NNB,B,4
4,test,4,0.0,2-Back,1.0,m,Fri Apr 17 2026 14:54:58 GMT-0400 (Eastern Daylight Time),826761.4000000954,029_m_f_n_a.png,I,m,1244,7,1,2258.800000190735,824502.5999999046,9078,NNB,B,5
5,test,4,0.0,2-Back,1.0,m,Fri Apr 17 2026 14:54:58 GMT-0400 (Eastern Daylight Time),828944.7999997139,013_y_m_n_a.png,I,m,1154,8,1,2174.5,826770.2999997139,9078,NNB,B,6
6,test,4,1.0,2-Back,1.0,z,Fri Apr 17 2026 14:54:58 GMT-0400 (Eastern Daylight Time),831011.5,029_m_f_n_a.png,I,z,1034,9,1,2057.300000190735,828954.1999998093,9078,NNB,B,7
7,test,4,0.0,2-Back,1.0,m,Fri Apr 17 2026 14:54:58 GMT-0400 (Eastern Daylight Time),833394.7999997139,126_m_m_n_a.png,I,m,1352,10,1,2374.0999999046326,831020.6999998093,9078,NNB,B,8
7,test,4,0.0,2-Back,0.0,m,Fri Apr 17 2026 14:54:58 GMT-0400 (Eastern Daylight Time),835528.0,013_y_m_n_a.png,I,z,1113,11,1,2124.9000000953674,833403.0999999046,9078,NNB,B,9
8,test,4,0.0,2-Back,1.0,m,Fri Apr 17 2026 14:54:58 GMT-0400 (Eastern Daylight Time),837611.5,086_o_f_n_a.png,I,m,1058,12,1,2075.0,835536.5,9078,NNB,B,10
9,test,4,0.0,2-Back,1.0,m,Fri Apr 17 2026 14:54:58 GMT-0400 (Eastern Daylight Time),839761.4000000954,153_y_m_n_a.png,I,m,1120,13,1,2142.9000000953674,837618.5,9078,NNB,B,11
10,test,4,1.0,2-Back,1.0,z,Fri Apr 17 2026 14:54:58 GMT-0400 (Eastern Daylight Time),841644.7999997139,086_o_f_n_a.png,I,z,858,14,1,1874.7999997138977,839770.0,9078,NNB,B,12
11,test,4,1.0,2-Back,1.0,z,Fri Apr 17 2026 14:54:58 GMT-0400 (Eastern Daylight Time),844528.0999999046,153_y_m_n_a.png,I,z,1855,15,1,2872.5999999046326,841655.5,9078,NNB,B,13
12,test,4,0.0,2-Back,1.0,m,Fri Apr 17 2026 14:54:58 GMT-0400 (Eastern Daylight Time),846628.1999998093,178_m_m_n_a.png,I,m,1068,16,1,2091.0999999046326,844537.0999999046,9078,NNB,B,14
13,test,4,0.0,2-Back,1.0,m,Fri Apr 17 2026 14:54:58 GMT-0400 (Eastern Daylight Time),848711.2999997139,097_m_f_n_a.png,I,m,1064,17,1,2074.8999996185303,846636.4000000954,9078,NNB,B,15
14,test,4,1.0,2-Back,1.0,z,Fri Apr 17 2026 14:54:58 GMT-0400 (Eastern Daylight Time),850611.5,178_m_m_n_a.png,I,z,868,18,1,1892.5,848719.0,9078,NNB,B,16
0,test,5,1.0,2-Back,,,Fri Apr 17 2026 14:54:58 GMT-0400 (Eastern Daylight Time),850611.5,153_y_m_n_a.png,I,space,1408,1,1,1892.5,848719.0,9078,NNB,B,0
0,test,5,1.0,2-Back,,,Fri Apr 17 2026 14:54:58 GMT-0400 (Eastern Daylight Time),850611.5,097_m_f_n_a.png,I,space,1408,2,1,1892.5,848719.0,9078,NNB,B,0
1,test,5,1.0,2-Back,1.0,z,Fri Apr 17 2026 14:54:58 GMT-0400 (Eastern Daylight Time),859861.4000000954,153_y_m_n_a.png,I,z,1749,3,1,2775.7000002861023,857085.6999998093,9078,NNB,B,1
2,test,5,1.0,2-Back,1.0,z,Fri Apr 17 2026 14:54:58 GMT-0400 (Eastern Daylight Time),862728.0,097_m_f_n_a.png,I,z,1846,4,1,2858.300000190735,859869.6999998093,9078,NNB,B,2
3,test,5,0.0,2-Back,1.0,m,Fri Apr 17 2026 14:54:58 GMT-0400 (Eastern Daylight Time),864828.1999998093,086_o_f_n_a.png,I,m,1076,5,1,2092.699999809265,862735.5,9078,NNB,B,3
3,test,5,0.0,2-Back,0.0,m,Fri Apr 17 2026 14:54:58 GMT-0400 (Eastern Daylight Time),867861.5,153_y_m_n_a.png,I,None,2016,6,1,3024.800000190735,864836.6999998093,9078,NNB,B,4
4,test,5,0.0,2-Back,1.0,m,Fri Apr 17 2026 14:54:58 GMT-0400 (Eastern Daylight Time),870211.5,173_y_f_n_a.png,I,m,1319,7,1,2338.2000002861023,867873.2999997139,9078,NNB,B,5
4,test,5,0.0,2-Back,0.0,m,Fri Apr 17 2026 14:54:58 GMT-0400 (Eastern Daylight Time),872311.2999997139,086_o_f_n_a.png,I,z,1080,8,1,2089.2999997138977,870222.0,9078,NNB,B,6
4,test,5,1.0,2-Back,0.0,z,Fri Apr 17 2026 14:54:58 GMT-0400 (Eastern Daylight Time),875344.9000000954,173_y_f_n_a.png,I,None,2016,9,1,3024.0,872320.9000000954,9078,NNB,B,7
5,test,5,0.0,2-Back,1.0,m,Fri Apr 17 2026 14:54:58 GMT-0400 (Eastern Daylight Time),877678.5999999046,065_o_m_n_a.png,I,m,1289,10,1,2326.0,875352.5999999046,9078,NNB,B,8
6,test,5,0.0,2-Back,1.0,m,Fri Apr 17 2026 14:54:58 GMT-0400 (Eastern Daylight Time),879794.7999997139,029_m_f_n_a.png,I,m,1085,11,1,2111.699999809265,877683.0999999046,9078,NNB,B,9
7,test,5,0.0,2-Back,1.0,m,Fri Apr 17 2026 14:54:58 GMT-0400 (Eastern Daylight Time),882428.0,126_m_m_n_a.png,I,m,1609,12,1,2623.9000000953674,879804.0999999046,9078,NNB,B,10
7,test,5,0.0,2-Back,0.0,m,Fri Apr 17 2026 14:54:58 GMT-0400 (Eastern Daylight Time),884544.7999997139,065_o_m_n_a.png,I,z,1088,13,1,2108.0999999046326,882436.6999998093,9078,NNB,B,11
7,test,5,1.0,2-Back,0.0,z,Fri Apr 17 2026 14:54:58 GMT-0400 (Eastern Daylight Time),887578.1999998093,126_m_m_n_a.png,I,None,2017,14,1,3025.4000000953674,884552.7999997139,9078,NNB,B,12
8,test,5,0.0,2-Back,1.0,m,Fri Apr 17 2026 14:54:58 GMT-0400 (Eastern Daylight Time),890178.0,152_y_f_n_a.png,I,m,1569,15,1,2590.9000000953674,887587.0999999046,9078,NNB,B,13
9,test,5,0.0,2-Back,1.0,m,Fri Apr 17 2026 14:54:58 GMT-0400 (Eastern Daylight Time),892378.0,176_o_m_n_a.png,I,m,1177,16,1,2189.800000190735,890188.1999998093,9078,NNB,B,14
10,test,5,0.0,2-Back,1.0,m,Fri Apr 17 2026 14:54:58 GMT-0400 (Eastern Daylight Time),894461.2999997139,029_m_f_n_a.png,I,m,1058,17,1,2076.2999997138977,892385.0,9078,NNB,B,15
11,test,5,1.0,2-Back,1.0,z,Fri Apr 17 2026 14:54:58 GMT-0400 (Eastern Daylight Time),896927.9000000954,176_o_m_n_a.png,I,z,1438,18,1,2457.2000002861023,894470.6999998093,9078,NNB,B,16
