Number,acc_sum,block,block_c,block_cond,con_img,correct,correct_response,datetime,endtime,jitter,project,response,response_time,row_sel,session_number,start_end,starttime,subject_id,task,task_vers,trial
6,1,prac,1,A,circle.png,1,m,Wed Jul 16 2025 09:59:27 GMT-0400 (Eastern Daylight Time),68721.39999997616,1900,I,m,1207,5,3,3889.0999999046326,64832.300000071526,9005,NTS,B,1
8,2,prac,1,A,circle.png,1,m,Wed Jul 16 2025 09:59:27 GMT-0400 (Eastern Daylight Time),71704.39999997616,1600,I,m,585,7,3,2970.5,68733.89999997616,9005,NTS,B,2
1,3,prac,1,A,circle.png,1,z,Wed Jul 16 2025 09:59:27 GMT-0400 (Eastern Daylight Time),74454.5,1000,I,z,955,1,3,2738.899999976158,71715.60000002384,9005,NTS,B,3
7,4,prac,1,A,circle.png,1,m,Wed Jul 16 2025 09:59:27 GMT-0400 (Eastern Daylight Time),77554.60000002384,1700,I,m,608,6,3,3088.0,74466.60000002384,9005,NTS,B,4
9,5,prac,1,A,circle.png,1,m,Wed Jul 16 2025 09:59:27 GMT-0400 (Eastern Daylight Time),80637.70000004768,1500,I,m,780,8,3,3061.8000000715256,77575.89999997616,9005,NTS,B,5
2,6,prac,1,A,circle.png,1,z,Wed Jul 16 2025 09:59:27 GMT-0400 (Eastern Daylight Time),84121.0,2000,I,z,686,2,3,3469.2999999523163,80651.70000004768,9005,NTS,B,6
1,7,prac,1,A,circle.png,1,z,Wed Jul 16 2025 09:59:27 GMT-0400 (Eastern Daylight Time),86571.20000004768,1000,I,z,633,1,3,2432.600000023842,84138.60000002384,9005,NTS,B,7
2,8,prac,1,A,circle.png,1,z,Wed Jul 16 2025 09:59:27 GMT-0400 (Eastern Daylight Time),90171.0,2000,I,z,802,2,3,3589.5,86581.5,9005,NTS,B,8
3,9,prac,1,A,circle.png,1,z,Wed Jul 16 2025 09:59:27 GMT-0400 (Eastern Daylight Time),92954.5,1200,I,z,784,3,3,2773.1999999284744,90181.30000007153,9005,NTS,B,9
4,10,prac,1,A,circle.png,1,z,Wed Jul 16 2025 09:59:27 GMT-0400 (Eastern Daylight Time),96237.70000004768,1400,I,z,1099,4,3,3270.2000000476837,92967.5,9005,NTS,B,10
6,11,prac,1,A,circle.png,1,m,Wed Jul 16 2025 09:59:27 GMT-0400 (Eastern Daylight Time),99654.5,1900,I,m,721,5,3,3404.6999999284744,96249.80000007153,9005,NTS,B,11
9,12,prac,1,A,circle.png,1,m,Wed Jul 16 2025 09:59:27 GMT-0400 (Eastern Daylight Time),102687.20000004768,1500,I,m,745,8,3,3022.8000000715256,99664.39999997616,9005,NTS,B,12
6,0,prac,1,B,triangle.png,0,m,Wed Jul 16 2025 09:59:27 GMT-0400 (Eastern Daylight Time),142837.89999997616,1000,I,z,1290,5,3,3073.6999999284744,139764.20000004768,9005,NTS,B,1
2,1,prac,1,B,triangle.png,1,m,Wed Jul 16 2025 09:59:27 GMT-0400 (Eastern Daylight Time),146204.30000007153,1700,I,m,849,2,3,3343.5,142860.80000007153,9005,NTS,B,2
9,2,prac,1,B,triangle.png,1,z,Wed Jul 16 2025 09:59:27 GMT-0400 (Eastern Daylight Time),149437.70000004768,1400,I,z,1048,8,3,3223.899999976158,146213.80000007153,9005,NTS,B,3
4,3,prac,1,B,triangle.png,1,m,Wed Jul 16 2025 09:59:27 GMT-0400 (Eastern Daylight Time),152687.80000007153,1500,I,m,963,4,3,3238.0,149449.80000007153,9005,NTS,B,4
4,4,prac,1,B,triangle.png,1,m,Wed Jul 16 2025 09:59:27 GMT-0400 (Eastern Daylight Time),155737.80000007153,1500,I,m,752,4,3,3036.7000000476837,152701.10000002384,9005,NTS,B,5
3,5,prac,1,B,triangle.png,1,z,Wed Jul 16 2025 09:59:27 GMT-0400 (Eastern Daylight Time),158854.5,1600,I,z,722,3,3,3105.5,155749.0,9005,NTS,B,6
1,6,prac,1,B,triangle.png,1,z,Wed Jul 16 2025 09:59:27 GMT-0400 (Eastern Daylight Time),162187.89999997616,1900,I,z,633,1,3,3322.7999999523163,158865.10000002384,9005,NTS,B,7
8,7,prac,1,B,triangle.png,1,m,Wed Jul 16 2025 09:59:27 GMT-0400 (Eastern Daylight Time),165054.39999997616,1200,I,m,881,7,3,2854.2999999523163,162200.10000002384,9005,NTS,B,8
7,8,prac,1,B,triangle.png,1,z,Wed Jul 16 2025 09:59:27 GMT-0400 (Eastern Daylight Time),168554.39999997616,2000,I,z,701,6,3,3489.399999976158,165065.0,9005,NTS,B,9
2,9,prac,1,B,triangle.png,1,m,Wed Jul 16 2025 09:59:27 GMT-0400 (Eastern Daylight Time),172104.5,1700,I,m,1054,2,3,3538.0,168566.5,9005,NTS,B,10
1,10,prac,1,B,triangle.png,1,z,Wed Jul 16 2025 09:59:27 GMT-0400 (Eastern Daylight Time),175587.80000007153,1900,I,z,792,1,3,3472.3000000715256,172115.5,9005,NTS,B,11
9,10,prac,1,B,triangle.png,0,z,Wed Jul 16 2025 09:59:27 GMT-0400 (Eastern Daylight Time),178487.70000004768,1400,I,m,704,8,3,2888.899999976158,175598.80000007153,9005,NTS,B,12
4,1,test,1,A,circle.png,1,z,Wed Jul 16 2025 09:59:27 GMT-0400 (Eastern Daylight Time),202187.89999997616,1400,I,z,783,4,3,2207.399999976158,199980.5,9005,NTS,B,1
1,2,test,1,A,circle.png,1,z,Wed Jul 16 2025 09:59:27 GMT-0400 (Eastern Daylight Time),203804.39999997616,1000,I,z,583,1,3,1606.0,202198.39999997616,9005,NTS,B,2
6,3,test,1,A,circle.png,1,m,Wed Jul 16 2025 09:59:27 GMT-0400 (Eastern Daylight Time),206387.70000004768,1900,I,m,659,5,3,2574.7000000476837,203813.0,9005,NTS,B,3
4,3,test,1,A,circle.png,0,z,Wed Jul 16 2025 09:59:27 GMT-0400 (Eastern Daylight Time),208571.10000002384,1400,I,m,752,4,3,2173.2999999523163,206397.80000007153,9005,NTS,B,4
7,4,test,1,A,circle.png,1,m,Wed Jul 16 2025 09:59:27 GMT-0400 (Eastern Daylight Time),211055.0,1700,I,m,763,6,3,2475.899999976158,208579.10000002384,9005,NTS,B,5
3,5,test,1,A,circle.png,1,z,Wed Jul 16 2025 09:59:27 GMT-0400 (Eastern Daylight Time),212954.89999997616,1200,I,z,668,3,3,1893.0,211061.89999997616,9005,NTS,B,6
7,6,test,1,A,circle.png,1,m,Wed Jul 16 2025 09:59:27 GMT-0400 (Eastern Daylight Time),215438.80000007153,1700,I,m,766,6,3,2477.4000000953674,212961.39999997616,9005,NTS,B,7
2,7,test,1,A,circle.png,1,z,Wed Jul 16 2025 09:59:27 GMT-0400 (Eastern Daylight Time),218104.10000002384,2000,I,z,638,2,3,2657.7999999523163,215446.30000007153,9005,NTS,B,8
4,8,test,1,A,circle.png,1,z,Wed Jul 16 2025 09:59:27 GMT-0400 (Eastern Daylight Time),220537.70000004768,1400,I,z,1002,4,3,2426.0,218111.70000004768,9005,NTS,B,9
6,9,test,1,A,circle.png,1,m,Wed Jul 16 2025 09:59:27 GMT-0400 (Eastern Daylight Time),223271.10000002384,1900,I,m,806,5,3,2725.5,220545.60000002384,9005,NTS,B,10
1,10,test,1,A,circle.png,1,z,Wed Jul 16 2025 09:59:27 GMT-0400 (Eastern Daylight Time),225237.60000002384,1000,I,z,939,1,3,1957.1000000238419,223280.5,9005,NTS,B,11
6,11,test,1,A,circle.png,1,m,Wed Jul 16 2025 09:59:27 GMT-0400 (Eastern Daylight Time),228204.39999997616,1900,I,m,1034,5,3,2956.5,225247.89999997616,9005,NTS,B,12
1,12,test,1,A,circle.png,1,z,Wed Jul 16 2025 09:59:27 GMT-0400 (Eastern Daylight Time),229954.39999997616,1000,I,z,727,1,3,1736.5,228217.89999997616,9005,NTS,B,13
9,13,test,1,A,circle.png,1,m,Wed Jul 16 2025 09:59:27 GMT-0400 (Eastern Daylight Time),232404.39999997616,1500,I,m,925,8,3,2441.5999999046326,229962.80000007153,9005,NTS,B,14
8,14,test,1,A,circle.png,1,m,Wed Jul 16 2025 09:59:27 GMT-0400 (Eastern Daylight Time),234804.5,1600,I,m,775,7,3,2392.2999999523163,232412.20000004768,9005,NTS,B,15
3,15,test,1,A,circle.png,1,z,Wed Jul 16 2025 09:59:27 GMT-0400 (Eastern Daylight Time),236721.0,1200,I,z,696,3,3,1904.7999999523163,234816.20000004768,9005,NTS,B,16
3,16,test,1,A,circle.png,1,z,Wed Jul 16 2025 09:59:27 GMT-0400 (Eastern Daylight Time),238638.5,1200,I,z,700,3,3,1907.8999999761581,236730.60000002384,9005,NTS,B,17
1,17,test,1,A,circle.png,1,z,Wed Jul 16 2025 09:59:27 GMT-0400 (Eastern Daylight Time),240421.10000002384,1000,I,z,758,1,3,1769.7999999523163,238651.30000007153,9005,NTS,B,18
2,18,test,1,A,circle.png,1,z,Wed Jul 16 2025 09:59:27 GMT-0400 (Eastern Daylight Time),243104.30000007153,2000,I,z,663,2,3,2675.100000023842,240429.20000004768,9005,NTS,B,19
9,19,test,1,A,circle.png,1,m,Wed Jul 16 2025 09:59:27 GMT-0400 (Eastern Daylight Time),245354.39999997616,1500,I,m,701,8,3,2235.0999999046326,243119.30000007153,9005,NTS,B,20
8,20,test,1,A,circle.png,1,m,Wed Jul 16 2025 09:59:27 GMT-0400 (Eastern Daylight Time),247771.0,1600,I,m,785,7,3,2402.2999999523163,245368.70000004768,9005,NTS,B,21
7,21,test,1,A,circle.png,1,m,Wed Jul 16 2025 09:59:27 GMT-0400 (Eastern Daylight Time),250304.20000004768,1700,I,m,812,6,3,2521.8000000715256,247782.39999997616,9005,NTS,B,22
3,22,test,1,A,circle.png,1,z,Wed Jul 16 2025 09:59:27 GMT-0400 (Eastern Daylight Time),252270.89999997616,1200,I,z,747,3,3,1954.5,250316.39999997616,9005,NTS,B,23
9,23,test,1,A,circle.png,1,m,Wed Jul 16 2025 09:59:27 GMT-0400 (Eastern Daylight Time),254587.39999997616,1500,I,m,782,8,3,2308.899999976158,252278.5,9005,NTS,B,24
2,1,test,1,B,triangle.png,1,m,Wed Jul 16 2025 09:59:27 GMT-0400 (Eastern Daylight Time),274887.8000000715,1200,I,m,1023,10,3,2242.8000000715256,272645.0,9005,NTS,B,1
8,2,test,1,B,triangle.png,1,m,Wed Jul 16 2025 09:59:27 GMT-0400 (Eastern Daylight Time),276837.8000000715,1200,I,m,725,7,3,1938.1000000238419,274899.7000000477,9005,NTS,B,2
9,3,test,1,B,triangle.png,1,z,Wed Jul 16 2025 09:59:27 GMT-0400 (Eastern Daylight Time),278970.89999997616,1400,I,z,702,8,3,2124.2999999523163,276846.60000002384,9005,NTS,B,3
1,4,test,1,B,triangle.png,1,z,Wed Jul 16 2025 09:59:27 GMT-0400 (Eastern Daylight Time),281504.2000000477,1900,I,z,614,1,3,2526.3000000715256,278977.89999997616,9005,NTS,B,4
6,5,test,1,B,triangle.png,1,m,Wed Jul 16 2025 09:59:27 GMT-0400 (Eastern Daylight Time),283671.10000002384,1500,I,m,640,13,3,2153.5,281517.60000002384,9005,NTS,B,5
7,6,test,1,B,triangle.png,1,z,Wed Jul 16 2025 09:59:27 GMT-0400 (Eastern Daylight Time),286587.60000002384,2000,I,z,885,6,3,2907.5,283680.10000002384,9005,NTS,B,6
7,7,test,1,B,triangle.png,1,z,Wed Jul 16 2025 09:59:27 GMT-0400 (Eastern Daylight Time),289304.5,1600,I,z,1089,14,3,2711.1999999284744,286593.3000000715,9005,NTS,B,7
2,8,test,1,B,triangle.png,1,m,Wed Jul 16 2025 09:59:27 GMT-0400 (Eastern Daylight Time),291254.39999997616,1200,I,m,725,10,3,1941.0,289313.39999997616,9005,NTS,B,8
7,9,test,1,B,triangle.png,1,z,Wed Jul 16 2025 09:59:27 GMT-0400 (Eastern Daylight Time),293604.2000000477,1600,I,z,726,14,3,2340.100000023842,291264.10000002384,9005,NTS,B,9
8,10,test,1,B,triangle.png,1,m,Wed Jul 16 2025 09:59:27 GMT-0400 (Eastern Daylight Time),296204.39999997616,1700,I,m,869,15,3,2586.0,293618.39999997616,9005,NTS,B,10
3,11,test,1,B,triangle.png,1,z,Wed Jul 16 2025 09:59:27 GMT-0400 (Eastern Daylight Time),298854.0,2000,I,z,624,11,3,2642.899999976158,296211.10000002384,9005,NTS,B,11
1,12,test,1,B,triangle.png,1,z,Wed Jul 16 2025 09:59:27 GMT-0400 (Eastern Daylight Time),300854.3000000715,1400,I,z,574,9,3,1994.4000000953674,298859.89999997616,9005,NTS,B,12
4,13,test,1,B,triangle.png,1,m,Wed Jul 16 2025 09:59:27 GMT-0400 (Eastern Daylight Time),303170.8000000715,1500,I,m,794,4,3,2302.4000000953674,300868.39999997616,9005,NTS,B,13
2,14,test,1,B,triangle.png,1,m,Wed Jul 16 2025 09:59:27 GMT-0400 (Eastern Daylight Time),306037.89999997616,1700,I,m,1142,2,3,2862.1999999284744,303175.7000000477,9005,NTS,B,14
9,15,test,1,B,triangle.png,1,z,Wed Jul 16 2025 09:59:27 GMT-0400 (Eastern Daylight Time),308804.39999997616,1900,I,z,843,16,3,2758.2999999523163,306046.10000002384,9005,NTS,B,15
9,16,test,1,B,triangle.png,1,z,Wed Jul 16 2025 09:59:27 GMT-0400 (Eastern Daylight Time),311487.60000002384,1900,I,z,764,16,3,2673.2000000476837,308814.39999997616,9005,NTS,B,16
4,17,test,1,B,triangle.png,1,m,Wed Jul 16 2025 09:59:27 GMT-0400 (Eastern Daylight Time),313438.60000002384,1000,I,m,933,12,3,1943.2000000476837,311495.39999997616,9005,NTS,B,17
4,18,test,1,B,triangle.png,1,m,Wed Jul 16 2025 09:59:27 GMT-0400 (Eastern Daylight Time),315754.2000000477,1500,I,m,787,4,3,2307.2000000476837,313447.0,9005,NTS,B,18
1,19,test,1,B,triangle.png,1,z,Wed Jul 16 2025 09:59:27 GMT-0400 (Eastern Daylight Time),318137.7000000477,1400,I,z,954,9,3,2370.5,315767.2000000477,9005,NTS,B,19
6,20,test,1,B,triangle.png,1,m,Wed Jul 16 2025 09:59:27 GMT-0400 (Eastern Daylight Time),320187.8000000715,1000,I,m,1019,5,3,2035.8000000715256,318152.0,9005,NTS,B,20
9,21,test,1,B,triangle.png,1,z,Wed Jul 16 2025 09:59:27 GMT-0400 (Eastern Daylight Time),322487.89999997616,1400,I,z,874,8,3,2290.899999976158,320197.0,9005,NTS,B,21
3,22,test,1,B,triangle.png,1,z,Wed Jul 16 2025 09:59:27 GMT-0400 (Eastern Daylight Time),324921.2000000477,1600,I,z,805,3,3,2424.100000023842,322497.10000002384,9005,NTS,B,22
6,23,test,1,B,triangle.png,1,m,Wed Jul 16 2025 09:59:27 GMT-0400 (Eastern Daylight Time),327204.3000000715,1500,I,m,742,13,3,2268.4000000953674,324935.89999997616,9005,NTS,B,23
3,24,test,1,B,triangle.png,1,z,Wed Jul 16 2025 09:59:27 GMT-0400 (Eastern Daylight Time),329537.60000002384,1600,I,z,712,3,3,2326.0,327211.60000002384,9005,NTS,B,24
6,1,prac,1,C,circle.png,1,m,Wed Jul 16 2025 09:59:27 GMT-0400 (Eastern Daylight Time),364188.0,2000,I,m,851,5,3,3643.6999999284744,360544.3000000715,9005,NTS,B,1
1,2,prac,1,C,circle.png,1,z,Wed Jul 16 2025 09:59:27 GMT-0400 (Eastern Daylight Time),367488.0,1700,I,z,813,1,3,3291.600000023842,364196.39999997616,9005,NTS,B,2
9,3,prac,1,C,circle.png,1,m,Wed Jul 16 2025 09:59:27 GMT-0400 (Eastern Daylight Time),371504.60000002384,1900,I,m,1329,8,3,4005.600000023842,367499.0,9005,NTS,B,3
9,4,prac,1,C,circle.png,1,m,Wed Jul 16 2025 09:59:27 GMT-0400 (Eastern Daylight Time),374988.0,1900,I,m,784,8,3,3472.1999999284744,371515.8000000715,9005,NTS,B,4
2,4,prac,1,C,triangle.png,0,m,Wed Jul 16 2025 09:59:27 GMT-0400 (Eastern Daylight Time),378771.3000000715,1600,I,z,1392,2,3,3772.4000000953674,374998.89999997616,9005,NTS,B,5
6,5,prac,1,C,circle.png,1,m,Wed Jul 16 2025 09:59:27 GMT-0400 (Eastern Daylight Time),382621.3000000715,2000,I,m,1033,5,3,3829.9000000953674,378791.39999997616,9005,NTS,B,6
7,6,prac,1,C,triangle.png,1,z,Wed Jul 16 2025 09:59:27 GMT-0400 (Eastern Daylight Time),385804.60000002384,1200,I,z,1200,6,3,3173.2000000476837,382631.39999997616,9005,NTS,B,7
4,6,prac,1,C,circle.png,0,z,Wed Jul 16 2025 09:59:27 GMT-0400 (Eastern Daylight Time),389104.5,1000,I,None,1517,4,3,3285.600000023842,385818.89999997616,9005,NTS,B,8
3,7,prac,1,C,triangle.png,1,z,Wed Jul 16 2025 09:59:27 GMT-0400 (Eastern Daylight Time),392504.60000002384,1500,I,z,1104,3,3,3386.899999976158,389117.7000000477,9005,NTS,B,9
8,8,prac,1,C,triangle.png,1,m,Wed Jul 16 2025 09:59:27 GMT-0400 (Eastern Daylight Time),395787.89999997616,1400,I,m,1084,7,3,3272.6999999284744,392515.2000000477,9005,NTS,B,10
2,9,prac,1,C,triangle.png,1,m,Wed Jul 16 2025 09:59:27 GMT-0400 (Eastern Daylight Time),399121.10000002384,1600,I,m,945,2,3,3322.2999999523163,395798.8000000715,9005,NTS,B,11
4,10,prac,1,C,circle.png,1,z,Wed Jul 16 2025 09:59:27 GMT-0400 (Eastern Daylight Time),402121.2000000477,1000,I,z,1203,4,3,2989.0,399132.2000000477,9005,NTS,B,12
4,1,test,1,C,circle.png,1,z,Wed Jul 16 2025 09:59:27 GMT-0400 (Eastern Daylight Time),426620.60000002384,1400,I,z,1134,4,3,2562.2000000476837,424058.39999997616,9005,NTS,B,1
9,2,test,1,C,circle.png,1,m,Wed Jul 16 2025 09:59:27 GMT-0400 (Eastern Daylight Time),429137.3000000715,1500,I,m,995,8,3,2511.3000000715256,426626.0,9005,NTS,B,2
8,3,test,1,C,circle.png,1,m,Wed Jul 16 2025 09:59:27 GMT-0400 (Eastern Daylight Time),431254.3000000715,1200,I,m,890,15,3,2110.3000000715256,429144.0,9005,NTS,B,3
7,4,test,1,C,circle.png,1,m,Wed Jul 16 2025 09:59:27 GMT-0400 (Eastern Daylight Time),434421.2000000477,2000,I,m,1141,14,3,3160.8000000715256,431260.39999997616,9005,NTS,B,4
3,4,test,1,C,triangle.png,0,z,Wed Jul 16 2025 09:59:27 GMT-0400 (Eastern Daylight Time),437154.7000000477,1200,I,None,1501,3,3,2718.7000000476837,434436.0,9005,NTS,B,5
7,5,test,1,C,triangle.png,1,z,Wed Jul 16 2025 09:59:27 GMT-0400 (Eastern Daylight Time),439904.39999997616,1700,I,z,1030,22,3,2741.6999999284744,437162.7000000477,9005,NTS,B,6
9,6,test,1,C,triangle.png,1,z,Wed Jul 16 2025 09:59:27 GMT-0400 (Eastern Daylight Time),442171.39999997616,1400,I,z,836,16,3,2259.0,439912.39999997616,9005,NTS,B,7
2,7,test,1,C,circle.png,1,z,Wed Jul 16 2025 09:59:27 GMT-0400 (Eastern Daylight Time),444921.0,1700,I,z,1021,18,3,2740.600000023842,442180.39999997616,9005,NTS,B,8
1,8,test,1,C,circle.png,1,z,Wed Jul 16 2025 09:59:27 GMT-0400 (Eastern Daylight Time),446637.89999997616,1000,I,z,683,1,3,1710.0999999046326,444927.8000000715,9005,NTS,B,9
3,9,test,1,C,circle.png,1,z,Wed Jul 16 2025 09:59:27 GMT-0400 (Eastern Daylight Time),449104.60000002384,1600,I,z,847,19,3,2459.0,446645.60000002384,9005,NTS,B,10
4,10,test,1,C,triangle.png,1,m,Wed Jul 16 2025 09:59:27 GMT-0400 (Eastern Daylight Time),451521.2000000477,1500,I,m,896,20,3,2403.0,449118.2000000477,9005,NTS,B,11
2,10,test,1,C,circle.png,0,z,Wed Jul 16 2025 09:59:27 GMT-0400 (Eastern Daylight Time),454754.7000000477,1700,I,None,1516,10,3,3224.3000000715256,451530.39999997616,9005,NTS,B,12
8,11,test,1,C,triangle.png,1,m,Wed Jul 16 2025 09:59:27 GMT-0400 (Eastern Daylight Time),457421.0,1600,I,m,1035,7,3,2657.7999999523163,454763.2000000477,9005,NTS,B,13
2,12,test,1,C,triangle.png,1,m,Wed Jul 16 2025 09:59:27 GMT-0400 (Eastern Daylight Time),460337.8000000715,2000,I,m,895,2,3,2907.600000023842,457430.2000000477,9005,NTS,B,14
7,13,test,1,C,triangle.png,1,z,Wed Jul 16 2025 09:59:27 GMT-0400 (Eastern Daylight Time),463204.60000002384,1700,I,z,1143,6,3,2858.399999976158,460346.2000000477,9005,NTS,B,15
6,14,test,1,C,circle.png,1,m,Wed Jul 16 2025 09:59:27 GMT-0400 (Eastern Daylight Time),466154.39999997616,1900,I,m,1020,21,3,2940.899999976158,463213.5,9005,NTS,B,16
1,15,test,1,C,triangle.png,1,z,Wed Jul 16 2025 09:59:27 GMT-0400 (Eastern Daylight Time),469288.0,1900,I,z,1206,9,3,3126.1999999284744,466161.8000000715,9005,NTS,B,17
9,16,test,1,C,circle.png,1,m,Wed Jul 16 2025 09:59:27 GMT-0400 (Eastern Daylight Time),471987.89999997616,1500,I,m,1177,24,3,2690.6999999284744,469297.2000000477,9005,NTS,B,18
3,17,test,1,C,circle.png,1,z,Wed Jul 16 2025 09:59:27 GMT-0400 (Eastern Daylight Time),474438.0,1600,I,z,825,11,3,2441.5,471996.5,9005,NTS,B,19
6,18,test,1,C,circle.png,1,m,Wed Jul 16 2025 09:59:27 GMT-0400 (Eastern Daylight Time),477404.7000000477,1900,I,m,1035,5,3,2958.3000000715256,474446.39999997616,9005,NTS,B,20
1,19,test,1,C,triangle.png,1,z,Wed Jul 16 2025 09:59:27 GMT-0400 (Eastern Daylight Time),480337.89999997616,1900,I,z,1012,17,3,2923.5999999046326,477414.3000000715,9005,NTS,B,21
4,20,test,1,C,triangle.png,1,m,Wed Jul 16 2025 09:59:27 GMT-0400 (Eastern Daylight Time),483022.10000002384,1500,I,m,1167,12,3,2676.100000023842,480346.0,9005,NTS,B,22
8,21,test,1,C,triangle.png,1,m,Wed Jul 16 2025 09:59:27 GMT-0400 (Eastern Daylight Time),485337.89999997616,1600,I,m,688,23,3,2308.5,483029.39999997616,9005,NTS,B,23
6,22,test,1,C,triangle.png,1,m,Wed Jul 16 2025 09:59:27 GMT-0400 (Eastern Daylight Time),487104.5,1000,I,m,747,13,3,1756.6999999284744,485347.8000000715,9005,NTS,B,24
9,0,test,2,C,triangle.png,0,z,Wed Jul 16 2025 09:59:27 GMT-0400 (Eastern Daylight Time),496304.89999997616,1400,I,None,1517,24,3,2925.899999976158,493379.0,9005,NTS,B,1
2,1,test,2,C,circle.png,1,z,Wed Jul 16 2025 09:59:27 GMT-0400 (Eastern Daylight Time),499320.89999997616,1700,I,z,1288,10,3,3007.2999999523163,496313.60000002384,9005,NTS,B,2
2,2,test,2,C,triangle.png,1,m,Wed Jul 16 2025 09:59:27 GMT-0400 (Eastern Daylight Time),502454.5,2000,I,m,1107,2,3,3128.2999999523163,499326.2000000477,9005,NTS,B,3
7,3,test,2,C,circle.png,1,m,Wed Jul 16 2025 09:59:27 GMT-0400 (Eastern Daylight Time),505637.89999997616,2000,I,m,1158,14,3,3171.5999999046326,502466.3000000715,9005,NTS,B,4
9,4,test,2,C,circle.png,1,m,Wed Jul 16 2025 09:59:27 GMT-0400 (Eastern Daylight Time),508071.10000002384,1500,I,m,905,8,3,2424.399999976158,505646.7000000477,9005,NTS,B,5
6,5,test,2,C,triangle.png,1,m,Wed Jul 16 2025 09:59:27 GMT-0400 (Eastern Daylight Time),510189.3000000715,1000,I,m,1084,21,3,2110.7000000476837,508078.60000002384,9005,NTS,B,6
7,5,test,2,C,circle.png,0,m,Wed Jul 16 2025 09:59:27 GMT-0400 (Eastern Daylight Time),513721.0,2000,I,None,1516,22,3,3525.899999976158,510195.10000002384,9005,NTS,B,7
1,6,test,2,C,triangle.png,1,z,Wed Jul 16 2025 09:59:27 GMT-0400 (Eastern Daylight Time),516587.89999997616,1900,I,z,936,9,3,2860.1999999284744,513727.7000000477,9005,NTS,B,8
1,7,test,2,C,circle.png,1,z,Wed Jul 16 2025 09:59:27 GMT-0400 (Eastern Daylight Time),518655.2000000477,1000,I,z,1049,1,3,2057.600000023842,516597.60000002384,9005,NTS,B,9
6,8,test,2,C,circle.png,1,m,Wed Jul 16 2025 09:59:27 GMT-0400 (Eastern Daylight Time),521587.89999997616,1900,I,m,1010,5,3,2924.0999999046326,518663.8000000715,9005,NTS,B,10
4,8,test,2,C,circle.png,0,z,Wed Jul 16 2025 09:59:27 GMT-0400 (Eastern Daylight Time),524521.2000000477,1400,I,None,1515,4,3,2924.5,521596.7000000477,9005,NTS,B,11
8,9,test,2,C,triangle.png,1,m,Wed Jul 16 2025 09:59:27 GMT-0400 (Eastern Daylight Time),527287.8999999762,1600,I,m,1140,7,3,2757.899999976158,524530.0,9005,NTS,B,12
9,10,test,2,C,triangle.png,1,z,Wed Jul 16 2025 09:59:27 GMT-0400 (Eastern Daylight Time),529804.6000000238,1400,I,z,1085,16,3,2502.100000023842,527302.5,9005,NTS,B,13
7,11,test,2,C,triangle.png,1,z,Wed Jul 16 2025 09:59:27 GMT-0400 (Eastern Daylight Time),532554.5,1700,I,z,1020,6,3,2739.100000023842,529815.3999999762,9005,NTS,B,14
3,12,test,2,C,circle.png,1,z,Wed Jul 16 2025 09:59:27 GMT-0400 (Eastern Daylight Time),535104.3999999762,1600,I,z,930,19,3,2536.6999999284744,532567.7000000477,9005,NTS,B,15
8,13,test,2,C,circle.png,1,m,Wed Jul 16 2025 09:59:27 GMT-0400 (Eastern Daylight Time),537188.0,1200,I,m,860,15,3,2070.899999976158,535117.1000000238,9005,NTS,B,16
1,14,test,2,C,triangle.png,1,z,Wed Jul 16 2025 09:59:27 GMT-0400 (Eastern Daylight Time),540288.8999999762,1900,I,z,1181,17,3,3089.5999999046326,537199.3000000715,9005,NTS,B,17
2,15,test,2,C,circle.png,1,z,Wed Jul 16 2025 09:59:27 GMT-0400 (Eastern Daylight Time),542937.8999999762,1700,I,z,904,18,3,2634.399999976158,540303.5,9005,NTS,B,18
4,16,test,2,C,triangle.png,1,m,Wed Jul 16 2025 09:59:27 GMT-0400 (Eastern Daylight Time),545454.0,1500,I,m,998,12,3,2508.2999999523163,542945.7000000477,9005,NTS,B,19
8,17,test,2,C,circle.png,1,m,Wed Jul 16 2025 09:59:27 GMT-0400 (Eastern Daylight Time),547604.7000000477,1200,I,m,926,23,3,2144.399999976158,545460.3000000715,9005,NTS,B,20
4,18,test,2,C,triangle.png,1,m,Wed Jul 16 2025 09:59:27 GMT-0400 (Eastern Daylight Time),550054.7000000477,1500,I,m,924,20,3,2441.0,547613.7000000477,9005,NTS,B,21
6,19,test,2,C,triangle.png,1,m,Wed Jul 16 2025 09:59:27 GMT-0400 (Eastern Daylight Time),552337.6000000238,1000,I,m,1261,13,3,2272.2000000476837,550065.3999999762,9005,NTS,B,22
3,20,test,2,C,circle.png,1,z,Wed Jul 16 2025 09:59:27 GMT-0400 (Eastern Daylight Time),554921.3999999762,1600,I,z,955,11,3,2577.899999976158,552343.5,9005,NTS,B,23
3,21,test,2,C,triangle.png,1,z,Wed Jul 16 2025 09:59:27 GMT-0400 (Eastern Daylight Time),557104.5,1200,I,z,963,3,3,2173.6999999284744,554930.8000000715,9005,NTS,B,24
3,1,test,3,C,triangle.png,1,z,Wed Jul 16 2025 09:59:27 GMT-0400 (Eastern Daylight Time),561354.3000000715,1200,I,z,1169,19,3,2392.4000000953674,558961.8999999762,9005,NTS,B,1
6,2,test,3,C,triangle.png,1,m,Wed Jul 16 2025 09:59:27 GMT-0400 (Eastern Daylight Time),563455.6000000238,1000,I,m,1083,13,3,2096.100000023842,561359.5,9005,NTS,B,2
9,3,test,3,C,circle.png,1,m,Wed Jul 16 2025 09:59:27 GMT-0400 (Eastern Daylight Time),566088.0,1500,I,m,1106,24,3,2623.6999999284744,563464.3000000715,9005,NTS,B,3
6,4,test,3,C,circle.png,1,m,Wed Jul 16 2025 09:59:27 GMT-0400 (Eastern Daylight Time),569004.6000000238,1900,I,m,985,21,3,2908.0,566096.6000000238,9005,NTS,B,4
8,5,test,3,C,circle.png,1,m,Wed Jul 16 2025 09:59:27 GMT-0400 (Eastern Daylight Time),570971.3999999762,1200,I,m,736,15,3,1957.0999999046326,569014.3000000715,9005,NTS,B,5
2,5,test,3,C,triangle.png,0,m,Wed Jul 16 2025 09:59:27 GMT-0400 (Eastern Daylight Time),574137.7000000477,2000,I,z,1137,18,3,3157.3000000715256,570980.3999999762,9005,NTS,B,6
8,6,test,3,C,triangle.png,1,m,Wed Jul 16 2025 09:59:27 GMT-0400 (Eastern Daylight Time),576754.5,1600,I,m,995,23,3,2611.7999999523163,574142.7000000477,9005,NTS,B,7
4,7,test,3,C,circle.png,1,z,Wed Jul 16 2025 09:59:27 GMT-0400 (Eastern Daylight Time),579304.6000000238,1400,I,z,1122,20,3,2542.100000023842,576762.5,9005,NTS,B,8
3,8,test,3,C,triangle.png,1,z,Wed Jul 16 2025 09:59:27 GMT-0400 (Eastern Daylight Time),581604.6000000238,1200,I,z,1077,3,3,2285.600000023842,579319.0,9005,NTS,B,9
6,9,test,3,C,circle.png,1,m,Wed Jul 16 2025 09:59:27 GMT-0400 (Eastern Daylight Time),584404.6000000238,1900,I,m,876,5,3,2791.0,581613.6000000238,9005,NTS,B,10
1,10,test,3,C,circle.png,1,z,Wed Jul 16 2025 09:59:27 GMT-0400 (Eastern Daylight Time),586239.1000000238,1000,I,z,816,1,3,1824.8999999761581,584414.2000000477,9005,NTS,B,11
8,11,test,3,C,triangle.png,1,m,Wed Jul 16 2025 09:59:27 GMT-0400 (Eastern Daylight Time),588854.6000000238,1600,I,m,989,7,3,2608.399999976158,586246.2000000477,9005,NTS,B,12
7,12,test,3,C,circle.png,1,m,Wed Jul 16 2025 09:59:27 GMT-0400 (Eastern Daylight Time),592004.3000000715,2000,I,m,1126,14,3,3137.600000023842,588866.7000000477,9005,NTS,B,13
1,13,test,3,C,circle.png,1,z,Wed Jul 16 2025 09:59:27 GMT-0400 (Eastern Daylight Time),594054.2000000477,1000,I,z,1023,17,3,2044.3999999761581,592009.8000000715,9005,NTS,B,14
2,13,test,3,C,circle.png,0,z,Wed Jul 16 2025 09:59:27 GMT-0400 (Eastern Daylight Time),597288.1000000238,1700,I,None,1516,10,3,3228.899999976158,594059.2000000477,9005,NTS,B,15
7,13,test,3,C,triangle.png,0,z,Wed Jul 16 2025 09:59:27 GMT-0400 (Eastern Daylight Time),600004.5,1700,I,m,993,22,3,2706.7999999523163,597297.7000000477,9005,NTS,B,16
2,14,test,3,C,triangle.png,1,m,Wed Jul 16 2025 09:59:27 GMT-0400 (Eastern Daylight Time),602988.0,2000,I,m,952,2,3,2975.399999976158,600012.6000000238,9005,NTS,B,17
4,15,test,3,C,triangle.png,1,m,Wed Jul 16 2025 09:59:27 GMT-0400 (Eastern Daylight Time),605537.8000000715,1500,I,m,1029,12,3,2540.5,602997.3000000715,9005,NTS,B,18
4,16,test,3,C,circle.png,1,z,Wed Jul 16 2025 09:59:27 GMT-0400 (Eastern Daylight Time),607887.7000000477,1400,I,z,930,4,3,2341.899999976158,605545.8000000715,9005,NTS,B,19
9,17,test,3,C,circle.png,1,m,Wed Jul 16 2025 09:59:27 GMT-0400 (Eastern Daylight Time),610487.8999999762,1500,I,m,1073,8,3,2586.5999999046326,607901.3000000715,9005,NTS,B,20
3,18,test,3,C,circle.png,1,z,Wed Jul 16 2025 09:59:27 GMT-0400 (Eastern Daylight Time),613354.6000000238,1600,I,z,1238,11,3,2856.600000023842,610498.0,9005,NTS,B,21
7,19,test,3,C,triangle.png,1,z,Wed Jul 16 2025 09:59:27 GMT-0400 (Eastern Daylight Time),616104.7000000477,1700,I,z,1022,6,3,2740.3000000715256,613364.3999999762,9005,NTS,B,22
9,20,test,3,C,triangle.png,1,z,Wed Jul 16 2025 09:59:27 GMT-0400 (Eastern Daylight Time),618388.0,1400,I,z,861,16,3,2275.100000023842,616112.8999999762,9005,NTS,B,23
1,21,test,3,C,triangle.png,1,z,Wed Jul 16 2025 09:59:27 GMT-0400 (Eastern Daylight Time),621054.2000000477,1900,I,z,748,9,3,2657.600000023842,618396.6000000238,9005,NTS,B,24
6,1,test,4,C,circle.png,1,m,Wed Jul 16 2025 09:59:27 GMT-0400 (Eastern Daylight Time),627221.8000000715,1900,I,m,1125,21,3,3043.5,624178.3000000715,9005,NTS,B,1
9,2,test,4,C,circle.png,1,m,Wed Jul 16 2025 09:59:27 GMT-0400 (Eastern Daylight Time),629571.3999999762,1500,I,m,829,24,3,2344.899999976158,627226.5,9005,NTS,B,2
7,3,test,4,C,triangle.png,1,z,Wed Jul 16 2025 09:59:27 GMT-0400 (Eastern Daylight Time),632671.3999999762,1700,I,z,1381,22,3,3091.1999999284744,629580.2000000477,9005,NTS,B,3
6,4,test,4,C,triangle.png,1,m,Wed Jul 16 2025 09:59:27 GMT-0400 (Eastern Daylight Time),634738.0,1000,I,m,1045,13,3,2059.2999999523163,632678.7000000477,9005,NTS,B,4
6,5,test,4,C,circle.png,1,m,Wed Jul 16 2025 09:59:27 GMT-0400 (Eastern Daylight Time),637587.8000000715,1900,I,m,927,5,3,2841.8000000715256,634746.0,9005,NTS,B,5
2,6,test,4,C,circle.png,1,z,Wed Jul 16 2025 09:59:27 GMT-0400 (Eastern Daylight Time),640371.3000000715,1700,I,z,1062,10,3,2774.3000000715256,637597.0,9005,NTS,B,6
3,7,test,4,C,circle.png,1,z,Wed Jul 16 2025 09:59:27 GMT-0400 (Eastern Daylight Time),643204.5,1600,I,z,1208,11,3,2824.2999999523163,640380.2000000477,9005,NTS,B,7
1,8,test,4,C,circle.png,1,z,Wed Jul 16 2025 09:59:27 GMT-0400 (Eastern Daylight Time),645038.8999999762,1000,I,z,816,17,3,1825.8999999761581,643213.0,9005,NTS,B,8
8,9,test,4,C,triangle.png,1,m,Wed Jul 16 2025 09:59:27 GMT-0400 (Eastern Daylight Time),648138.0,1600,I,m,1471,7,3,3089.6999999284744,645048.3000000715,9005,NTS,B,9
8,10,test,4,C,triangle.png,1,m,Wed Jul 16 2025 09:59:27 GMT-0400 (Eastern Daylight Time),650304.6000000238,1600,I,m,547,23,3,2157.5,648147.1000000238,9005,NTS,B,10
7,11,test,4,C,triangle.png,1,z,Wed Jul 16 2025 09:59:27 GMT-0400 (Eastern Daylight Time),653137.8999999762,1700,I,z,1112,6,3,2823.899999976158,650314.0,9005,NTS,B,11
7,12,test,4,C,circle.png,1,m,Wed Jul 16 2025 09:59:27 GMT-0400 (Eastern Daylight Time),656237.8999999762,2000,I,m,1067,14,3,3093.0999999046326,653144.8000000715,9005,NTS,B,12
1,13,test,4,C,circle.png,1,z,Wed Jul 16 2025 09:59:27 GMT-0400 (Eastern Daylight Time),658371.3999999762,1000,I,z,1110,1,3,2125.399999976158,656246.0,9005,NTS,B,13
2,14,test,4,C,triangle.png,1,m,Wed Jul 16 2025 09:59:27 GMT-0400 (Eastern Daylight Time),661338.0,2000,I,m,937,18,3,2958.5,658379.5,9005,NTS,B,14
9,15,test,4,C,triangle.png,1,z,Wed Jul 16 2025 09:59:27 GMT-0400 (Eastern Daylight Time),663904.6000000238,1400,I,z,1147,16,3,2557.0,661347.6000000238,9005,NTS,B,15
2,16,test,4,C,triangle.png,1,m,Wed Jul 16 2025 09:59:27 GMT-0400 (Eastern Daylight Time),666788.0,2000,I,m,860,2,3,2874.0,663914.0,9005,NTS,B,16
4,17,test,4,C,circle.png,1,z,Wed Jul 16 2025 09:59:27 GMT-0400 (Eastern Daylight Time),669171.3999999762,1400,I,z,961,20,3,2373.0,666798.3999999762,9005,NTS,B,17
9,18,test,4,C,circle.png,1,m,Wed Jul 16 2025 09:59:27 GMT-0400 (Eastern Daylight Time),671421.5,1500,I,m,718,8,3,2241.0,669180.5,9005,NTS,B,18
3,19,test,4,C,triangle.png,1,z,Wed Jul 16 2025 09:59:27 GMT-0400 (Eastern Daylight Time),673604.7000000477,1200,I,z,960,3,3,2173.899999976158,671430.8000000715,9005,NTS,B,19
3,20,test,4,C,triangle.png,1,z,Wed Jul 16 2025 09:59:27 GMT-0400 (Eastern Daylight Time),675604.1000000238,1200,I,z,778,19,3,1988.7000000476837,673615.3999999762,9005,NTS,B,20
8,21,test,4,C,circle.png,1,m,Wed Jul 16 2025 09:59:27 GMT-0400 (Eastern Daylight Time),677738.1000000238,1200,I,m,905,15,3,2127.7000000476837,675610.3999999762,9005,NTS,B,21
4,21,test,4,C,circle.png,0,z,Wed Jul 16 2025 09:59:27 GMT-0400 (Eastern Daylight Time),679954.6000000238,1400,I,m,795,4,3,2208.0,677746.6000000238,9005,NTS,B,22
4,22,test,4,C,triangle.png,1,m,Wed Jul 16 2025 09:59:27 GMT-0400 (Eastern Daylight Time),682438.0,1500,I,m,958,12,3,2469.899999976158,679968.1000000238,9005,NTS,B,23
1,23,test,4,C,triangle.png,1,z,Wed Jul 16 2025 09:59:27 GMT-0400 (Eastern Daylight Time),685321.3000000715,1900,I,z,955,9,3,2871.600000023842,682449.7000000477,9005,NTS,B,24
