acc_sum,block,block_c,change,condition,correct,correct_response,datetime,endtime,face,project,response,response_time,row_sel,session_number,start_end,starttime,subject_id,task,task_vers,trial
0,prac,1,,1-Back,,,Thu Jun 05 2025 16:14:19 GMT-0500 (Central Daylight Time),,124_o_f_d_a.png,I,space,4264,1,1,,,8048,VNB,A,0
1,prac,1,0.0,1-Back,1,m,Thu Jun 05 2025 16:14:19 GMT-0500 (Central Daylight Time),106504.40000000596,071_y_f_n_a.png,I,m,1198,2,1,2006.4000000059605,104498.0,8048,VNB,A,1
2,prac,1,0.0,1-Back,1,m,Thu Jun 05 2025 16:14:19 GMT-0500 (Central Daylight Time),108887.19999998808,165_m_m_h_a.png,I,m,1578,3,1,2374.699999988079,106512.5,8048,VNB,A,2
2,prac,1,0.0,1-Back,0,m,Thu Jun 05 2025 16:14:19 GMT-0500 (Central Daylight Time),110369.90000000596,109_y_m_d_a.png,I,z,660,4,1,1474.0,108895.90000000596,8048,VNB,A,3
3,prac,1,0.0,1-Back,1,m,Thu Jun 05 2025 16:14:19 GMT-0500 (Central Daylight Time),112902.19999998808,124_o_f_n_a.png,I,m,1696,5,1,2524.0,110378.19999998808,8048,VNB,A,4
4,prac,1,1.0,1-Back,1,z,Thu Jun 05 2025 16:14:19 GMT-0500 (Central Daylight Time),115268.5,109_y_m_n_a.png,I,z,1551,6,1,2358.9000000059605,112909.59999999404,8048,VNB,A,5
5,prac,1,0.0,1-Back,1,m,Thu Jun 05 2025 16:14:19 GMT-0500 (Central Daylight Time),117167.90000000596,039_o_m_h_a.png,I,m,1087,7,1,1890.7000000178814,115277.19999998808,8048,VNB,A,6
6,prac,1,0.0,1-Back,1,m,Thu Jun 05 2025 16:14:19 GMT-0500 (Central Daylight Time),118700.5,139_m_f_d_a.png,I,m,723,8,1,1524.0999999940395,117176.40000000596,8048,VNB,A,7
7,prac,1,1.0,1-Back,1,z,Thu Jun 05 2025 16:14:19 GMT-0500 (Central Daylight Time),120233.5,071_y_f_d_a.png,I,z,728,9,1,1525.0,118708.5,8048,VNB,A,8
8,prac,1,0.0,1-Back,1,m,Thu Jun 05 2025 16:14:19 GMT-0500 (Central Daylight Time),121916.40000000596,165_m_m_n_a.png,I,m,875,10,1,1675.0,120241.40000000596,8048,VNB,A,9
9,prac,1,0.0,1-Back,1,m,Thu Jun 05 2025 16:14:19 GMT-0500 (Central Daylight Time),123482.19999998808,124_o_f_h_a.png,I,m,742,11,1,1558.5,121923.69999998808,8048,VNB,A,10
9,prac,1,0.0,1-Back,0,m,Thu Jun 05 2025 16:14:19 GMT-0500 (Central Daylight Time),125232.0,109_y_m_d_a.png,I,z,965,12,1,1742.0999999940395,123489.90000000596,8048,VNB,A,11
0,test,1,0.0,1-Back,,,Thu Jun 05 2025 16:14:19 GMT-0500 (Central Daylight Time),125232.0,071_y_f_d_a.png,I,space,4725,1,1,1742.0999999940395,123489.90000000596,8048,VNB,A,0
1,test,1,0.0,1-Back,1,m,Thu Jun 05 2025 16:14:19 GMT-0500 (Central Daylight Time),139377.40000000596,139_m_f_n_a.png,I,m,714,2,1,1725.6000000238419,137651.79999998212,8048,VNB,A,1
2,test,1,0.0,1-Back,1,m,Thu Jun 05 2025 16:14:19 GMT-0500 (Central Daylight Time),141260.09999999404,039_o_m_h_a.png,I,m,861,3,1,1876.0,139384.09999999404,8048,VNB,A,2
3,test,1,1.0,1-Back,1,z,Thu Jun 05 2025 16:14:19 GMT-0500 (Central Daylight Time),142809.69999998808,165_m_m_h_a.png,I,z,522,4,1,1543.0,141266.69999998808,8048,VNB,A,3
4,test,1,0.0,1-Back,1,m,Thu Jun 05 2025 16:14:19 GMT-0500 (Central Daylight Time),144425.59999999404,124_o_f_n_a.png,I,m,597,5,1,1609.0,142816.59999999404,8048,VNB,A,4
4,test,1,0.0,1-Back,0,m,Thu Jun 05 2025 16:14:19 GMT-0500 (Central Daylight Time),146158.59999999404,109_y_m_d_a.png,I,z,708,6,1,1726.199999988079,144432.40000000596,8048,VNB,A,5
4,test,1,1.0,1-Back,0,z,Thu Jun 05 2025 16:14:19 GMT-0500 (Central Daylight Time),147941.29999998212,139_m_f_d_a.png,I,m,760,7,1,1776.199999988079,146165.09999999404,8048,VNB,A,6
5,test,1,0.0,1-Back,1,m,Thu Jun 05 2025 16:14:19 GMT-0500 (Central Daylight Time),149707.29999998212,071_y_f_h_a.png,I,m,745,8,1,1759.3999999761581,147947.90000000596,8048,VNB,A,7
6,test,1,0.0,1-Back,1,m,Thu Jun 05 2025 16:14:19 GMT-0500 (Central Daylight Time),151623.40000000596,039_o_m_n_a.png,I,m,898,9,1,1908.1000000238419,149715.29999998212,8048,VNB,A,8
7,test,1,0.0,1-Back,1,m,Thu Jun 05 2025 16:14:19 GMT-0500 (Central Daylight Time),153306.40000000596,109_y_m_h_a.png,I,m,655,10,1,1675.7000000178814,151630.69999998808,8048,VNB,A,9
8,test,1,0.0,1-Back,1,m,Thu Jun 05 2025 16:14:19 GMT-0500 (Central Daylight Time),155522.29999998212,039_o_m_d_a.png,I,m,1196,11,1,2209.5,153312.79999998212,8048,VNB,A,10
9,test,1,1.0,1-Back,1,z,Thu Jun 05 2025 16:14:19 GMT-0500 (Central Daylight Time),157304.90000000596,124_o_f_d_a.png,I,z,756,12,1,1775.300000011921,155529.59999999404,8048,VNB,A,11
10,test,1,0.0,1-Back,1,m,Thu Jun 05 2025 16:14:19 GMT-0500 (Central Daylight Time),159034.40000000596,165_m_m_n_a.png,I,m,712,13,1,1723.0,157311.40000000596,8048,VNB,A,12
11,test,1,1.0,1-Back,1,z,Thu Jun 05 2025 16:14:19 GMT-0500 (Central Daylight Time),160704.09999999404,071_y_f_n_a.png,I,z,648,14,1,1662.0999999940395,159042.0,8048,VNB,A,13
12,test,1,0.0,1-Back,1,m,Thu Jun 05 2025 16:14:19 GMT-0500 (Central Daylight Time),162287.0,139_m_f_h_a.png,I,m,550,15,1,1576.4000000059605,160710.59999999404,8048,VNB,A,14
13,test,1,0.0,1-Back,1,m,Thu Jun 05 2025 16:14:19 GMT-0500 (Central Daylight Time),164103.09999999404,165_m_m_d_a.png,I,m,800,16,1,1809.4000000059605,162293.69999998808,8048,VNB,A,15
14,test,1,0.0,1-Back,1,m,Thu Jun 05 2025 16:14:19 GMT-0500 (Central Daylight Time),165885.69999998808,109_y_m_n_a.png,I,m,751,17,1,1776.199999988079,164109.5,8048,VNB,A,16
15,test,1,0.0,1-Back,1,m,Thu Jun 05 2025 16:14:19 GMT-0500 (Central Daylight Time),167518.5,124_o_f_h_a.png,I,m,609,18,1,1624.9000000059605,165893.59999999404,8048,VNB,A,17
0,test,2,0.0,1-Back,,,Thu Jun 05 2025 16:14:19 GMT-0500 (Central Daylight Time),167518.5,109_y_m_n_a.png,I,space,1064,1,1,1624.9000000059605,165893.59999999404,8048,VNB,A,0
1,test,2,0.0,1-Back,1,m,Thu Jun 05 2025 16:14:19 GMT-0500 (Central Daylight Time),172317.09999999404,071_y_f_h_a.png,I,m,693,2,1,1709.5999999940395,170607.5,8048,VNB,A,1
2,test,2,1.0,1-Back,1,m,Thu Jun 05 2025 16:14:19 GMT-0500 (Central Daylight Time),174066.5,039_o_m_n_a.png,I,m,721,3,1,1742.5999999940395,172323.90000000596,8048,VNB,A,2
3,test,2,0.0,1-Back,1,m,Thu Jun 05 2025 16:14:19 GMT-0500 (Central Daylight Time),176099.09999999404,139_m_f_d_a.png,I,m,1004,4,1,2025.0999999940395,174074.0,8048,VNB,A,3
4,test,2,0.0,1-Back,1,z,Thu Jun 05 2025 16:14:19 GMT-0500 (Central Daylight Time),177599.0,165_m_m_d_a.png,I,z,483,5,1,1493.2000000178814,176105.79999998212,8048,VNB,A,4
5,test,2,0.0,1-Back,1,m,Thu Jun 05 2025 16:14:19 GMT-0500 (Central Daylight Time),179215.0,109_y_m_h_a.png,I,m,600,6,1,1609.0,177606.0,8048,VNB,A,5
6,test,2,1.0,1-Back,1,z,Thu Jun 05 2025 16:14:19 GMT-0500 (Central Daylight Time),181114.29999998212,124_o_f_h_a.png,I,z,871,7,1,1892.0999999940395,179222.19999998808,8048,VNB,A,6
7,test,2,0.0,1-Back,1,m,Thu Jun 05 2025 16:14:19 GMT-0500 (Central Daylight Time),182980.29999998212,139_m_f_n_a.png,I,m,844,8,1,1859.3999999761581,181120.90000000596,8048,VNB,A,7
8,test,2,0.0,1-Back,1,m,Thu Jun 05 2025 16:14:19 GMT-0500 (Central Daylight Time),184713.0,071_y_f_d_a.png,I,m,714,9,1,1726.300000011921,182986.69999998808,8048,VNB,A,8
9,test,2,0.0,1-Back,1,m,Thu Jun 05 2025 16:14:19 GMT-0500 (Central Daylight Time),186512.5,165_m_m_n_a.png,I,m,781,10,1,1792.5999999940395,184719.90000000596,8048,VNB,A,9
10,test,2,1.0,1-Back,1,m,Thu Jun 05 2025 16:14:19 GMT-0500 (Central Daylight Time),188361.90000000596,139_m_f_h_a.png,I,m,822,11,1,1842.5,186519.40000000596,8048,VNB,A,10
11,test,2,0.0,1-Back,1,z,Thu Jun 05 2025 16:14:19 GMT-0500 (Central Daylight Time),190011.59999999404,039_o_m_h_a.png,I,z,628,12,1,1643.5,188368.09999999404,8048,VNB,A,11
12,test,2,0.0,1-Back,1,m,Thu Jun 05 2025 16:14:19 GMT-0500 (Central Daylight Time),191744.29999998212,109_y_m_d_a.png,I,m,707,13,1,1726.2999999821186,190018.0,8048,VNB,A,12
13,test,2,0.0,1-Back,1,m,Thu Jun 05 2025 16:14:19 GMT-0500 (Central Daylight Time),193393.90000000596,124_o_f_n_a.png,I,m,630,14,1,1643.1000000238419,191750.79999998212,8048,VNB,A,13
14,test,2,0.0,1-Back,1,z,Thu Jun 05 2025 16:14:19 GMT-0500 (Central Daylight Time),195293.19999998808,071_y_f_n_a.png,I,z,869,15,1,1892.0999999940395,193401.09999999404,8048,VNB,A,14
15,test,2,1.0,1-Back,1,m,Thu Jun 05 2025 16:14:19 GMT-0500 (Central Daylight Time),196909.19999998808,165_m_m_h_a.png,I,m,585,16,1,1609.0999999940395,195300.09999999404,8048,VNB,A,15
16,test,2,0.0,1-Back,1,m,Thu Jun 05 2025 16:14:19 GMT-0500 (Central Daylight Time),199025.5,124_o_f_d_a.png,I,m,1097,17,1,2109.0999999940395,196916.40000000596,8048,VNB,A,16
16,test,2,1.0,1-Back,0,z,Thu Jun 05 2025 16:14:19 GMT-0500 (Central Daylight Time),200608.19999998808,039_o_m_d_a.png,I,m,557,18,1,1576.199999988079,199032.0,8048,VNB,A,17
0,test,3,1.0,1-Back,,,Thu Jun 05 2025 16:14:19 GMT-0500 (Central Daylight Time),200608.19999998808,124_o_f_h_a.png,I,space,870,1,1,1576.199999988079,199032.0,8048,VNB,A,0
1,test,3,0.0,1-Back,1,m,Thu Jun 05 2025 16:14:19 GMT-0500 (Central Daylight Time),205373.5,139_m_f_d_a.png,I,m,802,2,1,1825.800000011921,203547.69999998808,8048,VNB,A,1
2,test,3,1.0,1-Back,1,m,Thu Jun 05 2025 16:14:19 GMT-0500 (Central Daylight Time),207239.59999999404,165_m_m_n_a.png,I,m,837,3,1,1859.300000011921,205380.29999998212,8048,VNB,A,2
3,test,3,0.0,1-Back,1,z,Thu Jun 05 2025 16:14:19 GMT-0500 (Central Daylight Time),208705.69999998808,124_o_f_n_a.png,I,z,439,4,1,1459.4000000059605,207246.29999998212,8048,VNB,A,3
4,test,3,1.0,1-Back,1,m,Thu Jun 05 2025 16:14:19 GMT-0500 (Central Daylight Time),210239.40000000596,039_o_m_d_a.png,I,m,516,5,1,1526.9000000059605,208712.5,8048,VNB,A,4
5,test,3,0.0,1-Back,1,m,Thu Jun 05 2025 16:14:19 GMT-0500 (Central Daylight Time),212037.79999998212,071_y_f_h_a.png,I,m,775,6,1,1791.2999999821186,210246.5,8048,VNB,A,5
6,test,3,0.0,1-Back,1,z,Thu Jun 05 2025 16:14:19 GMT-0500 (Central Daylight Time),213587.59999999404,109_y_m_h_a.png,I,z,528,7,1,1542.9000000059605,212044.69999998808,8048,VNB,A,6
7,test,3,0.0,1-Back,1,m,Thu Jun 05 2025 16:14:19 GMT-0500 (Central Daylight Time),215220.29999998212,139_m_f_n_a.png,I,m,611,8,1,1626.0999999940395,213594.19999998808,8048,VNB,A,7
8,test,3,0.0,1-Back,1,m,Thu Jun 05 2025 16:14:19 GMT-0500 (Central Daylight Time),216869.79999998212,071_y_f_d_a.png,I,m,618,9,1,1642.8999999761581,215226.90000000596,8048,VNB,A,8
9,test,3,1.0,1-Back,1,m,Thu Jun 05 2025 16:14:19 GMT-0500 (Central Daylight Time),218469.19999998808,039_o_m_n_a.png,I,m,568,10,1,1592.7999999821186,216876.40000000596,8048,VNB,A,9
10,test,3,0.0,1-Back,1,m,Thu Jun 05 2025 16:14:19 GMT-0500 (Central Daylight Time),220618.5,165_m_m_h_a.png,I,m,1121,11,1,2142.2000000178814,218476.29999998212,8048,VNB,A,10
11,test,3,0.0,1-Back,1,z,Thu Jun 05 2025 16:14:19 GMT-0500 (Central Daylight Time),222184.69999998808,139_m_f_h_a.png,I,z,539,12,1,1559.0,220625.69999998808,8048,VNB,A,11
12,test,3,1.0,1-Back,1,m,Thu Jun 05 2025 16:14:19 GMT-0500 (Central Daylight Time),223884.09999999404,124_o_f_d_a.png,I,m,677,13,1,1692.5999999940395,222191.5,8048,VNB,A,12
13,test,3,0.0,1-Back,1,z,Thu Jun 05 2025 16:14:19 GMT-0500 (Central Daylight Time),225816.90000000596,165_m_m_d_a.png,I,z,906,14,1,1925.9000000059605,223891.0,8048,VNB,A,13
14,test,3,0.0,1-Back,1,m,Thu Jun 05 2025 16:14:19 GMT-0500 (Central Daylight Time),227532.90000000596,109_y_m_n_a.png,I,m,685,15,1,1709.5,225823.40000000596,8048,VNB,A,14
15,test,3,1.0,1-Back,1,m,Thu Jun 05 2025 16:14:19 GMT-0500 (Central Daylight Time),229912.19999998808,039_o_m_h_a.png,I,m,1362,16,1,2371.699999988079,227540.5,8048,VNB,A,15
16,test,3,0.0,1-Back,1,m,Thu Jun 05 2025 16:14:19 GMT-0500 (Central Daylight Time),231765.19999998808,109_y_m_d_a.png,I,m,827,17,1,1843.9000000059605,229921.29999998212,8048,VNB,A,16
17,test,3,1.0,1-Back,1,m,Thu Jun 05 2025 16:14:19 GMT-0500 (Central Daylight Time),233947.69999998808,071_y_f_n_a.png,I,m,1161,18,1,2175.5,231772.19999998808,8048,VNB,A,17
0,test,4,1.0,1-Back,,,Thu Jun 05 2025 16:14:19 GMT-0500 (Central Daylight Time),233947.69999998808,165_m_m_d_a.png,I,space,1178,1,1,2175.5,231772.19999998808,8048,VNB,A,0
1,test,4,0.0,1-Back,1,z,Thu Jun 05 2025 16:14:19 GMT-0500 (Central Daylight Time),239112.79999998212,039_o_m_d_a.png,I,z,939,2,1,1959.0,237153.79999998212,8048,VNB,A,1
2,test,4,0.0,1-Back,1,m,Thu Jun 05 2025 16:14:19 GMT-0500 (Central Daylight Time),240878.90000000596,109_y_m_h_a.png,I,m,733,3,1,1758.9000000059605,239120.0,8048,VNB,A,2
3,test,4,0.0,1-Back,1,m,Thu Jun 05 2025 16:14:19 GMT-0500 (Central Daylight Time),243444.79999998212,139_m_f_n_a.png,I,m,1535,4,1,2559.0999999940395,240885.69999998808,8048,VNB,A,3
4,test,4,1.0,1-Back,1,m,Thu Jun 05 2025 16:14:19 GMT-0500 (Central Daylight Time),245061.09999999404,124_o_f_h_a.png,I,m,585,5,1,1609.4000000059605,243451.69999998808,8048,VNB,A,4
5,test,4,0.0,1-Back,1,m,Thu Jun 05 2025 16:14:19 GMT-0500 (Central Daylight Time),246677.09999999404,165_m_m_n_a.png,I,m,585,6,1,1609.199999988079,245067.90000000596,8048,VNB,A,5
6,test,4,0.0,1-Back,1,m,Thu Jun 05 2025 16:14:19 GMT-0500 (Central Daylight Time),248409.79999998212,109_y_m_d_a.png,I,m,713,7,1,1726.0,246683.79999998212,8048,VNB,A,6
7,test,4,1.0,1-Back,1,z,Thu Jun 05 2025 16:14:19 GMT-0500 (Central Daylight Time),250109.29999998212,071_y_f_d_a.png,I,z,677,8,1,1692.8999999761581,248416.40000000596,8048,VNB,A,7
8,test,4,0.0,1-Back,1,m,Thu Jun 05 2025 16:14:19 GMT-0500 (Central Daylight Time),251842.0,139_m_f_h_a.png,I,m,705,9,1,1725.300000011921,250116.69999998808,8048,VNB,A,8
9,test,4,0.0,1-Back,1,z,Thu Jun 05 2025 16:14:19 GMT-0500 (Central Daylight Time),253924.79999998212,039_o_m_h_a.png,I,z,1052,10,1,2075.7999999821186,251849.0,8048,VNB,A,9
10,test,4,1.0,1-Back,1,m,Thu Jun 05 2025 16:14:19 GMT-0500 (Central Daylight Time),255542.09999999404,124_o_f_n_a.png,I,m,594,11,1,1609.4000000059605,253932.69999998808,8048,VNB,A,10
11,test,4,0.0,1-Back,1,m,Thu Jun 05 2025 16:14:19 GMT-0500 (Central Daylight Time),257223.59999999404,139_m_f_d_a.png,I,m,658,12,1,1674.699999988079,255548.90000000596,8048,VNB,A,11
11,test,4,0.0,1-Back,0,m,Thu Jun 05 2025 16:14:19 GMT-0500 (Central Daylight Time),259023.0,071_y_f_n_a.png,I,z,782,13,1,1792.5999999940395,257230.40000000596,8048,VNB,A,12
12,test,4,0.0,1-Back,1,m,Thu Jun 05 2025 16:14:19 GMT-0500 (Central Daylight Time),260839.40000000596,124_o_f_d_a.png,I,m,799,14,1,1809.6000000238419,259029.79999998212,8048,VNB,A,13
13,test,4,0.0,1-Back,1,m,Thu Jun 05 2025 16:14:19 GMT-0500 (Central Daylight Time),262871.90000000596,071_y_f_h_a.png,I,m,1015,15,1,2025.6000000238419,260846.29999998212,8048,VNB,A,14
14,test,4,1.0,1-Back,1,z,Thu Jun 05 2025 16:14:19 GMT-0500 (Central Daylight Time),264421.5,165_m_m_h_a.png,I,z,526,16,1,1542.9000000059605,262878.59999999404,8048,VNB,A,15
15,test,4,0.0,1-Back,1,m,Thu Jun 05 2025 16:14:19 GMT-0500 (Central Daylight Time),266337.5,039_o_m_n_a.png,I,m,897,17,1,1909.0,264428.5,8048,VNB,A,16
16,test,4,1.0,1-Back,1,z,Thu Jun 05 2025 16:14:19 GMT-0500 (Central Daylight Time),268287.1999999881,109_y_m_n_a.png,I,z,933,18,1,1942.5999999940395,266344.59999999404,8048,VNB,A,17
0,test,5,1.0,1-Back,,,Thu Jun 05 2025 16:14:19 GMT-0500 (Central Daylight Time),268287.1999999881,039_o_m_n_a.png,I,space,1175,1,1,1942.5999999940395,266344.59999999404,8048,VNB,A,0
1,test,5,1.0,1-Back,1,m,Thu Jun 05 2025 16:14:19 GMT-0500 (Central Daylight Time),273335.40000000596,124_o_f_h_a.png,I,m,824,2,1,1843.0,271492.40000000596,8048,VNB,A,1
2,test,5,0.0,1-Back,1,m,Thu Jun 05 2025 16:14:19 GMT-0500 (Central Daylight Time),274918.1999999881,109_y_m_d_a.png,I,m,551,3,1,1576.199999988079,273342.0,8048,VNB,A,2
3,test,5,0.0,1-Back,1,z,Thu Jun 05 2025 16:14:19 GMT-0500 (Central Daylight Time),276701.0,039_o_m_d_a.png,I,z,760,4,1,1776.300000011921,274924.6999999881,8048,VNB,A,3
4,test,5,0.0,1-Back,1,m,Thu Jun 05 2025 16:14:19 GMT-0500 (Central Daylight Time),278367.09999999404,139_m_f_h_a.png,I,m,633,5,1,1659.0,276708.09999999404,8048,VNB,A,4
5,test,5,0.0,1-Back,1,m,Thu Jun 05 2025 16:14:19 GMT-0500 (Central Daylight Time),280016.6999999881,071_y_f_n_a.png,I,m,623,6,1,1642.5999999940395,278374.09999999404,8048,VNB,A,5
6,test,5,1.0,1-Back,1,z,Thu Jun 05 2025 16:14:19 GMT-0500 (Central Daylight Time),281849.5,124_o_f_n_a.png,I,z,806,7,1,1825.800000011921,280023.6999999881,8048,VNB,A,6
7,test,5,0.0,1-Back,1,m,Thu Jun 05 2025 16:14:19 GMT-0500 (Central Daylight Time),283665.5,139_m_f_d_a.png,I,m,797,8,1,1807.4000000059605,281858.09999999404,8048,VNB,A,7
8,test,5,0.0,1-Back,1,m,Thu Jun 05 2025 16:14:19 GMT-0500 (Central Daylight Time),285315.0,109_y_m_h_a.png,I,m,621,9,1,1642.800000011921,283672.1999999881,8048,VNB,A,8
9,test,5,0.0,1-Back,1,m,Thu Jun 05 2025 16:14:19 GMT-0500 (Central Daylight Time),286981.0,071_y_f_d_a.png,I,m,635,10,1,1659.0999999940395,285321.90000000596,8048,VNB,A,9
10,test,5,0.0,1-Back,1,m,Thu Jun 05 2025 16:14:19 GMT-0500 (Central Daylight Time),288630.5,165_m_m_n_a.png,I,m,617,11,1,1642.4000000059605,286988.09999999404,8048,VNB,A,10
11,test,5,1.0,1-Back,1,z,Thu Jun 05 2025 16:14:19 GMT-0500 (Central Daylight Time),290480.0,139_m_f_n_a.png,I,z,832,12,1,1842.5,288637.5,8048,VNB,A,11
12,test,5,0.0,1-Back,1,m,Thu Jun 05 2025 16:14:19 GMT-0500 (Central Daylight Time),292396.2999999821,039_o_m_h_a.png,I,m,894,13,1,1909.8999999761581,290486.40000000596,8048,VNB,A,12
13,test,5,0.0,1-Back,1,z,Thu Jun 05 2025 16:14:19 GMT-0500 (Central Daylight Time),294228.6999999881,165_m_m_h_a.png,I,z,810,14,1,1824.9000000059605,292403.7999999821,8048,VNB,A,13
14,test,5,1.0,1-Back,1,m,Thu Jun 05 2025 16:14:19 GMT-0500 (Central Daylight Time),295994.90000000596,124_o_f_d_a.png,I,m,737,15,1,1759.5,294235.40000000596,8048,VNB,A,14
14,test,5,0.0,1-Back,0,m,Thu Jun 05 2025 16:14:19 GMT-0500 (Central Daylight Time),297910.90000000596,109_y_m_n_a.png,I,z,883,16,1,1909.1000000238419,296001.7999999821,8048,VNB,A,15
15,test,5,0.0,1-Back,1,m,Thu Jun 05 2025 16:14:19 GMT-0500 (Central Daylight Time),300193.6999999881,071_y_f_h_a.png,I,m,1255,17,1,2276.0999999940395,297917.59999999404,8048,VNB,A,16
16,test,5,0.0,1-Back,1,m,Thu Jun 05 2025 16:14:19 GMT-0500 (Central Daylight Time),302209.90000000596,165_m_m_d_a.png,I,m,989,18,1,2009.300000011921,300200.59999999404,8048,VNB,A,17
0,prac,1,0.0,2-Back,,,Thu Jun 05 2025 16:14:19 GMT-0500 (Central Daylight Time),302209.90000000596,139_m_f_n_a.png,I,space,2303,1,1,2009.300000011921,300200.59999999404,8048,VNB,A,0
0,prac,1,0.0,2-Back,,,Thu Jun 05 2025 16:14:19 GMT-0500 (Central Daylight Time),302209.90000000596,124_o_f_h_a.png,I,space,2303,2,1,2009.300000011921,300200.59999999404,8048,VNB,A,0
1,prac,1,0.0,2-Back,1,m,Thu Jun 05 2025 16:14:19 GMT-0500 (Central Daylight Time),369905.2999999821,039_o_m_d_a.png,I,m,1262,3,1,2057.399999976158,367847.90000000596,8048,VNB,A,1
2,prac,1,1.0,2-Back,1,z,Thu Jun 05 2025 16:14:19 GMT-0500 (Central Daylight Time),371471.1999999881,165_m_m_h_a.png,I,z,763,4,1,1557.5999999940395,369913.59999999404,8048,VNB,A,2
3,prac,1,0.0,2-Back,1,m,Thu Jun 05 2025 16:14:19 GMT-0500 (Central Daylight Time),374037.2999999821,071_y_f_n_a.png,I,m,1756,5,1,2557.699999988079,371479.59999999404,8048,VNB,A,3
3,prac,1,1.0,2-Back,0,z,Thu Jun 05 2025 16:14:19 GMT-0500 (Central Daylight Time),376853.0,039_o_m_h_a.png,I,None,2014,6,1,2807.300000011921,374045.6999999881,8048,VNB,A,4
3,prac,1,1.0,2-Back,0,z,Thu Jun 05 2025 16:14:19 GMT-0500 (Central Daylight Time),379135.5,109_y_m_n_a.png,I,m,1467,7,1,2275.2000000178814,376860.2999999821,8048,VNB,A,5
3,prac,1,0.0,2-Back,0,m,Thu Jun 05 2025 16:14:19 GMT-0500 (Central Daylight Time),381451.6999999881,139_m_f_d_a.png,I,z,1501,8,1,2307.9000000059605,379143.7999999821,8048,VNB,A,6
3,prac,1,0.0,2-Back,0,m,Thu Jun 05 2025 16:14:19 GMT-0500 (Central Daylight Time),383684.0,124_o_f_d_a.png,I,z,1395,9,1,2224.5,381459.5,8048,VNB,A,7
3,prac,1,0.0,2-Back,0,m,Thu Jun 05 2025 16:14:19 GMT-0500 (Central Daylight Time),386466.6999999881,165_m_m_h_a.png,I,None,2007,10,1,2774.4000000059605,383692.2999999821,8048,VNB,A,8
3,prac,1,1.0,2-Back,0,z,Thu Jun 05 2025 16:14:19 GMT-0500 (Central Daylight Time),388699.1999999881,071_y_f_d_a.png,I,m,1418,11,1,2223.9000000059605,386475.2999999821,8048,VNB,A,9
3,prac,1,0.0,2-Back,0,m,Thu Jun 05 2025 16:14:19 GMT-0500 (Central Daylight Time),390665.2999999821,039_o_m_n_a.png,I,z,1163,12,1,1957.5999999940395,388707.6999999881,8048,VNB,A,10
0,prac,2,0.0,2-Back,,,Thu Jun 05 2025 16:14:19 GMT-0500 (Central Daylight Time),390665.2999999821,139_m_f_n_a.png,I,a,3202,1,1,1957.5999999940395,388707.6999999881,8048,VNB,A,0
0,prac,2,0.0,2-Back,,,Thu Jun 05 2025 16:14:19 GMT-0500 (Central Daylight Time),390665.2999999821,124_o_f_h_a.png,I,a,3202,2,1,1957.5999999940395,388707.6999999881,8048,VNB,A,0
1,prac,2,0.0,2-Back,1,m,Thu Jun 05 2025 16:14:19 GMT-0500 (Central Daylight Time),401345.2999999821,039_o_m_d_a.png,I,m,1544,3,1,2341.399999976158,399003.90000000596,8048,VNB,A,1
2,prac,2,1.0,2-Back,1,z,Thu Jun 05 2025 16:14:19 GMT-0500 (Central Daylight Time),402978.0,165_m_m_h_a.png,I,z,845,4,1,1624.4000000059605,401353.59999999404,8048,VNB,A,2
2,prac,2,0.0,2-Back,0,m,Thu Jun 05 2025 16:14:19 GMT-0500 (Central Daylight Time),405793.90000000596,071_y_f_n_a.png,I,None,2014,5,1,2807.600000023842,402986.2999999821,8048,VNB,A,3
2,prac,2,1.0,2-Back,0,z,Thu Jun 05 2025 16:14:19 GMT-0500 (Central Daylight Time),408226.5,039_o_m_h_a.png,I,m,1628,6,1,2424.4000000059605,405802.09999999404,8048,VNB,A,4
2,prac,2,1.0,2-Back,0,z,Thu Jun 05 2025 16:14:19 GMT-0500 (Central Daylight Time),410725.7999999821,109_y_m_n_a.png,I,m,1685,7,1,2491.199999988079,408234.59999999404,8048,VNB,A,5
2,prac,2,0.0,2-Back,0,m,Thu Jun 05 2025 16:14:19 GMT-0500 (Central Daylight Time),413225.09999999404,139_m_f_d_a.png,I,z,1692,8,1,2490.4000000059605,410734.6999999881,8048,VNB,A,6
3,prac,2,0.0,2-Back,1,m,Thu Jun 05 2025 16:14:19 GMT-0500 (Central Daylight Time),415474.09999999404,124_o_f_d_a.png,I,m,1412,9,1,2240.800000011921,413233.2999999821,8048,VNB,A,7
3,prac,2,0.0,2-Back,0,m,Thu Jun 05 2025 16:14:19 GMT-0500 (Central Daylight Time),418254.2999999821,165_m_m_h_a.png,I,None,2007,10,1,2772.0999999940395,415482.1999999881,8048,VNB,A,8
3,prac,2,1.0,2-Back,0,z,Thu Jun 05 2025 16:14:19 GMT-0500 (Central Daylight Time),420689.1999999881,071_y_f_d_a.png,I,m,1631,11,1,2426.5,418262.6999999881,8048,VNB,A,9
3,prac,2,0.0,2-Back,0,m,Thu Jun 05 2025 16:14:19 GMT-0500 (Central Daylight Time),423505.0,039_o_m_n_a.png,I,None,2016,12,1,2806.9000000059605,420698.09999999404,8048,VNB,A,10
0,test,1,0.0,2-Back,,,Thu Jun 05 2025 16:14:19 GMT-0500 (Central Daylight Time),423505.0,109_y_m_h_a.png,I,space,2532,1,1,2806.9000000059605,420698.09999999404,8048,VNB,A,0
0,test,1,0.0,2-Back,,,Thu Jun 05 2025 16:14:19 GMT-0500 (Central Daylight Time),423505.0,124_o_f_n_a.png,I,space,2532,2,1,2806.9000000059605,420698.09999999404,8048,VNB,A,0
1,test,1,0.0,2-Back,1,z,Thu Jun 05 2025 16:14:19 GMT-0500 (Central Daylight Time),444498.40000000596,039_o_m_h_a.png,I,z,1337,3,1,2358.5,442139.90000000596,8048,VNB,A,1
2,test,1,0.0,2-Back,1,m,Thu Jun 05 2025 16:14:19 GMT-0500 (Central Daylight Time),447247.7999999821,139_m_f_d_a.png,I,m,1732,4,1,2742.5999999940395,444505.1999999881,8048,VNB,A,2
3,test,1,1.0,2-Back,1,m,Thu Jun 05 2025 16:14:19 GMT-0500 (Central Daylight Time),449346.90000000596,109_y_m_n_a.png,I,m,1079,5,1,2091.7000000178814,447255.1999999881,8048,VNB,A,3
3,test,1,0.0,2-Back,0,z,Thu Jun 05 2025 16:14:19 GMT-0500 (Central Daylight Time),451379.5,071_y_f_d_a.png,I,m,1011,6,1,2025.0999999940395,449354.40000000596,8048,VNB,A,4
4,test,1,0.0,2-Back,1,m,Thu Jun 05 2025 16:14:19 GMT-0500 (Central Daylight Time),453445.5,165_m_m_h_a.png,I,m,1042,7,1,2058.9000000059605,451386.59999999404,8048,VNB,A,5
4,test,1,1.0,2-Back,0,m,Thu Jun 05 2025 16:14:19 GMT-0500 (Central Daylight Time),456311.2999999821,071_y_f_n_a.png,I,z,1833,8,1,2858.899999976158,453452.40000000596,8048,VNB,A,6
4,test,1,0.0,2-Back,0,z,Thu Jun 05 2025 16:14:19 GMT-0500 (Central Daylight Time),459344.0,124_o_f_h_a.png,I,None,2016,9,1,3025.5,456318.5,8048,VNB,A,7
5,test,1,0.0,2-Back,1,m,Thu Jun 05 2025 16:14:19 GMT-0500 (Central Daylight Time),461393.0,039_o_m_d_a.png,I,m,1023,10,1,2041.300000011921,459351.6999999881,8048,VNB,A,8
6,test,1,1.0,2-Back,1,m,Thu Jun 05 2025 16:14:19 GMT-0500 (Central Daylight Time),463492.40000000596,165_m_m_d_a.png,I,m,1077,11,1,2092.2000000178814,461400.1999999881,8048,VNB,A,9
6,test,1,0.0,2-Back,0,m,Thu Jun 05 2025 16:14:19 GMT-0500 (Central Daylight Time),465372.0,139_m_f_n_a.png,I,z,863,12,1,1872.9000000059605,463499.09999999404,8048,VNB,A,10
7,test,1,0.0,2-Back,1,m,Thu Jun 05 2025 16:14:19 GMT-0500 (Central Daylight Time),467807.59999999404,071_y_f_h_a.png,I,m,1415,13,1,2428.4000000059605,465379.1999999881,8048,VNB,A,11
8,test,1,0.0,2-Back,1,z,Thu Jun 05 2025 16:14:19 GMT-0500 (Central Daylight Time),469690.40000000596,165_m_m_n_a.png,I,z,855,14,1,1875.4000000059605,467815.0,8048,VNB,A,12
9,test,1,0.0,2-Back,1,m,Thu Jun 05 2025 16:14:19 GMT-0500 (Central Daylight Time),471606.59999999404,109_y_m_d_a.png,I,m,892,15,1,1909.199999988079,469697.40000000596,8048,VNB,A,13
10,test,1,1.0,2-Back,1,m,Thu Jun 05 2025 16:14:19 GMT-0500 (Central Daylight Time),473472.59999999404,139_m_f_h_a.png,I,m,840,16,1,1859.0999999940395,471613.5,8048,VNB,A,14
11,test,1,0.0,2-Back,1,z,Thu Jun 05 2025 16:14:19 GMT-0500 (Central Daylight Time),475871.90000000596,124_o_f_d_a.png,I,z,1373,17,1,2392.2000000178814,473479.6999999881,8048,VNB,A,15
11,test,1,0.0,2-Back,0,m,Thu Jun 05 2025 16:14:19 GMT-0500 (Central Daylight Time),478904.59999999404,039_o_m_n_a.png,I,None,2015,18,1,3025.5,475879.09999999404,8048,VNB,A,16
0,test,2,0.0,2-Back,,,Thu Jun 05 2025 16:14:19 GMT-0500 (Central Daylight Time),478904.59999999404,165_m_m_h_a.png,I,space,1150,1,1,3025.5,475879.09999999404,8048,VNB,A,0
0,test,2,0.0,2-Back,,,Thu Jun 05 2025 16:14:19 GMT-0500 (Central Daylight Time),478904.59999999404,071_y_f_n_a.png,I,space,1150,2,1,3025.5,475879.09999999404,8048,VNB,A,0
1,test,2,1.0,2-Back,1,z,Thu Jun 05 2025 16:14:19 GMT-0500 (Central Daylight Time),487301.7999999821,124_o_f_h_a.png,I,z,1109,3,1,2125.7999999821186,485176.0,8048,VNB,A,1
2,test,2,0.0,2-Back,1,m,Thu Jun 05 2025 16:14:19 GMT-0500 (Central Daylight Time),489086.09999999404,039_o_m_d_a.png,I,m,761,4,1,1777.4000000059605,487308.6999999881,8048,VNB,A,2
2,test,2,0.0,2-Back,0,m,Thu Jun 05 2025 16:14:19 GMT-0500 (Central Daylight Time),492116.7999999821,139_m_f_d_a.png,I,None,2016,5,1,3022.2999999821186,489094.5,8048,VNB,A,3
3,test,2,0.0,2-Back,1,m,Thu Jun 05 2025 16:14:19 GMT-0500 (Central Daylight Time),494399.40000000596,109_y_m_h_a.png,I,m,1257,6,1,2275.100000023842,492124.2999999821,8048,VNB,A,4
4,test,2,0.0,2-Back,1,m,Thu Jun 05 2025 16:14:19 GMT-0500 (Central Daylight Time),497381.90000000596,124_o_f_n_a.png,I,m,1959,7,1,2974.9000000059605,494407.0,8048,VNB,A,5
4,test,2,1.0,2-Back,0,z,Thu Jun 05 2025 16:14:19 GMT-0500 (Central Daylight Time),499764.2999999821,039_o_m_h_a.png,I,m,1360,8,1,2374.399999976158,497389.90000000596,8048,VNB,A,6
5,test,2,0.0,2-Back,1,m,Thu Jun 05 2025 16:14:19 GMT-0500 (Central Daylight Time),501663.90000000596,071_y_f_d_a.png,I,m,874,9,1,1892.5,499771.40000000596,8048,VNB,A,7
6,test,2,0.0,2-Back,1,m,Thu Jun 05 2025 16:14:19 GMT-0500 (Central Daylight Time),503629.7999999821,109_y_m_d_a.png,I,m,934,10,1,1958.699999988079,501671.09999999404,8048,VNB,A,8
7,test,2,0.0,2-Back,1,m,Thu Jun 05 2025 16:14:19 GMT-0500 (Central Daylight Time),505662.59999999404,165_m_m_n_a.png,I,m,1008,11,1,2025.800000011921,503636.7999999821,8048,VNB,A,9
8,test,2,0.0,2-Back,1,m,Thu Jun 05 2025 16:14:19 GMT-0500 (Central Daylight Time),507695.09999999404,139_m_f_h_a.png,I,m,1008,12,1,2025.5,505669.59999999404,8048,VNB,A,10
8,test,2,1.0,2-Back,0,z,Thu Jun 05 2025 16:14:19 GMT-0500 (Central Daylight Time),510077.90000000596,039_o_m_n_a.png,I,m,1359,13,1,2376.100000023842,507701.7999999821,8048,VNB,A,11
9,test,2,0.0,2-Back,1,m,Thu Jun 05 2025 16:14:19 GMT-0500 (Central Daylight Time),512310.59999999404,124_o_f_d_a.png,I,m,1208,14,1,2225.199999988079,510085.40000000596,8048,VNB,A,12
10,test,2,0.0,2-Back,1,m,Thu Jun 05 2025 16:14:19 GMT-0500 (Central Daylight Time),514892.90000000596,071_y_f_h_a.png,I,m,1552,15,1,2575.600000023842,512317.2999999821,8048,VNB,A,13
11,test,2,0.0,2-Back,1,z,Thu Jun 05 2025 16:14:19 GMT-0500 (Central Daylight Time),516475.7999999821,165_m_m_d_a.png,I,z,553,16,1,1575.8999999761581,514899.90000000596,8048,VNB,A,14
11,test,2,0.0,2-Back,0,m,Thu Jun 05 2025 16:14:19 GMT-0500 (Central Daylight Time),519024.90000000596,109_y_m_n_a.png,I,z,1530,17,1,2542.2000000178814,516482.6999999881,8048,VNB,A,15
12,test,2,1.0,2-Back,1,m,Thu Jun 05 2025 16:14:19 GMT-0500 (Central Daylight Time),521091.1999999881,139_m_f_n_a.png,I,m,1037,18,1,2059.0999999940395,519032.09999999404,8048,VNB,A,16
0,test,3,1.0,2-Back,,,Thu Jun 05 2025 16:14:19 GMT-0500 (Central Daylight Time),521091.1999999881,039_o_m_n_a.png,I,space,1955,1,1,2059.0999999940395,519032.09999999404,8048,VNB,A,0
0,test,3,1.0,2-Back,,,Thu Jun 05 2025 16:14:19 GMT-0500 (Central Daylight Time),521091.1999999881,124_o_f_d_a.png,I,space,1955,2,1,2059.0999999940395,519032.09999999404,8048,VNB,A,0
0,test,3,0.0,2-Back,0,m,Thu Jun 05 2025 16:14:19 GMT-0500 (Central Daylight Time),531138.0,071_y_f_h_a.png,I,None,2016,3,1,3024.5,528113.5,8048,VNB,A,1
1,test,3,0.0,2-Back,1,z,Thu Jun 05 2025 16:14:19 GMT-0500 (Central Daylight Time),533187.1999999881,139_m_f_d_a.png,I,z,1020,4,1,2042.199999988079,531145.0,8048,VNB,A,2
1,test,3,1.0,2-Back,0,m,Thu Jun 05 2025 16:14:19 GMT-0500 (Central Daylight Time),535869.7999999821,109_y_m_n_a.png,I,z,1651,5,1,2675.5999999940395,533194.1999999881,8048,VNB,A,3
2,test,3,0.0,2-Back,1,m,Thu Jun 05 2025 16:14:19 GMT-0500 (Central Daylight Time),538435.599999994,039_o_m_h_a.png,I,m,1544,6,1,2558.4000000059605,535877.1999999881,8048,VNB,A,4
3,test,3,0.0,2-Back,1,z,Thu Jun 05 2025 16:14:19 GMT-0500 (Central Daylight Time),540418.2999999821,071_y_f_n_a.png,I,z,963,7,1,1975.3999999761581,538442.900000006,8048,VNB,A,5
4,test,3,1.0,2-Back,1,m,Thu Jun 05 2025 16:14:19 GMT-0500 (Central Daylight Time),542501.0,165_m_m_d_a.png,I,m,1052,8,1,2075.4000000059605,540425.599999994,8048,VNB,A,6
4,test,3,0.0,2-Back,0,m,Thu Jun 05 2025 16:14:19 GMT-0500 (Central Daylight Time),544883.5,109_y_m_d_a.png,I,z,1353,9,1,2375.5999999940395,542507.900000006,8048,VNB,A,7
5,test,3,0.0,2-Back,1,m,Thu Jun 05 2025 16:14:19 GMT-0500 (Central Daylight Time),547183.099999994,124_o_f_h_a.png,I,m,1274,10,1,2291.699999988079,544891.400000006,8048,VNB,A,8
6,test,3,1.0,2-Back,1,m,Thu Jun 05 2025 16:14:19 GMT-0500 (Central Daylight Time),549282.1999999881,139_m_f_n_a.png,I,m,1079,11,1,2091.9000000059605,547190.2999999821,8048,VNB,A,9
7,test,3,1.0,2-Back,1,z,Thu Jun 05 2025 16:14:19 GMT-0500 (Central Daylight Time),551248.2999999821,165_m_m_h_a.png,I,z,948,12,1,1959.199999988079,549289.099999994,8048,VNB,A,10
7,test,3,0.0,2-Back,0,m,Thu Jun 05 2025 16:14:19 GMT-0500 (Central Daylight Time),553647.5,071_y_f_d_a.png,I,z,1366,13,1,2391.7000000178814,551255.7999999821,8048,VNB,A,11
8,test,3,0.0,2-Back,1,m,Thu Jun 05 2025 16:14:19 GMT-0500 (Central Daylight Time),555630.400000006,124_o_f_n_a.png,I,m,951,14,1,1975.9000000059605,553654.5,8048,VNB,A,12
9,test,3,0.0,2-Back,1,z,Thu Jun 05 2025 16:14:19 GMT-0500 (Central Daylight Time),557579.6999999881,039_o_m_d_a.png,I,z,928,15,1,1941.9000000059605,555637.7999999821,8048,VNB,A,13
10,test,3,1.0,2-Back,1,m,Thu Jun 05 2025 16:14:19 GMT-0500 (Central Daylight Time),559738.1999999881,139_m_f_h_a.png,I,m,1003,16,1,2151.5999999940395,557586.599999994,8048,VNB,A,14
10,test,3,0.0,2-Back,0,m,Thu Jun 05 2025 16:14:19 GMT-0500 (Central Daylight Time),562444.900000006,165_m_m_n_a.png,I,z,1677,17,1,2698.800000011921,559746.099999994,8048,VNB,A,15
10,test,3,0.0,2-Back,0,z,Thu Jun 05 2025 16:14:19 GMT-0500 (Central Daylight Time),565077.400000006,109_y_m_h_a.png,I,m,1601,18,1,2625.0,562452.400000006,8048,VNB,A,16
0,test,4,0.0,2-Back,,,Thu Jun 05 2025 16:14:19 GMT-0500 (Central Daylight Time),565077.400000006,139_m_f_n_a.png,I,space,1281,1,1,2625.0,562452.400000006,8048,VNB,A,0
0,test,4,0.0,2-Back,,,Thu Jun 05 2025 16:14:19 GMT-0500 (Central Daylight Time),565077.400000006,039_o_m_n_a.png,I,space,1281,2,1,2625.0,562452.400000006,8048,VNB,A,0
1,test,4,1.0,2-Back,1,m,Thu Jun 05 2025 16:14:19 GMT-0500 (Central Daylight Time),573324.900000006,109_y_m_h_a.png,I,m,869,3,1,1891.9000000059605,571433.0,8048,VNB,A,1
2,test,4,1.0,2-Back,1,m,Thu Jun 05 2025 16:14:19 GMT-0500 (Central Daylight Time),575640.5,124_o_f_d_a.png,I,m,1298,4,1,2307.9000000059605,573332.599999994,8048,VNB,A,2
3,test,4,0.0,2-Back,1,z,Thu Jun 05 2025 16:14:19 GMT-0500 (Central Daylight Time),578223.1999999881,039_o_m_h_a.png,I,z,1557,5,1,2575.5999999940395,575647.599999994,8048,VNB,A,3
4,test,4,0.0,2-Back,1,m,Thu Jun 05 2025 16:14:19 GMT-0500 (Central Daylight Time),580506.2999999821,165_m_m_n_a.png,I,m,1263,6,1,2275.399999976158,578230.900000006,8048,VNB,A,4
5,test,4,0.0,2-Back,1,m,Thu Jun 05 2025 16:14:19 GMT-0500 (Central Daylight Time),583317.2999999821,139_m_f_d_a.png,I,m,1777,7,1,2804.2999999821186,580513.0,8048,VNB,A,5
6,test,4,0.0,2-Back,1,z,Thu Jun 05 2025 16:14:19 GMT-0500 (Central Daylight Time),586021.099999994,071_y_f_n_a.png,I,z,1676,8,1,2696.199999988079,583324.900000006,8048,VNB,A,6
7,test,4,1.0,2-Back,1,m,Thu Jun 05 2025 16:14:19 GMT-0500 (Central Daylight Time),588053.900000006,124_o_f_h_a.png,I,m,1001,9,1,2025.800000011921,586028.099999994,8048,VNB,A,7
7,test,4,0.0,2-Back,0,m,Thu Jun 05 2025 16:14:19 GMT-0500 (Central Daylight Time),590669.5,165_m_m_h_a.png,I,z,1585,10,1,2608.5,588061.0,8048,VNB,A,8
8,test,4,0.0,2-Back,1,m,Thu Jun 05 2025 16:14:19 GMT-0500 (Central Daylight Time),593118.7999999821,071_y_f_d_a.png,I,m,1416,11,1,2441.899999976158,590676.900000006,8048,VNB,A,9
9,test,4,0.0,2-Back,1,m,Thu Jun 05 2025 16:14:19 GMT-0500 (Central Daylight Time),595118.400000006,109_y_m_n_a.png,I,m,976,12,1,1992.9000000059605,593125.5,8048,VNB,A,10
10,test,4,0.0,2-Back,1,z,Thu Jun 05 2025 16:14:19 GMT-0500 (Central Daylight Time),597117.2999999821,039_o_m_d_a.png,I,z,968,13,1,1992.0999999940395,595125.1999999881,8048,VNB,A,11
11,test,4,1.0,2-Back,1,m,Thu Jun 05 2025 16:14:19 GMT-0500 (Central Daylight Time),599900.0,139_m_f_h_a.png,I,m,1761,14,1,2774.9000000059605,597125.099999994,8048,VNB,A,12
11,test,4,1.0,2-Back,0,m,Thu Jun 05 2025 16:14:19 GMT-0500 (Central Daylight Time),602932.599999994,071_y_f_h_a.png,I,None,2015,15,1,3025.4000000059605,599907.1999999881,8048,VNB,A,13
12,test,4,0.0,2-Back,1,m,Thu Jun 05 2025 16:14:19 GMT-0500 (Central Daylight Time),605232.0,124_o_f_n_a.png,I,m,1274,16,1,2292.5,602939.5,8048,VNB,A,14
13,test,4,0.0,2-Back,1,m,Thu Jun 05 2025 16:14:19 GMT-0500 (Central Daylight Time),607514.400000006,109_y_m_d_a.png,I,m,1254,17,1,2274.600000023842,605239.7999999821,8048,VNB,A,15
14,test,4,1.0,2-Back,1,m,Thu Jun 05 2025 16:14:19 GMT-0500 (Central Daylight Time),609497.099999994,165_m_m_d_a.png,I,m,956,18,1,1975.5999999940395,607521.5,8048,VNB,A,16
0,test,5,1.0,2-Back,,,Thu Jun 05 2025 16:14:19 GMT-0500 (Central Daylight Time),609497.099999994,071_y_f_d_a.png,I,space,973,1,1,1975.5999999940395,607521.5,8048,VNB,A,0
0,test,5,1.0,2-Back,,,Thu Jun 05 2025 16:14:19 GMT-0500 (Central Daylight Time),609497.099999994,124_o_f_h_a.png,I,space,973,2,1,1975.5999999940395,607521.5,8048,VNB,A,0
0,test,5,1.0,2-Back,0,z,Thu Jun 05 2025 16:14:19 GMT-0500 (Central Daylight Time),617994.599999994,039_o_m_d_a.png,I,m,1404,3,1,2426.0999999940395,615568.5,8048,VNB,A,1
1,test,5,1.0,2-Back,1,m,Thu Jun 05 2025 16:14:19 GMT-0500 (Central Daylight Time),619960.6999999881,139_m_f_n_a.png,I,m,941,4,1,1959.699999988079,618001.0,8048,VNB,A,2
1,test,5,0.0,2-Back,0,m,Thu Jun 05 2025 16:14:19 GMT-0500 (Central Daylight Time),622759.400000006,165_m_m_h_a.png,I,z,1768,5,1,2791.7000000178814,619967.6999999881,8048,VNB,A,3
1,test,5,0.0,2-Back,0,z,Thu Jun 05 2025 16:14:19 GMT-0500 (Central Daylight Time),625558.599999994,071_y_f_n_a.png,I,m,1766,6,1,2792.5999999940395,622766.0,8048,VNB,A,4
1,test,5,0.0,2-Back,0,m,Thu Jun 05 2025 16:14:19 GMT-0500 (Central Daylight Time),627674.5,124_o_f_d_a.png,I,z,1087,7,1,2109.0999999940395,625565.400000006,8048,VNB,A,5
1,test,5,0.0,2-Back,0,m,Thu Jun 05 2025 16:14:19 GMT-0500 (Central Daylight Time),630706.6999999881,039_o_m_h_a.png,I,None,2015,8,1,3025.0999999940395,627681.599999994,8048,VNB,A,6
1,test,5,1.0,2-Back,0,z,Thu Jun 05 2025 16:14:19 GMT-0500 (Central Daylight Time),633039.599999994,139_m_f_d_a.png,I,m,1307,9,1,2325.699999988079,630713.900000006,8048,VNB,A,7
2,test,5,0.0,2-Back,1,m,Thu Jun 05 2025 16:14:19 GMT-0500 (Central Daylight Time),635255.7999999821,109_y_m_n_a.png,I,m,1198,10,1,2209.399999976158,633046.400000006,8048,VNB,A,8
3,test,5,0.0,2-Back,1,m,Thu Jun 05 2025 16:14:19 GMT-0500 (Central Daylight Time),637554.900000006,165_m_m_n_a.png,I,m,1270,11,1,2292.4000000059605,635262.5,8048,VNB,A,9
4,test,5,0.0,2-Back,1,m,Thu Jun 05 2025 16:14:19 GMT-0500 (Central Daylight Time),639604.400000006,071_y_f_h_a.png,I,m,1019,12,1,2042.4000000059605,637562.0,8048,VNB,A,10
5,test,5,0.0,2-Back,1,m,Thu Jun 05 2025 16:14:19 GMT-0500 (Central Daylight Time),641536.6999999881,109_y_m_d_a.png,I,m,915,13,1,1925.5,639611.1999999881,8048,VNB,A,11
6,test,5,1.0,2-Back,1,z,Thu Jun 05 2025 16:14:19 GMT-0500 (Central Daylight Time),643086.5,139_m_f_h_a.png,I,z,517,14,1,1543.0999999940395,641543.400000006,8048,VNB,A,12
7,test,5,0.0,2-Back,1,m,Thu Jun 05 2025 16:14:19 GMT-0500 (Central Daylight Time),645219.2999999821,039_o_m_n_a.png,I,m,1104,15,1,2125.899999976158,643093.400000006,8048,VNB,A,13
7,test,5,0.0,2-Back,0,m,Thu Jun 05 2025 16:14:19 GMT-0500 (Central Daylight Time),647168.2999999821,165_m_m_d_a.png,I,z,931,16,1,1942.2999999821186,645226.0,8048,VNB,A,14
8,test,5,0.0,2-Back,1,z,Thu Jun 05 2025 16:14:19 GMT-0500 (Central Daylight Time),649668.0,124_o_f_n_a.png,I,z,1478,17,1,2492.7000000178814,647175.2999999821,8048,VNB,A,15
9,test,5,1.0,2-Back,1,m,Thu Jun 05 2025 16:14:19 GMT-0500 (Central Daylight Time),651617.1999999881,109_y_m_h_a.png,I,m,923,18,1,1942.4000000059605,649674.7999999821,8048,VNB,A,16
