acc_sum,block,block_c,condition,correct,correct_response,datetime,endtime,flanker,jitter,project,response,response_test_buffer_response,response_test_target_response,response_time,response_time_test_buffer_response,response_time_test_target_response,row_sel,session_number,start_end,starttime,subject_id,target,task,task_vers,time_test_buffer,time_test_buffer_response,time_test_constants,time_test_flanker,time_test_jitter,time_test_logger,time_test_target,time_test_target_response,time_test_variables,trial
1,prac,1,inc,1,z,Thu Jun 04 2026 12:05:33 GMT-0500 (Central Daylight Time),168934.39999997616,lead,1100,I,z,,,1651,,,8,1,4041.599999964237,164892.80000001192,7752,plum,NF,C,,,,,,,,,,1
1,prac,1,con,0,m,Thu Jun 04 2026 12:05:33 GMT-0500 (Central Daylight Time),173815.19999998808,bronze,800,I,None,,,1815,,,9,1,4876.599999964237,168938.60000002384,7752,bronze,NF,C,,,,,,,,,,2
2,prac,1,con,1,z,Thu Jun 04 2026 12:05:33 GMT-0500 (Central Daylight Time),177298.39999997616,kiwi,1000,I,z,,,1183,,,7,1,3478.5,173819.89999997616,7752,kiwi,NF,C,,,,,,,,,,3
3,prac,1,con,1,m,Thu Jun 04 2026 12:05:33 GMT-0500 (Central Daylight Time),180712.89999997616,silver,1000,I,m,,,1108,,,11,1,3408.0,177304.89999997616,7752,silver,NF,C,,,,,,,,,,4
4,prac,1,con,1,z,Thu Jun 04 2026 12:05:33 GMT-0500 (Central Daylight Time),183613.80000001192,lime,800,I,z,,,799,,,5,1,2895.699999988079,180718.10000002384,7752,lime,NF,C,,,,,,,,,,5
5,prac,1,con,1,z,Thu Jun 04 2026 12:05:33 GMT-0500 (Central Daylight Time),186362.19999998808,banana,800,I,z,,,632,,,1,1,2742.199999988079,183620.0,7752,banana,NF,C,,,,,,,,,,6
6,prac,1,inc,1,z,Thu Jun 04 2026 12:05:33 GMT-0500 (Central Daylight Time),189210.0,copper,900,I,z,,,640,,,2,1,2840.800000011921,186369.19999998808,7752,cherry,NF,C,,,,,,,,,,7
7,prac,1,inc,1,m,Thu Jun 04 2026 12:05:33 GMT-0500 (Central Daylight Time),191992.19999998808,pear,900,I,m,,,576,,,14,1,2771.0,189221.19999998808,7752,iron,NF,C,,,,,,,,,,8
8,prac,1,con,1,z,Thu Jun 04 2026 12:05:33 GMT-0500 (Central Daylight Time),194925.80000001192,orange,1000,I,z,,,620,,,3,1,2924.699999988079,192001.10000002384,7752,orange,NF,C,,,,,,,,,,9
9,prac,1,inc,1,m,Thu Jun 04 2026 12:05:33 GMT-0500 (Central Daylight Time),197758.30000001192,cherry,900,I,m,,,626,,,10,1,2825.100000023842,194933.19999998808,7752,copper,NF,C,,,,,,,,,,10
10,prac,1,con,1,m,Thu Jun 04 2026 12:05:33 GMT-0500 (Central Daylight Time),200806.30000001192,zinc,1000,I,m,,,736,,,15,1,3039.900000035763,197766.39999997616,7752,zinc,NF,C,,,,,,,,,,11
11,prac,1,inc,1,m,Thu Jun 04 2026 12:05:33 GMT-0500 (Central Daylight Time),203922.0,raisin,1100,I,m,,,707,,,12,1,3108.5,200813.5,7752,cobalt,NF,C,,,,,,,,,,12
12,prac,1,con,1,m,Thu Jun 04 2026 12:05:33 GMT-0500 (Central Daylight Time),206471.10000002384,gold,800,I,m,,,435,,,13,1,2541.2000000476837,203929.89999997616,7752,gold,NF,C,,,,,,,,,,13
13,prac,1,inc,1,z,Thu Jun 04 2026 12:05:33 GMT-0500 (Central Daylight Time),209404.0,cobalt,1100,I,z,,,518,,,4,1,2925.899999976158,206478.10000002384,7752,raisin,NF,C,,,,,,,,,,14
14,prac,1,inc,1,m,Thu Jun 04 2026 12:05:33 GMT-0500 (Central Daylight Time),212419.5,plum,1100,I,m,,,606,,,16,1,3008.199999988079,209411.30000001192,7752,lead,NF,C,,,,,,,,,,15
15,prac,1,inc,1,z,Thu Jun 04 2026 12:05:33 GMT-0500 (Central Daylight Time),215252.0,iron,900,I,z,,,630,,,6,1,2824.300000011921,212427.69999998808,7752,pear,NF,C,,,,,,,,,,16
1,test,1,con,1,z,Thu Jun 04 2026 12:05:33 GMT-0500 (Central Daylight Time),301340.8000000119,lime,1100,I,z,z,None,449,235.0,214.0,36,1,2094.300000011921,299246.5,7752,lime,NF,C,297503,297503,295659,296771,295659,297753,297288,297288,297753,1
2,test,1,inc,1,m,Thu Jun 04 2026 12:05:33 GMT-0500 (Central Daylight Time),303557.8000000119,plum,1100,I,m,m,None,568,369.0,199.0,104,1,2211.300000011921,301346.5,7752,gold,NF,C,299585,299585,297759,298870,297759,299970,299386,299386,299970,2
3,test,1,con,1,m,Thu Jun 04 2026 12:05:33 GMT-0500 (Central Daylight Time),305455.8000000119,zinc,900,I,m,m,None,461,245.0,216.0,114,1,1892.800000011921,303563.0,7752,zinc,NF,C,301619,301619,299975,300887,299975,301868,301403,301403,301868,3
4,test,1,inc,1,z,Thu Jun 04 2026 12:05:33 GMT-0500 (Central Daylight Time),307422.3000000119,iron,900,I,z,z,None,529,328.0,201.0,62,1,1961.9000000357628,305460.39999997616,7752,plum,NF,C,303503,303503,301872,302786,301873,303834,303302,303302,303834,4
5,test,1,inc,1,m,Thu Jun 04 2026 12:05:33 GMT-0500 (Central Daylight Time),309537.39999997616,orange,1000,I,m,m,None,568,368.0,200.0,79,1,2110.2999999523163,307427.10000002384,7752,copper,NF,C,305567,305567,303839,304852,303840,305950,305367,305367,305949,5
6,test,1,inc,1,m,Thu Jun 04 2026 12:05:33 GMT-0500 (Central Daylight Time),311654.1999999881,raisin,1100,I,m,m,None,479,264.0,215.0,96,1,2110.300000011921,309543.89999997616,7752,cobalt,NF,C,307800,307800,305956,307067,305956,308066,307585,307585,308066,6
7,test,1,con,1,z,Thu Jun 04 2026 12:05:33 GMT-0500 (Central Daylight Time),313486.60000002384,raisin,900,I,z,z,None,393,179.0,214.0,26,1,1824.2000000476837,311662.39999997616,7752,raisin,NF,C,309716,309716,308074,308983,308075,309899,309501,309501,309899,7
8,test,1,inc,1,z,Thu Jun 04 2026 12:05:33 GMT-0500 (Central Daylight Time),315568.8000000119,silver,1000,I,z,z,None,534,334.0,200.0,15,1,2075.0,313493.8000000119,7752,cherry,NF,C,311632,311632,309906,310916,309906,311981,311432,311432,311981,8
9,test,1,inc,1,z,Thu Jun 04 2026 12:05:33 GMT-0500 (Central Daylight Time),317885.1999999881,lead,1100,I,z,z,None,671,471.0,200.0,40,1,2313.300000011921,315571.89999997616,7752,lime,NF,C,313815,313816,311984,313098,311984,314297,313615,313615,314297,9
10,test,1,con,1,z,Thu Jun 04 2026 12:05:33 GMT-0500 (Central Daylight Time),320002.0,banana,1100,I,z,z,None,476,277.0,199.0,4,1,2109.899999976158,317892.10000002384,7752,banana,NF,C,316131,316131,314304,315414,314304,316414,315931,315931,316414,10
11,test,1,con,1,m,Thu Jun 04 2026 12:05:33 GMT-0500 (Central Daylight Time),321834.0,cobalt,900,I,m,m,None,384,185.0,199.0,90,1,1826.0,320008.0,7752,cobalt,NF,C,318047,318047,316420,317330,316420,318246,317847,317847,318246,11
12,test,1,inc,1,m,Thu Jun 04 2026 12:05:33 GMT-0500 (Central Daylight Time),324000.10000002384,raisin,1100,I,m,m,None,519,319.0,200.0,72,1,2157.300000011921,321842.8000000119,7752,bronze,NF,C,320080,320080,318255,319363,318255,320412,319880,319880,320412,12
13,test,1,inc,1,z,Thu Jun 04 2026 12:05:33 GMT-0500 (Central Daylight Time),326132.8000000119,lead,1100,I,z,z,None,485,285.0,200.0,64,1,2125.600000023842,324007.1999999881,7752,plum,NF,C,322245,322245,320419,321529,320420,322545,322045,322045,322545,13
14,test,1,con,1,m,Thu Jun 04 2026 12:05:33 GMT-0500 (Central Daylight Time),328232.10000002384,zinc,800,I,m,m,None,751,536.0,215.0,113,1,2092.7000000476837,326139.39999997616,7752,zinc,NF,C,324095,324095,322551,323363,322552,324644,323879,323879,324644,14
15,test,1,con,1,m,Thu Jun 04 2026 12:05:33 GMT-0500 (Central Daylight Time),330031.60000002384,silver,800,I,m,m,None,452,253.0,199.0,81,1,1793.7000000476837,328237.89999997616,7752,silver,NF,C,326178,326178,324650,325461,324650,326444,325978,325978,326444,15
16,test,1,inc,1,m,Thu Jun 04 2026 12:05:33 GMT-0500 (Central Daylight Time),332130.60000002384,orange,1000,I,m,m,None,557,358.0,199.0,71,1,2090.800000011921,330039.8000000119,7752,bronze,NF,C,328177,328177,326452,327460,326452,328543,327977,327977,328543,16
17,test,1,con,1,m,Thu Jun 04 2026 12:05:33 GMT-0500 (Central Daylight Time),334147.89999997616,silver,1000,I,m,m,None,467,252.0,215.0,83,1,2010.199999988079,332137.6999999881,7752,silver,NF,C,330293,330293,328550,329560,328550,330560,330077,330077,330560,17
18,test,1,inc,1,m,Thu Jun 04 2026 12:05:33 GMT-0500 (Central Daylight Time),336230.0,kiwi,1000,I,m,m,None,532,333.0,199.0,127,1,2074.899999976158,334155.10000002384,7752,lead,NF,C,332292,332292,330567,331576,330567,332642,332093,332093,332642,18
19,test,1,con,1,z,Thu Jun 04 2026 12:05:33 GMT-0500 (Central Daylight Time),338062.1999999881,orange,900,I,z,z,None,403,189.0,214.0,18,1,1824.8999999761581,336237.3000000119,7752,orange,NF,C,334275,334275,332649,333558,332650,334474,334060,334060,334474,19
20,test,1,con,1,m,Thu Jun 04 2026 12:05:33 GMT-0500 (Central Daylight Time),339995.10000002384,cobalt,1000,I,m,m,None,398,183.0,215.0,91,1,1928.2000000476837,338066.89999997616,7752,cobalt,NF,C,336209,336209,334479,335491,334479,336407,335993,335993,336407,20
21,test,1,inc,1,m,Thu Jun 04 2026 12:05:33 GMT-0500 (Central Daylight Time),341945.6999999881,pear,900,I,m,m,None,500,301.0,199.0,126,1,1945.199999988079,340000.5,7752,lead,NF,C,338042,338042,336413,337324,336413,338358,337842,337842,338358,21
22,test,1,con,1,m,Thu Jun 04 2026 12:05:33 GMT-0500 (Central Daylight Time),343960.3000000119,bronze,1000,I,m,m,None,467,252.0,215.0,67,1,2008.699999988079,341951.60000002384,7752,bronze,NF,C,340107,340107,338364,339373,338364,340372,339891,339891,340372,22
23,test,1,con,1,z,Thu Jun 04 2026 12:05:33 GMT-0500 (Central Daylight Time),345809.5,lime,900,I,z,z,None,398,199.0,199.0,34,1,1842.6000000238419,343966.89999997616,7752,lime,NF,C,342007,342007,340379,341290,340379,342222,341807,341807,342222,23
24,test,1,con,1,m,Thu Jun 04 2026 12:05:33 GMT-0500 (Central Daylight Time),347693.1999999881,copper,900,I,m,m,None,435,235.0,200.0,74,1,1878.5,345814.6999999881,7752,copper,NF,C,343855,343855,342227,343139,342227,344105,343655,343655,344105,24
25,test,1,inc,1,z,Thu Jun 04 2026 12:05:33 GMT-0500 (Central Daylight Time),349625.3000000119,copper,900,I,z,z,None,484,285.0,199.0,30,1,1924.4000000357628,347700.89999997616,7752,raisin,NF,C,345738,345738,344113,345022,344113,346037,345538,345538,346037,25
25,test,1,inc,0,z,Thu Jun 04 2026 12:05:33 GMT-0500 (Central Daylight Time),351441.0,gold,800,I,m,m,None,482,283.0,199.0,37,1,1809.800000011921,349631.1999999881,7752,lime,NF,C,347554,347555,346043,346854,346044,347853,347355,347355,347853,26
26,test,1,inc,1,m,Thu Jun 04 2026 12:05:33 GMT-0500 (Central Daylight Time),353823.8000000119,orange,1000,I,m,m,None,836,636.0,200.0,87,1,2376.800000011921,351447.0,7752,silver,NF,C,349588,349588,347859,348871,347859,350236,349387,349387,350236,27
27,test,1,inc,1,z,Thu Jun 04 2026 12:05:33 GMT-0500 (Central Daylight Time),356257.6999999881,lead,1100,I,z,z,None,795,593.0,202.0,56,1,2428.199999988079,353829.5,7752,kiwi,NF,C,352071,352071,350242,351352,350242,352670,351868,351869,352670,28
28,test,1,inc,1,z,Thu Jun 04 2026 12:05:33 GMT-0500 (Central Daylight Time),358389.6999999881,copper,900,I,z,z,None,689,488.0,201.0,14,1,2126.899999976158,356262.8000000119,7752,cherry,NF,C,354303,354303,352675,353586,352675,354802,354102,354102,354802,29
29,test,1,inc,1,z,Thu Jun 04 2026 12:05:33 GMT-0500 (Central Daylight Time),360704.8000000119,cobalt,1100,I,z,z,None,670,469.0,201.0,32,1,2309.600000023842,358395.1999999881,7752,raisin,NF,C,356634,356634,354807,355918,354807,357117,356433,356433,357117,30
30,test,1,inc,1,z,Thu Jun 04 2026 12:05:33 GMT-0500 (Central Daylight Time),362655.0,bronze,800,I,z,z,None,606,405.0,201.0,21,1,1943.6000000238419,360711.39999997616,7752,orange,NF,C,358651,358651,357123,357935,357124,359067,358450,358450,359067,31
31,test,1,con,1,z,Thu Jun 04 2026 12:05:33 GMT-0500 (Central Daylight Time),364588.3000000119,pear,800,I,z,z,None,583,384.0,199.0,41,1,1927.800000011921,362660.5,7752,pear,NF,C,360601,360601,359073,359884,359073,361000,360401,360401,361000,32
32,test,1,con,1,m,Thu Jun 04 2026 12:05:33 GMT-0500 (Central Daylight Time),366369.89999997616,copper,800,I,m,m,None,442,243.0,199.0,73,1,1777.8999999761581,364592.0,7752,copper,NF,C,362533,362533,361004,361817,361004,362782,362333,362333,362782,33
33,test,1,inc,1,z,Thu Jun 04 2026 12:05:33 GMT-0500 (Central Daylight Time),368503.3000000119,iron,900,I,z,z,None,686,486.0,200.0,38,1,2129.199999988079,366374.10000002384,7752,lime,NF,C,364417,364417,362786,363699,362786,364915,364216,364216,364915,34
34,test,1,inc,1,m,Thu Jun 04 2026 12:05:33 GMT-0500 (Central Daylight Time),370686.10000002384,kiwi,1000,I,m,m,None,648,448.0,200.0,111,1,2178.5,368507.60000002384,7752,iron,NF,C,366650,366650,364920,365932,364920,367098,366449,366449,367098,35
35,test,1,inc,1,m,Thu Jun 04 2026 12:05:33 GMT-0500 (Central Daylight Time),372751.1999999881,banana,800,I,m,m,None,735,521.0,214.0,69,1,2059.399999976158,370691.8000000119,7752,bronze,NF,C,368630,368630,367104,367914,367104,369163,368416,368416,369163,36
36,test,1,inc,1,z,Thu Jun 04 2026 12:05:33 GMT-0500 (Central Daylight Time),375033.89999997616,cobalt,1100,I,z,z,None,632,433.0,199.0,16,1,2277.699999988079,372756.1999999881,7752,cherry,NF,C,370998,370998,369168,370281,369169,371446,370798,370798,371446,37
37,test,1,con,1,m,Thu Jun 04 2026 12:05:33 GMT-0500 (Central Daylight Time),377167.60000002384,lead,800,I,m,m,None,794,595.0,199.0,121,1,2129.5,375038.10000002384,7752,lead,NF,C,372980,372980,371450,372263,371450,373580,372781,372781,373580,38
38,test,1,con,1,z,Thu Jun 04 2026 12:05:33 GMT-0500 (Central Daylight Time),379283.39999997616,raisin,1100,I,z,z,None,467,267.0,200.0,28,1,2111.899999976158,377171.5,7752,raisin,NF,C,375413,375413,373584,374696,373584,375695,375211,375212,375695,39
39,test,1,inc,1,z,Thu Jun 04 2026 12:05:33 GMT-0500 (Central Daylight Time),381348.0,copper,900,I,z,z,None,637,438.0,199.0,22,1,2058.300000011921,379289.6999999881,7752,orange,NF,C,377312,377312,375702,376611,375702,377760,377112,377112,377760,40
40,test,1,con,1,m,Thu Jun 04 2026 12:05:33 GMT-0500 (Central Daylight Time),383515.3000000119,lead,900,I,m,m,None,717,518.0,199.0,122,1,2162.800000011921,381352.5,7752,lead,NF,C,379394,379394,377764,378678,377765,379927,379195,379195,379927,41
41,test,1,inc,1,z,Thu Jun 04 2026 12:05:33 GMT-0500 (Central Daylight Time),385715.10000002384,lead,1100,I,z,z,None,559,359.0,200.0,48,1,2193.100000023842,383522.0,7752,pear,NF,C,381761,381761,379934,381045,379934,382127,381561,381561,382127,42
42,test,1,con,1,z,Thu Jun 04 2026 12:05:33 GMT-0500 (Central Daylight Time),387747.8000000119,cherry,1000,I,z,z,None,490,274.0,216.0,11,1,2028.300000011921,385719.5,7752,cherry,NF,C,383877,383877,382132,383145,382132,384160,383660,383660,384160,43
43,test,1,inc,1,m,Thu Jun 04 2026 12:05:33 GMT-0500 (Central Daylight Time),389680.1999999881,lime,800,I,m,m,None,595,396.0,199.0,117,1,1928.0999999642372,387752.10000002384,7752,zinc,NF,C,385692,385692,384164,384978,384164,386092,385493,385493,386092,44
44,test,1,con,1,m,Thu Jun 04 2026 12:05:33 GMT-0500 (Central Daylight Time),392096.10000002384,gold,1000,I,m,m,None,885,686.0,199.0,99,1,2411.300000011921,389684.8000000119,7752,gold,NF,C,387809,387809,386097,387107,386097,388508,387609,387609,388508,45
45,test,1,inc,1,z,Thu Jun 04 2026 12:05:33 GMT-0500 (Central Daylight Time),394311.6999999881,cobalt,1100,I,z,z,None,568,353.0,215.0,8,1,2211.599999964237,392100.10000002384,7752,banana,NF,C,390358,390358,388512,389625,388512,390724,390143,390143,390724,46
46,test,1,inc,1,m,Thu Jun 04 2026 12:05:33 GMT-0500 (Central Daylight Time),396677.89999997616,raisin,1100,I,m,m,None,720,505.0,215.0,80,1,2360.899999976158,394317.0,7752,copper,NF,C,392574,392574,390729,391840,390729,393090,392358,392358,393090,47
47,test,1,con,1,m,Thu Jun 04 2026 12:05:33 GMT-0500 (Central Daylight Time),398793.5,zinc,1100,I,m,m,None,476,259.0,217.0,116,1,2110.899999976158,396682.60000002384,7752,zinc,NF,C,394940,394940,393095,394207,393095,395206,394723,394723,395206,48
48,test,1,con,1,z,Thu Jun 04 2026 12:05:33 GMT-0500 (Central Daylight Time),400558.89999997616,cherry,800,I,z,z,None,421,220.0,201.0,9,1,1761.0,398797.89999997616,7752,cherry,NF,C,396739,396739,395210,396023,395210,396971,396538,396538,396971,49
49,test,1,inc,1,m,Thu Jun 04 2026 12:05:33 GMT-0500 (Central Daylight Time),402690.8000000119,cherry,900,I,m,m,None,690,491.0,199.0,70,1,2126.600000023842,400564.1999999881,7752,bronze,NF,C,398604,398604,396976,397889,396977,399103,398404,398405,399103,50
50,test,1,inc,1,z,Thu Jun 04 2026 12:05:33 GMT-0500 (Central Daylight Time),404723.8000000119,iron,900,I,z,z,None,604,405.0,199.0,46,1,2029.6000000238419,402694.1999999881,7752,pear,NF,C,400721,400721,399106,400021,399107,401136,400522,400522,401136,51
51,test,1,inc,1,m,Thu Jun 04 2026 12:05:33 GMT-0500 (Central Daylight Time),407023.39999997616,plum,1100,I,m,m,None,662,461.0,201.0,112,1,2296.099999964237,404727.3000000119,7752,iron,NF,C,402971,402971,401139,402255,401139,403436,402770,402770,403435,52
52,test,1,inc,1,z,Thu Jun 04 2026 12:05:33 GMT-0500 (Central Daylight Time),408874.5,bronze,800,I,z,z,None,516,316.0,200.0,29,1,1846.300000011921,407028.1999999881,7752,raisin,NF,C,404970,404970,403440,404254,403440,405287,404770,404770,405287,53
53,test,1,inc,1,z,Thu Jun 04 2026 12:05:33 GMT-0500 (Central Daylight Time),411107.39999997616,zinc,1000,I,z,z,None,702,502.0,200.0,55,1,2229.0,408878.39999997616,7752,kiwi,NF,C,407002,407002,405290,406301,405291,407520,406802,406802,407519,54
54,test,1,inc,1,z,Thu Jun 04 2026 12:05:33 GMT-0500 (Central Daylight Time),413171.60000002384,iron,900,I,z,z,None,618,418.0,200.0,54,1,2058.800000011921,411112.8000000119,7752,kiwi,NF,C,409152,409152,407525,408434,407525,409584,408952,408952,409584,55
55,test,1,inc,1,z,Thu Jun 04 2026 12:05:33 GMT-0500 (Central Daylight Time),415171.39999997616,gold,800,I,z,z,None,651,451.0,200.0,53,1,1993.7999999523163,413177.60000002384,7752,kiwi,NF,C,411118,411118,409590,410402,409590,411583,410918,410918,411583,56
56,test,1,inc,1,m,Thu Jun 04 2026 12:05:33 GMT-0500 (Central Daylight Time),417387.10000002384,pear,900,I,m,m,None,789,574.0,215.0,110,1,2209.5,415177.60000002384,7752,iron,NF,C,413217,413217,411590,412500,411590,413799,413002,413002,413799,57
57,test,1,inc,1,z,Thu Jun 04 2026 12:05:33 GMT-0500 (Central Daylight Time),419903.89999997616,silver,1000,I,z,z,None,979,779.0,200.0,7,1,2513.5,417390.39999997616,7752,banana,NF,C,415532,415532,413802,414816,413803,416316,415331,415331,416316,58
58,test,1,inc,1,m,Thu Jun 04 2026 12:05:33 GMT-0500 (Central Daylight Time),421968.60000002384,lime,800,I,m,m,None,723,508.0,215.0,125,1,2060.7000000476837,419907.89999997616,7752,lead,NF,C,417866,417866,416320,417134,416320,418381,417650,417650,418381,59
59,test,1,con,1,z,Thu Jun 04 2026 12:05:33 GMT-0500 (Central Daylight Time),424134.39999997616,plum,1100,I,z,z,None,519,318.0,201.0,60,1,2162.5,421971.89999997616,7752,plum,NF,C,420217,420217,418384,419498,418384,420547,420016,420016,420546,60
60,test,1,con,1,z,Thu Jun 04 2026 12:05:33 GMT-0500 (Central Daylight Time),426017.8000000119,raisin,800,I,z,z,None,534,333.0,201.0,25,1,1877.9000000357628,424139.89999997616,7752,raisin,NF,C,422082,422082,420552,421365,420552,422430,421881,421881,422430,61
61,test,1,con,1,z,Thu Jun 04 2026 12:05:33 GMT-0500 (Central Daylight Time),428800.6999999881,pear,1000,I,z,z,None,1235,1036.0,199.0,43,1,2775.300000011921,426025.39999997616,7752,pear,NF,C,424163,424163,422437,423448,422438,425213,423963,423963,425213,62
62,test,1,con,1,z,Thu Jun 04 2026 12:05:33 GMT-0500 (Central Daylight Time),430833.0,raisin,1000,I,z,z,None,500,301.0,199.0,27,1,2024.0,428809.0,7752,raisin,NF,C,426929,426930,425221,426229,425221,427245,426730,426730,427245,63
63,test,1,con,1,m,Thu Jun 04 2026 12:05:33 GMT-0500 (Central Daylight Time),432800.0,copper,1000,I,m,m,None,419,203.0,216.0,75,1,1962.3999999761581,430837.60000002384,7752,copper,NF,C,428996,428996,427250,428261,427250,429212,428779,428779,429212,64
64,test,1,con,1,z,Thu Jun 04 2026 12:05:33 GMT-0500 (Central Daylight Time),434814.39999997616,lime,1000,I,z,z,None,478,276.0,202.0,35,1,2010.0,432804.39999997616,7752,lime,NF,C,430947,430947,429216,430228,429217,431226,430745,430745,431226,65
65,test,1,inc,1,m,Thu Jun 04 2026 12:05:33 GMT-0500 (Central Daylight Time),436748.5,lime,800,I,m,m,None,585,385.0,200.0,109,1,1928.0,434820.5,7752,iron,NF,C,432761,432761,431233,432045,431233,433161,432560,432560,433160,66
66,test,1,inc,1,z,Thu Jun 04 2026 12:05:33 GMT-0500 (Central Daylight Time),438764.10000002384,gold,800,I,z,z,None,670,470.0,200.0,45,1,2011.9000000357628,436752.1999999881,7752,pear,NF,C,434693,434693,433164,433979,433164,435176,434493,434493,435176,67
67,test,1,inc,1,m,Thu Jun 04 2026 12:05:33 GMT-0500 (Central Daylight Time),440929.1999999881,kiwi,1000,I,m,m,None,616,417.0,199.0,103,1,2157.599999964237,438771.60000002384,7752,gold,NF,C,436909,436909,435184,436194,435184,437341,436709,436709,437341,68
68,test,1,con,1,z,Thu Jun 04 2026 12:05:33 GMT-0500 (Central Daylight Time),443029.3000000119,kiwi,1100,I,z,z,None,456,256.0,200.0,52,1,2095.300000011921,440934.0,7752,kiwi,NF,C,439175,439175,437346,438459,437346,439441,438975,438975,439441,69
69,test,1,con,1,z,Thu Jun 04 2026 12:05:33 GMT-0500 (Central Daylight Time),444928.1999999881,lime,800,I,z,z,None,561,361.0,200.0,33,1,1892.5,443035.6999999881,7752,lime,NF,C,440974,440975,439448,440258,439448,441340,440774,440774,441340,70
70,test,1,inc,1,z,Thu Jun 04 2026 12:05:33 GMT-0500 (Central Daylight Time),447044.1999999881,copper,900,I,z,z,None,666,467.0,199.0,6,1,2112.0,444932.1999999881,7752,banana,NF,C,442974,442974,441344,442258,441344,443456,442775,442775,443456,71
71,test,1,con,1,z,Thu Jun 04 2026 12:05:33 GMT-0500 (Central Daylight Time),448827.3000000119,banana,800,I,z,z,None,441,242.0,199.0,1,1,1775.699999988079,447051.60000002384,7752,banana,NF,C,444990,444990,443464,444273,443464,445239,444790,444790,445239,72
72,test,1,con,1,z,Thu Jun 04 2026 12:05:33 GMT-0500 (Central Daylight Time),450709.60000002384,kiwi,800,I,z,z,None,534,334.0,200.0,49,1,1876.800000011921,448832.8000000119,7752,kiwi,NF,C,446773,446773,445245,446056,445245,447122,446572,446572,447122,73
73,test,1,inc,1,m,Thu Jun 04 2026 12:05:33 GMT-0500 (Central Daylight Time),452709.6999999881,cherry,900,I,m,m,None,556,356.0,200.0,94,1,1993.5999999642372,450716.10000002384,7752,cobalt,NF,C,448756,448756,447128,448039,447129,449122,448556,448556,449122,74
74,test,1,con,1,z,Thu Jun 04 2026 12:05:33 GMT-0500 (Central Daylight Time),454677.1999999881,orange,1000,I,z,z,None,435,235.0,200.0,19,1,1960.699999988079,452716.5,7752,orange,NF,C,450839,450839,449129,450138,449129,451089,450639,450639,451089,75
75,test,1,inc,1,m,Thu Jun 04 2026 12:05:33 GMT-0500 (Central Daylight Time),456641.39999997616,banana,800,I,m,m,None,618,416.0,202.0,85,1,1957.5999999642372,454683.8000000119,7752,silver,NF,C,452623,452623,451096,451907,451096,453053,452421,452421,453053,76
76,test,1,con,1,m,Thu Jun 04 2026 12:05:33 GMT-0500 (Central Daylight Time),458891.6999999881,bronze,1100,I,m,m,None,615,401.0,214.0,68,1,2246.199999988079,456645.5,7752,bronze,NF,C,454887,454887,453058,454170,453058,455304,454672,454672,455304,77
77,test,1,con,1,z,Thu Jun 04 2026 12:05:33 GMT-0500 (Central Daylight Time),460957.39999997616,cherry,1100,I,z,z,None,417,218.0,199.0,12,1,2060.199999988079,458897.1999999881,7752,cherry,NF,C,457136,457136,455309,456420,455309,457369,456936,456936,457369,78
78,test,1,con,1,z,Thu Jun 04 2026 12:05:33 GMT-0500 (Central Daylight Time),462805.8000000119,plum,900,I,z,z,None,405,205.0,200.0,58,1,1843.9000000357628,460961.89999997616,7752,plum,NF,C,459002,459002,457374,458285,457374,459218,458802,458802,459218,79
79,test,1,inc,1,m,Thu Jun 04 2026 12:05:33 GMT-0500 (Central Daylight Time),464805.3000000119,pear,900,I,m,m,None,563,364.0,199.0,118,1,1994.699999988079,462810.60000002384,7752,zinc,NF,C,460851,460851,459223,460135,459223,461217,460652,460652,461217,80
80,test,1,con,1,m,Thu Jun 04 2026 12:05:33 GMT-0500 (Central Daylight Time),466888.0,cobalt,1100,I,m,m,None,443,244.0,199.0,92,1,2075.699999988079,464812.3000000119,7752,cobalt,NF,C,463051,463051,461224,462335,461225,463300,462851,462851,463300,81
81,test,1,con,1,m,Thu Jun 04 2026 12:05:33 GMT-0500 (Central Daylight Time),468854.1999999881,iron,1000,I,m,m,None,430,230.0,200.0,107,1,1961.5999999642372,466892.60000002384,7752,iron,NF,C,465034,465034,463305,464317,463305,465266,464833,464833,465266,82
82,test,1,inc,1,m,Thu Jun 04 2026 12:05:33 GMT-0500 (Central Daylight Time),471220.89999997616,raisin,1100,I,m,m,None,716,517.0,199.0,88,1,2362.899999976158,468858.0,7752,silver,NF,C,467100,467100,465270,466385,465270,467633,466900,466900,467633,83
83,test,1,con,1,m,Thu Jun 04 2026 12:05:33 GMT-0500 (Central Daylight Time),473018.6999999881,iron,800,I,m,m,None,457,257.0,200.0,105,1,1792.3999999761581,471226.3000000119,7752,iron,NF,C,469166,469166,467638,468450,467639,469431,468965,468965,469431,84
84,test,1,con,1,z,Thu Jun 04 2026 12:05:33 GMT-0500 (Central Daylight Time),475102.3000000119,orange,1100,I,z,z,None,438,238.0,200.0,20,1,2080.400000035763,473021.89999997616,7752,orange,NF,C,471266,471266,469434,470548,469434,471514,471065,471066,471514,85
85,test,1,inc,1,z,Thu Jun 04 2026 12:05:33 GMT-0500 (Central Daylight Time),477252.5,zinc,1000,I,z,z,None,599,387.0,212.0,47,1,2142.399999976158,475110.10000002384,7752,pear,NF,C,473262,473262,471522,472531,471522,473665,473050,473050,473664,86
86,test,1,con,1,m,Thu Jun 04 2026 12:05:33 GMT-0500 (Central Daylight Time),479485.10000002384,gold,1100,I,m,m,None,599,384.0,215.0,100,1,2226.900000035763,477258.1999999881,7752,gold,NF,C,475498,475498,473670,474781,473670,475897,475282,475282,475897,87
87,test,1,con,1,m,Thu Jun 04 2026 12:05:33 GMT-0500 (Central Daylight Time),481451.1999999881,bronze,900,I,m,m,None,534,335.0,199.0,66,1,1958.5,479492.6999999881,7752,bronze,NF,C,477513,477513,475905,476812,475905,477863,477314,477314,477863,88
88,test,1,con,1,m,Thu Jun 04 2026 12:05:33 GMT-0500 (Central Daylight Time),483514.1999999881,copper,1100,I,m,m,None,417,217.0,200.0,76,1,2058.0,481456.1999999881,7752,copper,NF,C,479693,479693,477868,478979,477869,479926,479493,479493,479926,89
89,test,1,con,1,z,Thu Jun 04 2026 12:05:33 GMT-0500 (Central Daylight Time),485366.3000000119,pear,900,I,z,z,None,400,185.0,215.0,42,1,1849.0,483517.3000000119,7752,pear,NF,C,481578,481578,479929,480846,479930,481778,481362,481362,481778,90
90,test,1,con,1,z,Thu Jun 04 2026 12:05:33 GMT-0500 (Central Daylight Time),487315.0,kiwi,1000,I,z,z,None,408,209.0,199.0,51,1,1941.3999999761581,485373.60000002384,7752,kiwi,NF,C,483511,483511,481786,482794,481786,483727,483310,483311,483727,91
91,test,1,con,1,m,Thu Jun 04 2026 12:05:33 GMT-0500 (Central Daylight Time),489047.39999997616,cobalt,800,I,m,m,None,392,192.0,200.0,89,1,1727.699999988079,487319.6999999881,7752,cobalt,NF,C,485262,485262,483732,484544,483732,485459,485062,485062,485459,92
92,test,1,con,1,m,Thu Jun 04 2026 12:05:33 GMT-0500 (Central Daylight Time),490797.3000000119,gold,800,I,m,m,None,421,208.0,213.0,97,1,1746.6000000238419,489050.6999999881,7752,gold,NF,C,486992,486992,485463,486277,485463,487209,486779,486779,487209,93
93,test,1,inc,1,m,Thu Jun 04 2026 12:05:33 GMT-0500 (Central Daylight Time),493029.6999999881,plum,1100,I,m,m,None,589,389.0,200.0,128,1,2227.800000011921,490801.89999997616,7752,lead,NF,C,489042,489042,487214,488326,487214,489442,488842,488842,489442,94
94,test,1,inc,1,z,Thu Jun 04 2026 12:05:33 GMT-0500 (Central Daylight Time),495029.1999999881,bronze,800,I,z,z,None,655,456.0,199.0,5,1,1993.5,493035.6999999881,7752,banana,NF,C,490976,490976,489448,490259,489448,491441,490776,490776,491441,95
95,test,1,inc,1,z,Thu Jun 04 2026 12:05:33 GMT-0500 (Central Daylight Time),497045.6999999881,bronze,800,I,z,z,None,667,467.0,200.0,13,1,2012.199999988079,495033.5,7752,cherry,NF,C,492975,492975,491446,492259,491446,493458,492775,492775,493458,96
96,test,1,inc,1,z,Thu Jun 04 2026 12:05:33 GMT-0500 (Central Daylight Time),499194.89999997616,silver,1000,I,z,z,None,599,385.0,214.0,31,1,2144.2999999523163,497050.60000002384,7752,raisin,NF,C,495208,495208,493463,494475,493463,495607,494993,494993,495607,97
97,test,1,inc,1,z,Thu Jun 04 2026 12:05:33 GMT-0500 (Central Daylight Time),501543.60000002384,cobalt,1100,I,z,z,None,701,501.0,200.0,24,1,2344.800000011921,499198.8000000119,7752,orange,NF,C,497442,497442,495611,496725,495611,497956,497241,497241,497956,98
98,test,1,inc,1,z,Thu Jun 04 2026 12:05:33 GMT-0500 (Central Daylight Time),503675.39999997616,silver,1000,I,z,z,None,582,381.0,201.0,23,1,2126.699999988079,501548.6999999881,7752,orange,NF,C,499691,499691,497961,498973,497961,500087,499489,499489,500087,99
99,test,1,con,1,z,Thu Jun 04 2026 12:05:33 GMT-0500 (Central Daylight Time),505810.6999999881,pear,1100,I,z,z,None,500,286.0,214.0,44,1,2130.599999964237,503680.10000002384,7752,pear,NF,C,501921,501921,500092,501206,500092,502223,501707,501707,502223,100
100,test,1,inc,1,m,Thu Jun 04 2026 12:05:33 GMT-0500 (Central Daylight Time),507741.1999999881,banana,800,I,m,m,None,590,388.0,202.0,77,1,1926.0,505815.1999999881,7752,copper,NF,C,503755,503755,502227,503038,502227,504153,503553,503553,504153,101
101,test,1,con,1,m,Thu Jun 04 2026 12:05:33 GMT-0500 (Central Daylight Time),510040.8000000119,silver,1100,I,m,m,None,653,452.0,201.0,84,1,2294.900000035763,507745.89999997616,7752,silver,NF,C,505987,505987,504158,505271,504158,506453,505786,505786,506453,102
102,test,1,con,1,z,Thu Jun 04 2026 12:05:33 GMT-0500 (Central Daylight Time),511872.39999997616,cherry,900,I,z,z,None,393,193.0,200.0,10,1,1826.5,510045.89999997616,7752,cherry,NF,C,508085,508085,506458,507370,506458,508284,507885,507885,508284,103
103,test,1,con,1,z,Thu Jun 04 2026 12:05:33 GMT-0500 (Central Daylight Time),513689.5,plum,800,I,z,z,None,476,276.0,200.0,57,1,1812.300000011921,511877.1999999881,7752,plum,NF,C,509819,509819,508289,509103,508289,510102,509619,509619,510102,104
104,test,1,con,1,m,Thu Jun 04 2026 12:05:33 GMT-0500 (Central Daylight Time),515756.5,lead,1100,I,m,m,None,439,223.0,216.0,124,1,2061.399999976158,513695.10000002384,7752,lead,NF,C,511935,511935,510107,511218,510107,512169,511719,511719,512169,105
105,test,1,inc,1,m,Thu Jun 04 2026 12:05:33 GMT-0500 (Central Daylight Time),517788.5,cherry,900,I,m,m,None,600,399.0,201.0,86,1,2027.0,515761.5,7752,silver,NF,C,513801,513801,512174,513084,512174,514201,513600,513600,514201,106
106,test,1,inc,1,z,Thu Jun 04 2026 12:05:33 GMT-0500 (Central Daylight Time),519772.3000000119,gold,800,I,z,z,None,640,441.0,199.0,61,1,1981.199999988079,517791.10000002384,7752,plum,NF,C,515734,515734,514203,515017,514203,516184,515534,515534,516184,107
107,test,1,con,1,z,Thu Jun 04 2026 12:05:33 GMT-0500 (Central Daylight Time),521755.60000002384,banana,1000,I,z,z,None,444,241.0,203.0,3,1,1979.0,519776.60000002384,7752,banana,NF,C,517919,517919,516189,517201,516189,518168,517716,517716,518168,108
108,test,1,con,1,z,Thu Jun 04 2026 12:05:33 GMT-0500 (Central Daylight Time),523651.60000002384,kiwi,900,I,z,z,None,465,264.0,201.0,50,1,1891.1000000238419,521760.5,7752,kiwi,NF,C,519799,519799,518173,519082,518173,520064,519598,519598,520064,109
109,test,1,con,1,m,Thu Jun 04 2026 12:05:33 GMT-0500 (Central Daylight Time),525651.3999999762,zinc,1000,I,m,m,None,456,255.0,201.0,115,1,1997.0999999642372,523654.3000000119,7752,zinc,NF,C,521799,521799,520066,521082,520067,522063,521598,521598,522063,110
110,test,1,con,1,m,Thu Jun 04 2026 12:05:33 GMT-0500 (Central Daylight Time),527718.1000000238,iron,1100,I,m,m,None,437,238.0,199.0,108,1,2063.600000023842,525654.5,7752,iron,NF,C,523881,523881,522067,523180,522067,524130,523682,523682,524130,111
111,test,1,inc,1,m,Thu Jun 04 2026 12:05:33 GMT-0500 (Central Daylight Time),529834.3000000119,cherry,900,I,m,m,None,664,449.0,215.0,78,1,2112.5,527721.8000000119,7752,copper,NF,C,525781,525781,524134,525049,524134,526246,525566,525566,526246,112
112,test,1,inc,1,m,Thu Jun 04 2026 12:05:33 GMT-0500 (Central Daylight Time),532017.3000000119,lime,800,I,m,m,None,835,634.0,201.0,101,1,2178.600000023842,529838.6999999881,7752,gold,NF,C,527781,527781,526251,527065,526251,528429,527580,527580,528429,113
113,test,1,con,1,z,Thu Jun 04 2026 12:05:33 GMT-0500 (Central Daylight Time),533835.0,banana,900,I,z,z,None,376,177.0,199.0,2,1,1812.0,532023.0,7752,banana,NF,C,530063,530063,528435,529345,528435,530247,529864,529864,530247,114
114,test,1,inc,1,m,Thu Jun 04 2026 12:05:33 GMT-0500 (Central Daylight Time),535948.3000000119,pear,900,I,m,m,None,672,471.0,201.0,102,1,2109.800000011921,533838.5,7752,gold,NF,C,531880,531880,530251,531163,530251,532360,531679,531679,532360,115
115,test,1,con,1,m,Thu Jun 04 2026 12:05:33 GMT-0500 (Central Daylight Time),537832.8999999762,gold,900,I,m,m,None,437,238.0,199.0,98,1,1881.699999988079,535951.1999999881,7752,gold,NF,C,533993,533993,532363,533279,532363,534245,533793,533793,534245,116
116,test,1,inc,1,m,Thu Jun 04 2026 12:05:33 GMT-0500 (Central Daylight Time),539748.5,banana,800,I,m,m,None,588,374.0,214.0,93,1,1911.6000000238419,537836.8999999762,7752,cobalt,NF,C,535777,535777,534249,535061,534249,536161,535562,535562,536160,117
117,test,1,con,1,m,Thu Jun 04 2026 12:05:33 GMT-0500 (Central Daylight Time),541699.0,silver,900,I,m,m,None,500,300.0,200.0,82,1,1946.800000011921,539752.1999999881,7752,silver,NF,C,537795,537795,536164,537078,536165,538111,537593,537594,538111,118
118,test,1,inc,1,m,Thu Jun 04 2026 12:05:33 GMT-0500 (Central Daylight Time),543829.5,orange,1000,I,m,m,None,587,387.0,200.0,95,1,2127.699999988079,541701.8000000119,7752,cobalt,NF,C,539843,539843,538114,539126,538114,540242,539642,539642,540242,119
119,test,1,con,1,z,Thu Jun 04 2026 12:05:33 GMT-0500 (Central Daylight Time),545880.5,plum,1000,I,z,z,None,502,303.0,199.0,59,1,2048.399999976158,543832.1000000238,7752,plum,NF,C,541976,541976,540244,541259,540244,542293,541776,541776,542293,120
120,test,1,inc,1,z,Thu Jun 04 2026 12:05:33 GMT-0500 (Central Daylight Time),548094.8999999762,zinc,1000,I,z,z,None,668,469.0,199.0,63,1,2210.099999964237,545884.8000000119,7752,plum,NF,C,544025,544025,542297,543309,542297,544507,543825,543825,544507,121
121,test,1,con,1,m,Thu Jun 04 2026 12:05:33 GMT-0500 (Central Daylight Time),550228.1000000238,lead,1000,I,m,m,None,591,391.0,200.0,123,1,2129.5,548098.6000000238,7752,lead,NF,C,546241,546241,544511,545523,544511,546640,546041,546041,546640,122
122,test,1,con,1,m,Thu Jun 04 2026 12:05:33 GMT-0500 (Central Daylight Time),552026.8999999762,bronze,800,I,m,m,None,457,258.0,199.0,65,1,1793.199999988079,550233.6999999881,7752,bronze,NF,C,548173,548173,546646,547457,546646,548439,547973,547973,548439,123
123,test,1,con,1,m,Thu Jun 04 2026 12:05:33 GMT-0500 (Central Daylight Time),553893.1999999881,iron,900,I,m,m,None,430,230.0,200.0,106,1,1861.0,552032.1999999881,7752,iron,NF,C,550073,550073,548444,549356,548444,550305,549873,549873,550305,124
124,test,1,inc,1,m,Thu Jun 04 2026 12:05:33 GMT-0500 (Central Daylight Time),555978.0,kiwi,1000,I,m,m,None,544,345.0,199.0,119,1,2079.399999976158,553898.6000000238,7752,zinc,NF,C,552038,552038,550311,551322,550311,552390,551839,551839,552390,125
125,test,1,inc,1,z,Thu Jun 04 2026 12:05:33 GMT-0500 (Central Daylight Time),558041.8999999762,zinc,1000,I,z,z,None,517,318.0,199.0,39,1,2058.7999999523163,555983.1000000238,7752,lime,NF,C,554121,554121,552395,553405,552395,554454,553921,553921,554454,126
126,test,1,inc,1,m,Thu Jun 04 2026 12:05:33 GMT-0500 (Central Daylight Time),560291.3999999762,plum,1100,I,m,m,None,601,401.0,200.0,120,1,2242.199999988079,558049.1999999881,7752,zinc,NF,C,556287,556288,554461,555571,554461,556703,556087,556087,556703,127
127,test,1,con,1,z,Thu Jun 04 2026 12:05:33 GMT-0500 (Central Daylight Time),562290.3000000119,orange,800,I,z,z,None,658,459.0,199.0,17,1,1996.0,560294.3000000119,7752,orange,NF,C,558237,558237,556706,557520,556707,558702,558037,558037,558702,128
