acc_sum,block,block_c,change,condition,correct,correct_response,datetime,endtime,face,project,response,response_time,row_sel,session_number,start_end,starttime,subject_id,task,task_vers,trial
0,prac,1,,1-Back,,,Fri Nov 07 2025 13:24:52 GMT-0600 (Central Standard Time),,097_m_f_n_a.png,O,space,20686,1,,,,7704,NNB,B,0
1,prac,1,0.0,1-Back,1.0,m,Fri Nov 07 2025 13:24:52 GMT-0600 (Central Standard Time),300964.3000000119,152_y_f_n_a.png,O,m,1573,2,,2424.9000000059605,298539.40000000596,7704,NNB,B,1
2,prac,1,1.0,1-Back,1.0,z,Fri Nov 07 2025 13:24:52 GMT-0600 (Central Standard Time),303514.6999999881,152_y_f_n_a.png,O,z,1776,3,,2543.199999988079,300971.5,7704,NNB,B,2
3,prac,1,0.0,1-Back,1.0,m,Fri Nov 07 2025 13:24:52 GMT-0600 (Central Standard Time),306012.1999999881,176_o_m_n_a.png,O,m,1651,4,,2492.199999988079,303520.0,7704,NNB,B,3
4,prac,1,0.0,1-Back,1.0,m,Fri Nov 07 2025 13:24:52 GMT-0600 (Central Standard Time),308013.1999999881,126_m_m_n_a.png,O,m,1163,5,,1994.5999999940395,306018.59999999404,7704,NNB,B,4
5,prac,1,1.0,1-Back,1.0,z,Fri Nov 07 2025 13:24:52 GMT-0600 (Central Standard Time),309811.59999999404,126_m_m_n_a.png,O,z,1025,6,,1793.4000000059605,308018.1999999881,7704,NNB,B,5
6,prac,1,0.0,1-Back,1.0,m,Fri Nov 07 2025 13:24:52 GMT-0600 (Central Standard Time),311995.0,086_o_f_n_a.png,O,m,1325,7,,2177.0999999940395,309817.90000000596,7704,NNB,B,6
7,prac,1,0.0,1-Back,1.0,m,Fri Nov 07 2025 13:24:52 GMT-0600 (Central Standard Time),314093.6999999881,178_m_m_n_a.png,O,m,1253,8,,2093.699999988079,312000.0,7704,NNB,B,7
8,prac,1,0.0,1-Back,1.0,m,Fri Nov 07 2025 13:24:52 GMT-0600 (Central Standard Time),316627.0,097_m_f_n_a.png,O,m,1752,9,,2527.9000000059605,314099.09999999404,7704,NNB,B,8
9,prac,1,1.0,1-Back,1.0,z,Fri Nov 07 2025 13:24:52 GMT-0600 (Central Standard Time),318374.8000000119,097_m_f_n_a.png,O,z,963,10,,1742.2000000178814,316632.59999999404,7704,NNB,B,9
10,prac,1,0.0,1-Back,1.0,m,Fri Nov 07 2025 13:24:52 GMT-0600 (Central Standard Time),320508.1999999881,176_o_m_n_a.png,O,m,1350,11,,2127.7999999821186,318380.40000000596,7704,NNB,B,10
11,prac,1,0.0,1-Back,1.0,m,Fri Nov 07 2025 13:24:52 GMT-0600 (Central Standard Time),322274.09999999404,173_y_f_n_a.png,O,m,918,12,,1759.699999988079,320514.40000000596,7704,NNB,B,11
0,test,1,0.0,1-Back,,,Fri Nov 07 2025 13:24:52 GMT-0600 (Central Standard Time),322274.09999999404,152_y_f_n_a.png,O,space,20555,1,,1759.699999988079,320514.40000000596,7704,NNB,B,0
1,test,1,0.0,1-Back,1.0,m,Fri Nov 07 2025 13:24:52 GMT-0600 (Central Standard Time),360512.3000000119,029_m_f_n_a.png,O,m,1129,2,,2147.100000023842,358365.1999999881,7704,NNB,B,1
2,test,1,0.0,1-Back,1.0,m,Fri Nov 07 2025 13:24:52 GMT-0600 (Central Standard Time),362261.5,173_y_f_n_a.png,O,m,716,3,,1746.5,360515.0,7704,NNB,B,2
3,test,1,1.0,1-Back,1.0,z,Fri Nov 07 2025 13:24:52 GMT-0600 (Central Standard Time),364378.09999999404,173_y_f_n_a.png,O,z,1085,4,,2113.2999999821186,362264.8000000119,7704,NNB,B,3
4,test,1,0.0,1-Back,1.0,m,Fri Nov 07 2025 13:24:52 GMT-0600 (Central Standard Time),366496.8000000119,029_m_f_n_a.png,O,m,1097,5,,2116.100000023842,364380.6999999881,7704,NNB,B,4
5,test,1,0.0,1-Back,1.0,m,Fri Nov 07 2025 13:24:52 GMT-0600 (Central Standard Time),368593.59999999404,176_o_m_n_a.png,O,m,1078,6,,2089.199999988079,366504.40000000596,7704,NNB,B,5
6,test,1,1.0,1-Back,1.0,z,Fri Nov 07 2025 13:24:52 GMT-0600 (Central Standard Time),370459.40000000596,176_o_m_n_a.png,O,z,834,7,,1863.0999999940395,368596.3000000119,7704,NNB,B,6
7,test,1,0.0,1-Back,1.0,m,Fri Nov 07 2025 13:24:52 GMT-0600 (Central Standard Time),372474.8000000119,126_m_m_n_a.png,O,m,993,8,,2012.9000000059605,370461.90000000596,7704,NNB,B,7
8,test,1,0.0,1-Back,1.0,m,Fri Nov 07 2025 13:24:52 GMT-0600 (Central Standard Time),374457.40000000596,086_o_f_n_a.png,O,m,953,9,,1979.300000011921,372478.09999999404,7704,NNB,B,8
9,test,1,0.0,1-Back,1.0,m,Fri Nov 07 2025 13:24:52 GMT-0600 (Central Standard Time),376523.09999999404,126_m_m_n_a.png,O,m,1042,10,,2063.0,374460.09999999404,7704,NNB,B,9
10,test,1,0.0,1-Back,1.0,m,Fri Nov 07 2025 13:24:52 GMT-0600 (Central Standard Time),378439.5,153_y_m_n_a.png,O,m,896,11,,1913.199999988079,376526.3000000119,7704,NNB,B,10
11,test,1,1.0,1-Back,1.0,z,Fri Nov 07 2025 13:24:52 GMT-0600 (Central Standard Time),380222.0,153_y_m_n_a.png,O,z,763,12,,1779.4000000059605,378442.59999999404,7704,NNB,B,11
12,test,1,0.0,1-Back,1.0,m,Fri Nov 07 2025 13:24:52 GMT-0600 (Central Standard Time),382104.6999999881,110_o_f_n_a.png,O,m,853,13,,1879.5,380225.1999999881,7704,NNB,B,12
13,test,1,1.0,1-Back,1.0,z,Fri Nov 07 2025 13:24:52 GMT-0600 (Central Standard Time),383954.40000000596,110_o_f_n_a.png,O,z,819,14,,1847.0,382107.40000000596,7704,NNB,B,13
14,test,1,0.0,1-Back,1.0,m,Fri Nov 07 2025 13:24:52 GMT-0600 (Central Standard Time),386020.90000000596,013_y_m_n_a.png,O,m,1041,15,,2063.9000000059605,383957.0,7704,NNB,B,14
15,test,1,0.0,1-Back,1.0,m,Fri Nov 07 2025 13:24:52 GMT-0600 (Central Standard Time),387887.09999999404,097_m_f_n_a.png,O,m,844,16,,1863.0,386024.09999999404,7704,NNB,B,15
16,test,1,0.0,1-Back,1.0,m,Fri Nov 07 2025 13:24:52 GMT-0600 (Central Standard Time),389636.0,065_o_m_n_a.png,O,m,716,17,,1746.4000000059605,387889.59999999404,7704,NNB,B,16
17,test,1,0.0,1-Back,1.0,m,Fri Nov 07 2025 13:24:52 GMT-0600 (Central Standard Time),391568.5,097_m_f_n_a.png,O,m,903,18,,1929.699999988079,389638.8000000119,7704,NNB,B,17
0,test,2,0.0,1-Back,,,Fri Nov 07 2025 13:24:52 GMT-0600 (Central Standard Time),391568.5,126_m_m_n_a.png,O,space,7139,1,,1929.699999988079,389638.8000000119,7704,NNB,B,0
1,test,2,0.0,1-Back,1.0,m,Fri Nov 07 2025 13:24:52 GMT-0600 (Central Standard Time),402598.59999999404,029_m_f_n_a.png,O,m,847,2,,1863.199999988079,400735.40000000596,7704,NNB,B,1
2,test,2,1.0,1-Back,1.0,z,Fri Nov 07 2025 13:24:52 GMT-0600 (Central Standard Time),404431.5,029_m_f_n_a.png,O,z,813,3,,1828.5999999940395,402602.90000000596,7704,NNB,B,2
3,test,2,0.0,1-Back,1.0,m,Fri Nov 07 2025 13:24:52 GMT-0600 (Central Standard Time),406364.0,126_m_m_n_a.png,O,m,899,4,,1929.800000011921,404434.1999999881,7704,NNB,B,3
4,test,2,0.0,1-Back,1.0,m,Fri Nov 07 2025 13:24:52 GMT-0600 (Central Standard Time),408363.0,153_y_m_n_a.png,O,m,967,5,,1996.0999999940395,406366.90000000596,7704,NNB,B,4
5,test,2,0.0,1-Back,1.0,m,Fri Nov 07 2025 13:24:52 GMT-0600 (Central Standard Time),410179.40000000596,152_y_f_n_a.png,O,m,783,6,,1813.5999999940395,408365.8000000119,7704,NNB,B,5
6,test,2,1.0,1-Back,1.0,z,Fri Nov 07 2025 13:24:52 GMT-0600 (Central Standard Time),412012.1999999881,152_y_f_n_a.png,O,z,799,7,,1830.199999988079,410182.0,7704,NNB,B,6
7,test,2,0.0,1-Back,1.0,m,Fri Nov 07 2025 13:24:52 GMT-0600 (Central Standard Time),413798.5,153_y_m_n_a.png,O,m,758,8,,1783.5999999940395,412014.90000000596,7704,NNB,B,7
8,test,2,0.0,1-Back,1.0,m,Fri Nov 07 2025 13:24:52 GMT-0600 (Central Standard Time),415561.40000000596,110_o_f_n_a.png,O,m,744,9,,1755.4000000059605,413806.0,7704,NNB,B,8
9,test,2,0.0,1-Back,1.0,m,Fri Nov 07 2025 13:24:52 GMT-0600 (Central Standard Time),417494.90000000596,178_m_m_n_a.png,O,m,906,10,,1930.800000011921,415564.09999999404,7704,NNB,B,9
10,test,2,1.0,1-Back,1.0,z,Fri Nov 07 2025 13:24:52 GMT-0600 (Central Standard Time),419443.3000000119,178_m_m_n_a.png,O,z,918,11,,1945.800000011921,417497.5,7704,NNB,B,10
11,test,2,0.0,1-Back,1.0,m,Fri Nov 07 2025 13:24:52 GMT-0600 (Central Standard Time),421359.0,110_o_f_n_a.png,O,m,896,12,,1913.0,419446.0,7704,NNB,B,11
12,test,2,0.0,1-Back,1.0,m,Fri Nov 07 2025 13:24:52 GMT-0600 (Central Standard Time),423341.8000000119,086_o_f_n_a.png,O,m,963,13,,1980.300000011921,421361.5,7704,NNB,B,12
13,test,2,0.0,1-Back,1.0,m,Fri Nov 07 2025 13:24:52 GMT-0600 (Central Standard Time),425358.1999999881,176_o_m_n_a.png,O,m,989,14,,2013.5999999940395,423344.59999999404,7704,NNB,B,13
14,test,2,0.0,1-Back,1.0,m,Fri Nov 07 2025 13:24:52 GMT-0600 (Central Standard Time),427291.90000000596,065_o_m_n_a.png,O,m,902,15,,1931.2000000178814,425360.6999999881,7704,NNB,B,14
15,test,2,1.0,1-Back,1.0,z,Fri Nov 07 2025 13:24:52 GMT-0600 (Central Standard Time),429207.90000000596,065_o_m_n_a.png,O,z,888,16,,1913.2000000178814,427294.6999999881,7704,NNB,B,15
16,test,2,0.0,1-Back,1.0,m,Fri Nov 07 2025 13:24:52 GMT-0600 (Central Standard Time),431356.1999999881,013_y_m_n_a.png,O,m,1115,17,,2146.0,429210.1999999881,7704,NNB,B,16
17,test,2,1.0,1-Back,1.0,z,Fri Nov 07 2025 13:24:52 GMT-0600 (Central Standard Time),433189.59999999404,013_y_m_n_a.png,O,z,807,18,,1830.7999999821186,431358.8000000119,7704,NNB,B,17
0,test,3,1.0,1-Back,,,Fri Nov 07 2025 13:24:52 GMT-0600 (Central Standard Time),433189.59999999404,173_y_f_n_a.png,O,space,6230,1,,1830.7999999821186,431358.8000000119,7704,NNB,B,0
1,test,3,0.0,1-Back,1.0,m,Fri Nov 07 2025 13:24:52 GMT-0600 (Central Standard Time),443452.8000000119,065_o_m_n_a.png,O,m,915,1,,1930.6000000238419,441522.1999999881,7704,NNB,B,1
2,test,3,1.0,1-Back,1.0,z,Fri Nov 07 2025 13:24:52 GMT-0600 (Central Standard Time),445235.3000000119,065_o_m_n_a.png,O,z,759,1,,1779.9000000059605,443455.40000000596,7704,NNB,B,2
3,test,3,0.0,1-Back,1.0,m,Fri Nov 07 2025 13:24:52 GMT-0600 (Central Standard Time),447134.59999999404,097_m_f_n_a.png,O,m,872,1,,1896.9000000059605,445237.6999999881,7704,NNB,B,3
4,test,3,1.0,1-Back,1.0,z,Fri Nov 07 2025 13:24:52 GMT-0600 (Central Standard Time),449150.5,097_m_f_n_a.png,O,z,997,1,,2013.4000000059605,447137.09999999404,7704,NNB,B,4
5,test,3,0.0,1-Back,1.0,m,Fri Nov 07 2025 13:24:52 GMT-0600 (Central Standard Time),451050.1999999881,110_o_f_n_a.png,O,m,869,1,,1896.699999988079,449153.5,7704,NNB,B,5
6,test,3,0.0,1-Back,1.0,m,Fri Nov 07 2025 13:24:52 GMT-0600 (Central Standard Time),452916.1999999881,153_y_m_n_a.png,O,m,841,1,,1862.699999988079,451053.5,7704,NNB,B,6
7,test,3,0.0,1-Back,1.0,m,Fri Nov 07 2025 13:24:52 GMT-0600 (Central Standard Time),454932.6999999881,110_o_f_n_a.png,O,m,992,1,,2013.5999999940395,452919.09999999404,7704,NNB,B,7
8,test,3,0.0,1-Back,1.0,m,Fri Nov 07 2025 13:24:52 GMT-0600 (Central Standard Time),456831.5,013_y_m_n_a.png,O,m,879,1,,1896.0999999940395,454935.40000000596,7704,NNB,B,8
9,test,3,1.0,1-Back,1.0,z,Fri Nov 07 2025 13:24:52 GMT-0600 (Central Standard Time),458514.3000000119,013_y_m_n_a.png,O,z,652,1,,1680.1000000238419,456834.1999999881,7704,NNB,B,9
10,test,3,0.0,1-Back,1.0,m,Fri Nov 07 2025 13:24:52 GMT-0600 (Central Standard Time),460613.6999999881,029_m_f_n_a.png,O,m,1072,1,,2096.2999999821186,458517.40000000596,7704,NNB,B,10
11,test,3,0.0,1-Back,1.0,m,Fri Nov 07 2025 13:24:52 GMT-0600 (Central Standard Time),462529.3000000119,152_y_f_n_a.png,O,m,894,1,,1912.300000011921,460617.0,7704,NNB,B,11
12,test,3,1.0,1-Back,1.0,z,Fri Nov 07 2025 13:24:52 GMT-0600 (Central Standard Time),464313.1999999881,152_y_f_n_a.png,O,z,754,1,,1781.5,462531.6999999881,7704,NNB,B,12
13,test,3,0.0,1-Back,1.0,m,Fri Nov 07 2025 13:24:52 GMT-0600 (Central Standard Time),466129.59999999404,029_m_f_n_a.png,O,m,795,1,,1813.4000000059605,464316.1999999881,7704,NNB,B,13
14,test,3,0.0,1-Back,1.0,m,Fri Nov 07 2025 13:24:52 GMT-0600 (Central Standard Time),468046.0,126_m_m_n_a.png,O,m,899,1,,1913.800000011921,466132.1999999881,7704,NNB,B,14
15,test,3,1.0,1-Back,1.0,z,Fri Nov 07 2025 13:24:52 GMT-0600 (Central Standard Time),469827.40000000596,126_m_m_n_a.png,O,z,751,1,,1778.4000000059605,468049.0,7704,NNB,B,15
16,test,3,0.0,1-Back,1.0,m,Fri Nov 07 2025 13:24:52 GMT-0600 (Central Standard Time),471793.5,086_o_f_n_a.png,O,m,944,1,,1963.5999999940395,469829.90000000596,7704,NNB,B,16
17,test,3,1.0,1-Back,1.0,z,Fri Nov 07 2025 13:24:52 GMT-0600 (Central Standard Time),473576.09999999404,086_o_f_n_a.png,O,z,755,1,,1779.699999988079,471796.40000000596,7704,NNB,B,17
0,test,4,1.0,1-Back,,,Fri Nov 07 2025 13:24:52 GMT-0600 (Central Standard Time),473576.09999999404,097_m_f_n_a.png,O,space,4131,1,,1779.699999988079,471796.40000000596,7704,NNB,B,0
1,test,4,0.0,1-Back,1.0,m,Fri Nov 07 2025 13:24:52 GMT-0600 (Central Standard Time),481707.3000000119,065_o_m_n_a.png,O,m,876,2,,1896.9000000059605,479810.40000000596,7704,NNB,B,1
2,test,4,0.0,1-Back,1.0,m,Fri Nov 07 2025 13:24:52 GMT-0600 (Central Standard Time),483706.3000000119,097_m_f_n_a.png,O,m,969,3,,1996.300000011921,481710.0,7704,NNB,B,2
3,test,4,0.0,1-Back,1.0,m,Fri Nov 07 2025 13:24:52 GMT-0600 (Central Standard Time),485589.1999999881,110_o_f_n_a.png,O,m,857,4,,1880.199999988079,483709.0,7704,NNB,B,3
4,test,4,1.0,1-Back,1.0,z,Fri Nov 07 2025 13:24:52 GMT-0600 (Central Standard Time),487321.90000000596,110_o_f_n_a.png,O,z,710,5,,1730.0999999940395,485591.8000000119,7704,NNB,B,4
5,test,4,0.0,1-Back,1.0,m,Fri Nov 07 2025 13:24:52 GMT-0600 (Central Standard Time),489370.90000000596,152_y_f_n_a.png,O,m,1026,6,,2046.5,487324.40000000596,7704,NNB,B,5
6,test,4,0.0,1-Back,1.0,m,Fri Nov 07 2025 13:24:52 GMT-0600 (Central Standard Time),491204.0,153_y_m_n_a.png,O,m,808,7,,1830.699999988079,489373.3000000119,7704,NNB,B,6
7,test,4,1.0,1-Back,1.0,z,Fri Nov 07 2025 13:24:52 GMT-0600 (Central Standard Time),493086.59999999404,153_y_m_n_a.png,O,z,855,8,,1879.9000000059605,491206.6999999881,7704,NNB,B,7
8,test,4,0.0,1-Back,1.0,m,Fri Nov 07 2025 13:24:52 GMT-0600 (Central Standard Time),495069.40000000596,152_y_f_n_a.png,O,m,956,9,,1980.4000000059605,493089.0,7704,NNB,B,8
9,test,4,0.0,1-Back,1.0,m,Fri Nov 07 2025 13:24:52 GMT-0600 (Central Standard Time),496935.0,178_m_m_n_a.png,O,m,838,10,,1862.9000000059605,495072.09999999404,7704,NNB,B,9
10,test,4,1.0,1-Back,1.0,z,Fri Nov 07 2025 13:24:52 GMT-0600 (Central Standard Time),498618.09999999404,178_m_m_n_a.png,O,z,651,11,,1680.4000000059605,496937.6999999881,7704,NNB,B,10
11,test,4,0.0,1-Back,1.0,m,Fri Nov 07 2025 13:24:52 GMT-0600 (Central Standard Time),500400.8000000119,086_o_f_n_a.png,O,m,761,12,,1780.0,498620.8000000119,7704,NNB,B,11
12,test,4,0.0,1-Back,1.0,m,Fri Nov 07 2025 13:24:52 GMT-0600 (Central Standard Time),502349.90000000596,176_o_m_n_a.png,O,m,922,13,,1946.2000000178814,500403.6999999881,7704,NNB,B,12
13,test,4,0.0,1-Back,1.0,m,Fri Nov 07 2025 13:24:52 GMT-0600 (Central Standard Time),504316.09999999404,086_o_f_n_a.png,O,m,941,14,,1961.2999999821186,502354.8000000119,7704,NNB,B,13
14,test,4,0.0,1-Back,1.0,m,Fri Nov 07 2025 13:24:52 GMT-0600 (Central Standard Time),506200.0,173_y_f_n_a.png,O,m,863,15,,1881.300000011921,504318.6999999881,7704,NNB,B,14
15,test,4,1.0,1-Back,1.0,z,Fri Nov 07 2025 13:24:52 GMT-0600 (Central Standard Time),507885.09999999404,173_y_f_n_a.png,O,z,668,16,,1682.4000000059605,506202.6999999881,7704,NNB,B,15
16,test,4,0.0,1-Back,1.0,m,Fri Nov 07 2025 13:24:52 GMT-0600 (Central Standard Time),509698.6999999881,029_m_f_n_a.png,O,m,785,17,,1808.699999988079,507890.0,7704,NNB,B,16
17,test,4,1.0,1-Back,1.0,z,Fri Nov 07 2025 13:24:52 GMT-0600 (Central Standard Time),511514.5,029_m_f_n_a.png,O,z,785,18,,1813.300000011921,509701.1999999881,7704,NNB,B,17
0,test,5,1.0,1-Back,,,Fri Nov 07 2025 13:24:52 GMT-0600 (Central Standard Time),511514.5,176_o_m_n_a.png,O,space,3097,1,,1813.300000011921,509701.1999999881,7704,NNB,B,0
1,test,5,1.0,1-Back,1.0,z,Fri Nov 07 2025 13:24:52 GMT-0600 (Central Standard Time),518595.6999999881,176_o_m_n_a.png,O,z,941,2,,1962.7999999821186,516632.90000000596,7704,NNB,B,1
2,test,5,0.0,1-Back,1.0,m,Fri Nov 07 2025 13:24:52 GMT-0600 (Central Standard Time),520410.6999999881,152_y_f_n_a.png,O,m,784,3,,1811.7999999821186,518598.90000000596,7704,NNB,B,2
3,test,5,0.0,1-Back,1.0,m,Fri Nov 07 2025 13:24:52 GMT-0600 (Central Standard Time),522244.8000000119,153_y_m_n_a.png,O,m,800,4,,1831.1000000238419,520413.6999999881,7704,NNB,B,3
4,test,5,0.0,1-Back,1.0,m,Fri Nov 07 2025 13:24:52 GMT-0600 (Central Standard Time),524576.1999999881,152_y_f_n_a.png,O,m,1303,5,,2328.699999988079,522247.5,7704,NNB,B,4
5,test,5,0.0,1-Back,1.0,m,Fri Nov 07 2025 13:24:52 GMT-0600 (Central Standard Time),526760.0,126_m_m_n_a.png,O,m,1163,6,,2181.199999988079,524578.8000000119,7704,NNB,B,5
6,test,5,1.0,1-Back,1.0,z,Fri Nov 07 2025 13:24:52 GMT-0600 (Central Standard Time),528625.1999999881,126_m_m_n_a.png,O,z,835,7,,1861.5999999940395,526763.599999994,7704,NNB,B,6
7,test,5,0.0,1-Back,1.0,m,Fri Nov 07 2025 13:24:52 GMT-0600 (Central Standard Time),530758.900000006,173_y_f_n_a.png,O,m,1106,8,,2130.9000000059605,528628.0,7704,NNB,B,7
8,test,5,0.0,1-Back,1.0,m,Fri Nov 07 2025 13:24:52 GMT-0600 (Central Standard Time),532840.3000000119,013_y_m_n_a.png,O,m,1062,9,,2078.9000000059605,530761.400000006,7704,NNB,B,8
9,test,5,0.0,1-Back,1.0,m,Fri Nov 07 2025 13:24:52 GMT-0600 (Central Standard Time),534839.400000006,173_y_f_n_a.png,O,m,979,10,,1995.9000000059605,532843.5,7704,NNB,B,9
10,test,5,0.0,1-Back,1.0,m,Fri Nov 07 2025 13:24:52 GMT-0600 (Central Standard Time),536872.5,086_o_f_n_a.png,O,m,1012,11,,2030.5999999940395,534841.900000006,7704,NNB,B,10
11,test,5,1.0,1-Back,1.0,z,Fri Nov 07 2025 13:24:52 GMT-0600 (Central Standard Time),538755.3000000119,086_o_f_n_a.png,O,z,859,12,,1880.0,536875.3000000119,7704,NNB,B,11
12,test,5,0.0,1-Back,1.0,m,Fri Nov 07 2025 13:24:52 GMT-0600 (Central Standard Time),540721.3000000119,065_o_m_n_a.png,O,m,944,13,,1963.6000000238419,538757.6999999881,7704,NNB,B,12
13,test,5,0.0,1-Back,1.0,m,Fri Nov 07 2025 13:24:52 GMT-0600 (Central Standard Time),542520.6999999881,097_m_f_n_a.png,O,m,770,14,,1797.0,540723.6999999881,7704,NNB,B,13
14,test,5,1.0,1-Back,1.0,z,Fri Nov 07 2025 13:24:52 GMT-0600 (Central Standard Time),544336.8000000119,097_m_f_n_a.png,O,z,786,15,,1813.4000000059605,542523.400000006,7704,NNB,B,14
15,test,5,0.0,1-Back,1.0,m,Fri Nov 07 2025 13:24:52 GMT-0600 (Central Standard Time),546385.900000006,065_o_m_n_a.png,O,m,1026,16,,2046.7000000178814,544339.1999999881,7704,NNB,B,15
16,test,5,0.0,1-Back,1.0,m,Fri Nov 07 2025 13:24:52 GMT-0600 (Central Standard Time),548169.6999999881,029_m_f_n_a.png,O,m,754,17,,1781.2999999821186,546388.400000006,7704,NNB,B,16
17,test,5,0.0,1-Back,1.0,m,Fri Nov 07 2025 13:24:52 GMT-0600 (Central Standard Time),550001.599999994,178_m_m_n_a.png,O,m,802,18,,1829.0,548172.599999994,7704,NNB,B,17
0,prac,1,0.0,2-Back,,,Fri Nov 07 2025 13:24:52 GMT-0600 (Central Standard Time),550001.599999994,013_y_m_n_a.png,O,space,7601,1,,1829.0,548172.599999994,7704,NNB,B,0
0,prac,1,0.0,2-Back,,,Fri Nov 07 2025 13:24:52 GMT-0600 (Central Standard Time),550001.599999994,029_m_f_n_a.png,O,space,7601,2,,1829.0,548172.599999994,7704,NNB,B,0
1,prac,1,1.0,2-Back,1.0,m,Fri Nov 07 2025 13:24:52 GMT-0600 (Central Standard Time),720113.5,065_o_m_n_a.png,O,m,1255,3,,2093.300000011921,718020.1999999881,7704,NNB,B,1
2,prac,1,0.0,2-Back,1.0,m,Fri Nov 07 2025 13:24:52 GMT-0600 (Central Standard Time),722563.099999994,086_o_f_n_a.png,O,m,1575,4,,2442.0999999940395,720121.0,7704,NNB,B,2
3,prac,1,0.0,2-Back,1.0,z,Fri Nov 07 2025 13:24:52 GMT-0600 (Central Standard Time),725012.8000000119,065_o_m_n_a.png,O,z,1668,5,,2444.9000000059605,722567.900000006,7704,NNB,B,3
3,prac,1,1.0,2-Back,0.0,z,Fri Nov 07 2025 13:24:52 GMT-0600 (Central Standard Time),726862.8000000119,086_o_f_n_a.png,O,m,1066,6,,1844.9000000059605,725017.900000006,7704,NNB,B,4
3,prac,1,0.0,2-Back,0.0,m,Fri Nov 07 2025 13:24:52 GMT-0600 (Central Standard Time),729727.599999994,178_m_m_n_a.png,O,None,2012,7,,2859.5999999940395,726868.0,7704,NNB,B,5
3,prac,1,0.0,2-Back,0.0,m,Fri Nov 07 2025 13:24:52 GMT-0600 (Central Standard Time),732578.1999999881,176_o_m_n_a.png,O,None,2005,8,,2845.5,729732.6999999881,7704,NNB,B,6
4,prac,1,0.0,2-Back,1.0,m,Fri Nov 07 2025 13:24:52 GMT-0600 (Central Standard Time),734742.599999994,173_y_f_n_a.png,O,m,1322,9,,2160.0,732582.599999994,7704,NNB,B,7
5,prac,1,1.0,2-Back,1.0,z,Fri Nov 07 2025 13:24:52 GMT-0600 (Central Standard Time),737191.900000006,176_o_m_n_a.png,O,z,1672,10,,2444.0,734747.900000006,7704,NNB,B,8
6,prac,1,0.0,2-Back,1.0,m,Fri Nov 07 2025 13:24:52 GMT-0600 (Central Standard Time),739158.6999999881,152_y_f_n_a.png,O,m,1125,11,,1962.8999999761581,737195.8000000119,7704,NNB,B,9
6,prac,1,0.0,2-Back,0.0,m,Fri Nov 07 2025 13:24:52 GMT-0600 (Central Standard Time),741123.8000000119,178_m_m_n_a.png,O,z,1193,12,,1961.2000000178814,739162.599999994,7704,NNB,B,10
0,prac,2,0.0,2-Back,,,Fri Nov 07 2025 13:24:52 GMT-0600 (Central Standard Time),741123.8000000119,013_y_m_n_a.png,O,a,8230,1,,1961.2000000178814,739162.599999994,7704,NNB,B,0
0,prac,2,0.0,2-Back,,,Fri Nov 07 2025 13:24:52 GMT-0600 (Central Standard Time),741123.8000000119,029_m_f_n_a.png,O,a,8230,2,,1961.2000000178814,739162.599999994,7704,NNB,B,0
1,prac,2,1.0,2-Back,1.0,m,Fri Nov 07 2025 13:24:52 GMT-0600 (Central Standard Time),757087.0,065_o_m_n_a.png,O,m,1663,3,,2510.0,754577.0,7704,NNB,B,1
2,prac,2,0.0,2-Back,1.0,m,Fri Nov 07 2025 13:24:52 GMT-0600 (Central Standard Time),759402.8000000119,086_o_f_n_a.png,O,m,1466,4,,2310.4000000059605,757092.400000006,7704,NNB,B,2
2,prac,2,0.0,2-Back,0.0,z,Fri Nov 07 2025 13:24:52 GMT-0600 (Central Standard Time),762185.0,065_o_m_n_a.png,O,None,2010,5,,2777.5999999940395,759407.400000006,7704,NNB,B,3
3,prac,2,1.0,2-Back,1.0,z,Fri Nov 07 2025 13:24:52 GMT-0600 (Central Standard Time),764316.8000000119,086_o_f_n_a.png,O,z,1357,6,,2126.5,762190.3000000119,7704,NNB,B,4
4,prac,2,0.0,2-Back,1.0,m,Fri Nov 07 2025 13:24:52 GMT-0600 (Central Standard Time),766265.900000006,178_m_m_n_a.png,O,m,1178,7,,1944.300000011921,764321.599999994,7704,NNB,B,5
5,prac,2,0.0,2-Back,1.0,m,Fri Nov 07 2025 13:24:52 GMT-0600 (Central Standard Time),768581.599999994,176_o_m_n_a.png,O,m,1433,8,,2308.9000000059605,766272.6999999881,7704,NNB,B,6
6,prac,2,0.0,2-Back,1.0,m,Fri Nov 07 2025 13:24:52 GMT-0600 (Central Standard Time),770631.0,173_y_f_n_a.png,O,m,1199,9,,2044.5999999940395,768586.400000006,7704,NNB,B,7
7,prac,2,1.0,2-Back,1.0,z,Fri Nov 07 2025 13:24:52 GMT-0600 (Central Standard Time),772580.5,176_o_m_n_a.png,O,z,1175,10,,1944.4000000059605,770636.099999994,7704,NNB,B,8
8,prac,2,0.0,2-Back,1.0,m,Fri Nov 07 2025 13:24:52 GMT-0600 (Central Standard Time),774480.0,152_y_f_n_a.png,O,m,1057,11,,1895.0,772585.0,7704,NNB,B,9
8,prac,2,0.0,2-Back,0.0,m,Fri Nov 07 2025 13:24:52 GMT-0600 (Central Standard Time),776746.1999999881,178_m_m_n_a.png,O,z,1479,12,,2261.899999976158,774484.3000000119,7704,NNB,B,10
0,test,1,0.0,2-Back,,,Fri Nov 07 2025 13:24:52 GMT-0600 (Central Standard Time),776746.1999999881,153_y_m_n_a.png,O,space,19949,1,,2261.899999976158,774484.3000000119,7704,NNB,B,0
0,test,1,0.0,2-Back,,,Fri Nov 07 2025 13:24:52 GMT-0600 (Central Standard Time),776746.1999999881,153_y_m_n_a.png,O,space,19949,2,,2261.899999976158,774484.3000000119,7704,NNB,B,0
1,test,1,0.0,2-Back,1.0,m,Fri Nov 07 2025 13:24:52 GMT-0600 (Central Standard Time),820249.3000000119,086_o_f_n_a.png,O,m,1169,3,,2196.100000023842,818053.1999999881,7704,NNB,B,1
2,test,1,0.0,2-Back,1.0,m,Fri Nov 07 2025 13:24:52 GMT-0600 (Central Standard Time),822464.900000006,126_m_m_n_a.png,O,m,1186,4,,2213.300000011921,820251.599999994,7704,NNB,B,2
3,test,1,1.0,2-Back,1.0,z,Fri Nov 07 2025 13:24:52 GMT-0600 (Central Standard Time),824564.5,086_o_f_n_a.png,O,z,1075,5,,2097.0999999940395,822467.400000006,7704,NNB,B,3
4,test,1,0.0,2-Back,1.0,m,Fri Nov 07 2025 13:24:52 GMT-0600 (Central Standard Time),826531.1999999881,152_y_f_n_a.png,O,m,942,6,,1964.0999999940395,824567.099999994,7704,NNB,B,4
4,test,1,0.0,2-Back,0.0,m,Fri Nov 07 2025 13:24:52 GMT-0600 (Central Standard Time),828729.3000000119,126_m_m_n_a.png,O,z,1169,7,,2195.4000000059605,826533.900000006,7704,NNB,B,5
4,test,1,1.0,2-Back,0.0,z,Fri Nov 07 2025 13:24:52 GMT-0600 (Central Standard Time),830562.1999999881,152_y_f_n_a.png,O,m,802,8,,1829.5999999940395,828732.599999994,7704,NNB,B,6
5,test,1,0.0,2-Back,1.0,m,Fri Nov 07 2025 13:24:52 GMT-0600 (Central Standard Time),832945.400000006,013_y_m_n_a.png,O,m,1361,9,,2380.5999999940395,830564.8000000119,7704,NNB,B,7
6,test,1,0.0,2-Back,1.0,m,Fri Nov 07 2025 13:24:52 GMT-0600 (Central Standard Time),834994.1999999881,110_o_f_n_a.png,O,m,1018,10,,2046.3999999761581,832947.8000000119,7704,NNB,B,8
6,test,1,1.0,2-Back,0.0,z,Fri Nov 07 2025 13:24:52 GMT-0600 (Central Standard Time),837826.6999999881,013_y_m_n_a.png,O,m,1810,11,,2829.2999999821186,834997.400000006,7704,NNB,B,9
7,test,1,0.0,2-Back,1.0,m,Fri Nov 07 2025 13:24:52 GMT-0600 (Central Standard Time),840042.400000006,029_m_f_n_a.png,O,m,1192,12,,2213.300000011921,837829.099999994,7704,NNB,B,10
7,test,1,0.0,2-Back,0.0,m,Fri Nov 07 2025 13:24:52 GMT-0600 (Central Standard Time),841776.1999999881,029_m_f_n_a.png,O,z,704,13,,1731.3999999761581,840044.8000000119,7704,NNB,B,11
7,test,1,0.0,2-Back,0.0,m,Fri Nov 07 2025 13:24:52 GMT-0600 (Central Standard Time),844808.1999999881,065_o_m_n_a.png,O,None,2016,14,,3029.5,841778.6999999881,7704,NNB,B,12
8,test,1,0.0,2-Back,1.0,m,Fri Nov 07 2025 13:24:52 GMT-0600 (Central Standard Time),846690.8000000119,110_o_f_n_a.png,O,m,852,15,,1880.2000000178814,844810.599999994,7704,NNB,B,13
9,test,1,1.0,2-Back,1.0,z,Fri Nov 07 2025 13:24:52 GMT-0600 (Central Standard Time),848706.8000000119,065_o_m_n_a.png,O,z,985,16,,2013.2000000178814,846693.599999994,7704,NNB,B,14
10,test,1,0.0,2-Back,1.0,m,Fri Nov 07 2025 13:24:52 GMT-0600 (Central Standard Time),850572.6999999881,097_m_f_n_a.png,O,m,833,17,,1863.5,848709.1999999881,7704,NNB,B,15
11,test,1,0.0,2-Back,1.0,m,Fri Nov 07 2025 13:24:52 GMT-0600 (Central Standard Time),853072.099999994,178_m_m_n_a.png,O,m,1470,18,,2496.7999999821186,850575.3000000119,7704,NNB,B,16
0,test,2,0.0,2-Back,,,Fri Nov 07 2025 13:24:52 GMT-0600 (Central Standard Time),853072.099999994,178_m_m_n_a.png,O,space,5612,1,,2496.7999999821186,850575.3000000119,7704,NNB,B,0
0,test,2,0.0,2-Back,,,Fri Nov 07 2025 13:24:52 GMT-0600 (Central Standard Time),853072.099999994,173_y_f_n_a.png,O,space,5612,2,,2496.7999999821186,850575.3000000119,7704,NNB,B,0
1,test,2,1.0,2-Back,1.0,z,Fri Nov 07 2025 13:24:52 GMT-0600 (Central Standard Time),865401.400000006,178_m_m_n_a.png,O,z,578,3,,1597.300000011921,863804.099999994,7704,NNB,B,1
2,test,2,0.0,2-Back,1.0,m,Fri Nov 07 2025 13:24:52 GMT-0600 (Central Standard Time),867600.0,097_m_f_n_a.png,O,m,1177,4,,2195.9000000059605,865404.099999994,7704,NNB,B,2
2,test,2,0.0,2-Back,0.0,m,Fri Nov 07 2025 13:24:52 GMT-0600 (Central Standard Time),869534.3000000119,173_y_f_n_a.png,O,z,907,5,,1931.800000011921,867602.5,7704,NNB,B,3
3,test,2,0.0,2-Back,1.0,m,Fri Nov 07 2025 13:24:52 GMT-0600 (Central Standard Time),871616.599999994,065_o_m_n_a.png,O,m,1062,6,,2079.7999999821186,869536.8000000119,7704,NNB,B,4
4,test,2,0.0,2-Back,1.0,m,Fri Nov 07 2025 13:24:52 GMT-0600 (Central Standard Time),873615.0,152_y_f_n_a.png,O,m,971,7,,1995.5,871619.5,7704,NNB,B,5
4,test,2,1.0,2-Back,0.0,z,Fri Nov 07 2025 13:24:52 GMT-0600 (Central Standard Time),876647.599999994,065_o_m_n_a.png,O,None,2015,8,,3030.0999999940395,873617.5,7704,NNB,B,6
5,test,2,0.0,2-Back,1.0,m,Fri Nov 07 2025 13:24:52 GMT-0600 (Central Standard Time),878847.6999999881,013_y_m_n_a.png,O,m,1171,9,,2197.5,876650.1999999881,7704,NNB,B,7
5,test,2,0.0,2-Back,0.0,m,Fri Nov 07 2025 13:24:52 GMT-0600 (Central Standard Time),881713.0,013_y_m_n_a.png,O,z,1836,10,,2862.4000000059605,878850.599999994,7704,NNB,B,8
6,test,2,0.0,2-Back,1.0,m,Fri Nov 07 2025 13:24:52 GMT-0600 (Central Standard Time),883778.5,029_m_f_n_a.png,O,m,1043,11,,2062.4000000059605,881716.099999994,7704,NNB,B,9
7,test,2,0.0,2-Back,1.0,m,Fri Nov 07 2025 13:24:52 GMT-0600 (Central Standard Time),886394.3000000119,173_y_f_n_a.png,O,m,1593,12,,2613.2000000178814,883781.099999994,7704,NNB,B,10
8,test,2,1.0,2-Back,1.0,z,Fri Nov 07 2025 13:24:52 GMT-0600 (Central Standard Time),888844.099999994,029_m_f_n_a.png,O,z,1417,13,,2446.9000000059605,886397.1999999881,7704,NNB,B,11
9,test,2,0.0,2-Back,1.0,m,Fri Nov 07 2025 13:24:52 GMT-0600 (Central Standard Time),890626.8000000119,176_o_m_n_a.png,O,m,751,14,,1780.2000000178814,888846.599999994,7704,NNB,B,12
9,test,2,0.0,2-Back,0.0,m,Fri Nov 07 2025 13:24:52 GMT-0600 (Central Standard Time),893644.099999994,176_o_m_n_a.png,O,None,2001,15,,3014.9000000059605,890629.1999999881,7704,NNB,B,13
10,test,2,0.0,2-Back,1.0,m,Fri Nov 07 2025 13:24:52 GMT-0600 (Central Standard Time),895857.900000006,110_o_f_n_a.png,O,m,1185,16,,2210.9000000059605,893647.0,7704,NNB,B,14
11,test,2,0.0,2-Back,1.0,m,Fri Nov 07 2025 13:24:52 GMT-0600 (Central Standard Time),898040.8000000119,126_m_m_n_a.png,O,m,1153,17,,2180.4000000059605,895860.400000006,7704,NNB,B,15
12,test,2,1.0,2-Back,1.0,z,Fri Nov 07 2025 13:24:52 GMT-0600 (Central Standard Time),900189.900000006,110_o_f_n_a.png,O,z,1121,18,,2146.300000011921,898043.599999994,7704,NNB,B,16
0,test,3,1.0,2-Back,,,Fri Nov 07 2025 13:24:52 GMT-0600 (Central Standard Time),900189.900000006,153_y_m_n_a.png,O,space,7654,1,,2146.300000011921,898043.599999994,7704,NNB,B,0
0,test,3,1.0,2-Back,,,Fri Nov 07 2025 13:24:52 GMT-0600 (Central Standard Time),900189.900000006,153_y_m_n_a.png,O,space,7654,2,,2146.300000011921,898043.599999994,7704,NNB,B,0
1,test,3,0.0,2-Back,1.0,m,Fri Nov 07 2025 13:24:52 GMT-0600 (Central Standard Time),915052.099999994,110_o_f_n_a.png,O,m,1066,3,,2080.199999988079,912971.900000006,7704,NNB,B,1
2,test,3,0.0,2-Back,1.0,m,Fri Nov 07 2025 13:24:52 GMT-0600 (Central Standard Time),917152.0,178_m_m_n_a.png,O,m,1080,4,,2097.0,915055.0,7704,NNB,B,2
3,test,3,1.0,2-Back,1.0,z,Fri Nov 07 2025 13:24:52 GMT-0600 (Central Standard Time),919301.8000000119,110_o_f_n_a.png,O,z,1124,5,,2147.4000000059605,917154.400000006,7704,NNB,B,3
4,test,3,0.0,2-Back,1.0,m,Fri Nov 07 2025 13:24:52 GMT-0600 (Central Standard Time),921433.599999994,013_y_m_n_a.png,O,m,1110,6,,2129.0999999940395,919304.5,7704,NNB,B,4
5,test,3,0.0,2-Back,1.0,m,Fri Nov 07 2025 13:24:52 GMT-0600 (Central Standard Time),923783.6999999881,178_m_m_n_a.png,O,m,1330,7,,2347.5999999940395,921436.099999994,7704,NNB,B,5
6,test,3,1.0,2-Back,1.0,z,Fri Nov 07 2025 13:24:52 GMT-0600 (Central Standard Time),925948.6999999881,013_y_m_n_a.png,O,z,1140,8,,2162.5,923786.1999999881,7704,NNB,B,6
7,test,3,0.0,2-Back,1.0,m,Fri Nov 07 2025 13:24:52 GMT-0600 (Central Standard Time),928882.6999999881,173_y_f_n_a.png,O,m,1902,9,,2929.199999988079,925953.5,7704,NNB,B,7
8,test,3,0.0,2-Back,1.0,m,Fri Nov 07 2025 13:24:52 GMT-0600 (Central Standard Time),931146.599999994,126_m_m_n_a.png,O,m,1242,10,,2261.4000000059605,928885.1999999881,7704,NNB,B,8
9,test,3,1.0,2-Back,1.0,z,Fri Nov 07 2025 13:24:52 GMT-0600 (Central Standard Time),932979.1999999881,173_y_f_n_a.png,O,z,801,11,,1826.8999999761581,931152.3000000119,7704,NNB,B,9
10,test,3,1.0,2-Back,1.0,z,Fri Nov 07 2025 13:24:52 GMT-0600 (Central Standard Time),935862.0,126_m_m_n_a.png,O,z,1856,12,,2880.0999999940395,932981.900000006,7704,NNB,B,10
11,test,3,0.0,2-Back,1.0,m,Fri Nov 07 2025 13:24:52 GMT-0600 (Central Standard Time),937712.099999994,110_o_f_n_a.png,O,m,829,13,,1847.5,935864.599999994,7704,NNB,B,11
12,test,3,0.0,2-Back,1.0,m,Fri Nov 07 2025 13:24:52 GMT-0600 (Central Standard Time),939628.6999999881,097_m_f_n_a.png,O,m,891,14,,1914.2999999821186,937714.400000006,7704,NNB,B,12
13,test,3,0.0,2-Back,1.0,m,Fri Nov 07 2025 13:24:52 GMT-0600 (Central Standard Time),941628.099999994,065_o_m_n_a.png,O,m,967,15,,1996.699999988079,939631.400000006,7704,NNB,B,13
14,test,3,1.0,2-Back,1.0,z,Fri Nov 07 2025 13:24:52 GMT-0600 (Central Standard Time),944010.1999999881,097_m_f_n_a.png,O,z,1352,16,,2379.5999999940395,941630.599999994,7704,NNB,B,14
15,test,3,0.0,2-Back,1.0,m,Fri Nov 07 2025 13:24:52 GMT-0600 (Central Standard Time),945976.099999994,086_o_f_n_a.png,O,m,938,17,,1963.5,944012.599999994,7704,NNB,B,15
15,test,3,0.0,2-Back,0.0,m,Fri Nov 07 2025 13:24:52 GMT-0600 (Central Standard Time),948275.400000006,086_o_f_n_a.png,O,z,1276,18,,2296.9000000059605,945978.5,7704,NNB,B,16
0,test,4,0.0,2-Back,,,Fri Nov 07 2025 13:24:52 GMT-0600 (Central Standard Time),948275.400000006,176_o_m_n_a.png,O,space,4408,1,,2296.9000000059605,945978.5,7704,NNB,B,0
0,test,4,0.0,2-Back,,,Fri Nov 07 2025 13:24:52 GMT-0600 (Central Standard Time),948275.400000006,152_y_f_n_a.png,O,space,4408,2,,2296.9000000059605,945978.5,7704,NNB,B,0
1,test,4,1.0,2-Back,1.0,z,Fri Nov 07 2025 13:24:52 GMT-0600 (Central Standard Time),960471.3000000119,176_o_m_n_a.png,O,z,1572,3,,2595.0,957876.3000000119,7704,NNB,B,1
2,test,4,1.0,2-Back,1.0,z,Fri Nov 07 2025 13:24:52 GMT-0600 (Central Standard Time),962737.400000006,152_y_f_n_a.png,O,z,1245,4,,2262.9000000059605,960474.5,7704,NNB,B,2
3,test,4,0.0,2-Back,1.0,m,Fri Nov 07 2025 13:24:52 GMT-0600 (Central Standard Time),964537.099999994,110_o_f_n_a.png,O,m,770,5,,1797.0999999940395,962740.0,7704,NNB,B,3
4,test,4,0.0,2-Back,1.0,m,Fri Nov 07 2025 13:24:52 GMT-0600 (Central Standard Time),966969.3000000119,110_o_f_n_a.png,O,m,1403,6,,2429.4000000059605,964539.900000006,7704,NNB,B,4
5,test,4,0.0,2-Back,1.0,m,Fri Nov 07 2025 13:24:52 GMT-0600 (Central Standard Time),969435.6999999881,029_m_f_n_a.png,O,m,1434,7,,2463.899999976158,966971.8000000119,7704,NNB,B,5
6,test,4,0.0,2-Back,1.0,m,Fri Nov 07 2025 13:24:52 GMT-0600 (Central Standard Time),971285.400000006,013_y_m_n_a.png,O,m,824,8,,1847.0,969438.400000006,7704,NNB,B,6
7,test,4,1.0,2-Back,1.0,z,Fri Nov 07 2025 13:24:52 GMT-0600 (Central Standard Time),973417.400000006,029_m_f_n_a.png,O,z,1103,9,,2127.800000011921,971289.599999994,7704,NNB,B,7
8,test,4,0.0,2-Back,1.0,m,Fri Nov 07 2025 13:24:52 GMT-0600 (Central Standard Time),975366.599999994,126_m_m_n_a.png,O,m,922,10,,1946.5999999940395,973420.0,7704,NNB,B,8
8,test,4,0.0,2-Back,0.0,m,Fri Nov 07 2025 13:24:52 GMT-0600 (Central Standard Time),977531.900000006,013_y_m_n_a.png,O,z,1142,11,,2162.800000011921,975369.099999994,7704,NNB,B,9
9,test,4,0.0,2-Back,1.0,m,Fri Nov 07 2025 13:24:52 GMT-0600 (Central Standard Time),979514.5,086_o_f_n_a.png,O,m,960,12,,1980.199999988079,977534.3000000119,7704,NNB,B,10
10,test,4,0.0,2-Back,1.0,m,Fri Nov 07 2025 13:24:52 GMT-0600 (Central Standard Time),981796.900000006,153_y_m_n_a.png,O,m,1257,13,,2279.800000011921,979517.099999994,7704,NNB,B,11
11,test,4,1.0,2-Back,1.0,z,Fri Nov 07 2025 13:24:52 GMT-0600 (Central Standard Time),984029.599999994,086_o_f_n_a.png,O,z,1213,14,,2230.199999988079,981799.400000006,7704,NNB,B,12
12,test,4,1.0,2-Back,1.0,z,Fri Nov 07 2025 13:24:52 GMT-0600 (Central Standard Time),986262.1999999881,153_y_m_n_a.png,O,z,1214,15,,2230.0,984032.1999999881,7704,NNB,B,13
13,test,4,0.0,2-Back,1.0,m,Fri Nov 07 2025 13:24:52 GMT-0600 (Central Standard Time),988062.099999994,178_m_m_n_a.png,O,m,780,16,,1797.199999988079,986264.900000006,7704,NNB,B,14
14,test,4,0.0,2-Back,1.0,m,Fri Nov 07 2025 13:24:52 GMT-0600 (Central Standard Time),990027.6999999881,097_m_f_n_a.png,O,m,940,17,,1963.0,988064.6999999881,7704,NNB,B,15
15,test,4,1.0,2-Back,1.0,z,Fri Nov 07 2025 13:24:52 GMT-0600 (Central Standard Time),992344.0,178_m_m_n_a.png,O,z,1287,18,,2313.800000011921,990030.1999999881,7704,NNB,B,16
0,test,5,1.0,2-Back,,,Fri Nov 07 2025 13:24:52 GMT-0600 (Central Standard Time),992344.0,153_y_m_n_a.png,O,space,5388,1,,2313.800000011921,990030.1999999881,7704,NNB,B,0
0,test,5,1.0,2-Back,,,Fri Nov 07 2025 13:24:52 GMT-0600 (Central Standard Time),992344.0,097_m_f_n_a.png,O,space,5388,2,,2313.800000011921,990030.1999999881,7704,NNB,B,0
0,test,5,1.0,2-Back,0.0,z,Fri Nov 07 2025 13:24:52 GMT-0600 (Central Standard Time),1004474.5,153_y_m_n_a.png,O,m,678,3,,1697.5,1002777.0,7704,NNB,B,1
1,test,5,1.0,2-Back,1.0,z,Fri Nov 07 2025 13:24:52 GMT-0600 (Central Standard Time),1007473.099999994,097_m_f_n_a.png,O,z,1978,4,,2996.0999999940395,1004477.0,7704,NNB,B,2
2,test,5,0.0,2-Back,1.0,m,Fri Nov 07 2025 13:24:52 GMT-0600 (Central Standard Time),1009321.599999994,086_o_f_n_a.png,O,m,819,5,,1846.0,1007475.599999994,7704,NNB,B,3
3,test,5,0.0,2-Back,1.0,m,Fri Nov 07 2025 13:24:52 GMT-0600 (Central Standard Time),1012105.099999994,153_y_m_n_a.png,O,m,1754,6,,2781.0999999940395,1009324.0,7704,NNB,B,4
4,test,5,0.0,2-Back,1.0,m,Fri Nov 07 2025 13:24:52 GMT-0600 (Central Standard Time),1014186.5,173_y_f_n_a.png,O,m,1058,7,,2078.5999999940395,1012107.900000006,7704,NNB,B,5
4,test,5,0.0,2-Back,0.0,m,Fri Nov 07 2025 13:24:52 GMT-0600 (Central Standard Time),1016302.599999994,086_o_f_n_a.png,O,z,1097,8,,2113.5,1014189.099999994,7704,NNB,B,6
5,test,5,1.0,2-Back,1.0,z,Fri Nov 07 2025 13:24:52 GMT-0600 (Central Standard Time),1018319.0,173_y_f_n_a.png,O,z,988,9,,2013.5,1016305.5,7704,NNB,B,7
6,test,5,0.0,2-Back,1.0,m,Fri Nov 07 2025 13:24:52 GMT-0600 (Central Standard Time),1020203.0,065_o_m_n_a.png,O,m,852,10,,1881.5,1018321.5,7704,NNB,B,8
7,test,5,0.0,2-Back,1.0,m,Fri Nov 07 2025 13:24:52 GMT-0600 (Central Standard Time),1022100.900000006,029_m_f_n_a.png,O,m,873,11,,1895.2000000178814,1020205.6999999881,7704,NNB,B,9
8,test,5,0.0,2-Back,1.0,m,Fri Nov 07 2025 13:24:52 GMT-0600 (Central Standard Time),1024167.0,126_m_m_n_a.png,O,m,1038,12,,2063.300000011921,1022103.6999999881,7704,NNB,B,10
8,test,5,0.0,2-Back,0.0,m,Fri Nov 07 2025 13:24:52 GMT-0600 (Central Standard Time),1026416.099999994,065_o_m_n_a.png,O,z,1215,13,,2246.699999988079,1024169.400000006,7704,NNB,B,11
9,test,5,1.0,2-Back,1.0,z,Fri Nov 07 2025 13:24:52 GMT-0600 (Central Standard Time),1028632.1999999881,126_m_m_n_a.png,O,z,1196,14,,2213.5,1026418.6999999881,7704,NNB,B,12
10,test,5,0.0,2-Back,1.0,m,Fri Nov 07 2025 13:24:52 GMT-0600 (Central Standard Time),1030481.5,152_y_f_n_a.png,O,m,827,15,,1846.199999988079,1028635.3000000119,7704,NNB,B,13
11,test,5,0.0,2-Back,1.0,m,Fri Nov 07 2025 13:24:52 GMT-0600 (Central Standard Time),1032497.6999999881,176_o_m_n_a.png,O,m,986,16,,2013.3999999761581,1030484.3000000119,7704,NNB,B,14
12,test,5,0.0,2-Back,1.0,m,Fri Nov 07 2025 13:24:52 GMT-0600 (Central Standard Time),1034397.6999999881,029_m_f_n_a.png,O,m,874,17,,1897.3999999761581,1032500.3000000119,7704,NNB,B,15
13,test,5,1.0,2-Back,1.0,z,Fri Nov 07 2025 13:24:52 GMT-0600 (Central Standard Time),1036446.5,176_o_m_n_a.png,O,z,1023,18,,2046.4000000059605,1034400.099999994,7704,NNB,B,16
