acc_sum,block,block_c,block_cond,con_img,correct,correct_response,datetime,endtime,face,jitter,line,project,response,response_time,row_sel,session_number,start_end,starttime,subject_id,task,task_vers,trial
0,prac,1,A,haborder.png,0,m,Mon Oct 06 2025 17:26:14 GMT-0500 (Central Daylight Time),71892.19999998808,CFD-WF-017-016-HC.jpg,1500,solid,I,None,1515,11,1,3800.099999964237,68092.10000002384,8068,ATS,A,1
1,prac,1,A,haborder.png,1,z,Mon Oct 06 2025 17:26:14 GMT-0500 (Central Daylight Time),74525.69999998808,CFD-WF-019-015-A.jpg,1000,solid,I,z,846,12,1,6433.599999964237,68092.10000002384,8068,ATS,A,2
2,prac,1,A,haborder.png,1,m,Mon Oct 06 2025 17:26:14 GMT-0500 (Central Daylight Time),77707.10000002384,CFD-WM-006-013-HC.jpg,1700,solid,I,m,690,9,1,9615.0,68092.10000002384,8068,ATS,A,3
3,prac,1,A,haborder.png,1,z,Mon Oct 06 2025 17:26:14 GMT-0500 (Central Daylight Time),80557.80000001192,CFD-BF-039-039-A.jpg,1200,solid,I,z,878,6,1,12465.699999988079,68092.10000002384,8068,ATS,A,4
4,prac,1,A,haborder.png,1,z,Mon Oct 06 2025 17:26:14 GMT-0500 (Central Daylight Time),83655.30000001192,CFD-BM-005-010-A.jpg,1600,solid,I,z,700,2,1,15563.199999988079,68092.10000002384,8068,ATS,A,5
4,prac,1,A,haborder.png,0,z,Mon Oct 06 2025 17:26:14 GMT-0500 (Central Daylight Time),87487.30000001192,CFD-WM-013-015-A.jpg,1900,solid,I,m,1141,8,1,19395.19999998808,68092.10000002384,8068,ATS,A,6
4,prac,1,A,haborder.png,0,m,Mon Oct 06 2025 17:26:14 GMT-0500 (Central Daylight Time),90402.19999998808,CFD-WM-004-005-HC.jpg,1400,solid,I,z,723,7,1,22310.099999964237,68092.10000002384,8068,ATS,A,7
5,prac,1,A,haborder.png,1,z,Mon Oct 06 2025 17:26:14 GMT-0500 (Central Daylight Time),93286.80000001192,CFD-BF-023-013-A.jpg,1000,solid,I,z,1102,4,1,25194.69999998808,68092.10000002384,8068,ATS,A,8
5,prac,1,A,haborder.png,0,m,Mon Oct 06 2025 17:26:14 GMT-0500 (Central Daylight Time),96734.60000002384,CFD-BM-029-026-HC.jpg,1500,solid,I,z,1159,3,1,28642.5,68092.10000002384,8068,ATS,A,9
6,prac,1,A,haborder.png,1,z,Mon Oct 06 2025 17:26:14 GMT-0500 (Central Daylight Time),100599.80000001192,CFD-WF-003-014-A.jpg,1600,solid,I,z,1484,10,1,32507.69999998808,68092.10000002384,8068,ATS,A,10
7,prac,1,A,haborder.png,1,m,Mon Oct 06 2025 17:26:14 GMT-0500 (Central Daylight Time),104065.19999998808,CFD-BM-017-052-HC.jpg,1700,solid,I,m,985,1,1,35973.09999996424,68092.10000002384,8068,ATS,A,11
8,prac,1,A,haborder.png,1,m,Mon Oct 06 2025 17:26:14 GMT-0500 (Central Daylight Time),107781.69999998808,CFD-BF-028-020-HC.jpg,2000,solid,I,m,928,5,1,39689.59999996424,68092.10000002384,8068,ATS,A,12
1,prac,1,B,mfborder.png,1,m,Mon Oct 06 2025 17:26:14 GMT-0500 (Central Daylight Time),135657.0,CFD-WM-013-015-A.jpg,1700,dash,I,m,1042,9,1,3532.199999988079,132124.80000001192,8068,ATS,A,1
2,prac,1,B,mfborder.png,1,m,Mon Oct 06 2025 17:26:14 GMT-0500 (Central Daylight Time),138455.39999997616,CFD-WM-019-013-A.jpg,1200,dash,I,m,808,6,1,6330.599999964237,132124.80000001192,8068,ATS,A,2
3,prac,1,B,mfborder.png,1,m,Mon Oct 06 2025 17:26:14 GMT-0500 (Central Daylight Time),141736.60000002384,CFD-WM-006-013-HC.jpg,1600,dash,I,m,899,10,1,9611.800000011921,132124.80000001192,8068,ATS,A,3
4,prac,1,B,mfborder.png,1,z,Mon Oct 06 2025 17:26:14 GMT-0500 (Central Daylight Time),145035.5,CFD-WF-002-008-HC.jpg,1900,dash,I,z,606,8,1,12910.699999988079,132124.80000001192,8068,ATS,A,4
5,prac,1,B,mfborder.png,1,m,Mon Oct 06 2025 17:26:14 GMT-0500 (Central Daylight Time),148717.80000001192,CFD-BM-010-019-A.jpg,1600,dash,I,m,1294,2,1,16593.0,132124.80000001192,8068,ATS,A,5
6,prac,1,B,mfborder.png,1,z,Mon Oct 06 2025 17:26:14 GMT-0500 (Central Daylight Time),151567.30000001192,CFD-BF-023-013-A.jpg,1000,dash,I,z,1058,4,1,19442.5,132124.80000001192,8068,ATS,A,6
7,prac,1,B,mfborder.png,1,z,Mon Oct 06 2025 17:26:14 GMT-0500 (Central Daylight Time),154050.0,CFD-WF-017-016-HC.jpg,1000,dash,I,z,683,12,1,21925.19999998808,132124.80000001192,8068,ATS,A,7
8,prac,1,B,mfborder.png,1,z,Mon Oct 06 2025 17:26:14 GMT-0500 (Central Daylight Time),157065.5,CFD-WF-003-014-A.jpg,1500,dash,I,z,715,11,1,24940.69999998808,132124.80000001192,8068,ATS,A,8
9,prac,1,B,mfborder.png,1,z,Mon Oct 06 2025 17:26:14 GMT-0500 (Central Daylight Time),159964.0,CFD-BF-028-020-HC.jpg,1400,dash,I,z,703,7,1,27839.19999998808,132124.80000001192,8068,ATS,A,9
10,prac,1,B,mfborder.png,1,m,Mon Oct 06 2025 17:26:14 GMT-0500 (Central Daylight Time),163497.89999997616,CFD-BM-005-010-A.jpg,2000,dash,I,m,764,5,1,31373.099999964237,132124.80000001192,8068,ATS,A,10
11,prac,1,B,mfborder.png,1,z,Mon Oct 06 2025 17:26:14 GMT-0500 (Central Daylight Time),166680.10000002384,CFD-BF-010-005-HC.jpg,1500,dash,I,z,892,3,1,34555.30000001192,132124.80000001192,8068,ATS,A,11
12,prac,1,B,mfborder.png,1,m,Mon Oct 06 2025 17:26:14 GMT-0500 (Central Daylight Time),169962.80000001192,CFD-BM-029-026-HC.jpg,1700,dash,I,m,785,1,1,37838.0,132124.80000001192,8068,ATS,A,12
0,test,1,A,haborder.png,0,m,Mon Oct 06 2025 17:26:14 GMT-0500 (Central Daylight Time),190771.60000002384,CFD-BF-028-020-HC.jpg,2000,solid,I,None,1515,5,1,3532.400000035763,187239.19999998808,8068,ATS,A,1
1,test,1,A,haborder.png,1,z,Mon Oct 06 2025 17:26:14 GMT-0500 (Central Daylight Time),193353.60000002384,CFD-WF-003-014-A.jpg,1600,solid,I,z,960,10,1,6114.400000035763,187239.19999998808,8068,ATS,A,2
1,test,1,A,haborder.png,0,z,Mon Oct 06 2025 17:26:14 GMT-0500 (Central Daylight Time),196785.60000002384,CFD-WM-013-015-A.jpg,1900,solid,I,None,1515,8,1,9546.400000035763,187239.19999998808,8068,ATS,A,3
2,test,1,A,haborder.png,1,m,Mon Oct 06 2025 17:26:14 GMT-0500 (Central Daylight Time),199334.5,CFD-BM-017-052-HC.jpg,1700,solid,I,m,818,1,1,12095.300000011921,187239.19999998808,8068,ATS,A,4
3,test,1,A,haborder.png,1,z,Mon Oct 06 2025 17:26:14 GMT-0500 (Central Daylight Time),202135.10000002384,CFD-BM-005-010-A.jpg,1600,solid,I,z,1178,2,1,14895.900000035763,187239.19999998808,8068,ATS,A,5
4,test,1,A,haborder.png,1,m,Mon Oct 06 2025 17:26:14 GMT-0500 (Central Daylight Time),204967.39999997616,CFD-BM-017-052-HC.jpg,1700,solid,I,m,1112,1,1,17728.19999998808,187239.19999998808,8068,ATS,A,6
4,test,1,A,haborder.png,0,z,Mon Oct 06 2025 17:26:14 GMT-0500 (Central Daylight Time),208131.10000002384,CFD-WM-013-015-A.jpg,1900,solid,I,m,1240,8,1,20891.900000035763,187239.19999998808,8068,ATS,A,7
4,test,1,A,haborder.png,0,z,Mon Oct 06 2025 17:26:14 GMT-0500 (Central Daylight Time),210851.0,CFD-BF-039-039-A.jpg,1200,solid,I,None,1502,6,1,23611.80000001192,187239.19999998808,8068,ATS,A,8
5,test,1,A,haborder.png,1,m,Mon Oct 06 2025 17:26:14 GMT-0500 (Central Daylight Time),213397.0,CFD-WM-006-013-HC.jpg,1700,solid,I,m,823,9,1,26157.80000001192,187239.19999998808,8068,ATS,A,9
6,test,1,A,haborder.png,1,z,Mon Oct 06 2025 17:26:14 GMT-0500 (Central Daylight Time),215963.19999998808,CFD-WF-003-014-A.jpg,1600,solid,I,z,949,10,1,28724.0,187239.19999998808,8068,ATS,A,10
7,test,1,A,haborder.png,1,m,Mon Oct 06 2025 17:26:14 GMT-0500 (Central Daylight Time),218462.19999998808,CFD-WM-004-005-HC.jpg,1400,solid,I,m,1068,7,1,31223.0,187239.19999998808,8068,ATS,A,11
8,test,1,A,haborder.png,1,z,Mon Oct 06 2025 17:26:14 GMT-0500 (Central Daylight Time),220727.80000001192,CFD-WF-019-015-A.jpg,1000,solid,I,z,1235,12,1,33488.60000002384,187239.19999998808,8068,ATS,A,12
9,test,1,A,haborder.png,1,z,Mon Oct 06 2025 17:26:14 GMT-0500 (Central Daylight Time),222760.60000002384,CFD-BF-023-013-A.jpg,1000,solid,I,z,1000,4,1,35521.40000003576,187239.19999998808,8068,ATS,A,13
10,test,1,A,haborder.png,1,m,Mon Oct 06 2025 17:26:14 GMT-0500 (Central Daylight Time),225293.0,CFD-WF-017-016-HC.jpg,1500,solid,I,m,1012,11,1,38053.80000001192,187239.19999998808,8068,ATS,A,14
11,test,1,A,haborder.png,1,m,Mon Oct 06 2025 17:26:14 GMT-0500 (Central Daylight Time),227426.5,CFD-WM-004-005-HC.jpg,1400,solid,I,m,700,7,1,40187.30000001192,187239.19999998808,8068,ATS,A,15
12,test,1,A,haborder.png,1,m,Mon Oct 06 2025 17:26:14 GMT-0500 (Central Daylight Time),229779.60000002384,CFD-WF-017-016-HC.jpg,1500,solid,I,m,827,11,1,42540.40000003576,187239.19999998808,8068,ATS,A,16
13,test,1,A,haborder.png,1,z,Mon Oct 06 2025 17:26:14 GMT-0500 (Central Daylight Time),231563.80000001192,CFD-WF-019-015-A.jpg,1000,solid,I,z,756,12,1,44324.60000002384,187239.19999998808,8068,ATS,A,17
14,test,1,A,haborder.png,1,m,Mon Oct 06 2025 17:26:14 GMT-0500 (Central Daylight Time),234524.30000001192,CFD-BF-028-020-HC.jpg,2000,solid,I,m,939,5,1,47285.10000002384,187239.19999998808,8068,ATS,A,18
15,test,1,A,haborder.png,1,m,Mon Oct 06 2025 17:26:14 GMT-0500 (Central Daylight Time),236890.10000002384,CFD-BM-029-026-HC.jpg,1500,solid,I,m,848,3,1,49650.90000003576,187239.19999998808,8068,ATS,A,19
16,test,1,A,haborder.png,1,z,Mon Oct 06 2025 17:26:14 GMT-0500 (Central Daylight Time),238724.60000002384,CFD-BF-023-013-A.jpg,1000,solid,I,z,808,4,1,51485.40000003576,187239.19999998808,8068,ATS,A,20
17,test,1,A,haborder.png,1,z,Mon Oct 06 2025 17:26:14 GMT-0500 (Central Daylight Time),241122.39999997616,CFD-BM-005-010-A.jpg,1600,solid,I,z,777,2,1,53883.19999998808,187239.19999998808,8068,ATS,A,21
18,test,1,A,haborder.png,1,z,Mon Oct 06 2025 17:26:14 GMT-0500 (Central Daylight Time),243087.60000002384,CFD-BF-039-039-A.jpg,1200,solid,I,z,743,6,1,55848.40000003576,187239.19999998808,8068,ATS,A,22
18,test,1,A,haborder.png,0,m,Mon Oct 06 2025 17:26:14 GMT-0500 (Central Daylight Time),246129.39999997616,CFD-BM-029-026-HC.jpg,1500,solid,I,None,1515,3,1,58890.19999998808,187239.19999998808,8068,ATS,A,23
19,test,1,A,haborder.png,1,m,Mon Oct 06 2025 17:26:14 GMT-0500 (Central Daylight Time),248552.69999998808,CFD-WM-006-013-HC.jpg,1700,solid,I,m,711,9,1,61313.5,187239.19999998808,8068,ATS,A,24
1,test,1,B,mfborder.png,1,z,Mon Oct 06 2025 17:26:14 GMT-0500 (Central Daylight Time),259050.69999998808,CFD-WF-002-008-HC.jpg,1900,dash,I,z,1415,8,1,3333.199999988079,255717.5,8068,ATS,A,1
2,test,1,B,mfborder.png,1,m,Mon Oct 06 2025 17:26:14 GMT-0500 (Central Daylight Time),261732.69999998808,CFD-WM-006-013-HC.jpg,1600,dash,I,m,1063,10,1,6015.199999988079,255717.5,8068,ATS,A,2
3,test,1,B,mfborder.png,1,z,Mon Oct 06 2025 17:26:14 GMT-0500 (Central Daylight Time),263649.3000000119,CFD-BF-023-013-A.jpg,1000,dash,I,z,885,4,1,7931.800000011921,255717.5,8068,ATS,A,3
3,test,1,B,mfborder.png,0,m,Mon Oct 06 2025 17:26:14 GMT-0500 (Central Daylight Time),265898.8000000119,CFD-BM-010-019-A.jpg,1600,dash,I,z,627,2,1,10181.300000011921,255717.5,8068,ATS,A,4
3,test,1,B,mfborder.png,0,m,Mon Oct 06 2025 17:26:14 GMT-0500 (Central Daylight Time),267864.0,CFD-WM-019-013-A.jpg,1200,dash,I,z,735,6,1,12146.5,255717.5,8068,ATS,A,5
3,test,1,B,mfborder.png,0,z,Mon Oct 06 2025 17:26:14 GMT-0500 (Central Daylight Time),270045.3000000119,CFD-BF-010-005-HC.jpg,1500,dash,I,m,653,3,1,14327.800000011921,255717.5,8068,ATS,A,6
4,test,1,B,mfborder.png,1,z,Mon Oct 06 2025 17:26:14 GMT-0500 (Central Daylight Time),272662.8000000119,CFD-WF-002-008-HC.jpg,1900,dash,I,z,687,8,1,16945.30000001192,255717.5,8068,ATS,A,7
5,test,1,B,mfborder.png,1,z,Mon Oct 06 2025 17:26:14 GMT-0500 (Central Daylight Time),274860.89999997616,CFD-WF-003-014-A.jpg,1500,dash,I,z,663,11,1,19143.399999976158,255717.5,8068,ATS,A,8
6,test,1,B,mfborder.png,1,z,Mon Oct 06 2025 17:26:14 GMT-0500 (Central Daylight Time),276560.39999997616,CFD-WF-017-016-HC.jpg,1000,dash,I,z,678,12,1,20842.899999976158,255717.5,8068,ATS,A,9
7,test,1,B,mfborder.png,1,z,Mon Oct 06 2025 17:26:14 GMT-0500 (Central Daylight Time),278276.5,CFD-BF-023-013-A.jpg,1000,dash,I,z,699,4,1,22559.0,255717.5,8068,ATS,A,10
8,test,1,B,mfborder.png,1,m,Mon Oct 06 2025 17:26:14 GMT-0500 (Central Daylight Time),280944.0,CFD-BM-005-010-A.jpg,2000,dash,I,m,638,5,1,25226.5,255717.5,8068,ATS,A,11
9,test,1,B,mfborder.png,1,m,Mon Oct 06 2025 17:26:14 GMT-0500 (Central Daylight Time),283693.0,CFD-BM-005-010-A.jpg,2000,dash,I,m,728,5,1,27975.5,255717.5,8068,ATS,A,12
10,test,1,B,mfborder.png,1,z,Mon Oct 06 2025 17:26:14 GMT-0500 (Central Daylight Time),285807.1999999881,CFD-BF-028-020-HC.jpg,1400,dash,I,z,692,7,1,30089.69999998808,255717.5,8068,ATS,A,13
11,test,1,B,mfborder.png,1,m,Mon Oct 06 2025 17:26:14 GMT-0500 (Central Daylight Time),287824.39999997616,CFD-WM-019-013-A.jpg,1200,dash,I,m,785,6,1,32106.899999976158,255717.5,8068,ATS,A,14
12,test,1,B,mfborder.png,1,m,Mon Oct 06 2025 17:26:14 GMT-0500 (Central Daylight Time),290322.5,CFD-BM-029-026-HC.jpg,1700,dash,I,m,774,1,1,34605.0,255717.5,8068,ATS,A,15
13,test,1,B,mfborder.png,1,m,Mon Oct 06 2025 17:26:14 GMT-0500 (Central Daylight Time),293021.1999999881,CFD-WM-013-015-A.jpg,1700,dash,I,m,978,9,1,37303.69999998808,255717.5,8068,ATS,A,16
14,test,1,B,mfborder.png,1,m,Mon Oct 06 2025 17:26:14 GMT-0500 (Central Daylight Time),295320.60000002384,CFD-WM-013-015-A.jpg,1700,dash,I,m,575,9,1,39603.10000002384,255717.5,8068,ATS,A,17
15,test,1,B,mfborder.png,1,m,Mon Oct 06 2025 17:26:14 GMT-0500 (Central Daylight Time),297770.60000002384,CFD-BM-010-019-A.jpg,1600,dash,I,m,825,2,1,42053.10000002384,255717.5,8068,ATS,A,18
16,test,1,B,mfborder.png,1,m,Mon Oct 06 2025 17:26:14 GMT-0500 (Central Daylight Time),300086.10000002384,CFD-WM-006-013-HC.jpg,1600,dash,I,m,695,10,1,44368.60000002384,255717.5,8068,ATS,A,19
17,test,1,B,mfborder.png,1,m,Mon Oct 06 2025 17:26:14 GMT-0500 (Central Daylight Time),302484.8000000119,CFD-BM-029-026-HC.jpg,1700,dash,I,m,675,1,1,46767.30000001192,255717.5,8068,ATS,A,20
18,test,1,B,mfborder.png,1,z,Mon Oct 06 2025 17:26:14 GMT-0500 (Central Daylight Time),304135.10000002384,CFD-WF-017-016-HC.jpg,1000,dash,I,z,620,12,1,48417.60000002384,255717.5,8068,ATS,A,21
19,test,1,B,mfborder.png,1,z,Mon Oct 06 2025 17:26:14 GMT-0500 (Central Daylight Time),306650.89999997616,CFD-BF-010-005-HC.jpg,1500,dash,I,z,998,3,1,50933.39999997616,255717.5,8068,ATS,A,22
20,test,1,B,mfborder.png,1,z,Mon Oct 06 2025 17:26:14 GMT-0500 (Central Daylight Time),308784.10000002384,CFD-BF-028-020-HC.jpg,1400,dash,I,z,703,7,1,53066.60000002384,255717.5,8068,ATS,A,23
21,test,1,B,mfborder.png,1,z,Mon Oct 06 2025 17:26:14 GMT-0500 (Central Daylight Time),310866.10000002384,CFD-WF-003-014-A.jpg,1500,dash,I,z,559,11,1,55148.60000002384,255717.5,8068,ATS,A,24
0,prac,1,C,mfborder.png,0,z,Mon Oct 06 2025 17:26:14 GMT-0500 (Central Daylight Time),359834.39999997616,CFD-BF-028-020-HC.jpg,1000,dash,I,None,1515,3,1,3298.699999988079,356535.6999999881,8068,ATS,A,1
0,prac,1,C,mfborder.png,0,m,Mon Oct 06 2025 17:26:14 GMT-0500 (Central Daylight Time),364132.8000000119,CFD-BM-017-052-HC.jpg,2000,solid,I,None,1515,4,1,7597.100000023842,356535.6999999881,8068,ATS,A,2
0,prac,1,C,haborder.png,0,m,Mon Oct 06 2025 17:26:14 GMT-0500 (Central Daylight Time),367831.60000002384,CFD-WM-004-005-HC.jpg,1400,solid,I,None,1516,12,1,11295.900000035763,356535.6999999881,8068,ATS,A,3
0,prac,1,C,mfborder.png,0,m,Mon Oct 06 2025 17:26:14 GMT-0500 (Central Daylight Time),371313.8000000119,CFD-BM-005-010-A.jpg,1200,dash,I,None,1515,5,1,14778.100000023842,356535.6999999881,8068,ATS,A,4
0,prac,1,C,mfborder.png,0,z,Mon Oct 06 2025 17:26:14 GMT-0500 (Central Daylight Time),375196.6999999881,CFD-WF-017-016-HC.jpg,1600,dash,I,None,1509,1,1,18661.0,356535.6999999881,8068,ATS,A,5
0,prac,1,C,haborder.png,0,m,Mon Oct 06 2025 17:26:14 GMT-0500 (Central Daylight Time),378994.89999997616,CFD-BM-029-026-HC.jpg,1500,solid,I,None,1516,10,1,22459.19999998808,356535.6999999881,8068,ATS,A,6
1,prac,1,C,haborder.png,1,z,Mon Oct 06 2025 17:26:14 GMT-0500 (Central Daylight Time),382327.5,CFD-BF-039-039-A.jpg,1700,solid,I,z,843,8,1,25791.80000001192,356535.6999999881,8068,ATS,A,7
1,prac,1,C,haborder.png,0,m,Mon Oct 06 2025 17:26:14 GMT-0500 (Central Daylight Time),385627.1999999881,CFD-WM-004-005-HC.jpg,1000,dash,I,None,1516,11,1,29091.5,356535.6999999881,8068,ATS,A,8
1,prac,1,C,haborder.png,0,z,Mon Oct 06 2025 17:26:14 GMT-0500 (Central Daylight Time),388924.8000000119,CFD-WF-003-014-A.jpg,1600,dash,I,m,905,9,1,32389.100000023842,356535.6999999881,8068,ATS,A,9
1,prac,1,C,mfborder.png,0,m,Mon Oct 06 2025 17:26:14 GMT-0500 (Central Daylight Time),392923.60000002384,CFD-WM-013-015-A.jpg,1700,solid,I,None,1516,6,1,36387.90000003576,356535.6999999881,8068,ATS,A,10
1,prac,1,C,mfborder.png,0,z,Mon Oct 06 2025 17:26:14 GMT-0500 (Central Daylight Time),396711.0,CFD-WF-019-015-A.jpg,1500,solid,I,None,1513,2,1,40175.30000001192,356535.6999999881,8068,ATS,A,11
1,prac,1,C,haborder.png,0,z,Mon Oct 06 2025 17:26:14 GMT-0500 (Central Daylight Time),400404.39999997616,CFD-BF-023-013-A.jpg,1900,dash,I,m,988,7,1,43868.69999998808,356535.6999999881,8068,ATS,A,12
0,prac,2,C,haborder.png,0,m,Mon Oct 06 2025 17:26:14 GMT-0500 (Central Daylight Time),410285.10000002384,CFD-WM-004-005-HC.jpg,1400,solid,I,None,1515,12,1,53749.40000003576,356535.6999999881,8068,ATS,A,1
1,prac,2,C,haborder.png,1,m,Mon Oct 06 2025 17:26:14 GMT-0500 (Central Daylight Time),413401.3000000119,CFD-BM-029-026-HC.jpg,1500,solid,I,m,826,10,1,56865.60000002384,356535.6999999881,8068,ATS,A,2
1,prac,2,C,mfborder.png,0,m,Mon Oct 06 2025 17:26:14 GMT-0500 (Central Daylight Time),417682.1999999881,CFD-BM-017-052-HC.jpg,2000,solid,I,None,1515,4,1,61146.5,356535.6999999881,8068,ATS,A,3
1,prac,2,C,haborder.png,0,z,Mon Oct 06 2025 17:26:14 GMT-0500 (Central Daylight Time),421665.1999999881,CFD-BF-039-039-A.jpg,1700,solid,I,None,1501,8,1,65129.5,356535.6999999881,8068,ATS,A,4
1,prac,2,C,mfborder.png,0,m,Mon Oct 06 2025 17:26:14 GMT-0500 (Central Daylight Time),425163.5,CFD-BM-005-010-A.jpg,1200,dash,I,None,1514,5,1,68627.80000001192,356535.6999999881,8068,ATS,A,5
2,prac,2,C,haborder.png,1,z,Mon Oct 06 2025 17:26:14 GMT-0500 (Central Daylight Time),428862.0,CFD-WF-003-014-A.jpg,1600,dash,I,z,1311,9,1,72326.30000001192,356535.6999999881,8068,ATS,A,6
2,prac,2,C,mfborder.png,0,z,Mon Oct 06 2025 17:26:14 GMT-0500 (Central Daylight Time),432761.0,CFD-WF-017-016-HC.jpg,1600,dash,I,None,1514,1,1,76225.30000001192,356535.6999999881,8068,ATS,A,7
2,prac,2,C,haborder.png,0,m,Mon Oct 06 2025 17:26:14 GMT-0500 (Central Daylight Time),436059.6999999881,CFD-WM-004-005-HC.jpg,1000,dash,I,None,1517,11,1,79524.0,356535.6999999881,8068,ATS,A,8
2,prac,2,C,mfborder.png,0,z,Mon Oct 06 2025 17:26:14 GMT-0500 (Central Daylight Time),439359.39999997616,CFD-BF-028-020-HC.jpg,1000,dash,I,None,1516,3,1,82823.69999998808,356535.6999999881,8068,ATS,A,9
2,prac,2,C,haborder.png,0,z,Mon Oct 06 2025 17:26:14 GMT-0500 (Central Daylight Time),443541.39999997616,CFD-BF-023-013-A.jpg,1900,dash,I,None,1502,7,1,87005.69999998808,356535.6999999881,8068,ATS,A,10
2,prac,2,C,mfborder.png,0,z,Mon Oct 06 2025 17:26:14 GMT-0500 (Central Daylight Time),447339.6999999881,CFD-WF-019-015-A.jpg,1500,solid,I,None,1515,2,1,90804.0,356535.6999999881,8068,ATS,A,11
3,prac,2,C,mfborder.png,1,m,Mon Oct 06 2025 17:26:14 GMT-0500 (Central Daylight Time),450690.1999999881,CFD-WM-013-015-A.jpg,1700,solid,I,m,866,6,1,94154.5,356535.6999999881,8068,ATS,A,12
0,test,1,C,mfborder.png,0,z,Mon Oct 06 2025 17:26:14 GMT-0500 (Central Daylight Time),476629.1999999881,CFD-WF-003-014-A.jpg,1500,dash,I,None,1514,3,1,3031.5,473597.6999999881,8068,ATS,A,1
1,test,1,C,mfborder.png,1,m,Mon Oct 06 2025 17:26:14 GMT-0500 (Central Daylight Time),479246.60000002384,CFD-BM-029-026-HC.jpg,1200,dash,I,m,1395,6,1,5648.900000035763,473597.6999999881,8068,ATS,A,2
2,test,1,C,mfborder.png,1,m,Mon Oct 06 2025 17:26:14 GMT-0500 (Central Daylight Time),481412.3000000119,CFD-WM-006-013-HC.jpg,1000,dash,I,m,1140,4,1,7814.600000023842,473597.6999999881,8068,ATS,A,3
2,test,1,C,mfborder.png,0,z,Mon Oct 06 2025 17:26:14 GMT-0500 (Central Daylight Time),483944.5,CFD-BF-023-013-A.jpg,1600,dash,I,m,912,2,1,10346.800000011921,473597.6999999881,8068,ATS,A,4
2,test,1,C,haborder.png,0,m,Mon Oct 06 2025 17:26:14 GMT-0500 (Central Daylight Time),486244.10000002384,CFD-WF-017-016-HC.jpg,1000,solid,I,z,1272,12,1,12646.400000035763,473597.6999999881,8068,ATS,A,5
2,test,1,C,haborder.png,0,z,Mon Oct 06 2025 17:26:14 GMT-0500 (Central Daylight Time),488827.8000000119,CFD-WM-013-015-A.jpg,1400,solid,I,m,1166,7,1,15230.100000023842,473597.6999999881,8068,ATS,A,6
2,test,1,C,haborder.png,0,z,Mon Oct 06 2025 17:26:14 GMT-0500 (Central Daylight Time),492158.89999997616,CFD-BM-005-010-A.jpg,1900,solid,I,m,1403,8,1,18561.19999998808,473597.6999999881,8068,ATS,A,7
2,test,1,C,haborder.png,0,z,Mon Oct 06 2025 17:26:14 GMT-0500 (Central Daylight Time),494693.10000002384,CFD-BM-010-019-A.jpg,1700,solid,I,m,807,9,1,21095.400000035763,473597.6999999881,8068,ATS,A,8
3,test,1,C,mfborder.png,1,z,Mon Oct 06 2025 17:26:14 GMT-0500 (Central Daylight Time),497507.0,CFD-BF-010-005-HC.jpg,1700,dash,I,z,1089,1,1,23909.30000001192,473597.6999999881,8068,ATS,A,9
3,test,1,C,mfborder.png,0,z,Mon Oct 06 2025 17:26:14 GMT-0500 (Central Daylight Time),500639.3000000119,CFD-BF-023-013-A.jpg,1600,dash,I,None,1515,2,1,27041.600000023842,473597.6999999881,8068,ATS,A,10
3,test,1,C,mfborder.png,0,m,Mon Oct 06 2025 17:26:14 GMT-0500 (Central Daylight Time),504172.1999999881,CFD-WM-019-013-A.jpg,2000,dash,I,None,1515,5,1,30574.5,473597.6999999881,8068,ATS,A,11
3,test,1,C,haborder.png,0,m,Mon Oct 06 2025 17:26:14 GMT-0500 (Central Daylight Time),506704.3000000119,CFD-WF-017-016-HC.jpg,1000,solid,I,None,1515,12,1,33106.60000002384,473597.6999999881,8068,ATS,A,12
3,test,1,C,haborder.png,0,z,Mon Oct 06 2025 17:26:14 GMT-0500 (Central Daylight Time),509987.8000000119,CFD-BM-005-010-A.jpg,1900,solid,I,m,1366,8,1,36390.10000002384,473597.6999999881,8068,ATS,A,13
3,test,1,C,haborder.png,0,m,Mon Oct 06 2025 17:26:14 GMT-0500 (Central Daylight Time),512918.3000000119,CFD-BF-028-020-HC.jpg,1600,solid,I,z,1302,10,1,39320.60000002384,473597.6999999881,8068,ATS,A,14
4,test,1,C,mfborder.png,1,m,Mon Oct 06 2025 17:26:14 GMT-0500 (Central Daylight Time),516200.60000002384,CFD-WM-019-013-A.jpg,2000,dash,I,m,1259,5,1,42602.90000003576,473597.6999999881,8068,ATS,A,15
4,test,1,C,haborder.png,0,m,Mon Oct 06 2025 17:26:14 GMT-0500 (Central Daylight Time),519066.6999999881,CFD-WF-002-008-HC.jpg,1500,solid,I,z,1333,11,1,45469.0,473597.6999999881,8068,ATS,A,16
4,test,1,C,haborder.png,0,m,Mon Oct 06 2025 17:26:14 GMT-0500 (Central Daylight Time),521451.0,CFD-BF-028-020-HC.jpg,1600,solid,I,z,759,10,1,47853.30000001192,473597.6999999881,8068,ATS,A,17
4,test,1,C,haborder.png,0,m,Mon Oct 06 2025 17:26:14 GMT-0500 (Central Daylight Time),523831.60000002384,CFD-WF-002-008-HC.jpg,1500,solid,I,z,852,11,1,50233.90000003576,473597.6999999881,8068,ATS,A,18
5,test,1,C,mfborder.png,1,m,Mon Oct 06 2025 17:26:14 GMT-0500 (Central Daylight Time),525997.3000000119,CFD-WM-006-013-HC.jpg,1000,dash,I,m,1137,4,1,52399.60000002384,473597.6999999881,8068,ATS,A,19
5,test,1,C,mfborder.png,0,m,Mon Oct 06 2025 17:26:14 GMT-0500 (Central Daylight Time),528730.3999999762,CFD-BM-029-026-HC.jpg,1200,dash,I,None,1514,6,1,55132.69999998808,473597.6999999881,8068,ATS,A,20
5,test,1,C,mfborder.png,0,z,Mon Oct 06 2025 17:26:14 GMT-0500 (Central Daylight Time),531764.1000000238,CFD-WF-003-014-A.jpg,1500,dash,I,None,1517,3,1,58166.40000003576,473597.6999999881,8068,ATS,A,21
6,test,1,C,haborder.png,1,z,Mon Oct 06 2025 17:26:14 GMT-0500 (Central Daylight Time),534513.6999999881,CFD-WM-013-015-A.jpg,1400,solid,I,z,1327,7,1,60916.0,473597.6999999881,8068,ATS,A,22
6,test,1,C,haborder.png,0,z,Mon Oct 06 2025 17:26:14 GMT-0500 (Central Daylight Time),537744.1000000238,CFD-BM-010-019-A.jpg,1700,solid,I,None,1515,9,1,64146.40000003576,473597.6999999881,8068,ATS,A,23
6,test,1,C,mfborder.png,0,z,Mon Oct 06 2025 17:26:14 GMT-0500 (Central Daylight Time),540976.1999999881,CFD-BF-010-005-HC.jpg,1700,dash,I,None,1515,1,1,67378.5,473597.6999999881,8068,ATS,A,24
0,test,2,C,haborder.png,0,m,Mon Oct 06 2025 17:26:14 GMT-0500 (Central Daylight Time),557971.8000000119,CFD-WM-004-005-HC.jpg,1500,solid,I,None,1516,11,1,3033.5,554938.3000000119,8068,ATS,A,1
1,test,2,C,mfborder.png,1,z,Mon Oct 06 2025 17:26:14 GMT-0500 (Central Daylight Time),560987.3999999762,CFD-BF-028-020-HC.jpg,1500,dash,I,z,1474,3,1,6049.099999964237,554938.3000000119,8068,ATS,A,2
2,test,2,C,mfborder.png,1,z,Mon Oct 06 2025 17:26:14 GMT-0500 (Central Daylight Time),564002.6999999881,CFD-WF-017-016-HC.jpg,1700,dash,I,z,1283,1,1,9064.399999976158,554938.3000000119,8068,ATS,A,3
2,test,2,C,mfborder.png,0,m,Mon Oct 06 2025 17:26:14 GMT-0500 (Central Daylight Time),566535.8999999762,CFD-BM-017-052-HC.jpg,1000,dash,I,None,1517,4,1,11597.599999964237,554938.3000000119,8068,ATS,A,4
3,test,2,C,haborder.png,1,m,Mon Oct 06 2025 17:26:14 GMT-0500 (Central Daylight Time),568767.3999999762,CFD-WM-004-005-HC.jpg,1000,solid,I,m,1204,12,1,13829.099999964237,554938.3000000119,8068,ATS,A,5
4,test,2,C,mfborder.png,1,z,Mon Oct 06 2025 17:26:14 GMT-0500 (Central Daylight Time),571650.3999999762,CFD-BF-028-020-HC.jpg,1500,dash,I,z,1360,3,1,16712.099999964237,554938.3000000119,8068,ATS,A,6
4,test,2,C,mfborder.png,0,m,Mon Oct 06 2025 17:26:14 GMT-0500 (Central Daylight Time),574182.5,CFD-BM-017-052-HC.jpg,1000,dash,I,None,1514,4,1,19244.19999998808,554938.3000000119,8068,ATS,A,7
5,test,2,C,mfborder.png,1,m,Mon Oct 06 2025 17:26:14 GMT-0500 (Central Daylight Time),577198.1000000238,CFD-BM-005-010-A.jpg,2000,dash,I,m,997,5,1,22259.80000001192,554938.3000000119,8068,ATS,A,8
5,test,2,C,haborder.png,0,z,Mon Oct 06 2025 17:26:14 GMT-0500 (Central Daylight Time),580132.1999999881,CFD-BF-023-013-A.jpg,1400,solid,I,None,1517,7,1,25193.899999976158,554938.3000000119,8068,ATS,A,9
5,test,2,C,mfborder.png,0,m,Mon Oct 06 2025 17:26:14 GMT-0500 (Central Daylight Time),582863.3000000119,CFD-WM-013-015-A.jpg,1200,dash,I,None,1516,6,1,27925.0,554938.3000000119,8068,ATS,A,10
5,test,2,C,mfborder.png,0,m,Mon Oct 06 2025 17:26:14 GMT-0500 (Central Daylight Time),585596.3000000119,CFD-WM-013-015-A.jpg,1200,dash,I,None,1516,6,1,30658.0,554938.3000000119,8068,ATS,A,11
6,test,2,C,haborder.png,1,z,Mon Oct 06 2025 17:26:14 GMT-0500 (Central Daylight Time),588894.8999999762,CFD-BF-039-039-A.jpg,1900,solid,I,z,1366,8,1,33956.59999996424,554938.3000000119,8068,ATS,A,12
6,test,2,C,haborder.png,0,m,Mon Oct 06 2025 17:26:14 GMT-0500 (Central Daylight Time),592028.6000000238,CFD-BM-029-026-HC.jpg,1600,solid,I,None,1516,10,1,37090.30000001192,554938.3000000119,8068,ATS,A,13
7,test,2,C,haborder.png,1,z,Mon Oct 06 2025 17:26:14 GMT-0500 (Central Daylight Time),595225.3000000119,CFD-BF-039-039-A.jpg,1900,solid,I,z,1275,8,1,40287.0,554938.3000000119,8068,ATS,A,14
8,test,2,C,haborder.png,1,z,Mon Oct 06 2025 17:26:14 GMT-0500 (Central Daylight Time),597808.0,CFD-BF-023-013-A.jpg,1400,solid,I,z,1160,7,1,42869.69999998808,554938.3000000119,8068,ATS,A,15
9,test,2,C,haborder.png,1,m,Mon Oct 06 2025 17:26:14 GMT-0500 (Central Daylight Time),600074.6000000238,CFD-WM-004-005-HC.jpg,1000,solid,I,m,1231,12,1,45136.30000001192,554938.3000000119,8068,ATS,A,16
10,test,2,C,mfborder.png,1,z,Mon Oct 06 2025 17:26:14 GMT-0500 (Central Daylight Time),603272.6000000238,CFD-WF-017-016-HC.jpg,1700,dash,I,z,1467,1,1,48334.30000001192,554938.3000000119,8068,ATS,A,17
11,test,2,C,haborder.png,1,m,Mon Oct 06 2025 17:26:14 GMT-0500 (Central Daylight Time),606108.8999999762,CFD-WM-004-005-HC.jpg,1500,solid,I,m,1318,11,1,51170.59999996424,554938.3000000119,8068,ATS,A,18
12,test,2,C,mfborder.png,1,z,Mon Oct 06 2025 17:26:14 GMT-0500 (Central Daylight Time),609070.0,CFD-WF-019-015-A.jpg,1600,dash,I,z,1345,2,1,54131.69999998808,554938.3000000119,8068,ATS,A,19
13,test,2,C,haborder.png,1,z,Mon Oct 06 2025 17:26:14 GMT-0500 (Central Daylight Time),612104.1000000238,CFD-WF-003-014-A.jpg,1700,solid,I,z,1303,9,1,57165.80000001192,554938.3000000119,8068,ATS,A,20
13,test,2,C,mfborder.png,0,m,Mon Oct 06 2025 17:26:14 GMT-0500 (Central Daylight Time),615635.8000000119,CFD-BM-005-010-A.jpg,2000,dash,I,None,1516,5,1,60697.5,554938.3000000119,8068,ATS,A,21
13,test,2,C,haborder.png,0,m,Mon Oct 06 2025 17:26:14 GMT-0500 (Central Daylight Time),618768.8999999762,CFD-BM-029-026-HC.jpg,1600,solid,I,None,1516,10,1,63830.59999996424,554938.3000000119,8068,ATS,A,22
14,test,2,C,mfborder.png,1,z,Mon Oct 06 2025 17:26:14 GMT-0500 (Central Daylight Time),621651.0,CFD-WF-019-015-A.jpg,1600,dash,I,z,1258,2,1,66712.69999998808,554938.3000000119,8068,ATS,A,23
14,test,2,C,haborder.png,0,z,Mon Oct 06 2025 17:26:14 GMT-0500 (Central Daylight Time),624884.1000000238,CFD-WF-003-014-A.jpg,1700,solid,I,None,1516,9,1,69945.80000001192,554938.3000000119,8068,ATS,A,24
0,test,3,C,haborder.png,0,m,Mon Oct 06 2025 17:26:14 GMT-0500 (Central Daylight Time),629816.3999999762,CFD-BF-028-020-HC.jpg,1600,solid,I,z,1294,10,1,2917.399999976158,626899.0,8068,ATS,A,1
0,test,3,C,mfborder.png,0,z,Mon Oct 06 2025 17:26:14 GMT-0500 (Central Daylight Time),633047.3000000119,CFD-BF-010-005-HC.jpg,1700,dash,I,None,1514,1,1,6148.300000011921,626899.0,8068,ATS,A,2
0,test,3,C,haborder.png,0,z,Mon Oct 06 2025 17:26:14 GMT-0500 (Central Daylight Time),636479.5,CFD-BM-005-010-A.jpg,1900,solid,I,None,1514,8,1,9580.5,626899.0,8068,ATS,A,3
1,test,3,C,haborder.png,1,z,Mon Oct 06 2025 17:26:14 GMT-0500 (Central Daylight Time),639580.6000000238,CFD-BM-010-019-A.jpg,1700,solid,I,z,1375,9,1,12681.600000023842,626899.0,8068,ATS,A,4
1,test,3,C,mfborder.png,0,z,Mon Oct 06 2025 17:26:14 GMT-0500 (Central Daylight Time),642595.8999999762,CFD-WF-003-014-A.jpg,1500,dash,I,None,1502,3,1,15696.899999976158,626899.0,8068,ATS,A,5
2,test,3,C,mfborder.png,1,m,Mon Oct 06 2025 17:26:14 GMT-0500 (Central Daylight Time),645143.0,CFD-BM-029-026-HC.jpg,1200,dash,I,m,1327,6,1,18244.0,626899.0,8068,ATS,A,6
2,test,3,C,haborder.png,0,z,Mon Oct 06 2025 17:26:14 GMT-0500 (Central Daylight Time),648377.3999999762,CFD-BM-010-019-A.jpg,1700,solid,I,None,1516,9,1,21478.399999976158,626899.0,8068,ATS,A,7
2,test,3,C,haborder.png,0,m,Mon Oct 06 2025 17:26:14 GMT-0500 (Central Daylight Time),651409.1999999881,CFD-WF-002-008-HC.jpg,1500,solid,I,None,1515,11,1,24510.19999998808,626899.0,8068,ATS,A,8
2,test,3,C,haborder.png,0,z,Mon Oct 06 2025 17:26:14 GMT-0500 (Central Daylight Time),654293.0,CFD-BM-005-010-A.jpg,1900,solid,I,m,958,8,1,27394.0,626899.0,8068,ATS,A,9
2,test,3,C,mfborder.png,0,m,Mon Oct 06 2025 17:26:14 GMT-0500 (Central Daylight Time),656940.8000000119,CFD-BM-029-026-HC.jpg,1200,dash,I,z,1433,6,1,30041.80000001192,626899.0,8068,ATS,A,10
2,test,3,C,mfborder.png,0,m,Mon Oct 06 2025 17:26:14 GMT-0500 (Central Daylight Time),659339.1999999881,CFD-WM-006-013-HC.jpg,1000,dash,I,z,1374,4,1,32440.19999998808,626899.0,8068,ATS,A,11
2,test,3,C,mfborder.png,0,z,Mon Oct 06 2025 17:26:14 GMT-0500 (Central Daylight Time),662470.8999999762,CFD-BF-023-013-A.jpg,1600,dash,I,None,1514,2,1,35571.89999997616,626899.0,8068,ATS,A,12
2,test,3,C,haborder.png,0,m,Mon Oct 06 2025 17:26:14 GMT-0500 (Central Daylight Time),665487.1000000238,CFD-BF-028-020-HC.jpg,1600,solid,I,z,1388,10,1,38588.10000002384,626899.0,8068,ATS,A,13
3,test,3,C,mfborder.png,1,m,Mon Oct 06 2025 17:26:14 GMT-0500 (Central Daylight Time),668519.6000000238,CFD-WM-019-013-A.jpg,2000,dash,I,m,1013,5,1,41620.60000002384,626899.0,8068,ATS,A,14
4,test,3,C,mfborder.png,1,z,Mon Oct 06 2025 17:26:14 GMT-0500 (Central Daylight Time),671151.8000000119,CFD-WF-003-014-A.jpg,1500,dash,I,z,1112,3,1,44252.80000001192,626899.0,8068,ATS,A,15
4,test,3,C,haborder.png,0,m,Mon Oct 06 2025 17:26:14 GMT-0500 (Central Daylight Time),673684.5,CFD-WF-017-016-HC.jpg,1000,solid,I,None,1515,12,1,46785.5,626899.0,8068,ATS,A,16
5,test,3,C,mfborder.png,1,m,Mon Oct 06 2025 17:26:14 GMT-0500 (Central Daylight Time),676117.0,CFD-WM-006-013-HC.jpg,1000,dash,I,m,1400,4,1,49218.0,626899.0,8068,ATS,A,17
6,test,3,C,haborder.png,1,m,Mon Oct 06 2025 17:26:14 GMT-0500 (Central Daylight Time),678535.1999999881,CFD-WF-017-016-HC.jpg,1000,solid,I,m,1400,12,1,51636.19999998808,626899.0,8068,ATS,A,18
7,test,3,C,haborder.png,1,z,Mon Oct 06 2025 17:26:14 GMT-0500 (Central Daylight Time),681414.6000000238,CFD-WM-013-015-A.jpg,1400,solid,I,z,1461,7,1,54515.60000002384,626899.0,8068,ATS,A,19
7,test,3,C,mfborder.png,0,z,Mon Oct 06 2025 17:26:14 GMT-0500 (Central Daylight Time),684565.1000000238,CFD-BF-010-005-HC.jpg,1700,dash,I,m,1432,1,1,57666.10000002384,626899.0,8068,ATS,A,20
7,test,3,C,mfborder.png,0,z,Mon Oct 06 2025 17:26:14 GMT-0500 (Central Daylight Time),687698.8999999762,CFD-BF-023-013-A.jpg,1600,dash,I,None,1519,2,1,60799.89999997616,626899.0,8068,ATS,A,21
7,test,3,C,haborder.png,0,z,Mon Oct 06 2025 17:26:14 GMT-0500 (Central Daylight Time),690179.0,CFD-WM-013-015-A.jpg,1400,solid,I,m,1058,7,1,63280.0,626899.0,8068,ATS,A,22
7,test,3,C,mfborder.png,0,m,Mon Oct 06 2025 17:26:14 GMT-0500 (Central Daylight Time),693328.1000000238,CFD-WM-019-013-A.jpg,2000,dash,I,z,1127,5,1,66429.10000002384,626899.0,8068,ATS,A,23
7,test,3,C,haborder.png,0,m,Mon Oct 06 2025 17:26:14 GMT-0500 (Central Daylight Time),696360.8999999762,CFD-WF-002-008-HC.jpg,1500,solid,I,None,1515,11,1,69461.89999997616,626899.0,8068,ATS,A,24
1,test,4,C,haborder.png,1,z,Mon Oct 06 2025 17:26:14 GMT-0500 (Central Daylight Time),702058.6999999881,CFD-BF-039-039-A.jpg,1900,solid,I,z,1442,8,1,3365.399999976158,698693.3000000119,8068,ATS,A,1
2,test,4,C,haborder.png,1,m,Mon Oct 06 2025 17:26:14 GMT-0500 (Central Daylight Time),705091.1999999881,CFD-BM-029-026-HC.jpg,1600,solid,I,m,1401,10,1,6397.899999976158,698693.3000000119,8068,ATS,A,2
3,test,4,C,haborder.png,1,z,Mon Oct 06 2025 17:26:14 GMT-0500 (Central Daylight Time),708090.1000000238,CFD-WF-003-014-A.jpg,1700,solid,I,z,1275,9,1,9396.800000011921,698693.3000000119,8068,ATS,A,3
4,test,4,C,mfborder.png,1,m,Mon Oct 06 2025 17:26:14 GMT-0500 (Central Daylight Time),710738.1999999881,CFD-WM-013-015-A.jpg,1200,dash,I,m,1414,6,1,12044.899999976158,698693.3000000119,8068,ATS,A,4
4,test,4,C,mfborder.png,0,z,Mon Oct 06 2025 17:26:14 GMT-0500 (Central Daylight Time),713771.3000000119,CFD-BF-028-020-HC.jpg,1500,dash,I,None,1515,3,1,15078.0,698693.3000000119,8068,ATS,A,5
5,test,4,C,mfborder.png,1,m,Mon Oct 06 2025 17:26:14 GMT-0500 (Central Daylight Time),716153.6999999881,CFD-BM-017-052-HC.jpg,1000,dash,I,m,1360,4,1,17460.399999976158,698693.3000000119,8068,ATS,A,6
6,test,4,C,haborder.png,1,m,Mon Oct 06 2025 17:26:14 GMT-0500 (Central Daylight Time),718537.0,CFD-WM-004-005-HC.jpg,1000,solid,I,m,1353,12,1,19843.69999998808,698693.3000000119,8068,ATS,A,7
6,test,4,C,mfborder.png,0,m,Mon Oct 06 2025 17:26:14 GMT-0500 (Central Daylight Time),722071.3999999762,CFD-BM-005-010-A.jpg,2000,dash,I,None,1517,5,1,23378.099999964237,698693.3000000119,8068,ATS,A,8
6,test,4,C,mfborder.png,0,m,Mon Oct 06 2025 17:26:14 GMT-0500 (Central Daylight Time),725299.8999999762,CFD-BM-005-010-A.jpg,2000,dash,I,z,1212,5,1,26606.599999964237,698693.3000000119,8068,ATS,A,9
7,test,4,C,mfborder.png,1,z,Mon Oct 06 2025 17:26:14 GMT-0500 (Central Daylight Time),727717.0,CFD-BF-028-020-HC.jpg,1500,dash,I,z,900,3,1,29023.69999998808,698693.3000000119,8068,ATS,A,10
8,test,4,C,haborder.png,1,m,Mon Oct 06 2025 17:26:14 GMT-0500 (Central Daylight Time),729815.6999999881,CFD-WM-004-005-HC.jpg,1000,solid,I,m,1078,12,1,31122.399999976158,698693.3000000119,8068,ATS,A,11
8,test,4,C,haborder.png,0,z,Mon Oct 06 2025 17:26:14 GMT-0500 (Central Daylight Time),732749.1000000238,CFD-BF-023-013-A.jpg,1400,solid,I,None,1516,7,1,34055.80000001192,698693.3000000119,8068,ATS,A,12
9,test,4,C,haborder.png,1,m,Mon Oct 06 2025 17:26:14 GMT-0500 (Central Daylight Time),735764.6000000238,CFD-BM-029-026-HC.jpg,1600,solid,I,m,1391,10,1,37071.30000001192,698693.3000000119,8068,ATS,A,13
10,test,4,C,haborder.png,1,z,Mon Oct 06 2025 17:26:14 GMT-0500 (Central Daylight Time),738662.8000000119,CFD-BF-023-013-A.jpg,1400,solid,I,z,1478,7,1,39969.5,698693.3000000119,8068,ATS,A,14
10,test,4,C,mfborder.png,0,m,Mon Oct 06 2025 17:26:14 GMT-0500 (Central Daylight Time),741180.8999999762,CFD-BM-017-052-HC.jpg,1000,dash,I,None,1501,4,1,42487.59999996424,698693.3000000119,8068,ATS,A,15
10,test,4,C,mfborder.png,0,m,Mon Oct 06 2025 17:26:14 GMT-0500 (Central Daylight Time),743911.8000000119,CFD-WM-013-015-A.jpg,1200,dash,I,None,1514,6,1,45218.5,698693.3000000119,8068,ATS,A,16
11,test,4,C,mfborder.png,1,z,Mon Oct 06 2025 17:26:14 GMT-0500 (Central Daylight Time),746777.1999999881,CFD-WF-019-015-A.jpg,1600,dash,I,z,1235,2,1,48083.89999997616,698693.3000000119,8068,ATS,A,17
12,test,4,C,haborder.png,1,z,Mon Oct 06 2025 17:26:14 GMT-0500 (Central Daylight Time),749076.6999999881,CFD-WF-003-014-A.jpg,1700,solid,I,z,581,9,1,50383.39999997616,698693.3000000119,8068,ATS,A,18
13,test,4,C,haborder.png,1,m,Mon Oct 06 2025 17:26:14 GMT-0500 (Central Daylight Time),751293.1000000238,CFD-WM-004-005-HC.jpg,1500,solid,I,m,697,11,1,52599.80000001192,698693.3000000119,8068,ATS,A,19
14,test,4,C,haborder.png,1,z,Mon Oct 06 2025 17:26:14 GMT-0500 (Central Daylight Time),754659.3999999762,CFD-BF-039-039-A.jpg,1900,solid,I,z,1433,8,1,55966.09999996424,698693.3000000119,8068,ATS,A,20
14,test,4,C,haborder.png,0,m,Mon Oct 06 2025 17:26:14 GMT-0500 (Central Daylight Time),757691.1000000238,CFD-WM-004-005-HC.jpg,1500,solid,I,None,1516,11,1,58997.80000001192,698693.3000000119,8068,ATS,A,21
14,test,4,C,mfborder.png,0,z,Mon Oct 06 2025 17:26:14 GMT-0500 (Central Daylight Time),760921.6999999881,CFD-WF-017-016-HC.jpg,1700,dash,I,None,1514,1,1,62228.39999997616,698693.3000000119,8068,ATS,A,22
15,test,4,C,mfborder.png,1,z,Mon Oct 06 2025 17:26:14 GMT-0500 (Central Daylight Time),763839.1000000238,CFD-WF-019-015-A.jpg,1600,dash,I,z,1287,2,1,65145.80000001192,698693.3000000119,8068,ATS,A,23
16,test,4,C,mfborder.png,1,z,Mon Oct 06 2025 17:26:14 GMT-0500 (Central Daylight Time),766438.5,CFD-WF-017-016-HC.jpg,1700,dash,I,z,881,1,1,67745.19999998808,698693.3000000119,8068,ATS,A,24
