acc_sum,block,block_c,condition,correct,correct_response,datetime,endtime,flanker,jitter,project,response,response_test_buffer_response,response_test_target_response,response_time,response_time_test_buffer_response,response_time_test_target_response,row_sel,session_number,start_end,starttime,subject_id,target,task,task_vers,time_test_buffer,time_test_buffer_response,time_test_constants,time_test_flanker,time_test_jitter,time_test_logger,time_test_target,time_test_target_response,time_test_variables,trial
0,prac,1,con,0,z,Thu Jun 19 2025 15:57:16 GMT-0500 (Central Daylight Time),174646.89999997616,banana,800,I,None,,,1799,,,1,1,4857.300000011921,169789.59999996424,7168,banana,NF,C,,,,,,,,,,1
0,prac,1,con,0,z,Thu Jun 19 2025 15:57:16 GMT-0500 (Central Daylight Time),179545.89999997616,lime,800,I,None,,,1815,,,5,1,4889.699999988079,174656.19999998808,7168,lime,NF,C,,,,,,,,,,2
0,prac,1,con,0,m,Thu Jun 19 2025 15:57:16 GMT-0500 (Central Daylight Time),184660.59999996424,zinc,1000,I,None,,,1815,,,15,1,5091.599999964237,179569.0,7168,zinc,NF,C,,,,,,,,,,3
0,prac,1,inc,0,z,Thu Jun 19 2025 15:57:16 GMT-0500 (Central Daylight Time),189675.59999996424,copper,900,I,None,,,1815,,,2,1,4990.199999988079,184685.39999997616,7168,cherry,NF,C,,,,,,,,,,4
0,prac,1,con,0,z,Thu Jun 19 2025 15:57:16 GMT-0500 (Central Daylight Time),194773.19999998808,orange,1000,I,None,,,1814,,,3,1,5082.199999988079,189691.0,7168,orange,NF,C,,,,,,,,,,5
1,prac,1,con,1,m,Thu Jun 19 2025 15:57:16 GMT-0500 (Central Daylight Time),197889.59999996424,bronze,800,I,m,,,1014,,,9,1,3109.5,194780.09999996424,7168,bronze,NF,C,,,,,,,,,,6
1,prac,1,inc,0,z,Thu Jun 19 2025 15:57:16 GMT-0500 (Central Daylight Time),200938.89999997616,lead,1100,I,m,,,629,,,8,1,3025.5,197913.39999997616,7168,plum,NF,C,,,,,,,,,,7
1,prac,1,inc,0,m,Thu Jun 19 2025 15:57:16 GMT-0500 (Central Daylight Time),203454.59999996424,pear,900,I,z,,,283,,,14,1,2493.399999976158,200961.19999998808,7168,iron,NF,C,,,,,,,,,,8
1,prac,1,inc,0,z,Thu Jun 19 2025 15:57:16 GMT-0500 (Central Daylight Time),208651.89999997616,cobalt,1100,I,None,,,1815,,,4,1,5174.699999988079,203477.19999998808,7168,raisin,NF,C,,,,,,,,,,9
1,prac,1,inc,0,m,Thu Jun 19 2025 15:57:16 GMT-0500 (Central Daylight Time),213833.69999998808,plum,1100,I,None,,,1799,,,16,1,5174.300000011921,208659.39999997616,7168,lead,NF,C,,,,,,,,,,10
2,prac,1,inc,1,m,Thu Jun 19 2025 15:57:16 GMT-0500 (Central Daylight Time),216917.19999998808,raisin,1100,I,m,,,676,,,12,1,3076.199999988079,213841.0,7168,cobalt,NF,C,,,,,,,,,,11
3,prac,1,con,1,z,Thu Jun 19 2025 15:57:16 GMT-0500 (Central Daylight Time),219715.89999997616,kiwi,1000,I,z,,,469,,,7,1,2775.600000023842,216940.29999995232,7168,kiwi,NF,C,,,,,,,,,,12
4,prac,1,inc,1,m,Thu Jun 19 2025 15:57:16 GMT-0500 (Central Daylight Time),222431.59999996424,cherry,900,I,m,,,491,,,10,1,2694.300000011921,219737.29999995232,7168,copper,NF,C,,,,,,,,,,13
5,prac,1,con,1,m,Thu Jun 19 2025 15:57:16 GMT-0500 (Central Daylight Time),225214.0,gold,800,I,m,,,652,,,13,1,2761.300000011921,222452.69999998808,7168,gold,NF,C,,,,,,,,,,14
6,prac,1,inc,1,z,Thu Jun 19 2025 15:57:16 GMT-0500 (Central Daylight Time),227863.19999998808,iron,900,I,z,,,416,,,6,1,2626.800000011921,225236.39999997616,7168,pear,NF,C,,,,,,,,,,15
7,prac,1,con,1,m,Thu Jun 19 2025 15:57:16 GMT-0500 (Central Daylight Time),230629.19999998808,silver,1000,I,m,,,435,,,11,1,2743.400000035763,227885.79999995232,7168,silver,NF,C,,,,,,,,,,16
0,prac,2,con,0,m,Thu Jun 19 2025 15:57:16 GMT-0500 (Central Daylight Time),250172.5,gold,800,I,None,,,1814,,,13,1,4877.100000023842,245295.39999997616,7168,gold,NF,C,,,,,,,,,,1
0,prac,2,inc,0,z,Thu Jun 19 2025 15:57:16 GMT-0500 (Central Daylight Time),253104.39999997616,cobalt,1100,I,m,,,514,,,4,1,2909.399999976158,250195.0,7168,raisin,NF,C,,,,,,,,,,2
1,prac,2,inc,1,z,Thu Jun 19 2025 15:57:16 GMT-0500 (Central Daylight Time),255737.39999997616,iron,900,I,z,,,431,,,6,1,2621.5,253115.89999997616,7168,pear,NF,C,,,,,,,,,,3
2,prac,2,con,1,m,Thu Jun 19 2025 15:57:16 GMT-0500 (Central Daylight Time),258435.59999996424,silver,1000,I,m,,,379,,,11,1,2677.300000011921,255758.29999995232,7168,silver,NF,C,,,,,,,,,,4
2,prac,2,con,0,m,Thu Jun 19 2025 15:57:16 GMT-0500 (Central Daylight Time),261169.0,zinc,1000,I,z,,,422,,,15,1,2727.300000011921,258441.69999998808,7168,zinc,NF,C,,,,,,,,,,5
3,prac,2,con,1,z,Thu Jun 19 2025 15:57:16 GMT-0500 (Central Daylight Time),263918.0,kiwi,1000,I,z,,,418,,,7,1,2728.0,261190.0,7168,kiwi,NF,C,,,,,,,,,,6
3,prac,2,con,0,z,Thu Jun 19 2025 15:57:16 GMT-0500 (Central Daylight Time),266433.7999999523,banana,800,I,m,,,388,,,1,1,2494.699999988079,263939.09999996424,7168,banana,NF,C,,,,,,,,,,7
4,prac,2,inc,1,m,Thu Jun 19 2025 15:57:16 GMT-0500 (Central Daylight Time),269383.0,pear,900,I,m,,,723,,,14,1,2927.800000011921,266455.1999999881,7168,iron,NF,C,,,,,,,,,,8
4,prac,2,inc,0,m,Thu Jun 19 2025 15:57:16 GMT-0500 (Central Daylight Time),272014.7999999523,cherry,900,I,z,,,407,,,10,1,2608.399999976158,269406.39999997616,7168,copper,NF,C,,,,,,,,,,9
4,prac,2,con,0,z,Thu Jun 19 2025 15:57:16 GMT-0500 (Central Daylight Time),274931.2999999523,orange,1000,I,m,,,611,,,3,1,2907.399999976158,272023.89999997616,7168,orange,NF,C,,,,,,,,,,10
5,prac,2,inc,1,m,Thu Jun 19 2025 15:57:16 GMT-0500 (Central Daylight Time),277996.5,raisin,1100,I,m,,,644,,,12,1,3041.600000023842,274954.89999997616,7168,cobalt,NF,C,,,,,,,,,,11
6,prac,2,inc,1,z,Thu Jun 19 2025 15:57:16 GMT-0500 (Central Daylight Time),280595.5,copper,900,I,z,,,379,,,2,1,2576.800000011921,278018.6999999881,7168,cherry,NF,C,,,,,,,,,,12
6,prac,2,con,0,m,Thu Jun 19 2025 15:57:16 GMT-0500 (Central Daylight Time),283328.6999999881,bronze,800,I,z,,,616,,,9,1,2721.100000023842,280607.59999996424,7168,bronze,NF,C,,,,,,,,,,13
6,prac,2,inc,0,z,Thu Jun 19 2025 15:57:16 GMT-0500 (Central Daylight Time),286460.7999999523,lead,1100,I,m,,,710,,,8,1,3110.699999988079,283350.09999996424,7168,plum,NF,C,,,,,,,,,,14
7,prac,2,inc,1,m,Thu Jun 19 2025 15:57:16 GMT-0500 (Central Daylight Time),289659.6999999881,plum,1100,I,m,,,770,,,16,1,3179.5,286480.1999999881,7168,lead,NF,C,,,,,,,,,,15
8,prac,2,con,1,z,Thu Jun 19 2025 15:57:16 GMT-0500 (Central Daylight Time),292175.1999999881,lime,800,I,z,,,393,,,5,1,2494.5,289680.6999999881,7168,lime,NF,C,,,,,,,,,,16
1,test,1,inc,1,z,Thu Jun 19 2025 15:57:16 GMT-0500 (Central Daylight Time),319349.39999997616,iron,900,I,z,z,None,435,236.0,199.0,46,1,1879.6000000238419,317469.7999999523,7168,pear,NF,C,311258,311258,309627,310541,309628,311507,311058,311058,311506,1
2,test,1,con,1,m,Thu Jun 19 2025 15:57:16 GMT-0500 (Central Daylight Time),321099.59999996424,copper,800,I,m,m,None,413,198.0,215.0,73,1,1737.8999999761581,319361.6999999881,7168,copper,NF,C,313057,313057,311519,312324,311520,313257,312841,312841,313256,2
3,test,1,inc,1,m,Thu Jun 19 2025 15:57:16 GMT-0500 (Central Daylight Time),323315.1999999881,raisin,1100,I,m,m,None,555,340.0,215.0,96,1,2189.900000035763,321125.2999999523,7168,cobalt,NF,C,315123,315123,313282,314390,313284,315472,314907,314907,315472,3
4,test,1,con,1,z,Thu Jun 19 2025 15:57:16 GMT-0500 (Central Daylight Time),325447.89999997616,pear,1000,I,z,z,None,576,377.0,199.0,43,1,2111.300000011921,323336.59999996424,7168,pear,NF,C,317222,317222,315494,316506,315495,317605,317023,317023,317605,4
5,test,1,inc,1,m,Thu Jun 19 2025 15:57:16 GMT-0500 (Central Daylight Time),327247.09999996424,lime,800,I,m,m,None,434,219.0,215.0,109,1,1776.300000011921,325470.7999999523,7168,iron,NF,C,319172,319172,317628,318439,317630,319404,318955,318956,319404,5
6,test,1,inc,1,z,Thu Jun 19 2025 15:57:16 GMT-0500 (Central Daylight Time),329213.2999999523,zinc,1000,I,z,z,None,415,215.0,200.0,47,1,1945.7999999523163,327267.5,7168,pear,NF,C,321153,321153,319425,320438,319426,321370,320953,320953,321370,6
6,test,1,inc,0,z,Thu Jun 19 2025 15:57:16 GMT-0500 (Central Daylight Time),331162.59999996424,silver,1000,I,m,m,None,390,175.0,215.0,15,1,1931.0,329231.59999996424,7168,cherry,NF,C,323136,323136,321389,322404,321389,323320,322921,322921,323320,7
6,test,1,con,0,m,Thu Jun 19 2025 15:57:16 GMT-0500 (Central Daylight Time),333212.09999996424,bronze,900,I,z,z,None,589,389.0,200.0,66,1,2028.3999999761581,331183.6999999881,7168,bronze,NF,C,324970,324970,323341,324253,323342,325369,324769,324769,325369,8
7,test,1,inc,1,z,Thu Jun 19 2025 15:57:16 GMT-0500 (Central Daylight Time),335477.5,cobalt,1100,I,z,z,None,610,395.0,215.0,24,1,2244.300000011921,333233.1999999881,7168,orange,NF,C,327236,327236,325390,326503,325392,327635,327019,327020,327634,9
8,test,1,con,1,m,Thu Jun 19 2025 15:57:16 GMT-0500 (Central Daylight Time),337443.89999997616,cobalt,1000,I,m,m,None,405,206.0,199.0,91,1,1946.300000011921,335497.59999996424,7168,cobalt,NF,C,329385,329385,327655,328669,327656,329601,329185,329185,329601,10
9,test,1,con,1,z,Thu Jun 19 2025 15:57:16 GMT-0500 (Central Daylight Time),339310.2999999523,cherry,900,I,z,z,None,412,213.0,199.0,10,1,1846.2999999523163,337464.0,7168,cherry,NF,C,331251,331251,329621,330535,329623,331467,331051,331051,331467,11
9,test,1,inc,0,z,Thu Jun 19 2025 15:57:16 GMT-0500 (Central Daylight Time),341409.5,lead,1100,I,m,m,None,432,217.0,215.0,64,1,2077.600000023842,339331.89999997616,7168,plum,NF,C,333334,333334,331489,332601,331491,333567,333118,333118,333566,12
10,test,1,inc,1,z,Thu Jun 19 2025 15:57:16 GMT-0500 (Central Daylight Time),343774.59999996424,cobalt,1100,I,z,z,None,700,485.0,215.0,8,1,2344.800000011921,341429.7999999523,7168,banana,NF,C,335433,335433,333587,334701,333588,335932,335217,335217,335932,13
11,test,1,inc,1,z,Thu Jun 19 2025 15:57:16 GMT-0500 (Central Daylight Time),345807.89999997616,iron,900,I,z,z,None,584,385.0,199.0,54,1,2025.800000011921,343782.09999996424,7168,kiwi,NF,C,337565,337566,335939,336848,335940,337965,337366,337366,337965,14
11,test,1,inc,0,z,Thu Jun 19 2025 15:57:16 GMT-0500 (Central Daylight Time),347574.0,bronze,800,I,m,m,None,404,205.0,199.0,29,1,1746.1000000238419,345827.89999997616,7168,raisin,NF,C,339514,339514,337985,338799,337987,339731,339315,339315,339731,15
12,test,1,con,1,m,Thu Jun 19 2025 15:57:16 GMT-0500 (Central Daylight Time),349723.5,iron,900,I,m,m,None,698,499.0,199.0,106,1,2128.600000023842,347594.89999997616,7168,iron,NF,C,341381,341381,339752,340665,339754,341881,341181,341181,341880,16
12,test,1,con,0,m,Thu Jun 19 2025 15:57:16 GMT-0500 (Central Daylight Time),351505.6999999881,iron,800,I,z,z,None,423,224.0,199.0,105,1,1762.1000000238419,349743.59999996424,7168,iron,NF,C,343430,343430,341901,342714,341902,343663,343231,343231,343663,17
12,test,1,con,0,m,Thu Jun 19 2025 15:57:16 GMT-0500 (Central Daylight Time),353638.59999996424,silver,1000,I,z,z,None,569,370.0,199.0,83,1,2113.5,351525.09999996424,7168,silver,NF,C,345413,345413,343682,344697,343684,345796,345213,345213,345796,18
13,test,1,con,1,z,Thu Jun 19 2025 15:57:16 GMT-0500 (Central Daylight Time),355688.09999996424,lime,1000,I,z,z,None,484,285.0,199.0,35,1,2029.300000011921,353658.7999999523,7168,lime,NF,C,347546,347546,345816,346829,345818,347845,347346,347346,347845,19
14,test,1,inc,1,z,Thu Jun 19 2025 15:57:16 GMT-0500 (Central Daylight Time),357903.39999997616,zinc,1000,I,z,z,None,650,435.0,215.0,39,1,2195.899999976158,355707.5,7168,lime,NF,C,349611,349612,347864,348878,347866,350060,349396,349396,350060,20
15,test,1,inc,1,z,Thu Jun 19 2025 15:57:16 GMT-0500 (Central Daylight Time),360203.39999997616,lead,1100,I,z,z,None,647,432.0,215.0,56,1,2278.199999988079,357925.1999999881,7168,kiwi,NF,C,351928,351928,350082,351195,350083,352361,351712,351712,352360,21
15,test,1,con,0,z,Thu Jun 19 2025 15:57:16 GMT-0500 (Central Daylight Time),362202.2999999523,plum,1000,I,m,m,None,440,241.0,199.0,59,1,1979.3999999761581,360222.89999997616,7168,plum,NF,C,354110,354110,352380,353394,352382,354359,353910,353910,354359,22
16,test,1,inc,1,m,Thu Jun 19 2025 15:57:16 GMT-0500 (Central Daylight Time),364201.7999999523,orange,1000,I,m,m,None,440,241.0,199.0,87,1,1978.0,362223.7999999523,7168,silver,NF,C,356110,356110,354381,355393,354382,356359,355910,355910,356359,23
17,test,1,inc,1,z,Thu Jun 19 2025 15:57:16 GMT-0500 (Central Daylight Time),366133.6999999881,bronze,800,I,z,z,None,568,369.0,199.0,21,1,1912.300000011921,364221.39999997616,7168,orange,NF,C,357909,357909,356378,357192,356380,358291,357709,357709,358291,24
18,test,1,con,1,m,Thu Jun 19 2025 15:57:16 GMT-0500 (Central Daylight Time),368333.5,lead,900,I,m,m,None,761,562.0,199.0,122,1,2192.2000000476837,366141.2999999523,7168,lead,NF,C,359925,359925,358298,359209,358299,360491,359725,359725,360490,25
19,test,1,inc,1,z,Thu Jun 19 2025 15:57:16 GMT-0500 (Central Daylight Time),370415.89999997616,silver,1000,I,z,z,None,526,326.0,200.0,31,1,2061.199999988079,368354.6999999881,7168,raisin,NF,C,362241,362241,360512,361524,360513,362573,362040,362040,362573,26
20,test,1,inc,1,z,Thu Jun 19 2025 15:57:16 GMT-0500 (Central Daylight Time),372382.39999997616,copper,900,I,z,z,None,527,328.0,199.0,30,1,1954.6000000238419,370427.7999999523,7168,raisin,NF,C,364207,364207,362585,363491,362586,364539,364007,364007,364539,27
21,test,1,inc,1,m,Thu Jun 19 2025 15:57:16 GMT-0500 (Central Daylight Time),374548.5,plum,1100,I,m,m,None,504,305.0,199.0,128,1,2146.400000035763,372402.09999996424,7168,lead,NF,C,366390,366390,364559,365673,364561,366706,366190,366190,366705,28
22,test,1,inc,1,z,Thu Jun 19 2025 15:57:16 GMT-0500 (Central Daylight Time),376464.39999997616,iron,900,I,z,z,None,458,243.0,215.0,38,1,1895.5,374568.89999997616,7168,lime,NF,C,368372,368372,366726,367639,366728,368621,368156,368156,368621,29
22,test,1,con,0,z,Thu Jun 19 2025 15:57:16 GMT-0500 (Central Daylight Time),378413.7999999523,orange,900,I,m,m,None,486,287.0,199.0,18,1,1928.3999999761581,376485.39999997616,7168,orange,NF,C,370272,370272,368642,369556,368644,370571,370072,370072,370571,30
23,test,1,con,1,z,Thu Jun 19 2025 15:57:16 GMT-0500 (Central Daylight Time),380379.39999997616,kiwi,900,I,z,z,None,513,314.0,199.0,50,1,1945.699999988079,378433.6999999881,7168,kiwi,NF,C,372221,372221,370591,371505,370592,372537,372021,372021,372536,31
24,test,1,inc,1,z,Thu Jun 19 2025 15:57:16 GMT-0500 (Central Daylight Time),382279.1999999881,bronze,800,I,z,z,None,551,351.0,200.0,13,1,1889.699999988079,380389.5,7168,cherry,NF,C,374071,374072,372547,373354,372547,374436,373870,373871,374436,32
25,test,1,con,1,z,Thu Jun 19 2025 15:57:16 GMT-0500 (Central Daylight Time),384411.59999996424,raisin,1000,I,z,z,None,572,373.0,199.0,27,1,2111.800000011921,382299.7999999523,7168,raisin,NF,C,376186,376186,374457,375470,374458,376569,375986,375987,376569,33
26,test,1,inc,1,m,Thu Jun 19 2025 15:57:16 GMT-0500 (Central Daylight Time),386327.5,pear,900,I,m,m,None,451,252.0,199.0,102,1,1895.800000011921,384431.6999999881,7168,gold,NF,C,378219,378219,376589,377503,376590,378485,378019,378019,378485,34
26,test,1,inc,0,m,Thu Jun 19 2025 15:57:16 GMT-0500 (Central Daylight Time),388343.59999996424,kiwi,1000,I,z,z,None,459,260.0,199.0,127,1,1996.0,386347.59999996424,7168,lead,NF,C,380235,380235,378505,379519,378506,380501,380035,380035,380501,35
27,test,1,con,1,z,Thu Jun 19 2025 15:57:16 GMT-0500 (Central Daylight Time),390226.2999999523,cherry,800,I,z,z,None,523,324.0,199.0,9,1,1864.199999988079,388362.09999996424,7168,cherry,NF,C,382051,382051,380519,381335,380520,382383,381851,381851,382383,36
28,test,1,inc,1,z,Thu Jun 19 2025 15:57:16 GMT-0500 (Central Daylight Time),392375.7999999523,zinc,1000,I,z,z,None,585,386.0,199.0,63,1,2129.099999964237,390246.6999999881,7168,plum,NF,C,384134,384134,382404,383417,382405,384533,383934,383934,384533,37
29,test,1,con,1,m,Thu Jun 19 2025 15:57:16 GMT-0500 (Central Daylight Time),394341.39999997616,cobalt,900,I,m,m,None,501,286.0,215.0,90,1,1945.8999999761581,392395.5,7168,cobalt,NF,C,386200,386200,384552,385467,384555,386499,385984,385984,386498,38
29,test,1,con,0,m,Thu Jun 19 2025 15:57:16 GMT-0500 (Central Daylight Time),396357.7999999523,zinc,1000,I,z,z,None,478,279.0,199.0,115,1,2004.7999999523163,394353.0,7168,zinc,NF,C,388232,388232,386510,387515,386511,388515,388032,388032,388515,39
30,test,1,con,1,z,Thu Jun 19 2025 15:57:16 GMT-0500 (Central Daylight Time),398640.2999999523,plum,1100,I,z,z,None,625,426.0,199.0,60,1,2261.399999976158,396378.89999997616,7168,plum,NF,C,390365,390365,388536,389647,388538,390797,390165,390165,390797,40
31,test,1,con,1,z,Thu Jun 19 2025 15:57:16 GMT-0500 (Central Daylight Time),400589.7999999523,kiwi,800,I,z,z,None,587,388.0,199.0,49,1,1928.199999988079,398661.59999996424,7168,kiwi,NF,C,392347,392347,390819,391631,390820,392747,392148,392148,392747,41
32,test,1,inc,1,m,Thu Jun 19 2025 15:57:16 GMT-0500 (Central Daylight Time),402555.6999999881,kiwi,1000,I,m,m,None,404,189.0,215.0,119,1,1946.1000000238419,400609.59999996424,7168,zinc,NF,C,394514,394514,392767,393781,392768,394713,394298,394298,394713,42
33,test,1,inc,1,m,Thu Jun 19 2025 15:57:16 GMT-0500 (Central Daylight Time),404610.7999999523,cherry,900,I,m,m,None,587,388.0,199.0,78,1,2035.5999999642372,402575.1999999881,7168,copper,NF,C,396363,396363,394732,395647,394734,396768,396163,396163,396768,43
34,test,1,inc,1,m,Thu Jun 19 2025 15:57:16 GMT-0500 (Central Daylight Time),406621.1999999881,pear,900,I,m,m,None,554,355.0,199.0,126,1,1994.1000000238419,404627.09999996424,7168,lead,NF,C,398412,398412,396784,397696,396785,398778,398213,398213,398778,44
35,test,1,con,1,z,Thu Jun 19 2025 15:57:16 GMT-0500 (Central Daylight Time),408520.39999997616,raisin,900,I,z,z,None,433,218.0,215.0,26,1,1879.6000000238419,406640.7999999523,7168,raisin,NF,C,400445,400445,398798,399712,398800,400678,400229,400229,400677,45
36,test,1,inc,1,z,Thu Jun 19 2025 15:57:16 GMT-0500 (Central Daylight Time),410486.2999999523,gold,800,I,z,z,None,602,403.0,199.0,37,1,1946.5,408539.7999999523,7168,lime,NF,C,402228,402228,400697,401511,400698,402643,402028,402028,402643,46
37,test,1,con,1,m,Thu Jun 19 2025 15:57:16 GMT-0500 (Central Daylight Time),412802.1999999881,lead,1100,I,m,m,None,659,459.0,200.0,124,1,2296.5,410505.6999999881,7168,lead,NF,C,404493,404493,402663,403777,402664,404959,404293,404293,404959,47
38,test,1,inc,1,z,Thu Jun 19 2025 15:57:16 GMT-0500 (Central Daylight Time),414851.5,copper,900,I,z,z,None,596,397.0,199.0,14,1,2029.1000000238419,412822.39999997616,7168,cherry,NF,C,406610,406610,404979,405893,404981,407009,406410,406410,407009,48
39,test,1,con,1,z,Thu Jun 19 2025 15:57:16 GMT-0500 (Central Daylight Time),416868.0,banana,800,I,z,z,None,655,456.0,199.0,1,1,1996.2000000476837,414871.7999999523,7168,banana,NF,C,408559,408559,407029,407843,407030,409025,408359,408359,409025,49
40,test,1,inc,1,z,Thu Jun 19 2025 15:57:16 GMT-0500 (Central Daylight Time),419183.6999999881,lead,1100,I,z,z,None,651,452.0,199.0,48,1,2295.900000035763,416887.7999999523,7168,pear,NF,C,410875,410875,409045,410158,409047,411341,410675,410675,411341,50
41,test,1,inc,1,m,Thu Jun 19 2025 15:57:16 GMT-0500 (Central Daylight Time),421099.7999999523,cherry,900,I,m,m,None,463,264.0,199.0,86,1,1896.2999999523163,419203.5,7168,silver,NF,C,412991,412991,411361,412274,411362,413257,412791,412791,413257,51
42,test,1,con,1,m,Thu Jun 19 2025 15:57:16 GMT-0500 (Central Daylight Time),423432.09999996424,iron,1100,I,m,m,None,667,468.0,199.0,108,1,2311.5,421120.59999996424,7168,iron,NF,C,415106,415107,413278,414391,413279,415589,414907,414907,415589,52
43,test,1,con,1,z,Thu Jun 19 2025 15:57:16 GMT-0500 (Central Daylight Time),425665.0,orange,1000,I,z,z,None,667,452.0,215.0,19,1,2213.100000023842,423451.89999997616,7168,orange,NF,C,417355,417355,415609,416623,415610,417822,417140,417140,417822,53
44,test,1,inc,1,m,Thu Jun 19 2025 15:57:16 GMT-0500 (Central Daylight Time),427980.89999997616,plum,1100,I,m,m,None,655,455.0,200.0,112,1,2295.600000023842,425685.2999999523,7168,iron,NF,C,419672,419672,417842,418955,417844,420138,419471,419471,420138,54
45,test,1,con,1,m,Thu Jun 19 2025 15:57:16 GMT-0500 (Central Daylight Time),430147.1999999881,zinc,800,I,m,m,None,813,598.0,215.0,113,1,2146.699999988079,428000.5,7168,zinc,NF,C,421704,421705,420158,420972,420159,422304,421488,421489,422304,55
46,test,1,con,1,m,Thu Jun 19 2025 15:57:16 GMT-0500 (Central Daylight Time),432163.5,gold,1000,I,m,m,None,465,266.0,199.0,99,1,1995.2000000476837,430168.2999999523,7168,gold,NF,C,424054,424054,422325,423338,422327,424321,423854,423854,424321,56
47,test,1,inc,1,m,Thu Jun 19 2025 15:57:16 GMT-0500 (Central Daylight Time),434245.1999999881,orange,1000,I,m,m,None,529,330.0,199.0,79,1,2062.300000011921,432182.89999997616,7168,copper,NF,C,426069,426069,424340,425354,424342,426402,425870,425870,426402,57
47,test,1,con,0,z,Thu Jun 19 2025 15:57:16 GMT-0500 (Central Daylight Time),436444.6999999881,orange,1100,I,m,m,None,538,339.0,199.0,20,1,2182.800000011921,434261.89999997616,7168,orange,NF,C,428252,428252,426419,427536,426420,428602,428053,428053,428602,58
48,test,1,inc,1,z,Thu Jun 19 2025 15:57:16 GMT-0500 (Central Daylight Time),438727.1999999881,lead,1100,I,z,z,None,626,427.0,199.0,40,1,2261.800000011921,436465.39999997616,7168,lime,NF,C,430452,430452,428622,429735,428624,430884,430252,430252,430884,59
49,test,1,con,1,m,Thu Jun 19 2025 15:57:16 GMT-0500 (Central Daylight Time),441109.59999996424,copper,1100,I,m,m,None,727,512.0,215.0,76,1,2362.699999988079,438746.89999997616,7168,copper,NF,C,432751,432751,430904,432018,430906,433267,432535,432535,433267,60
50,test,1,inc,1,m,Thu Jun 19 2025 15:57:16 GMT-0500 (Central Daylight Time),443192.39999997616,orange,1000,I,m,m,None,525,326.0,199.0,95,1,2062.699999988079,441129.6999999881,7168,cobalt,NF,C,435017,435017,433287,434301,433288,435350,434817,434817,435349,61
51,test,1,inc,1,m,Thu Jun 19 2025 15:57:16 GMT-0500 (Central Daylight Time),445191.5,lime,800,I,m,m,None,642,443.0,199.0,125,1,1979.300000011921,443212.1999999881,7168,lead,NF,C,436899,436900,435369,436183,435371,437349,436700,436700,437349,62
52,test,1,con,1,z,Thu Jun 19 2025 15:57:16 GMT-0500 (Central Daylight Time),447091.2999999523,raisin,800,I,z,z,None,539,324.0,215.0,25,1,1879.0,445212.2999999523,7168,raisin,NF,C,438915,438915,437369,438183,437370,439248,438700,438700,439248,63
53,test,1,inc,1,m,Thu Jun 19 2025 15:57:16 GMT-0500 (Central Daylight Time),449307.1999999881,kiwi,1000,I,m,m,None,667,467.0,200.0,103,1,2196.5,447110.6999999881,7168,gold,NF,C,440997,440997,439268,440282,439269,441464,440797,440797,441464,64
54,test,1,inc,1,m,Thu Jun 19 2025 15:57:16 GMT-0500 (Central Daylight Time),451573.09999996424,kiwi,1000,I,m,m,None,712,513.0,199.0,111,1,2244.699999988079,449328.39999997616,7168,iron,NF,C,443214,443214,441485,442498,441487,443730,443015,443015,443730,65
55,test,1,inc,1,m,Thu Jun 19 2025 15:57:16 GMT-0500 (Central Daylight Time),453505.6999999881,banana,800,I,m,m,None,566,367.0,199.0,93,1,1913.4000000357628,451592.2999999523,7168,cobalt,NF,C,445280,445280,443749,444564,443751,445663,445081,445081,445663,66
56,test,1,con,1,m,Thu Jun 19 2025 15:57:16 GMT-0500 (Central Daylight Time),455704.7999999523,iron,1000,I,m,m,None,642,443.0,199.0,107,1,2178.199999988079,453526.59999996424,7168,iron,NF,C,447413,447413,445684,446696,445685,447862,447213,447213,447862,67
57,test,1,con,1,m,Thu Jun 19 2025 15:57:16 GMT-0500 (Central Daylight Time),457771.0,silver,800,I,m,m,None,707,507.0,200.0,81,1,2046.6000000238419,455724.39999997616,7168,silver,NF,C,449412,449412,447881,448696,447883,449928,449211,449211,449928,68
58,test,1,con,1,m,Thu Jun 19 2025 15:57:16 GMT-0500 (Central Daylight Time),459936.89999997616,bronze,1000,I,m,m,None,607,392.0,215.0,67,1,2145.800000011921,457791.09999996424,7168,bronze,NF,C,451695,451695,449948,450962,449950,452094,451479,451479,452094,69
59,test,1,con,1,m,Thu Jun 19 2025 15:57:16 GMT-0500 (Central Daylight Time),462019.5,gold,900,I,m,m,None,621,406.0,215.0,98,1,2061.600000023842,459957.89999997616,7168,gold,NF,C,453761,453761,452115,453028,452117,454177,453545,453545,454176,70
60,test,1,inc,1,m,Thu Jun 19 2025 15:57:16 GMT-0500 (Central Daylight Time),464217.89999997616,plum,1100,I,m,m,None,549,349.0,200.0,104,1,2177.100000023842,462040.7999999523,7168,gold,NF,C,456025,456025,454198,455309,454199,456375,455825,455825,456375,71
61,test,1,con,1,z,Thu Jun 19 2025 15:57:16 GMT-0500 (Central Daylight Time),466550.89999997616,pear,1100,I,z,z,None,685,486.0,199.0,44,1,2327.899999976158,464223.0,7168,pear,NF,C,458209,458209,456380,457492,456381,458708,458010,458010,458708,72
62,test,1,con,1,m,Thu Jun 19 2025 15:57:16 GMT-0500 (Central Daylight Time),468550.89999997616,gold,800,I,m,m,None,652,453.0,199.0,97,1,1989.6000000238419,466561.2999999523,7168,gold,NF,C,460242,460242,458718,459526,458719,460708,460042,460042,460708,73
63,test,1,inc,1,m,Thu Jun 19 2025 15:57:16 GMT-0500 (Central Daylight Time),470533.39999997616,banana,800,I,m,m,None,627,412.0,215.0,77,1,1962.3999999761581,468571.0,7168,copper,NF,C,462275,462275,460728,461542,460730,462690,462058,462059,462690,74
64,test,1,inc,1,m,Thu Jun 19 2025 15:57:16 GMT-0500 (Central Daylight Time),472766.09999996424,orange,1000,I,m,m,None,679,479.0,200.0,71,1,2212.099999964237,470554.0,7168,bronze,NF,C,464440,464440,462711,463724,462712,464923,464240,464240,464923,75
65,test,1,con,1,z,Thu Jun 19 2025 15:57:16 GMT-0500 (Central Daylight Time),475015.0,lime,1100,I,z,z,None,592,377.0,215.0,36,1,2229.400000035763,472785.59999996424,7168,lime,NF,C,466790,466790,464943,466057,464944,467172,466573,466574,467172,76
66,test,1,con,1,z,Thu Jun 19 2025 15:57:16 GMT-0500 (Central Daylight Time),477064.6999999881,pear,900,I,z,z,None,592,377.0,215.0,42,1,2032.199999988079,475032.5,7168,pear,NF,C,468839,468839,467190,468106,467191,469222,468624,468624,469222,77
67,test,1,con,1,m,Thu Jun 19 2025 15:57:16 GMT-0500 (Central Daylight Time),479297.2999999523,copper,1000,I,m,m,None,673,474.0,199.0,75,1,2212.099999964237,477085.1999999881,7168,copper,NF,C,470972,470972,469242,470255,469244,471454,470772,470772,471454,78
68,test,1,con,1,m,Thu Jun 19 2025 15:57:16 GMT-0500 (Central Daylight Time),481763.1999999881,zinc,1100,I,m,m,None,808,608.0,200.0,116,1,2445.199999988079,479318.0,7168,zinc,NF,C,473303,473303,471475,472588,471477,473920,473103,473103,473920,79
69,test,1,con,1,z,Thu Jun 19 2025 15:57:16 GMT-0500 (Central Daylight Time),483579.1999999881,orange,800,I,z,z,None,464,249.0,215.0,17,1,1797.4000000357628,481781.7999999523,7168,orange,NF,C,475487,475487,473939,474754,473940,475736,475271,475271,475736,80
69,test,1,con,0,z,Thu Jun 19 2025 15:57:16 GMT-0500 (Central Daylight Time),485661.6999999881,cherry,1000,I,m,m,None,530,329.0,201.0,11,1,2062.800000011921,483598.89999997616,7168,cherry,NF,C,477486,477486,475756,476770,475757,477819,477285,477285,477819,81
69,test,1,con,0,m,Thu Jun 19 2025 15:57:16 GMT-0500 (Central Daylight Time),489210.6999999881,lead,1000,I,None,None,None,1799,1799.0,199.0,123,1,3529.5,485681.1999999881,7168,lead,NF,C,479569,479569,477838,478853,477840,481368,479369,479369,481368,82
70,test,1,con,1,z,Thu Jun 19 2025 15:57:16 GMT-0500 (Central Daylight Time),491192.89999997616,lime,800,I,z,z,None,624,425.0,199.0,33,1,1962.199999988079,489230.6999999881,7168,lime,NF,C,482918,482918,481388,482202,481389,483350,482718,482718,483350,83
71,test,1,con,1,m,Thu Jun 19 2025 15:57:16 GMT-0500 (Central Daylight Time),493108.89999997616,copper,900,I,m,m,None,478,278.0,200.0,74,1,1905.6000000238419,491203.2999999523,7168,copper,NF,C,484984,484984,483360,484267,483361,485266,484783,484783,485266,84
72,test,1,con,1,z,Thu Jun 19 2025 15:57:16 GMT-0500 (Central Daylight Time),495375.1999999881,banana,1100,I,z,z,None,619,403.0,216.0,4,1,2257.900000035763,493117.2999999523,7168,banana,NF,C,487116,487116,485274,486384,485275,487532,486900,486900,487532,85
73,test,1,inc,1,z,Thu Jun 19 2025 15:57:16 GMT-0500 (Central Daylight Time),497407.39999997616,gold,800,I,z,z,None,676,477.0,199.0,45,1,2012.5,495394.89999997616,7168,pear,NF,C,489082,489082,487552,488366,487554,489565,488883,488883,489564,86
74,test,1,inc,1,m,Thu Jun 19 2025 15:57:16 GMT-0500 (Central Daylight Time),499274.0,banana,800,I,m,m,None,499,300.0,199.0,85,1,1848.4000000357628,497425.59999996424,7168,silver,NF,C,491115,491115,489583,490399,489584,491431,490915,490915,491431,87
75,test,1,inc,1,m,Thu Jun 19 2025 15:57:16 GMT-0500 (Central Daylight Time),501173.39999997616,lime,800,I,m,m,None,544,329.0,215.0,117,1,1879.699999988079,499293.6999999881,7168,zinc,NF,C,492997,492998,491451,492265,491452,493331,492782,492782,493330,88
76,test,1,con,1,m,Thu Jun 19 2025 15:57:16 GMT-0500 (Central Daylight Time),503405.7999999523,bronze,1100,I,m,m,None,571,372.0,199.0,68,1,2213.0,501192.7999999523,7168,bronze,NF,C,495180,495180,493350,494464,493351,495563,494981,494981,495563,89
77,test,1,con,1,m,Thu Jun 19 2025 15:57:16 GMT-0500 (Central Daylight Time),505222.09999996424,bronze,800,I,m,m,None,460,245.0,215.0,65,1,1796.300000011921,503425.7999999523,7168,bronze,NF,C,497130,497130,495583,496397,495584,497379,496913,496914,497379,90
78,test,1,con,1,m,Thu Jun 19 2025 15:57:16 GMT-0500 (Central Daylight Time),507287.89999997616,silver,900,I,m,m,None,609,410.0,199.0,82,1,2047.6000000238419,505240.2999999523,7168,silver,NF,C,499029,499029,497397,498313,497398,499445,498829,498830,499445,91
79,test,1,inc,1,z,Thu Jun 19 2025 15:57:16 GMT-0500 (Central Daylight Time),509087.09999996424,bronze,800,I,z,z,None,445,245.0,200.0,5,1,1778.3999999761581,507308.6999999881,7168,banana,NF,C,500994,500994,499466,500279,499467,501244,500794,500794,501244,92
80,test,1,con,1,z,Thu Jun 19 2025 15:57:16 GMT-0500 (Central Daylight Time),511070.09999996424,kiwi,1000,I,z,z,None,441,242.0,199.0,51,1,1969.800000011921,509100.2999999523,7168,kiwi,NF,C,502978,502978,501257,502262,501258,503227,502778,502778,503227,93
81,test,1,inc,1,m,Thu Jun 19 2025 15:57:16 GMT-0500 (Central Daylight Time),513335.7999999523,plum,1100,I,m,m,None,601,402.0,199.0,120,1,2245.399999976158,511090.39999997616,7168,zinc,NF,C,505077,505077,503247,504361,503249,505493,504878,504878,505493,94
82,test,1,inc,1,m,Thu Jun 19 2025 15:57:16 GMT-0500 (Central Daylight Time),515501.6999999881,raisin,1100,I,m,m,None,526,327.0,199.0,80,1,2154.900000035763,513346.7999999523,7168,copper,NF,C,507327,507327,505504,506610,505505,507659,507127,507127,507659,95
83,test,1,con,1,m,Thu Jun 19 2025 15:57:16 GMT-0500 (Central Daylight Time),517435.7999999523,lead,800,I,m,m,None,582,367.0,215.0,121,1,1912.8999999761581,515522.89999997616,7168,lead,NF,C,509225,509225,507680,508493,507682,509593,509009,509010,509593,96
84,test,1,inc,1,m,Thu Jun 19 2025 15:57:16 GMT-0500 (Central Daylight Time),519483.89999997616,cherry,900,I,m,m,None,596,397.0,199.0,70,1,2031.699999988079,517452.1999999881,7168,bronze,NF,C,511242,511242,509609,510525,509610,511641,511042,511042,511641,97
85,test,1,inc,1,z,Thu Jun 19 2025 15:57:16 GMT-0500 (Central Daylight Time),521466.6999999881,zinc,1000,I,z,z,None,422,207.0,215.0,55,1,1962.5,519504.1999999881,7168,kiwi,NF,C,513408,513408,511661,512675,511663,513624,513192,513192,513624,98
86,test,1,con,1,z,Thu Jun 19 2025 15:57:16 GMT-0500 (Central Daylight Time),523299.5,plum,800,I,z,z,None,472,273.0,199.0,57,1,1813.1000000238419,521486.39999997616,7168,plum,NF,C,515174,515174,513643,514458,513645,515457,514974,514974,515456,99
87,test,1,inc,1,z,Thu Jun 19 2025 15:57:16 GMT-0500 (Central Daylight Time),525447.7999999523,copper,900,I,z,z,None,691,476.0,215.0,22,1,2125.5,523322.2999999523,7168,orange,NF,C,517122,517122,515479,516390,515481,517605,516907,516907,517605,100
88,test,1,con,1,z,Thu Jun 19 2025 15:57:16 GMT-0500 (Central Daylight Time),527564.7999999523,kiwi,1100,I,z,z,None,471,256.0,215.0,52,1,2111.599999964237,525453.1999999881,7168,kiwi,NF,C,519456,519456,517610,518723,517611,519722,519239,519240,519722,101
89,test,1,con,1,m,Thu Jun 19 2025 15:57:16 GMT-0500 (Central Daylight Time),529447.5,zinc,900,I,m,m,None,419,219.0,200.0,114,1,1862.300000011921,527585.1999999881,7168,zinc,NF,C,521372,521372,519742,520656,519744,521605,521172,521172,521604,102
90,test,1,inc,1,m,Thu Jun 19 2025 15:57:16 GMT-0500 (Central Daylight Time),531280.1999999881,banana,800,I,m,m,None,476,261.0,215.0,69,1,1812.199999988079,529468.0,7168,bronze,NF,C,523170,523170,521625,522438,521627,523437,522955,522955,523437,103
91,test,1,inc,1,z,Thu Jun 19 2025 15:57:16 GMT-0500 (Central Daylight Time),533462.7999999523,cobalt,1100,I,z,z,None,519,320.0,199.0,32,1,2163.2999999523163,531299.5,7168,raisin,NF,C,525287,525287,523457,524571,523458,525620,525088,525088,525620,104
92,test,1,inc,1,m,Thu Jun 19 2025 15:57:16 GMT-0500 (Central Daylight Time),535578.6999999881,cherry,900,I,m,m,None,656,457.0,199.0,94,1,2096.900000035763,533481.7999999523,7168,cobalt,NF,C,527270,527270,525639,526554,525640,527736,527070,527070,527736,105
93,test,1,con,1,z,Thu Jun 19 2025 15:57:16 GMT-0500 (Central Daylight Time),537478.1999999881,plum,900,I,z,z,None,436,237.0,199.0,58,1,1880.199999988079,535598.0,7168,plum,NF,C,529386,529386,527755,528670,527756,529635,529186,529186,529635,106
94,test,1,inc,1,m,Thu Jun 19 2025 15:57:16 GMT-0500 (Central Daylight Time),539460.7999999523,lime,800,I,m,m,None,630,431.0,199.0,101,1,1962.5,537498.2999999523,7168,gold,NF,C,531185,531185,529655,530469,529657,531618,530986,530986,531618,107
95,test,1,con,1,m,Thu Jun 19 2025 15:57:16 GMT-0500 (Central Daylight Time),541693.5,cobalt,1100,I,m,m,None,578,379.0,199.0,92,1,2213.800000011921,539479.6999999881,7168,cobalt,NF,C,533468,533468,531637,532752,531638,533851,533268,533268,533850,108
96,test,1,con,1,z,Thu Jun 19 2025 15:57:16 GMT-0500 (Central Daylight Time),543609.5,banana,900,I,z,z,None,458,258.0,200.0,2,1,1896.4000000357628,541713.0999999642,7168,banana,NF,C,535501,535501,533870,534783,533872,535767,535300,535300,535767,109
96,test,1,inc,0,m,Thu Jun 19 2025 15:57:16 GMT-0500 (Central Daylight Time),545542.1999999881,pear,900,I,z,z,None,478,263.0,215.0,118,1,1911.9000000357628,543630.2999999523,7168,zinc,NF,C,537432,537432,535787,536700,535789,537699,537217,537217,537699,110
97,test,1,inc,1,z,Thu Jun 19 2025 15:57:16 GMT-0500 (Central Daylight Time),547708.1999999881,gold,800,I,z,z,None,805,605.0,200.0,61,1,2145.100000023842,545563.0999999642,7168,plum,NF,C,539249,539250,537720,538533,537722,539865,539049,539049,539865,111
98,test,1,con,1,z,Thu Jun 19 2025 15:57:16 GMT-0500 (Central Daylight Time),550040.3999999762,cherry,1100,I,z,z,None,666,451.0,215.0,12,1,2312.300000011921,547728.0999999642,7168,cherry,NF,C,541732,541732,539885,540999,539887,542198,541516,541516,542197,112
99,test,1,inc,1,z,Thu Jun 19 2025 15:57:16 GMT-0500 (Central Daylight Time),552290.0,iron,900,I,z,z,None,799,584.0,215.0,62,1,2238.300000011921,550051.6999999881,7168,plum,NF,C,543847,543847,542209,543115,542209,544447,543632,543632,544447,113
100,test,1,inc,1,m,Thu Jun 19 2025 15:57:16 GMT-0500 (Central Daylight Time),554472.5999999642,raisin,1100,I,m,m,None,525,326.0,199.0,88,1,2163.099999964237,552309.5,7168,silver,NF,C,546297,546297,544467,545580,544468,546630,546097,546097,546630,114
101,test,1,inc,1,z,Thu Jun 19 2025 15:57:16 GMT-0500 (Central Daylight Time),556488.5999999642,gold,800,I,z,z,None,659,460.0,199.0,53,1,1996.0,554492.5999999642,7168,kiwi,NF,C,548179,548179,546650,547464,546651,548646,547980,547980,548646,115
102,test,1,inc,1,m,Thu Jun 19 2025 15:57:16 GMT-0500 (Central Daylight Time),558404.2999999523,pear,900,I,m,m,None,462,263.0,199.0,110,1,1896.699999988079,556507.5999999642,7168,iron,NF,C,550296,550296,548665,549579,548666,550561,550096,550096,550561,116
103,test,1,inc,1,z,Thu Jun 19 2025 15:57:16 GMT-0500 (Central Daylight Time),560537.0,copper,900,I,z,z,None,675,476.0,199.0,6,1,2112.900000035763,558424.0999999642,7168,banana,NF,C,552212,552212,550581,551495,550583,552694,552012,552012,552694,117
104,test,1,con,1,m,Thu Jun 19 2025 15:57:16 GMT-0500 (Central Daylight Time),562787.6999999881,cobalt,800,I,m,m,None,899,700.0,199.0,89,1,2230.0,560557.6999999881,7168,cobalt,NF,C,554244,554244,552715,553528,552716,554945,554045,554045,554945,118
105,test,1,inc,1,z,Thu Jun 19 2025 15:57:16 GMT-0500 (Central Daylight Time),564785.6999999881,silver,1000,I,z,z,None,432,233.0,199.0,7,1,1977.800000011921,562807.8999999762,7168,banana,NF,C,556693,556694,554965,555977,554967,556943,556494,556494,556943,119
106,test,1,con,1,m,Thu Jun 19 2025 15:57:16 GMT-0500 (Central Daylight Time),566968.3999999762,silver,1100,I,m,m,None,525,310.0,215.0,84,1,2163.5,564804.8999999762,7168,silver,NF,C,558809,558809,556962,558077,556963,559126,558594,558594,559125,120
107,test,1,inc,1,m,Thu Jun 19 2025 15:57:16 GMT-0500 (Central Daylight Time),569384.3999999762,raisin,1100,I,m,m,None,753,553.0,200.0,72,1,2396.300000011921,566988.0999999642,7168,bronze,NF,C,560974,560974,559145,560259,559147,561542,560774,560774,561541,121
108,test,1,con,1,z,Thu Jun 19 2025 15:57:16 GMT-0500 (Central Daylight Time),571467.0,lime,900,I,z,z,None,625,425.0,200.0,34,1,2063.100000023842,569403.8999999762,7168,lime,NF,C,563191,563191,561561,562475,561563,563624,562991,562991,563624,122
109,test,1,con,1,z,Thu Jun 19 2025 15:57:16 GMT-0500 (Central Daylight Time),573416.2999999523,pear,800,I,z,z,None,583,368.0,215.0,41,1,1929.7999999523163,571486.5,7168,pear,NF,C,565191,565191,563644,564458,563645,565573,564975,564975,565573,123
110,test,1,con,1,m,Thu Jun 19 2025 15:57:16 GMT-0500 (Central Daylight Time),575798.8999999762,gold,1100,I,m,m,None,727,528.0,199.0,100,1,2363.0,573435.8999999762,7168,gold,NF,C,567423,567423,565593,566706,565594,567956,567224,567224,567956,124
111,test,1,inc,1,z,Thu Jun 19 2025 15:57:16 GMT-0500 (Central Daylight Time),578131.1999999881,cobalt,1100,I,z,z,None,680,481.0,199.0,16,1,2311.100000023842,575820.0999999642,7168,cherry,NF,C,569806,569806,567977,569090,567978,570288,569606,569606,570288,125
111,test,1,con,0,z,Thu Jun 19 2025 15:57:16 GMT-0500 (Central Daylight Time),580247.3999999762,banana,1000,I,m,m,None,551,352.0,199.0,3,1,2094.199999988079,578153.1999999881,7168,banana,NF,C,572039,572039,570310,571322,570312,572405,571839,571839,572404,126
112,test,1,con,1,z,Thu Jun 19 2025 15:57:16 GMT-0500 (Central Daylight Time),583062.3999999762,raisin,1100,I,z,z,None,1160,961.0,199.0,28,1,2796.199999988079,580266.1999999881,7168,raisin,NF,C,574254,574254,572423,573538,572425,575220,574055,574055,575219,127
113,test,1,inc,1,z,Thu Jun 19 2025 15:57:16 GMT-0500 (Central Daylight Time),585279.0999999642,silver,1000,I,z,z,None,669,470.0,199.0,23,1,2207.599999964237,583071.5,7168,orange,NF,C,576953,576953,575229,576237,575229,577436,576754,576754,577436,128
