acc_sum,block,block_c,change,condition,correct,correct_response,datetime,endtime,face,project,response,response_time,row_sel,session_number,start_end,starttime,subject_id,task,task_vers,trial
0,prac,1,,1-Back,,,Thu May 07 2026 15:33:46 GMT-0500 (Central Daylight Time),,093_m_f_n_a.png,I,space,2493,1,,,,8069,NNB,C,0
1,prac,1,0.0,1-Back,1.0,m,Thu May 07 2026 15:33:46 GMT-0500 (Central Daylight Time),93519.19999998808,098_y_f_n_a.png,I,m,1443,2,,2364.199999988079,91155.0,8069,NNB,C,1
2,prac,1,1.0,1-Back,1.0,z,Thu May 07 2026 15:33:46 GMT-0500 (Central Daylight Time),95343.19999998808,098_y_f_n_a.png,I,z,1036,3,,1816.5,93526.69999998808,8069,NNB,C,2
3,prac,1,0.0,1-Back,1.0,m,Thu May 07 2026 15:33:46 GMT-0500 (Central Daylight Time),96809.5,059_o_m_n_a.png,I,m,601,4,,1458.5,95351.0,8069,NNB,C,3
4,prac,1,0.0,1-Back,1.0,m,Thu May 07 2026 15:33:46 GMT-0500 (Central Daylight Time),99058.69999998808,092_m_m_n_a.png,I,m,1385,5,,2243.199999988079,96815.5,8069,NNB,C,4
5,prac,1,1.0,1-Back,1.0,z,Thu May 07 2026 15:33:46 GMT-0500 (Central Daylight Time),100524.69999998808,092_m_m_n_a.png,I,z,681,6,,1459.6000000238419,99065.09999996424,8069,NNB,C,5
6,prac,1,0.0,1-Back,1.0,m,Thu May 07 2026 15:33:46 GMT-0500 (Central Daylight Time),102507.59999996424,130_o_f_n_a.png,I,m,1100,7,,1974.699999988079,100532.89999997616,8069,NNB,C,6
7,prac,1,0.0,1-Back,1.0,m,Thu May 07 2026 15:33:46 GMT-0500 (Central Daylight Time),104623.59999996424,082_m_m_n_a.png,I,m,1247,8,,2107.5,102516.09999996424,8069,NNB,C,7
8,prac,1,0.0,1-Back,1.0,m,Thu May 07 2026 15:33:46 GMT-0500 (Central Daylight Time),106189.69999998808,093_m_f_n_a.png,I,m,786,9,,1557.5,104632.19999998808,8069,NNB,C,8
9,prac,1,1.0,1-Back,1.0,z,Thu May 07 2026 15:33:46 GMT-0500 (Central Daylight Time),107672.79999995232,093_m_f_n_a.png,I,z,701,10,,1475.3999999761581,106197.39999997616,8069,NNB,C,9
10,prac,1,0.0,1-Back,1.0,m,Thu May 07 2026 15:33:46 GMT-0500 (Central Daylight Time),109072.29999995232,059_o_m_n_a.png,I,m,618,11,,1392.2999999523163,107680.0,8069,NNB,C,10
11,prac,1,0.0,1-Back,1.0,m,Thu May 07 2026 15:33:46 GMT-0500 (Central Daylight Time),110771.79999995232,028_y_f_n_a.png,I,m,842,12,,1690.8999999761581,109080.89999997616,8069,NNB,C,11
0,test,1,0.0,1-Back,,,Thu May 07 2026 15:33:46 GMT-0500 (Central Daylight Time),110771.79999995232,098_y_f_n_a.png,I,space,925,1,,1690.8999999761581,109080.89999997616,8069,NNB,C,0
1,test,1,0.0,1-Back,1.0,m,Thu May 07 2026 15:33:46 GMT-0500 (Central Daylight Time),118902.5,006_m_f_n_a.png,I,m,788,2,,1801.5,117101.0,8069,NNB,C,1
2,test,1,0.0,1-Back,1.0,m,Thu May 07 2026 15:33:46 GMT-0500 (Central Daylight Time),121101.5,028_y_f_n_a.png,I,m,1171,3,,2196.5,118905.0,8069,NNB,C,2
3,test,1,1.0,1-Back,1.0,z,Thu May 07 2026 15:33:46 GMT-0500 (Central Daylight Time),122651.19999998808,028_y_f_n_a.png,I,z,533,4,,1546.800000011921,121104.39999997616,8069,NNB,C,3
4,test,1,0.0,1-Back,1.0,m,Thu May 07 2026 15:33:46 GMT-0500 (Central Daylight Time),124217.5,006_m_f_n_a.png,I,m,543,5,,1564.0,122653.5,8069,NNB,C,4
5,test,1,0.0,1-Back,1.0,m,Thu May 07 2026 15:33:46 GMT-0500 (Central Daylight Time),125867.0,059_o_m_n_a.png,I,m,624,6,,1647.0,124220.0,8069,NNB,C,5
6,test,1,1.0,1-Back,1.0,z,Thu May 07 2026 15:33:46 GMT-0500 (Central Daylight Time),127616.5,059_o_m_n_a.png,I,z,728,7,,1747.0,125869.5,8069,NNB,C,6
7,test,1,0.0,1-Back,1.0,m,Thu May 07 2026 15:33:46 GMT-0500 (Central Daylight Time),129232.69999998808,092_m_m_n_a.png,I,m,585,8,,1613.4000000357628,127619.29999995232,8069,NNB,C,7
8,test,1,0.0,1-Back,1.0,m,Thu May 07 2026 15:33:46 GMT-0500 (Central Daylight Time),131065.0,130_o_f_n_a.png,I,m,801,9,,1829.5,129235.5,8069,NNB,C,8
9,test,1,0.0,1-Back,1.0,m,Thu May 07 2026 15:33:46 GMT-0500 (Central Daylight Time),132765.69999998808,092_m_m_n_a.png,I,m,681,10,,1697.9000000357628,131067.79999995232,8069,NNB,C,9
10,test,1,0.0,1-Back,1.0,m,Thu May 07 2026 15:33:46 GMT-0500 (Central Daylight Time),134380.79999995232,057_y_m_n_a.png,I,m,597,11,,1612.2999999523163,132768.5,8069,NNB,C,10
11,test,1,1.0,1-Back,1.0,z,Thu May 07 2026 15:33:46 GMT-0500 (Central Daylight Time),135896.89999997616,057_y_m_n_a.png,I,z,484,12,,1513.800000011921,134383.09999996424,8069,NNB,C,11
12,test,1,0.0,1-Back,1.0,m,Thu May 07 2026 15:33:46 GMT-0500 (Central Daylight Time),137579.89999997616,030_o_f_n_a.png,I,m,663,13,,1680.1000000238419,135899.79999995232,8069,NNB,C,12
13,test,1,1.0,1-Back,1.0,z,Thu May 07 2026 15:33:46 GMT-0500 (Central Daylight Time),139362.39999997616,030_o_f_n_a.png,I,z,758,14,,1780.0,137582.39999997616,8069,NNB,C,13
14,test,1,0.0,1-Back,1.0,m,Thu May 07 2026 15:33:46 GMT-0500 (Central Daylight Time),141078.69999998808,031_y_m_n_a.png,I,m,688,15,,1713.5,139365.19999998808,8069,NNB,C,14
15,test,1,0.0,1-Back,1.0,m,Thu May 07 2026 15:33:46 GMT-0500 (Central Daylight Time),143211.5,093_m_f_n_a.png,I,m,1116,16,,2130.400000035763,141081.09999996424,8069,NNB,C,15
16,test,1,0.0,1-Back,1.0,m,Thu May 07 2026 15:33:46 GMT-0500 (Central Daylight Time),144810.89999997616,146_o_m_n_a.png,I,m,567,17,,1596.8999999761581,143214.0,8069,NNB,C,16
17,test,1,0.0,1-Back,1.0,m,Thu May 07 2026 15:33:46 GMT-0500 (Central Daylight Time),146660.59999996424,093_m_f_n_a.png,I,m,823,18,,1847.199999988079,144813.39999997616,8069,NNB,C,17
0,test,2,0.0,1-Back,,,Thu May 07 2026 15:33:46 GMT-0500 (Central Daylight Time),146660.59999996424,092_m_m_n_a.png,I,space,1797,1,,1847.199999988079,144813.39999997616,8069,NNB,C,0
1,test,2,0.0,1-Back,1.0,m,Thu May 07 2026 15:33:46 GMT-0500 (Central Daylight Time),152092.09999996424,006_m_f_n_a.png,I,m,590,2,,1611.199999988079,150480.89999997616,8069,NNB,C,1
2,test,2,1.0,1-Back,1.0,z,Thu May 07 2026 15:33:46 GMT-0500 (Central Daylight Time),153875.19999998808,006_m_f_n_a.png,I,z,750,3,,1780.4000000357628,152094.79999995232,8069,NNB,C,2
3,test,2,0.0,1-Back,1.0,m,Thu May 07 2026 15:33:46 GMT-0500 (Central Daylight Time),155357.59999996424,092_m_m_n_a.png,I,m,456,4,,1480.0,153877.59999996424,8069,NNB,C,3
4,test,2,0.0,1-Back,1.0,m,Thu May 07 2026 15:33:46 GMT-0500 (Central Daylight Time),157107.19999998808,057_y_m_n_a.png,I,m,732,5,,1746.699999988079,155360.5,8069,NNB,C,4
5,test,2,0.0,1-Back,1.0,m,Thu May 07 2026 15:33:46 GMT-0500 (Central Daylight Time),158989.89999997616,098_y_f_n_a.png,I,m,862,6,,1880.1000000238419,157109.79999995232,8069,NNB,C,5
6,test,2,1.0,1-Back,1.0,z,Thu May 07 2026 15:33:46 GMT-0500 (Central Daylight Time),160472.89999997616,098_y_f_n_a.png,I,z,461,7,,1480.5,158992.39999997616,8069,NNB,C,6
7,test,2,0.0,1-Back,1.0,m,Thu May 07 2026 15:33:46 GMT-0500 (Central Daylight Time),162072.39999997616,057_y_m_n_a.png,I,m,578,8,,1597.0,160475.39999997616,8069,NNB,C,7
8,test,2,0.0,1-Back,1.0,m,Thu May 07 2026 15:33:46 GMT-0500 (Central Daylight Time),163705.39999997616,030_o_f_n_a.png,I,m,602,9,,1630.3999999761581,162075.0,8069,NNB,C,8
9,test,2,0.0,1-Back,1.0,m,Thu May 07 2026 15:33:46 GMT-0500 (Central Daylight Time),165271.39999997616,082_m_m_n_a.png,I,m,545,10,,1563.300000011921,163708.09999996424,8069,NNB,C,9
10,test,2,1.0,1-Back,1.0,z,Thu May 07 2026 15:33:46 GMT-0500 (Central Daylight Time),166922.39999997616,082_m_m_n_a.png,I,z,627,11,,1648.5,165273.89999997616,8069,NNB,C,10
11,test,2,0.0,1-Back,1.0,m,Thu May 07 2026 15:33:46 GMT-0500 (Central Daylight Time),168470.09999996424,030_o_f_n_a.png,I,m,529,12,,1545.5,166924.59999996424,8069,NNB,C,11
12,test,2,0.0,1-Back,1.0,m,Thu May 07 2026 15:33:46 GMT-0500 (Central Daylight Time),170386.39999997616,130_o_f_n_a.png,I,m,883,13,,1913.699999988079,168472.69999998808,8069,NNB,C,12
13,test,2,0.0,1-Back,1.0,m,Thu May 07 2026 15:33:46 GMT-0500 (Central Daylight Time),171969.19999998808,059_o_m_n_a.png,I,m,551,14,,1580.4000000357628,170388.79999995232,8069,NNB,C,13
14,test,2,0.0,1-Back,1.0,m,Thu May 07 2026 15:33:46 GMT-0500 (Central Daylight Time),173718.59999996424,146_o_m_n_a.png,I,m,721,15,,1746.8999999761581,171971.69999998808,8069,NNB,C,14
15,test,2,1.0,1-Back,1.0,z,Thu May 07 2026 15:33:46 GMT-0500 (Central Daylight Time),175401.69999998808,146_o_m_n_a.png,I,z,659,16,,1680.4000000357628,173721.29999995232,8069,NNB,C,15
16,test,2,0.0,1-Back,1.0,m,Thu May 07 2026 15:33:46 GMT-0500 (Central Daylight Time),176984.0,031_y_m_n_a.png,I,m,553,17,,1579.800000011921,175404.19999998808,8069,NNB,C,16
17,test,2,1.0,1-Back,1.0,z,Thu May 07 2026 15:33:46 GMT-0500 (Central Daylight Time),178783.59999996424,031_y_m_n_a.png,I,z,769,18,,1797.0,176986.59999996424,8069,NNB,C,17
0,test,3,1.0,1-Back,,,Thu May 07 2026 15:33:46 GMT-0500 (Central Daylight Time),178783.59999996424,028_y_f_n_a.png,I,space,795,1,,1797.0,176986.59999996424,8069,NNB,C,0
1,test,3,0.0,1-Back,1.0,m,Thu May 07 2026 15:33:46 GMT-0500 (Central Daylight Time),183315.39999997616,146_o_m_n_a.png,I,m,631,1,,1644.5,181670.89999997616,8069,NNB,C,1
2,test,3,1.0,1-Back,1.0,z,Thu May 07 2026 15:33:46 GMT-0500 (Central Daylight Time),184981.79999995232,146_o_m_n_a.png,I,z,647,1,,1664.0,183317.79999995232,8069,NNB,C,2
3,test,3,0.0,1-Back,1.0,m,Thu May 07 2026 15:33:46 GMT-0500 (Central Daylight Time),186631.09999996424,093_m_f_n_a.png,I,m,620,1,,1646.699999988079,184984.39999997616,8069,NNB,C,3
4,test,3,1.0,1-Back,1.0,z,Thu May 07 2026 15:33:46 GMT-0500 (Central Daylight Time),188264.0,093_m_f_n_a.png,I,z,550,1,,1629.5,186634.5,8069,NNB,C,4
5,test,3,0.0,1-Back,1.0,m,Thu May 07 2026 15:33:46 GMT-0500 (Central Daylight Time),189929.79999995232,030_o_f_n_a.png,I,m,641,1,,1663.0999999642372,188266.69999998808,8069,NNB,C,5
6,test,3,0.0,1-Back,1.0,m,Thu May 07 2026 15:33:46 GMT-0500 (Central Daylight Time),191463.09999996424,057_y_m_n_a.png,I,m,503,1,,1530.800000011921,189932.29999995232,8069,NNB,C,6
7,test,3,0.0,1-Back,1.0,m,Thu May 07 2026 15:33:46 GMT-0500 (Central Daylight Time),193062.69999998808,030_o_f_n_a.png,I,m,571,1,,1596.9000000357628,191465.79999995232,8069,NNB,C,7
8,test,3,0.0,1-Back,1.0,m,Thu May 07 2026 15:33:46 GMT-0500 (Central Daylight Time),194861.89999997616,031_y_m_n_a.png,I,m,780,1,,1796.699999988079,193065.19999998808,8069,NNB,C,8
9,test,3,1.0,1-Back,1.0,z,Thu May 07 2026 15:33:46 GMT-0500 (Central Daylight Time),196379.39999997616,031_y_m_n_a.png,I,z,485,1,,1515.1000000238419,194864.29999995232,8069,NNB,C,9
10,test,3,0.0,1-Back,1.0,m,Thu May 07 2026 15:33:46 GMT-0500 (Central Daylight Time),197927.79999995232,006_m_f_n_a.png,I,m,520,1,,1545.3999999761581,196382.39999997616,8069,NNB,C,10
11,test,3,0.0,1-Back,1.0,m,Thu May 07 2026 15:33:46 GMT-0500 (Central Daylight Time),199461.5,098_y_f_n_a.png,I,m,514,1,,1531.2000000476837,197930.29999995232,8069,NNB,C,11
12,test,3,1.0,1-Back,1.0,z,Thu May 07 2026 15:33:46 GMT-0500 (Central Daylight Time),201076.79999995232,098_y_f_n_a.png,I,z,597,1,,1612.0,199464.79999995232,8069,NNB,C,12
13,test,3,0.0,1-Back,1.0,m,Thu May 07 2026 15:33:46 GMT-0500 (Central Daylight Time),202693.0,006_m_f_n_a.png,I,m,597,1,,1613.5,201079.5,8069,NNB,C,13
14,test,3,0.0,1-Back,1.0,m,Thu May 07 2026 15:33:46 GMT-0500 (Central Daylight Time),204642.29999995232,092_m_m_n_a.png,I,m,925,1,,1946.3999999761581,202695.89999997616,8069,NNB,C,14
15,test,3,1.0,1-Back,1.0,z,Thu May 07 2026 15:33:46 GMT-0500 (Central Daylight Time),206125.19999998808,092_m_m_n_a.png,I,z,464,1,,1480.4000000357628,204644.79999995232,8069,NNB,C,15
16,test,3,0.0,1-Back,1.0,m,Thu May 07 2026 15:33:46 GMT-0500 (Central Daylight Time),207658.19999998808,130_o_f_n_a.png,I,m,509,1,,1530.300000011921,206127.89999997616,8069,NNB,C,16
17,test,3,1.0,1-Back,1.0,z,Thu May 07 2026 15:33:46 GMT-0500 (Central Daylight Time),209174.09999996424,130_o_f_n_a.png,I,z,496,1,,1513.5,207660.59999996424,8069,NNB,C,17
0,test,4,1.0,1-Back,,,Thu May 07 2026 15:33:46 GMT-0500 (Central Daylight Time),209174.09999996424,093_m_f_n_a.png,I,space,860,1,,1513.5,207660.59999996424,8069,NNB,C,0
1,test,4,0.0,1-Back,1.0,m,Thu May 07 2026 15:33:46 GMT-0500 (Central Daylight Time),213689.79999995232,146_o_m_n_a.png,I,m,534,2,,1561.8999999761581,212127.89999997616,8069,NNB,C,1
2,test,4,0.0,1-Back,1.0,m,Thu May 07 2026 15:33:46 GMT-0500 (Central Daylight Time),215188.89999997616,093_m_f_n_a.png,I,m,481,3,,1496.699999988079,213692.19999998808,8069,NNB,C,2
3,test,4,0.0,1-Back,1.0,m,Thu May 07 2026 15:33:46 GMT-0500 (Central Daylight Time),216738.69999998808,030_o_f_n_a.png,I,m,517,4,,1547.300000011921,215191.39999997616,8069,NNB,C,3
4,test,4,1.0,1-Back,1.0,z,Thu May 07 2026 15:33:46 GMT-0500 (Central Daylight Time),218338.09999996424,030_o_f_n_a.png,I,z,567,5,,1597.0,216741.09999996424,8069,NNB,C,4
5,test,4,0.0,1-Back,1.0,m,Thu May 07 2026 15:33:46 GMT-0500 (Central Daylight Time),219920.69999998808,098_y_f_n_a.png,I,m,560,6,,1579.800000011921,218340.89999997616,8069,NNB,C,5
6,test,4,0.0,1-Back,1.0,m,Thu May 07 2026 15:33:46 GMT-0500 (Central Daylight Time),221503.59999996424,057_y_m_n_a.png,I,m,554,7,,1580.300000011921,219923.29999995232,8069,NNB,C,6
7,test,4,1.0,1-Back,1.0,z,Thu May 07 2026 15:33:46 GMT-0500 (Central Daylight Time),223219.69999998808,057_y_m_n_a.png,I,z,690,8,,1713.6000000238419,221506.09999996424,8069,NNB,C,7
8,test,4,0.0,1-Back,1.0,m,Thu May 07 2026 15:33:46 GMT-0500 (Central Daylight Time),225335.89999997616,098_y_f_n_a.png,I,m,1087,9,,2113.699999988079,223222.19999998808,8069,NNB,C,8
9,test,4,0.0,1-Back,1.0,m,Thu May 07 2026 15:33:46 GMT-0500 (Central Daylight Time),227102.0,082_m_m_n_a.png,I,m,737,10,,1763.5,225338.5,8069,NNB,C,9
10,test,4,1.0,1-Back,1.0,z,Thu May 07 2026 15:33:46 GMT-0500 (Central Daylight Time),228734.69999998808,082_m_m_n_a.png,I,z,613,11,,1630.300000011921,227104.39999997616,8069,NNB,C,10
11,test,4,0.0,1-Back,1.0,m,Thu May 07 2026 15:33:46 GMT-0500 (Central Daylight Time),230285.29999995232,130_o_f_n_a.png,I,m,529,12,,1547.7999999523163,228737.5,8069,NNB,C,11
12,test,4,0.0,1-Back,1.0,m,Thu May 07 2026 15:33:46 GMT-0500 (Central Daylight Time),231917.09999996424,059_o_m_n_a.png,I,m,606,13,,1629.0,230288.09999996424,8069,NNB,C,12
13,test,4,0.0,1-Back,1.0,m,Thu May 07 2026 15:33:46 GMT-0500 (Central Daylight Time),233699.89999997616,130_o_f_n_a.png,I,m,756,14,,1780.0,231919.89999997616,8069,NNB,C,13
14,test,4,0.0,1-Back,1.0,m,Thu May 07 2026 15:33:46 GMT-0500 (Central Daylight Time),235599.09999996424,028_y_f_n_a.png,I,m,756,15,,1896.699999988079,233702.39999997616,8069,NNB,C,14
15,test,4,1.0,1-Back,1.0,z,Thu May 07 2026 15:33:46 GMT-0500 (Central Daylight Time),237298.69999998808,028_y_f_n_a.png,I,z,682,16,,1697.1000000238419,235601.59999996424,8069,NNB,C,15
16,test,4,0.0,1-Back,1.0,m,Thu May 07 2026 15:33:46 GMT-0500 (Central Daylight Time),238782.79999995232,006_m_f_n_a.png,I,m,462,17,,1481.3999999761581,237301.39999997616,8069,NNB,C,16
17,test,4,1.0,1-Back,1.0,z,Thu May 07 2026 15:33:46 GMT-0500 (Central Daylight Time),240547.39999997616,006_m_f_n_a.png,I,z,748,18,,1761.800000011921,238785.59999996424,8069,NNB,C,17
0,test,5,1.0,1-Back,,,Thu May 07 2026 15:33:46 GMT-0500 (Central Daylight Time),240547.39999997616,059_o_m_n_a.png,I,space,959,1,,1761.800000011921,238785.59999996424,8069,NNB,C,0
1,test,5,1.0,1-Back,1.0,z,Thu May 07 2026 15:33:46 GMT-0500 (Central Daylight Time),245346.5,059_o_m_n_a.png,I,z,792,2,,1812.6000000238419,243533.89999997616,8069,NNB,C,1
2,test,5,0.0,1-Back,1.0,m,Thu May 07 2026 15:33:46 GMT-0500 (Central Daylight Time),246846.0,098_y_f_n_a.png,I,m,472,3,,1497.1000000238419,245348.89999997616,8069,NNB,C,2
3,test,5,0.0,1-Back,1.0,m,Thu May 07 2026 15:33:46 GMT-0500 (Central Daylight Time),248461.89999997616,057_y_m_n_a.png,I,m,588,4,,1613.5,246848.39999997616,8069,NNB,C,3
4,test,5,0.0,1-Back,1.0,m,Thu May 07 2026 15:33:46 GMT-0500 (Central Daylight Time),250027.69999998808,098_y_f_n_a.png,I,m,548,5,,1563.199999988079,248464.5,8069,NNB,C,4
5,test,5,0.0,1-Back,1.0,m,Thu May 07 2026 15:33:46 GMT-0500 (Central Daylight Time),251693.89999997616,092_m_m_n_a.png,I,m,645,6,,1663.3999999761581,250030.5,8069,NNB,C,5
6,test,5,1.0,1-Back,1.0,z,Thu May 07 2026 15:33:46 GMT-0500 (Central Daylight Time),253243.79999995232,092_m_m_n_a.png,I,z,524,7,,1547.3999999761581,251696.39999997616,8069,NNB,C,6
7,test,5,0.0,1-Back,1.0,m,Thu May 07 2026 15:33:46 GMT-0500 (Central Daylight Time),254826.59999996424,028_y_f_n_a.png,I,m,559,8,,1580.3999999761581,253246.19999998808,8069,NNB,C,7
8,test,5,0.0,1-Back,1.0,m,Thu May 07 2026 15:33:46 GMT-0500 (Central Daylight Time),256459.19999998808,031_y_m_n_a.png,I,m,616,9,,1630.0,254829.19999998808,8069,NNB,C,8
9,test,5,0.0,1-Back,1.0,m,Thu May 07 2026 15:33:46 GMT-0500 (Central Daylight Time),258158.79999995232,028_y_f_n_a.png,I,m,671,10,,1697.199999988079,256461.59999996424,8069,NNB,C,9
10,test,5,0.0,1-Back,1.0,m,Thu May 07 2026 15:33:46 GMT-0500 (Central Daylight Time),259758.39999997616,130_o_f_n_a.png,I,m,578,11,,1596.8999999761581,258161.5,8069,NNB,C,10
11,test,5,1.0,1-Back,1.0,z,Thu May 07 2026 15:33:46 GMT-0500 (Central Daylight Time),261257.79999995232,130_o_f_n_a.png,I,z,476,12,,1497.0,259760.79999995232,8069,NNB,C,11
12,test,5,0.0,1-Back,1.0,m,Thu May 07 2026 15:33:46 GMT-0500 (Central Daylight Time),262790.7999999523,146_o_m_n_a.png,I,m,505,13,,1530.2999999523163,261260.5,8069,NNB,C,12
13,test,5,0.0,1-Back,1.0,m,Thu May 07 2026 15:33:46 GMT-0500 (Central Daylight Time),264341.2999999523,093_m_f_n_a.png,I,m,532,14,,1548.0999999642372,262793.1999999881,8069,NNB,C,13
13,test,5,1.0,1-Back,0.0,z,Thu May 07 2026 15:33:46 GMT-0500 (Central Daylight Time),265923.09999996424,093_m_f_n_a.png,I,m,550,15,,1579.199999988079,264343.89999997616,8069,NNB,C,14
14,test,5,0.0,1-Back,1.0,m,Thu May 07 2026 15:33:46 GMT-0500 (Central Daylight Time),267939.39999997616,146_o_m_n_a.png,I,m,991,16,,2013.8999999761581,265925.5,8069,NNB,C,15
15,test,5,0.0,1-Back,1.0,m,Thu May 07 2026 15:33:46 GMT-0500 (Central Daylight Time),269622.0,006_m_f_n_a.png,I,m,663,17,,1679.9000000357628,267942.09999996424,8069,NNB,C,16
16,test,5,0.0,1-Back,1.0,m,Thu May 07 2026 15:33:46 GMT-0500 (Central Daylight Time),271371.2999999523,082_m_m_n_a.png,I,m,724,18,,1746.8999999761581,269624.39999997616,8069,NNB,C,17
0,prac,1,0.0,2-Back,,,Thu May 07 2026 15:33:46 GMT-0500 (Central Daylight Time),271371.2999999523,031_y_m_n_a.png,I,space,1635,1,,1746.8999999761581,269624.39999997616,8069,NNB,C,0
0,prac,1,0.0,2-Back,,,Thu May 07 2026 15:33:46 GMT-0500 (Central Daylight Time),271371.2999999523,006_m_f_n_a.png,I,space,1635,2,,1746.8999999761581,269624.39999997616,8069,NNB,C,0
1,prac,1,1.0,2-Back,1.0,m,Thu May 07 2026 15:33:46 GMT-0500 (Central Daylight Time),353630.2999999523,146_o_m_n_a.png,I,m,1107,3,,2110.399999976158,351519.89999997616,8069,NNB,C,1
2,prac,1,0.0,2-Back,1.0,m,Thu May 07 2026 15:33:46 GMT-0500 (Central Daylight Time),355245.39999997616,130_o_f_n_a.png,I,m,739,4,,1607.199999988079,353638.1999999881,8069,NNB,C,2
3,prac,1,0.0,2-Back,1.0,z,Thu May 07 2026 15:33:46 GMT-0500 (Central Daylight Time),356594.6999999881,146_o_m_n_a.png,I,z,565,5,,1341.4000000357628,355253.2999999523,8069,NNB,C,3
4,prac,1,1.0,2-Back,1.0,z,Thu May 07 2026 15:33:46 GMT-0500 (Central Daylight Time),358411.0,130_o_f_n_a.png,I,z,1039,6,,1808.1000000238419,356602.89999997616,8069,NNB,C,4
5,prac,1,0.0,2-Back,1.0,m,Thu May 07 2026 15:33:46 GMT-0500 (Central Daylight Time),361193.39999997616,082_m_m_n_a.png,I,m,1911,7,,2775.0,358418.39999997616,8069,NNB,C,5
6,prac,1,0.0,2-Back,1.0,m,Thu May 07 2026 15:33:46 GMT-0500 (Central Daylight Time),363076.09999996424,059_o_m_n_a.png,I,m,1025,8,,1876.699999988079,361199.39999997616,8069,NNB,C,6
7,prac,1,0.0,2-Back,1.0,m,Thu May 07 2026 15:33:46 GMT-0500 (Central Daylight Time),364942.1999999881,028_y_f_n_a.png,I,m,999,9,,1859.4000000357628,363082.7999999523,8069,NNB,C,7
8,prac,1,1.0,2-Back,1.0,z,Thu May 07 2026 15:33:46 GMT-0500 (Central Daylight Time),366458.39999997616,059_o_m_n_a.png,I,z,733,10,,1508.5,364949.89999997616,8069,NNB,C,8
9,prac,1,0.0,2-Back,1.0,m,Thu May 07 2026 15:33:46 GMT-0500 (Central Daylight Time),368108.0,098_y_f_n_a.png,I,m,796,11,,1641.2000000476837,366466.7999999523,8069,NNB,C,9
10,prac,1,0.0,2-Back,1.0,m,Thu May 07 2026 15:33:46 GMT-0500 (Central Daylight Time),370557.39999997616,082_m_m_n_a.png,I,m,1672,12,,2443.5,368113.89999997616,8069,NNB,C,10
0,test,1,0.0,2-Back,,,Thu May 07 2026 15:33:46 GMT-0500 (Central Daylight Time),370557.39999997616,057_y_m_n_a.png,I,space,739,1,,2443.5,368113.89999997616,8069,NNB,C,0
0,test,1,0.0,2-Back,,,Thu May 07 2026 15:33:46 GMT-0500 (Central Daylight Time),370557.39999997616,057_y_m_n_a.png,I,space,739,2,,2443.5,368113.89999997616,8069,NNB,C,0
0,test,1,0.0,2-Back,0.0,m,Thu May 07 2026 15:33:46 GMT-0500 (Central Daylight Time),382553.39999997616,130_o_f_n_a.png,I,None,2015,3,,3029.699999988079,379523.6999999881,8069,NNB,C,1
1,test,1,0.0,2-Back,1.0,m,Thu May 07 2026 15:33:46 GMT-0500 (Central Daylight Time),384835.6999999881,092_m_m_n_a.png,I,m,1264,4,,2278.400000035763,382557.2999999523,8069,NNB,C,2
1,test,1,1.0,2-Back,0.0,z,Thu May 07 2026 15:33:46 GMT-0500 (Central Daylight Time),387868.5,130_o_f_n_a.png,I,None,2015,5,,3030.7000000476837,384837.7999999523,8069,NNB,C,3
2,test,1,0.0,2-Back,1.0,m,Thu May 07 2026 15:33:46 GMT-0500 (Central Daylight Time),390200.7999999523,098_y_f_n_a.png,I,m,1310,6,,2327.899999976158,387872.89999997616,8069,NNB,C,4
3,test,1,0.0,2-Back,1.0,m,Thu May 07 2026 15:33:46 GMT-0500 (Central Daylight Time),393149.89999997616,092_m_m_n_a.png,I,m,1922,7,,2946.600000023842,390203.2999999523,8069,NNB,C,5
4,test,1,1.0,2-Back,1.0,z,Thu May 07 2026 15:33:46 GMT-0500 (Central Daylight Time),395099.2999999523,098_y_f_n_a.png,I,z,925,8,,1947.0999999642372,393152.1999999881,8069,NNB,C,6
5,test,1,0.0,2-Back,1.0,m,Thu May 07 2026 15:33:46 GMT-0500 (Central Daylight Time),398098.39999997616,031_y_m_n_a.png,I,m,1966,9,,2996.800000011921,395101.59999996424,8069,NNB,C,7
6,test,1,0.0,2-Back,1.0,m,Thu May 07 2026 15:33:46 GMT-0500 (Central Daylight Time),399845.2999999523,030_o_f_n_a.png,I,m,730,10,,1744.199999988079,398101.09999996424,8069,NNB,C,8
7,test,1,1.0,2-Back,1.0,z,Thu May 07 2026 15:33:46 GMT-0500 (Central Daylight Time),401680.89999997616,031_y_m_n_a.png,I,z,803,11,,1832.8999999761581,399848.0,8069,NNB,C,9
8,test,1,0.0,2-Back,1.0,m,Thu May 07 2026 15:33:46 GMT-0500 (Central Daylight Time),403647.1999999881,006_m_f_n_a.png,I,m,938,12,,1964.0,401683.1999999881,8069,NNB,C,10
9,test,1,0.0,2-Back,1.0,m,Thu May 07 2026 15:33:46 GMT-0500 (Central Daylight Time),406079.39999997616,006_m_f_n_a.png,I,m,1404,13,,2430.0,403649.39999997616,8069,NNB,C,11
10,test,1,0.0,2-Back,1.0,m,Thu May 07 2026 15:33:46 GMT-0500 (Central Daylight Time),407928.6999999881,146_o_m_n_a.png,I,m,827,14,,1846.9000000357628,406081.7999999523,8069,NNB,C,12
11,test,1,0.0,2-Back,1.0,m,Thu May 07 2026 15:33:46 GMT-0500 (Central Daylight Time),410361.5,030_o_f_n_a.png,I,m,1401,15,,2430.2000000476837,407931.2999999523,8069,NNB,C,13
12,test,1,1.0,2-Back,1.0,z,Thu May 07 2026 15:33:46 GMT-0500 (Central Daylight Time),412427.39999997616,146_o_m_n_a.png,I,z,1041,16,,2063.300000011921,410364.09999996424,8069,NNB,C,14
13,test,1,0.0,2-Back,1.0,m,Thu May 07 2026 15:33:46 GMT-0500 (Central Daylight Time),414160.09999996424,093_m_f_n_a.png,I,m,702,17,,1730.300000011921,412429.7999999523,8069,NNB,C,15
14,test,1,0.0,2-Back,1.0,m,Thu May 07 2026 15:33:46 GMT-0500 (Central Daylight Time),416676.0,082_m_m_n_a.png,I,m,1490,18,,2513.5,414162.5,8069,NNB,C,16
0,test,2,0.0,2-Back,,,Thu May 07 2026 15:33:46 GMT-0500 (Central Daylight Time),416676.0,082_m_m_n_a.png,I,space,1359,1,,2513.5,414162.5,8069,NNB,C,0
0,test,2,0.0,2-Back,,,Thu May 07 2026 15:33:46 GMT-0500 (Central Daylight Time),416676.0,028_y_f_n_a.png,I,space,1359,2,,2513.5,414162.5,8069,NNB,C,0
0,test,2,1.0,2-Back,0.0,z,Thu May 07 2026 15:33:46 GMT-0500 (Central Daylight Time),426206.5,082_m_m_n_a.png,I,None,2015,3,,3029.2000000476837,423177.2999999523,8069,NNB,C,1
1,test,2,0.0,2-Back,1.0,m,Thu May 07 2026 15:33:46 GMT-0500 (Central Daylight Time),427922.5,093_m_f_n_a.png,I,m,692,4,,1712.1000000238419,426210.39999997616,8069,NNB,C,2
1,test,2,0.0,2-Back,0.0,m,Thu May 07 2026 15:33:46 GMT-0500 (Central Daylight Time),429771.59999996424,028_y_f_n_a.png,I,z,823,5,,1846.5999999642372,427925.0,8069,NNB,C,3
2,test,2,0.0,2-Back,1.0,m,Thu May 07 2026 15:33:46 GMT-0500 (Central Daylight Time),431671.1999999881,146_o_m_n_a.png,I,m,871,6,,1897.199999988079,429774.0,8069,NNB,C,4
3,test,2,0.0,2-Back,1.0,m,Thu May 07 2026 15:33:46 GMT-0500 (Central Daylight Time),433637.2999999523,098_y_f_n_a.png,I,m,939,7,,1963.5999999642372,431673.6999999881,8069,NNB,C,5
4,test,2,1.0,2-Back,1.0,z,Thu May 07 2026 15:33:46 GMT-0500 (Central Daylight Time),435403.1999999881,146_o_m_n_a.png,I,z,749,8,,1763.5,433639.6999999881,8069,NNB,C,6
5,test,2,0.0,2-Back,1.0,m,Thu May 07 2026 15:33:46 GMT-0500 (Central Daylight Time),437536.1999999881,031_y_m_n_a.png,I,m,1102,9,,2130.800000011921,435405.39999997616,8069,NNB,C,7
6,test,2,0.0,2-Back,1.0,m,Thu May 07 2026 15:33:46 GMT-0500 (Central Daylight Time),440035.1999999881,031_y_m_n_a.png,I,m,1467,10,,2496.600000023842,437538.59999996424,8069,NNB,C,8
7,test,2,0.0,2-Back,1.0,m,Thu May 07 2026 15:33:46 GMT-0500 (Central Daylight Time),442018.1999999881,006_m_f_n_a.png,I,m,950,11,,1980.699999988079,440037.5,8069,NNB,C,9
8,test,2,0.0,2-Back,1.0,m,Thu May 07 2026 15:33:46 GMT-0500 (Central Daylight Time),444067.39999997616,028_y_f_n_a.png,I,m,1032,12,,2046.5,442020.89999997616,8069,NNB,C,10
8,test,2,1.0,2-Back,0.0,z,Thu May 07 2026 15:33:46 GMT-0500 (Central Daylight Time),446216.59999996424,006_m_f_n_a.png,I,m,1117,13,,2146.899999976158,444069.6999999881,8069,NNB,C,11
9,test,2,0.0,2-Back,1.0,m,Thu May 07 2026 15:33:46 GMT-0500 (Central Daylight Time),448049.6999999881,059_o_m_n_a.png,I,m,810,14,,1830.6000000238419,446219.09999996424,8069,NNB,C,12
10,test,2,0.0,2-Back,1.0,m,Thu May 07 2026 15:33:46 GMT-0500 (Central Daylight Time),450215.5,059_o_m_n_a.png,I,m,1137,15,,2163.300000011921,448052.1999999881,8069,NNB,C,13
11,test,2,0.0,2-Back,1.0,m,Thu May 07 2026 15:33:46 GMT-0500 (Central Daylight Time),452098.1999999881,030_o_f_n_a.png,I,m,859,16,,1880.199999988079,450218.0,8069,NNB,C,14
12,test,2,0.0,2-Back,1.0,m,Thu May 07 2026 15:33:46 GMT-0500 (Central Daylight Time),454214.2999999523,092_m_m_n_a.png,I,m,1088,17,,2113.599999964237,452100.6999999881,8069,NNB,C,15
12,test,2,1.0,2-Back,0.0,z,Thu May 07 2026 15:33:46 GMT-0500 (Central Daylight Time),456964.09999996424,030_o_f_n_a.png,I,m,1724,18,,2747.300000011921,454216.7999999523,8069,NNB,C,16
0,test,3,1.0,2-Back,,,Thu May 07 2026 15:33:46 GMT-0500 (Central Daylight Time),456964.09999996424,057_y_m_n_a.png,I,space,959,1,,2747.300000011921,454216.7999999523,8069,NNB,C,0
0,test,3,1.0,2-Back,,,Thu May 07 2026 15:33:46 GMT-0500 (Central Daylight Time),456964.09999996424,057_y_m_n_a.png,I,space,959,2,,2747.300000011921,454216.7999999523,8069,NNB,C,0
1,test,3,0.0,2-Back,1.0,m,Thu May 07 2026 15:33:46 GMT-0500 (Central Daylight Time),466060.5,030_o_f_n_a.png,I,m,1973,3,,2995.2000000476837,463065.2999999523,8069,NNB,C,1
2,test,3,0.0,2-Back,1.0,m,Thu May 07 2026 15:33:46 GMT-0500 (Central Daylight Time),467994.6999999881,082_m_m_n_a.png,I,m,910,4,,1931.4000000357628,466063.2999999523,8069,NNB,C,2
3,test,3,1.0,2-Back,1.0,z,Thu May 07 2026 15:33:46 GMT-0500 (Central Daylight Time),469459.5,030_o_f_n_a.png,I,z,449,5,,1462.300000011921,467997.1999999881,8069,NNB,C,3
4,test,3,0.0,2-Back,1.0,m,Thu May 07 2026 15:33:46 GMT-0500 (Central Daylight Time),471375.6999999881,031_y_m_n_a.png,I,m,797,6,,1913.9000000357628,469461.7999999523,8069,NNB,C,4
4,test,3,0.0,2-Back,0.0,m,Thu May 07 2026 15:33:46 GMT-0500 (Central Daylight Time),473041.59999996424,082_m_m_n_a.png,I,z,635,7,,1663.3999999761581,471378.1999999881,8069,NNB,C,5
5,test,3,1.0,2-Back,1.0,z,Thu May 07 2026 15:33:46 GMT-0500 (Central Daylight Time),474924.39999997616,031_y_m_n_a.png,I,z,857,8,,1880.5,473043.89999997616,8069,NNB,C,6
6,test,3,0.0,2-Back,1.0,m,Thu May 07 2026 15:33:46 GMT-0500 (Central Daylight Time),476507.39999997616,028_y_f_n_a.png,I,m,550,9,,1580.0,474927.39999997616,8069,NNB,C,7
7,test,3,0.0,2-Back,1.0,m,Thu May 07 2026 15:33:46 GMT-0500 (Central Daylight Time),478373.39999997616,092_m_m_n_a.png,I,m,847,10,,1863.3999999761581,476510.0,8069,NNB,C,8
8,test,3,1.0,2-Back,1.0,z,Thu May 07 2026 15:33:46 GMT-0500 (Central Daylight Time),479872.7999999523,028_y_f_n_a.png,I,z,469,11,,1496.8999999761581,478375.89999997616,8069,NNB,C,9
9,test,3,1.0,2-Back,1.0,z,Thu May 07 2026 15:33:46 GMT-0500 (Central Daylight Time),481805.59999996424,092_m_m_n_a.png,I,z,914,12,,1930.199999988079,479875.39999997616,8069,NNB,C,10
10,test,3,0.0,2-Back,1.0,m,Thu May 07 2026 15:33:46 GMT-0500 (Central Daylight Time),483588.5,030_o_f_n_a.png,I,m,756,13,,1780.1000000238419,481808.39999997616,8069,NNB,C,11
11,test,3,0.0,2-Back,1.0,m,Thu May 07 2026 15:33:46 GMT-0500 (Central Daylight Time),485238.1999999881,093_m_f_n_a.png,I,m,622,14,,1647.4000000357628,483590.7999999523,8069,NNB,C,12
12,test,3,0.0,2-Back,1.0,m,Thu May 07 2026 15:33:46 GMT-0500 (Central Daylight Time),486954.6999999881,146_o_m_n_a.png,I,m,700,15,,1714.1000000238419,485240.59999996424,8069,NNB,C,13
13,test,3,1.0,2-Back,1.0,z,Thu May 07 2026 15:33:46 GMT-0500 (Central Daylight Time),488686.6999999881,093_m_f_n_a.png,I,z,712,16,,1729.9000000357628,486956.7999999523,8069,NNB,C,14
14,test,3,0.0,2-Back,1.0,m,Thu May 07 2026 15:33:46 GMT-0500 (Central Daylight Time),490286.0,130_o_f_n_a.png,I,m,579,17,,1596.800000011921,488689.1999999881,8069,NNB,C,15
15,test,3,0.0,2-Back,1.0,m,Thu May 07 2026 15:33:46 GMT-0500 (Central Daylight Time),492518.7999999523,130_o_f_n_a.png,I,m,1203,18,,2230.5,490288.2999999523,8069,NNB,C,16
0,test,4,0.0,2-Back,,,Thu May 07 2026 15:33:46 GMT-0500 (Central Daylight Time),492518.7999999523,059_o_m_n_a.png,I,space,1020,1,,2230.5,490288.2999999523,8069,NNB,C,0
0,test,4,0.0,2-Back,,,Thu May 07 2026 15:33:46 GMT-0500 (Central Daylight Time),492518.7999999523,098_y_f_n_a.png,I,space,1020,2,,2230.5,490288.2999999523,8069,NNB,C,0
1,test,4,1.0,2-Back,1.0,z,Thu May 07 2026 15:33:46 GMT-0500 (Central Daylight Time),500433.2999999523,059_o_m_n_a.png,I,z,669,3,,1695.5,498737.7999999523,8069,NNB,C,1
2,test,4,1.0,2-Back,1.0,z,Thu May 07 2026 15:33:46 GMT-0500 (Central Daylight Time),502265.7999999523,098_y_f_n_a.png,I,z,808,4,,1830.0,500435.7999999523,8069,NNB,C,2
3,test,4,0.0,2-Back,1.0,m,Thu May 07 2026 15:33:46 GMT-0500 (Central Daylight Time),503982.09999996424,030_o_f_n_a.png,I,m,697,5,,1713.8999999761581,502268.1999999881,8069,NNB,C,3
3,test,4,0.0,2-Back,0.0,m,Thu May 07 2026 15:33:46 GMT-0500 (Central Daylight Time),505948.1999999881,030_o_f_n_a.png,I,z,940,6,,1963.5,503984.6999999881,8069,NNB,C,4
4,test,4,0.0,2-Back,1.0,m,Thu May 07 2026 15:33:46 GMT-0500 (Central Daylight Time),507697.5,006_m_f_n_a.png,I,m,726,7,,1746.7000000476837,505950.7999999523,8069,NNB,C,5
5,test,4,0.0,2-Back,1.0,m,Thu May 07 2026 15:33:46 GMT-0500 (Central Daylight Time),509630.2999999523,031_y_m_n_a.png,I,m,905,8,,1930.199999988079,507700.09999996424,8069,NNB,C,6
6,test,4,1.0,2-Back,1.0,z,Thu May 07 2026 15:33:46 GMT-0500 (Central Daylight Time),511179.6999999881,006_m_f_n_a.png,I,z,524,9,,1546.9000000357628,509632.7999999523,8069,NNB,C,7
7,test,4,0.0,2-Back,1.0,m,Thu May 07 2026 15:33:46 GMT-0500 (Central Daylight Time),513545.6999999881,092_m_m_n_a.png,I,m,1334,10,,2363.699999988079,511182.0,8069,NNB,C,8
7,test,4,0.0,2-Back,0.0,m,Thu May 07 2026 15:33:46 GMT-0500 (Central Daylight Time),515195.39999997616,031_y_m_n_a.png,I,z,617,11,,1647.0,513548.39999997616,8069,NNB,C,9
8,test,4,0.0,2-Back,1.0,m,Thu May 07 2026 15:33:46 GMT-0500 (Central Daylight Time),517245.6999999881,130_o_f_n_a.png,I,m,1031,12,,2047.9000000357628,515197.7999999523,8069,NNB,C,10
9,test,4,0.0,2-Back,1.0,m,Thu May 07 2026 15:33:46 GMT-0500 (Central Daylight Time),519177.09999996424,057_y_m_n_a.png,I,m,902,13,,1928.8999999761581,517248.1999999881,8069,NNB,C,11
10,test,4,1.0,2-Back,1.0,z,Thu May 07 2026 15:33:46 GMT-0500 (Central Daylight Time),521693.5,130_o_f_n_a.png,I,z,1489,14,,2513.900000035763,519179.59999996424,8069,NNB,C,12
11,test,4,1.0,2-Back,1.0,z,Thu May 07 2026 15:33:46 GMT-0500 (Central Daylight Time),523609.5,057_y_m_n_a.png,I,z,893,15,,1913.6000000238419,521695.89999997616,8069,NNB,C,13
12,test,4,0.0,2-Back,1.0,m,Thu May 07 2026 15:33:46 GMT-0500 (Central Daylight Time),525408.5,082_m_m_n_a.png,I,m,769,16,,1796.5,523612.0,8069,NNB,C,14
13,test,4,0.0,2-Back,1.0,m,Thu May 07 2026 15:33:46 GMT-0500 (Central Daylight Time),527024.7999999523,093_m_f_n_a.png,I,m,586,17,,1613.699999988079,525411.0999999642,8069,NNB,C,15
14,test,4,1.0,2-Back,1.0,z,Thu May 07 2026 15:33:46 GMT-0500 (Central Daylight Time),528691.0999999642,082_m_m_n_a.png,I,z,650,18,,1663.8999999761581,527027.1999999881,8069,NNB,C,16
0,test,5,1.0,2-Back,,,Thu May 07 2026 15:33:46 GMT-0500 (Central Daylight Time),528691.0999999642,057_y_m_n_a.png,I,space,1072,1,,1663.8999999761581,527027.1999999881,8069,NNB,C,0
0,test,5,1.0,2-Back,,,Thu May 07 2026 15:33:46 GMT-0500 (Central Daylight Time),528691.0999999642,093_m_f_n_a.png,I,space,1072,2,,1663.8999999761581,527027.1999999881,8069,NNB,C,0
1,test,5,1.0,2-Back,1.0,z,Thu May 07 2026 15:33:46 GMT-0500 (Central Daylight Time),536788.6999999881,057_y_m_n_a.png,I,z,940,3,,1961.800000011921,534826.8999999762,8069,NNB,C,1
2,test,5,1.0,2-Back,1.0,z,Thu May 07 2026 15:33:46 GMT-0500 (Central Daylight Time),538287.8999999762,093_m_f_n_a.png,I,z,478,4,,1496.6000000238419,536791.2999999523,8069,NNB,C,2
3,test,5,0.0,2-Back,1.0,m,Thu May 07 2026 15:33:46 GMT-0500 (Central Daylight Time),539870.7999999523,130_o_f_n_a.png,I,m,562,5,,1580.5,538290.2999999523,8069,NNB,C,3
4,test,5,0.0,2-Back,1.0,m,Thu May 07 2026 15:33:46 GMT-0500 (Central Daylight Time),542120.1999999881,057_y_m_n_a.png,I,m,1220,6,,2247.100000023842,539873.0999999642,8069,NNB,C,4
5,test,5,0.0,2-Back,1.0,m,Thu May 07 2026 15:33:46 GMT-0500 (Central Daylight Time),544102.7999999523,028_y_f_n_a.png,I,m,962,7,,1980.2999999523163,542122.5,8069,NNB,C,5
5,test,5,0.0,2-Back,0.0,m,Thu May 07 2026 15:33:46 GMT-0500 (Central Daylight Time),545752.2999999523,130_o_f_n_a.png,I,z,628,8,,1646.8999999761581,544105.3999999762,8069,NNB,C,6
6,test,5,1.0,2-Back,1.0,z,Thu May 07 2026 15:33:46 GMT-0500 (Central Daylight Time),547701.5999999642,028_y_f_n_a.png,I,z,922,9,,1946.800000011921,545754.7999999523,8069,NNB,C,7
7,test,5,0.0,2-Back,1.0,m,Thu May 07 2026 15:33:46 GMT-0500 (Central Daylight Time),549284.6999999881,146_o_m_n_a.png,I,m,557,10,,1580.9000000357628,547703.7999999523,8069,NNB,C,8
8,test,5,0.0,2-Back,1.0,m,Thu May 07 2026 15:33:46 GMT-0500 (Central Daylight Time),550917.0999999642,006_m_f_n_a.png,I,m,605,11,,1630.0999999642372,549287.0,8069,NNB,C,9
8,test,5,0.0,2-Back,0.0,m,Thu May 07 2026 15:33:46 GMT-0500 (Central Daylight Time),552666.6999999881,092_m_m_n_a.png,I,z,725,12,,1746.9000000357628,550919.7999999523,8069,NNB,C,10
9,test,5,0.0,2-Back,1.0,m,Thu May 07 2026 15:33:46 GMT-0500 (Central Daylight Time),555465.7999999523,146_o_m_n_a.png,I,m,1768,13,,2796.599999964237,552669.1999999881,8069,NNB,C,11
9,test,5,1.0,2-Back,0.0,z,Thu May 07 2026 15:33:46 GMT-0500 (Central Daylight Time),557481.8999999762,092_m_m_n_a.png,I,m,985,14,,2013.300000011921,555468.5999999642,8069,NNB,C,12
10,test,5,0.0,2-Back,1.0,m,Thu May 07 2026 15:33:46 GMT-0500 (Central Daylight Time),559231.2999999523,098_y_f_n_a.png,I,m,720,15,,1747.0999999642372,557484.1999999881,8069,NNB,C,13
11,test,5,0.0,2-Back,1.0,m,Thu May 07 2026 15:33:46 GMT-0500 (Central Daylight Time),561047.3999999762,059_o_m_n_a.png,I,m,787,16,,1813.699999988079,559233.6999999881,8069,NNB,C,14
12,test,5,0.0,2-Back,1.0,m,Thu May 07 2026 15:33:46 GMT-0500 (Central Daylight Time),563230.1999999881,006_m_f_n_a.png,I,m,1163,17,,2180.400000035763,561049.7999999523,8069,NNB,C,15
13,test,5,1.0,2-Back,1.0,z,Thu May 07 2026 15:33:46 GMT-0500 (Central Daylight Time),564958.0999999642,059_o_m_n_a.png,I,z,711,18,,1725.5,563232.5999999642,8069,NNB,C,16
