acc_sum,block,block_c,change,condition,correct,correct_response,datetime,endtime,face,project,response,response_time,row_sel,session_number,start_end,starttime,subject_id,task,task_vers,trial
0,prac,1,,1-Back,,,Thu Mar 12 2026 14:42:52 GMT-0400 (Eastern Daylight Time),,005_o_f_d_a.png,I,space,19093,1,1,,,9073,VNB,B,0
0,prac,1,0.0,1-Back,0.0,m,Thu Mar 12 2026 14:42:52 GMT-0400 (Eastern Daylight Time),190083.09999996424,020_y_f_n_a.png,I,None,2003,2,1,2914.099999964237,187169.0,9073,VNB,B,1
0,prac,1,0.0,1-Back,0.0,m,Thu Mar 12 2026 14:42:52 GMT-0400 (Eastern Daylight Time),193032.89999997616,007_m_m_h_a.png,I,None,2013,3,1,2939.399999976158,190093.5,9073,VNB,B,2
1,prac,1,0.0,1-Back,1.0,m,Thu Mar 12 2026 14:42:52 GMT-0400 (Eastern Daylight Time),195316.39999997616,016_y_m_d_a.png,I,m,1313,4,1,2267.099999964237,193049.30000001192,9073,VNB,B,3
1,prac,1,0.0,1-Back,0.0,m,Thu Mar 12 2026 14:42:52 GMT-0400 (Eastern Daylight Time),197849.69999998808,005_o_f_n_a.png,I,z,1603,5,1,2525.699999988079,195324.0,9073,VNB,B,4
2,prac,1,1.0,1-Back,1.0,z,Thu Mar 12 2026 14:42:52 GMT-0400 (Eastern Daylight Time),200433.19999998808,016_y_m_n_a.png,I,z,1611,6,1,2565.699999988079,197867.5,9073,VNB,B,5
3,prac,1,0.0,1-Back,1.0,m,Thu Mar 12 2026 14:42:52 GMT-0400 (Eastern Daylight Time),202499.80000001192,004_o_m_h_a.png,I,m,1145,7,1,2058.400000035763,200441.39999997616,9073,VNB,B,6
4,prac,1,0.0,1-Back,1.0,m,Thu Mar 12 2026 14:42:52 GMT-0400 (Eastern Daylight Time),204799.80000001192,011_m_f_d_a.png,I,m,1344,8,1,2281.800000011921,202518.0,9073,VNB,B,7
5,prac,1,1.0,1-Back,1.0,z,Thu Mar 12 2026 14:42:52 GMT-0400 (Eastern Daylight Time),207099.80000001192,020_y_f_d_a.png,I,z,1377,9,1,2292.100000023842,204807.69999998808,9073,VNB,B,8
6,prac,1,0.0,1-Back,1.0,m,Thu Mar 12 2026 14:42:52 GMT-0400 (Eastern Daylight Time),209132.59999996424,007_m_m_n_a.png,I,m,1071,10,1,2015.5,207117.09999996424,9073,VNB,B,9
7,prac,1,0.0,1-Back,1.0,m,Thu Mar 12 2026 14:42:52 GMT-0400 (Eastern Daylight Time),211899.89999997616,005_o_f_h_a.png,I,m,1836,11,1,2762.399999976158,209137.5,9073,VNB,B,10
7,prac,1,0.0,1-Back,0.0,m,Thu Mar 12 2026 14:42:52 GMT-0400 (Eastern Daylight Time),214499.69999998808,016_y_m_d_a.png,I,z,1622,12,1,2582.100000023842,211917.59999996424,9073,VNB,B,11
0,prac,2,0.0,1-Back,,,Thu Mar 12 2026 14:42:52 GMT-0400 (Eastern Daylight Time),214499.69999998808,005_o_f_d_a.png,I,a,11521,1,1,2582.100000023842,211917.59999996424,9073,VNB,B,0
1,prac,2,0.0,1-Back,1.0,m,Thu Mar 12 2026 14:42:52 GMT-0400 (Eastern Daylight Time),230983.19999998808,020_y_f_n_a.png,I,m,980,2,1,1894.699999988079,229088.5,9073,VNB,B,1
2,prac,2,0.0,1-Back,1.0,m,Thu Mar 12 2026 14:42:52 GMT-0400 (Eastern Daylight Time),233666.5,007_m_m_h_a.png,I,m,1732,3,1,2671.5,230995.0,9073,VNB,B,2
2,prac,2,0.0,1-Back,0.0,m,Thu Mar 12 2026 14:42:52 GMT-0400 (Eastern Daylight Time),235749.80000001192,016_y_m_d_a.png,I,z,1297,4,1,2065.300000011921,233684.5,9073,VNB,B,3
3,prac,2,0.0,1-Back,1.0,m,Thu Mar 12 2026 14:42:52 GMT-0400 (Eastern Daylight Time),238549.89999997616,005_o_f_n_a.png,I,m,1871,5,1,2788.899999976158,235761.0,9073,VNB,B,4
4,prac,2,1.0,1-Back,1.0,z,Thu Mar 12 2026 14:42:52 GMT-0400 (Eastern Daylight Time),240699.89999997616,016_y_m_n_a.png,I,z,1183,6,1,2135.5,238564.39999997616,9073,VNB,B,5
5,prac,2,0.0,1-Back,1.0,m,Thu Mar 12 2026 14:42:52 GMT-0400 (Eastern Daylight Time),242718.30000001192,004_o_m_h_a.png,I,m,1117,7,1,2010.300000011921,240708.0,9073,VNB,B,6
6,prac,2,0.0,1-Back,1.0,m,Thu Mar 12 2026 14:42:52 GMT-0400 (Eastern Daylight Time),244766.30000001192,011_m_f_d_a.png,I,m,1094,8,1,2035.5,242730.80000001192,9073,VNB,B,7
7,prac,2,1.0,1-Back,1.0,z,Thu Mar 12 2026 14:42:52 GMT-0400 (Eastern Daylight Time),246933.19999998808,020_y_f_d_a.png,I,z,1224,9,1,2160.0,244773.19999998808,9073,VNB,B,8
8,prac,2,0.0,1-Back,1.0,m,Thu Mar 12 2026 14:42:52 GMT-0400 (Eastern Daylight Time),248866.5,007_m_m_n_a.png,I,m,962,10,1,1914.0,246952.5,9073,VNB,B,9
9,prac,2,0.0,1-Back,1.0,m,Thu Mar 12 2026 14:42:52 GMT-0400 (Eastern Daylight Time),250849.69999998808,005_o_f_h_a.png,I,m,1044,11,1,1975.5,248874.19999998808,9073,VNB,B,10
10,prac,2,0.0,1-Back,1.0,m,Thu Mar 12 2026 14:42:52 GMT-0400 (Eastern Daylight Time),252683.19999998808,016_y_m_d_a.png,I,m,870,12,1,1816.3999999761581,250866.80000001192,9073,VNB,B,11
0,test,1,0.0,1-Back,,,Thu Mar 12 2026 14:42:52 GMT-0400 (Eastern Daylight Time),252683.19999998808,020_y_f_d_a.png,I,space,11750,1,1,1816.3999999761581,250866.80000001192,9073,VNB,B,0
1,test,1,0.0,1-Back,1.0,m,Thu Mar 12 2026 14:42:52 GMT-0400 (Eastern Daylight Time),272533.1999999881,011_m_f_n_a.png,I,m,917,2,1,1950.8999999761581,270582.3000000119,9073,VNB,B,1
2,test,1,0.0,1-Back,1.0,m,Thu Mar 12 2026 14:42:52 GMT-0400 (Eastern Daylight Time),274466.39999997616,004_o_m_h_a.png,I,m,904,3,1,1924.199999988079,272542.1999999881,9073,VNB,B,2
3,test,1,1.0,1-Back,1.0,z,Thu Mar 12 2026 14:42:52 GMT-0400 (Eastern Daylight Time),276449.6999999881,007_m_m_h_a.png,I,z,954,4,1,1970.8999999761581,274478.8000000119,9073,VNB,B,3
4,test,1,0.0,1-Back,1.0,m,Thu Mar 12 2026 14:42:52 GMT-0400 (Eastern Daylight Time),278166.59999996424,005_o_f_n_a.png,I,m,699,5,1,1709.8999999761581,276456.6999999881,9073,VNB,B,4
5,test,1,0.0,1-Back,1.0,m,Thu Mar 12 2026 14:42:52 GMT-0400 (Eastern Daylight Time),280116.39999997616,016_y_m_d_a.png,I,m,901,6,1,1933.8999999761581,278182.5,9073,VNB,B,5
6,test,1,1.0,1-Back,1.0,z,Thu Mar 12 2026 14:42:52 GMT-0400 (Eastern Daylight Time),281949.6999999881,011_m_f_d_a.png,I,z,808,7,1,1825.8999999761581,280123.8000000119,9073,VNB,B,6
7,test,1,0.0,1-Back,1.0,m,Thu Mar 12 2026 14:42:52 GMT-0400 (Eastern Daylight Time),284133.1999999881,020_y_f_h_a.png,I,m,1135,8,1,2167.899999976158,281965.3000000119,9073,VNB,B,7
8,test,1,0.0,1-Back,1.0,m,Thu Mar 12 2026 14:42:52 GMT-0400 (Eastern Daylight Time),286133.09999996424,004_o_m_n_a.png,I,m,968,9,1,1992.5,284140.59999996424,9073,VNB,B,8
8,test,1,0.0,1-Back,0.0,m,Thu Mar 12 2026 14:42:52 GMT-0400 (Eastern Daylight Time),288033.09999996424,016_y_m_h_a.png,I,z,871,10,1,1886.0999999642372,286147.0,9073,VNB,B,9
9,test,1,0.0,1-Back,1.0,m,Thu Mar 12 2026 14:42:52 GMT-0400 (Eastern Daylight Time),289999.8000000119,004_o_m_d_a.png,I,m,940,11,1,1960.6000000238419,288039.1999999881,9073,VNB,B,10
10,test,1,1.0,1-Back,1.0,z,Thu Mar 12 2026 14:42:52 GMT-0400 (Eastern Daylight Time),292116.39999997616,005_o_f_d_a.png,I,z,1068,12,1,2101.300000011921,290015.09999996424,9073,VNB,B,11
11,test,1,0.0,1-Back,1.0,m,Thu Mar 12 2026 14:42:52 GMT-0400 (Eastern Daylight Time),293899.6999999881,007_m_m_n_a.png,I,m,760,13,1,1776.0,292123.6999999881,9073,VNB,B,12
12,test,1,1.0,1-Back,1.0,z,Thu Mar 12 2026 14:42:52 GMT-0400 (Eastern Daylight Time),295933.09999996424,020_y_f_n_a.png,I,z,993,14,1,2015.5999999642372,293917.5,9073,VNB,B,13
13,test,1,0.0,1-Back,1.0,m,Thu Mar 12 2026 14:42:52 GMT-0400 (Eastern Daylight Time),297982.89999997616,011_m_f_h_a.png,I,m,1024,15,1,2043.699999988079,295939.1999999881,9073,VNB,B,14
14,test,1,0.0,1-Back,1.0,m,Thu Mar 12 2026 14:42:52 GMT-0400 (Eastern Daylight Time),299833.0,007_m_m_d_a.png,I,m,829,16,1,1837.6000000238419,297995.39999997616,9073,VNB,B,15
14,test,1,0.0,1-Back,0.0,m,Thu Mar 12 2026 14:42:52 GMT-0400 (Eastern Daylight Time),302216.1999999881,016_y_m_n_a.png,I,z,1363,17,1,2374.600000023842,299841.59999996424,9073,VNB,B,16
15,test,1,0.0,1-Back,1.0,m,Thu Mar 12 2026 14:42:52 GMT-0400 (Eastern Daylight Time),304066.5,005_o_f_h_a.png,I,m,820,18,1,1836.699999988079,302229.8000000119,9073,VNB,B,17
0,test,2,0.0,1-Back,,,Thu Mar 12 2026 14:42:52 GMT-0400 (Eastern Daylight Time),304066.5,016_y_m_n_a.png,I,space,3426,1,1,1836.699999988079,302229.8000000119,9073,VNB,B,0
1,test,2,0.0,1-Back,1.0,m,Thu Mar 12 2026 14:42:52 GMT-0400 (Eastern Daylight Time),311583.09999996424,020_y_f_h_a.png,I,m,1024,2,1,2050.5,309532.59999996424,9073,VNB,B,1
2,test,2,1.0,1-Back,1.0,m,Thu Mar 12 2026 14:42:52 GMT-0400 (Eastern Daylight Time),313416.1999999881,004_o_m_n_a.png,I,m,815,3,1,1825.800000011921,311590.39999997616,9073,VNB,B,2
3,test,2,0.0,1-Back,1.0,m,Thu Mar 12 2026 14:42:52 GMT-0400 (Eastern Daylight Time),315399.5,011_m_f_d_a.png,I,m,964,4,1,1970.0,313429.5,9073,VNB,B,3
4,test,2,0.0,1-Back,1.0,z,Thu Mar 12 2026 14:42:52 GMT-0400 (Eastern Daylight Time),317199.89999997616,007_m_m_d_a.png,I,z,773,5,1,1793.800000011921,315406.09999996424,9073,VNB,B,4
5,test,2,0.0,1-Back,1.0,m,Thu Mar 12 2026 14:42:52 GMT-0400 (Eastern Daylight Time),318899.8000000119,016_y_m_h_a.png,I,m,652,6,1,1684.5,317215.3000000119,9073,VNB,B,5
6,test,2,1.0,1-Back,1.0,z,Thu Mar 12 2026 14:42:52 GMT-0400 (Eastern Daylight Time),320849.8000000119,005_o_f_h_a.png,I,z,921,7,1,1941.300000011921,318908.5,9073,VNB,B,6
7,test,2,0.0,1-Back,1.0,m,Thu Mar 12 2026 14:42:52 GMT-0400 (Eastern Daylight Time),322882.6999999881,011_m_f_n_a.png,I,m,986,8,1,2013.5,320869.1999999881,9073,VNB,B,7
8,test,2,0.0,1-Back,1.0,m,Thu Mar 12 2026 14:42:52 GMT-0400 (Eastern Daylight Time),324783.09999996424,020_y_f_d_a.png,I,m,874,9,1,1896.699999988079,322886.39999997616,9073,VNB,B,8
9,test,2,0.0,1-Back,1.0,m,Thu Mar 12 2026 14:42:52 GMT-0400 (Eastern Daylight Time),326783.09999996424,007_m_m_n_a.png,I,m,973,10,1,1985.2999999523163,324797.8000000119,9073,VNB,B,9
10,test,2,1.0,1-Back,1.0,m,Thu Mar 12 2026 14:42:52 GMT-0400 (Eastern Daylight Time),328883.09999996424,011_m_f_h_a.png,I,m,1070,11,1,2092.599999964237,326790.5,9073,VNB,B,10
11,test,2,0.0,1-Back,1.0,z,Thu Mar 12 2026 14:42:52 GMT-0400 (Eastern Daylight Time),330666.39999997616,004_o_m_h_a.png,I,z,761,12,1,1769.199999988079,328897.1999999881,9073,VNB,B,11
12,test,2,0.0,1-Back,1.0,m,Thu Mar 12 2026 14:42:52 GMT-0400 (Eastern Daylight Time),332249.8000000119,016_y_m_d_a.png,I,m,562,13,1,1576.2000000476837,330673.59999996424,9073,VNB,B,12
13,test,2,0.0,1-Back,1.0,m,Thu Mar 12 2026 14:42:52 GMT-0400 (Eastern Daylight Time),334199.59999996424,005_o_f_n_a.png,I,m,931,14,1,1935.0,332264.59999996424,9073,VNB,B,13
14,test,2,0.0,1-Back,1.0,z,Thu Mar 12 2026 14:42:52 GMT-0400 (Eastern Daylight Time),335916.39999997616,020_y_f_n_a.png,I,z,694,15,1,1709.5,334206.89999997616,9073,VNB,B,14
15,test,2,1.0,1-Back,1.0,m,Thu Mar 12 2026 14:42:52 GMT-0400 (Eastern Daylight Time),337516.59999996424,007_m_m_h_a.png,I,m,560,16,1,1584.5,335932.09999996424,9073,VNB,B,15
16,test,2,0.0,1-Back,1.0,m,Thu Mar 12 2026 14:42:52 GMT-0400 (Eastern Daylight Time),339333.09999996424,005_o_f_d_a.png,I,m,784,17,1,1810.3999999761581,337522.6999999881,9073,VNB,B,16
16,test,2,1.0,1-Back,0.0,z,Thu Mar 12 2026 14:42:52 GMT-0400 (Eastern Daylight Time),341899.8000000119,004_o_m_d_a.png,I,m,1543,18,1,2551.0,339348.8000000119,9073,VNB,B,17
0,test,3,1.0,1-Back,,,Thu Mar 12 2026 14:42:52 GMT-0400 (Eastern Daylight Time),341899.8000000119,005_o_f_h_a.png,I,space,3065,1,1,2551.0,339348.8000000119,9073,VNB,B,0
1,test,3,0.0,1-Back,1.0,m,Thu Mar 12 2026 14:42:52 GMT-0400 (Eastern Daylight Time),348999.59999996424,011_m_f_d_a.png,I,m,832,2,1,1846.199999988079,347153.39999997616,9073,VNB,B,1
2,test,3,1.0,1-Back,1.0,m,Thu Mar 12 2026 14:42:52 GMT-0400 (Eastern Daylight Time),350899.89999997616,007_m_m_n_a.png,I,m,869,3,1,1894.0999999642372,349005.8000000119,9073,VNB,B,2
3,test,3,0.0,1-Back,1.0,z,Thu Mar 12 2026 14:42:52 GMT-0400 (Eastern Daylight Time),352916.5,005_o_f_n_a.png,I,z,984,4,1,2004.5,350912.0,9073,VNB,B,3
4,test,3,1.0,1-Back,1.0,m,Thu Mar 12 2026 14:42:52 GMT-0400 (Eastern Daylight Time),354899.8000000119,004_o_m_d_a.png,I,m,952,5,1,1975.6000000238419,352924.1999999881,9073,VNB,B,4
5,test,3,0.0,1-Back,1.0,m,Thu Mar 12 2026 14:42:52 GMT-0400 (Eastern Daylight Time),356899.89999997616,020_y_f_h_a.png,I,m,968,6,1,1986.0999999642372,354913.8000000119,9073,VNB,B,5
6,test,3,0.0,1-Back,1.0,z,Thu Mar 12 2026 14:42:52 GMT-0400 (Eastern Daylight Time),358583.3000000119,016_y_m_h_a.png,I,z,650,7,1,1674.300000011921,356909.0,9073,VNB,B,6
7,test,3,0.0,1-Back,1.0,m,Thu Mar 12 2026 14:42:52 GMT-0400 (Eastern Daylight Time),360183.1999999881,011_m_f_n_a.png,I,m,551,8,1,1583.300000011921,358599.89999997616,9073,VNB,B,7
7,test,3,0.0,1-Back,0.0,m,Thu Mar 12 2026 14:42:52 GMT-0400 (Eastern Daylight Time),361966.5,020_y_f_d_a.png,I,z,757,9,1,1775.9000000357628,360190.59999996424,9073,VNB,B,8
8,test,3,1.0,1-Back,1.0,m,Thu Mar 12 2026 14:42:52 GMT-0400 (Eastern Daylight Time),363799.59999996424,004_o_m_n_a.png,I,m,798,10,1,1817.2999999523163,361982.3000000119,9073,VNB,B,9
9,test,3,0.0,1-Back,1.0,m,Thu Mar 12 2026 14:42:52 GMT-0400 (Eastern Daylight Time),365816.3000000119,007_m_m_h_a.png,I,m,997,11,1,2009.7000000476837,363806.59999996424,9073,VNB,B,10
10,test,3,0.0,1-Back,1.0,z,Thu Mar 12 2026 14:42:52 GMT-0400 (Eastern Daylight Time),367933.1999999881,011_m_f_h_a.png,I,z,1092,12,1,2106.399999976158,365826.8000000119,9073,VNB,B,11
11,test,3,1.0,1-Back,1.0,m,Thu Mar 12 2026 14:42:52 GMT-0400 (Eastern Daylight Time),369717.6999999881,005_o_f_d_a.png,I,m,766,13,1,1777.8999999761581,367939.8000000119,9073,VNB,B,12
11,test,3,0.0,1-Back,0.0,z,Thu Mar 12 2026 14:42:52 GMT-0400 (Eastern Daylight Time),372283.1999999881,007_m_m_d_a.png,I,m,1544,14,1,2555.300000011921,369727.89999997616,9073,VNB,B,13
12,test,3,0.0,1-Back,1.0,m,Thu Mar 12 2026 14:42:52 GMT-0400 (Eastern Daylight Time),374799.89999997616,016_y_m_n_a.png,I,m,1489,15,1,2508.099999964237,372291.8000000119,9073,VNB,B,14
13,test,3,1.0,1-Back,1.0,m,Thu Mar 12 2026 14:42:52 GMT-0400 (Eastern Daylight Time),376783.3000000119,004_o_m_h_a.png,I,m,957,16,1,1969.800000011921,374813.5,9073,VNB,B,15
14,test,3,0.0,1-Back,1.0,m,Thu Mar 12 2026 14:42:52 GMT-0400 (Eastern Daylight Time),378549.89999997616,016_y_m_d_a.png,I,m,750,17,1,1758.8999999761581,376791.0,9073,VNB,B,16
15,test,3,1.0,1-Back,1.0,m,Thu Mar 12 2026 14:42:52 GMT-0400 (Eastern Daylight Time),380566.89999997616,020_y_f_n_a.png,I,m,998,18,1,2008.0999999642372,378558.8000000119,9073,VNB,B,17
0,test,4,1.0,1-Back,,,Thu Mar 12 2026 14:42:52 GMT-0400 (Eastern Daylight Time),380566.89999997616,007_m_m_d_a.png,I,space,1919,1,1,2008.0999999642372,378558.8000000119,9073,VNB,B,0
1,test,4,0.0,1-Back,1.0,z,Thu Mar 12 2026 14:42:52 GMT-0400 (Eastern Daylight Time),387016.3000000119,004_o_m_d_a.png,I,z,1480,2,1,2485.2000000476837,384531.09999996424,9073,VNB,B,1
2,test,4,0.0,1-Back,1.0,m,Thu Mar 12 2026 14:42:52 GMT-0400 (Eastern Daylight Time),389399.59999996424,016_y_m_h_a.png,I,m,1364,3,1,2376.5,387023.09999996424,9073,VNB,B,2
3,test,4,0.0,1-Back,1.0,m,Thu Mar 12 2026 14:42:52 GMT-0400 (Eastern Daylight Time),391432.89999997616,011_m_f_n_a.png,I,m,1012,4,1,2020.0,389412.89999997616,9073,VNB,B,3
4,test,4,1.0,1-Back,1.0,m,Thu Mar 12 2026 14:42:52 GMT-0400 (Eastern Daylight Time),393366.5,005_o_f_h_a.png,I,m,901,5,1,1930.1000000238419,391436.39999997616,9073,VNB,B,4
5,test,4,0.0,1-Back,1.0,m,Thu Mar 12 2026 14:42:52 GMT-0400 (Eastern Daylight Time),395616.59999996424,007_m_m_n_a.png,I,m,1222,6,1,2237.699999988079,393378.89999997616,9073,VNB,B,5
6,test,4,0.0,1-Back,1.0,m,Thu Mar 12 2026 14:42:52 GMT-0400 (Eastern Daylight Time),397766.59999996424,016_y_m_d_a.png,I,m,1116,7,1,2142.899999976158,395623.6999999881,9073,VNB,B,6
7,test,4,1.0,1-Back,1.0,z,Thu Mar 12 2026 14:42:52 GMT-0400 (Eastern Daylight Time),399566.59999996424,020_y_f_d_a.png,I,z,774,8,1,1785.3999999761581,397781.1999999881,9073,VNB,B,7
8,test,4,0.0,1-Back,1.0,m,Thu Mar 12 2026 14:42:52 GMT-0400 (Eastern Daylight Time),401366.59999996424,011_m_f_h_a.png,I,m,766,9,1,1793.0,399573.59999996424,9073,VNB,B,8
9,test,4,0.0,1-Back,1.0,z,Thu Mar 12 2026 14:42:52 GMT-0400 (Eastern Daylight Time),403883.1999999881,004_o_m_h_a.png,I,z,1495,10,1,2504.100000023842,401379.09999996424,9073,VNB,B,9
10,test,4,1.0,1-Back,1.0,m,Thu Mar 12 2026 14:42:52 GMT-0400 (Eastern Daylight Time),405599.89999997616,005_o_f_n_a.png,I,m,689,11,1,1710.0,403889.89999997616,9073,VNB,B,10
11,test,4,0.0,1-Back,1.0,m,Thu Mar 12 2026 14:42:52 GMT-0400 (Eastern Daylight Time),408066.3000000119,011_m_f_d_a.png,I,m,1437,12,1,2451.7000000476837,405614.59999996424,9073,VNB,B,11
12,test,4,0.0,1-Back,1.0,m,Thu Mar 12 2026 14:42:52 GMT-0400 (Eastern Daylight Time),410366.59999996424,020_y_f_n_a.png,I,m,1274,13,1,2297.099999964237,408069.5,9073,VNB,B,12
13,test,4,0.0,1-Back,1.0,m,Thu Mar 12 2026 14:42:52 GMT-0400 (Eastern Daylight Time),412566.6999999881,005_o_f_d_a.png,I,m,1166,14,1,2186.300000011921,410380.39999997616,9073,VNB,B,13
14,test,4,0.0,1-Back,1.0,m,Thu Mar 12 2026 14:42:52 GMT-0400 (Eastern Daylight Time),414566.5,020_y_f_h_a.png,I,m,967,15,1,1993.699999988079,412572.8000000119,9073,VNB,B,14
15,test,4,1.0,1-Back,1.0,z,Thu Mar 12 2026 14:42:52 GMT-0400 (Eastern Daylight Time),416400.0,007_m_m_h_a.png,I,z,806,16,1,1820.9000000357628,414579.09999996424,9073,VNB,B,15
16,test,4,0.0,1-Back,1.0,m,Thu Mar 12 2026 14:42:52 GMT-0400 (Eastern Daylight Time),418183.0,004_o_m_n_a.png,I,m,765,17,1,1775.9000000357628,416407.09999996424,9073,VNB,B,16
16,test,4,1.0,1-Back,0.0,z,Thu Mar 12 2026 14:42:52 GMT-0400 (Eastern Daylight Time),421033.1999999881,016_y_m_n_a.png,I,m,1829,18,1,2837.100000023842,418196.09999996424,9073,VNB,B,17
0,test,5,1.0,1-Back,,,Thu Mar 12 2026 14:42:52 GMT-0400 (Eastern Daylight Time),421033.1999999881,004_o_m_n_a.png,I,space,1579,1,1,2837.100000023842,418196.09999996424,9073,VNB,B,0
1,test,5,1.0,1-Back,1.0,m,Thu Mar 12 2026 14:42:52 GMT-0400 (Eastern Daylight Time),426583.39999997616,005_o_f_h_a.png,I,m,916,2,1,1934.3999999761581,424649.0,9073,VNB,B,1
2,test,5,0.0,1-Back,1.0,m,Thu Mar 12 2026 14:42:52 GMT-0400 (Eastern Daylight Time),428567.39999997616,016_y_m_d_a.png,I,m,965,3,1,1979.0999999642372,426588.3000000119,9073,VNB,B,2
3,test,5,0.0,1-Back,1.0,z,Thu Mar 12 2026 14:42:52 GMT-0400 (Eastern Daylight Time),430299.89999997616,004_o_m_d_a.png,I,z,710,4,1,1722.0999999642372,428577.8000000119,9073,VNB,B,3
4,test,5,0.0,1-Back,1.0,m,Thu Mar 12 2026 14:42:52 GMT-0400 (Eastern Daylight Time),432233.09999996424,011_m_f_h_a.png,I,m,913,5,1,1926.3999999761581,430306.6999999881,9073,VNB,B,4
5,test,5,0.0,1-Back,1.0,m,Thu Mar 12 2026 14:42:52 GMT-0400 (Eastern Daylight Time),434116.59999996424,020_y_f_n_a.png,I,m,851,6,1,1869.3999999761581,432247.1999999881,9073,VNB,B,5
6,test,5,1.0,1-Back,1.0,z,Thu Mar 12 2026 14:42:52 GMT-0400 (Eastern Daylight Time),435883.3000000119,005_o_f_n_a.png,I,z,744,7,1,1759.7000000476837,434123.59999996424,9073,VNB,B,6
7,test,5,0.0,1-Back,1.0,m,Thu Mar 12 2026 14:42:52 GMT-0400 (Eastern Daylight Time),437899.89999997616,011_m_f_d_a.png,I,m,978,8,1,2000.3999999761581,435899.5,9073,VNB,B,7
8,test,5,0.0,1-Back,1.0,m,Thu Mar 12 2026 14:42:52 GMT-0400 (Eastern Daylight Time),439766.6999999881,016_y_m_h_a.png,I,m,833,9,1,1859.800000011921,437906.89999997616,9073,VNB,B,8
9,test,5,0.0,1-Back,1.0,m,Thu Mar 12 2026 14:42:52 GMT-0400 (Eastern Daylight Time),441550.09999996424,020_y_f_d_a.png,I,m,758,10,1,1770.5,439779.59999996424,9073,VNB,B,9
10,test,5,0.0,1-Back,1.0,m,Thu Mar 12 2026 14:42:52 GMT-0400 (Eastern Daylight Time),443433.0,007_m_m_n_a.png,I,m,863,11,1,1875.800000011921,441557.1999999881,9073,VNB,B,10
11,test,5,1.0,1-Back,1.0,z,Thu Mar 12 2026 14:42:52 GMT-0400 (Eastern Daylight Time),445466.3000000119,011_m_f_n_a.png,I,z,1011,12,1,2018.9000000357628,443447.39999997616,9073,VNB,B,11
12,test,5,0.0,1-Back,1.0,m,Thu Mar 12 2026 14:42:52 GMT-0400 (Eastern Daylight Time),447483.09999996424,004_o_m_h_a.png,I,m,996,13,1,2013.7999999523163,445469.3000000119,9073,VNB,B,12
13,test,5,0.0,1-Back,1.0,z,Thu Mar 12 2026 14:42:52 GMT-0400 (Eastern Daylight Time),449466.59999996424,007_m_m_h_a.png,I,z,962,14,1,1968.3999999761581,447498.1999999881,9073,VNB,B,13
14,test,5,1.0,1-Back,1.0,m,Thu Mar 12 2026 14:42:52 GMT-0400 (Eastern Daylight Time),451183.39999997616,005_o_f_d_a.png,I,m,690,15,1,1710.0,449473.39999997616,9073,VNB,B,14
15,test,5,0.0,1-Back,1.0,m,Thu Mar 12 2026 14:42:52 GMT-0400 (Eastern Daylight Time),452966.59999996424,016_y_m_n_a.png,I,m,734,16,1,1767.0,451199.59999996424,9073,VNB,B,15
16,test,5,0.0,1-Back,1.0,m,Thu Mar 12 2026 14:42:52 GMT-0400 (Eastern Daylight Time),454950.0,020_y_f_h_a.png,I,m,950,17,1,1977.6000000238419,452972.39999997616,9073,VNB,B,16
17,test,5,0.0,1-Back,1.0,m,Thu Mar 12 2026 14:42:52 GMT-0400 (Eastern Daylight Time),456683.3000000119,007_m_m_d_a.png,I,m,710,18,1,1718.4000000357628,454964.89999997616,9073,VNB,B,17
0,prac,1,0.0,2-Back,,,Thu Mar 12 2026 14:42:52 GMT-0400 (Eastern Daylight Time),456683.3000000119,011_m_f_n_a.png,I,space,12815,1,1,1718.4000000357628,454964.89999997616,9073,VNB,B,0
0,prac,1,0.0,2-Back,,,Thu Mar 12 2026 14:42:52 GMT-0400 (Eastern Daylight Time),456683.3000000119,005_o_f_h_a.png,I,space,12815,2,1,1718.4000000357628,454964.89999997616,9073,VNB,B,0
1,prac,1,0.0,2-Back,1.0,m,Thu Mar 12 2026 14:42:52 GMT-0400 (Eastern Daylight Time),570950.8000000119,004_o_m_d_a.png,I,m,1090,3,1,1991.800000011921,568959.0,9073,VNB,B,1
1,prac,1,1.0,2-Back,0.0,z,Thu Mar 12 2026 14:42:52 GMT-0400 (Eastern Daylight Time),573483.5,007_m_m_h_a.png,I,m,1571,4,1,2513.5,570970.0,9073,VNB,B,2
2,prac,1,0.0,2-Back,1.0,m,Thu Mar 12 2026 14:42:52 GMT-0400 (Eastern Daylight Time),575650.3000000119,020_y_f_n_a.png,I,m,1243,5,1,2156.2000000476837,573494.0999999642,9073,VNB,B,3
3,prac,1,1.0,2-Back,1.0,z,Thu Mar 12 2026 14:42:52 GMT-0400 (Eastern Daylight Time),577983.6999999881,004_o_m_h_a.png,I,z,1396,6,1,2316.399999976158,575667.3000000119,9073,VNB,B,4
3,prac,1,1.0,2-Back,0.0,z,Thu Mar 12 2026 14:42:52 GMT-0400 (Eastern Daylight Time),579900.3000000119,016_y_m_n_a.png,I,m,974,7,1,1908.2000000476837,577992.0999999642,9073,VNB,B,5
4,prac,1,0.0,2-Back,1.0,m,Thu Mar 12 2026 14:42:52 GMT-0400 (Eastern Daylight Time),582050.3999999762,011_m_f_d_a.png,I,m,1179,8,1,2131.699999988079,579918.6999999881,9073,VNB,B,6
5,prac,1,0.0,2-Back,1.0,m,Thu Mar 12 2026 14:42:52 GMT-0400 (Eastern Daylight Time),584483.8000000119,005_o_f_d_a.png,I,m,1489,9,1,2425.2000000476837,582058.5999999642,9073,VNB,B,7
6,prac,1,0.0,2-Back,1.0,m,Thu Mar 12 2026 14:42:52 GMT-0400 (Eastern Daylight Time),586567.0999999642,007_m_m_h_a.png,I,m,1299,10,1,2067.099999964237,584500.0,9073,VNB,B,8
7,prac,1,1.0,2-Back,1.0,z,Thu Mar 12 2026 14:42:52 GMT-0400 (Eastern Daylight Time),588585.3999999762,020_y_f_d_a.png,I,z,1111,11,1,2008.699999988079,586576.6999999881,9073,VNB,B,9
8,prac,1,0.0,2-Back,1.0,m,Thu Mar 12 2026 14:42:52 GMT-0400 (Eastern Daylight Time),590916.8000000119,004_o_m_n_a.png,I,m,1419,12,1,2318.100000023842,588598.6999999881,9073,VNB,B,10
0,test,1,0.0,2-Back,,,Thu Mar 12 2026 14:42:52 GMT-0400 (Eastern Daylight Time),590916.8000000119,016_y_m_h_a.png,I,space,7685,1,1,2318.100000023842,588598.6999999881,9073,VNB,B,0
0,test,1,0.0,2-Back,,,Thu Mar 12 2026 14:42:52 GMT-0400 (Eastern Daylight Time),590916.8000000119,005_o_f_n_a.png,I,space,7685,2,1,2318.100000023842,588598.6999999881,9073,VNB,B,0
1,test,1,0.0,2-Back,1.0,z,Thu Mar 12 2026 14:42:52 GMT-0400 (Eastern Daylight Time),613867.0999999642,004_o_m_h_a.png,I,z,745,3,1,1760.8999999761581,612106.1999999881,9073,VNB,B,1
2,test,1,0.0,2-Back,1.0,m,Thu Mar 12 2026 14:42:52 GMT-0400 (Eastern Daylight Time),615917.0,011_m_f_d_a.png,I,m,1027,4,1,2035.6000000238419,613881.3999999762,9073,VNB,B,2
3,test,1,1.0,2-Back,1.0,m,Thu Mar 12 2026 14:42:52 GMT-0400 (Eastern Daylight Time),618133.3000000119,016_y_m_n_a.png,I,m,1183,5,1,2209.7000000476837,615923.5999999642,9073,VNB,B,3
3,test,1,0.0,2-Back,0.0,z,Thu Mar 12 2026 14:42:52 GMT-0400 (Eastern Daylight Time),620133.5999999642,020_y_f_d_a.png,I,m,952,6,1,1982.5999999642372,618151.0,9073,VNB,B,4
4,test,1,0.0,2-Back,1.0,m,Thu Mar 12 2026 14:42:52 GMT-0400 (Eastern Daylight Time),622083.6999999881,007_m_m_h_a.png,I,m,920,7,1,1942.8999999761581,620140.8000000119,9073,VNB,B,5
4,test,1,1.0,2-Back,0.0,m,Thu Mar 12 2026 14:42:52 GMT-0400 (Eastern Daylight Time),624316.8999999762,020_y_f_n_a.png,I,z,1194,8,1,2216.899999976158,622100.0,9073,VNB,B,6
4,test,1,0.0,2-Back,0.0,z,Thu Mar 12 2026 14:42:52 GMT-0400 (Eastern Daylight Time),626616.6999999881,005_o_f_h_a.png,I,m,1281,9,1,2291.100000023842,624325.5999999642,9073,VNB,B,7
5,test,1,0.0,2-Back,1.0,m,Thu Mar 12 2026 14:42:52 GMT-0400 (Eastern Daylight Time),628533.3000000119,004_o_m_d_a.png,I,m,868,10,1,1900.2000000476837,626633.0999999642,9073,VNB,B,8
6,test,1,1.0,2-Back,1.0,m,Thu Mar 12 2026 14:42:52 GMT-0400 (Eastern Daylight Time),630917.0,007_m_m_d_a.png,I,m,1352,11,1,2379.800000011921,628537.1999999881,9073,VNB,B,9
7,test,1,0.0,2-Back,1.0,m,Thu Mar 12 2026 14:42:52 GMT-0400 (Eastern Daylight Time),633750.3000000119,011_m_f_n_a.png,I,m,1801,12,1,2817.7000000476837,630932.5999999642,9073,VNB,B,10
8,test,1,0.0,2-Back,1.0,m,Thu Mar 12 2026 14:42:52 GMT-0400 (Eastern Daylight Time),636450.1999999881,020_y_f_h_a.png,I,m,1671,13,1,2691.600000023842,633758.5999999642,9073,VNB,B,11
9,test,1,0.0,2-Back,1.0,z,Thu Mar 12 2026 14:42:52 GMT-0400 (Eastern Daylight Time),638950.3000000119,007_m_m_n_a.png,I,z,1466,14,1,2484.800000011921,636465.5,9073,VNB,B,12
10,test,1,0.0,2-Back,1.0,m,Thu Mar 12 2026 14:42:52 GMT-0400 (Eastern Daylight Time),641333.5999999642,016_y_m_d_a.png,I,m,1350,15,1,2376.5,638957.0999999642,9073,VNB,B,13
11,test,1,1.0,2-Back,1.0,m,Thu Mar 12 2026 14:42:52 GMT-0400 (Eastern Daylight Time),643900.3000000119,011_m_f_h_a.png,I,m,1528,16,1,2550.100000023842,641350.1999999881,9073,VNB,B,14
11,test,1,0.0,2-Back,0.0,z,Thu Mar 12 2026 14:42:52 GMT-0400 (Eastern Daylight Time),646933.8000000119,005_o_f_d_a.png,I,None,2015,17,1,3026.900000035763,643906.8999999762,9073,VNB,B,15
12,test,1,0.0,2-Back,1.0,m,Thu Mar 12 2026 14:42:52 GMT-0400 (Eastern Daylight Time),648817.0,004_o_m_n_a.png,I,m,839,18,1,1867.4000000357628,646949.5999999642,9073,VNB,B,16
0,test,2,0.0,2-Back,,,Thu Mar 12 2026 14:42:52 GMT-0400 (Eastern Daylight Time),648817.0,007_m_m_h_a.png,I,space,3220,1,1,1867.4000000357628,646949.5999999642,9073,VNB,B,0
0,test,2,0.0,2-Back,,,Thu Mar 12 2026 14:42:52 GMT-0400 (Eastern Daylight Time),648817.0,020_y_f_n_a.png,I,space,3220,2,1,1867.4000000357628,646949.5999999642,9073,VNB,B,0
1,test,2,1.0,2-Back,1.0,z,Thu Mar 12 2026 14:42:52 GMT-0400 (Eastern Daylight Time),659283.6999999881,005_o_f_h_a.png,I,z,870,3,1,1894.3999999761581,657389.3000000119,9073,VNB,B,1
2,test,2,0.0,2-Back,1.0,m,Thu Mar 12 2026 14:42:52 GMT-0400 (Eastern Daylight Time),661183.6999999881,004_o_m_d_a.png,I,m,858,4,1,1883.300000011921,659300.3999999762,9073,VNB,B,2
3,test,2,0.0,2-Back,1.0,m,Thu Mar 12 2026 14:42:52 GMT-0400 (Eastern Daylight Time),663866.8999999762,011_m_f_d_a.png,I,m,1662,5,1,2676.599999964237,661190.3000000119,9073,VNB,B,3
3,test,2,0.0,2-Back,0.0,m,Thu Mar 12 2026 14:42:52 GMT-0400 (Eastern Daylight Time),666783.5999999642,016_y_m_h_a.png,I,z,1890,6,1,2901.199999988079,663882.3999999762,9073,VNB,B,4
4,test,2,0.0,2-Back,1.0,m,Thu Mar 12 2026 14:42:52 GMT-0400 (Eastern Daylight Time),669617.0,005_o_f_n_a.png,I,m,1806,7,1,2827.100000023842,666789.8999999762,9073,VNB,B,5
5,test,2,1.0,2-Back,1.0,z,Thu Mar 12 2026 14:42:52 GMT-0400 (Eastern Daylight Time),672100.3000000119,004_o_m_h_a.png,I,z,1436,8,1,2465.900000035763,669634.3999999762,9073,VNB,B,6
6,test,2,0.0,2-Back,1.0,m,Thu Mar 12 2026 14:42:52 GMT-0400 (Eastern Daylight Time),674400.0999999642,020_y_f_d_a.png,I,m,1273,9,1,2292.899999976158,672107.1999999881,9073,VNB,B,7
7,test,2,0.0,2-Back,1.0,m,Thu Mar 12 2026 14:42:52 GMT-0400 (Eastern Daylight Time),676633.3999999762,016_y_m_d_a.png,I,m,1213,10,1,2218.800000011921,674414.5999999642,9073,VNB,B,8
8,test,2,0.0,2-Back,1.0,m,Thu Mar 12 2026 14:42:52 GMT-0400 (Eastern Daylight Time),679100.3000000119,007_m_m_n_a.png,I,m,1445,11,1,2461.0,676639.3000000119,9073,VNB,B,9
9,test,2,0.0,2-Back,1.0,m,Thu Mar 12 2026 14:42:52 GMT-0400 (Eastern Daylight Time),681116.8999999762,011_m_f_h_a.png,I,m,993,12,1,2001.699999988079,679115.1999999881,9073,VNB,B,10
10,test,2,1.0,2-Back,1.0,z,Thu Mar 12 2026 14:42:52 GMT-0400 (Eastern Daylight Time),683066.8999999762,004_o_m_n_a.png,I,z,929,13,1,1941.199999988079,681125.6999999881,9073,VNB,B,11
11,test,2,0.0,2-Back,1.0,m,Thu Mar 12 2026 14:42:52 GMT-0400 (Eastern Daylight Time),685900.3999999762,005_o_f_d_a.png,I,m,1811,14,1,2820.5,683079.8999999762,9073,VNB,B,12
11,test,2,0.0,2-Back,0.0,m,Thu Mar 12 2026 14:42:52 GMT-0400 (Eastern Daylight Time),688850.3999999762,020_y_f_h_a.png,I,z,1921,15,1,2942.399999976158,685908.0,9073,VNB,B,13
11,test,2,0.0,2-Back,0.0,z,Thu Mar 12 2026 14:42:52 GMT-0400 (Eastern Daylight Time),690650.3000000119,007_m_m_d_a.png,I,m,779,16,1,1789.0,688861.3000000119,9073,VNB,B,14
12,test,2,0.0,2-Back,1.0,m,Thu Mar 12 2026 14:42:52 GMT-0400 (Eastern Daylight Time),692917.0,016_y_m_n_a.png,I,m,1234,17,1,2258.400000035763,690658.5999999642,9073,VNB,B,15
12,test,2,1.0,2-Back,0.0,m,Thu Mar 12 2026 14:42:52 GMT-0400 (Eastern Daylight Time),695950.6999999881,011_m_f_n_a.png,I,None,2015,18,1,3018.300000011921,692932.3999999762,9073,VNB,B,16
0,test,3,1.0,2-Back,,,Thu Mar 12 2026 14:42:52 GMT-0400 (Eastern Daylight Time),695950.6999999881,004_o_m_n_a.png,I,space,3079,1,1,3018.300000011921,692932.3999999762,9073,VNB,B,0
0,test,3,1.0,2-Back,,,Thu Mar 12 2026 14:42:52 GMT-0400 (Eastern Daylight Time),695950.6999999881,005_o_f_d_a.png,I,space,3079,2,1,3018.300000011921,692932.3999999762,9073,VNB,B,0
0,test,3,0.0,2-Back,0.0,m,Thu Mar 12 2026 14:42:52 GMT-0400 (Eastern Daylight Time),707150.5,020_y_f_h_a.png,I,None,2016,3,1,3048.600000023842,704101.8999999762,9073,VNB,B,1
0,test,3,0.0,2-Back,0.0,z,Thu Mar 12 2026 14:42:52 GMT-0400 (Eastern Daylight Time),709416.8999999762,011_m_f_d_a.png,I,m,1247,4,1,2260.399999976158,707156.5,9073,VNB,B,2
1,test,3,1.0,2-Back,1.0,m,Thu Mar 12 2026 14:42:52 GMT-0400 (Eastern Daylight Time),711433.0999999642,016_y_m_n_a.png,I,m,979,5,1,1999.5,709433.5999999642,9073,VNB,B,3
2,test,3,0.0,2-Back,1.0,m,Thu Mar 12 2026 14:42:52 GMT-0400 (Eastern Daylight Time),713733.5999999642,004_o_m_h_a.png,I,m,1268,6,1,2296.5,711437.0999999642,9073,VNB,B,4
2,test,3,0.0,2-Back,0.0,z,Thu Mar 12 2026 14:42:52 GMT-0400 (Eastern Daylight Time),716050.5999999642,020_y_f_n_a.png,I,m,1288,7,1,2301.899999976158,713748.6999999881,9073,VNB,B,5
3,test,3,1.0,2-Back,1.0,m,Thu Mar 12 2026 14:42:52 GMT-0400 (Eastern Daylight Time),718017.0999999642,007_m_m_d_a.png,I,m,939,8,1,1959.199999988079,716057.8999999762,9073,VNB,B,6
4,test,3,0.0,2-Back,1.0,m,Thu Mar 12 2026 14:42:52 GMT-0400 (Eastern Daylight Time),720750.3999999762,016_y_m_d_a.png,I,m,1708,9,1,2718.899999976158,718031.5,9073,VNB,B,7
5,test,3,0.0,2-Back,1.0,m,Thu Mar 12 2026 14:42:52 GMT-0400 (Eastern Daylight Time),722933.6999999881,005_o_f_h_a.png,I,m,1151,10,1,2174.600000023842,720759.0999999642,9073,VNB,B,8
5,test,3,1.0,2-Back,0.0,m,Thu Mar 12 2026 14:42:52 GMT-0400 (Eastern Daylight Time),725500.3999999762,011_m_f_n_a.png,I,z,1528,11,1,2550.300000011921,722950.0999999642,9073,VNB,B,9
5,test,3,1.0,2-Back,0.0,z,Thu Mar 12 2026 14:42:52 GMT-0400 (Eastern Daylight Time),727283.8000000119,007_m_m_h_a.png,I,m,753,12,1,1774.800000011921,725509.0,9073,VNB,B,10
6,test,3,0.0,2-Back,1.0,m,Thu Mar 12 2026 14:42:52 GMT-0400 (Eastern Daylight Time),729850.3000000119,020_y_f_d_a.png,I,m,1529,13,1,2549.7000000476837,727300.5999999642,9073,VNB,B,11
7,test,3,0.0,2-Back,1.0,m,Thu Mar 12 2026 14:42:52 GMT-0400 (Eastern Daylight Time),732450.3999999762,005_o_f_n_a.png,I,m,1572,14,1,2593.399999976158,729857.0,9073,VNB,B,12
8,test,3,0.0,2-Back,1.0,z,Thu Mar 12 2026 14:42:52 GMT-0400 (Eastern Daylight Time),734617.0,004_o_m_d_a.png,I,z,1131,15,1,2145.900000035763,732471.0999999642,9073,VNB,B,13
9,test,3,1.0,2-Back,1.0,m,Thu Mar 12 2026 14:42:52 GMT-0400 (Eastern Daylight Time),737067.0,011_m_f_h_a.png,I,m,1429,16,1,2441.199999988079,734625.8000000119,9073,VNB,B,14
10,test,3,0.0,2-Back,1.0,m,Thu Mar 12 2026 14:42:52 GMT-0400 (Eastern Daylight Time),739750.5,007_m_m_n_a.png,I,m,1635,17,1,2665.400000035763,737085.0999999642,9073,VNB,B,15
11,test,3,0.0,2-Back,1.0,z,Thu Mar 12 2026 14:42:52 GMT-0400 (Eastern Daylight Time),741317.1999999881,016_y_m_h_a.png,I,z,535,18,1,1559.5,739757.6999999881,9073,VNB,B,16
0,test,4,0.0,2-Back,,,Thu Mar 12 2026 14:42:52 GMT-0400 (Eastern Daylight Time),741317.1999999881,011_m_f_n_a.png,I,space,3761,1,1,1559.5,739757.6999999881,9073,VNB,B,0
0,test,4,0.0,2-Back,,,Thu Mar 12 2026 14:42:52 GMT-0400 (Eastern Daylight Time),741317.1999999881,004_o_m_n_a.png,I,space,3761,2,1,1559.5,739757.6999999881,9073,VNB,B,0
0,test,4,1.0,2-Back,0.0,m,Thu Mar 12 2026 14:42:52 GMT-0400 (Eastern Daylight Time),752983.8000000119,016_y_m_h_a.png,I,z,1532,3,1,2550.0,750433.8000000119,9073,VNB,B,1
0,test,4,1.0,2-Back,0.0,m,Thu Mar 12 2026 14:42:52 GMT-0400 (Eastern Daylight Time),756017.3000000119,005_o_f_d_a.png,I,None,2016,4,1,3028.2000000476837,752989.0999999642,9073,VNB,B,2
0,test,4,0.0,2-Back,0.0,z,Thu Mar 12 2026 14:42:52 GMT-0400 (Eastern Daylight Time),758717.1999999881,004_o_m_h_a.png,I,m,1628,5,1,2652.100000023842,756065.0999999642,9073,VNB,B,3
0,test,4,0.0,2-Back,0.0,m,Thu Mar 12 2026 14:42:52 GMT-0400 (Eastern Daylight Time),760683.8000000119,007_m_m_n_a.png,I,z,945,6,1,1959.4000000357628,758724.3999999762,9073,VNB,B,4
1,test,4,0.0,2-Back,1.0,m,Thu Mar 12 2026 14:42:52 GMT-0400 (Eastern Daylight Time),762983.6999999881,011_m_f_d_a.png,I,m,1281,7,1,2285.899999976158,760697.8000000119,9073,VNB,B,5
1,test,4,0.0,2-Back,0.0,z,Thu Mar 12 2026 14:42:52 GMT-0400 (Eastern Daylight Time),765150.3999999762,020_y_f_n_a.png,I,m,1142,8,1,2158.300000011921,762992.0999999642,9073,VNB,B,6
2,test,4,1.0,2-Back,1.0,m,Thu Mar 12 2026 14:42:52 GMT-0400 (Eastern Daylight Time),768083.8000000119,005_o_f_h_a.png,I,m,1887,9,1,2917.400000035763,765166.3999999762,9073,VNB,B,7
3,test,4,0.0,2-Back,1.0,m,Thu Mar 12 2026 14:42:52 GMT-0400 (Eastern Daylight Time),770467.0999999642,007_m_m_h_a.png,I,m,1354,10,1,2374.5,768092.5999999642,9073,VNB,B,8
3,test,4,0.0,2-Back,0.0,m,Thu Mar 12 2026 14:42:52 GMT-0400 (Eastern Daylight Time),772650.3999999762,020_y_f_d_a.png,I,z,1146,11,1,2166.0,770484.3999999762,9073,VNB,B,9
4,test,4,0.0,2-Back,1.0,m,Thu Mar 12 2026 14:42:52 GMT-0400 (Eastern Daylight Time),774567.0999999642,016_y_m_n_a.png,I,m,884,12,1,1908.0,772659.0999999642,9073,VNB,B,10
5,test,4,0.0,2-Back,1.0,z,Thu Mar 12 2026 14:42:52 GMT-0400 (Eastern Daylight Time),776967.3999999762,004_o_m_d_a.png,I,z,1366,13,1,2382.099999964237,774585.3000000119,9073,VNB,B,11
6,test,4,1.0,2-Back,1.0,m,Thu Mar 12 2026 14:42:52 GMT-0400 (Eastern Daylight Time),779016.8999999762,011_m_f_h_a.png,I,m,1030,14,1,2042.300000011921,776974.5999999642,9073,VNB,B,12
7,test,4,1.0,2-Back,1.0,m,Thu Mar 12 2026 14:42:52 GMT-0400 (Eastern Daylight Time),781483.8000000119,020_y_f_h_a.png,I,m,1444,15,1,2453.300000011921,779030.5,9073,VNB,B,13
7,test,4,0.0,2-Back,0.0,m,Thu Mar 12 2026 14:42:52 GMT-0400 (Eastern Daylight Time),783767.0999999642,005_o_f_n_a.png,I,z,1250,16,1,2276.5,781490.5999999642,9073,VNB,B,14
8,test,4,0.0,2-Back,1.0,m,Thu Mar 12 2026 14:42:52 GMT-0400 (Eastern Daylight Time),785817.0,016_y_m_d_a.png,I,m,1015,17,1,2031.6000000238419,783785.3999999762,9073,VNB,B,15
9,test,4,1.0,2-Back,1.0,m,Thu Mar 12 2026 14:42:52 GMT-0400 (Eastern Daylight Time),787983.8000000119,007_m_m_d_a.png,I,m,1141,18,1,2158.2000000476837,785825.5999999642,9073,VNB,B,16
0,test,5,1.0,2-Back,,,Thu Mar 12 2026 14:42:52 GMT-0400 (Eastern Daylight Time),787983.8000000119,020_y_f_d_a.png,I,space,1974,1,1,2158.2000000476837,785825.5999999642,9073,VNB,B,0
0,test,5,1.0,2-Back,,,Thu Mar 12 2026 14:42:52 GMT-0400 (Eastern Daylight Time),787983.8000000119,005_o_f_h_a.png,I,space,1974,2,1,2158.2000000476837,785825.5999999642,9073,VNB,B,0
0,test,5,1.0,2-Back,0.0,z,Thu Mar 12 2026 14:42:52 GMT-0400 (Eastern Daylight Time),797533.8000000119,004_o_m_d_a.png,I,m,1209,3,1,2218.300000011921,795315.5,9073,VNB,B,1
0,test,5,1.0,2-Back,0.0,m,Thu Mar 12 2026 14:42:52 GMT-0400 (Eastern Daylight Time),799883.6999999881,011_m_f_n_a.png,I,z,1328,4,1,2344.100000023842,797539.5999999642,9073,VNB,B,2
1,test,5,0.0,2-Back,1.0,m,Thu Mar 12 2026 14:42:52 GMT-0400 (Eastern Daylight Time),801916.8999999762,007_m_m_h_a.png,I,m,1009,5,1,2021.800000011921,799895.0999999642,9073,VNB,B,3
1,test,5,0.0,2-Back,0.0,z,Thu Mar 12 2026 14:42:52 GMT-0400 (Eastern Daylight Time),804117.1999999881,020_y_f_n_a.png,I,m,1169,6,1,2197.199999988079,801920.0,9073,VNB,B,4
2,test,5,0.0,2-Back,1.0,m,Thu Mar 12 2026 14:42:52 GMT-0400 (Eastern Daylight Time),806150.5,005_o_f_d_a.png,I,m,984,7,1,2017.0,804133.5,9073,VNB,B,5
2,test,5,0.0,2-Back,0.0,m,Thu Mar 12 2026 14:42:52 GMT-0400 (Eastern Daylight Time),807767.5,004_o_m_h_a.png,I,z,599,8,1,1611.0,806156.5,9073,VNB,B,6
2,test,5,1.0,2-Back,0.0,z,Thu Mar 12 2026 14:42:52 GMT-0400 (Eastern Daylight Time),809283.8999999762,011_m_f_d_a.png,I,m,486,9,1,1501.800000011921,807782.0999999642,9073,VNB,B,7
3,test,5,0.0,2-Back,1.0,m,Thu Mar 12 2026 14:42:52 GMT-0400 (Eastern Daylight Time),811067.0999999642,016_y_m_n_a.png,I,m,762,10,1,1777.0,809290.0999999642,9073,VNB,B,8
3,test,5,0.0,2-Back,0.0,m,Thu Mar 12 2026 14:42:52 GMT-0400 (Eastern Daylight Time),812950.5999999642,007_m_m_n_a.png,I,z,851,11,1,1869.0999999642372,811081.5,9073,VNB,B,9
4,test,5,0.0,2-Back,1.0,m,Thu Mar 12 2026 14:42:52 GMT-0400 (Eastern Daylight Time),814567.1999999881,020_y_f_h_a.png,I,m,583,12,1,1609.800000011921,812957.3999999762,9073,VNB,B,10
5,test,5,0.0,2-Back,1.0,m,Thu Mar 12 2026 14:42:52 GMT-0400 (Eastern Daylight Time),816867.3999999762,016_y_m_d_a.png,I,m,1255,13,1,2272.899999976158,814594.5,9073,VNB,B,11
5,test,5,1.0,2-Back,0.0,z,Thu Mar 12 2026 14:42:52 GMT-0400 (Eastern Daylight Time),818933.8000000119,011_m_f_h_a.png,I,m,1034,14,1,2057.900000035763,816875.8999999762,9073,VNB,B,12
6,test,5,0.0,2-Back,1.0,m,Thu Mar 12 2026 14:42:52 GMT-0400 (Eastern Daylight Time),820800.5999999642,004_o_m_n_a.png,I,m,839,15,1,1851.0999999642372,818949.5,9073,VNB,B,13
6,test,5,0.0,2-Back,0.0,m,Thu Mar 12 2026 14:42:52 GMT-0400 (Eastern Daylight Time),823882.0999999642,007_m_m_d_a.png,I,None,2016,16,1,3073.399999976158,820808.6999999881,9073,VNB,B,14
6,test,5,0.0,2-Back,0.0,z,Thu Mar 12 2026 14:42:52 GMT-0400 (Eastern Daylight Time),825650.5999999642,005_o_f_n_a.png,I,m,738,17,1,1754.5999999642372,823896.0,9073,VNB,B,15
6,test,5,1.0,2-Back,0.0,m,Thu Mar 12 2026 14:42:52 GMT-0400 (Eastern Daylight Time),828133.5,016_y_m_h_a.png,I,z,1398,18,1,2475.199999988079,825658.3000000119,9073,VNB,B,16
