Q,Q1,Q2,Q3,Q4,acc_sum,block,block_c,correct,correct_response,datetime,endtime,project,response,response_time,row_sel,session_number,squiggle1,squiggle1x,squiggle1y,squiggle2,squiggle2x,squiggle2y,squiggle3,squiggle3x,squiggle3y,squiggle4,squiggle4x,squiggle4y,start_end,starttime,subject_id,target_congruent,task,task_vers,testsquiggle,testsquigglex,testsquiggley,time_practice_delay,time_practice_fixation,time_practice_stimuli,time_practice_study,time_test_delay,time_test_fixation,time_test_stimuli,time_test_study,trial
1,1,0,0,0,0,prac,1,0,z,Wed Jan 07 2026 10:04:30 GMT-0600 (Central Standard Time),186848.10000002384,I,None,2016,1,3,16.bmp,-120,-120,17.bmp,120,-120,18.bmp,-120,120,19.bmp,120,120,10826.600000023842,176021.5,8036,yes,SM,B,16.bmp,-120,-120,100047,94019,102063,96032,,,,,1
3,0,0,1,0,0,prac,1,0,m,Wed Jan 07 2026 10:04:30 GMT-0600 (Central Standard Time),197678.29999995232,I,None,2016,2,3,20.bmp,-120,-120,21.bmp,120,-120,22.bmp,-120,120,23.bmp,120,120,10826.599999904633,186851.70000004768,8036,no,SM,B,23.bmp,-120,120,110877,104849,112893,106862,,,,,2
4,0,0,0,1,1,prac,1,1,m,Wed Jan 07 2026 10:04:30 GMT-0600 (Central Standard Time),208141.79999995232,I,m,1635,3,3,24.bmp,-120,-120,25.bmp,120,-120,26.bmp,-120,120,27.bmp,120,120,10459.0,197682.79999995232,8036,no,SM,B,24.bmp,120,120,121707,115680,123723,117691,,,,,3
2,0,1,0,0,1,prac,1,0,z,Wed Jan 07 2026 10:04:30 GMT-0600 (Central Standard Time),218971.60000002384,I,None,2016,4,3,28.bmp,-120,-120,29.bmp,120,-120,30.bmp,-120,120,31.bmp,120,120,10824.0,208147.60000002384,8036,yes,SM,B,29.bmp,120,-120,132170,126145,134186,128155,,,,,4
3,0,0,1,0,2,prac,1,1,z,Wed Jan 07 2026 10:04:30 GMT-0600 (Central Standard Time),229318.39999997616,I,z,1517,5,3,32.bmp,-120,-120,33.bmp,120,-120,34.bmp,-120,120,35.bmp,120,120,10343.100000023842,218975.29999995232,8036,yes,SM,B,34.bmp,-120,120,143000,136972,145016,138985,,,,,5
1,1,0,0,0,3,prac,1,1,m,Wed Jan 07 2026 10:04:30 GMT-0600 (Central Standard Time),239781.5,I,m,1643,6,3,36.bmp,-120,-120,37.bmp,120,-120,38.bmp,-120,120,39.bmp,120,120,10459.899999976158,229321.60000002384,8036,no,SM,B,39.bmp,-120,-120,153347,147319,155363,149332,,,,,6
2,0,1,0,0,3,prac,1,0,m,Wed Jan 07 2026 10:04:30 GMT-0600 (Central Standard Time),250611.60000002384,I,None,2016,7,3,40.bmp,-120,-120,41.bmp,120,-120,42.bmp,-120,120,43.bmp,120,120,10825.899999976158,239785.70000004768,8036,no,SM,B,40.bmp,120,-120,163810,157783,165827,159795,,,,,7
4,0,0,0,1,4,prac,1,1,z,Wed Jan 07 2026 10:04:30 GMT-0600 (Central Standard Time),261158.39999997616,I,z,1717,8,3,44.bmp,-120,-120,45.bmp,120,-120,46.bmp,-120,120,47.bmp,120,120,10541.100000023842,250617.29999995232,8036,yes,SM,B,47.bmp,120,120,174640,168615,176656,170625,,,,,8
4,0,0,0,1,1,test,1,1,m,Wed Jan 07 2026 10:04:30 GMT-0600 (Central Standard Time),274587.7000000477,I,m,1355,1,3,48.bmp,-120,-120,49.bmp,120,-120,50.bmp,-120,120,43.bmp,120,120,9411.400000095367,265176.2999999523,8036,yes,SM,B,50.bmp,120,120,174640,168615,176656,170625,189202.0,183174.0,191219.0,185187.0,1
2,0,1,0,0,2,test,1,1,m,Wed Jan 07 2026 10:04:30 GMT-0600 (Central Standard Time),284534.5,I,m,1885,2,3,1.bmp,-120,-120,2.bmp,120,-120,3.bmp,-120,120,4.bmp,120,120,9943.299999952316,274591.2000000477,8036,yes,SM,B,3.bmp,120,-120,174640,168615,176656,170625,198616.0,192588.0,200633.0,194601.0,2
1,1,0,0,0,2,test,1,0,z,Wed Jan 07 2026 10:04:30 GMT-0600 (Central Standard Time),294597.7999999523,I,None,2016,3,3,5.bmp,-120,-120,6.bmp,120,-120,7.bmp,-120,120,8.bmp,120,120,10060.199999928474,284537.60000002384,8036,yes,SM,B,5.bmp,-120,-120,174640,168615,176656,170625,208563.0,202535.0,210579.0,204547.0,3
3,0,0,1,0,2,test,1,0,m,Wed Jan 07 2026 10:04:30 GMT-0600 (Central Standard Time),304144.7999999523,I,z,1491,4,3,9.bmp,-120,-120,10.bmp,120,-120,11.bmp,-120,120,12.bmp,120,120,9542.799999952316,294602.0,8036,yes,SM,B,9.bmp,-120,120,174640,168615,176656,170625,218626.0,212599.0,220643.0,214612.0,4
2,0,1,0,0,3,test,1,1,z,Wed Jan 07 2026 10:04:30 GMT-0600 (Central Standard Time),313691.7999999523,I,z,1488,5,3,13.bmp,-120,-120,14.bmp,120,-120,15.bmp,-120,120,16.bmp,120,120,9543.899999976158,304147.89999997616,8036,yes,SM,B,14.bmp,120,-120,174640,168615,176656,170625,228173.0,222145.0,230190.0,224158.0,5
3,0,0,1,0,4,test,1,1,z,Wed Jan 07 2026 10:04:30 GMT-0600 (Central Standard Time),323572.2000000477,I,z,1820,6,3,17.bmp,-120,-120,18.bmp,120,-120,19.bmp,-120,120,20.bmp,120,120,9877.300000071526,313694.89999997616,8036,yes,SM,B,19.bmp,-120,120,174640,168615,176656,170625,237720.0,231692.0,239737.0,233705.0,6
4,0,0,0,1,4,test,1,0,z,Wed Jan 07 2026 10:04:30 GMT-0600 (Central Standard Time),333635.7999999523,I,None,2016,7,3,21.bmp,-120,-120,22.bmp,120,-120,23.bmp,-120,120,24.bmp,120,120,10060.299999952316,323575.5,8036,yes,SM,B,24.bmp,120,120,174640,168615,176656,170625,247601.0,241573.0,249617.0,243586.0,7
2,0,1,0,0,4,test,1,0,m,Wed Jan 07 2026 10:04:30 GMT-0600 (Central Standard Time),343632.39999997616,I,z,1933,8,3,25.bmp,-120,-120,26.bmp,120,-120,27.bmp,-120,120,28.bmp,120,120,9992.600000023842,333639.7999999523,8036,yes,SM,B,25.bmp,120,-120,174640,168615,176656,170625,257664.0,251637.0,259680.0,253649.0,8
3,0,0,1,0,5,test,1,1,m,Wed Jan 07 2026 10:04:30 GMT-0600 (Central Standard Time),353662.89999997616,I,m,1968,9,3,29.bmp,-120,-120,30.bmp,120,-120,31.bmp,-120,120,32.bmp,120,120,10027.199999928474,343635.7000000477,8036,yes,SM,B,30.bmp,-120,120,174640,168615,176656,170625,267661.0,261633.0,269677.0,263646.0,9
4,0,0,0,1,5,test,1,0,z,Wed Jan 07 2026 10:04:30 GMT-0600 (Central Standard Time),363709.2999999523,I,None,2014,10,3,37.bmp,-120,-120,38.bmp,120,-120,39.bmp,-120,120,40.bmp,120,120,10043.099999904633,353666.2000000477,8036,yes,SM,B,40.bmp,120,120,174640,168615,176656,170625,277691.0,271663.0,279692.0,273676.0,10
3,0,0,1,0,6,test,1,1,z,Wed Jan 07 2026 10:04:30 GMT-0600 (Central Standard Time),373056.60000002384,I,z,1292,11,3,33.bmp,-120,-120,34.bmp,120,-120,35.bmp,-120,120,36.bmp,120,120,9343.200000047684,363713.39999997616,8036,yes,SM,B,35.bmp,-120,120,174640,168615,176656,170625,287738.0,281711.0,289754.0,283723.0,11
2,0,1,0,0,7,test,1,1,m,Wed Jan 07 2026 10:04:30 GMT-0600 (Central Standard Time),382486.7999999523,I,m,1369,12,3,41.bmp,-120,-120,42.bmp,120,-120,43.bmp,-120,120,44.bmp,120,120,9426.899999976158,373059.89999997616,8036,yes,SM,B,41.bmp,120,-120,174640,168615,176656,170625,297085.0,291057.0,299101.0,293070.0,12
3,0,0,1,0,7,test,1,0,m,Wed Jan 07 2026 10:04:30 GMT-0600 (Central Standard Time),392550.39999997616,I,None,2015,13,3,45.bmp,-120,-120,46.bmp,120,-120,47.bmp,-120,120,48.bmp,120,120,10059.0,382491.39999997616,8036,yes,SM,B,46.bmp,-120,120,174640,168615,176656,170625,306516.0,300489.0,308532.0,302501.0,13
1,1,0,0,0,8,test,1,1,z,Wed Jan 07 2026 10:04:30 GMT-0600 (Central Standard Time),402231.0,I,z,1626,14,3,49.bmp,-120,-120,50.bmp,120,-120,4.bmp,-120,120,1.bmp,120,120,9677.0,392554.0,8036,yes,SM,B,49.bmp,-120,-120,174640,168615,176656,170625,316579.0,310551.0,318595.0,312564.0,14
4,0,0,0,1,8,test,1,0,m,Wed Jan 07 2026 10:04:30 GMT-0600 (Central Standard Time),412294.2000000477,I,None,2015,15,3,10.bmp,-120,-120,11.bmp,120,-120,12.bmp,-120,120,13.bmp,120,120,10057.5,402236.7000000477,8036,yes,SM,B,11.bmp,120,120,174640,168615,176656,170625,326259.0,320234.0,328276.0,322244.0,15
1,1,0,0,0,9,test,1,1,m,Wed Jan 07 2026 10:04:30 GMT-0600 (Central Standard Time),422207.7999999523,I,m,1850,16,3,2.bmp,-120,-120,3.bmp,120,-120,4.bmp,-120,120,5.bmp,120,120,9910.0,412297.7999999523,8036,yes,SM,B,5.bmp,-120,-120,174640,168615,176656,170625,336323.0,330295.0,338339.0,332308.0,16
3,0,0,1,0,9,test,1,0,m,Wed Jan 07 2026 10:04:30 GMT-0600 (Central Standard Time),432271.39999997616,I,None,2015,17,3,22.bmp,-120,-120,23.bmp,120,-120,24.bmp,-120,120,25.bmp,120,120,10059.699999928474,422211.7000000477,8036,yes,SM,B,22.bmp,-120,120,174640,168615,176656,170625,346236.0,340209.0,348253.0,342222.0,17
1,1,0,0,0,10,test,1,1,z,Wed Jan 07 2026 10:04:30 GMT-0600 (Central Standard Time),441801.5,I,z,1466,18,3,6.bmp,-120,-120,7.bmp,120,-120,8.bmp,-120,120,9.bmp,120,120,9526.600000023842,432274.89999997616,8036,yes,SM,B,6.bmp,-120,-120,174640,168615,176656,170625,356300.0,350272.0,358316.0,352284.0,18
2,0,1,0,0,11,test,1,1,z,Wed Jan 07 2026 10:04:30 GMT-0600 (Central Standard Time),451232.0,I,z,1375,19,3,26.bmp,-120,-120,27.bmp,120,-120,28.bmp,-120,120,29.bmp,120,120,9426.299999952316,441805.7000000477,8036,yes,SM,B,27.bmp,120,-120,174640,168615,176656,170625,365830.0,359803.0,367847.0,361815.0,19
3,0,0,1,0,12,test,1,1,z,Wed Jan 07 2026 10:04:30 GMT-0600 (Central Standard Time),460912.39999997616,I,z,1616,20,3,30.bmp,-120,-120,31.bmp,120,-120,32.bmp,-120,120,33.bmp,120,120,9676.100000023842,451236.2999999523,8036,yes,SM,B,32.bmp,-120,120,174640,168615,176656,170625,375260.0,369234.0,377277.0,371245.0,20
1,1,0,0,0,12,test,1,0,m,Wed Jan 07 2026 10:04:30 GMT-0600 (Central Standard Time),470975.7999999523,I,None,2016,21,3,14.bmp,-120,-120,15.bmp,120,-120,16.bmp,-120,120,17.bmp,120,120,10060.399999976158,460915.39999997616,8036,yes,SM,B,16.bmp,-120,-120,174640,168615,176656,170625,384941.0,378913.0,386957.0,380926.0,21
4,0,0,0,1,13,test,1,1,z,Wed Jan 07 2026 10:04:30 GMT-0600 (Central Standard Time),480422.7999999523,I,z,1385,22,3,18.bmp,-120,-120,19.bmp,120,-120,20.bmp,-120,120,21.bmp,120,120,9443.799999952316,470979.0,8036,yes,SM,B,21.bmp,120,120,174640,168615,176656,170625,395005.0,388976.0,397021.0,390990.0,22
1,1,0,0,0,14,test,1,1,m,Wed Jan 07 2026 10:04:30 GMT-0600 (Central Standard Time),490319.7999999523,I,m,1833,23,3,34.bmp,-120,-120,35.bmp,120,-120,36.bmp,-120,120,37.bmp,120,120,9892.199999928474,480427.60000002384,8036,yes,SM,B,37.bmp,-120,-120,174640,168615,176656,170625,404451.0,398425.0,406468.0,400438.0,23
2,0,1,0,0,14,test,1,0,z,Wed Jan 07 2026 10:04:30 GMT-0600 (Central Standard Time),500383.2999999523,I,None,2016,24,3,42.bmp,-120,-120,43.bmp,120,-120,44.bmp,-120,120,45.bmp,120,120,10059.699999928474,490323.60000002384,8036,yes,SM,B,43.bmp,120,-120,174640,168615,176656,170625,414348.0,408321.0,416364.0,410333.0,24
4,0,0,0,1,15,test,1,1,m,Wed Jan 07 2026 10:04:30 GMT-0600 (Central Standard Time),510047.0,I,m,1609,25,3,46.bmp,-120,-120,47.bmp,120,-120,48.bmp,-120,120,49.bmp,120,120,9660.399999976158,500386.60000002384,8036,yes,SM,B,48.bmp,120,120,174640,168615,176656,170625,424412.0,418384.0,426428.0,420397.0,25
1,1,0,0,0,16,test,1,1,z,Wed Jan 07 2026 10:04:30 GMT-0600 (Central Standard Time),519860.2999999523,I,z,1762,26,3,38.bmp,-120,-120,39.bmp,120,-120,40.bmp,-120,120,41.bmp,120,120,9810.199999928474,510050.10000002384,8036,yes,SM,B,38.bmp,-120,-120,174640,168615,176656,170625,434075.0,428047.0,436092.0,430061.0,26
4,0,0,0,1,17,test,1,1,z,Wed Jan 07 2026 10:04:30 GMT-0600 (Central Standard Time),529574.2000000477,I,z,1661,27,3,50.bmp,-120,-120,11.bmp,120,-120,1.bmp,-120,120,2.bmp,120,120,9708.600000023842,519865.60000002384,8036,yes,SM,B,2.bmp,120,120,174640,168615,176656,170625,443889.0,437864.0,445905.0,439874.0,27
3,0,0,1,0,17,test,1,0,m,Wed Jan 07 2026 10:04:30 GMT-0600 (Central Standard Time),539121.0,I,z,1498,28,3,3.bmp,-120,-120,4.bmp,120,-120,5.bmp,-120,120,6.bmp,120,120,9543.600000023842,529577.3999999762,8036,yes,SM,B,3.bmp,-120,120,174640,168615,176656,170625,453603.0,447575.0,455619.0,449587.0,28
2,0,1,0,0,17,test,1,0,z,Wed Jan 07 2026 10:04:30 GMT-0600 (Central Standard Time),548451.2999999523,I,m,1280,29,3,7.bmp,-120,-120,8.bmp,120,-120,9.bmp,-120,120,10.bmp,120,120,9327.199999928474,539124.1000000238,8036,yes,SM,B,8.bmp,120,-120,174640,168615,176656,170625,463150.0,457121.0,465166.0,459135.0,29
3,0,0,1,0,18,test,1,1,z,Wed Jan 07 2026 10:04:30 GMT-0600 (Central Standard Time),558082.8999999762,I,z,1574,30,3,11.bmp,-120,-120,12.bmp,120,-120,13.bmp,-120,120,14.bmp,120,120,9627.799999952316,548455.1000000238,8036,yes,SM,B,13.bmp,-120,120,174640,168615,176656,170625,472480.0,466452.0,474496.0,468465.0,30
1,1,0,0,0,19,test,1,1,z,Wed Jan 07 2026 10:04:30 GMT-0600 (Central Standard Time),567829.0,I,z,1688,31,3,15.bmp,-120,-120,16.bmp,120,-120,17.bmp,-120,120,18.bmp,120,120,9741.5,558087.5,8036,yes,SM,B,15.bmp,-120,-120,174640,168615,176656,170625,482111.0,476085.0,484127.0,478095.0,31
2,0,1,0,0,20,test,1,1,m,Wed Jan 07 2026 10:04:30 GMT-0600 (Central Standard Time),577492.6000000238,I,m,1604,32,3,19.bmp,-120,-120,20.bmp,120,-120,21.bmp,-120,120,22.bmp,120,120,9660.399999976158,567832.2000000477,8036,yes,SM,B,19.bmp,120,-120,174640,168615,176656,170625,491857.0,485829.0,493874.0,487842.0,32
4,0,0,0,1,20,test,1,0,z,Wed Jan 07 2026 10:04:30 GMT-0600 (Central Standard Time),587555.7999999523,I,None,2016,33,3,31.bmp,-120,-120,32.bmp,120,-120,33.bmp,-120,120,34.bmp,120,120,10059.699999928474,577496.1000000238,8036,yes,SM,B,34.bmp,120,120,174640,168615,176656,170625,501521.0,495493.0,503537.0,497506.0,33
2,0,1,0,0,21,test,1,1,z,Wed Jan 07 2026 10:04:30 GMT-0600 (Central Standard Time),597435.8999999762,I,z,1829,34,3,23.bmp,-120,-120,24.bmp,120,-120,25.bmp,-120,120,26.bmp,120,120,9876.899999976158,587559.0,8036,yes,SM,B,24.bmp,120,-120,174640,168615,176656,170625,511585.0,505556.0,513601.0,507570.0,34
4,0,0,0,1,22,test,1,1,m,Wed Jan 07 2026 10:04:30 GMT-0600 (Central Standard Time),607199.8999999762,I,m,1700,35,3,27.bmp,-120,-120,28.bmp,120,-120,29.bmp,-120,120,30.bmp,120,120,9760.100000023842,597439.7999999523,8036,yes,SM,B,29.bmp,120,120,174640,168615,176656,170625,521465.0,515437.0,523481.0,517450.0,35
3,0,0,1,0,22,test,1,0,m,Wed Jan 07 2026 10:04:30 GMT-0600 (Central Standard Time),617263.1000000238,I,None,2016,36,3,35.bmp,-120,-120,36.bmp,120,-120,37.bmp,-120,120,38.bmp,120,120,10060.200000047684,607202.8999999762,8036,yes,SM,B,35.bmp,-120,120,174640,168615,176656,170625,531228.0,525200.0,533244.0,527213.0,36
1,1,0,0,0,23,test,1,1,m,Wed Jan 07 2026 10:04:30 GMT-0600 (Central Standard Time),627094.2999999523,I,m,1778,37,3,39.bmp,-120,-120,40.bmp,120,-120,41.bmp,-120,120,42.bmp,120,120,9827.299999952316,617267.0,8036,yes,SM,B,40.bmp,-120,-120,174640,168615,176656,170625,541292.0,535264.0,543308.0,537276.0,37
2,0,1,0,0,24,test,1,1,m,Wed Jan 07 2026 10:04:30 GMT-0600 (Central Standard Time),636673.8999999762,I,m,1524,38,3,43.bmp,-120,-120,44.bmp,120,-120,45.bmp,-120,120,46.bmp,120,120,9575.799999952316,627098.1000000238,8036,yes,SM,B,45.bmp,120,-120,174640,168615,176656,170625,551122.0,545095.0,553138.0,547107.0,38
4,0,0,0,1,24,test,1,0,z,Wed Jan 07 2026 10:04:30 GMT-0600 (Central Standard Time),646387.2999999523,I,m,1655,39,3,47.bmp,-120,-120,48.bmp,120,-120,49.bmp,-120,120,50.bmp,120,120,9709.799999952316,636677.5,8036,yes,SM,B,50.bmp,120,120,174640,168615,176656,170625,560703.0,554675.0,562719.0,556687.0,39
3,0,0,1,0,24,test,1,0,m,Wed Jan 07 2026 10:04:30 GMT-0600 (Central Standard Time),656167.8999999762,I,z,1717,40,3,4.bmp,-120,-120,5.bmp,120,-120,6.bmp,-120,120,7.bmp,120,120,9777.199999928474,646390.7000000477,8036,yes,SM,B,5.bmp,-120,120,174640,168615,176656,170625,570416.0,564388.0,572432.0,566401.0,40
1,1,0,0,0,25,test,1,1,z,Wed Jan 07 2026 10:04:30 GMT-0600 (Central Standard Time),665881.5,I,z,1658,41,3,8.bmp,-120,-120,9.bmp,120,-120,10.bmp,-120,120,11.bmp,120,120,9710.5,656171.0,8036,yes,SM,B,8.bmp,-120,-120,174640,168615,176656,170625,580197.0,574168.0,582212.0,576181.0,41
4,0,0,0,1,26,test,1,1,z,Wed Jan 07 2026 10:04:30 GMT-0600 (Central Standard Time),675544.8999999762,I,z,1607,42,3,12.bmp,-120,-120,13.bmp,120,-120,14.bmp,-120,120,15.bmp,120,120,9660.5,665884.3999999762,8036,yes,SM,B,15.bmp,120,120,174640,168615,176656,170625,589910.0,583882.0,591926.0,585895.0,42
1,1,0,0,0,27,test,1,1,z,Wed Jan 07 2026 10:04:30 GMT-0600 (Central Standard Time),685243.0,I,z,1647,43,3,16.bmp,-120,-120,17.bmp,120,-120,18.bmp,-120,120,19.bmp,120,120,9692.899999976158,675550.1000000238,8036,yes,SM,B,16.bmp,-120,-120,174640,168615,176656,170625,599574.0,593547.0,601590.0,595559.0,43
4,0,0,0,1,28,test,1,1,m,Wed Jan 07 2026 10:04:30 GMT-0600 (Central Standard Time),694905.6000000238,I,m,1600,44,3,4.bmp,-120,-120,1.bmp,120,-120,2.bmp,-120,120,3.bmp,120,120,9659.300000071526,685246.2999999523,8036,yes,SM,B,4.bmp,120,120,174640,168615,176656,170625,609271.0,603244.0,611286.0,605255.0,44
1,1,0,0,0,29,test,1,1,m,Wed Jan 07 2026 10:04:30 GMT-0600 (Central Standard Time),704602.2999999523,I,m,1647,45,3,28.bmp,-120,-120,29.bmp,120,-120,30.bmp,-120,120,31.bmp,120,120,9693.699999928474,694908.6000000238,8036,yes,SM,B,31.bmp,-120,-120,174640,168615,176656,170625,618934.0,612906.0,620950.0,614919.0,45
1,1,0,0,0,30,test,1,1,m,Wed Jan 07 2026 10:04:30 GMT-0600 (Central Standard Time),713783.1000000238,I,m,1119,46,3,20.bmp,-120,-120,21.bmp,120,-120,22.bmp,-120,120,23.bmp,120,120,9175.200000047684,704607.8999999762,8036,yes,SM,B,21.bmp,-120,-120,174640,168615,176656,170625,628632.0,622605.0,630647.0,624616.0,46
3,0,0,1,0,31,test,1,1,z,Wed Jan 07 2026 10:04:30 GMT-0600 (Central Standard Time),723280.1000000238,I,z,1433,47,3,24.bmp,-120,-120,25.bmp,120,-120,26.bmp,-120,120,27.bmp,120,120,9493.800000071526,713786.2999999523,8036,yes,SM,B,26.bmp,-120,120,174640,168615,176656,170625,637812.0,631783.0,639828.0,633796.0,47
3,0,0,1,0,31,test,1,0,z,Wed Jan 07 2026 10:04:30 GMT-0600 (Central Standard Time),733343.7000000477,I,None,2016,48,3,40.bmp,-120,-120,41.bmp,120,-120,42.bmp,-120,120,43.bmp,120,120,10060.700000047684,723283.0,8036,yes,SM,B,42.bmp,-120,120,174640,168615,176656,170625,647309.0,641280.0,649325.0,643293.0,48
2,0,1,0,0,31,test,1,0,z,Wed Jan 07 2026 10:04:30 GMT-0600 (Central Standard Time),743407.0,I,None,2015,49,3,36.bmp,-120,-120,37.bmp,120,-120,38.bmp,-120,120,39.bmp,120,120,10059.899999976158,733347.1000000238,8036,yes,SM,B,37.bmp,120,-120,174640,168615,176656,170625,657372.0,651344.0,659389.0,653357.0,49
3,0,0,1,0,31,test,1,0,m,Wed Jan 07 2026 10:04:30 GMT-0600 (Central Standard Time),752904.1000000238,I,z,1434,50,3,32.bmp,-120,-120,33.bmp,120,-120,34.bmp,-120,120,35.bmp,120,120,9494.200000047684,743409.8999999762,8036,yes,SM,B,32.bmp,-120,120,174640,168615,176656,170625,667436.0,661407.0,669452.0,663420.0,50
2,0,1,0,0,31,test,1,0,z,Wed Jan 07 2026 10:04:30 GMT-0600 (Central Standard Time),762967.7000000477,I,None,2016,51,3,44.bmp,-120,-120,45.bmp,120,-120,46.bmp,-120,120,47.bmp,120,120,10059.700000047684,752908.0,8036,yes,SM,B,45.bmp,120,-120,174640,168615,176656,170625,676933.0,670905.0,678949.0,672917.0,51
4,0,0,0,1,32,test,1,1,m,Wed Jan 07 2026 10:04:30 GMT-0600 (Central Standard Time),772214.6000000238,I,m,1185,52,3,48.bmp,-120,-120,49.bmp,120,-120,50.bmp,-120,120,31.bmp,120,120,9243.600000023842,762971.0,8036,yes,SM,B,48.bmp,120,120,174640,168615,176656,170625,686996.0,680968.0,689012.0,682981.0,52
3,0,0,1,0,33,test,1,1,z,Wed Jan 07 2026 10:04:30 GMT-0600 (Central Standard Time),782145.0,I,z,1867,53,3,1.bmp,-120,-120,2.bmp,120,-120,3.bmp,-120,120,4.bmp,120,120,9927.399999976158,772217.6000000238,8036,yes,SM,B,3.bmp,-120,120,174640,168615,176656,170625,696243.0,690215.0,698259.0,692228.0,53
1,1,0,0,0,33,test,1,0,m,Wed Jan 07 2026 10:04:30 GMT-0600 (Central Standard Time),791775.0,I,z,1568,54,3,5.bmp,-120,-120,6.bmp,120,-120,7.bmp,-120,120,8.bmp,120,120,9626.899999976158,782148.1000000238,8036,yes,SM,B,7.bmp,-120,-120,174640,168615,176656,170625,706174.0,700145.0,708190.0,702158.0,54
4,0,0,0,1,33,test,1,0,z,Wed Jan 07 2026 10:04:30 GMT-0600 (Central Standard Time),801439.0,I,m,1602,55,3,9.bmp,-120,-120,10.bmp,120,-120,11.bmp,-120,120,12.bmp,120,120,9661.200000047684,791777.7999999523,8036,yes,SM,B,12.bmp,120,120,174640,168615,176656,170625,715804.0,709775.0,717820.0,711788.0,55
2,0,1,0,0,34,test,1,1,m,Wed Jan 07 2026 10:04:30 GMT-0600 (Central Standard Time),811169.2000000477,I,m,1682,56,3,13.bmp,-120,-120,14.bmp,120,-120,15.bmp,-120,120,16.bmp,120,120,9726.800000071526,801442.3999999762,8036,yes,SM,B,13.bmp,120,-120,174640,168615,176656,170625,725468.0,719440.0,727484.0,721452.0,56
4,0,0,0,1,35,test,1,1,m,Wed Jan 07 2026 10:04:30 GMT-0600 (Central Standard Time),820916.2000000477,I,m,1688,57,3,17.bmp,-120,-120,18.bmp,120,-120,19.bmp,-120,120,20.bmp,120,120,9743.600000023842,811172.6000000238,8036,yes,SM,B,18.bmp,120,120,174640,168615,176656,170625,735198.0,729170.0,737214.0,731182.0,57
3,0,0,1,0,35,test,1,0,z,Wed Jan 07 2026 10:04:30 GMT-0600 (Central Standard Time),830979.6000000238,I,None,2016,58,3,21.bmp,-120,-120,22.bmp,120,-120,23.bmp,-120,120,24.bmp,120,120,10059.600000023842,820920.0,8036,yes,SM,B,23.bmp,-120,120,174640,168615,176656,170625,744945.0,738917.0,746961.0,740930.0,58
2,0,1,0,0,36,test,1,1,m,Wed Jan 07 2026 10:04:30 GMT-0600 (Central Standard Time),840843.0,I,m,1814,59,3,25.bmp,-120,-120,26.bmp,120,-120,27.bmp,-120,120,28.bmp,120,120,9859.700000047684,830983.2999999523,8036,yes,SM,B,28.bmp,120,-120,174640,168615,176656,170625,755008.0,748981.0,757024.0,750993.0,59
1,1,0,0,0,36,test,1,0,z,Wed Jan 07 2026 10:04:30 GMT-0600 (Central Standard Time),850906.8999999762,I,None,2016,60,3,29.bmp,-120,-120,30.bmp,120,-120,31.bmp,-120,120,32.bmp,120,120,10061.100000023842,840845.7999999523,8036,yes,SM,B,29.bmp,-120,-120,174640,168615,176656,170625,764873.0,758843.0,766888.0,760856.0,60
2,0,1,0,0,37,test,1,1,z,Wed Jan 07 2026 10:04:30 GMT-0600 (Central Standard Time),860687.1000000238,I,z,1727,61,3,33.bmp,-120,-120,34.bmp,120,-120,35.bmp,-120,120,36.bmp,120,120,9777.100000023842,850910.0,8036,yes,SM,B,34.bmp,120,-120,174640,168615,176656,170625,774935.0,768907.0,776951.0,770920.0,61
4,0,0,0,1,37,test,1,0,z,Wed Jan 07 2026 10:04:30 GMT-0600 (Central Standard Time),870750.3999999762,I,None,2016,62,3,41.bmp,-120,-120,42.bmp,120,-120,43.bmp,-120,120,44.bmp,120,120,10059.0,860691.3999999762,8036,yes,SM,B,44.bmp,120,120,174640,168615,176656,170625,784716.0,778689.0,786731.0,780700.0,62
1,1,0,0,0,37,test,1,0,m,Wed Jan 07 2026 10:04:30 GMT-0600 (Central Standard Time),880814.0,I,None,2016,63,3,45.bmp,-120,-120,46.bmp,120,-120,47.bmp,-120,120,48.bmp,120,120,10060.200000047684,870753.7999999523,8036,yes,SM,B,45.bmp,-120,120,174640,168615,176656,170625,794779.0,788751.0,796795.0,790764.0,63
2,0,1,0,0,38,test,1,1,z,Wed Jan 07 2026 10:04:30 GMT-0600 (Central Standard Time),890510.6000000238,I,z,1646,64,3,49.bmp,-120,-120,50.bmp,120,-120,12.bmp,-120,120,1.bmp,120,120,9693.300000071526,880817.2999999523,8036,yes,SM,B,50.bmp,120,-120,174640,168615,176656,170625,804843.0,798815.0,806859.0,800828.0,64
4,0,0,0,1,39,test,1,1,m,Wed Jan 07 2026 10:04:30 GMT-0600 (Central Standard Time),900174.5,I,m,1609,65,3,2.bmp,-120,-120,3.bmp,120,-120,4.bmp,-120,120,5.bmp,120,120,9661.200000047684,890513.2999999523,8036,yes,SM,B,4.bmp,120,120,174640,168615,176656,170625,814540.0,808510.0,816556.0,810524.0,65
3,0,0,1,0,39,test,1,0,m,Wed Jan 07 2026 10:04:30 GMT-0600 (Central Standard Time),909754.7999999523,I,z,1522,66,3,6.bmp,-120,-120,7.bmp,120,-120,8.bmp,-120,120,9.bmp,120,120,9577.199999928474,900177.6000000238,8036,yes,SM,B,9.bmp,-120,120,174640,168615,176656,170625,824203.0,818175.0,826219.0,820188.0,66
2,0,1,0,0,40,test,1,1,m,Wed Jan 07 2026 10:04:30 GMT-0600 (Central Standard Time),919452.0,I,m,1646,67,3,37.bmp,-120,-120,38.bmp,120,-120,39.bmp,-120,120,40.bmp,120,120,9693.899999976158,909758.1000000238,8036,yes,SM,B,39.bmp,120,-120,174640,168615,176656,170625,833784.0,827755.0,835800.0,829768.0,67
3,0,0,1,0,40,test,1,0,z,Wed Jan 07 2026 10:04:30 GMT-0600 (Central Standard Time),929515.2000000477,I,None,2015,68,3,10.bmp,-120,-120,11.bmp,120,-120,12.bmp,-120,120,13.bmp,120,120,10059.700000047684,919455.5,8036,yes,SM,B,12.bmp,-120,120,174640,168615,176656,170625,843481.0,837453.0,845497.0,839465.0,68
1,1,0,0,0,41,test,1,1,m,Wed Jan 07 2026 10:04:30 GMT-0600 (Central Standard Time),939345.3999999762,I,m,1672,69,3,14.bmp,-120,-120,15.bmp,120,-120,16.bmp,-120,120,17.bmp,120,120,9827.399999976158,929518.0,8036,yes,SM,B,15.bmp,-120,-120,174640,168615,176656,170625,853544.0,847515.0,855670.0,849528.0,69
2,0,1,0,0,41,test,1,0,m,Wed Jan 07 2026 10:04:30 GMT-0600 (Central Standard Time),949409.3999999762,I,None,2015,70,3,18.bmp,-120,-120,19.bmp,120,-120,20.bmp,-120,120,21.bmp,120,120,10061.299999952316,939348.1000000238,8036,yes,SM,B,20.bmp,120,-120,174640,168615,176656,170625,863374.0,857345.0,865390.0,859359.0,70
4,0,0,0,1,41,test,1,0,z,Wed Jan 07 2026 10:04:30 GMT-0600 (Central Standard Time),959472.5,I,None,2016,71,3,22.bmp,-120,-120,23.bmp,120,-120,24.bmp,-120,120,25.bmp,120,120,10059.399999976158,949413.1000000238,8036,yes,SM,B,25.bmp,120,120,174640,168615,176656,170625,873437.0,867410.0,875453.0,869422.0,71
1,1,0,0,0,41,test,1,0,z,Wed Jan 07 2026 10:04:30 GMT-0600 (Central Standard Time),969536.2999999523,I,None,2016,72,3,26.bmp,-120,-120,27.bmp,120,-120,28.bmp,-120,120,29.bmp,120,120,10060.0,959476.2999999523,8036,yes,SM,B,26.bmp,-120,-120,174640,168615,176656,170625,883501.0,877474.0,885517.0,879488.0,72
2,0,1,0,0,41,test,1,0,z,Wed Jan 07 2026 10:04:30 GMT-0600 (Central Standard Time),979466.5,I,m,1872,73,3,30.bmp,-120,-120,31.bmp,120,-120,32.bmp,-120,120,33.bmp,120,120,9927.200000047684,969539.2999999523,8036,yes,SM,B,31.bmp,120,-120,174640,168615,176656,170625,893565.0,887537.0,895581.0,889550.0,73
4,0,0,0,1,42,test,1,1,m,Wed Jan 07 2026 10:04:30 GMT-0600 (Central Standard Time),988796.7000000477,I,m,1278,74,3,34.bmp,-120,-120,35.bmp,120,-120,36.bmp,-120,120,37.bmp,120,120,9326.600000023842,979470.1000000238,8036,yes,SM,B,36.bmp,120,120,174640,168615,176656,170625,903495.0,897467.0,905512.0,899480.0,74
2,0,1,0,0,42,test,1,0,m,Wed Jan 07 2026 10:04:30 GMT-0600 (Central Standard Time),998860.3999999762,I,None,2016,75,3,38.bmp,-120,-120,39.bmp,120,-120,40.bmp,-120,120,41.bmp,120,120,10059.699999928474,988800.7000000477,8036,yes,SM,B,41.bmp,120,-120,174640,168615,176656,170625,912825.0,906798.0,914841.0,908810.0,75
1,1,0,0,0,43,test,1,1,z,Wed Jan 07 2026 10:04:30 GMT-0600 (Central Standard Time),1008057.2000000477,I,z,1148,76,3,42.bmp,-120,-120,43.bmp,120,-120,44.bmp,-120,120,45.bmp,120,120,9193.5,998863.7000000477,8036,yes,SM,B,42.bmp,-120,-120,174640,168615,176656,170625,922889.0,916861.0,924905.0,918874.0,76
3,0,0,1,0,44,test,1,1,z,Wed Jan 07 2026 10:04:30 GMT-0600 (Central Standard Time),1017621.1000000238,I,z,1504,77,3,50.bmp,-120,-120,11.bmp,120,-120,1.bmp,-120,120,2.bmp,120,120,9560.800000071526,1008060.2999999523,8036,yes,SM,B,1.bmp,-120,120,174640,168615,176656,170625,932086.0,926058.0,934102.0,928071.0,77
1,1,0,0,0,45,test,1,1,m,Wed Jan 07 2026 10:04:30 GMT-0600 (Central Standard Time),1027251.3999999762,I,m,1579,78,3,46.bmp,-120,-120,47.bmp,120,-120,48.bmp,-120,120,49.bmp,120,120,9626.899999976158,1017624.5,8036,yes,SM,B,47.bmp,-120,-120,174640,168615,176656,170625,941650.0,935622.0,943666.0,937634.0,78
4,0,0,0,1,45,test,1,0,m,Wed Jan 07 2026 10:04:30 GMT-0600 (Central Standard Time),1036915.2000000477,I,z,1606,79,3,7.bmp,-120,-120,8.bmp,120,-120,9.bmp,-120,120,10.bmp,120,120,9658.800000071526,1027256.3999999762,8036,yes,SM,B,7.bmp,120,120,174640,168615,176656,170625,951280.0,945254.0,953296.0,947264.0,79
3,0,0,1,0,46,test,1,1,m,Wed Jan 07 2026 10:04:30 GMT-0600 (Central Standard Time),1046312.2000000477,I,m,1341,80,3,3.bmp,-120,-120,4.bmp,120,-120,5.bmp,-120,120,6.bmp,120,120,9393.700000047684,1036918.5,8036,yes,SM,B,6.bmp,-120,120,174640,168615,176656,170625,960944.0,954916.0,962961.0,956928.0,80
