Q,Q1,Q2,Q3,Q4,acc_sum,block,block_c,correct,correct_response,datetime,endtime,project,response,response_time,row_sel,session_number,squiggle1,squiggle1x,squiggle1y,squiggle2,squiggle2x,squiggle2y,squiggle3,squiggle3x,squiggle3y,squiggle4,squiggle4x,squiggle4y,start_end,starttime,subject_id,target_congruent,task,task_vers,testsquiggle,testsquigglex,testsquiggley,time_practice_delay,time_practice_fixation,time_practice_stimuli,time_practice_study,time_test_delay,time_test_fixation,time_test_stimuli,time_test_study,trial
1,1,0,0,0,0,prac,1,0,z,Fri Aug 15 2025 11:10:42 GMT-0500 (Central Daylight Time),112761.60000002384,I,None,2015,1,2,66.bmp,-120,-120,67.bmp,120,-120,68.bmp,-120,120,69.bmp,120,120,10826.900000035763,101934.69999998808,8036,yes,SM,C,66.bmp,-120,-120,106039,100011,108056,102024,,,,,1
3,0,0,1,0,0,prac,1,0,m,Fri Aug 15 2025 11:10:42 GMT-0500 (Central Daylight Time),123591.5,I,None,2016,2,2,70.bmp,-120,-120,71.bmp,120,-120,72.bmp,-120,120,73.bmp,120,120,10825.899999976158,112765.60000002384,8036,no,SM,C,73.bmp,-120,120,116869,110842,118885,112854,,,,,2
4,0,0,0,1,1,prac,1,1,m,Fri Aug 15 2025 11:10:42 GMT-0500 (Central Daylight Time),133605.0,I,m,1187,3,2,74.bmp,-120,-120,75.bmp,120,-120,76.bmp,-120,120,77.bmp,120,120,10009.600000023842,123595.39999997616,8036,no,SM,C,74.bmp,120,120,127699,121672,129715,123684,,,,,3
2,0,1,0,0,1,prac,1,0,z,Fri Aug 15 2025 11:10:42 GMT-0500 (Central Daylight Time),144101.60000002384,I,m,1677,4,2,78.bmp,-120,-120,79.bmp,120,-120,80.bmp,-120,120,81.bmp,120,120,10493.300000011921,133608.30000001192,8036,yes,SM,C,79.bmp,120,-120,137713,131685,139728,133697,,,,,4
3,0,0,1,0,2,prac,1,1,z,Fri Aug 15 2025 11:10:42 GMT-0500 (Central Daylight Time),154431.60000002384,I,z,1500,5,2,82.bmp,-120,-120,83.bmp,120,-120,84.bmp,-120,120,85.bmp,120,120,10326.5,144105.10000002384,8036,yes,SM,C,84.bmp,-120,120,148209,142181,150226,144194,,,,,5
1,1,0,0,0,2,prac,1,0,m,Fri Aug 15 2025 11:10:42 GMT-0500 (Central Daylight Time),164645.0,I,z,1387,6,2,86.bmp,-120,-120,87.bmp,120,-120,88.bmp,-120,120,89.bmp,120,120,10209.899999976158,154435.10000002384,8036,no,SM,C,89.bmp,-120,-120,158539,152511,160555,154524,,,,,6
2,0,1,0,0,2,prac,1,0,m,Fri Aug 15 2025 11:10:42 GMT-0500 (Central Daylight Time),175475.0,I,None,2016,7,2,90.bmp,-120,-120,91.bmp,120,-120,92.bmp,-120,120,93.bmp,120,120,10826.699999988079,164648.30000001192,8036,no,SM,C,90.bmp,120,-120,168753,162725,170769,164737,,,,,7
4,0,0,0,1,2,prac,1,0,z,Fri Aug 15 2025 11:10:42 GMT-0500 (Central Daylight Time),186321.39999997616,I,None,2001,8,2,94.bmp,-120,-120,95.bmp,120,-120,96.bmp,-120,120,97.bmp,120,120,10842.899999976158,175478.5,8036,yes,SM,C,97.bmp,120,120,179583,173555,181630,175567,,,,,8
1,1,0,0,0,1,prac,2,1,z,Fri Aug 15 2025 11:10:42 GMT-0500 (Central Daylight Time),200067.60000002384,I,z,1105,1,2,66.bmp,-120,-120,67.bmp,120,-120,68.bmp,-120,120,69.bmp,120,120,9927.800000011921,190139.80000001192,8036,yes,SM,C,66.bmp,-120,-120,194245,188216,196261,190229,,,,,1
3,0,0,1,0,1,prac,2,0,m,Fri Aug 15 2025 11:10:42 GMT-0500 (Central Daylight Time),210547.30000001192,I,z,1655,2,2,70.bmp,-120,-120,71.bmp,120,-120,72.bmp,-120,120,73.bmp,120,120,10476.5,200070.80000001192,8036,no,SM,C,73.bmp,-120,120,204175,198147,206191,200160,,,,,2
4,0,0,0,1,1,prac,2,0,m,Fri Aug 15 2025 11:10:42 GMT-0500 (Central Daylight Time),221094.10000002384,I,z,1728,3,2,74.bmp,-120,-120,75.bmp,120,-120,76.bmp,-120,120,77.bmp,120,120,10543.0,210551.10000002384,8036,no,SM,C,74.bmp,120,120,214655,208627,216671,210640,,,,,3
2,0,1,0,0,1,prac,2,0,z,Fri Aug 15 2025 11:10:42 GMT-0500 (Central Daylight Time),231507.5,I,m,1596,4,2,78.bmp,-120,-120,79.bmp,120,-120,80.bmp,-120,120,81.bmp,120,120,10410.100000023842,221097.39999997616,8036,yes,SM,C,79.bmp,120,-120,225202,219174,227218,221186,,,,,4
3,0,0,1,0,2,prac,2,1,z,Fri Aug 15 2025 11:10:42 GMT-0500 (Central Daylight Time),241704.39999997616,I,z,1367,5,2,82.bmp,-120,-120,83.bmp,120,-120,84.bmp,-120,120,85.bmp,120,120,10193.0,231511.39999997616,8036,yes,SM,C,84.bmp,-120,120,235615,229588,237631,231600,,,,,5
1,1,0,0,0,2,prac,2,0,m,Fri Aug 15 2025 11:10:42 GMT-0500 (Central Daylight Time),251568.0,I,z,1033,6,2,86.bmp,-120,-120,87.bmp,120,-120,88.bmp,-120,120,89.bmp,120,120,9860.399999976158,241707.60000002384,8036,no,SM,C,89.bmp,-120,-120,245812,239784,247828,241797,,,,,6
2,0,1,0,0,2,prac,2,0,m,Fri Aug 15 2025 11:10:42 GMT-0500 (Central Daylight Time),262397.6999999881,I,None,2016,7,2,90.bmp,-120,-120,91.bmp,120,-120,92.bmp,-120,120,93.bmp,120,120,10826.599999964237,251571.10000002384,8036,no,SM,C,90.bmp,120,-120,255675,249647,257692,251660,,,,,7
4,0,0,0,1,2,prac,2,0,z,Fri Aug 15 2025 11:10:42 GMT-0500 (Central Daylight Time),273227.8000000119,I,None,2015,8,2,94.bmp,-120,-120,95.bmp,120,-120,96.bmp,-120,120,97.bmp,120,120,10826.199999988079,262401.60000002384,8036,yes,SM,C,97.bmp,120,120,266505,260478,268522,262490,,,,,8
4,0,0,0,1,1,test,1,1,m,Fri Aug 15 2025 11:10:42 GMT-0500 (Central Daylight Time),289339.10000002384,I,m,1665,1,2,98.bmp,-120,-120,99.bmp,120,-120,100.bmp,-120,120,93.bmp,120,120,9710.400000035763,279628.6999999881,8036,yes,SM,C,100.bmp,120,120,266505,260478,268522,262490,283733.0,277705.0,285750.0,279718.0,1
2,0,1,0,0,2,test,1,1,m,Fri Aug 15 2025 11:10:42 GMT-0500 (Central Daylight Time),298669.89999997616,I,m,1271,2,2,51.bmp,-120,-120,52.bmp,120,-120,53.bmp,-120,120,54.bmp,120,120,9327.199999988079,289342.6999999881,8036,yes,SM,C,53.bmp,120,-120,266505,260478,268522,262490,293447.0,287419.0,295463.0,289432.0,2
1,1,0,0,0,3,test,1,1,z,Fri Aug 15 2025 11:10:42 GMT-0500 (Central Daylight Time),308317.0,I,z,1590,3,2,55.bmp,-120,-120,56.bmp,120,-120,57.bmp,-120,120,58.bmp,120,120,9643.800000011921,298673.1999999881,8036,yes,SM,C,55.bmp,-120,-120,266505,260478,268522,262490,302777.0,296749.0,304793.0,298762.0,3
3,0,0,1,0,3,test,1,0,m,Fri Aug 15 2025 11:10:42 GMT-0500 (Central Daylight Time),317513.89999997616,I,z,1149,4,2,59.bmp,-120,-120,60.bmp,120,-120,61.bmp,-120,120,62.bmp,120,120,9193.099999964237,308320.8000000119,8036,yes,SM,C,59.bmp,-120,120,266505,260478,268522,262490,312424.0,306397.0,314441.0,308409.0,4
2,0,1,0,0,4,test,1,1,z,Fri Aug 15 2025 11:10:42 GMT-0500 (Central Daylight Time),327377.39999997616,I,z,1808,5,2,63.bmp,-120,-120,64.bmp,120,-120,65.bmp,-120,120,66.bmp,120,120,9860.799999952316,317516.60000002384,8036,yes,SM,C,64.bmp,120,-120,266505,260478,268522,262490,321621.0,315593.0,323638.0,317606.0,5
3,0,0,1,0,5,test,1,1,z,Fri Aug 15 2025 11:10:42 GMT-0500 (Central Daylight Time),336574.5,I,z,1137,6,2,67.bmp,-120,-120,68.bmp,120,-120,69.bmp,-120,120,70.bmp,120,120,9194.0,327380.5,8036,yes,SM,C,69.bmp,-120,120,266505,260478,268522,262490,331485.0,325457.0,333501.0,327470.0,6
4,0,0,0,1,6,test,1,1,z,Fri Aug 15 2025 11:10:42 GMT-0500 (Central Daylight Time),346271.5,I,z,1643,7,2,71.bmp,-120,-120,72.bmp,120,-120,73.bmp,-120,120,74.bmp,120,120,9693.800000011921,336577.6999999881,8036,yes,SM,C,74.bmp,120,120,266505,260478,268522,262490,340682.0,334654.0,342699.0,336667.0,7
2,0,1,0,0,7,test,1,1,m,Fri Aug 15 2025 11:10:42 GMT-0500 (Central Daylight Time),356318.3000000119,I,m,1987,8,2,75.bmp,-120,-120,76.bmp,120,-120,77.bmp,-120,120,78.bmp,120,120,10042.800000011921,346275.5,8036,yes,SM,C,75.bmp,120,-120,266505,260478,268522,262490,350379.0,344352.0,352395.0,346364.0,8
3,0,0,1,0,8,test,1,1,m,Fri Aug 15 2025 11:10:42 GMT-0500 (Central Daylight Time),366181.89999997616,I,m,1812,9,2,79.bmp,-120,-120,80.bmp,120,-120,81.bmp,-120,120,82.bmp,120,120,9855.899999976158,356326.0,8036,yes,SM,C,80.bmp,-120,120,266505,260478,268522,262490,360426.0,354402.0,362442.0,356411.0,9
4,0,0,0,1,8,test,1,0,z,Fri Aug 15 2025 11:10:42 GMT-0500 (Central Daylight Time),376262.10000002384,I,None,2016,10,2,87.bmp,-120,-120,88.bmp,120,-120,89.bmp,-120,120,90.bmp,120,120,10077.200000047684,366184.89999997616,8036,yes,SM,C,90.bmp,120,120,266505,260478,268522,262490,370306.0,364261.0,372322.0,366274.0,10
3,0,0,1,0,8,test,1,0,z,Fri Aug 15 2025 11:10:42 GMT-0500 (Central Daylight Time),386325.60000002384,I,None,2016,11,2,83.bmp,-120,-120,84.bmp,120,-120,85.bmp,-120,120,86.bmp,120,120,10059.100000023842,376266.5,8036,yes,SM,C,85.bmp,-120,120,266505,260478,268522,262490,380370.0,374343.0,382386.0,376354.0,11
2,0,1,0,0,9,test,1,1,m,Fri Aug 15 2025 11:10:42 GMT-0500 (Central Daylight Time),396039.0,I,m,1653,12,2,91.bmp,-120,-120,92.bmp,120,-120,93.bmp,-120,120,94.bmp,120,120,9709.699999988079,386329.3000000119,8036,yes,SM,C,91.bmp,120,-120,266505,260478,268522,262490,390433.0,384406.0,392449.0,386418.0,12
3,0,0,1,0,10,test,1,1,m,Fri Aug 15 2025 11:10:42 GMT-0500 (Central Daylight Time),405669.60000002384,I,m,1579,13,2,95.bmp,-120,-120,96.bmp,120,-120,97.bmp,-120,120,98.bmp,120,120,9627.600000023842,396042.0,8036,yes,SM,C,96.bmp,-120,120,266505,260478,268522,262490,400147.0,394118.0,402163.0,396131.0,13
1,1,0,0,0,11,test,1,1,z,Fri Aug 15 2025 11:10:42 GMT-0500 (Central Daylight Time),415666.3000000119,I,z,1949,14,2,99.bmp,-120,-120,100.bmp,120,-120,54.bmp,-120,120,51.bmp,120,120,9993.699999988079,405672.60000002384,8036,yes,SM,C,99.bmp,-120,-120,266505,260478,268522,262490,409777.0,403749.0,411793.0,405762.0,14
4,0,0,0,1,11,test,1,0,m,Fri Aug 15 2025 11:10:42 GMT-0500 (Central Daylight Time),425729.89999997616,I,None,2016,15,2,60.bmp,-120,-120,61.bmp,120,-120,62.bmp,-120,120,63.bmp,120,120,10061.0,415668.89999997616,8036,yes,SM,C,61.bmp,120,120,266505,260478,268522,262490,419774.0,413745.0,421790.0,415759.0,15
1,1,0,0,0,11,test,1,0,m,Fri Aug 15 2025 11:10:42 GMT-0500 (Central Daylight Time),435793.5,I,None,2016,16,2,52.bmp,-120,-120,53.bmp,120,-120,54.bmp,-120,120,55.bmp,120,120,10060.600000023842,425732.89999997616,8036,yes,SM,C,55.bmp,-120,-120,266505,260478,268522,262490,429837.0,423809.0,431853.0,425822.0,16
3,0,0,1,0,11,test,1,0,m,Fri Aug 15 2025 11:10:42 GMT-0500 (Central Daylight Time),445856.8000000119,I,None,2016,17,2,72.bmp,-120,-120,73.bmp,120,-120,74.bmp,-120,120,75.bmp,120,120,10059.199999988079,435797.60000002384,8036,yes,SM,C,72.bmp,-120,120,266505,260478,268522,262490,439901.0,433874.0,441917.0,435886.0,17
1,1,0,0,0,11,test,1,0,z,Fri Aug 15 2025 11:10:42 GMT-0500 (Central Daylight Time),455920.1999999881,I,None,2015,18,2,56.bmp,-120,-120,57.bmp,120,-120,58.bmp,-120,120,59.bmp,120,120,10060.300000011921,445859.89999997616,8036,yes,SM,C,56.bmp,-120,-120,266505,260478,268522,262490,449964.0,443936.0,451981.0,445949.0,18
2,0,1,0,0,11,test,1,0,z,Fri Aug 15 2025 11:10:42 GMT-0500 (Central Daylight Time),465583.89999997616,I,m,1602,19,2,76.bmp,-120,-120,77.bmp,120,-120,78.bmp,-120,120,79.bmp,120,120,9656.0,455927.89999997616,8036,yes,SM,C,77.bmp,120,-120,266505,260478,268522,262490,460028.0,454004.0,462044.0,456013.0,19
3,0,0,1,0,12,test,1,1,z,Fri Aug 15 2025 11:10:42 GMT-0500 (Central Daylight Time),475047.8000000119,I,z,1410,20,2,80.bmp,-120,-120,81.bmp,120,-120,82.bmp,-120,120,83.bmp,120,120,9460.900000035763,465586.89999997616,8036,yes,SM,C,82.bmp,-120,120,266505,260478,268522,262490,469692.0,463663.0,471708.0,465676.0,20
1,1,0,0,0,12,test,1,0,m,Fri Aug 15 2025 11:10:42 GMT-0500 (Central Daylight Time),484861.39999997616,I,z,1763,21,2,64.bmp,-120,-120,65.bmp,120,-120,66.bmp,-120,120,67.bmp,120,120,9810.799999952316,475050.60000002384,8036,yes,SM,C,66.bmp,-120,-120,266505,260478,268522,262490,479155.0,473127.0,481171.0,475140.0,21
4,0,0,0,1,12,test,1,0,z,Fri Aug 15 2025 11:10:42 GMT-0500 (Central Daylight Time),494358.1999999881,I,m,1437,22,2,68.bmp,-120,-120,69.bmp,120,-120,70.bmp,-120,120,71.bmp,120,120,9493.800000011921,484864.39999997616,8036,yes,SM,C,71.bmp,120,120,266505,260478,268522,262490,488969.0,482941.0,490985.0,484954.0,22
1,1,0,0,0,12,test,1,0,m,Fri Aug 15 2025 11:10:42 GMT-0500 (Central Daylight Time),504422.0,I,None,2016,23,2,84.bmp,-120,-120,85.bmp,120,-120,86.bmp,-120,120,87.bmp,120,120,10061.100000023842,494360.89999997616,8036,yes,SM,C,87.bmp,-120,-120,266505,260478,268522,262490,498466.0,492437.0,500482.0,494451.0,23
2,0,1,0,0,12,test,1,0,z,Fri Aug 15 2025 11:10:42 GMT-0500 (Central Daylight Time),513802.1999999881,I,m,1332,24,2,92.bmp,-120,-120,93.bmp,120,-120,94.bmp,-120,120,95.bmp,120,120,9376.0,504426.1999999881,8036,yes,SM,C,93.bmp,120,-120,266505,260478,268522,262490,508529.0,502502.0,510546.0,504514.0,24
4,0,0,0,1,12,test,1,0,m,Fri Aug 15 2025 11:10:42 GMT-0500 (Central Daylight Time),523199.10000002384,I,z,1345,25,2,96.bmp,-120,-120,97.bmp,120,-120,98.bmp,-120,120,99.bmp,120,120,9393.800000011921,513805.3000000119,8036,yes,SM,C,98.bmp,120,120,266505,260478,268522,262490,517910.0,511881.0,519926.0,513895.0,25
1,1,0,0,0,13,test,1,1,z,Fri Aug 15 2025 11:10:42 GMT-0500 (Central Daylight Time),532596.1999999881,I,z,1347,26,2,88.bmp,-120,-120,89.bmp,120,-120,90.bmp,-120,120,91.bmp,120,120,9393.699999988079,523202.5,8036,yes,SM,C,88.bmp,-120,-120,266505,260478,268522,262490,527307.0,521279.0,529323.0,523291.0,26
4,0,0,0,1,13,test,1,0,z,Fri Aug 15 2025 11:10:42 GMT-0500 (Central Daylight Time),542659.8999999762,I,None,2016,27,2,100.bmp,-120,-120,61.bmp,120,-120,51.bmp,-120,120,52.bmp,120,120,10060.599999964237,532599.3000000119,8036,yes,SM,C,52.bmp,120,120,266505,260478,268522,262490,536704.0,530676.0,538720.0,532689.0,27
3,0,0,1,0,14,test,1,1,m,Fri Aug 15 2025 11:10:42 GMT-0500 (Central Daylight Time),552339.8000000119,I,m,1622,28,2,53.bmp,-120,-120,54.bmp,120,-120,55.bmp,-120,120,56.bmp,120,120,9677.100000023842,542662.6999999881,8036,yes,SM,C,53.bmp,-120,120,266505,260478,268522,262490,546768.0,540739.0,548783.0,542752.0,28
2,0,1,0,0,15,test,1,1,z,Fri Aug 15 2025 11:10:42 GMT-0500 (Central Daylight Time),562353.6000000238,I,z,1950,29,2,57.bmp,-120,-120,58.bmp,120,-120,59.bmp,-120,120,60.bmp,120,120,10009.0,552344.6000000238,8036,yes,SM,C,58.bmp,120,-120,266505,260478,268522,262490,556448.0,550421.0,558464.0,552432.0,29
3,0,0,1,0,16,test,1,1,z,Fri Aug 15 2025 11:10:42 GMT-0500 (Central Daylight Time),571650.6000000238,I,z,1241,30,2,61.bmp,-120,-120,62.bmp,120,-120,63.bmp,-120,120,64.bmp,120,120,9293.600000023842,562357.0,8036,yes,SM,C,63.bmp,-120,120,266505,260478,268522,262490,566461.0,560433.0,568477.0,562446.0,30
1,1,0,0,0,17,test,1,1,z,Fri Aug 15 2025 11:10:42 GMT-0500 (Central Daylight Time),581481.3999999762,I,z,1775,31,2,65.bmp,-120,-120,66.bmp,120,-120,67.bmp,-120,120,68.bmp,120,120,9826.899999976158,571654.5,8036,yes,SM,C,65.bmp,-120,-120,266505,260478,268522,262490,575758.0,569731.0,577774.0,571743.0,31
2,0,1,0,0,18,test,1,1,m,Fri Aug 15 2025 11:10:42 GMT-0500 (Central Daylight Time),591261.3000000119,I,m,1729,32,2,69.bmp,-120,-120,70.bmp,120,-120,71.bmp,-120,120,72.bmp,120,120,9777.0,581484.3000000119,8036,yes,SM,C,69.bmp,120,-120,266505,260478,268522,262490,585589.0,579561.0,587605.0,581573.0,32
4,0,0,0,1,19,test,1,1,z,Fri Aug 15 2025 11:10:42 GMT-0500 (Central Daylight Time),601141.5,I,z,1821,33,2,81.bmp,-120,-120,82.bmp,120,-120,83.bmp,-120,120,84.bmp,120,120,9877.399999976158,591264.1000000238,8036,yes,SM,C,84.bmp,120,120,266505,260478,268522,262490,595369.0,589340.0,597385.0,591354.0,33
2,0,1,0,0,19,test,1,0,z,Fri Aug 15 2025 11:10:42 GMT-0500 (Central Daylight Time),611205.0,I,None,2016,34,2,73.bmp,-120,-120,74.bmp,120,-120,75.bmp,-120,120,76.bmp,120,120,10060.600000023842,601144.3999999762,8036,yes,SM,C,74.bmp,120,-120,266505,260478,268522,262490,605249.0,599221.0,607265.0,601234.0,34
4,0,0,0,1,20,test,1,1,m,Fri Aug 15 2025 11:10:42 GMT-0500 (Central Daylight Time),620918.6000000238,I,m,1653,35,2,77.bmp,-120,-120,78.bmp,120,-120,79.bmp,-120,120,80.bmp,120,120,9710.700000047684,611207.8999999762,8036,yes,SM,C,79.bmp,120,120,266505,260478,268522,262490,615312.0,609284.0,617329.0,611297.0,35
3,0,0,1,0,20,test,1,0,m,Fri Aug 15 2025 11:10:42 GMT-0500 (Central Daylight Time),630215.8000000119,I,z,1245,36,2,85.bmp,-120,-120,86.bmp,120,-120,87.bmp,-120,120,88.bmp,120,120,9294.300000011921,620921.5,8036,yes,SM,C,85.bmp,-120,120,266505,260478,268522,262490,625026.0,618998.0,627042.0,621011.0,36
1,1,0,0,0,21,test,1,1,m,Fri Aug 15 2025 11:10:42 GMT-0500 (Central Daylight Time),639945.8999999762,I,m,1667,37,2,89.bmp,-120,-120,90.bmp,120,-120,91.bmp,-120,120,92.bmp,120,120,9726.599999964237,630219.3000000119,8036,yes,SM,C,90.bmp,-120,-120,266505,260478,268522,262490,634323.0,628295.0,636339.0,630308.0,37
2,0,1,0,0,22,test,1,1,m,Fri Aug 15 2025 11:10:42 GMT-0500 (Central Daylight Time),649759.6000000238,I,m,1760,38,2,93.bmp,-120,-120,94.bmp,120,-120,95.bmp,-120,120,96.bmp,120,120,9810.600000023842,639949.0,8036,yes,SM,C,95.bmp,120,-120,266505,260478,268522,262490,644053.0,638025.0,646070.0,640038.0,38
4,0,0,0,1,23,test,1,1,z,Fri Aug 15 2025 11:10:42 GMT-0500 (Central Daylight Time),659273.1000000238,I,z,1459,39,2,97.bmp,-120,-120,98.bmp,120,-120,99.bmp,-120,120,100.bmp,120,120,9509.800000011921,649763.3000000119,8036,yes,SM,C,100.bmp,120,120,266505,260478,268522,262490,653867.0,647840.0,655883.0,649852.0,39
3,0,0,1,0,23,test,1,0,m,Fri Aug 15 2025 11:10:42 GMT-0500 (Central Daylight Time),669336.8000000119,I,None,2016,40,2,54.bmp,-120,-120,55.bmp,120,-120,56.bmp,-120,120,57.bmp,120,120,10060.699999988079,659276.1000000238,8036,yes,SM,C,55.bmp,-120,120,266505,260478,268522,262490,663381.0,657352.0,665397.0,659365.0,40
1,1,0,0,0,24,test,1,1,z,Fri Aug 15 2025 11:10:42 GMT-0500 (Central Daylight Time),679050.5,I,z,1658,41,2,58.bmp,-120,-120,59.bmp,120,-120,60.bmp,-120,120,61.bmp,120,120,9710.600000023842,669339.8999999762,8036,yes,SM,C,58.bmp,-120,-120,266505,260478,268522,262490,673444.0,667416.0,675460.0,669429.0,41
4,0,0,0,1,25,test,1,1,z,Fri Aug 15 2025 11:10:42 GMT-0500 (Central Daylight Time),688930.6999999881,I,z,1825,42,2,62.bmp,-120,-120,63.bmp,120,-120,64.bmp,-120,120,65.bmp,120,120,9877.399999976158,679053.3000000119,8036,yes,SM,C,65.bmp,120,120,266505,260478,268522,262490,683158.0,677130.0,685174.0,679143.0,42
1,1,0,0,0,26,test,1,1,z,Fri Aug 15 2025 11:10:42 GMT-0500 (Central Daylight Time),698610.8999999762,I,z,1624,43,2,66.bmp,-120,-120,67.bmp,120,-120,68.bmp,-120,120,69.bmp,120,120,9677.199999988079,688933.6999999881,8036,yes,SM,C,66.bmp,-120,-120,266505,260478,268522,262490,693038.0,687010.0,695054.0,689023.0,43
4,0,0,0,1,27,test,1,1,m,Fri Aug 15 2025 11:10:42 GMT-0500 (Central Daylight Time),708657.6999999881,I,m,1992,44,2,54.bmp,-120,-120,51.bmp,120,-120,52.bmp,-120,120,53.bmp,120,120,10043.099999964237,698614.6000000238,8036,yes,SM,C,54.bmp,120,120,266505,260478,268522,262490,702719.0,696691.0,704735.0,698703.0,44
1,1,0,0,0,27,test,1,0,m,Fri Aug 15 2025 11:10:42 GMT-0500 (Central Daylight Time),718721.1999999881,I,None,2015,45,2,78.bmp,-120,-120,79.bmp,120,-120,80.bmp,-120,120,81.bmp,120,120,10060.300000011921,708660.8999999762,8036,yes,SM,C,81.bmp,-120,-120,266505,260478,268522,262490,712765.0,706737.0,714782.0,708750.0,45
1,1,0,0,0,27,test,1,0,m,Fri Aug 15 2025 11:10:42 GMT-0500 (Central Daylight Time),728784.6999999881,I,None,2016,46,2,70.bmp,-120,-120,71.bmp,120,-120,72.bmp,-120,120,73.bmp,120,120,10060.300000011921,718724.3999999762,8036,yes,SM,C,71.bmp,-120,-120,266505,260478,268522,262490,722829.0,716801.0,724845.0,718814.0,46
3,0,0,1,0,28,test,1,1,z,Fri Aug 15 2025 11:10:42 GMT-0500 (Central Daylight Time),738199.0,I,z,1362,47,2,74.bmp,-120,-120,75.bmp,120,-120,76.bmp,-120,120,77.bmp,120,120,9411.199999988079,728787.8000000119,8036,yes,SM,C,76.bmp,-120,120,266505,260478,268522,262490,732892.0,726864.0,734908.0,728877.0,47
3,0,0,1,0,29,test,1,1,z,Fri Aug 15 2025 11:10:42 GMT-0500 (Central Daylight Time),747328.8999999762,I,z,1076,48,2,90.bmp,-120,-120,91.bmp,120,-120,92.bmp,-120,120,93.bmp,120,120,9127.299999952316,738201.6000000238,8036,yes,SM,C,92.bmp,-120,120,266505,260478,268522,262490,742306.0,736278.0,744322.0,738291.0,48
2,0,1,0,0,30,test,1,1,z,Fri Aug 15 2025 11:10:42 GMT-0500 (Central Daylight Time),757075.8999999762,I,z,1631,49,2,86.bmp,-120,-120,87.bmp,120,-120,88.bmp,-120,120,89.bmp,120,120,9744.199999988079,747331.6999999881,8036,yes,SM,C,87.bmp,120,-120,266505,260478,268522,262490,751503.0,745408.0,753519.0,747488.0,49
3,0,0,1,0,30,test,1,0,m,Fri Aug 15 2025 11:10:42 GMT-0500 (Central Daylight Time),766206.3999999762,I,z,1078,50,2,82.bmp,-120,-120,83.bmp,120,-120,84.bmp,-120,120,85.bmp,120,120,9127.699999988079,757078.6999999881,8036,yes,SM,C,82.bmp,-120,120,266505,260478,268522,262490,761183.0,755155.0,763200.0,757168.0,50
2,0,1,0,0,31,test,1,1,z,Fri Aug 15 2025 11:10:42 GMT-0500 (Central Daylight Time),775853.3000000119,I,z,1588,51,2,94.bmp,-120,-120,95.bmp,120,-120,96.bmp,-120,120,97.bmp,120,120,9644.100000023842,766209.1999999881,8036,yes,SM,C,95.bmp,120,-120,266505,260478,268522,262490,770314.0,764285.0,772330.0,766299.0,51
4,0,0,0,1,32,test,1,1,m,Fri Aug 15 2025 11:10:42 GMT-0500 (Central Daylight Time),785350.1999999881,I,m,1445,52,2,98.bmp,-120,-120,99.bmp,120,-120,100.bmp,-120,120,81.bmp,120,120,9494.0,775856.1999999881,8036,yes,SM,C,98.bmp,120,120,266505,260478,268522,262490,779961.0,773932.0,781977.0,775945.0,52
3,0,0,1,0,32,test,1,0,z,Fri Aug 15 2025 11:10:42 GMT-0500 (Central Daylight Time),795413.6999999881,I,None,2016,53,2,51.bmp,-120,-120,52.bmp,120,-120,53.bmp,-120,120,54.bmp,120,120,10059.899999976158,785353.8000000119,8036,yes,SM,C,53.bmp,-120,120,266505,260478,268522,262490,789458.0,783430.0,791474.0,785443.0,53
1,1,0,0,0,32,test,1,0,m,Fri Aug 15 2025 11:10:42 GMT-0500 (Central Daylight Time),805044.0,I,z,1580,54,2,55.bmp,-120,-120,56.bmp,120,-120,57.bmp,-120,120,58.bmp,120,120,9626.800000011921,795417.1999999881,8036,yes,SM,C,57.bmp,-120,-120,266505,260478,268522,262490,799522.0,793493.0,801538.0,795506.0,54
4,0,0,0,1,33,test,1,1,z,Fri Aug 15 2025 11:10:42 GMT-0500 (Central Daylight Time),814391.1999999881,I,z,1287,55,2,59.bmp,-120,-120,60.bmp,120,-120,61.bmp,-120,120,62.bmp,120,120,9343.800000011921,805047.3999999762,8036,yes,SM,C,62.bmp,120,120,266505,260478,268522,262490,809152.0,803124.0,811168.0,805136.0,55
2,0,1,0,0,34,test,1,1,m,Fri Aug 15 2025 11:10:42 GMT-0500 (Central Daylight Time),824288.1000000238,I,m,1843,56,2,63.bmp,-120,-120,64.bmp,120,-120,65.bmp,-120,120,66.bmp,120,120,9893.800000011921,814394.3000000119,8036,yes,SM,C,63.bmp,120,-120,266505,260478,268522,262490,818499.0,812470.0,820515.0,814484.0,56
4,0,0,0,1,34,test,1,0,m,Fri Aug 15 2025 11:10:42 GMT-0500 (Central Daylight Time),833868.3000000119,I,z,1523,57,2,67.bmp,-120,-120,68.bmp,120,-120,69.bmp,-120,120,70.bmp,120,120,9575.800000011921,824292.5,8036,yes,SM,C,68.bmp,120,120,266505,260478,268522,262490,828395.0,822369.0,830412.0,824380.0,57
3,0,0,1,0,35,test,1,1,z,Fri Aug 15 2025 11:10:42 GMT-0500 (Central Daylight Time),843522.8000000119,I,z,1607,58,2,71.bmp,-120,-120,72.bmp,120,-120,73.bmp,-120,120,74.bmp,120,120,9651.5,833871.3000000119,8036,yes,SM,C,73.bmp,-120,120,266505,260478,268522,262490,837976.0,831948.0,839992.0,833961.0,58
2,0,1,0,0,36,test,1,1,m,Fri Aug 15 2025 11:10:42 GMT-0500 (Central Daylight Time),852762.6000000238,I,m,1192,59,2,75.bmp,-120,-120,76.bmp,120,-120,77.bmp,-120,120,78.bmp,120,120,9236.600000023842,843526.0,8036,yes,SM,C,78.bmp,120,-120,266505,260478,268522,262490,847623.0,841602.0,849639.0,843608.0,59
1,1,0,0,0,37,test,1,1,z,Fri Aug 15 2025 11:10:42 GMT-0500 (Central Daylight Time),862026.3999999762,I,z,1216,60,2,79.bmp,-120,-120,80.bmp,120,-120,81.bmp,-120,120,82.bmp,120,120,9260.699999988079,852765.6999999881,8036,yes,SM,C,79.bmp,-120,-120,266505,260478,268522,262490,856870.0,850842.0,858886.0,852855.0,60
2,0,1,0,0,37,test,1,0,z,Fri Aug 15 2025 11:10:42 GMT-0500 (Central Daylight Time),871506.6999999881,I,m,1425,61,2,83.bmp,-120,-120,84.bmp,120,-120,85.bmp,-120,120,86.bmp,120,120,9477.300000011921,862029.3999999762,8036,yes,SM,C,84.bmp,120,-120,266505,260478,268522,262490,866134.0,860106.0,868150.0,862119.0,61
4,0,0,0,1,38,test,1,1,z,Fri Aug 15 2025 11:10:42 GMT-0500 (Central Daylight Time),881003.6000000238,I,z,1440,62,2,91.bmp,-120,-120,92.bmp,120,-120,93.bmp,-120,120,94.bmp,120,120,9493.600000023842,871510.0,8036,yes,SM,C,94.bmp,120,120,266505,260478,268522,262490,875614.0,869586.0,877630.0,871599.0,62
1,1,0,0,0,38,test,1,0,m,Fri Aug 15 2025 11:10:42 GMT-0500 (Central Daylight Time),890384.0,I,z,1319,63,2,95.bmp,-120,-120,96.bmp,120,-120,97.bmp,-120,120,98.bmp,120,120,9377.399999976158,881006.6000000238,8036,yes,SM,C,95.bmp,-120,120,266505,260478,268522,262490,885111.0,879083.0,887127.0,881096.0,63
2,0,1,0,0,39,test,1,1,z,Fri Aug 15 2025 11:10:42 GMT-0500 (Central Daylight Time),900330.5,I,z,1898,64,2,99.bmp,-120,-120,100.bmp,120,-120,62.bmp,-120,120,51.bmp,120,120,9943.699999988079,890386.8000000119,8036,yes,SM,C,100.bmp,120,-120,266505,260478,268522,262490,894492.0,888463.0,896507.0,890476.0,64
4,0,0,0,1,39,test,1,0,m,Fri Aug 15 2025 11:10:42 GMT-0500 (Central Daylight Time),910128.0,I,z,1735,65,2,52.bmp,-120,-120,53.bmp,120,-120,54.bmp,-120,120,55.bmp,120,120,9794.800000011921,900333.1999999881,8036,yes,SM,C,54.bmp,120,120,266505,260478,268522,262490,904438.0,898409.0,906455.0,900423.0,65
3,0,0,1,0,39,test,1,0,m,Fri Aug 15 2025 11:10:42 GMT-0500 (Central Daylight Time),919774.8000000119,I,z,1587,66,2,56.bmp,-120,-120,57.bmp,120,-120,58.bmp,-120,120,59.bmp,120,120,9642.800000011921,910132.0,8036,yes,SM,C,59.bmp,-120,120,266505,260478,268522,262490,914235.0,908208.0,916251.0,910220.0,66
2,0,1,0,0,39,test,1,0,m,Fri Aug 15 2025 11:10:42 GMT-0500 (Central Daylight Time),929838.5,I,None,2016,67,2,87.bmp,-120,-120,88.bmp,120,-120,89.bmp,-120,120,90.bmp,120,120,10060.100000023842,919778.3999999762,8036,yes,SM,C,89.bmp,120,-120,266505,260478,268522,262490,923883.0,917855.0,925898.0,919867.0,67
3,0,0,1,0,39,test,1,0,z,Fri Aug 15 2025 11:10:42 GMT-0500 (Central Daylight Time),939685.1000000238,I,m,1671,68,2,60.bmp,-120,-120,61.bmp,120,-120,62.bmp,-120,120,63.bmp,120,120,9843.200000047684,929841.8999999762,8036,yes,SM,C,62.bmp,-120,120,266505,260478,268522,262490,933946.0,927918.0,936079.0,929930.0,68
1,1,0,0,0,40,test,1,1,m,Fri Aug 15 2025 11:10:42 GMT-0500 (Central Daylight Time),949365.3000000119,I,m,1629,69,2,64.bmp,-120,-120,65.bmp,120,-120,66.bmp,-120,120,67.bmp,120,120,9677.100000023842,939688.1999999881,8036,yes,SM,C,65.bmp,-120,-120,266505,260478,268522,262490,943793.0,937764.0,945809.0,939778.0,69
2,0,1,0,0,41,test,1,1,m,Fri Aug 15 2025 11:10:42 GMT-0500 (Central Daylight Time),958962.3999999762,I,m,1549,70,2,68.bmp,-120,-120,69.bmp,120,-120,70.bmp,-120,120,71.bmp,120,120,9594.299999952316,949368.1000000238,8036,yes,SM,C,70.bmp,120,-120,266505,260478,268522,262490,953473.0,947444.0,955489.0,949458.0,70
4,0,0,0,1,42,test,1,1,z,Fri Aug 15 2025 11:10:42 GMT-0500 (Central Daylight Time),968675.8999999762,I,z,1656,71,2,72.bmp,-120,-120,73.bmp,120,-120,74.bmp,-120,120,75.bmp,120,120,9710.699999988079,958965.1999999881,8036,yes,SM,C,75.bmp,120,120,266505,260478,268522,262490,963070.0,957041.0,965086.0,959055.0,71
1,1,0,0,0,43,test,1,1,z,Fri Aug 15 2025 11:10:42 GMT-0500 (Central Daylight Time),977906.6000000238,I,z,1174,72,2,76.bmp,-120,-120,77.bmp,120,-120,78.bmp,-120,120,79.bmp,120,120,9227.900000035763,968678.6999999881,8036,yes,SM,C,76.bmp,-120,-120,266505,260478,268522,262490,972784.0,966755.0,974800.0,968768.0,72
2,0,1,0,0,43,test,1,0,z,Fri Aug 15 2025 11:10:42 GMT-0500 (Central Daylight Time),987970.1999999881,I,None,2016,73,2,80.bmp,-120,-120,81.bmp,120,-120,82.bmp,-120,120,83.bmp,120,120,10060.699999988079,977909.5,8036,yes,SM,C,81.bmp,120,-120,266505,260478,268522,262490,982014.0,975986.0,984030.0,977999.0,73
4,0,0,0,1,44,test,1,1,m,Fri Aug 15 2025 11:10:42 GMT-0500 (Central Daylight Time),997850.3000000119,I,m,1817,74,2,84.bmp,-120,-120,85.bmp,120,-120,86.bmp,-120,120,87.bmp,120,120,9877.300000011921,987973.0,8036,yes,SM,C,86.bmp,120,120,266505,260478,268522,262490,992078.0,986049.0,994094.0,988062.0,74
2,0,1,0,0,44,test,1,0,m,Fri Aug 15 2025 11:10:42 GMT-0500 (Central Daylight Time),1007913.6000000238,I,None,2016,75,2,88.bmp,-120,-120,89.bmp,120,-120,90.bmp,-120,120,91.bmp,120,120,10060.700000047684,997852.8999999762,8036,yes,SM,C,91.bmp,120,-120,266505,260478,268522,262490,1001958.0,995929.0,1003974.0,997942.0,75
1,1,0,0,0,45,test,1,1,z,Fri Aug 15 2025 11:10:42 GMT-0500 (Central Daylight Time),1017177.3999999762,I,z,1201,76,2,92.bmp,-120,-120,93.bmp,120,-120,94.bmp,-120,120,95.bmp,120,120,9260.599999964237,1007916.8000000119,8036,yes,SM,C,92.bmp,-120,-120,266505,260478,268522,262490,1012021.0,1005993.0,1014037.0,1008007.0,76
3,0,0,1,0,46,test,1,1,z,Fri Aug 15 2025 11:10:42 GMT-0500 (Central Daylight Time),1026424.5,I,z,1193,77,2,100.bmp,-120,-120,61.bmp,120,-120,51.bmp,-120,120,52.bmp,120,120,9243.899999976158,1017180.6000000238,8036,yes,SM,C,51.bmp,-120,120,266505,260478,268522,262490,1021285.0,1015257.0,1023301.0,1017270.0,77
1,1,0,0,0,47,test,1,1,m,Fri Aug 15 2025 11:10:42 GMT-0500 (Central Daylight Time),1036138.3999999762,I,m,1666,78,2,96.bmp,-120,-120,97.bmp,120,-120,98.bmp,-120,120,99.bmp,120,120,9710.699999988079,1026427.6999999881,8036,yes,SM,C,97.bmp,-120,-120,266505,260478,268522,262490,1030532.0,1024504.0,1032548.0,1026517.0,78
4,0,0,0,1,48,test,1,1,m,Fri Aug 15 2025 11:10:42 GMT-0500 (Central Daylight Time),1045635.1000000238,I,m,1449,79,2,57.bmp,-120,-120,58.bmp,120,-120,59.bmp,-120,120,60.bmp,120,120,9493.700000047684,1036141.3999999762,8036,yes,SM,C,57.bmp,120,120,266505,260478,268522,262490,1040246.0,1034218.0,1042262.0,1036230.0,79
3,0,0,1,0,49,test,1,1,m,Fri Aug 15 2025 11:10:42 GMT-0500 (Central Daylight Time),1055298.699999988,I,m,1599,80,2,53.bmp,-120,-120,54.bmp,120,-120,55.bmp,-120,120,56.bmp,120,120,9660.899999976158,1045637.8000000119,8036,yes,SM,C,56.bmp,-120,120,266505,260478,268522,262490,1049743.0,1043714.0,1051760.0,1045728.0,80
