acc_sum,block,block_c,block_cond,con_img,correct,correct_response,datetime,endtime,face,jitter,line,project,response,response_time,row_sel,session_number,start_end,starttime,subject_id,task,task_vers,trial
0,prac,1,A,haborder.png,0,m,Tue Sep 02 2025 09:57:28 GMT-0500 (Central Daylight Time),64916.59999990463,CFD-BF-035-007-HC.jpg,2000,solid,O,None,1515,5,1,4297.900000095367,60618.699999809265,7207,ATS,B,1
1,prac,1,A,haborder.png,1,m,Tue Sep 02 2025 09:57:28 GMT-0500 (Central Daylight Time),68414.89999985695,CFD-WM-012-007-HC.jpg,1700,solid,O,m,991,9,1,7796.200000047684,60618.699999809265,7207,ATS,B,2
2,prac,1,A,haborder.png,1,m,Tue Sep 02 2025 09:57:28 GMT-0500 (Central Daylight Time),71797.09999990463,CFD-BM-015-017-HC.jpg,1700,solid,O,m,890,1,1,11178.400000095367,60618.699999809265,7207,ATS,B,3
3,prac,1,A,haborder.png,1,z,Tue Sep 02 2025 09:57:28 GMT-0500 (Central Daylight Time),74813.09999990463,CFD-WF-026-008-A.jpg,1600,solid,O,z,618,10,1,14194.400000095367,60618.699999809265,7207,ATS,B,4
4,prac,1,A,haborder.png,1,z,Tue Sep 02 2025 09:57:28 GMT-0500 (Central Daylight Time),77312.69999980927,CFD-WF-013-015-A.jpg,1000,solid,O,z,702,12,1,16694.0,60618.699999809265,7207,ATS,B,5
5,prac,1,A,haborder.png,1,z,Tue Sep 02 2025 09:57:28 GMT-0500 (Central Daylight Time),79861.19999980927,CFD-BF-051-043-A.jpg,1000,solid,O,z,752,4,1,19242.5,60618.699999809265,7207,ATS,B,6
6,prac,1,A,haborder.png,1,z,Tue Sep 02 2025 09:57:28 GMT-0500 (Central Daylight Time),82478.09999990463,CFD-BF-050-012-A.jpg,1200,solid,O,z,617,6,1,21859.400000095367,60618.699999809265,7207,ATS,B,7
7,prac,1,A,haborder.png,1,m,Tue Sep 02 2025 09:57:28 GMT-0500 (Central Daylight Time),85442.5,CFD-BM-020-024-HC.jpg,1500,solid,O,m,658,3,1,24823.800000190735,60618.699999809265,7207,ATS,B,8
8,prac,1,A,haborder.png,1,z,Tue Sep 02 2025 09:57:28 GMT-0500 (Central Daylight Time),88510.79999995232,CFD-BM-037-041-A.jpg,1600,solid,O,z,674,2,1,27892.10000014305,60618.699999809265,7207,ATS,B,9
9,prac,1,A,haborder.png,1,z,Tue Sep 02 2025 09:57:28 GMT-0500 (Central Daylight Time),91857.39999985695,CFD-WM-009-009-A.jpg,1900,solid,O,z,642,8,1,31238.700000047684,60618.699999809265,7207,ATS,B,10
10,prac,1,A,haborder.png,1,m,Tue Sep 02 2025 09:57:28 GMT-0500 (Central Daylight Time),94857.89999985695,CFD-WF-011-006-HC.jpg,1500,solid,O,m,727,11,1,34239.200000047684,60618.699999809265,7207,ATS,B,11
11,prac,1,A,haborder.png,1,m,Tue Sep 02 2025 09:57:28 GMT-0500 (Central Daylight Time),97689.79999995232,CFD-WM-011-006-HC.jpg,1400,solid,O,m,634,7,1,37071.10000014305,60618.699999809265,7207,ATS,B,12
1,prac,1,B,mfborder.png,1,m,Tue Sep 02 2025 09:57:28 GMT-0500 (Central Daylight Time),117351.29999995232,CFD-WM-009-009-A.jpg,1700,dash,O,m,773,9,1,3249.7999999523163,114101.5,7207,ATS,B,1
2,prac,1,B,mfborder.png,1,z,Tue Sep 02 2025 09:57:28 GMT-0500 (Central Daylight Time),119668.79999995232,CFD-BF-051-043-A.jpg,1000,dash,O,z,541,4,1,5567.299999952316,114101.5,7207,ATS,B,2
3,prac,1,B,mfborder.png,1,z,Tue Sep 02 2025 09:57:28 GMT-0500 (Central Daylight Time),122431.29999995232,CFD-WF-026-008-A.jpg,1500,dash,O,z,456,11,1,8329.799999952316,114101.5,7207,ATS,B,3
4,prac,1,B,mfborder.png,1,m,Tue Sep 02 2025 09:57:28 GMT-0500 (Central Daylight Time),126014.5,CFD-BM-037-041-A.jpg,2000,dash,O,m,784,5,1,11913.0,114101.5,7207,ATS,B,4
4,prac,1,B,mfborder.png,0,z,Tue Sep 02 2025 09:57:28 GMT-0500 (Central Daylight Time),129046.5,CFD-BF-035-007-HC.jpg,1400,dash,O,m,838,7,1,14945.0,114101.5,7207,ATS,B,5
4,prac,1,B,mfborder.png,0,z,Tue Sep 02 2025 09:57:28 GMT-0500 (Central Daylight Time),132511.69999980927,CFD-WF-027-007-HC.jpg,1900,dash,O,m,792,8,1,18410.199999809265,114101.5,7207,ATS,B,6
5,prac,1,B,mfborder.png,1,m,Tue Sep 02 2025 09:57:28 GMT-0500 (Central Daylight Time),135661.79999995232,CFD-BM-041-048-A.jpg,1600,dash,O,m,767,2,1,21560.299999952316,114101.5,7207,ATS,B,7
6,prac,1,B,mfborder.png,1,z,Tue Sep 02 2025 09:57:28 GMT-0500 (Central Daylight Time),138660.19999980927,CFD-BF-027-013-HC.jpg,1500,dash,O,z,717,3,1,24558.699999809265,114101.5,7207,ATS,B,8
7,prac,1,B,mfborder.png,1,m,Tue Sep 02 2025 09:57:28 GMT-0500 (Central Daylight Time),141408.09999990463,CFD-WM-037-060-A.jpg,1200,dash,O,m,763,6,1,27306.599999904633,114101.5,7207,ATS,B,9
7,prac,1,B,mfborder.png,0,z,Tue Sep 02 2025 09:57:28 GMT-0500 (Central Daylight Time),143774.79999995232,CFD-WF-011-006-HC.jpg,1000,dash,O,m,585,12,1,29673.299999952316,114101.5,7207,ATS,B,10
8,prac,1,B,mfborder.png,1,m,Tue Sep 02 2025 09:57:28 GMT-0500 (Central Daylight Time),146957.39999985695,CFD-WM-012-007-HC.jpg,1600,dash,O,m,798,10,1,32855.89999985695,114101.5,7207,ATS,B,11
9,prac,1,B,mfborder.png,1,m,Tue Sep 02 2025 09:57:28 GMT-0500 (Central Daylight Time),149973.79999995232,CFD-BM-020-024-HC.jpg,1700,dash,O,m,533,1,1,35872.299999952316,114101.5,7207,ATS,B,12
1,test,1,A,haborder.png,1,m,Tue Sep 02 2025 09:57:28 GMT-0500 (Central Daylight Time),164734.69999980927,CFD-WM-012-007-HC.jpg,1700,solid,O,m,749,9,1,2482.399999856949,162252.29999995232,7207,ATS,B,1
2,test,1,A,haborder.png,1,m,Tue Sep 02 2025 09:57:28 GMT-0500 (Central Daylight Time),166985.29999995232,CFD-WF-011-006-HC.jpg,1500,solid,O,m,718,11,1,4733.0,162252.29999995232,7207,ATS,B,2
3,test,1,A,haborder.png,1,z,Tue Sep 02 2025 09:57:28 GMT-0500 (Central Daylight Time),169482.0,CFD-WM-009-009-A.jpg,1900,solid,O,z,574,8,1,7229.700000047684,162252.29999995232,7207,ATS,B,3
4,test,1,A,haborder.png,1,m,Tue Sep 02 2025 09:57:28 GMT-0500 (Central Daylight Time),171549.29999995232,CFD-WM-011-006-HC.jpg,1400,solid,O,m,631,7,1,9297.0,162252.29999995232,7207,ATS,B,4
5,test,1,A,haborder.png,1,z,Tue Sep 02 2025 09:57:28 GMT-0500 (Central Daylight Time),173615.19999980927,CFD-BF-051-043-A.jpg,1000,solid,O,z,1039,4,1,11362.899999856949,162252.29999995232,7207,ATS,B,5
6,test,1,A,haborder.png,1,z,Tue Sep 02 2025 09:57:28 GMT-0500 (Central Daylight Time),175331.69999980927,CFD-WF-013-015-A.jpg,1000,solid,O,z,686,12,1,13079.399999856949,162252.29999995232,7207,ATS,B,6
7,test,1,A,haborder.png,1,m,Tue Sep 02 2025 09:57:28 GMT-0500 (Central Daylight Time),177663.59999990463,CFD-BM-015-017-HC.jpg,1700,solid,O,m,612,1,1,15411.299999952316,162252.29999995232,7207,ATS,B,7
8,test,1,A,haborder.png,1,z,Tue Sep 02 2025 09:57:28 GMT-0500 (Central Daylight Time),179297.29999995232,CFD-WF-013-015-A.jpg,1000,solid,O,z,617,12,1,17045.0,162252.29999995232,7207,ATS,B,8
9,test,1,A,haborder.png,1,m,Tue Sep 02 2025 09:57:28 GMT-0500 (Central Daylight Time),182562.69999980927,CFD-BF-035-007-HC.jpg,2000,solid,O,m,1244,5,1,20310.39999985695,162252.29999995232,7207,ATS,B,9
10,test,1,A,haborder.png,1,m,Tue Sep 02 2025 09:57:28 GMT-0500 (Central Daylight Time),185677.89999985695,CFD-BF-035-007-HC.jpg,2000,solid,O,m,1091,5,1,23425.599999904633,162252.29999995232,7207,ATS,B,10
11,test,1,A,haborder.png,1,z,Tue Sep 02 2025 09:57:28 GMT-0500 (Central Daylight Time),187826.69999980927,CFD-BF-050-012-A.jpg,1200,solid,O,z,925,6,1,25574.39999985695,162252.29999995232,7207,ATS,B,11
11,test,1,A,haborder.png,0,z,Tue Sep 02 2025 09:57:28 GMT-0500 (Central Daylight Time),190076.09999990463,CFD-BM-037-041-A.jpg,1600,solid,O,m,625,2,1,27823.799999952316,162252.29999995232,7207,ATS,B,12
12,test,1,A,haborder.png,1,z,Tue Sep 02 2025 09:57:28 GMT-0500 (Central Daylight Time),192426.79999995232,CFD-BM-037-041-A.jpg,1600,solid,O,z,729,2,1,30174.5,162252.29999995232,7207,ATS,B,13
13,test,1,A,haborder.png,1,m,Tue Sep 02 2025 09:57:28 GMT-0500 (Central Daylight Time),194473.79999995232,CFD-WM-011-006-HC.jpg,1400,solid,O,m,627,7,1,32221.5,162252.29999995232,7207,ATS,B,14
14,test,1,A,haborder.png,1,m,Tue Sep 02 2025 09:57:28 GMT-0500 (Central Daylight Time),196640.29999995232,CFD-BM-020-024-HC.jpg,1500,solid,O,m,637,3,1,34388.0,162252.29999995232,7207,ATS,B,15
15,test,1,A,haborder.png,1,m,Tue Sep 02 2025 09:57:28 GMT-0500 (Central Daylight Time),198756.09999990463,CFD-BM-020-024-HC.jpg,1500,solid,O,m,582,3,1,36503.799999952316,162252.29999995232,7207,ATS,B,16
16,test,1,A,haborder.png,1,z,Tue Sep 02 2025 09:57:28 GMT-0500 (Central Daylight Time),201372.5,CFD-WM-009-009-A.jpg,1900,solid,O,z,692,8,1,39120.200000047684,162252.29999995232,7207,ATS,B,17
17,test,1,A,haborder.png,1,m,Tue Sep 02 2025 09:57:28 GMT-0500 (Central Daylight Time),203504.09999990463,CFD-WF-011-006-HC.jpg,1500,solid,O,m,611,11,1,41251.799999952316,162252.29999995232,7207,ATS,B,18
18,test,1,A,haborder.png,1,z,Tue Sep 02 2025 09:57:28 GMT-0500 (Central Daylight Time),205187.89999985695,CFD-BF-051-043-A.jpg,1000,solid,O,z,660,4,1,42935.59999990463,162252.29999995232,7207,ATS,B,19
19,test,1,A,haborder.png,1,z,Tue Sep 02 2025 09:57:28 GMT-0500 (Central Daylight Time),207704.0,CFD-WF-026-008-A.jpg,1600,solid,O,z,887,10,1,45451.700000047684,162252.29999995232,7207,ATS,B,20
20,test,1,A,haborder.png,1,z,Tue Sep 02 2025 09:57:28 GMT-0500 (Central Daylight Time),209770.19999980927,CFD-BF-050-012-A.jpg,1200,solid,O,z,838,6,1,47517.89999985695,162252.29999995232,7207,ATS,B,21
21,test,1,A,haborder.png,1,z,Tue Sep 02 2025 09:57:28 GMT-0500 (Central Daylight Time),212351.79999995232,CFD-WF-026-008-A.jpg,1600,solid,O,z,954,10,1,50099.5,162252.29999995232,7207,ATS,B,22
22,test,1,A,haborder.png,1,m,Tue Sep 02 2025 09:57:28 GMT-0500 (Central Daylight Time),214785.09999990463,CFD-BM-015-017-HC.jpg,1700,solid,O,m,713,1,1,52532.799999952316,162252.29999995232,7207,ATS,B,23
23,test,1,A,haborder.png,1,m,Tue Sep 02 2025 09:57:28 GMT-0500 (Central Daylight Time),217066.89999985695,CFD-WM-012-007-HC.jpg,1700,solid,O,m,558,9,1,54814.59999990463,162252.29999995232,7207,ATS,B,24
1,test,1,B,mfborder.png,1,z,Tue Sep 02 2025 09:57:28 GMT-0500 (Central Daylight Time),230480.19999980927,CFD-WF-027-007-HC.jpg,1900,dash,O,z,717,8,1,2649.0,227831.19999980927,7207,ATS,B,1
2,test,1,B,mfborder.png,1,z,Tue Sep 02 2025 09:57:28 GMT-0500 (Central Daylight Time),232096.79999995232,CFD-WF-011-006-HC.jpg,1000,dash,O,z,587,12,1,4265.600000143051,227831.19999980927,7207,ATS,B,2
3,test,1,B,mfborder.png,1,m,Tue Sep 02 2025 09:57:28 GMT-0500 (Central Daylight Time),234379.29999995232,CFD-WM-009-009-A.jpg,1700,dash,O,m,558,9,1,6548.100000143051,227831.19999980927,7207,ATS,B,3
4,test,1,B,mfborder.png,1,z,Tue Sep 02 2025 09:57:28 GMT-0500 (Central Daylight Time),236862.09999990463,CFD-WF-027-007-HC.jpg,1900,dash,O,z,559,8,1,9030.900000095367,227831.19999980927,7207,ATS,B,4
5,test,1,B,mfborder.png,1,m,Tue Sep 02 2025 09:57:28 GMT-0500 (Central Daylight Time),239160.69999980927,CFD-BM-041-048-A.jpg,1600,dash,O,m,678,2,1,11329.5,227831.19999980927,7207,ATS,B,5
6,test,1,B,mfborder.png,1,m,Tue Sep 02 2025 09:57:28 GMT-0500 (Central Daylight Time),241442.69999980927,CFD-BM-020-024-HC.jpg,1700,dash,O,m,557,1,1,13611.5,227831.19999980927,7207,ATS,B,6
7,test,1,B,mfborder.png,1,m,Tue Sep 02 2025 09:57:28 GMT-0500 (Central Daylight Time),243709.19999980927,CFD-WM-009-009-A.jpg,1700,dash,O,m,541,9,1,15878.0,227831.19999980927,7207,ATS,B,7
8,test,1,B,mfborder.png,1,z,Tue Sep 02 2025 09:57:28 GMT-0500 (Central Daylight Time),245860.09999990463,CFD-BF-035-007-HC.jpg,1400,dash,O,z,720,7,1,18028.900000095367,227831.19999980927,7207,ATS,B,8
9,test,1,B,mfborder.png,1,m,Tue Sep 02 2025 09:57:28 GMT-0500 (Central Daylight Time),248190.39999985695,CFD-BM-020-024-HC.jpg,1700,dash,O,m,603,1,1,20359.200000047684,227831.19999980927,7207,ATS,B,9
10,test,1,B,mfborder.png,1,m,Tue Sep 02 2025 09:57:28 GMT-0500 (Central Daylight Time),250041.09999990463,CFD-WM-037-060-A.jpg,1200,dash,O,m,621,6,1,22209.900000095367,227831.19999980927,7207,ATS,B,10
11,test,1,B,mfborder.png,1,m,Tue Sep 02 2025 09:57:28 GMT-0500 (Central Daylight Time),252208.09999990463,CFD-WM-012-007-HC.jpg,1600,dash,O,m,550,10,1,24376.900000095367,227831.19999980927,7207,ATS,B,11
12,test,1,B,mfborder.png,1,m,Tue Sep 02 2025 09:57:28 GMT-0500 (Central Daylight Time),254339.69999980927,CFD-BM-041-048-A.jpg,1600,dash,O,m,510,2,1,26508.5,227831.19999980927,7207,ATS,B,12
13,test,1,B,mfborder.png,1,z,Tue Sep 02 2025 09:57:28 GMT-0500 (Central Daylight Time),256522.0,CFD-BF-027-013-HC.jpg,1500,dash,O,z,652,3,1,28690.800000190735,227831.19999980927,7207,ATS,B,13
14,test,1,B,mfborder.png,1,z,Tue Sep 02 2025 09:57:28 GMT-0500 (Central Daylight Time),258853.79999995232,CFD-BF-027-013-HC.jpg,1500,dash,O,z,805,3,1,31022.60000014305,227831.19999980927,7207,ATS,B,14
15,test,1,B,mfborder.png,1,m,Tue Sep 02 2025 09:57:28 GMT-0500 (Central Daylight Time),260637.39999985695,CFD-WM-037-060-A.jpg,1200,dash,O,m,549,6,1,32806.200000047684,227831.19999980927,7207,ATS,B,15
16,test,1,B,mfborder.png,1,z,Tue Sep 02 2025 09:57:28 GMT-0500 (Central Daylight Time),262836.2999999523,CFD-BF-035-007-HC.jpg,1400,dash,O,z,774,7,1,35005.10000014305,227831.19999980927,7207,ATS,B,16
17,test,1,B,mfborder.png,1,z,Tue Sep 02 2025 09:57:28 GMT-0500 (Central Daylight Time),264553.59999990463,CFD-WF-011-006-HC.jpg,1000,dash,O,z,685,12,1,36722.40000009537,227831.19999980927,7207,ATS,B,17
18,test,1,B,mfborder.png,1,z,Tue Sep 02 2025 09:57:28 GMT-0500 (Central Daylight Time),266236.59999990463,CFD-BF-051-043-A.jpg,1000,dash,O,z,652,4,1,38405.40000009537,227831.19999980927,7207,ATS,B,18
19,test,1,B,mfborder.png,1,m,Tue Sep 02 2025 09:57:28 GMT-0500 (Central Daylight Time),268886.19999980927,CFD-BM-037-041-A.jpg,2000,dash,O,m,625,5,1,41055.0,227831.19999980927,7207,ATS,B,19
20,test,1,B,mfborder.png,1,m,Tue Sep 02 2025 09:57:28 GMT-0500 (Central Daylight Time),271350.59999990463,CFD-BM-037-041-A.jpg,2000,dash,O,m,439,5,1,43519.40000009537,227831.19999980927,7207,ATS,B,20
21,test,1,B,mfborder.png,1,z,Tue Sep 02 2025 09:57:28 GMT-0500 (Central Daylight Time),273750.19999980927,CFD-WF-026-008-A.jpg,1500,dash,O,z,867,11,1,45919.0,227831.19999980927,7207,ATS,B,21
22,test,1,B,mfborder.png,1,z,Tue Sep 02 2025 09:57:28 GMT-0500 (Central Daylight Time),275983.69999980927,CFD-WF-026-008-A.jpg,1500,dash,O,z,705,11,1,48152.5,227831.19999980927,7207,ATS,B,22
23,test,1,B,mfborder.png,1,m,Tue Sep 02 2025 09:57:28 GMT-0500 (Central Daylight Time),278383.2999999523,CFD-WM-012-007-HC.jpg,1600,dash,O,m,766,10,1,50552.10000014305,227831.19999980927,7207,ATS,B,23
24,test,1,B,mfborder.png,1,z,Tue Sep 02 2025 09:57:28 GMT-0500 (Central Daylight Time),280082.09999990463,CFD-BF-051-043-A.jpg,1000,dash,O,z,670,4,1,52250.90000009537,227831.19999980927,7207,ATS,B,24
0,5,1,C,mfborder.png,0,m,Tue Sep 02 2025 09:57:28 GMT-0500 (Central Daylight Time),317135.39999985695,CFD-BM-037-041-A.jpg,1200,dash,O,None,1515,prac,1,3497.0999999046326,313638.2999999523,7207,ATS,B,1
1,11,1,C,haborder.png,1,m,Tue Sep 02 2025 09:57:28 GMT-0500 (Central Daylight Time),320250.7999999523,CFD-WM-011-006-HC.jpg,1000,dash,O,m,1318,prac,1,6612.5,313638.2999999523,7207,ATS,B,2
1,4,1,C,mfborder.png,0,m,Tue Sep 02 2025 09:57:28 GMT-0500 (Central Daylight Time),324551.39999985695,CFD-BM-015-017-HC.jpg,2000,solid,O,None,1515,prac,1,10913.099999904633,313638.2999999523,7207,ATS,B,3
2,12,1,C,haborder.png,1,m,Tue Sep 02 2025 09:57:28 GMT-0500 (Central Daylight Time),328082.7999999523,CFD-WM-011-006-HC.jpg,1400,solid,O,m,1342,prac,1,14444.5,313638.2999999523,7207,ATS,B,4
3,3,1,C,mfborder.png,1,z,Tue Sep 02 2025 09:57:28 GMT-0500 (Central Daylight Time),331116.09999990463,CFD-BF-035-007-HC.jpg,1000,dash,O,z,1249,prac,1,17477.799999952316,313638.2999999523,7207,ATS,B,5
3,9,1,C,haborder.png,0,z,Tue Sep 02 2025 09:57:28 GMT-0500 (Central Daylight Time),334530.5,CFD-WF-026-008-A.jpg,1600,dash,O,m,1019,prac,1,20892.200000047684,313638.2999999523,7207,ATS,B,6
3,8,1,C,haborder.png,0,z,Tue Sep 02 2025 09:57:28 GMT-0500 (Central Daylight Time),338530.2999999523,CFD-BF-050-012-A.jpg,1700,solid,O,None,1515,prac,1,24892.0,313638.2999999523,7207,ATS,B,7
4,2,1,C,mfborder.png,1,z,Tue Sep 02 2025 09:57:28 GMT-0500 (Central Daylight Time),342111.59999990463,CFD-WF-013-015-A.jpg,1500,solid,O,z,1288,prac,1,28473.299999952316,313638.2999999523,7207,ATS,B,8
5,10,1,C,haborder.png,1,m,Tue Sep 02 2025 09:57:28 GMT-0500 (Central Daylight Time),345462.19999980927,CFD-BM-020-024-HC.jpg,1500,solid,O,m,1050,prac,1,31823.89999985695,313638.2999999523,7207,ATS,B,9
6,1,1,C,mfborder.png,1,z,Tue Sep 02 2025 09:57:28 GMT-0500 (Central Daylight Time),348695.5,CFD-WF-011-006-HC.jpg,1600,dash,O,z,855,prac,1,35057.200000047684,313638.2999999523,7207,ATS,B,10
7,6,1,C,mfborder.png,1,m,Tue Sep 02 2025 09:57:28 GMT-0500 (Central Daylight Time),352659.09999990463,CFD-WM-009-009-A.jpg,1700,solid,O,m,1492,prac,1,39020.799999952316,313638.2999999523,7207,ATS,B,11
8,7,1,C,haborder.png,1,z,Tue Sep 02 2025 09:57:28 GMT-0500 (Central Daylight Time),356340.2999999523,CFD-BF-051-043-A.jpg,1900,dash,O,z,985,prac,1,42702.0,313638.2999999523,7207,ATS,B,12
1,test,1,C,haborder.png,1,z,Tue Sep 02 2025 09:57:28 GMT-0500 (Central Daylight Time),371252.09999990463,CFD-WM-009-009-A.jpg,1400,solid,O,z,1340,7,1,2765.0999999046326,368487.0,7207,ATS,B,1
2,test,1,C,mfborder.png,1,m,Tue Sep 02 2025 09:57:28 GMT-0500 (Central Daylight Time),373701.0,CFD-BM-020-024-HC.jpg,1200,dash,O,m,1223,6,1,5214.0,368487.0,7207,ATS,B,2
3,test,1,C,mfborder.png,1,z,Tue Sep 02 2025 09:57:28 GMT-0500 (Central Daylight Time),376068.39999985695,CFD-WF-026-008-A.jpg,1500,dash,O,z,835,3,1,7581.399999856949,368487.0,7207,ATS,B,3
4,test,1,C,haborder.png,1,m,Tue Sep 02 2025 09:57:28 GMT-0500 (Central Daylight Time),378433.0,CFD-WF-011-006-HC.jpg,1000,solid,O,m,1335,12,1,9946.0,368487.0,7207,ATS,B,4
5,test,1,C,haborder.png,1,z,Tue Sep 02 2025 09:57:28 GMT-0500 (Central Daylight Time),380666.89999985695,CFD-WM-009-009-A.jpg,1400,solid,O,z,811,7,1,12179.899999856949,368487.0,7207,ATS,B,5
6,test,1,C,mfborder.png,1,z,Tue Sep 02 2025 09:57:28 GMT-0500 (Central Daylight Time),383266.09999990463,CFD-BF-051-043-A.jpg,1600,dash,O,z,980,2,1,14779.099999904633,368487.0,7207,ATS,B,6
7,test,1,C,haborder.png,1,m,Tue Sep 02 2025 09:57:28 GMT-0500 (Central Daylight Time),385416.69999980927,CFD-WF-011-006-HC.jpg,1000,solid,O,m,1134,12,1,16929.699999809265,368487.0,7207,ATS,B,7
7,test,1,C,mfborder.png,0,m,Tue Sep 02 2025 09:57:28 GMT-0500 (Central Daylight Time),388862.89999985695,CFD-WM-037-060-A.jpg,2000,dash,O,z,1424,5,1,20375.89999985695,368487.0,7207,ATS,B,8
7,test,1,C,mfborder.png,0,m,Tue Sep 02 2025 09:57:28 GMT-0500 (Central Daylight Time),392395.2999999523,CFD-WM-037-060-A.jpg,2000,dash,O,None,1514,5,1,23908.299999952316,368487.0,7207,ATS,B,9
7,test,1,C,mfborder.png,0,z,Tue Sep 02 2025 09:57:28 GMT-0500 (Central Daylight Time),395428.59999990463,CFD-WF-026-008-A.jpg,1500,dash,O,None,1515,3,1,26941.599999904633,368487.0,7207,ATS,B,10
8,test,1,C,haborder.png,1,z,Tue Sep 02 2025 09:57:28 GMT-0500 (Central Daylight Time),398344.89999985695,CFD-BM-037-041-A.jpg,1900,solid,O,z,990,8,1,29857.89999985695,368487.0,7207,ATS,B,11
9,test,1,C,haborder.png,1,z,Tue Sep 02 2025 09:57:28 GMT-0500 (Central Daylight Time),401059.09999990463,CFD-BM-041-048-A.jpg,1700,solid,O,z,992,9,1,32572.099999904633,368487.0,7207,ATS,B,12
9,test,1,C,haborder.png,0,m,Tue Sep 02 2025 09:57:28 GMT-0500 (Central Daylight Time),404191.69999980927,CFD-BF-035-007-HC.jpg,1600,solid,O,None,1515,10,1,35704.699999809265,368487.0,7207,ATS,B,13
9,test,1,C,mfborder.png,0,m,Tue Sep 02 2025 09:57:28 GMT-0500 (Central Daylight Time),406724.7999999523,CFD-WM-012-007-HC.jpg,1000,dash,O,None,1517,4,1,38237.799999952316,368487.0,7207,ATS,B,14
10,test,1,C,mfborder.png,1,z,Tue Sep 02 2025 09:57:28 GMT-0500 (Central Daylight Time),409372.39999985695,CFD-BF-027-013-HC.jpg,1700,dash,O,z,916,1,1,40885.39999985695,368487.0,7207,ATS,B,15
11,test,1,C,mfborder.png,1,m,Tue Sep 02 2025 09:57:28 GMT-0500 (Central Daylight Time),411639.19999980927,CFD-BM-020-024-HC.jpg,1200,dash,O,m,1038,6,1,43152.199999809265,368487.0,7207,ATS,B,16
12,test,1,C,mfborder.png,1,z,Tue Sep 02 2025 09:57:28 GMT-0500 (Central Daylight Time),414056.09999990463,CFD-BF-051-043-A.jpg,1600,dash,O,z,784,2,1,45569.09999990463,368487.0,7207,ATS,B,17
13,test,1,C,haborder.png,1,z,Tue Sep 02 2025 09:57:28 GMT-0500 (Central Daylight Time),416871.2999999523,CFD-BM-041-048-A.jpg,1700,solid,O,z,1101,9,1,48384.299999952316,368487.0,7207,ATS,B,18
13,test,1,C,haborder.png,0,z,Tue Sep 02 2025 09:57:28 GMT-0500 (Central Daylight Time),420303.5,CFD-BM-037-041-A.jpg,1900,solid,O,None,1515,8,1,51816.5,368487.0,7207,ATS,B,19
13,test,1,C,mfborder.png,0,m,Tue Sep 02 2025 09:57:28 GMT-0500 (Central Daylight Time),422836.39999985695,CFD-WM-012-007-HC.jpg,1000,dash,O,None,1517,4,1,54349.39999985695,368487.0,7207,ATS,B,20
13,test,1,C,haborder.png,0,m,Tue Sep 02 2025 09:57:28 GMT-0500 (Central Daylight Time),425867.39999985695,CFD-WF-027-007-HC.jpg,1500,solid,O,None,1516,11,1,57380.39999985695,368487.0,7207,ATS,B,21
14,test,1,C,haborder.png,1,m,Tue Sep 02 2025 09:57:28 GMT-0500 (Central Daylight Time),428166.69999980927,CFD-WF-027-007-HC.jpg,1500,solid,O,m,767,11,1,59679.699999809265,368487.0,7207,ATS,B,22
15,test,1,C,haborder.png,1,m,Tue Sep 02 2025 09:57:28 GMT-0500 (Central Daylight Time),430999.0,CFD-BF-035-007-HC.jpg,1600,solid,O,m,1214,10,1,62512.0,368487.0,7207,ATS,B,23
16,test,1,C,mfborder.png,1,z,Tue Sep 02 2025 09:57:28 GMT-0500 (Central Daylight Time),433865.5,CFD-BF-027-013-HC.jpg,1700,dash,O,z,1146,1,1,65378.5,368487.0,7207,ATS,B,24
1,test,2,C,haborder.png,1,m,Tue Sep 02 2025 09:57:28 GMT-0500 (Central Daylight Time),442928.69999980927,CFD-BM-020-024-HC.jpg,1600,solid,O,m,1021,10,1,2648.899999856949,440279.7999999523,7207,ATS,B,1
1,test,2,C,mfborder.png,0,m,Tue Sep 02 2025 09:57:28 GMT-0500 (Central Daylight Time),445662.0,CFD-WM-009-009-A.jpg,1200,dash,O,None,1516,6,1,5382.200000047684,440279.7999999523,7207,ATS,B,2
2,test,2,C,mfborder.png,1,m,Tue Sep 02 2025 09:57:28 GMT-0500 (Central Daylight Time),448776.0,CFD-BM-037-041-A.jpg,2000,dash,O,m,1084,5,1,8496.200000047684,440279.7999999523,7207,ATS,B,3
3,test,2,C,mfborder.png,1,z,Tue Sep 02 2025 09:57:28 GMT-0500 (Central Daylight Time),451176.39999985695,CFD-BF-035-007-HC.jpg,1500,dash,O,z,881,3,1,10896.599999904633,440279.7999999523,7207,ATS,B,4
4,test,2,C,haborder.png,1,m,Tue Sep 02 2025 09:57:28 GMT-0500 (Central Daylight Time),453008.39999985695,CFD-WM-011-006-HC.jpg,1000,solid,O,m,804,12,1,12728.599999904633,440279.7999999523,7207,ATS,B,5
5,test,2,C,haborder.png,1,z,Tue Sep 02 2025 09:57:28 GMT-0500 (Central Daylight Time),455726.19999980927,CFD-BF-050-012-A.jpg,1900,solid,O,z,783,8,1,15446.399999856949,440279.7999999523,7207,ATS,B,6
6,test,2,C,mfborder.png,1,z,Tue Sep 02 2025 09:57:28 GMT-0500 (Central Daylight Time),458041.7999999523,CFD-WF-013-015-A.jpg,1600,dash,O,z,683,2,1,17762.0,440279.7999999523,7207,ATS,B,7
7,test,2,C,mfborder.png,1,m,Tue Sep 02 2025 09:57:28 GMT-0500 (Central Daylight Time),460090.69999980927,CFD-BM-015-017-HC.jpg,1000,dash,O,m,1019,4,1,19810.89999985695,440279.7999999523,7207,ATS,B,8
8,test,2,C,mfborder.png,1,z,Tue Sep 02 2025 09:57:28 GMT-0500 (Central Daylight Time),463189.2999999523,CFD-WF-011-006-HC.jpg,1700,dash,O,z,1367,1,1,22909.5,440279.7999999523,7207,ATS,B,9
8,test,2,C,haborder.png,0,z,Tue Sep 02 2025 09:57:28 GMT-0500 (Central Daylight Time),466423.19999980927,CFD-WF-026-008-A.jpg,1700,solid,O,None,1516,9,1,26143.39999985695,440279.7999999523,7207,ATS,B,10
8,test,2,C,mfborder.png,0,m,Tue Sep 02 2025 09:57:28 GMT-0500 (Central Daylight Time),468954.39999985695,CFD-BM-015-017-HC.jpg,1000,dash,O,None,1515,4,1,28674.599999904633,440279.7999999523,7207,ATS,B,11
9,test,2,C,haborder.png,1,m,Tue Sep 02 2025 09:57:28 GMT-0500 (Central Daylight Time),471586.39999985695,CFD-WM-011-006-HC.jpg,1500,solid,O,m,1101,11,1,31306.599999904633,440279.7999999523,7207,ATS,B,12
10,test,2,C,haborder.png,1,z,Tue Sep 02 2025 09:57:28 GMT-0500 (Central Daylight Time),474235.69999980927,CFD-BF-050-012-A.jpg,1900,solid,O,z,720,8,1,33955.89999985695,440279.7999999523,7207,ATS,B,13
11,test,2,C,mfborder.png,1,z,Tue Sep 02 2025 09:57:28 GMT-0500 (Central Daylight Time),476651.0,CFD-WF-013-015-A.jpg,1600,dash,O,z,792,2,1,36371.200000047684,440279.7999999523,7207,ATS,B,14
12,test,2,C,mfborder.png,1,m,Tue Sep 02 2025 09:57:28 GMT-0500 (Central Daylight Time),478984.5,CFD-WM-009-009-A.jpg,1200,dash,O,m,1103,6,1,38704.700000047684,440279.7999999523,7207,ATS,B,15
13,test,2,C,haborder.png,1,m,Tue Sep 02 2025 09:57:28 GMT-0500 (Central Daylight Time),481151.19999980927,CFD-WM-011-006-HC.jpg,1500,solid,O,m,633,11,1,40871.39999985695,440279.7999999523,7207,ATS,B,16
14,test,2,C,mfborder.png,1,z,Tue Sep 02 2025 09:57:28 GMT-0500 (Central Daylight Time),483914.2999999523,CFD-BF-035-007-HC.jpg,1500,dash,O,z,1231,3,1,43634.5,440279.7999999523,7207,ATS,B,17
15,test,2,C,haborder.png,1,z,Tue Sep 02 2025 09:57:28 GMT-0500 (Central Daylight Time),486547.89999985695,CFD-BF-051-043-A.jpg,1400,solid,O,z,1210,7,1,46268.09999990463,440279.7999999523,7207,ATS,B,18
16,test,2,C,haborder.png,1,m,Tue Sep 02 2025 09:57:28 GMT-0500 (Central Daylight Time),488431.0,CFD-WM-011-006-HC.jpg,1000,solid,O,m,866,12,1,48151.200000047684,440279.7999999523,7207,ATS,B,19
17,test,2,C,haborder.png,1,z,Tue Sep 02 2025 09:57:28 GMT-0500 (Central Daylight Time),491463.7999999523,CFD-WF-026-008-A.jpg,1700,solid,O,z,1307,9,1,51184.0,440279.7999999523,7207,ATS,B,20
18,test,2,C,mfborder.png,1,m,Tue Sep 02 2025 09:57:28 GMT-0500 (Central Daylight Time),494463.09999990463,CFD-BM-037-041-A.jpg,2000,dash,O,m,974,5,1,54183.299999952316,440279.7999999523,7207,ATS,B,21
19,test,2,C,haborder.png,1,m,Tue Sep 02 2025 09:57:28 GMT-0500 (Central Daylight Time),497044.5,CFD-BM-020-024-HC.jpg,1600,solid,O,m,956,10,1,56764.700000047684,440279.7999999523,7207,ATS,B,22
20,test,2,C,haborder.png,1,z,Tue Sep 02 2025 09:57:28 GMT-0500 (Central Daylight Time),499310.69999980927,CFD-BF-051-043-A.jpg,1400,solid,O,z,840,7,1,59030.89999985695,440279.7999999523,7207,ATS,B,23
21,test,2,C,mfborder.png,1,z,Tue Sep 02 2025 09:57:28 GMT-0500 (Central Daylight Time),502359.69999980927,CFD-WF-011-006-HC.jpg,1700,dash,O,z,1329,1,1,62079.89999985695,440279.7999999523,7207,ATS,B,24
1,test,3,C,mfborder.png,1,z,Tue Sep 02 2025 09:57:28 GMT-0500 (Central Daylight Time),511506.59999990463,CFD-WF-026-008-A.jpg,1500,dash,O,z,1227,3,1,2748.5999999046326,508758.0,7207,ATS,B,1
2,test,3,C,haborder.png,1,m,Tue Sep 02 2025 09:57:28 GMT-0500 (Central Daylight Time),514088.39999985695,CFD-WF-027-007-HC.jpg,1500,solid,O,m,1061,11,1,5330.399999856949,508758.0,7207,ATS,B,2
3,test,3,C,mfborder.png,1,m,Tue Sep 02 2025 09:57:28 GMT-0500 (Central Daylight Time),517487.0,CFD-WM-037-060-A.jpg,2000,dash,O,m,1380,5,1,8729.0,508758.0,7207,ATS,B,3
4,test,3,C,mfborder.png,1,m,Tue Sep 02 2025 09:57:28 GMT-0500 (Central Daylight Time),519853.69999980927,CFD-BM-020-024-HC.jpg,1200,dash,O,m,1150,6,1,11095.699999809265,508758.0,7207,ATS,B,4
5,test,3,C,mfborder.png,1,m,Tue Sep 02 2025 09:57:28 GMT-0500 (Central Daylight Time),521870.39999985695,CFD-BM-020-024-HC.jpg,1200,dash,O,m,790,6,1,13112.399999856949,508758.0,7207,ATS,B,5
6,test,3,C,mfborder.png,1,z,Tue Sep 02 2025 09:57:28 GMT-0500 (Central Daylight Time),524536.2999999523,CFD-BF-027-013-HC.jpg,1700,dash,O,z,939,1,1,15778.299999952316,508758.0,7207,ATS,B,6
7,test,3,C,mfborder.png,1,z,Tue Sep 02 2025 09:57:28 GMT-0500 (Central Daylight Time),526734.0999999046,CFD-BF-051-043-A.jpg,1600,dash,O,z,579,2,1,17976.099999904633,508758.0,7207,ATS,B,7
8,test,3,C,haborder.png,1,m,Tue Sep 02 2025 09:57:28 GMT-0500 (Central Daylight Time),529017.0999999046,CFD-WF-011-006-HC.jpg,1000,solid,O,m,1259,12,1,20259.099999904633,508758.0,7207,ATS,B,8
9,test,3,C,haborder.png,1,z,Tue Sep 02 2025 09:57:28 GMT-0500 (Central Daylight Time),531766.0999999046,CFD-BM-037-041-A.jpg,1900,solid,O,z,831,8,1,23008.099999904633,508758.0,7207,ATS,B,9
10,test,3,C,mfborder.png,1,z,Tue Sep 02 2025 09:57:28 GMT-0500 (Central Daylight Time),534282.7999999523,CFD-WF-026-008-A.jpg,1500,dash,O,z,984,3,1,25524.799999952316,508758.0,7207,ATS,B,10
11,test,3,C,haborder.png,1,z,Tue Sep 02 2025 09:57:28 GMT-0500 (Central Daylight Time),537165.2999999523,CFD-BM-037-041-A.jpg,1900,solid,O,z,958,8,1,28407.299999952316,508758.0,7207,ATS,B,11
12,test,3,C,haborder.png,1,m,Tue Sep 02 2025 09:57:28 GMT-0500 (Central Daylight Time),539398.0,CFD-WF-027-007-HC.jpg,1500,solid,O,m,708,11,1,30640.0,508758.0,7207,ATS,B,12
13,test,3,C,mfborder.png,1,m,Tue Sep 02 2025 09:57:28 GMT-0500 (Central Daylight Time),542646.5999999046,CFD-WM-037-060-A.jpg,2000,dash,O,m,1230,5,1,33888.59999990463,508758.0,7207,ATS,B,13
14,test,3,C,mfborder.png,1,z,Tue Sep 02 2025 09:57:28 GMT-0500 (Central Daylight Time),545278.899999857,CFD-BF-027-013-HC.jpg,1700,dash,O,z,914,1,1,36520.89999985695,508758.0,7207,ATS,B,14
15,test,3,C,mfborder.png,1,m,Tue Sep 02 2025 09:57:28 GMT-0500 (Central Daylight Time),547095.0999999046,CFD-WM-012-007-HC.jpg,1000,dash,O,m,788,4,1,38337.09999990463,508758.0,7207,ATS,B,15
15,test,3,C,haborder.png,0,m,Tue Sep 02 2025 09:57:28 GMT-0500 (Central Daylight Time),550228.899999857,CFD-BF-035-007-HC.jpg,1600,solid,O,None,1517,10,1,41470.89999985695,508758.0,7207,ATS,B,16
16,test,3,C,haborder.png,1,z,Tue Sep 02 2025 09:57:28 GMT-0500 (Central Daylight Time),552476.6999998093,CFD-WM-009-009-A.jpg,1400,solid,O,z,817,7,1,43718.699999809265,508758.0,7207,ATS,B,17
17,test,3,C,haborder.png,1,m,Tue Sep 02 2025 09:57:28 GMT-0500 (Central Daylight Time),554992.5,CFD-BF-035-007-HC.jpg,1600,solid,O,m,888,10,1,46234.5,508758.0,7207,ATS,B,18
18,test,3,C,haborder.png,1,z,Tue Sep 02 2025 09:57:28 GMT-0500 (Central Daylight Time),557191.899999857,CFD-WM-009-009-A.jpg,1400,solid,O,z,772,7,1,48433.89999985695,508758.0,7207,ATS,B,19
19,test,3,C,mfborder.png,1,m,Tue Sep 02 2025 09:57:28 GMT-0500 (Central Daylight Time),559608.0,CFD-WM-012-007-HC.jpg,1000,dash,O,m,1388,4,1,50850.0,508758.0,7207,ATS,B,20
20,test,3,C,mfborder.png,1,z,Tue Sep 02 2025 09:57:28 GMT-0500 (Central Daylight Time),561839.5999999046,CFD-BF-051-043-A.jpg,1600,dash,O,z,604,2,1,53081.59999990463,508758.0,7207,ATS,B,21
20,test,3,C,haborder.png,0,z,Tue Sep 02 2025 09:57:28 GMT-0500 (Central Daylight Time),565072.5,CFD-BM-041-048-A.jpg,1700,solid,O,None,1515,9,1,56314.5,508758.0,7207,ATS,B,22
21,test,3,C,haborder.png,1,z,Tue Sep 02 2025 09:57:28 GMT-0500 (Central Daylight Time),567588.2999999523,CFD-BM-041-048-A.jpg,1700,solid,O,z,783,9,1,58830.299999952316,508758.0,7207,ATS,B,23
22,test,3,C,haborder.png,1,m,Tue Sep 02 2025 09:57:28 GMT-0500 (Central Daylight Time),569387.899999857,CFD-WF-011-006-HC.jpg,1000,solid,O,m,767,12,1,60629.89999985695,508758.0,7207,ATS,B,24
1,test,4,C,mfborder.png,1,m,Tue Sep 02 2025 09:57:28 GMT-0500 (Central Daylight Time),574254.1999998093,CFD-BM-037-041-A.jpg,2000,dash,O,m,1349,5,1,3383.5,570870.6999998093,7207,ATS,B,1
2,test,4,C,haborder.png,1,m,Tue Sep 02 2025 09:57:28 GMT-0500 (Central Daylight Time),576603.0999999046,CFD-BM-020-024-HC.jpg,1600,solid,O,m,719,10,1,5732.400000095367,570870.6999998093,7207,ATS,B,2
3,test,4,C,haborder.png,1,m,Tue Sep 02 2025 09:57:28 GMT-0500 (Central Daylight Time),578535.5,CFD-WM-011-006-HC.jpg,1000,solid,O,m,913,12,1,7664.800000190735,570870.6999998093,7207,ATS,B,3
4,test,4,C,haborder.png,1,z,Tue Sep 02 2025 09:57:28 GMT-0500 (Central Daylight Time),580967.6999998093,CFD-WF-026-008-A.jpg,1700,solid,O,z,706,9,1,10097.0,570870.6999998093,7207,ATS,B,4
5,test,4,C,haborder.png,1,z,Tue Sep 02 2025 09:57:28 GMT-0500 (Central Daylight Time),583733.6999998093,CFD-BF-050-012-A.jpg,1900,solid,O,z,833,8,1,12863.0,570870.6999998093,7207,ATS,B,5
6,test,4,C,haborder.png,1,m,Tue Sep 02 2025 09:57:28 GMT-0500 (Central Daylight Time),585933.0,CFD-BM-020-024-HC.jpg,1600,solid,O,m,573,10,1,15062.300000190735,570870.6999998093,7207,ATS,B,6
7,test,4,C,haborder.png,1,m,Tue Sep 02 2025 09:57:28 GMT-0500 (Central Daylight Time),587999.0999999046,CFD-WM-011-006-HC.jpg,1500,solid,O,m,539,11,1,17128.400000095367,570870.6999998093,7207,ATS,B,7
8,test,4,C,mfborder.png,1,z,Tue Sep 02 2025 09:57:28 GMT-0500 (Central Daylight Time),590514.399999857,CFD-WF-013-015-A.jpg,1600,dash,O,z,891,2,1,19643.700000047684,570870.6999998093,7207,ATS,B,8
9,test,4,C,mfborder.png,1,z,Tue Sep 02 2025 09:57:28 GMT-0500 (Central Daylight Time),592879.7999999523,CFD-WF-011-006-HC.jpg,1700,dash,O,z,645,1,1,22009.10000014305,570870.6999998093,7207,ATS,B,9
10,test,4,C,mfborder.png,1,m,Tue Sep 02 2025 09:57:28 GMT-0500 (Central Daylight Time),594747.5,CFD-WM-009-009-A.jpg,1200,dash,O,m,635,6,1,23876.800000190735,570870.6999998093,7207,ATS,B,10
11,test,4,C,mfborder.png,1,z,Tue Sep 02 2025 09:57:28 GMT-0500 (Central Daylight Time),596996.1999998093,CFD-WF-013-015-A.jpg,1600,dash,O,z,617,2,1,26125.5,570870.6999998093,7207,ATS,B,11
12,test,4,C,mfborder.png,1,m,Tue Sep 02 2025 09:57:28 GMT-0500 (Central Daylight Time),600062.399999857,CFD-BM-037-041-A.jpg,2000,dash,O,m,1040,5,1,29191.700000047684,570870.6999998093,7207,ATS,B,12
13,test,4,C,haborder.png,1,z,Tue Sep 02 2025 09:57:28 GMT-0500 (Central Daylight Time),602644.1999998093,CFD-BF-050-012-A.jpg,1900,solid,O,z,659,8,1,31773.5,570870.6999998093,7207,ATS,B,13
14,test,4,C,haborder.png,1,z,Tue Sep 02 2025 09:57:28 GMT-0500 (Central Daylight Time),604794.6999998093,CFD-BF-051-043-A.jpg,1400,solid,O,z,728,7,1,33924.0,570870.6999998093,7207,ATS,B,14
15,test,4,C,mfborder.png,1,m,Tue Sep 02 2025 09:57:28 GMT-0500 (Central Daylight Time),606977.2999999523,CFD-BM-015-017-HC.jpg,1000,dash,O,m,1162,4,1,36106.60000014305,570870.6999998093,7207,ATS,B,15
16,test,4,C,mfborder.png,1,m,Tue Sep 02 2025 09:57:28 GMT-0500 (Central Daylight Time),608908.1999998093,CFD-WM-009-009-A.jpg,1200,dash,O,m,708,6,1,38037.5,570870.6999998093,7207,ATS,B,16
17,test,4,C,haborder.png,1,m,Tue Sep 02 2025 09:57:28 GMT-0500 (Central Daylight Time),610924.899999857,CFD-WM-011-006-HC.jpg,1000,solid,O,m,990,12,1,40054.200000047684,570870.6999998093,7207,ATS,B,17
18,test,4,C,mfborder.png,1,z,Tue Sep 02 2025 09:57:28 GMT-0500 (Central Daylight Time),613592.0999999046,CFD-BF-035-007-HC.jpg,1500,dash,O,z,1138,3,1,42721.40000009537,570870.6999998093,7207,ATS,B,18
19,test,4,C,mfborder.png,1,z,Tue Sep 02 2025 09:57:28 GMT-0500 (Central Daylight Time),615839.899999857,CFD-BF-035-007-HC.jpg,1500,dash,O,z,720,3,1,44969.200000047684,570870.6999998093,7207,ATS,B,19
20,test,4,C,mfborder.png,1,z,Tue Sep 02 2025 09:57:28 GMT-0500 (Central Daylight Time),618388.6999998093,CFD-WF-011-006-HC.jpg,1700,dash,O,z,825,1,1,47518.0,570870.6999998093,7207,ATS,B,20
21,test,4,C,haborder.png,1,z,Tue Sep 02 2025 09:57:28 GMT-0500 (Central Daylight Time),620855.1999998093,CFD-BF-051-043-A.jpg,1400,solid,O,z,1039,7,1,49984.5,570870.6999998093,7207,ATS,B,21
22,test,4,C,mfborder.png,1,m,Tue Sep 02 2025 09:57:28 GMT-0500 (Central Daylight Time),622921.1999998093,CFD-BM-015-017-HC.jpg,1000,dash,O,m,1045,4,1,52050.5,570870.6999998093,7207,ATS,B,22
23,test,4,C,haborder.png,1,z,Tue Sep 02 2025 09:57:28 GMT-0500 (Central Daylight Time),625887.0,CFD-WF-026-008-A.jpg,1700,solid,O,z,1250,9,1,55016.300000190735,570870.6999998093,7207,ATS,B,23
24,test,4,C,haborder.png,1,m,Tue Sep 02 2025 09:57:28 GMT-0500 (Central Daylight Time),628019.0999999046,CFD-WM-011-006-HC.jpg,1500,solid,O,m,600,11,1,57148.40000009537,570870.6999998093,7207,ATS,B,24
