block_c,block_dur,condition,countdown,datetime,endtime,list,multichar_response,project,response,response_time,session_number,start_end,starttime,subject_id,task,task_vers,trial
,,,,Thu Apr 30 2026 16:47:55 GMT-0500 (Central Daylight Time),,,,I,space,1441,2,,,8081,WL,B,
prac,,0,,Thu Apr 30 2026 16:47:55 GMT-0500 (Central Daylight Time),,NA,b,I,b,4381,2,,,8081,WL,B,1.0
prac,,0,,Thu Apr 30 2026 16:47:55 GMT-0500 (Central Daylight Time),,NA,bo,I,o,467,2,,,8081,WL,B,1.0
prac,,0,,Thu Apr 30 2026 16:47:55 GMT-0500 (Central Daylight Time),,NA,boo,I,o,127,2,,,8081,WL,B,1.0
prac,,0,,Thu Apr 30 2026 16:47:55 GMT-0500 (Central Daylight Time),,NA,boos,I,s,99,2,,,8081,WL,B,1.0
prac,,0,,Thu Apr 30 2026 16:47:55 GMT-0500 (Central Daylight Time),,NA,boost,I,t,79,2,,,8081,WL,B,1.0
prac,,0,,Thu Apr 30 2026 16:47:55 GMT-0500 (Central Daylight Time),,NA,boostenter,I,enter,1538,2,,,8081,WL,B,1.0
1,0.8999998569488525,learn,59100.00014305115,Thu Apr 30 2026 16:47:55 GMT-0500 (Central Daylight Time),347540.2999999821,A,c,I,c,892,2,899.5,346640.7999999821,8081,WL,B,1.0
1,1.000999927520752,learn,58999.00007247925,Thu Apr 30 2026 16:47:55 GMT-0500 (Central Daylight Time),347640.5,A,cl,I,l,86,2,999.7000000178814,346640.7999999821,8081,WL,B,1.0
1,1.182999849319458,learn,58817.00015068054,Thu Apr 30 2026 16:47:55 GMT-0500 (Central Daylight Time),347823.2999999821,A,clo,I,o,162,2,1182.5,346640.7999999821,8081,WL,B,1.0
1,1.2999999523162842,learn,58700.000047683716,Thu Apr 30 2026 16:47:55 GMT-0500 (Central Daylight Time),347940.1999999881,A,cloc,I,c,107,2,1299.4000000059605,346640.7999999821,8081,WL,B,1.0
1,1.4169998168945312,learn,58583.00018310547,Thu Apr 30 2026 16:47:55 GMT-0500 (Central Daylight Time),348057.09999999404,A,clock,I,k,95,2,1416.300000011921,346640.7999999821,8081,WL,B,1.0
1,2.0169999599456787,learn,57983.00004005432,Thu Apr 30 2026 16:47:55 GMT-0500 (Central Daylight Time),348656.59999999404,A,clockenter,I,enter,587,2,2015.800000011921,346640.7999999821,8081,WL,B,1.0
1,2.9659998416900635,learn,57034.00015830994,Thu Apr 30 2026 16:47:55 GMT-0500 (Central Daylight Time),349606.2999999821,A,w,I,w,939,2,949.0999999940395,348657.1999999881,8081,WL,B,2.0
1,3.065999984741211,learn,56934.00001525879,Thu Apr 30 2026 16:47:55 GMT-0500 (Central Daylight Time),349706.2999999821,A,wi,I,i,92,2,1049.0999999940395,348657.1999999881,8081,WL,B,2.0
1,3.1669998168945312,learn,56833.00018310547,Thu Apr 30 2026 16:47:55 GMT-0500 (Central Daylight Time),349807.2999999821,A,wif,I,f,80,2,1150.0999999940395,348657.1999999881,8081,WL,B,2.0
1,3.2829999923706055,learn,56717.000007629395,Thu Apr 30 2026 16:47:55 GMT-0500 (Central Daylight Time),349922.7999999821,A,wife,I,e,100,2,1265.5999999940395,348657.1999999881,8081,WL,B,2.0
1,3.6489999294281006,learn,56351.0000705719,Thu Apr 30 2026 16:47:55 GMT-0500 (Central Daylight Time),350289.1999999881,A,wifeenter,I,enter,361,2,1632.0,348657.1999999881,8081,WL,B,2.0
1,4.23199987411499,learn,55768.00012588501,Thu Apr 30 2026 16:47:55 GMT-0500 (Central Daylight Time),350872.2999999821,A,c,I,c,562,2,582.6999999880791,350289.59999999404,8081,WL,B,3.0
1,4.33299994468689,learn,55667.00005531311,Thu Apr 30 2026 16:47:55 GMT-0500 (Central Daylight Time),350972.40000000596,A,ca,I,a,82,2,682.8000000119209,350289.59999999404,8081,WL,B,3.0
1,4.4670000076293945,learn,55532.999992370605,Thu Apr 30 2026 16:47:55 GMT-0500 (Central Daylight Time),351106.7999999821,A,cab,I,b,126,2,817.1999999880791,350289.59999999404,8081,WL,B,3.0
1,4.615999937057495,learn,55384.000062942505,Thu Apr 30 2026 16:47:55 GMT-0500 (Central Daylight Time),351255.7999999821,A,cabi,I,i,128,2,966.1999999880791,350289.59999999404,8081,WL,B,3.0
1,4.765999794006348,learn,55234.00020599365,Thu Apr 30 2026 16:47:55 GMT-0500 (Central Daylight Time),351406.09999999404,A,cabin,I,n,139,2,1116.5,350289.59999999404,8081,WL,B,3.0
1,5.165999889373779,learn,54834.00011062622,Thu Apr 30 2026 16:47:55 GMT-0500 (Central Daylight Time),351805.6999999881,A,cabinenter,I,enter,382,2,1516.0999999940395,350289.59999999404,8081,WL,B,3.0
1,5.4649999141693115,learn,54535.00008583069,Thu Apr 30 2026 16:47:55 GMT-0500 (Central Daylight Time),352105.2999999821,A,s,I,s,293,2,299.19999998807907,351806.09999999404,8081,WL,B,4.0
1,5.582000017166138,learn,54417.99998283386,Thu Apr 30 2026 16:47:55 GMT-0500 (Central Daylight Time),352222.1999999881,A,st,I,t,107,2,416.09999999403954,351806.09999999404,8081,WL,B,4.0
1,5.81499981880188,learn,54185.00018119812,Thu Apr 30 2026 16:47:55 GMT-0500 (Central Daylight Time),352455.2999999821,A,str,I,r,222,2,649.1999999880791,351806.09999999404,8081,WL,B,4.0
1,6.181999921798706,learn,53818.000078201294,Thu Apr 30 2026 16:47:55 GMT-0500 (Central Daylight Time),352821.59999999404,A,stre,I,e,356,2,1015.5,351806.09999999404,8081,WL,B,4.0
1,6.365000009536743,learn,53634.99999046326,Thu Apr 30 2026 16:47:55 GMT-0500 (Central Daylight Time),353005.1999999881,A,stree,I,e,166,2,1199.0999999940395,351806.09999999404,8081,WL,B,4.0
1,6.48199987411499,learn,53518.00012588501,Thu Apr 30 2026 16:47:55 GMT-0500 (Central Daylight Time),353121.90000000596,A,street,I,t,110,2,1315.800000011921,351806.09999999404,8081,WL,B,4.0
1,6.764999866485596,learn,53235.000133514404,Thu Apr 30 2026 16:47:55 GMT-0500 (Central Daylight Time),353405.1999999881,A,streetenter,I,enter,266,2,1599.0999999940395,351806.09999999404,8081,WL,B,4.0
1,8.180999994277954,learn,51819.000005722046,Thu Apr 30 2026 16:47:55 GMT-0500 (Central Daylight Time),354821.0,A,a,I,a,1407,2,1415.4000000059605,353405.59999999404,8081,WL,B,5.0
1,8.31499981880188,learn,51685.00018119812,Thu Apr 30 2026 16:47:55 GMT-0500 (Central Daylight Time),354954.5,A,ar,I,r,118,2,1548.9000000059605,353405.59999999404,8081,WL,B,5.0
1,8.497999906539917,learn,51502.00009346008,Thu Apr 30 2026 16:47:55 GMT-0500 (Central Daylight Time),355137.7999999821,A,arm,I,m,176,2,1732.199999988079,353405.59999999404,8081,WL,B,5.0
1,9.230999946594238,learn,50769.00005340576,Thu Apr 30 2026 16:47:55 GMT-0500 (Central Daylight Time),355871.0,A,armenter,I,enter,713,2,2465.4000000059605,353405.59999999404,8081,WL,B,5.0
1,10.015999794006348,learn,49984.00020599365,Thu Apr 30 2026 16:47:55 GMT-0500 (Central Daylight Time),356655.40000000596,A,d,I,d,765,2,784.0,355871.40000000596,8081,WL,B,6.0
1,10.180999994277954,learn,49819.000005722046,Thu Apr 30 2026 16:47:55 GMT-0500 (Central Daylight Time),356820.59999999404,A,do,I,o,155,2,949.1999999880791,355871.40000000596,8081,WL,B,6.0
1,10.346999883651733,learn,49653.00011634827,Thu Apr 30 2026 16:47:55 GMT-0500 (Central Daylight Time),356987.09999999404,A,doo,I,o,151,2,1115.699999988079,355871.40000000596,8081,WL,B,6.0
1,10.413999795913696,learn,49586.000204086304,Thu Apr 30 2026 16:47:55 GMT-0500 (Central Daylight Time),357054.0,A,door,I,r,56,2,1182.5999999940395,355871.40000000596,8081,WL,B,6.0
1,10.930999994277954,learn,49069.000005722046,Thu Apr 30 2026 16:47:55 GMT-0500 (Central Daylight Time),357570.5,A,doorenter,I,enter,510,2,1699.0999999940395,355871.40000000596,8081,WL,B,6.0
1,16.394999980926514,learn,43605.000019073486,Thu Apr 30 2026 16:47:55 GMT-0500 (Central Daylight Time),363035.2999999821,A,s,I,s,5457,2,5464.5,357570.7999999821,8081,WL,B,7.0
1,16.560999870300293,learn,43439.00012969971,Thu Apr 30 2026 16:47:55 GMT-0500 (Central Daylight Time),363202.09999999404,A,st,I,t,151,2,5631.300000011921,357570.7999999821,8081,WL,B,7.0
1,16.694999933242798,learn,43305.0000667572,Thu Apr 30 2026 16:47:55 GMT-0500 (Central Daylight Time),363335.40000000596,A,sta,I,a,114,2,5764.600000023842,357570.7999999821,8081,WL,B,7.0
1,16.82799983024597,learn,43172.00016975403,Thu Apr 30 2026 16:47:55 GMT-0500 (Central Daylight Time),363468.5,A,star,I,r,117,2,5897.700000017881,357570.7999999821,8081,WL,B,7.0
1,17.310999870300293,learn,42689.00012969971,Thu Apr 30 2026 16:47:55 GMT-0500 (Central Daylight Time),363951.7999999821,A,starenter,I,enter,471,2,6381.0,357570.7999999821,8081,WL,B,7.0
1,26.20799994468689,learn,33792.00005531311,Thu Apr 30 2026 16:47:55 GMT-0500 (Central Daylight Time),372848.7999999821,A,c,I,c,8892,2,8896.59999999404,363952.1999999881,8081,WL,B,8.0
1,26.375,learn,33625.0,Thu Apr 30 2026 16:47:55 GMT-0500 (Central Daylight Time),373015.6999999881,A,ci,I,i,146,2,9063.5,363952.1999999881,8081,WL,B,8.0
1,26.54199981689453,learn,33458.00018310547,Thu Apr 30 2026 16:47:55 GMT-0500 (Central Daylight Time),373182.59999999404,A,cit,I,t,149,2,9230.40000000596,363952.1999999881,8081,WL,B,8.0
1,26.640999794006348,learn,33359.00020599365,Thu Apr 30 2026 16:47:55 GMT-0500 (Central Daylight Time),373282.09999999404,A,city,I,y,93,2,9329.90000000596,363952.1999999881,8081,WL,B,8.0
1,27.04199981689453,learn,32958.00018310547,Thu Apr 30 2026 16:47:55 GMT-0500 (Central Daylight Time),373683.09999999404,A,cityenter,I,enter,394,2,9730.90000000596,363952.1999999881,8081,WL,B,8.0
1,29.60699987411499,learn,30393.00012588501,Thu Apr 30 2026 16:47:55 GMT-0500 (Central Daylight Time),376248.0,A,p,I,p,2552,2,2564.4000000059605,373683.59999999404,8081,WL,B,9.0
1,29.789999961853027,learn,30210.000038146973,Thu Apr 30 2026 16:47:55 GMT-0500 (Central Daylight Time),376431.1999999881,A,pi,I,i,171,2,2747.5999999940395,373683.59999999404,8081,WL,B,9.0
1,30.039999961853027,learn,29960.000038146973,Thu Apr 30 2026 16:47:55 GMT-0500 (Central Daylight Time),376681.09999999404,A,pip,I,p,229,2,2997.5,373683.59999999404,8081,WL,B,9.0
1,30.43999981880188,learn,29560.00018119812,Thu Apr 30 2026 16:47:55 GMT-0500 (Central Daylight Time),377080.6999999881,A,pipe,I,e,394,2,3397.0999999940395,373683.59999999404,8081,WL,B,9.0
1,30.639999866485596,learn,29360.000133514404,Thu Apr 30 2026 16:47:55 GMT-0500 (Central Daylight Time),377280.7999999821,A,pipeenter,I,enter,195,2,3597.199999988079,373683.59999999404,8081,WL,B,9.0
1,37.687999963760376,learn,22312.000036239624,Thu Apr 30 2026 16:47:55 GMT-0500 (Central Daylight Time),384328.6999999881,A,l,I,l,7036,2,7047.5999999940395,377281.09999999404,8081,WL,B,10.0
1,37.770999908447266,learn,22229.000091552734,Thu Apr 30 2026 16:47:55 GMT-0500 (Central Daylight Time),384411.90000000596,A,la,I,a,74,2,7130.800000011921,377281.09999999404,8081,WL,B,10.0
1,37.85499978065491,learn,22145.000219345093,Thu Apr 30 2026 16:47:55 GMT-0500 (Central Daylight Time),384496.1999999881,A,lak,I,k,80,2,7215.0999999940395,377281.09999999404,8081,WL,B,10.0
1,37.9539999961853,learn,22046.000003814697,Thu Apr 30 2026 16:47:55 GMT-0500 (Central Daylight Time),384595.1999999881,A,lake,I,e,84,2,7314.0999999940395,377281.09999999404,8081,WL,B,10.0
1,38.187999963760376,learn,21812.000036239624,Thu Apr 30 2026 16:47:55 GMT-0500 (Central Daylight Time),384828.59999999404,A,lakeenter,I,enter,217,2,7547.5,377281.09999999404,8081,WL,B,10.0
1,50.650999784469604,learn,9349.000215530396,Thu Apr 30 2026 16:47:55 GMT-0500 (Central Daylight Time),397291.2999999821,A,enter,I,enter,12455,2,12462.299999982119,384829.0,8081,WL,B,11.0
1,60.013999938964844,learn,-13.99993896484375,Thu Apr 30 2026 16:47:55 GMT-0500 (Central Daylight Time),406655.1999999881,A,None,I,None,9359,2,9363.5,397291.6999999881,8081,WL,B,12.0
2,0.6989998817443848,learn,59301.000118255615,Thu Apr 30 2026 16:47:55 GMT-0500 (Central Daylight Time),484697.0,A,c,I,c,695,2,699.3000000119209,483997.6999999881,8081,WL,B,1.0
2,0.8329999446868896,learn,59167.00005531311,Thu Apr 30 2026 16:47:55 GMT-0500 (Central Daylight Time),484830.7999999821,A,cl,I,l,116,2,833.0999999940395,483997.6999999881,8081,WL,B,1.0
2,1.0160000324249268,learn,58983.99996757507,Thu Apr 30 2026 16:47:55 GMT-0500 (Central Daylight Time),485013.6999999881,A,clo,I,o,173,2,1016.0,483997.6999999881,8081,WL,B,1.0
2,1.1329998970031738,learn,58867.000102996826,Thu Apr 30 2026 16:47:55 GMT-0500 (Central Daylight Time),485130.5,A,cloc,I,c,110,2,1132.800000011921,483997.6999999881,8081,WL,B,1.0
2,1.2159998416900635,learn,58784.00015830994,Thu Apr 30 2026 16:47:55 GMT-0500 (Central Daylight Time),485213.6999999881,A,clock,I,k,73,2,1216.0,483997.6999999881,8081,WL,B,1.0
2,1.5320000648498535,learn,58467.99993515015,Thu Apr 30 2026 16:47:55 GMT-0500 (Central Daylight Time),485530.1999999881,A,clockenter,I,enter,303,2,1532.5,483997.6999999881,8081,WL,B,1.0
2,1.9489998817443848,learn,58051.000118255615,Thu Apr 30 2026 16:47:55 GMT-0500 (Central Daylight Time),485947.09999999404,A,f,I,f,400,2,416.59999999403954,485530.5,8081,WL,B,2.0
2,2.0490000247955322,learn,57950.99997520447,Thu Apr 30 2026 16:47:55 GMT-0500 (Central Daylight Time),486047.0,A,fi,I,i,89,2,516.5,485530.5,8081,WL,B,2.0
2,2.1659998893737793,learn,57834.00011062622,Thu Apr 30 2026 16:47:55 GMT-0500 (Central Daylight Time),486163.5,A,fir,I,r,101,2,633.0,485530.5,8081,WL,B,2.0
2,2.2660000324249268,learn,57733.99996757507,Thu Apr 30 2026 16:47:55 GMT-0500 (Central Daylight Time),486263.5,A,fire,I,e,80,2,733.0,485530.5,8081,WL,B,2.0
2,2.9149999618530273,learn,57085.00003814697,Thu Apr 30 2026 16:47:55 GMT-0500 (Central Daylight Time),486913.1999999881,A,fireenter,I,enter,628,2,1382.699999988079,485530.5,8081,WL,B,2.0
2,3.3320000171661377,learn,56667.99998283386,Thu Apr 30 2026 16:47:55 GMT-0500 (Central Daylight Time),487329.7999999821,A,s,I,s,402,2,416.19999998807907,486913.59999999404,8081,WL,B,3.0
2,3.498999834060669,learn,56501.00016593933,Thu Apr 30 2026 16:47:55 GMT-0500 (Central Daylight Time),487496.5,A,st,I,t,155,2,582.9000000059605,486913.59999999404,8081,WL,B,3.0
2,3.6989998817443848,learn,56301.000118255615,Thu Apr 30 2026 16:47:55 GMT-0500 (Central Daylight Time),487696.2999999821,A,str,I,r,187,2,782.6999999880791,486913.59999999404,8081,WL,B,3.0
2,3.9830000400543213,learn,56016.99995994568,Thu Apr 30 2026 16:47:55 GMT-0500 (Central Daylight Time),487980.7999999821,A,stre,I,e,266,2,1067.199999988079,486913.59999999404,8081,WL,B,3.0
2,4.180999994277954,learn,55819.000005722046,Thu Apr 30 2026 16:47:55 GMT-0500 (Central Daylight Time),488179.1999999881,A,stree,I,e,190,2,1265.5999999940395,486913.59999999404,8081,WL,B,3.0
2,4.332000017166138,learn,55667.99998283386,Thu Apr 30 2026 16:47:55 GMT-0500 (Central Daylight Time),488329.5,A,street,I,t,135,2,1415.9000000059605,486913.59999999404,8081,WL,B,3.0
2,4.681999921798706,learn,55318.000078201294,Thu Apr 30 2026 16:47:55 GMT-0500 (Central Daylight Time),488679.5,A,streetenter,I,enter,331,2,1765.9000000059605,486913.59999999404,8081,WL,B,3.0
2,5.181999921798706,learn,54818.000078201294,Thu Apr 30 2026 16:47:55 GMT-0500 (Central Daylight Time),489179.2999999821,A,s,I,s,485,2,499.2999999821186,488680.0,8081,WL,B,4.0
2,5.297999858856201,learn,54702.0001411438,Thu Apr 30 2026 16:47:55 GMT-0500 (Central Daylight Time),489295.59999999404,A,st,I,t,96,2,615.5999999940395,488680.0,8081,WL,B,4.0
2,5.447999954223633,learn,54552.00004577637,Thu Apr 30 2026 16:47:55 GMT-0500 (Central Daylight Time),489445.7999999821,A,sta,I,a,141,2,765.7999999821186,488680.0,8081,WL,B,4.0
2,5.514999866485596,learn,54485.000133514404,Thu Apr 30 2026 16:47:55 GMT-0500 (Central Daylight Time),489512.6999999881,A,star,I,r,62,2,832.6999999880791,488680.0,8081,WL,B,4.0
2,5.697999954223633,learn,54302.00004577637,Thu Apr 30 2026 16:47:55 GMT-0500 (Central Daylight Time),489695.6999999881,A,start,I,t,171,2,1015.6999999880791,488680.0,8081,WL,B,4.0
2,6.263999938964844,learn,53736.000061035156,Thu Apr 30 2026 16:47:55 GMT-0500 (Central Daylight Time),490262.0,A,star,I,backspace,549,2,1582.0,488680.0,8081,WL,B,4.0
2,6.613999843597412,learn,53386.00015640259,Thu Apr 30 2026 16:47:55 GMT-0500 (Central Daylight Time),490612.09999999404,A,starenter,I,enter,342,2,1932.0999999940395,488680.0,8081,WL,B,4.0
2,7.579999923706055,learn,52420.000076293945,Thu Apr 30 2026 16:47:55 GMT-0500 (Central Daylight Time),491578.2999999821,A,a,I,a,960,2,965.8999999761581,490612.40000000596,8081,WL,B,5.0
2,7.71399998664856,learn,52286.00001335144,Thu Apr 30 2026 16:47:55 GMT-0500 (Central Daylight Time),491711.59999999404,A,ar,I,r,121,2,1099.199999988079,490612.40000000596,8081,WL,B,5.0
2,7.88100004196167,learn,52118.99995803833,Thu Apr 30 2026 16:47:55 GMT-0500 (Central Daylight Time),491878.2999999821,A,arm,I,m,149,2,1265.8999999761581,490612.40000000596,8081,WL,B,5.0
2,8.230999946594238,learn,51769.00005340576,Thu Apr 30 2026 16:47:55 GMT-0500 (Central Daylight Time),492228.2999999821,A,armenter,I,enter,334,2,1615.8999999761581,490612.40000000596,8081,WL,B,5.0
2,8.54699993133545,learn,51453.00006866455,Thu Apr 30 2026 16:47:55 GMT-0500 (Central Daylight Time),492544.6999999881,A,d,I,d,295,2,316.09999999403954,492228.59999999404,8081,WL,B,6.0
2,8.813999891281128,learn,51186.00010871887,Thu Apr 30 2026 16:47:55 GMT-0500 (Central Daylight Time),492811.40000000596,A,do,I,o,252,2,582.8000000119209,492228.59999999404,8081,WL,B,6.0
2,9.348000049591064,learn,50651.999950408936,Thu Apr 30 2026 16:47:55 GMT-0500 (Central Daylight Time),493345.6999999881,A,doo,I,o,520,2,1117.0999999940395,492228.59999999404,8081,WL,B,6.0
2,9.496999979019165,learn,50503.000020980835,Thu Apr 30 2026 16:47:55 GMT-0500 (Central Daylight Time),493494.2999999821,A,door,I,r,139,2,1265.699999988079,492228.59999999404,8081,WL,B,6.0
2,9.69700002670288,learn,50302.99997329712,Thu Apr 30 2026 16:47:55 GMT-0500 (Central Daylight Time),493694.59999999404,A,doorenter,I,enter,182,2,1466.0,492228.59999999404,8081,WL,B,6.0
2,10.02999997138977,learn,49970.00002861023,Thu Apr 30 2026 16:47:55 GMT-0500 (Central Daylight Time),494027.6999999881,A,w,I,w,318,2,332.90000000596046,493694.7999999821,8081,WL,B,7.0
2,10.146999835968018,learn,49853.00016403198,Thu Apr 30 2026 16:47:55 GMT-0500 (Central Daylight Time),494144.1999999881,A,wi,I,i,96,2,449.40000000596046,493694.7999999821,8081,WL,B,7.0
2,10.246000051498413,learn,49753.99994850159,Thu Apr 30 2026 16:47:55 GMT-0500 (Central Daylight Time),494244.0,A,wif,I,f,92,2,549.2000000178814,493694.7999999821,8081,WL,B,7.0
2,10.346999883651733,learn,49653.00011634827,Thu Apr 30 2026 16:47:55 GMT-0500 (Central Daylight Time),494344.40000000596,A,wife,I,e,80,2,649.6000000238419,493694.7999999821,8081,WL,B,7.0
2,11.345999956130981,learn,48654.00004386902,Thu Apr 30 2026 16:47:55 GMT-0500 (Central Daylight Time),495343.90000000596,A,wifeenter,I,enter,979,2,1649.1000000238419,493694.7999999821,8081,WL,B,7.0
2,11.763000011444092,learn,48236.99998855591,Thu Apr 30 2026 16:47:55 GMT-0500 (Central Daylight Time),495760.5,A,p,I,p,396,2,416.2000000178814,495344.2999999821,8081,WL,B,8.0
2,11.94599986076355,learn,48054.00013923645,Thu Apr 30 2026 16:47:55 GMT-0500 (Central Daylight Time),495943.6999999881,A,pu,I,u,172,2,599.4000000059605,495344.2999999821,8081,WL,B,8.0
2,12.162999868392944,learn,47837.000131607056,Thu Apr 30 2026 16:47:55 GMT-0500 (Central Daylight Time),496160.2999999821,A,pup,I,p,196,2,816.0,495344.2999999821,8081,WL,B,8.0
2,12.578999996185303,learn,47421.0000038147,Thu Apr 30 2026 16:47:55 GMT-0500 (Central Daylight Time),496576.7999999821,A,pupi,I,i,404,2,1232.5,495344.2999999821,8081,WL,B,8.0
2,12.779000043869019,learn,47220.99995613098,Thu Apr 30 2026 16:47:55 GMT-0500 (Central Daylight Time),496776.59999999404,A,pupil,I,l,186,2,1432.300000011921,495344.2999999821,8081,WL,B,8.0
2,13.02999997138977,learn,46970.00002861023,Thu Apr 30 2026 16:47:55 GMT-0500 (Central Daylight Time),497027.7999999821,A,pupilenter,I,enter,236,2,1683.5,495344.2999999821,8081,WL,B,8.0
2,13.378999948501587,learn,46621.00005149841,Thu Apr 30 2026 16:47:55 GMT-0500 (Central Daylight Time),497376.40000000596,A,s,I,s,337,2,348.2000000178814,497028.1999999881,8081,WL,B,9.0
2,13.478999853134155,learn,46521.000146865845,Thu Apr 30 2026 16:47:55 GMT-0500 (Central Daylight Time),497476.40000000596,A,sk,I,k,91,2,448.2000000178814,497028.1999999881,8081,WL,B,9.0
2,13.628999948501587,learn,46371.00005149841,Thu Apr 30 2026 16:47:55 GMT-0500 (Central Daylight Time),497626.40000000596,A,ski,I,i,143,2,598.2000000178814,497028.1999999881,8081,WL,B,9.0
2,13.812000036239624,learn,46187.999963760376,Thu Apr 30 2026 16:47:55 GMT-0500 (Central Daylight Time),497809.6999999881,A,skin,I,n,177,2,781.5,497028.1999999881,8081,WL,B,9.0
2,14.394999980926514,learn,45605.000019073486,Thu Apr 30 2026 16:47:55 GMT-0500 (Central Daylight Time),498393.0,A,skinenter,I,enter,562,2,1364.800000011921,497028.1999999881,8081,WL,B,9.0
2,20.22699999809265,learn,39773.00000190735,Thu Apr 30 2026 16:47:55 GMT-0500 (Central Daylight Time),504224.59999999404,A,c,I,c,5819,2,5831.199999988079,498393.40000000596,8081,WL,B,10.0
2,20.32699990272522,learn,39673.00009727478,Thu Apr 30 2026 16:47:55 GMT-0500 (Central Daylight Time),504324.5,A,ca,I,a,91,2,5931.0999999940395,498393.40000000596,8081,WL,B,10.0
2,20.542999982833862,learn,39457.00001716614,Thu Apr 30 2026 16:47:55 GMT-0500 (Central Daylight Time),504541.0,A,cab,I,b,199,2,6147.5999999940395,498393.40000000596,8081,WL,B,10.0
2,20.710000038146973,learn,39289.99996185303,Thu Apr 30 2026 16:47:55 GMT-0500 (Central Daylight Time),504707.6999999881,A,cabi,I,i,159,2,6314.299999982119,498393.40000000596,8081,WL,B,10.0
2,20.89299988746643,learn,39107.00011253357,Thu Apr 30 2026 16:47:55 GMT-0500 (Central Daylight Time),504891.0,A,cabin,I,n,168,2,6497.5999999940395,498393.40000000596,8081,WL,B,10.0
2,21.14299988746643,learn,38857.00011253357,Thu Apr 30 2026 16:47:55 GMT-0500 (Central Daylight Time),505140.6999999881,A,cabinenter,I,enter,232,2,6747.299999982119,498393.40000000596,8081,WL,B,10.0
2,23.158999919891357,learn,36841.00008010864,Thu Apr 30 2026 16:47:55 GMT-0500 (Central Daylight Time),507156.59999999404,A,f,I,f,2007,2,2015.5,505141.09999999404,8081,WL,B,11.0
2,23.259000062942505,learn,36740.999937057495,Thu Apr 30 2026 16:47:55 GMT-0500 (Central Daylight Time),507257.0,A,fi,I,i,79,2,2115.9000000059605,505141.09999999404,8081,WL,B,11.0
2,23.375999927520752,learn,36624.00007247925,Thu Apr 30 2026 16:47:55 GMT-0500 (Central Daylight Time),507373.40000000596,A,fir,I,r,98,2,2232.300000011921,505141.09999999404,8081,WL,B,11.0
2,23.47499990463257,learn,36525.00009536743,Thu Apr 30 2026 16:47:55 GMT-0500 (Central Daylight Time),507473.09999999404,A,fire,I,e,94,2,2332.0,505141.09999999404,8081,WL,B,11.0
2,23.842000007629395,learn,36157.999992370605,Thu Apr 30 2026 16:47:55 GMT-0500 (Central Daylight Time),507839.59999999404,A,fireenter,I,enter,354,2,2698.5,505141.09999999404,8081,WL,B,11.0
2,28.891000032424927,learn,31108.999967575073,Thu Apr 30 2026 16:47:55 GMT-0500 (Central Daylight Time),512888.40000000596,A,s,I,s,5028,2,5048.5,507839.90000000596,8081,WL,B,12.0
2,29.090999841690063,learn,30909.000158309937,Thu Apr 30 2026 16:47:55 GMT-0500 (Central Daylight Time),513088.40000000596,A,st,I,t,178,2,5248.5,507839.90000000596,8081,WL,B,12.0
2,29.37399983406067,learn,30626.00016593933,Thu Apr 30 2026 16:47:55 GMT-0500 (Central Daylight Time),513371.90000000596,A,ste,I,e,268,2,5532.0,507839.90000000596,8081,WL,B,12.0
2,29.756999969482422,learn,30243.000030517578,Thu Apr 30 2026 16:47:55 GMT-0500 (Central Daylight Time),513754.7999999821,A,st,I,backspace,377,2,5914.899999976158,507839.90000000596,8081,WL,B,12.0
2,29.89199995994568,learn,30108.00004005432,Thu Apr 30 2026 16:47:55 GMT-0500 (Central Daylight Time),513889.2999999821,A,str,I,r,121,2,6049.399999976158,507839.90000000596,8081,WL,B,12.0
2,30.4229998588562,learn,29577.0001411438,Thu Apr 30 2026 16:47:55 GMT-0500 (Central Daylight Time),514421.1999999881,A,stre,I,e,523,2,6581.299999982119,507839.90000000596,8081,WL,B,12.0
2,30.85800004005432,learn,29141.99995994568,Thu Apr 30 2026 16:47:55 GMT-0500 (Central Daylight Time),514855.5,A,stree,I,e,414,2,7015.5999999940395,507839.90000000596,8081,WL,B,12.0
2,31.19000005722046,learn,28809.99994277954,Thu Apr 30 2026 16:47:55 GMT-0500 (Central Daylight Time),515187.59999999404,A,street,I,t,316,2,7347.699999988079,507839.90000000596,8081,WL,B,12.0
2,31.990000009536743,learn,28009.999990463257,Thu Apr 30 2026 16:47:55 GMT-0500 (Central Daylight Time),515987.5,A,streetenter,I,enter,791,2,8147.5999999940395,507839.90000000596,8081,WL,B,12.0
2,32.50600004196167,learn,27493.99995803833,Thu Apr 30 2026 16:47:55 GMT-0500 (Central Daylight Time),516503.7999999821,A,a,I,a,504,2,516.0,515987.7999999821,8081,WL,B,13.0
2,32.57299995422363,learn,27427.000045776367,Thu Apr 30 2026 16:47:55 GMT-0500 (Central Daylight Time),516570.2999999821,A,ar,I,r,60,2,582.5,515987.7999999821,8081,WL,B,13.0
2,32.74000000953674,learn,27259.999990463257,Thu Apr 30 2026 16:47:55 GMT-0500 (Central Daylight Time),516737.1999999881,A,arm,I,m,154,2,749.4000000059605,515987.7999999821,8081,WL,B,13.0
2,32.973000049591064,learn,27026.999950408936,Thu Apr 30 2026 16:47:55 GMT-0500 (Central Daylight Time),516970.5,A,armenter,I,enter,218,2,982.7000000178814,515987.7999999821,8081,WL,B,13.0
2,37.954999923706055,learn,22045.000076293945,Thu Apr 30 2026 16:47:55 GMT-0500 (Central Daylight Time),521952.40000000596,A,enter,I,enter,4961,2,4981.600000023842,516970.7999999821,8081,WL,B,14.0
2,38.769999980926514,learn,21230.000019073486,Thu Apr 30 2026 16:47:55 GMT-0500 (Central Daylight Time),522768.09999999404,A,enter,I,enter,795,2,815.4000000059605,521952.6999999881,8081,WL,B,15.0
3,1.3489999771118164,learn,58651.00002288818,Thu Apr 30 2026 16:47:55 GMT-0500 (Central Daylight Time),590297.400000006,A,s,I,s,1336,2,1349.2000000178814,588948.1999999881,8081,WL,B,1.0
3,1.5329999923706055,learn,58467.000007629395,Thu Apr 30 2026 16:47:55 GMT-0500 (Central Daylight Time),590480.7999999821,A,st,I,t,170,2,1532.5999999940395,588948.1999999881,8081,WL,B,1.0
3,1.7669999599456787,learn,58233.00004005432,Thu Apr 30 2026 16:47:55 GMT-0500 (Central Daylight Time),590715.0,A,str,I,r,227,2,1766.800000011921,588948.1999999881,8081,WL,B,1.0
3,1.8989999294281006,learn,58101.0000705719,Thu Apr 30 2026 16:47:55 GMT-0500 (Central Daylight Time),590847.099999994,A,stre,I,e,112,2,1898.9000000059605,588948.1999999881,8081,WL,B,1.0
3,2.048999786376953,learn,57951.00021362305,Thu Apr 30 2026 16:47:55 GMT-0500 (Central Daylight Time),590997.099999994,A,stree,I,e,141,2,2048.9000000059605,588948.1999999881,8081,WL,B,1.0
3,2.181999921798706,learn,57818.000078201294,Thu Apr 30 2026 16:47:55 GMT-0500 (Central Daylight Time),591130.400000006,A,street,I,t,127,2,2182.2000000178814,588948.1999999881,8081,WL,B,1.0
3,2.431999921798706,learn,57568.000078201294,Thu Apr 30 2026 16:47:55 GMT-0500 (Central Daylight Time),591380.5,A,streetenter,I,enter,242,2,2432.300000011921,588948.1999999881,8081,WL,B,1.0
3,3.7149999141693115,learn,56285.00008583069,Thu Apr 30 2026 16:47:55 GMT-0500 (Central Daylight Time),592663.5,A,f,I,f,1263,2,1282.5999999940395,591380.900000006,8081,WL,B,2.0
3,3.8479998111724854,learn,56152.000188827515,Thu Apr 30 2026 16:47:55 GMT-0500 (Central Daylight Time),592796.6999999881,A,fi,I,i,116,2,1415.7999999821186,591380.900000006,8081,WL,B,2.0
3,3.947999954223633,learn,56052.00004577637,Thu Apr 30 2026 16:47:55 GMT-0500 (Central Daylight Time),592896.599999994,A,fir,I,r,95,2,1515.699999988079,591380.900000006,8081,WL,B,2.0
3,4.06499981880188,learn,55935.00018119812,Thu Apr 30 2026 16:47:55 GMT-0500 (Central Daylight Time),593013.400000006,A,fire,I,e,100,2,1632.5,591380.900000006,8081,WL,B,2.0
3,4.414999961853027,learn,55585.00003814697,Thu Apr 30 2026 16:47:55 GMT-0500 (Central Daylight Time),593363.0,A,fireenter,I,enter,335,2,1982.0999999940395,591380.900000006,8081,WL,B,2.0
3,4.947999954223633,learn,55052.00004577637,Thu Apr 30 2026 16:47:55 GMT-0500 (Central Daylight Time),593896.7999999821,A,a,I,a,521,2,533.5,593363.2999999821,8081,WL,B,3.0
3,5.06499981880188,learn,54935.00018119812,Thu Apr 30 2026 16:47:55 GMT-0500 (Central Daylight Time),594012.7999999821,A,ar,I,r,108,2,649.5,593363.2999999821,8081,WL,B,3.0
3,5.230999946594238,learn,54769.00005340576,Thu Apr 30 2026 16:47:55 GMT-0500 (Central Daylight Time),594179.5,A,arm,I,m,151,2,816.2000000178814,593363.2999999821,8081,WL,B,3.0
3,5.4649999141693115,learn,54535.00008583069,Thu Apr 30 2026 16:47:55 GMT-0500 (Central Daylight Time),594412.7999999821,A,armenter,I,enter,224,2,1049.5,593363.2999999821,8081,WL,B,3.0
3,5.664999961853027,learn,54335.00003814697,Thu Apr 30 2026 16:47:55 GMT-0500 (Central Daylight Time),594612.7999999821,A,s,I,s,192,2,199.59999999403954,594413.1999999881,8081,WL,B,4.0
3,5.763999938964844,learn,54236.000061035156,Thu Apr 30 2026 16:47:55 GMT-0500 (Central Daylight Time),594712.6999999881,A,st,I,t,87,2,299.5,594413.1999999881,8081,WL,B,4.0
3,5.952999830245972,learn,54047.00016975403,Thu Apr 30 2026 16:47:55 GMT-0500 (Central Daylight Time),594900.900000006,A,sta,I,a,183,2,487.7000000178814,594413.1999999881,8081,WL,B,4.0
3,6.10099983215332,learn,53899.00016784668,Thu Apr 30 2026 16:47:55 GMT-0500 (Central Daylight Time),595048.6999999881,A,star,I,r,142,2,635.5,594413.1999999881,8081,WL,B,4.0
3,6.596999883651733,learn,53403.00011634827,Thu Apr 30 2026 16:47:55 GMT-0500 (Central Daylight Time),595545.599999994,A,starenter,I,enter,490,2,1132.4000000059605,594413.1999999881,8081,WL,B,4.0
3,6.946999788284302,learn,53053.0002117157,Thu Apr 30 2026 16:47:55 GMT-0500 (Central Daylight Time),595895.6999999881,A,w,I,w,339,2,349.90000000596046,595545.7999999821,8081,WL,B,5.0
3,7.0309998989105225,learn,52969.00010108948,Thu Apr 30 2026 16:47:55 GMT-0500 (Central Daylight Time),595979.0,A,wi,I,i,76,2,433.2000000178814,595545.7999999821,8081,WL,B,5.0
3,7.130999803543091,learn,52869.00019645691,Thu Apr 30 2026 16:47:55 GMT-0500 (Central Daylight Time),596079.1999999881,A,wif,I,f,90,2,533.4000000059605,595545.7999999821,8081,WL,B,5.0
3,7.21399998664856,learn,52786.00001335144,Thu Apr 30 2026 16:47:55 GMT-0500 (Central Daylight Time),596162.0,A,wife,I,e,77,2,616.2000000178814,595545.7999999821,8081,WL,B,5.0
3,7.679999828338623,learn,52320.00017166138,Thu Apr 30 2026 16:47:55 GMT-0500 (Central Daylight Time),596628.7999999821,A,wifeenter,I,enter,458,2,1083.0,595545.7999999821,8081,WL,B,5.0
3,7.863999843597412,learn,52136.00015640259,Thu Apr 30 2026 16:47:55 GMT-0500 (Central Daylight Time),596811.7999999821,A,d,I,d,168,2,182.69999998807907,596629.099999994,8081,WL,B,6.0
3,8.013999938964844,learn,51986.000061035156,Thu Apr 30 2026 16:47:55 GMT-0500 (Central Daylight Time),596962.099999994,A,do,I,o,137,2,333.0,596629.099999994,8081,WL,B,6.0
3,8.179999828338623,learn,51820.00017166138,Thu Apr 30 2026 16:47:55 GMT-0500 (Central Daylight Time),597128.599999994,A,doo,I,o,146,2,499.5,596629.099999994,8081,WL,B,6.0
3,8.27999997138977,learn,51720.00002861023,Thu Apr 30 2026 16:47:55 GMT-0500 (Central Daylight Time),597228.5,A,door,I,r,83,2,599.4000000059605,596629.099999994,8081,WL,B,6.0
3,8.79699993133545,learn,51203.00006866455,Thu Apr 30 2026 16:47:55 GMT-0500 (Central Daylight Time),597744.900000006,A,doorenter,I,enter,512,2,1115.800000011921,596629.099999994,8081,WL,B,6.0
3,9.230000019073486,learn,50769.999980926514,Thu Apr 30 2026 16:47:55 GMT-0500 (Central Daylight Time),598178.2999999821,A,l,I,l,428,2,433.09999999403954,597745.1999999881,8081,WL,B,7.0
3,9.329999923706055,learn,50670.000076293945,Thu Apr 30 2026 16:47:55 GMT-0500 (Central Daylight Time),598278.400000006,A,la,I,a,89,2,533.2000000178814,597745.1999999881,8081,WL,B,7.0
3,9.412999868392944,learn,50587.000131607056,Thu Apr 30 2026 16:47:55 GMT-0500 (Central Daylight Time),598361.5,A,lak,I,k,70,2,616.3000000119209,597745.1999999881,8081,WL,B,7.0
3,9.54699993133545,learn,50453.00006866455,Thu Apr 30 2026 16:47:55 GMT-0500 (Central Daylight Time),598494.7999999821,A,lake,I,e,115,2,749.5999999940395,597745.1999999881,8081,WL,B,7.0
3,9.712999820709229,learn,50287.00017929077,Thu Apr 30 2026 16:47:55 GMT-0500 (Central Daylight Time),598661.0,A,lakeenter,I,enter,156,2,915.8000000119209,597745.1999999881,8081,WL,B,7.0
3,9.946999788284302,learn,50053.0002117157,Thu Apr 30 2026 16:47:55 GMT-0500 (Central Daylight Time),598894.900000006,A,c,I,c,215,2,233.5,598661.400000006,8081,WL,B,8.0
3,10.046000003814697,learn,49953.9999961853,Thu Apr 30 2026 16:47:55 GMT-0500 (Central Daylight Time),598994.5,A,ca,I,a,92,2,333.09999999403954,598661.400000006,8081,WL,B,8.0
3,10.162999868392944,learn,49837.000131607056,Thu Apr 30 2026 16:47:55 GMT-0500 (Central Daylight Time),599111.2999999821,A,cab,I,b,97,2,449.89999997615814,598661.400000006,8081,WL,B,8.0
3,10.296000003814697,learn,49703.9999961853,Thu Apr 30 2026 16:47:55 GMT-0500 (Central Daylight Time),599244.6999999881,A,cabi,I,i,125,2,583.2999999821186,598661.400000006,8081,WL,B,8.0
3,10.44599986076355,learn,49554.00013923645,Thu Apr 30 2026 16:47:55 GMT-0500 (Central Daylight Time),599394.6999999881,A,cabin,I,n,143,2,733.2999999821186,598661.400000006,8081,WL,B,8.0
3,10.812999963760376,learn,49187.000036239624,Thu Apr 30 2026 16:47:55 GMT-0500 (Central Daylight Time),599761.0,A,cabinenter,I,enter,362,2,1099.5999999940395,598661.400000006,8081,WL,B,8.0
3,11.27899980545044,learn,48721.00019454956,Thu Apr 30 2026 16:47:55 GMT-0500 (Central Daylight Time),600227.7999999821,A,f,I,f,451,2,466.59999999403954,599761.1999999881,8081,WL,B,9.0
3,11.411999940872192,learn,48588.00005912781,Thu Apr 30 2026 16:47:55 GMT-0500 (Central Daylight Time),600360.900000006,A,fi,I,i,111,2,599.7000000178814,599761.1999999881,8081,WL,B,9.0
3,11.52899980545044,learn,48471.00019454956,Thu Apr 30 2026 16:47:55 GMT-0500 (Central Daylight Time),600477.6999999881,A,fir,I,r,99,2,716.5,599761.1999999881,8081,WL,B,9.0
3,11.595999956130981,learn,48404.00004386902,Thu Apr 30 2026 16:47:55 GMT-0500 (Central Daylight Time),600544.1999999881,A,fire,I,e,46,2,783.0,599761.1999999881,8081,WL,B,9.0
3,12.01199984550476,learn,47988.00015449524,Thu Apr 30 2026 16:47:55 GMT-0500 (Central Daylight Time),600960.5,A,fireenter,I,enter,411,2,1199.300000011921,599761.1999999881,8081,WL,B,9.0
3,14.260999917984009,learn,45739.00008201599,Thu Apr 30 2026 16:47:55 GMT-0500 (Central Daylight Time),603210.0,A,p,I,p,2235,2,2249.300000011921,600960.6999999881,8081,WL,B,10.0
3,14.411999940872192,learn,45588.00005912781,Thu Apr 30 2026 16:47:55 GMT-0500 (Central Daylight Time),603360.1999999881,A,pu,I,u,138,2,2399.5,600960.6999999881,8081,WL,B,10.0
3,14.610999822616577,learn,45389.00017738342,Thu Apr 30 2026 16:47:55 GMT-0500 (Central Daylight Time),603559.6999999881,A,pup,I,p,187,2,2599.0,600960.6999999881,8081,WL,B,10.0
3,15.110999822616577,learn,44889.00017738342,Thu Apr 30 2026 16:47:55 GMT-0500 (Central Daylight Time),604060.0,A,pupi,I,i,484,2,3099.300000011921,600960.6999999881,8081,WL,B,10.0
3,15.277999877929688,learn,44722.00012207031,Thu Apr 30 2026 16:47:55 GMT-0500 (Central Daylight Time),604226.900000006,A,pupil,I,l,160,2,3266.2000000178814,600960.6999999881,8081,WL,B,10.0
3,15.66100001335144,learn,44338.99998664856,Thu Apr 30 2026 16:47:55 GMT-0500 (Central Daylight Time),604609.2999999821,A,pupilenter,I,enter,362,2,3648.5999999940395,600960.6999999881,8081,WL,B,10.0
3,17.126999855041504,learn,42873.000144958496,Thu Apr 30 2026 16:47:55 GMT-0500 (Central Daylight Time),606075.7999999821,A,l,I,l,1451,2,1466.199999988079,604609.599999994,8081,WL,B,11.0
3,17.24399995803833,learn,42756.00004196167,Thu Apr 30 2026 16:47:55 GMT-0500 (Central Daylight Time),606192.400000006,A,la,I,a,112,2,1582.800000011921,604609.599999994,8081,WL,B,11.0
3,17.310999870300293,learn,42689.00012969971,Thu Apr 30 2026 16:47:55 GMT-0500 (Central Daylight Time),606259.2999999821,A,lak,I,k,52,2,1649.699999988079,604609.599999994,8081,WL,B,11.0
3,17.426999807357788,learn,42573.00019264221,Thu Apr 30 2026 16:47:55 GMT-0500 (Central Daylight Time),606376.0,A,lake,I,e,105,2,1766.4000000059605,604609.599999994,8081,WL,B,11.0
3,17.676999807357788,learn,42323.00019264221,Thu Apr 30 2026 16:47:55 GMT-0500 (Central Daylight Time),606625.599999994,A,lakeenter,I,enter,236,2,2016.0,604609.599999994,8081,WL,B,11.0
3,17.859999895095825,learn,42140.000104904175,Thu Apr 30 2026 16:47:55 GMT-0500 (Central Daylight Time),606808.7999999821,A,w,I,w,163,2,182.89999997615814,606625.900000006,8081,WL,B,12.0
3,17.942999839782715,learn,42057.000160217285,Thu Apr 30 2026 16:47:55 GMT-0500 (Central Daylight Time),606891.900000006,A,wi,I,i,75,2,266.0,606625.900000006,8081,WL,B,12.0
3,18.109999895095825,learn,41890.000104904175,Thu Apr 30 2026 16:47:55 GMT-0500 (Central Daylight Time),607058.6999999881,A,win,I,n,159,2,432.7999999821186,606625.900000006,8081,WL,B,12.0
3,18.15999984741211,learn,41840.00015258789,Thu Apr 30 2026 16:47:55 GMT-0500 (Central Daylight Time),607108.7999999821,A,wind,I,d,41,2,482.89999997615814,606625.900000006,8081,WL,B,12.0
3,18.32699990272522,learn,41673.00009727478,Thu Apr 30 2026 16:47:55 GMT-0500 (Central Daylight Time),607275.599999994,A,windo,I,o,151,2,649.6999999880791,606625.900000006,8081,WL,B,12.0
3,18.459999799728394,learn,41540.00020027161,Thu Apr 30 2026 16:47:55 GMT-0500 (Central Daylight Time),607408.599999994,A,window,I,w,128,2,782.6999999880791,606625.900000006,8081,WL,B,12.0
3,18.959999799728394,learn,41040.00020027161,Thu Apr 30 2026 16:47:55 GMT-0500 (Central Daylight Time),607908.400000006,A,windowenter,I,enter,491,2,1282.5,606625.900000006,8081,WL,B,12.0
3,21.658999919891357,learn,38341.00008010864,Thu Apr 30 2026 16:47:55 GMT-0500 (Central Daylight Time),610607.6999999881,A,c,I,c,2679,2,2699.0,607908.6999999881,8081,WL,B,13.0
3,21.72599983215332,learn,38274.00016784668,Thu Apr 30 2026 16:47:55 GMT-0500 (Central Daylight Time),610674.400000006,A,cl,I,l,53,2,2765.7000000178814,607908.6999999881,8081,WL,B,13.0
3,21.875999927520752,learn,38124.00007247925,Thu Apr 30 2026 16:47:55 GMT-0500 (Central Daylight Time),610824.2999999821,A,clo,I,o,137,2,2915.5999999940395,607908.6999999881,8081,WL,B,13.0
3,21.97599983215332,learn,38024.00016784668,Thu Apr 30 2026 16:47:55 GMT-0500 (Central Daylight Time),610924.5,A,cloc,I,c,83,2,3015.800000011921,607908.6999999881,8081,WL,B,13.0
3,22.075999975204468,learn,37924.00002479553,Thu Apr 30 2026 16:47:55 GMT-0500 (Central Daylight Time),611024.400000006,A,clock,I,k,88,2,3115.7000000178814,607908.6999999881,8081,WL,B,13.0
3,22.324999809265137,learn,37675.00019073486,Thu Apr 30 2026 16:47:55 GMT-0500 (Central Daylight Time),611273.900000006,A,clockenter,I,enter,244,2,3365.2000000178814,607908.6999999881,8081,WL,B,13.0
3,29.905999898910522,learn,30094.000101089478,Thu Apr 30 2026 16:47:55 GMT-0500 (Central Daylight Time),618854.900000006,A,d,I,d,7570,2,7580.800000011921,611274.099999994,8081,WL,B,14.0
3,30.10599994659424,learn,29894.00005340576,Thu Apr 30 2026 16:47:55 GMT-0500 (Central Daylight Time),619054.900000006,A,do,I,o,188,2,7780.800000011921,611274.099999994,8081,WL,B,14.0
3,30.27300000190735,learn,29726.99999809265,Thu Apr 30 2026 16:47:55 GMT-0500 (Central Daylight Time),619221.5,A,doo,I,o,147,2,7947.4000000059605,611274.099999994,8081,WL,B,14.0
3,30.371999979019165,learn,29628.000020980835,Thu Apr 30 2026 16:47:55 GMT-0500 (Central Daylight Time),619321.099999994,A,door,I,r,93,2,8047.0,611274.099999994,8081,WL,B,14.0
3,30.572999954223633,learn,29427.000045776367,Thu Apr 30 2026 16:47:55 GMT-0500 (Central Daylight Time),619521.1999999881,A,doorenter,I,enter,195,2,8247.09999999404,611274.099999994,8081,WL,B,14.0
3,37.08799982070923,learn,22912.00017929077,Thu Apr 30 2026 16:47:55 GMT-0500 (Central Daylight Time),626036.1999999881,A,p,I,p,6498,2,6514.699999988079,619521.5,8081,WL,B,15.0
3,37.25399994850159,learn,22746.000051498413,Thu Apr 30 2026 16:47:55 GMT-0500 (Central Daylight Time),626202.7999999821,A,pi,I,i,150,2,6681.299999982119,619521.5,8081,WL,B,15.0
3,37.38699984550476,learn,22613.00015449524,Thu Apr 30 2026 16:47:55 GMT-0500 (Central Daylight Time),626336.099999994,A,pip,I,p,121,2,6814.5999999940395,619521.5,8081,WL,B,15.0
3,37.603999853134155,learn,22396.000146865845,Thu Apr 30 2026 16:47:55 GMT-0500 (Central Daylight Time),626552.900000006,A,pipe,I,e,196,2,7031.4000000059605,619521.5,8081,WL,B,15.0
3,37.8199999332428,learn,22180.000066757202,Thu Apr 30 2026 16:47:55 GMT-0500 (Central Daylight Time),626769.1999999881,A,pipeenter,I,enter,203,2,7247.699999988079,619521.5,8081,WL,B,15.0
4,1.065999984741211,learn,58934.00001525879,Thu Apr 30 2026 16:47:55 GMT-0500 (Central Daylight Time),694747.5,A,s,I,s,1059,2,1066.0,693681.5,8081,WL,B,1.0
4,1.6000001430511475,learn,58399.99985694885,Thu Apr 30 2026 16:47:55 GMT-0500 (Central Daylight Time),695280.7999999821,A,st,I,t,527,2,1599.2999999821186,693681.5,8081,WL,B,1.0
4,1.815999984741211,learn,58184.00001525879,Thu Apr 30 2026 16:47:55 GMT-0500 (Central Daylight Time),695497.2999999821,A,ste,I,e,211,2,1815.7999999821186,693681.5,8081,WL,B,1.0
4,1.9830000400543213,learn,58016.99995994568,Thu Apr 30 2026 16:47:55 GMT-0500 (Central Daylight Time),695664.099999994,A,stee,I,e,154,2,1982.5999999940395,693681.5,8081,WL,B,1.0
4,2.2829999923706055,learn,57717.000007629395,Thu Apr 30 2026 16:47:55 GMT-0500 (Central Daylight Time),695963.900000006,A,steet,I,t,283,2,2282.4000000059605,693681.5,8081,WL,B,1.0
4,2.6489999294281006,learn,57351.0000705719,Thu Apr 30 2026 16:47:55 GMT-0500 (Central Daylight Time),696330.5,A,stee,I,backspace,352,2,2649.0,693681.5,8081,WL,B,1.0
4,2.815999984741211,learn,57184.00001525879,Thu Apr 30 2026 16:47:55 GMT-0500 (Central Daylight Time),696497.1999999881,A,ste,I,backspace,152,2,2815.699999988079,693681.5,8081,WL,B,1.0
4,2.933000087738037,learn,57066.99991226196,Thu Apr 30 2026 16:47:55 GMT-0500 (Central Daylight Time),696613.599999994,A,st,I,backspace,98,2,2932.0999999940395,693681.5,8081,WL,B,1.0
4,3.0829999446868896,learn,56917.00005531311,Thu Apr 30 2026 16:47:55 GMT-0500 (Central Daylight Time),696763.599999994,A,str,I,r,142,2,3082.0999999940395,693681.5,8081,WL,B,1.0
4,3.4820001125335693,learn,56517.99988746643,Thu Apr 30 2026 16:47:55 GMT-0500 (Central Daylight Time),697163.5,A,stre,I,e,384,2,3482.0,693681.5,8081,WL,B,1.0
4,3.7320001125335693,learn,56267.99988746643,Thu Apr 30 2026 16:47:55 GMT-0500 (Central Daylight Time),697413.5,A,stree,I,e,232,2,3732.0,693681.5,8081,WL,B,1.0
4,3.9160001277923584,learn,56083.99987220764,Thu Apr 30 2026 16:47:55 GMT-0500 (Central Daylight Time),697596.7999999821,A,street,I,t,166,2,3915.2999999821186,693681.5,8081,WL,B,1.0
4,4.065999984741211,learn,55934.00001525879,Thu Apr 30 2026 16:47:55 GMT-0500 (Central Daylight Time),697746.6999999881,A,streetenter,I,enter,135,2,4065.199999988079,693681.5,8081,WL,B,1.0
4,4.582000017166138,learn,55417.99998283386,Thu Apr 30 2026 16:47:55 GMT-0500 (Central Daylight Time),698263.1999999881,A,a,I,a,505,2,516.2999999821186,697746.900000006,8081,WL,B,2.0
4,4.699000120162964,learn,55300.999879837036,Thu Apr 30 2026 16:47:55 GMT-0500 (Central Daylight Time),698379.7999999821,A,ar,I,r,100,2,632.8999999761581,697746.900000006,8081,WL,B,2.0
4,4.848999977111816,learn,55151.00002288818,Thu Apr 30 2026 16:47:55 GMT-0500 (Central Daylight Time),698529.7999999821,A,arm,I,m,143,2,782.8999999761581,697746.900000006,8081,WL,B,2.0
4,5.148999929428101,learn,54851.0000705719,Thu Apr 30 2026 16:47:55 GMT-0500 (Central Daylight Time),698830.0,A,armenter,I,enter,282,2,1083.0999999940395,697746.900000006,8081,WL,B,2.0
4,5.482000112533569,learn,54517.99988746643,Thu Apr 30 2026 16:47:55 GMT-0500 (Central Daylight Time),699162.7999999821,A,d,I,d,317,2,332.59999999403954,698830.1999999881,8081,WL,B,3.0
4,5.582000017166138,learn,54417.99998283386,Thu Apr 30 2026 16:47:55 GMT-0500 (Central Daylight Time),699263.0,A,do,I,o,89,2,432.80000001192093,698830.1999999881,8081,WL,B,3.0
4,5.749000072479248,learn,54250.99992752075,Thu Apr 30 2026 16:47:55 GMT-0500 (Central Daylight Time),699429.6999999881,A,doo,I,o,148,2,599.5,698830.1999999881,8081,WL,B,3.0
4,5.865000009536743,learn,54134.99999046326,Thu Apr 30 2026 16:47:55 GMT-0500 (Central Daylight Time),699546.099999994,A,door,I,r,102,2,715.9000000059605,698830.1999999881,8081,WL,B,3.0
4,6.2149999141693115,learn,53785.00008583069,Thu Apr 30 2026 16:47:55 GMT-0500 (Central Daylight Time),699896.1999999881,A,doorenter,I,enter,345,2,1066.0,698830.1999999881,8081,WL,B,3.0
4,6.5329999923706055,learn,53467.000007629395,Thu Apr 30 2026 16:47:55 GMT-0500 (Central Daylight Time),700213.6999999881,A,w,I,w,300,2,317.2999999821186,699896.400000006,8081,WL,B,4.0
4,6.615000009536743,learn,53384.99999046326,Thu Apr 30 2026 16:47:55 GMT-0500 (Central Daylight Time),700296.099999994,A,wi,I,i,78,2,399.69999998807907,699896.400000006,8081,WL,B,4.0
4,6.748000144958496,learn,53251.999855041504,Thu Apr 30 2026 16:47:55 GMT-0500 (Central Daylight Time),700429.099999994,A,wif,I,f,123,2,532.6999999880791,699896.400000006,8081,WL,B,4.0
4,6.831000089645386,learn,53168.999910354614,Thu Apr 30 2026 16:47:55 GMT-0500 (Central Daylight Time),700512.599999994,A,wife,I,e,78,2,616.1999999880791,699896.400000006,8081,WL,B,4.0
4,7.2149999141693115,learn,52785.00008583069,Thu Apr 30 2026 16:47:55 GMT-0500 (Central Daylight Time),700895.6999999881,A,wifeenter,I,enter,363,2,999.2999999821186,699896.400000006,8081,WL,B,4.0
4,7.515000104904175,learn,52484.999895095825,Thu Apr 30 2026 16:47:55 GMT-0500 (Central Daylight Time),701195.7999999821,A,g,I,g,284,2,299.89999997615814,700895.900000006,8081,WL,B,5.0
4,7.730999946594238,learn,52269.00005340576,Thu Apr 30 2026 16:47:55 GMT-0500 (Central Daylight Time),701412.099999994,A,gr,I,r,199,2,516.1999999880791,700895.900000006,8081,WL,B,5.0
4,7.814000129699707,learn,52185.99987030029,Thu Apr 30 2026 16:47:55 GMT-0500 (Central Daylight Time),701495.5,A,gra,I,a,71,2,599.5999999940395,700895.900000006,8081,WL,B,5.0
4,8.031000137329102,learn,51968.9998626709,Thu Apr 30 2026 16:47:55 GMT-0500 (Central Daylight Time),701712.099999994,A,gras,I,s,204,2,816.1999999880791,700895.900000006,8081,WL,B,5.0
4,8.230999946594238,learn,51769.00005340576,Thu Apr 30 2026 16:47:55 GMT-0500 (Central Daylight Time),701912.099999994,A,grass,I,s,179,2,1016.1999999880791,700895.900000006,8081,WL,B,5.0
4,8.69700002670288,learn,51302.99997329712,Thu Apr 30 2026 16:47:55 GMT-0500 (Central Daylight Time),702378.400000006,A,grassenter,I,enter,459,2,1482.5,700895.900000006,8081,WL,B,5.0
4,9.147000074386597,learn,50852.9999256134,Thu Apr 30 2026 16:47:55 GMT-0500 (Central Daylight Time),702828.2999999821,A,w,I,w,441,2,449.69999998807907,702378.599999994,8081,WL,B,6.0
4,9.246999979019165,learn,50753.000020980835,Thu Apr 30 2026 16:47:55 GMT-0500 (Central Daylight Time),702928.5,A,wi,I,i,95,2,549.9000000059605,702378.599999994,8081,WL,B,6.0
4,9.397000074386597,learn,50602.9999256134,Thu Apr 30 2026 16:47:55 GMT-0500 (Central Daylight Time),703078.2999999821,A,win,I,n,139,2,699.6999999880791,702378.599999994,8081,WL,B,6.0
4,9.513999938964844,learn,50486.000061035156,Thu Apr 30 2026 16:47:55 GMT-0500 (Central Daylight Time),703194.900000006,A,wind,I,d,109,2,816.3000000119209,702378.599999994,8081,WL,B,6.0
4,9.647000074386597,learn,50352.9999256134,Thu Apr 30 2026 16:47:55 GMT-0500 (Central Daylight Time),703328.2999999821,A,windo,I,o,121,2,949.6999999880791,702378.599999994,8081,WL,B,6.0
4,9.897000074386597,learn,50102.9999256134,Thu Apr 30 2026 16:47:55 GMT-0500 (Central Daylight Time),703578.2999999821,A,window,I,w,243,2,1199.699999988079,702378.599999994,8081,WL,B,6.0
4,10.263999938964844,learn,49736.000061035156,Thu Apr 30 2026 16:47:55 GMT-0500 (Central Daylight Time),703944.7999999821,A,windowenter,I,enter,353,2,1566.199999988079,702378.599999994,8081,WL,B,6.0
4,11.913000106811523,learn,48086.99989318848,Thu Apr 30 2026 16:47:55 GMT-0500 (Central Daylight Time),705594.2999999821,A,f,I,f,1643,2,1649.199999988079,703945.099999994,8081,WL,B,7.0
4,12.04699993133545,learn,47953.00006866455,Thu Apr 30 2026 16:47:55 GMT-0500 (Central Daylight Time),705727.6999999881,A,fi,I,i,121,2,1782.5999999940395,703945.099999994,8081,WL,B,7.0
4,12.180000066757202,learn,47819.9999332428,Thu Apr 30 2026 16:47:55 GMT-0500 (Central Daylight Time),705861.0,A,fir,I,r,116,2,1915.9000000059605,703945.099999994,8081,WL,B,7.0
4,12.246000051498413,learn,47753.99994850159,Thu Apr 30 2026 16:47:55 GMT-0500 (Central Daylight Time),705927.599999994,A,fire,I,e,47,2,1982.5,703945.099999994,8081,WL,B,7.0
4,12.480000019073486,learn,47519.999980926514,Thu Apr 30 2026 16:47:55 GMT-0500 (Central Daylight Time),706160.7999999821,A,fireenter,I,enter,220,2,2215.699999988079,703945.099999994,8081,WL,B,7.0
4,12.845999956130981,learn,47154.00004386902,Thu Apr 30 2026 16:47:55 GMT-0500 (Central Daylight Time),706527.099999994,A,l,I,l,355,2,366.09999999403954,706161.0,8081,WL,B,8.0
4,12.963000059127808,learn,47036.99994087219,Thu Apr 30 2026 16:47:55 GMT-0500 (Central Daylight Time),706644.0,A,la,I,a,100,2,483.0,706161.0,8081,WL,B,8.0
4,13.095999956130981,learn,46904.00004386902,Thu Apr 30 2026 16:47:55 GMT-0500 (Central Daylight Time),706777.099999994,A,lai,I,i,127,2,616.0999999940395,706161.0,8081,WL,B,8.0
4,13.646000146865845,learn,46353.999853134155,Thu Apr 30 2026 16:47:55 GMT-0500 (Central Daylight Time),707326.900000006,A,la,I,backspace,530,2,1165.9000000059605,706161.0,8081,WL,B,8.0
4,13.812000036239624,learn,46187.999963760376,Thu Apr 30 2026 16:47:55 GMT-0500 (Central Daylight Time),707493.5,A,lak,I,k,149,2,1332.5,706161.0,8081,WL,B,8.0
4,13.92900013923645,learn,46070.99986076355,Thu Apr 30 2026 16:47:55 GMT-0500 (Central Daylight Time),707610.2999999821,A,lake,I,e,102,2,1449.2999999821186,706161.0,8081,WL,B,8.0
4,14.730000019073486,learn,45269.999980926514,Thu Apr 30 2026 16:47:55 GMT-0500 (Central Daylight Time),708411.0,A,lakeenter,I,enter,793,2,2250.0,706161.0,8081,WL,B,8.0
4,15.128999948501587,learn,44871.00005149841,Thu Apr 30 2026 16:47:55 GMT-0500 (Central Daylight Time),708810.0,A,c,I,c,384,2,398.80000001192093,708411.1999999881,8081,WL,B,9.0
4,15.194999933242798,learn,44805.0000667572,Thu Apr 30 2026 16:47:55 GMT-0500 (Central Daylight Time),708876.5,A,ca,I,a,57,2,465.30000001192093,708411.1999999881,8081,WL,B,9.0
4,15.295000076293945,learn,44704.999923706055,Thu Apr 30 2026 16:47:55 GMT-0500 (Central Daylight Time),708976.5,A,cab,I,b,95,2,565.3000000119209,708411.1999999881,8081,WL,B,9.0
4,15.495000123977661,learn,44504.99987602234,Thu Apr 30 2026 16:47:55 GMT-0500 (Central Daylight Time),709176.5,A,cabi,I,i,195,2,765.3000000119209,708411.1999999881,8081,WL,B,9.0
4,15.661999940872192,learn,44338.00005912781,Thu Apr 30 2026 16:47:55 GMT-0500 (Central Daylight Time),709343.0,A,cabin,I,n,155,2,931.8000000119209,708411.1999999881,8081,WL,B,9.0
4,15.894999980926514,learn,44105.000019073486,Thu Apr 30 2026 16:47:55 GMT-0500 (Central Daylight Time),709576.400000006,A,cabinenter,I,enter,220,2,1165.2000000178814,708411.1999999881,8081,WL,B,9.0
4,16.795000076293945,learn,43204.999923706055,Thu Apr 30 2026 16:47:55 GMT-0500 (Central Daylight Time),710476.099999994,A,c,I,c,891,2,899.5,709576.599999994,8081,WL,B,10.0
4,16.878000020980835,learn,43121.999979019165,Thu Apr 30 2026 16:47:55 GMT-0500 (Central Daylight Time),710559.1999999881,A,cl,I,l,71,2,982.5999999940395,709576.599999994,8081,WL,B,10.0
4,17.046000003814697,learn,42953.9999961853,Thu Apr 30 2026 16:47:55 GMT-0500 (Central Daylight Time),710727.1999999881,A,clo,I,o,148,2,1150.5999999940395,709576.599999994,8081,WL,B,10.0
4,17.528000116348267,learn,42471.99988365173,Thu Apr 30 2026 16:47:55 GMT-0500 (Central Daylight Time),711209.099999994,A,cloc,I,c,468,2,1632.5,709576.599999994,8081,WL,B,10.0
4,17.644999980926514,learn,42355.000019073486,Thu Apr 30 2026 16:47:55 GMT-0500 (Central Daylight Time),711325.900000006,A,clock,I,k,98,2,1749.300000011921,709576.599999994,8081,WL,B,10.0
4,17.89400005340576,learn,42105.99994659424,Thu Apr 30 2026 16:47:55 GMT-0500 (Central Daylight Time),711575.599999994,A,clockenter,I,enter,237,2,1999.0,709576.599999994,8081,WL,B,10.0
4,20.64400005340576,learn,39355.99994659424,Thu Apr 30 2026 16:47:55 GMT-0500 (Central Daylight Time),714324.900000006,A,c,I,c,2740,2,2749.0,711575.900000006,8081,WL,B,11.0
4,20.776999950408936,learn,39223.000049591064,Thu Apr 30 2026 16:47:55 GMT-0500 (Central Daylight Time),714458.099999994,A,ci,I,i,119,2,2882.199999988079,711575.900000006,8081,WL,B,11.0
4,21.0770001411438,learn,38922.9998588562,Thu Apr 30 2026 16:47:55 GMT-0500 (Central Daylight Time),714758.099999994,A,cit,I,t,281,2,3182.199999988079,711575.900000006,8081,WL,B,11.0
4,21.243000030517578,learn,38756.99996948242,Thu Apr 30 2026 16:47:55 GMT-0500 (Central Daylight Time),714924.5,A,city,I,y,157,2,3348.5999999940395,711575.900000006,8081,WL,B,11.0
4,21.592999935150146,learn,38407.00006484985,Thu Apr 30 2026 16:47:55 GMT-0500 (Central Daylight Time),715274.599999994,A,cityenter,I,enter,343,2,3698.699999988079,711575.900000006,8081,WL,B,11.0
4,31.640000104904175,learn,28359.999895095825,Thu Apr 30 2026 16:47:55 GMT-0500 (Central Daylight Time),725321.2999999821,A,w,I,w,10033,2,10046.5,715274.7999999821,8081,WL,B,12.0
4,31.789999961853027,learn,28210.000038146973,Thu Apr 30 2026 16:47:55 GMT-0500 (Central Daylight Time),725471.2999999821,A,wi,I,i,129,2,10196.5,715274.7999999821,8081,WL,B,12.0
4,31.873000144958496,learn,28126.999855041504,Thu Apr 30 2026 16:47:55 GMT-0500 (Central Daylight Time),725554.599999994,A,wif,I,f,68,2,10279.800000011921,715274.7999999821,8081,WL,B,12.0
4,31.990000009536743,learn,28009.999990463257,Thu Apr 30 2026 16:47:55 GMT-0500 (Central Daylight Time),725671.2999999821,A,wife,I,e,104,2,10396.5,715274.7999999821,8081,WL,B,12.0
4,32.33999991416931,learn,27660.00008583069,Thu Apr 30 2026 16:47:55 GMT-0500 (Central Daylight Time),726021.0,A,wifeenter,I,enter,340,2,10746.200000017881,715274.7999999821,8081,WL,B,12.0
4,36.105000019073486,learn,23894.999980926514,Thu Apr 30 2026 16:47:55 GMT-0500 (Central Daylight Time),729786.7999999821,A,p,I,p,3758,2,3765.399999976158,726021.400000006,8081,WL,B,13.0
4,36.355000019073486,learn,23644.999980926514,Thu Apr 30 2026 16:47:55 GMT-0500 (Central Daylight Time),730036.6999999881,A,pu,I,u,232,2,4015.2999999821186,726021.400000006,8081,WL,B,13.0
4,36.67199993133545,learn,23328.00006866455,Thu Apr 30 2026 16:47:55 GMT-0500 (Central Daylight Time),730353.1999999881,A,pup,I,p,302,2,4331.799999982119,726021.400000006,8081,WL,B,13.0
4,36.97200012207031,learn,23027.999877929688,Thu Apr 30 2026 16:47:55 GMT-0500 (Central Daylight Time),730653.099999994,A,pupi,I,i,282,2,4631.699999988079,726021.400000006,8081,WL,B,13.0
4,37.15499997138977,learn,22845.00002861023,Thu Apr 30 2026 16:47:55 GMT-0500 (Central Daylight Time),730836.2999999821,A,pupil,I,l,165,2,4814.899999976158,726021.400000006,8081,WL,B,13.0
4,37.454999923706055,learn,22545.000076293945,Thu Apr 30 2026 16:47:55 GMT-0500 (Central Daylight Time),731136.2999999821,A,pupilenter,I,enter,286,2,5114.899999976158,726021.400000006,8081,WL,B,13.0
4,38.03800010681152,learn,21961.999893188477,Thu Apr 30 2026 16:47:55 GMT-0500 (Central Daylight Time),731719.400000006,A,s,I,s,561,2,582.9000000059605,731136.5,8081,WL,B,14.0
4,38.13800001144409,learn,21861.99998855591,Thu Apr 30 2026 16:47:55 GMT-0500 (Central Daylight Time),731819.400000006,A,sk,I,k,84,2,682.9000000059605,731136.5,8081,WL,B,14.0
4,38.25500011444092,learn,21744.999885559082,Thu Apr 30 2026 16:47:55 GMT-0500 (Central Daylight Time),731936.099999994,A,ski,I,i,104,2,799.5999999940395,731136.5,8081,WL,B,14.0
4,38.4210000038147,learn,21578.999996185303,Thu Apr 30 2026 16:47:55 GMT-0500 (Central Daylight Time),732102.7999999821,A,skin,I,n,155,2,966.2999999821186,731136.5,8081,WL,B,14.0
4,38.83800005912781,learn,21161.999940872192,Thu Apr 30 2026 16:47:55 GMT-0500 (Central Daylight Time),732519.1999999881,A,skinenter,I,enter,396,2,1382.699999988079,731136.5,8081,WL,B,14.0
4,48.13499999046326,learn,11865.000009536743,Thu Apr 30 2026 16:47:55 GMT-0500 (Central Daylight Time),741816.099999994,A,p,I,p,9292,2,9296.59999999404,732519.5,8081,WL,B,15.0
4,48.35199999809265,learn,11648.000001907349,Thu Apr 30 2026 16:47:55 GMT-0500 (Central Daylight Time),742032.900000006,A,pi,I,i,195,2,9513.40000000596,732519.5,8081,WL,B,15.0
4,48.53500008583069,learn,11464.999914169312,Thu Apr 30 2026 16:47:55 GMT-0500 (Central Daylight Time),742216.0,A,pip,I,p,171,2,9696.5,732519.5,8081,WL,B,15.0
4,48.71799993515015,learn,11282.000064849854,Thu Apr 30 2026 16:47:55 GMT-0500 (Central Daylight Time),742399.400000006,A,pipe,I,e,171,2,9879.90000000596,732519.5,8081,WL,B,15.0
4,48.86800003051758,learn,11131.999969482422,Thu Apr 30 2026 16:47:55 GMT-0500 (Central Daylight Time),742549.400000006,A,pipeenter,I,enter,132,2,10029.90000000596,732519.5,8081,WL,B,15.0
5,2.5829999446868896,learn,60000.0,Thu Apr 30 2026 16:47:55 GMT-0500 (Central Daylight Time),812227.900000006,A,s,I,s,2575,2,2583.0,809644.900000006,8081,WL,B,1.0
5,2.7660000324249268,learn,60000.0,Thu Apr 30 2026 16:47:55 GMT-0500 (Central Daylight Time),812410.599999994,A,st,I,t,166,2,2765.699999988079,809644.900000006,8081,WL,B,1.0
5,2.999000072479248,learn,60000.0,Thu Apr 30 2026 16:47:55 GMT-0500 (Central Daylight Time),812643.900000006,A,str,I,r,217,2,2999.0,809644.900000006,8081,WL,B,1.0
5,3.183000087738037,learn,60000.0,Thu Apr 30 2026 16:47:55 GMT-0500 (Central Daylight Time),812827.1999999881,A,stre,I,e,176,2,3182.2999999821186,809644.900000006,8081,WL,B,1.0
5,3.3489999771118164,learn,60000.0,Thu Apr 30 2026 16:47:55 GMT-0500 (Central Daylight Time),812993.6999999881,A,stree,I,e,160,2,3348.7999999821186,809644.900000006,8081,WL,B,1.0
5,3.565999984741211,learn,60000.0,Thu Apr 30 2026 16:47:55 GMT-0500 (Central Daylight Time),813210.400000006,A,street,I,t,210,2,3565.5,809644.900000006,8081,WL,B,1.0
5,3.9159998893737793,learn,60000.0,Thu Apr 30 2026 16:47:55 GMT-0500 (Central Daylight Time),813560.5,A,streetenter,I,enter,337,2,3915.5999999940395,809644.900000006,8081,WL,B,1.0
5,4.299000024795532,learn,60000.0,Thu Apr 30 2026 16:47:55 GMT-0500 (Central Daylight Time),813943.400000006,A,a,I,a,363,2,382.7000000178814,813560.6999999881,8081,WL,B,2.0
5,4.381999969482422,learn,60000.0,Thu Apr 30 2026 16:47:55 GMT-0500 (Central Daylight Time),814026.900000006,A,ar,I,r,76,2,466.2000000178814,813560.6999999881,8081,WL,B,2.0
5,4.582000017166138,learn,60000.0,Thu Apr 30 2026 16:47:55 GMT-0500 (Central Daylight Time),814226.7999999821,A,arm,I,m,193,2,666.0999999940395,813560.6999999881,8081,WL,B,2.0
5,4.881999969482422,learn,60000.0,Thu Apr 30 2026 16:47:55 GMT-0500 (Central Daylight Time),814526.599999994,A,armenter,I,enter,280,2,965.9000000059605,813560.6999999881,8081,WL,B,2.0
5,5.348999977111816,learn,60000.0,Thu Apr 30 2026 16:47:55 GMT-0500 (Central Daylight Time),814993.7999999821,A,g,I,g,452,2,466.89999997615814,814526.900000006,8081,WL,B,3.0
5,5.549000024795532,learn,60000.0,Thu Apr 30 2026 16:47:55 GMT-0500 (Central Daylight Time),815193.1999999881,A,gr,I,r,193,2,666.2999999821186,814526.900000006,8081,WL,B,3.0
5,5.664999961853027,learn,60000.0,Thu Apr 30 2026 16:47:55 GMT-0500 (Central Daylight Time),815309.7999999821,A,gra,I,a,106,2,782.8999999761581,814526.900000006,8081,WL,B,3.0
5,5.898000001907349,learn,60000.0,Thu Apr 30 2026 16:47:55 GMT-0500 (Central Daylight Time),815543.099999994,A,gras,I,s,214,2,1016.1999999880791,814526.900000006,8081,WL,B,3.0
5,6.082000017166138,learn,60000.0,Thu Apr 30 2026 16:47:55 GMT-0500 (Central Daylight Time),815726.2999999821,A,grass,I,s,164,2,1199.3999999761581,814526.900000006,8081,WL,B,3.0
5,6.48199987411499,learn,60000.0,Thu Apr 30 2026 16:47:55 GMT-0500 (Central Daylight Time),816126.1999999881,A,grassenter,I,enter,389,2,1599.2999999821186,814526.900000006,8081,WL,B,3.0
5,7.63100004196167,learn,60000.0,Thu Apr 30 2026 16:47:55 GMT-0500 (Central Daylight Time),817275.6999999881,A,d,I,d,1141,2,1149.2999999821186,816126.400000006,8081,WL,B,4.0
5,7.747999906539917,learn,60000.0,Thu Apr 30 2026 16:47:55 GMT-0500 (Central Daylight Time),817392.5,A,do,I,o,111,2,1266.0999999940395,816126.400000006,8081,WL,B,4.0
5,7.914000034332275,learn,60000.0,Thu Apr 30 2026 16:47:55 GMT-0500 (Central Daylight Time),817559.0,A,doo,I,o,147,2,1432.5999999940395,816126.400000006,8081,WL,B,4.0
5,8.030999898910522,learn,60000.0,Thu Apr 30 2026 16:47:55 GMT-0500 (Central Daylight Time),817675.7999999821,A,door,I,r,100,2,1549.3999999761581,816126.400000006,8081,WL,B,4.0
5,8.280999898910522,learn,60000.0,Thu Apr 30 2026 16:47:55 GMT-0500 (Central Daylight Time),817925.599999994,A,doorenter,I,enter,231,2,1799.199999988079,816126.400000006,8081,WL,B,4.0
5,8.582000017166138,learn,60000.0,Thu Apr 30 2026 16:47:55 GMT-0500 (Central Daylight Time),818226.6999999881,A,w,I,w,286,2,300.90000000596046,817925.7999999821,8081,WL,B,5.0
5,8.730999946594238,learn,60000.0,Thu Apr 30 2026 16:47:55 GMT-0500 (Central Daylight Time),818375.7999999821,A,wi,I,i,128,2,450.0,817925.7999999821,8081,WL,B,5.0
5,8.780999898910522,learn,60000.0,Thu Apr 30 2026 16:47:55 GMT-0500 (Central Daylight Time),818425.5,A,wif,I,f,43,2,499.7000000178814,817925.7999999821,8081,WL,B,5.0
5,8.88100004196167,learn,60000.0,Thu Apr 30 2026 16:47:55 GMT-0500 (Central Daylight Time),818525.5,A,wife,I,e,82,2,599.7000000178814,817925.7999999821,8081,WL,B,5.0
5,9.313999891281128,learn,60000.0,Thu Apr 30 2026 16:47:55 GMT-0500 (Central Daylight Time),818958.5,A,wifeenter,I,enter,414,2,1032.7000000178814,817925.7999999821,8081,WL,B,5.0
5,10.963000059127808,learn,60000.0,Thu Apr 30 2026 16:47:55 GMT-0500 (Central Daylight Time),820608.099999994,A,c,I,c,1637,2,1649.199999988079,818958.900000006,8081,WL,B,6.0
5,11.180000066757202,learn,60000.0,Thu Apr 30 2026 16:47:55 GMT-0500 (Central Daylight Time),820824.6999999881,A,ci,I,i,212,2,1865.7999999821186,818958.900000006,8081,WL,B,6.0
5,11.329999923706055,learn,60000.0,Thu Apr 30 2026 16:47:55 GMT-0500 (Central Daylight Time),820974.599999994,A,cit,I,t,130,2,2015.699999988079,818958.900000006,8081,WL,B,6.0
5,11.44700002670288,learn,60000.0,Thu Apr 30 2026 16:47:55 GMT-0500 (Central Daylight Time),821091.2999999821,A,city,I,y,109,2,2132.399999976158,818958.900000006,8081,WL,B,6.0
5,11.77999997138977,learn,60000.0,Thu Apr 30 2026 16:47:55 GMT-0500 (Central Daylight Time),821424.6999999881,A,cityenter,I,enter,328,2,2465.7999999821186,818958.900000006,8081,WL,B,6.0
5,12.36299991607666,learn,60000.0,Thu Apr 30 2026 16:47:55 GMT-0500 (Central Daylight Time),822007.599999994,A,c,I,c,562,2,582.6999999880791,821424.900000006,8081,WL,B,7.0
5,12.763000011444092,learn,60000.0,Thu Apr 30 2026 16:47:55 GMT-0500 (Central Daylight Time),822407.5,A,cl,I,l,388,2,982.5999999940395,821424.900000006,8081,WL,B,7.0
5,12.94599986076355,learn,60000.0,Thu Apr 30 2026 16:47:55 GMT-0500 (Central Daylight Time),822590.7999999821,A,clo,I,o,164,2,1165.8999999761581,821424.900000006,8081,WL,B,7.0
5,13.412999868392944,learn,60000.0,Thu Apr 30 2026 16:47:55 GMT-0500 (Central Daylight Time),823057.2999999821,A,cloc,I,c,452,2,1632.3999999761581,821424.900000006,8081,WL,B,7.0
5,13.595999956130981,learn,60000.0,Thu Apr 30 2026 16:47:55 GMT-0500 (Central Daylight Time),823240.5,A,clock,I,k,162,2,1815.5999999940395,821424.900000006,8081,WL,B,7.0
5,14.029000043869019,learn,60000.0,Thu Apr 30 2026 16:47:55 GMT-0500 (Central Daylight Time),823673.900000006,A,clockenter,I,enter,427,2,2249.0,821424.900000006,8081,WL,B,7.0
5,14.395999908447266,learn,60000.0,Thu Apr 30 2026 16:47:55 GMT-0500 (Central Daylight Time),824040.400000006,A,p,I,p,362,2,366.30000001192093,823674.099999994,8081,WL,B,8.0
5,14.562000036239624,learn,60000.0,Thu Apr 30 2026 16:47:55 GMT-0500 (Central Daylight Time),824206.900000006,A,pi,I,i,147,2,532.8000000119209,823674.099999994,8081,WL,B,8.0
5,14.76200008392334,learn,60000.0,Thu Apr 30 2026 16:47:55 GMT-0500 (Central Daylight Time),824406.900000006,A,pip,I,p,188,2,732.8000000119209,823674.099999994,8081,WL,B,8.0
5,15.328999996185303,learn,60000.0,Thu Apr 30 2026 16:47:55 GMT-0500 (Central Daylight Time),824973.5,A,pipe,I,e,556,2,1299.4000000059605,823674.099999994,8081,WL,B,8.0
5,15.678999900817871,learn,60000.0,Thu Apr 30 2026 16:47:55 GMT-0500 (Central Daylight Time),825323.6999999881,A,pipeenter,I,enter,343,2,1649.5999999940395,823674.099999994,8081,WL,B,8.0
5,16.228999853134155,learn,60000.0,Thu Apr 30 2026 16:47:55 GMT-0500 (Central Daylight Time),825873.099999994,A,p,I,p,544,2,549.0,825324.099999994,8081,WL,B,9.0
5,16.461999893188477,learn,60000.0,Thu Apr 30 2026 16:47:55 GMT-0500 (Central Daylight Time),826106.400000006,A,pu,I,u,226,2,782.3000000119209,825324.099999994,8081,WL,B,9.0
5,17.144999980926514,learn,60000.0,Thu Apr 30 2026 16:47:55 GMT-0500 (Central Daylight Time),826789.6999999881,A,pup,I,p,673,2,1465.5999999940395,825324.099999994,8081,WL,B,9.0
5,17.32800006866455,learn,60000.0,Thu Apr 30 2026 16:47:55 GMT-0500 (Central Daylight Time),826972.6999999881,A,pupi,I,i,166,2,1648.5999999940395,825324.099999994,8081,WL,B,9.0
5,17.527999877929688,learn,60000.0,Thu Apr 30 2026 16:47:55 GMT-0500 (Central Daylight Time),827172.6999999881,A,pupil,I,l,182,2,1848.5999999940395,825324.099999994,8081,WL,B,9.0
5,17.82800006866455,learn,60000.0,Thu Apr 30 2026 16:47:55 GMT-0500 (Central Daylight Time),827472.5,A,pupilenter,I,enter,295,2,2148.4000000059605,825324.099999994,8081,WL,B,9.0
5,18.878000020980835,learn,60000.0,Thu Apr 30 2026 16:47:55 GMT-0500 (Central Daylight Time),828522.1999999881,A,s,I,s,1043,2,1049.4000000059605,827472.7999999821,8081,WL,B,10.0
5,18.977999925613403,learn,60000.0,Thu Apr 30 2026 16:47:55 GMT-0500 (Central Daylight Time),828622.400000006,A,sk,I,k,81,2,1149.6000000238419,827472.7999999821,8081,WL,B,10.0
5,19.111000061035156,learn,60000.0,Thu Apr 30 2026 16:47:55 GMT-0500 (Central Daylight Time),828755.5,A,ski,I,i,125,2,1282.7000000178814,827472.7999999821,8081,WL,B,10.0
5,19.277999877929688,learn,60000.0,Thu Apr 30 2026 16:47:55 GMT-0500 (Central Daylight Time),828922.400000006,A,skin,I,n,152,2,1449.6000000238419,827472.7999999821,8081,WL,B,10.0
5,19.710999965667725,learn,60000.0,Thu Apr 30 2026 16:47:55 GMT-0500 (Central Daylight Time),829355.2999999821,A,skinenter,I,enter,417,2,1882.5,827472.7999999821,8081,WL,B,10.0
5,21.27900004386902,learn,60000.0,Thu Apr 30 2026 16:47:55 GMT-0500 (Central Daylight Time),830923.900000006,A,w,I,w,1555,2,1568.4000000059605,829355.5,8081,WL,B,11.0
5,21.32699990272522,learn,60000.0,Thu Apr 30 2026 16:47:55 GMT-0500 (Central Daylight Time),830971.6999999881,A,wi,I,i,31,2,1616.199999988079,829355.5,8081,WL,B,11.0
5,21.47699999809265,learn,60000.0,Thu Apr 30 2026 16:47:55 GMT-0500 (Central Daylight Time),831121.5,A,win,I,n,141,2,1766.0,829355.5,8081,WL,B,11.0
5,21.55999994277954,learn,60000.0,Thu Apr 30 2026 16:47:55 GMT-0500 (Central Daylight Time),831204.7999999821,A,wind,I,d,74,2,1849.2999999821186,829355.5,8081,WL,B,11.0
5,21.66000008583069,learn,60000.0,Thu Apr 30 2026 16:47:55 GMT-0500 (Central Daylight Time),831304.7999999821,A,windo,I,o,87,2,1949.2999999821186,829355.5,8081,WL,B,11.0
5,21.793999910354614,learn,60000.0,Thu Apr 30 2026 16:47:55 GMT-0500 (Central Daylight Time),831438.099999994,A,window,I,w,115,2,2082.5999999940395,829355.5,8081,WL,B,11.0
5,23.842999935150146,learn,60000.0,Thu Apr 30 2026 16:47:55 GMT-0500 (Central Daylight Time),833487.5,A,windowenter,I,enter,2037,2,4132.0,829355.5,8081,WL,B,11.0
5,24.292999982833862,learn,60000.0,Thu Apr 30 2026 16:47:55 GMT-0500 (Central Daylight Time),833937.099999994,A,f,I,f,436,2,449.30000001192093,833487.7999999821,8081,WL,B,12.0
5,24.425999879837036,learn,60000.0,Thu Apr 30 2026 16:47:55 GMT-0500 (Central Daylight Time),834070.599999994,A,fi,I,i,115,2,582.8000000119209,833487.7999999821,8081,WL,B,12.0
5,24.542999982833862,learn,60000.0,Thu Apr 30 2026 16:47:55 GMT-0500 (Central Daylight Time),834187.2999999821,A,fir,I,r,101,2,699.5,833487.7999999821,8081,WL,B,12.0
5,24.608999967575073,learn,60000.0,Thu Apr 30 2026 16:47:55 GMT-0500 (Central Daylight Time),834253.900000006,A,fire,I,e,48,2,766.1000000238419,833487.7999999821,8081,WL,B,12.0
5,24.9760000705719,learn,60000.0,Thu Apr 30 2026 16:47:55 GMT-0500 (Central Daylight Time),834620.2999999821,A,fireenter,I,enter,358,2,1132.5,833487.7999999821,8081,WL,B,12.0
5,26.158999919891357,learn,60000.0,Thu Apr 30 2026 16:47:55 GMT-0500 (Central Daylight Time),835803.1999999881,A,s,I,s,1175,2,1182.699999988079,834620.5,8081,WL,B,13.0
5,26.325000047683716,learn,60000.0,Thu Apr 30 2026 16:47:55 GMT-0500 (Central Daylight Time),835970.0,A,st,I,t,160,2,1349.5,834620.5,8081,WL,B,13.0
5,26.47499990463257,learn,60000.0,Thu Apr 30 2026 16:47:55 GMT-0500 (Central Daylight Time),836120.0,A,sta,I,a,129,2,1499.5,834620.5,8081,WL,B,13.0
5,26.55900001525879,learn,60000.0,Thu Apr 30 2026 16:47:55 GMT-0500 (Central Daylight Time),836203.2999999821,A,star,I,r,68,2,1582.7999999821186,834620.5,8081,WL,B,13.0
5,27.424999952316284,learn,60000.0,Thu Apr 30 2026 16:47:55 GMT-0500 (Central Daylight Time),837069.599999994,A,starenter,I,enter,848,2,2449.0999999940395,834620.5,8081,WL,B,13.0
5,37.63800001144409,learn,60000.0,Thu Apr 30 2026 16:47:55 GMT-0500 (Central Daylight Time),847283.0,A,l,I,l,10206,2,10213.09999999404,837069.900000006,8081,WL,B,14.0
5,38.00499987602234,learn,60000.0,Thu Apr 30 2026 16:47:55 GMT-0500 (Central Daylight Time),847649.599999994,A,la,I,a,352,2,10579.699999988079,837069.900000006,8081,WL,B,14.0
5,38.15499997138977,learn,60000.0,Thu Apr 30 2026 16:47:55 GMT-0500 (Central Daylight Time),847799.5,A,lak,I,k,138,2,10729.59999999404,837069.900000006,8081,WL,B,14.0
5,38.22099995613098,learn,60000.0,Thu Apr 30 2026 16:47:55 GMT-0500 (Central Daylight Time),847866.1999999881,A,lake,I,e,60,2,10796.299999982119,837069.900000006,8081,WL,B,14.0
5,38.454999923706055,learn,60000.0,Thu Apr 30 2026 16:47:55 GMT-0500 (Central Daylight Time),848099.400000006,A,lakeenter,I,enter,217,2,11029.5,837069.900000006,8081,WL,B,14.0
5,38.82099986076355,learn,60000.0,Thu Apr 30 2026 16:47:55 GMT-0500 (Central Daylight Time),848466.099999994,A,c,I,c,352,2,366.40000000596046,848099.6999999881,8081,WL,B,15.0
5,38.9210000038147,learn,60000.0,Thu Apr 30 2026 16:47:55 GMT-0500 (Central Daylight Time),848566.099999994,A,ca,I,a,81,2,466.40000000596046,848099.6999999881,8081,WL,B,15.0
5,39.0550000667572,learn,60000.0,Thu Apr 30 2026 16:47:55 GMT-0500 (Central Daylight Time),848699.2999999821,A,cab,I,b,117,2,599.5999999940395,848099.6999999881,8081,WL,B,15.0
5,39.2039999961853,learn,60000.0,Thu Apr 30 2026 16:47:55 GMT-0500 (Central Daylight Time),848849.099999994,A,cabi,I,i,143,2,749.4000000059605,848099.6999999881,8081,WL,B,15.0
5,39.353999853134155,learn,60000.0,Thu Apr 30 2026 16:47:55 GMT-0500 (Central Daylight Time),848999.1999999881,A,cabin,I,n,138,2,899.5,848099.6999999881,8081,WL,B,15.0
5,39.603999853134155,learn,60000.0,Thu Apr 30 2026 16:47:55 GMT-0500 (Central Daylight Time),849249.099999994,A,cabinenter,I,enter,244,2,1149.4000000059605,848099.6999999881,8081,WL,B,15.0
6,0.7329998016357422,distr,59267.00019836426,Thu Apr 30 2026 16:47:55 GMT-0500 (Central Daylight Time),929374.1999999881,B,b,I,b,715,2,733.1999999880791,928641.0,8081,WL,B,1.0
6,0.8159999847412109,distr,59184.00001525879,Thu Apr 30 2026 16:47:55 GMT-0500 (Central Daylight Time),929457.400000006,B,ba,I,a,75,2,816.4000000059605,928641.0,8081,WL,B,1.0
6,0.8999998569488525,distr,59100.00014305115,Thu Apr 30 2026 16:47:55 GMT-0500 (Central Daylight Time),929540.599999994,B,bab,I,b,74,2,899.5999999940395,928641.0,8081,WL,B,1.0
6,1.8329999446868896,distr,58167.00005531311,Thu Apr 30 2026 16:47:55 GMT-0500 (Central Daylight Time),930473.599999994,B,baby,I,y,927,2,1832.5999999940395,928641.0,8081,WL,B,1.0
6,2.3989999294281006,distr,57601.0000705719,Thu Apr 30 2026 16:47:55 GMT-0500 (Central Daylight Time),931040.099999994,B,babyenter,I,enter,562,2,2399.0999999940395,928641.0,8081,WL,B,1.0
6,4.4649999141693115,distr,55535.00008583069,Thu Apr 30 2026 16:47:55 GMT-0500 (Central Daylight Time),933106.1999999881,B,b,I,b,2051,2,2065.9000000059605,931040.2999999821,8081,WL,B,2.0
6,4.681999921798706,distr,55318.000078201294,Thu Apr 30 2026 16:47:55 GMT-0500 (Central Daylight Time),933322.6999999881,B,bu,I,u,209,2,2282.4000000059605,931040.2999999821,8081,WL,B,2.0
6,4.898000001907349,distr,55101.99999809265,Thu Apr 30 2026 16:47:55 GMT-0500 (Central Daylight Time),933539.2999999821,B,bui,I,i,201,2,2499.0,931040.2999999821,8081,WL,B,2.0
6,5.06499981880188,distr,54935.00018119812,Thu Apr 30 2026 16:47:55 GMT-0500 (Central Daylight Time),933706.0,B,buil,I,l,160,2,2665.7000000178814,931040.2999999821,8081,WL,B,2.0
6,5.247999906539917,distr,54752.00009346008,Thu Apr 30 2026 16:47:55 GMT-0500 (Central Daylight Time),933889.2999999821,B,build,I,d,170,2,2849.0,931040.2999999821,8081,WL,B,2.0
6,5.31499981880188,distr,54685.00018119812,Thu Apr 30 2026 16:47:55 GMT-0500 (Central Daylight Time),933955.900000006,B,buildi,I,i,58,2,2915.600000023842,931040.2999999821,8081,WL,B,2.0
6,5.4649999141693115,distr,54535.00008583069,Thu Apr 30 2026 16:47:55 GMT-0500 (Central Daylight Time),934105.7999999821,B,buildin,I,n,144,2,3065.5,931040.2999999821,8081,WL,B,2.0
6,5.630999803543091,distr,54369.00019645691,Thu Apr 30 2026 16:47:55 GMT-0500 (Central Daylight Time),934272.5,B,building,I,g,160,2,3232.2000000178814,931040.2999999821,8081,WL,B,2.0
6,6.0309998989105225,distr,53969.00010108948,Thu Apr 30 2026 16:47:55 GMT-0500 (Central Daylight Time),934672.1999999881,B,buildingenter,I,enter,386,2,3631.9000000059605,931040.2999999821,8081,WL,B,2.0
6,8.13099980354309,distr,51869.00019645691,Thu Apr 30 2026 16:47:55 GMT-0500 (Central Daylight Time),936771.599999994,B,f,I,f,2091,2,2099.0999999940395,934672.5,8081,WL,B,3.0
6,8.313999891281128,distr,51686.00010871887,Thu Apr 30 2026 16:47:55 GMT-0500 (Central Daylight Time),936955.0,B,fr,I,r,176,2,2282.5,934672.5,8081,WL,B,3.0
6,8.44700002670288,distr,51552.99997329712,Thu Apr 30 2026 16:47:55 GMT-0500 (Central Daylight Time),937088.1999999881,B,fre,I,e,112,2,2415.699999988079,934672.5,8081,WL,B,3.0
6,8.646999835968018,distr,51353.00016403198,Thu Apr 30 2026 16:47:55 GMT-0500 (Central Daylight Time),937288.1999999881,B,fres,I,s,195,2,2615.699999988079,934672.5,8081,WL,B,3.0
6,8.830999851226807,distr,51169.00014877319,Thu Apr 30 2026 16:47:55 GMT-0500 (Central Daylight Time),937471.599999994,B,fress,I,s,171,2,2799.0999999940395,934672.5,8081,WL,B,3.0
6,9.21399998664856,distr,50786.00001335144,Thu Apr 30 2026 16:47:55 GMT-0500 (Central Daylight Time),937854.599999994,B,fres,I,backspace,372,2,3182.0999999940395,934672.5,8081,WL,B,3.0
6,9.379999876022339,distr,50620.00012397766,Thu Apr 30 2026 16:47:55 GMT-0500 (Central Daylight Time),938021.1999999881,B,fre,I,backspace,149,2,3348.699999988079,934672.5,8081,WL,B,3.0
6,9.496999979019165,distr,50503.000020980835,Thu Apr 30 2026 16:47:55 GMT-0500 (Central Daylight Time),938138.0,B,fr,I,backspace,110,2,3465.5,934672.5,8081,WL,B,3.0
6,9.646999835968018,distr,50353.00016403198,Thu Apr 30 2026 16:47:55 GMT-0500 (Central Daylight Time),938287.7999999821,B,f,I,backspace,138,2,3615.2999999821186,934672.5,8081,WL,B,3.0
6,9.746999979019165,distr,50253.000020980835,Thu Apr 30 2026 16:47:55 GMT-0500 (Central Daylight Time),938387.7999999821,B,,I,backspace,92,2,3715.2999999821186,934672.5,8081,WL,B,3.0
6,10.212999820709229,distr,49787.00017929077,Thu Apr 30 2026 16:47:55 GMT-0500 (Central Daylight Time),938854.2999999821,B,d,I,d,448,2,4181.799999982119,934672.5,8081,WL,B,3.0
6,10.496999979019165,distr,49503.000020980835,Thu Apr 30 2026 16:47:55 GMT-0500 (Central Daylight Time),939137.599999994,B,dr,I,r,269,2,4465.0999999940395,934672.5,8081,WL,B,3.0
6,10.579999923706055,distr,49420.000076293945,Thu Apr 30 2026 16:47:55 GMT-0500 (Central Daylight Time),939220.900000006,B,dre,I,e,74,2,4548.4000000059605,934672.5,8081,WL,B,3.0
6,10.77999997138977,distr,49220.00002861023,Thu Apr 30 2026 16:47:55 GMT-0500 (Central Daylight Time),939420.900000006,B,dres,I,s,191,2,4748.4000000059605,934672.5,8081,WL,B,3.0
6,10.980000019073486,distr,49019.999980926514,Thu Apr 30 2026 16:47:55 GMT-0500 (Central Daylight Time),939620.6999999881,B,dress,I,s,190,2,4948.199999988079,934672.5,8081,WL,B,3.0
6,11.52999997138977,distr,48470.00002861023,Thu Apr 30 2026 16:47:55 GMT-0500 (Central Daylight Time),940170.599999994,B,dressenter,I,enter,543,2,5498.0999999940395,934672.5,8081,WL,B,3.0
6,12.178999900817871,distr,47821.00009918213,Thu Apr 30 2026 16:47:55 GMT-0500 (Central Daylight Time),940820.400000006,B,c,I,c,641,2,649.4000000059605,940171.0,8081,WL,B,4.0
6,12.329999923706055,distr,47670.000076293945,Thu Apr 30 2026 16:47:55 GMT-0500 (Central Daylight Time),940970.599999994,B,ce,I,e,135,2,799.5999999940395,940171.0,8081,WL,B,4.0
6,12.44599986076355,distr,47554.00013923645,Thu Apr 30 2026 16:47:55 GMT-0500 (Central Daylight Time),941087.099999994,B,cel,I,l,105,2,916.0999999940395,940171.0,8081,WL,B,4.0
6,12.595999956130981,distr,47404.00004386902,Thu Apr 30 2026 16:47:55 GMT-0500 (Central Daylight Time),941236.900000006,B,cell,I,l,132,2,1065.9000000059605,940171.0,8081,WL,B,4.0
6,12.845999956130981,distr,47154.00004386902,Thu Apr 30 2026 16:47:55 GMT-0500 (Central Daylight Time),941486.900000006,B,cellenter,I,enter,231,2,1315.9000000059605,940171.0,8081,WL,B,4.0
6,21.942999839782715,distr,38057.000160217285,Thu Apr 30 2026 16:47:55 GMT-0500 (Central Daylight Time),950584.1999999881,B,p,I,p,9092,2,9097.09999999404,941487.099999994,8081,WL,B,5.0
6,22.175999879837036,distr,37824.000120162964,Thu Apr 30 2026 16:47:55 GMT-0500 (Central Daylight Time),950817.099999994,B,pa,I,a,219,2,9330.0,941487.099999994,8081,WL,B,5.0
6,22.292999982833862,distr,37707.00001716614,Thu Apr 30 2026 16:47:55 GMT-0500 (Central Daylight Time),950934.0,B,pal,I,l,98,2,9446.90000000596,941487.099999994,8081,WL,B,5.0
6,22.425999879837036,distr,37574.000120162964,Thu Apr 30 2026 16:47:55 GMT-0500 (Central Daylight Time),951067.2999999821,B,pala,I,a,125,2,9580.199999988079,941487.099999994,8081,WL,B,5.0
6,22.55999994277954,distr,37440.00005722046,Thu Apr 30 2026 16:47:55 GMT-0500 (Central Daylight Time),951200.599999994,B,palac,I,c,120,2,9713.5,941487.099999994,8081,WL,B,5.0
6,22.64299988746643,distr,37357.00011253357,Thu Apr 30 2026 16:47:55 GMT-0500 (Central Daylight Time),951283.6999999881,B,palace,I,e,67,2,9796.59999999404,941487.099999994,8081,WL,B,5.0
6,23.542999982833862,distr,36457.00001716614,Thu Apr 30 2026 16:47:55 GMT-0500 (Central Daylight Time),952183.5,B,palaceenter,I,enter,880,2,10696.40000000596,941487.099999994,8081,WL,B,5.0
6,39.437000036239624,distr,20562.999963760376,Thu Apr 30 2026 16:47:55 GMT-0500 (Central Daylight Time),968078.400000006,B,enter,I,enter,15884,2,15894.600000023842,952183.7999999821,8081,WL,B,6.0
6,39.82099986076355,distr,20179.00013923645,Thu Apr 30 2026 16:47:55 GMT-0500 (Central Daylight Time),968461.7999999821,B,enter,I,enter,373,2,383.09999999403954,968078.6999999881,8081,WL,B,7.0
6,40.15399980545044,distr,19846.00019454956,Thu Apr 30 2026 16:47:55 GMT-0500 (Central Daylight Time),968795.0,B,enter,I,enter,318,2,333.0,968462.0,8081,WL,B,8.0
6,40.48699998855591,distr,19513.00001144409,Thu Apr 30 2026 16:47:55 GMT-0500 (Central Daylight Time),969128.099999994,B,enter,I,enter,321,2,332.80000001192093,968795.2999999821,8081,WL,B,9.0
6,40.853999853134155,distr,19146.000146865845,Thu Apr 30 2026 16:47:55 GMT-0500 (Central Daylight Time),969494.6999999881,B,enter,I,enter,355,2,366.40000000596046,969128.2999999821,8081,WL,B,10.0
6,41.270999908447266,distr,18729.000091552734,Thu Apr 30 2026 16:47:55 GMT-0500 (Central Daylight Time),969911.900000006,B,enter,I,enter,413,2,416.90000000596046,969495.0,8081,WL,B,11.0
6,41.65299987792969,distr,18347.000122070312,Thu Apr 30 2026 16:47:55 GMT-0500 (Central Daylight Time),970294.5,B,enter,I,enter,364,2,382.30000001192093,969912.1999999881,8081,WL,B,12.0
6,42.03699994087219,distr,17963.000059127808,Thu Apr 30 2026 16:47:55 GMT-0500 (Central Daylight Time),970678.0,B,enter,I,enter,365,2,383.2000000178814,970294.7999999821,8081,WL,B,13.0
6,42.43599987030029,distr,17564.000129699707,Thu Apr 30 2026 16:47:55 GMT-0500 (Central Daylight Time),971077.599999994,B,enter,I,enter,382,2,399.30000001192093,970678.2999999821,8081,WL,B,14.0
6,42.90299987792969,distr,17097.000122070312,Thu Apr 30 2026 16:47:55 GMT-0500 (Central Daylight Time),971544.1999999881,B,enter,I,enter,446,2,466.2999999821186,971077.900000006,8081,WL,B,15.0
7,1.815999984741211,immed,58184.00001525879,Thu Apr 30 2026 16:47:55 GMT-0500 (Central Daylight Time),987722.2999999821,A,s,I,s,1801,2,1815.7999999821186,985906.5,8081,WL,B,1.0
7,1.999000072479248,immed,58000.99992752075,Thu Apr 30 2026 16:47:55 GMT-0500 (Central Daylight Time),987905.5,A,st,I,t,168,2,1999.0,985906.5,8081,WL,B,1.0
7,2.2160000801086426,immed,57783.99991989136,Thu Apr 30 2026 16:47:55 GMT-0500 (Central Daylight Time),988122.1999999881,A,str,I,r,210,2,2215.699999988079,985906.5,8081,WL,B,1.0
7,2.4160001277923584,immed,57583.99987220764,Thu Apr 30 2026 16:47:55 GMT-0500 (Central Daylight Time),988322.0,A,stre,I,e,193,2,2415.5,985906.5,8081,WL,B,1.0
7,2.5829999446868896,immed,57417.00005531311,Thu Apr 30 2026 16:47:55 GMT-0500 (Central Daylight Time),988488.6999999881,A,stree,I,e,153,2,2582.199999988079,985906.5,8081,WL,B,1.0
7,2.7660000324249268,immed,57233.99996757507,Thu Apr 30 2026 16:47:55 GMT-0500 (Central Daylight Time),988672.0,A,street,I,t,171,2,2765.5,985906.5,8081,WL,B,1.0
7,3.0490000247955322,immed,56950.99997520447,Thu Apr 30 2026 16:47:55 GMT-0500 (Central Daylight Time),988955.099999994,A,streetenter,I,enter,268,2,3048.5999999940395,985906.5,8081,WL,B,1.0
7,3.3320000171661377,immed,56667.99998283386,Thu Apr 30 2026 16:47:55 GMT-0500 (Central Daylight Time),989238.599999994,A,a,I,a,272,2,283.19999998807907,988955.400000006,8081,WL,B,2.0
7,3.3990001678466797,immed,56600.99983215332,Thu Apr 30 2026 16:47:55 GMT-0500 (Central Daylight Time),989305.1999999881,A,ar,I,r,60,2,349.7999999821186,988955.400000006,8081,WL,B,2.0
7,3.615999937057495,immed,56384.000062942505,Thu Apr 30 2026 16:47:55 GMT-0500 (Central Daylight Time),989521.6999999881,A,arm,I,m,202,2,566.2999999821186,988955.400000006,8081,WL,B,2.0
7,3.865999937057495,immed,56134.000062942505,Thu Apr 30 2026 16:47:55 GMT-0500 (Central Daylight Time),989771.6999999881,A,armenter,I,enter,241,2,816.2999999821186,988955.400000006,8081,WL,B,2.0
7,4.065000057220459,immed,55934.99994277954,Thu Apr 30 2026 16:47:55 GMT-0500 (Central Daylight Time),989971.599999994,A,d,I,d,192,2,199.59999999403954,989772.0,8081,WL,B,3.0
7,4.199000120162964,immed,55800.999879837036,Thu Apr 30 2026 16:47:55 GMT-0500 (Central Daylight Time),990105.099999994,A,do,I,o,128,2,333.09999999403954,989772.0,8081,WL,B,3.0
7,4.365000009536743,immed,55634.99999046326,Thu Apr 30 2026 16:47:55 GMT-0500 (Central Daylight Time),990271.5,A,doo,I,o,146,2,499.5,989772.0,8081,WL,B,3.0
7,4.499000072479248,immed,55500.99992752075,Thu Apr 30 2026 16:47:55 GMT-0500 (Central Daylight Time),990404.6999999881,A,door,I,r,116,2,632.6999999880791,989772.0,8081,WL,B,3.0
7,4.749000072479248,immed,55250.99992752075,Thu Apr 30 2026 16:47:55 GMT-0500 (Central Daylight Time),990654.7999999821,A,doorenter,I,enter,239,2,882.7999999821186,989772.0,8081,WL,B,3.0
7,4.932000160217285,immed,55067.999839782715,Thu Apr 30 2026 16:47:55 GMT-0500 (Central Daylight Time),990838.099999994,A,f,I,f,165,2,183.09999999403954,990655.0,8081,WL,B,4.0
7,5.04800009727478,immed,54951.99990272522,Thu Apr 30 2026 16:47:55 GMT-0500 (Central Daylight Time),990954.6999999881,A,fi,I,i,101,2,299.69999998807907,990655.0,8081,WL,B,4.0
7,5.148000001907349,immed,54851.99999809265,Thu Apr 30 2026 16:47:55 GMT-0500 (Central Daylight Time),991054.599999994,A,fir,I,r,80,2,399.59999999403954,990655.0,8081,WL,B,4.0
7,5.215000152587891,immed,54784.99984741211,Thu Apr 30 2026 16:47:55 GMT-0500 (Central Daylight Time),991121.1999999881,A,fire,I,e,61,2,466.19999998807907,990655.0,8081,WL,B,4.0
7,5.5320000648498535,immed,54467.99993515015,Thu Apr 30 2026 16:47:55 GMT-0500 (Central Daylight Time),991437.900000006,A,fireenter,I,enter,298,2,782.9000000059605,990655.0,8081,WL,B,4.0
7,5.682000160217285,immed,54317.999839782715,Thu Apr 30 2026 16:47:55 GMT-0500 (Central Daylight Time),991587.7999999821,A,w,I,w,133,2,149.59999999403954,991438.1999999881,8081,WL,B,5.0
7,5.7820000648498535,immed,54217.99993515015,Thu Apr 30 2026 16:47:55 GMT-0500 (Central Daylight Time),991688.099999994,A,wi,I,i,96,2,249.90000000596046,991438.1999999881,8081,WL,B,5.0
7,5.881999969482422,immed,54118.00003051758,Thu Apr 30 2026 16:47:55 GMT-0500 (Central Daylight Time),991788.0,A,wif,I,f,83,2,349.80000001192093,991438.1999999881,8081,WL,B,5.0
7,5.965000152587891,immed,54034.99984741211,Thu Apr 30 2026 16:47:55 GMT-0500 (Central Daylight Time),991871.0,A,wife,I,e,64,2,432.80000001192093,991438.1999999881,8081,WL,B,5.0
7,6.332000017166138,immed,53667.99998283386,Thu Apr 30 2026 16:47:55 GMT-0500 (Central Daylight Time),992237.7999999821,A,wifeenter,I,enter,348,2,799.5999999940395,991438.1999999881,8081,WL,B,5.0
7,6.664999961853027,immed,53335.00003814697,Thu Apr 30 2026 16:47:55 GMT-0500 (Central Daylight Time),992570.7999999821,A,s,I,s,326,2,332.69999998807907,992238.099999994,8081,WL,B,6.0
7,6.781000137329102,immed,53218.9998626709,Thu Apr 30 2026 16:47:55 GMT-0500 (Central Daylight Time),992687.400000006,A,sk,I,k,97,2,449.30000001192093,992238.099999994,8081,WL,B,6.0
7,6.947999954223633,immed,53052.00004577637,Thu Apr 30 2026 16:47:55 GMT-0500 (Central Daylight Time),992854.099999994,A,ski,I,i,148,2,616.0,992238.099999994,8081,WL,B,6.0
7,7.13100004196167,immed,52868.99995803833,Thu Apr 30 2026 16:47:55 GMT-0500 (Central Daylight Time),993037.400000006,A,skin,I,n,165,2,799.3000000119209,992238.099999994,8081,WL,B,6.0
7,7.414000034332275,immed,52585.999965667725,Thu Apr 30 2026 16:47:55 GMT-0500 (Central Daylight Time),993320.599999994,A,skinenter,I,enter,270,2,1082.5,992238.099999994,8081,WL,B,6.0
7,7.748000144958496,immed,52251.999855041504,Thu Apr 30 2026 16:47:55 GMT-0500 (Central Daylight Time),993653.6999999881,A,p,I,p,315,2,332.90000000596046,993320.7999999821,8081,WL,B,7.0
7,7.930999994277954,immed,52069.000005722046,Thu Apr 30 2026 16:47:55 GMT-0500 (Central Daylight Time),993837.099999994,A,pu,I,u,174,2,516.3000000119209,993320.7999999821,8081,WL,B,7.0
7,8.38100004196167,immed,51618.99995803833,Thu Apr 30 2026 16:47:55 GMT-0500 (Central Daylight Time),994287.099999994,A,pup,I,p,430,2,966.3000000119209,993320.7999999821,8081,WL,B,7.0
7,8.581000089645386,immed,51418.999910354614,Thu Apr 30 2026 16:47:55 GMT-0500 (Central Daylight Time),994486.900000006,A,pupi,I,i,180,2,1166.1000000238419,993320.7999999821,8081,WL,B,7.0
7,8.814000129699707,immed,51185.99987030029,Thu Apr 30 2026 16:47:55 GMT-0500 (Central Daylight Time),994720.099999994,A,pupil,I,l,213,2,1399.300000011921,993320.7999999821,8081,WL,B,7.0
7,9.993000030517578,immed,50006.99996948242,Thu Apr 30 2026 16:47:55 GMT-0500 (Central Daylight Time),995899.099999994,A,pupilenter,I,enter,1174,2,2578.300000011921,993320.7999999821,8081,WL,B,7.0
7,10.200000047683716,immed,49799.999952316284,Thu Apr 30 2026 16:47:55 GMT-0500 (Central Daylight Time),996106.0,A,c,I,c,192,2,206.59999999403954,995899.400000006,8081,WL,B,8.0
7,10.312999963760376,immed,49687.000036239624,Thu Apr 30 2026 16:47:55 GMT-0500 (Central Daylight Time),996219.6999999881,A,ci,I,i,105,2,320.2999999821186,995899.400000006,8081,WL,B,8.0
7,10.463000059127808,immed,49536.99994087219,Thu Apr 30 2026 16:47:55 GMT-0500 (Central Daylight Time),996369.5,A,cit,I,t,144,2,470.09999999403954,995899.400000006,8081,WL,B,8.0
7,10.61300015449524,immed,49386.99984550476,Thu Apr 30 2026 16:47:55 GMT-0500 (Central Daylight Time),996519.599999994,A,city,I,y,138,2,620.1999999880791,995899.400000006,8081,WL,B,8.0
7,14.161999940872192,immed,45838.00005912781,Thu Apr 30 2026 16:47:55 GMT-0500 (Central Daylight Time),1000068.400000006,A,cityenter,I,enter,3539,2,4169.0,995899.400000006,8081,WL,B,8.0
7,16.478000164031982,immed,43521.99983596802,Thu Apr 30 2026 16:47:55 GMT-0500 (Central Daylight Time),1002384.5,A,f,I,f,2303,2,2315.800000011921,1000068.6999999881,8081,WL,B,9.0
7,16.57800006866455,immed,43421.99993133545,Thu Apr 30 2026 16:47:55 GMT-0500 (Central Daylight Time),1002484.2999999821,A,fi,I,i,83,2,2415.5999999940395,1000068.6999999881,8081,WL,B,9.0
7,16.67799997329712,immed,43322.00002670288,Thu Apr 30 2026 16:47:55 GMT-0500 (Central Daylight Time),1002584.2999999821,A,fir,I,r,79,2,2515.5999999940395,1000068.6999999881,8081,WL,B,9.0
7,16.728000164031982,immed,43271.99983596802,Thu Apr 30 2026 16:47:55 GMT-0500 (Central Daylight Time),1002634.400000006,A,fire,I,e,43,2,2565.7000000178814,1000068.6999999881,8081,WL,B,9.0
7,18.39400005340576,immed,41605.99994659424,Thu Apr 30 2026 16:47:55 GMT-0500 (Central Daylight Time),1004300.5,A,fireenter,I,enter,1649,2,4231.800000011921,1000068.6999999881,8081,WL,B,9.0
7,18.91100001335144,immed,41088.99998664856,Thu Apr 30 2026 16:47:55 GMT-0500 (Central Daylight Time),1004817.0,A,s,I,s,511,2,516.3000000119209,1004300.6999999881,8081,WL,B,10.0
7,19.094000101089478,immed,40905.99989891052,Thu Apr 30 2026 16:47:55 GMT-0500 (Central Daylight Time),1005000.2999999821,A,st,I,t,170,2,699.5999999940395,1004300.6999999881,8081,WL,B,10.0
7,19.22699999809265,immed,40773.00000190735,Thu Apr 30 2026 16:47:55 GMT-0500 (Central Daylight Time),1005133.599999994,A,sta,I,a,123,2,832.9000000059605,1004300.6999999881,8081,WL,B,10.0
7,19.3270001411438,immed,40672.9998588562,Thu Apr 30 2026 16:47:55 GMT-0500 (Central Daylight Time),1005233.599999994,A,star,I,r,94,2,932.9000000059605,1004300.6999999881,8081,WL,B,10.0
7,20.210000038146973,immed,39789.99996185303,Thu Apr 30 2026 16:47:55 GMT-0500 (Central Daylight Time),1006116.5,A,starenter,I,enter,874,2,1815.800000011921,1004300.6999999881,8081,WL,B,10.0
7,21.592999935150146,immed,38407.00006484985,Thu Apr 30 2026 16:47:55 GMT-0500 (Central Daylight Time),1007499.2999999821,A,d,I,d,1375,2,1382.5999999940395,1006116.6999999881,8081,WL,B,11.0
7,21.710000038146973,immed,38289.99996185303,Thu Apr 30 2026 16:47:55 GMT-0500 (Central Daylight Time),1007616.1999999881,A,do,I,o,112,2,1499.5,1006116.6999999881,8081,WL,B,11.0
7,21.89300012588501,immed,38106.99987411499,Thu Apr 30 2026 16:47:55 GMT-0500 (Central Daylight Time),1007799.5,A,doo,I,o,162,2,1682.800000011921,1006116.6999999881,8081,WL,B,11.0
7,21.97699999809265,immed,38023.00000190735,Thu Apr 30 2026 16:47:55 GMT-0500 (Central Daylight Time),1007882.6999999881,A,door,I,r,68,2,1766.0,1006116.6999999881,8081,WL,B,11.0
7,22.360000133514404,immed,37639.999866485596,Thu Apr 30 2026 16:47:55 GMT-0500 (Central Daylight Time),1008265.900000006,A,doorenter,I,enter,377,2,2149.2000000178814,1006116.6999999881,8081,WL,B,11.0
7,25.608999967575073,immed,34391.00003242493,Thu Apr 30 2026 16:47:55 GMT-0500 (Central Daylight Time),1011514.900000006,A,g,I,g,3234,2,3248.800000011921,1008266.099999994,8081,WL,B,12.0
7,25.842000007629395,immed,34157.999992370605,Thu Apr 30 2026 16:47:55 GMT-0500 (Central Daylight Time),1011748.099999994,A,gr,I,r,216,2,3482.0,1008266.099999994,8081,WL,B,12.0
7,25.89199995994568,immed,34108.00004005432,Thu Apr 30 2026 16:47:55 GMT-0500 (Central Daylight Time),1011798.099999994,A,gra,I,a,39,2,3532.0,1008266.099999994,8081,WL,B,12.0
7,26.225000143051147,immed,33774.99985694885,Thu Apr 30 2026 16:47:55 GMT-0500 (Central Daylight Time),1012131.1999999881,A,gras,I,s,317,2,3865.0999999940395,1008266.099999994,8081,WL,B,12.0
7,26.375,immed,33625.0,Thu Apr 30 2026 16:47:55 GMT-0500 (Central Daylight Time),1012281.2999999821,A,grass,I,s,144,2,4015.199999988079,1008266.099999994,8081,WL,B,12.0
7,26.64199995994568,immed,33358.00004005432,Thu Apr 30 2026 16:47:55 GMT-0500 (Central Daylight Time),1012547.7999999821,A,grassenter,I,enter,258,2,4281.699999988079,1008266.099999994,8081,WL,B,12.0
7,29.058000087738037,immed,30941.999912261963,Thu Apr 30 2026 16:47:55 GMT-0500 (Central Daylight Time),1014963.900000006,A,w,I,w,2400,2,2415.9000000059605,1012548.0,8081,WL,B,13.0
7,29.157999992370605,immed,30842.000007629395,Thu Apr 30 2026 16:47:55 GMT-0500 (Central Daylight Time),1015064.0,A,wi,I,i,96,2,2516.0,1012548.0,8081,WL,B,13.0
7,29.223999977111816,immed,30776.000022888184,Thu Apr 30 2026 16:47:55 GMT-0500 (Central Daylight Time),1015130.6999999881,A,wif,I,f,60,2,2582.699999988079,1012548.0,8081,WL,B,13.0
7,29.341000080108643,immed,30658.999919891357,Thu Apr 30 2026 16:47:55 GMT-0500 (Central Daylight Time),1015247.0,A,wife,I,e,97,2,2699.0,1012548.0,8081,WL,B,13.0
7,29.591000080108643,immed,30408.999919891357,Thu Apr 30 2026 16:47:55 GMT-0500 (Central Daylight Time),1015496.900000006,A,wifeenter,I,enter,236,2,2948.9000000059605,1012548.0,8081,WL,B,13.0
7,34.97200012207031,immed,25027.999877929688,Thu Apr 30 2026 16:47:55 GMT-0500 (Central Daylight Time),1020878.6999999881,A,p,I,p,5362,2,5381.5,1015497.1999999881,8081,WL,B,14.0
7,35.1560001373291,immed,24843.9998626709,Thu Apr 30 2026 16:47:55 GMT-0500 (Central Daylight Time),1021061.900000006,A,pu,I,u,172,2,5564.700000017881,1015497.1999999881,8081,WL,B,14.0
7,35.388999938964844,immed,24611.000061035156,Thu Apr 30 2026 16:47:55 GMT-0500 (Central Daylight Time),1021295.099999994,A,pup,I,p,213,2,5797.9000000059605,1015497.1999999881,8081,WL,B,14.0
7,35.5550000667572,immed,24444.999933242798,Thu Apr 30 2026 16:47:55 GMT-0500 (Central Daylight Time),1021461.6999999881,A,pupi,I,i,148,2,5964.5,1015497.1999999881,8081,WL,B,14.0
7,35.75500011444092,immed,24244.999885559082,Thu Apr 30 2026 16:47:55 GMT-0500 (Central Daylight Time),1021661.7999999821,A,pupil,I,l,182,2,6164.5999999940395,1015497.1999999881,8081,WL,B,14.0
7,36.00500011444092,immed,23994.999885559082,Thu Apr 30 2026 16:47:55 GMT-0500 (Central Daylight Time),1021911.5,A,pupilenter,I,enter,230,2,6414.300000011921,1015497.1999999881,8081,WL,B,14.0
7,36.390000104904175,immed,23609.999895095825,Thu Apr 30 2026 16:47:55 GMT-0500 (Central Daylight Time),1022296.0,A,s,I,s,372,2,384.2000000178814,1021911.7999999821,8081,WL,B,15.0
7,36.47200012207031,immed,23527.999877929688,Thu Apr 30 2026 16:47:55 GMT-0500 (Central Daylight Time),1022378.1999999881,A,sk,I,k,68,2,466.40000000596046,1021911.7999999821,8081,WL,B,15.0
7,36.621999979019165,immed,23378.000020980835,Thu Apr 30 2026 16:47:55 GMT-0500 (Central Daylight Time),1022527.900000006,A,ski,I,i,145,2,616.1000000238419,1021911.7999999821,8081,WL,B,15.0
7,36.7720000743866,immed,23227.999925613403,Thu Apr 30 2026 16:47:55 GMT-0500 (Central Daylight Time),1022678.1999999881,A,skin,I,n,132,2,766.4000000059605,1021911.7999999821,8081,WL,B,15.0
7,37.03800010681152,immed,22961.999893188477,Thu Apr 30 2026 16:47:55 GMT-0500 (Central Daylight Time),1022944.599999994,A,skinenter,I,enter,261,2,1032.800000011921,1021911.7999999821,8081,WL,B,15.0
