acc_sum,block,block_c,block_cond,con_img,correct,correct_response,datetime,endtime,face,jitter,line,project,response,response_time,row_sel,session_number,start_end,starttime,subject_id,task,task_vers,trial
1,prac,1,A,haborder.png,1,z,Tue Oct 14 2025 17:34:52 GMT-0500 (Central Daylight Time),52746.700000047684,CFD-WF-023-013-A.jpg,1000,solid,O,z,1233,12,1,3031.7000000476837,49715.0,7227,ATS,C,1
1,prac,1,A,haborder.png,0,z,Tue Oct 14 2025 17:34:52 GMT-0500 (Central Daylight Time),56644.90000009537,CFD-BM-043-014-A.jpg,1600,solid,O,None,1515,2,1,6929.900000095367,49715.0,7227,ATS,C,2
2,prac,1,A,haborder.png,1,z,Tue Oct 14 2025 17:34:52 GMT-0500 (Central Daylight Time),60559.59999990463,CFD-WM-036-018-A.jpg,1900,solid,O,z,1216,8,1,10844.599999904633,49715.0,7227,ATS,C,3
3,prac,1,A,haborder.png,1,m,Tue Oct 14 2025 17:34:52 GMT-0500 (Central Daylight Time),64492.5,CFD-BF-019-004-HC.jpg,2000,solid,O,m,1138,5,1,14777.5,49715.0,7227,ATS,C,4
4,prac,1,A,haborder.png,1,m,Tue Oct 14 2025 17:34:52 GMT-0500 (Central Daylight Time),67691.70000004768,CFD-BM-022-004-HC.jpg,1500,solid,O,m,920,3,1,17976.700000047684,49715.0,7227,ATS,C,5
5,prac,1,A,haborder.png,1,m,Tue Oct 14 2025 17:34:52 GMT-0500 (Central Daylight Time),70973.20000004768,CFD-WM-028-005-HC.jpg,1400,solid,O,m,1094,7,1,21258.200000047684,49715.0,7227,ATS,C,6
6,prac,1,A,haborder.png,1,z,Tue Oct 14 2025 17:34:52 GMT-0500 (Central Daylight Time),74188.5,CFD-WF-037-016-A.jpg,1600,solid,O,z,820,10,1,24473.5,49715.0,7227,ATS,C,7
7,prac,1,A,haborder.png,1,m,Tue Oct 14 2025 17:34:52 GMT-0500 (Central Daylight Time),77772.09999990463,CFD-BM-034-035-HC.jpg,1700,solid,O,m,1104,1,1,28057.099999904633,49715.0,7227,ATS,C,8
8,prac,1,A,haborder.png,1,z,Tue Oct 14 2025 17:34:52 GMT-0500 (Central Daylight Time),80236.90000009537,CFD-BF-031-020-A.jpg,1000,solid,O,z,671,4,1,30521.900000095367,49715.0,7227,ATS,C,9
9,prac,1,A,haborder.png,1,m,Tue Oct 14 2025 17:34:52 GMT-0500 (Central Daylight Time),83535.59999990463,CFD-WM-035-036-HC.jpg,1700,solid,O,m,800,9,1,33820.59999990463,49715.0,7227,ATS,C,10
10,prac,1,A,haborder.png,1,m,Tue Oct 14 2025 17:34:52 GMT-0500 (Central Daylight Time),86551.40000009537,CFD-WF-013-009-HC.jpg,1500,solid,O,m,716,11,1,36836.40000009537,49715.0,7227,ATS,C,11
11,prac,1,A,haborder.png,1,z,Tue Oct 14 2025 17:34:52 GMT-0500 (Central Daylight Time),89300.90000009537,CFD-BF-002-018-A.jpg,1200,solid,O,z,760,6,1,39585.90000009537,49715.0,7227,ATS,C,12
1,prac,1,B,mfborder.png,1,z,Tue Oct 14 2025 17:34:52 GMT-0500 (Central Daylight Time),119938.79999995232,CFD-BF-031-020-A.jpg,1000,4,O,z,1198,dash,1,2980.5,116958.29999995232,7227,ATS,C,1
1,prac,1,B,mfborder.png,0,z,Tue Oct 14 2025 17:34:52 GMT-0500 (Central Daylight Time),123242.0,CFD-WF-013-009-HC.jpg,1000,12,O,None,1516,dash,1,6283.700000047684,116958.29999995232,7227,ATS,C,2
1,prac,1,B,mfborder.png,0,m,Tue Oct 14 2025 17:34:52 GMT-0500 (Central Daylight Time),127239.40000009537,CFD-WM-036-018-A.jpg,1700,9,O,None,1515,dash,1,10281.100000143051,116958.29999995232,7227,ATS,C,3
2,prac,1,B,mfborder.png,1,z,Tue Oct 14 2025 17:34:52 GMT-0500 (Central Daylight Time),130422.40000009537,CFD-BF-019-004-HC.jpg,1400,7,O,z,992,dash,1,13464.100000143051,116958.29999995232,7227,ATS,C,4
2,prac,1,B,mfborder.png,0,z,Tue Oct 14 2025 17:34:52 GMT-0500 (Central Daylight Time),133903.29999995232,CFD-BF-042-031-HC.jpg,1500,3,O,m,1192,dash,1,16945.0,116958.29999995232,7227,ATS,C,5
2,prac,1,B,mfborder.png,0,z,Tue Oct 14 2025 17:34:52 GMT-0500 (Central Daylight Time),138102.0,CFD-WF-001-010-HC.jpg,1900,8,O,None,1515,dash,1,21143.700000047684,116958.29999995232,7227,ATS,C,6
3,prac,1,B,mfborder.png,1,m,Tue Oct 14 2025 17:34:52 GMT-0500 (Central Daylight Time),141816.90000009537,CFD-BM-043-014-A.jpg,2000,5,O,m,932,dash,1,24858.60000014305,116958.29999995232,7227,ATS,C,7
4,prac,1,B,mfborder.png,1,m,Tue Oct 14 2025 17:34:52 GMT-0500 (Central Daylight Time),145215.5,CFD-BM-021-026-A.jpg,1600,2,O,m,1002,dash,1,28257.200000047684,116958.29999995232,7227,ATS,C,8
5,prac,1,B,mfborder.png,1,z,Tue Oct 14 2025 17:34:52 GMT-0500 (Central Daylight Time),148532.09999990463,CFD-WF-037-016-A.jpg,1500,11,O,z,1022,dash,1,31573.799999952316,116958.29999995232,7227,ATS,C,9
6,prac,1,B,mfborder.png,1,m,Tue Oct 14 2025 17:34:52 GMT-0500 (Central Daylight Time),151916.20000004768,CFD-BM-022-004-HC.jpg,1700,1,O,m,905,dash,1,34957.90000009537,116958.29999995232,7227,ATS,C,10
7,prac,1,B,mfborder.png,1,m,Tue Oct 14 2025 17:34:52 GMT-0500 (Central Daylight Time),155196.20000004768,CFD-WM-034-040-A.jpg,1200,6,O,m,1296,dash,1,38237.90000009537,116958.29999995232,7227,ATS,C,11
8,prac,1,B,mfborder.png,1,m,Tue Oct 14 2025 17:34:52 GMT-0500 (Central Daylight Time),158928.79999995232,CFD-WM-035-036-HC.jpg,1600,10,O,m,1341,dash,1,41970.5,116958.29999995232,7227,ATS,C,12
1,test,1,A,haborder.png,1,m,Tue Oct 14 2025 17:34:52 GMT-0500 (Central Daylight Time),176523.20000004768,CFD-BM-034-035-HC.jpg,1700,solid,O,m,1083,1,1,2799.0,173724.20000004768,7227,ATS,C,1
1,test,1,A,haborder.png,0,z,Tue Oct 14 2025 17:34:52 GMT-0500 (Central Daylight Time),179055.70000004768,CFD-WF-037-016-A.jpg,1600,solid,O,m,902,10,1,5331.5,173724.20000004768,7227,ATS,C,2
2,test,1,A,haborder.png,1,m,Tue Oct 14 2025 17:34:52 GMT-0500 (Central Daylight Time),181387.20000004768,CFD-BM-022-004-HC.jpg,1500,solid,O,m,804,3,1,7663.0,173724.20000004768,7227,ATS,C,3
3,test,1,A,haborder.png,1,z,Tue Oct 14 2025 17:34:52 GMT-0500 (Central Daylight Time),183186.29999995232,CFD-WF-023-013-A.jpg,1000,solid,O,z,772,12,1,9462.099999904633,173724.20000004768,7227,ATS,C,4
4,test,1,A,haborder.png,1,m,Tue Oct 14 2025 17:34:52 GMT-0500 (Central Daylight Time),186153.90000009537,CFD-WF-013-009-HC.jpg,1500,solid,O,m,1433,11,1,12429.700000047684,173724.20000004768,7227,ATS,C,5
5,test,1,A,haborder.png,1,m,Tue Oct 14 2025 17:34:52 GMT-0500 (Central Daylight Time),188485.5,CFD-WM-028-005-HC.jpg,1400,solid,O,m,911,7,1,14761.299999952316,173724.20000004768,7227,ATS,C,6
5,test,1,A,haborder.png,0,z,Tue Oct 14 2025 17:34:52 GMT-0500 (Central Daylight Time),191234.59999990463,CFD-BM-043-014-A.jpg,1600,solid,O,m,1099,2,1,17510.39999985695,173724.20000004768,7227,ATS,C,7
6,test,1,A,haborder.png,1,z,Tue Oct 14 2025 17:34:52 GMT-0500 (Central Daylight Time),193700.29999995232,CFD-BF-002-018-A.jpg,1200,solid,O,z,1238,6,1,19976.099999904633,173724.20000004768,7227,ATS,C,8
7,test,1,A,haborder.png,1,z,Tue Oct 14 2025 17:34:52 GMT-0500 (Central Daylight Time),196033.29999995232,CFD-WF-037-016-A.jpg,1600,solid,O,z,710,10,1,22309.099999904633,173724.20000004768,7227,ATS,C,9
8,test,1,A,haborder.png,1,z,Tue Oct 14 2025 17:34:52 GMT-0500 (Central Daylight Time),198116.20000004768,CFD-BF-031-020-A.jpg,1000,solid,O,z,1057,4,1,24392.0,173724.20000004768,7227,ATS,C,10
9,test,1,A,haborder.png,1,m,Tue Oct 14 2025 17:34:52 GMT-0500 (Central Daylight Time),200765.79999995232,CFD-WM-035-036-HC.jpg,1700,solid,O,m,921,9,1,27041.599999904633,173724.20000004768,7227,ATS,C,11
10,test,1,A,haborder.png,1,m,Tue Oct 14 2025 17:34:52 GMT-0500 (Central Daylight Time),203180.59999990463,CFD-BM-022-004-HC.jpg,1500,solid,O,m,896,3,1,29456.39999985695,173724.20000004768,7227,ATS,C,12
11,test,1,A,haborder.png,1,m,Tue Oct 14 2025 17:34:52 GMT-0500 (Central Daylight Time),205764.79999995232,CFD-WM-035-036-HC.jpg,1700,solid,O,m,865,9,1,32040.599999904633,173724.20000004768,7227,ATS,C,13
11,test,1,A,haborder.png,0,z,Tue Oct 14 2025 17:34:52 GMT-0500 (Central Daylight Time),209196.09999990463,CFD-WM-036-018-A.jpg,1900,solid,O,None,1516,8,1,35471.89999985695,173724.20000004768,7227,ATS,C,14
12,test,1,A,haborder.png,1,m,Tue Oct 14 2025 17:34:52 GMT-0500 (Central Daylight Time),211929.0,CFD-WF-013-009-HC.jpg,1500,solid,O,m,1200,11,1,38204.799999952316,173724.20000004768,7227,ATS,C,15
13,test,1,A,haborder.png,1,m,Tue Oct 14 2025 17:34:52 GMT-0500 (Central Daylight Time),215012.0,CFD-BF-019-004-HC.jpg,2000,solid,O,m,1067,5,1,41287.799999952316,173724.20000004768,7227,ATS,C,16
14,test,1,A,haborder.png,1,z,Tue Oct 14 2025 17:34:52 GMT-0500 (Central Daylight Time),217476.5,CFD-BM-043-014-A.jpg,1600,solid,O,z,839,2,1,43752.299999952316,173724.20000004768,7227,ATS,C,17
15,test,1,A,haborder.png,1,m,Tue Oct 14 2025 17:34:52 GMT-0500 (Central Daylight Time),220393.70000004768,CFD-BF-019-004-HC.jpg,2000,solid,O,m,886,5,1,46669.5,173724.20000004768,7227,ATS,C,18
16,test,1,A,haborder.png,1,z,Tue Oct 14 2025 17:34:52 GMT-0500 (Central Daylight Time),222241.29999995232,CFD-WF-023-013-A.jpg,1000,solid,O,z,816,12,1,48517.09999990463,173724.20000004768,7227,ATS,C,19
17,test,1,A,haborder.png,1,m,Tue Oct 14 2025 17:34:52 GMT-0500 (Central Daylight Time),224891.5,CFD-BM-034-035-HC.jpg,1700,solid,O,m,933,1,1,51167.299999952316,173724.20000004768,7227,ATS,C,20
18,test,1,A,haborder.png,1,m,Tue Oct 14 2025 17:34:52 GMT-0500 (Central Daylight Time),227022.70000004768,CFD-WM-028-005-HC.jpg,1400,solid,O,m,710,7,1,53298.5,173724.20000004768,7227,ATS,C,21
19,test,1,A,haborder.png,1,z,Tue Oct 14 2025 17:34:52 GMT-0500 (Central Daylight Time),229706.90000009537,CFD-WM-036-018-A.jpg,1900,solid,O,z,750,8,1,55982.700000047684,173724.20000004768,7227,ATS,C,22
20,test,1,A,haborder.png,1,z,Tue Oct 14 2025 17:34:52 GMT-0500 (Central Daylight Time),231688.20000004768,CFD-BF-031-020-A.jpg,1000,solid,O,z,959,4,1,57964.0,173724.20000004768,7227,ATS,C,23
21,test,1,A,haborder.png,1,z,Tue Oct 14 2025 17:34:52 GMT-0500 (Central Daylight Time),233921.79999995232,CFD-BF-002-018-A.jpg,1200,solid,O,z,1017,6,1,60197.59999990463,173724.20000004768,7227,ATS,C,24
1,test,1,B,mfborder.png,1,z,Tue Oct 14 2025 17:34:52 GMT-0500 (Central Daylight Time),246152.70000004768,CFD-BF-019-004-HC.jpg,1400,dash,O,z,1028,7,1,2450.7999999523163,243701.90000009537,7227,ATS,C,1
2,test,1,B,mfborder.png,1,z,Tue Oct 14 2025 17:34:52 GMT-0500 (Central Daylight Time),247949.70000004768,CFD-BF-031-020-A.jpg,1000,dash,O,z,778,4,1,4247.799999952316,243701.90000009537,7227,ATS,C,2
3,test,1,B,mfborder.png,1,z,Tue Oct 14 2025 17:34:52 GMT-0500 (Central Daylight Time),250099.09999990463,CFD-BF-042-031-HC.jpg,1500,dash,O,z,631,3,1,6397.199999809265,243701.90000009537,7227,ATS,C,3
4,test,1,B,mfborder.png,1,m,Tue Oct 14 2025 17:34:52 GMT-0500 (Central Daylight Time),252631.40000009537,CFD-BM-022-004-HC.jpg,1700,dash,O,m,802,1,1,8929.5,243701.90000009537,7227,ATS,C,4
5,test,1,B,mfborder.png,1,z,Tue Oct 14 2025 17:34:52 GMT-0500 (Central Daylight Time),255731.20000004768,CFD-WF-001-010-HC.jpg,1900,dash,O,z,1181,8,1,12029.299999952316,243701.90000009537,7227,ATS,C,5
6,test,1,B,mfborder.png,1,z,Tue Oct 14 2025 17:34:52 GMT-0500 (Central Daylight Time),257980.0,CFD-BF-019-004-HC.jpg,1400,dash,O,z,824,7,1,14278.099999904633,243701.90000009537,7227,ATS,C,6
7,test,1,B,mfborder.png,1,m,Tue Oct 14 2025 17:34:52 GMT-0500 (Central Daylight Time),260479.5,CFD-WM-035-036-HC.jpg,1600,dash,O,m,869,10,1,16777.599999904633,243701.90000009537,7227,ATS,C,7
8,test,1,B,mfborder.png,1,m,Tue Oct 14 2025 17:34:52 GMT-0500 (Central Daylight Time),263162.59999990463,CFD-WM-036-018-A.jpg,1700,dash,O,m,949,9,1,19460.699999809265,243701.90000009537,7227,ATS,C,8
9,test,1,B,mfborder.png,1,m,Tue Oct 14 2025 17:34:52 GMT-0500 (Central Daylight Time),265261.0,CFD-WM-034-040-A.jpg,1200,dash,O,m,870,6,1,21559.099999904633,243701.90000009537,7227,ATS,C,9
10,test,1,B,mfborder.png,1,z,Tue Oct 14 2025 17:34:52 GMT-0500 (Central Daylight Time),266959.7000000477,CFD-BF-031-020-A.jpg,1000,dash,O,z,677,4,1,23257.799999952316,243701.90000009537,7227,ATS,C,10
11,test,1,B,mfborder.png,1,m,Tue Oct 14 2025 17:34:52 GMT-0500 (Central Daylight Time),269395.0,CFD-WM-035-036-HC.jpg,1600,dash,O,m,801,10,1,25693.099999904633,243701.90000009537,7227,ATS,C,11
12,test,1,B,mfborder.png,1,m,Tue Oct 14 2025 17:34:52 GMT-0500 (Central Daylight Time),272026.0,CFD-BM-021-026-A.jpg,1600,dash,O,m,1016,2,1,28324.099999904633,243701.90000009537,7227,ATS,C,12
13,test,1,B,mfborder.png,1,m,Tue Oct 14 2025 17:34:52 GMT-0500 (Central Daylight Time),274357.7000000477,CFD-BM-021-026-A.jpg,1600,dash,O,m,712,2,1,30655.799999952316,243701.90000009537,7227,ATS,C,13
14,test,1,B,mfborder.png,1,z,Tue Oct 14 2025 17:34:52 GMT-0500 (Central Daylight Time),276257.0,CFD-WF-013-009-HC.jpg,1000,dash,O,z,880,12,1,32555.099999904633,243701.90000009537,7227,ATS,C,14
14,test,1,B,mfborder.png,0,z,Tue Oct 14 2025 17:34:52 GMT-0500 (Central Daylight Time),279290.0,CFD-WF-037-016-A.jpg,1500,dash,O,None,1515,11,1,35588.09999990463,243701.90000009537,7227,ATS,C,15
14,test,1,B,mfborder.png,0,m,Tue Oct 14 2025 17:34:52 GMT-0500 (Central Daylight Time),281489.40000009537,CFD-BM-043-014-A.jpg,2000,dash,O,z,176,5,1,37787.5,243701.90000009537,7227,ATS,C,16
15,test,1,B,mfborder.png,1,m,Tue Oct 14 2025 17:34:52 GMT-0500 (Central Daylight Time),283855.7999999523,CFD-BM-022-004-HC.jpg,1700,dash,O,m,636,1,1,40153.89999985695,243701.90000009537,7227,ATS,C,17
16,test,1,B,mfborder.png,1,m,Tue Oct 14 2025 17:34:52 GMT-0500 (Central Daylight Time),286870.40000009537,CFD-WM-036-018-A.jpg,1700,dash,O,m,1295,9,1,43168.5,243701.90000009537,7227,ATS,C,18
16,test,1,B,mfborder.png,0,z,Tue Oct 14 2025 17:34:52 GMT-0500 (Central Daylight Time),289903.40000009537,CFD-WF-037-016-A.jpg,1500,dash,O,None,1515,11,1,46201.5,243701.90000009537,7227,ATS,C,19
16,test,1,B,mfborder.png,0,z,Tue Oct 14 2025 17:34:52 GMT-0500 (Central Daylight Time),292435.2999999523,CFD-WF-013-009-HC.jpg,1000,dash,O,None,1513,12,1,48733.39999985695,243701.90000009537,7227,ATS,C,20
17,test,1,B,mfborder.png,1,m,Tue Oct 14 2025 17:34:52 GMT-0500 (Central Daylight Time),294269.0,CFD-WM-034-040-A.jpg,1200,dash,O,m,613,6,1,50567.09999990463,243701.90000009537,7227,ATS,C,21
18,test,1,B,mfborder.png,1,m,Tue Oct 14 2025 17:34:52 GMT-0500 (Central Daylight Time),297018.09999990463,CFD-BM-043-014-A.jpg,2000,dash,O,m,725,5,1,53316.199999809265,243701.90000009537,7227,ATS,C,22
19,test,1,B,mfborder.png,1,z,Tue Oct 14 2025 17:34:52 GMT-0500 (Central Daylight Time),299584.2999999523,CFD-BF-042-031-HC.jpg,1500,dash,O,z,1043,3,1,55882.39999985695,243701.90000009537,7227,ATS,C,23
20,test,1,B,mfborder.png,1,z,Tue Oct 14 2025 17:34:52 GMT-0500 (Central Daylight Time),302466.59999990463,CFD-WF-001-010-HC.jpg,1900,dash,O,z,964,8,1,58764.699999809265,243701.90000009537,7227,ATS,C,24
0,prac,1,C,haborder.png,0,z,Tue Oct 14 2025 17:34:52 GMT-0500 (Central Daylight Time),347818.59999990463,CFD-BF-002-018-A.jpg,1700,solid,O,None,1516,8,1,3998.7999999523163,343819.7999999523,7227,ATS,C,1
0,prac,1,C,mfborder.png,0,m,Tue Oct 14 2025 17:34:52 GMT-0500 (Central Daylight Time),352100.0,CFD-BM-034-035-HC.jpg,2000,solid,O,None,1501,8,1,8280.200000047684,343819.7999999523,7227,ATS,C,2
0,prac,1,C,haborder.png,0,m,Tue Oct 14 2025 17:34:52 GMT-0500 (Central Daylight Time),355869.2000000477,CFD-BM-022-004-HC.jpg,1500,solid,O,None,1501,8,1,12049.400000095367,343819.7999999523,7227,ATS,C,3
0,prac,1,C,haborder.png,0,m,Tue Oct 14 2025 17:34:52 GMT-0500 (Central Daylight Time),359581.2000000477,CFD-WM-028-005-HC.jpg,1400,solid,O,None,1516,8,1,15761.400000095367,343819.7999999523,7227,ATS,C,4
0,prac,1,C,haborder.png,0,z,Tue Oct 14 2025 17:34:52 GMT-0500 (Central Daylight Time),363781.5,CFD-BF-031-020-A.jpg,1900,dash,O,None,1516,8,1,19961.700000047684,343819.7999999523,7227,ATS,C,5
0,prac,1,C,mfborder.png,0,m,Tue Oct 14 2025 17:34:52 GMT-0500 (Central Daylight Time),367278.90000009537,CFD-BM-043-014-A.jpg,1200,dash,O,None,1514,8,1,23459.10000014305,343819.7999999523,7227,ATS,C,6
0,prac,1,C,mfborder.png,0,m,Tue Oct 14 2025 17:34:52 GMT-0500 (Central Daylight Time),371260.5,CFD-WM-036-018-A.jpg,1700,solid,O,None,1501,8,1,27440.700000047684,343819.7999999523,7227,ATS,C,7
0,prac,1,C,mfborder.png,0,z,Tue Oct 14 2025 17:34:52 GMT-0500 (Central Daylight Time),374560.0,CFD-BF-019-004-HC.jpg,1000,dash,O,None,1514,8,1,30740.200000047684,343819.7999999523,7227,ATS,C,8
0,prac,1,C,haborder.png,0,z,Tue Oct 14 2025 17:34:52 GMT-0500 (Central Daylight Time),378458.2999999523,CFD-WF-037-016-A.jpg,1600,dash,O,None,1516,8,1,34638.5,343819.7999999523,7227,ATS,C,9
0,prac,1,C,mfborder.png,0,z,Tue Oct 14 2025 17:34:52 GMT-0500 (Central Daylight Time),382356.7999999523,CFD-WF-013-009-HC.jpg,1600,dash,O,None,1515,8,1,38537.0,343819.7999999523,7227,ATS,C,10
0,prac,1,C,haborder.png,0,m,Tue Oct 14 2025 17:34:52 GMT-0500 (Central Daylight Time),385639.5,CFD-WM-028-005-HC.jpg,1000,dash,O,None,1501,8,1,41819.700000047684,343819.7999999523,7227,ATS,C,11
1,prac,1,C,mfborder.png,1,z,Tue Oct 14 2025 17:34:52 GMT-0500 (Central Daylight Time),388922.59999990463,CFD-WF-023-013-A.jpg,1500,solid,O,z,998,8,1,45102.799999952316,343819.7999999523,7227,ATS,C,12
1,test,1,C,mfborder.png,1,z,Tue Oct 14 2025 17:34:52 GMT-0500 (Central Daylight Time),398187.40000009537,CFD-BF-031-020-A.jpg,1600,dash,O,z,961,2,1,2584.100000143051,395603.2999999523,7227,ATS,C,1
2,test,1,C,haborder.png,1,m,Tue Oct 14 2025 17:34:52 GMT-0500 (Central Daylight Time),400868.09999990463,CFD-BF-019-004-HC.jpg,1600,solid,O,m,1055,10,1,5264.799999952316,395603.2999999523,7227,ATS,C,2
2,test,1,C,haborder.png,0,m,Tue Oct 14 2025 17:34:52 GMT-0500 (Central Daylight Time),403716.5,CFD-WF-001-010-HC.jpg,1500,solid,O,z,1328,11,1,8113.200000047684,395603.2999999523,7227,ATS,C,3
3,test,1,C,mfborder.png,1,m,Tue Oct 14 2025 17:34:52 GMT-0500 (Central Daylight Time),406815.59999990463,CFD-WM-034-040-A.jpg,2000,dash,O,m,1077,5,1,11212.299999952316,395603.2999999523,7227,ATS,C,4
4,test,1,C,haborder.png,1,m,Tue Oct 14 2025 17:34:52 GMT-0500 (Central Daylight Time),409064.2000000477,CFD-WF-013-009-HC.jpg,1000,solid,O,m,1216,12,1,13460.900000095367,395603.2999999523,7227,ATS,C,5
4,test,1,C,haborder.png,0,m,Tue Oct 14 2025 17:34:52 GMT-0500 (Central Daylight Time),412199.2000000477,CFD-BF-019-004-HC.jpg,1600,solid,O,None,1516,10,1,16595.900000095367,395603.2999999523,7227,ATS,C,6
4,test,1,C,haborder.png,0,z,Tue Oct 14 2025 17:34:52 GMT-0500 (Central Daylight Time),415438.7000000477,CFD-BM-021-026-A.jpg,1700,solid,O,None,1525,9,1,19835.400000095367,395603.2999999523,7227,ATS,C,7
5,test,1,C,mfborder.png,1,m,Tue Oct 14 2025 17:34:52 GMT-0500 (Central Daylight Time),418079.09999990463,CFD-BM-022-004-HC.jpg,1200,dash,O,m,1426,6,1,22475.799999952316,395603.2999999523,7227,ATS,C,8
6,test,1,C,haborder.png,1,z,Tue Oct 14 2025 17:34:52 GMT-0500 (Central Daylight Time),421228.7000000477,CFD-BM-043-014-A.jpg,1900,solid,O,z,1232,8,1,25625.400000095367,395603.2999999523,7227,ATS,C,9
6,test,1,C,mfborder.png,0,z,Tue Oct 14 2025 17:34:52 GMT-0500 (Central Daylight Time),424260.7000000477,CFD-WF-037-016-A.jpg,1500,dash,O,None,1516,3,1,28657.400000095367,395603.2999999523,7227,ATS,C,10
7,test,1,C,mfborder.png,1,z,Tue Oct 14 2025 17:34:52 GMT-0500 (Central Daylight Time),427108.7000000477,CFD-WF-037-016-A.jpg,1500,dash,O,z,1321,3,1,31505.400000095367,395603.2999999523,7227,ATS,C,11
8,test,1,C,mfborder.png,1,z,Tue Oct 14 2025 17:34:52 GMT-0500 (Central Daylight Time),430240.90000009537,CFD-BF-042-031-HC.jpg,1700,dash,O,z,1407,1,1,34637.60000014305,395603.2999999523,7227,ATS,C,12
8,test,1,C,haborder.png,0,m,Tue Oct 14 2025 17:34:52 GMT-0500 (Central Daylight Time),433276.59999990463,CFD-WF-001-010-HC.jpg,1500,solid,O,None,1518,11,1,37673.299999952316,395603.2999999523,7227,ATS,C,13
8,test,1,C,haborder.png,0,z,Tue Oct 14 2025 17:34:52 GMT-0500 (Central Daylight Time),436206.7999999523,CFD-WM-036-018-A.jpg,1400,solid,O,None,1516,7,1,40603.5,395603.2999999523,7227,ATS,C,14
9,test,1,C,haborder.png,1,m,Tue Oct 14 2025 17:34:52 GMT-0500 (Central Daylight Time),438523.59999990463,CFD-WF-013-009-HC.jpg,1000,solid,O,m,1300,12,1,42920.299999952316,395603.2999999523,7227,ATS,C,15
10,test,1,C,mfborder.png,1,z,Tue Oct 14 2025 17:34:52 GMT-0500 (Central Daylight Time),441156.2000000477,CFD-BF-031-020-A.jpg,1600,dash,O,z,1016,2,1,45552.90000009537,395603.2999999523,7227,ATS,C,16
11,test,1,C,mfborder.png,1,m,Tue Oct 14 2025 17:34:52 GMT-0500 (Central Daylight Time),443338.2000000477,CFD-WM-035-036-HC.jpg,1000,dash,O,m,1157,4,1,47734.90000009537,395603.2999999523,7227,ATS,C,17
12,test,1,C,haborder.png,1,z,Tue Oct 14 2025 17:34:52 GMT-0500 (Central Daylight Time),446555.2999999523,CFD-BM-043-014-A.jpg,1900,solid,O,z,1283,8,1,50952.0,395603.2999999523,7227,ATS,C,18
13,test,1,C,mfborder.png,1,z,Tue Oct 14 2025 17:34:52 GMT-0500 (Central Daylight Time),449568.90000009537,CFD-BF-042-031-HC.jpg,1700,dash,O,z,1283,1,1,53965.60000014305,395603.2999999523,7227,ATS,C,19
13,test,1,C,haborder.png,0,z,Tue Oct 14 2025 17:34:52 GMT-0500 (Central Daylight Time),452802.2000000477,CFD-BM-021-026-A.jpg,1700,solid,O,None,1517,9,1,57198.90000009537,395603.2999999523,7227,ATS,C,20
14,test,1,C,haborder.png,1,z,Tue Oct 14 2025 17:34:52 GMT-0500 (Central Daylight Time),455467.09999990463,CFD-WM-036-018-A.jpg,1400,solid,O,z,1248,7,1,59863.799999952316,395603.2999999523,7227,ATS,C,21
15,test,1,C,mfborder.png,1,m,Tue Oct 14 2025 17:34:52 GMT-0500 (Central Daylight Time),457700.59999990463,CFD-BM-022-004-HC.jpg,1200,dash,O,m,1007,6,1,62097.299999952316,395603.2999999523,7227,ATS,C,22
16,test,1,C,mfborder.png,1,m,Tue Oct 14 2025 17:34:52 GMT-0500 (Central Daylight Time),461132.09999990463,CFD-WM-034-040-A.jpg,2000,dash,O,m,1405,5,1,65528.799999952316,395603.2999999523,7227,ATS,C,23
16,test,1,C,mfborder.png,0,m,Tue Oct 14 2025 17:34:52 GMT-0500 (Central Daylight Time),463667.09999990463,CFD-WM-035-036-HC.jpg,1000,dash,O,None,1518,4,1,68063.79999995232,395603.2999999523,7227,ATS,C,24
0,test,2,C,mfborder.png,0,m,Tue Oct 14 2025 17:34:52 GMT-0500 (Central Daylight Time),468699.09999990463,CFD-BM-034-035-HC.jpg,1000,dash,O,None,1518,4,1,2533.2999999523163,466165.7999999523,7227,ATS,C,1
0,test,2,C,haborder.png,0,z,Tue Oct 14 2025 17:34:52 GMT-0500 (Central Daylight Time),470427.5,CFD-WF-037-016-A.jpg,1700,solid,O,m,1,9,1,4261.700000047684,466165.7999999523,7227,ATS,C,2
1,test,2,C,mfborder.png,1,z,Tue Oct 14 2025 17:34:52 GMT-0500 (Central Daylight Time),473132.0,CFD-BF-019-004-HC.jpg,1500,dash,O,z,1168,3,1,6966.200000047684,466165.7999999523,7227,ATS,C,3
2,test,2,C,mfborder.png,1,m,Tue Oct 14 2025 17:34:52 GMT-0500 (Central Daylight Time),475130.0,CFD-BM-034-035-HC.jpg,1000,dash,O,m,971,4,1,8964.200000047684,466165.7999999523,7227,ATS,C,4
3,test,2,C,mfborder.png,1,z,Tue Oct 14 2025 17:34:52 GMT-0500 (Central Daylight Time),477997.09999990463,CFD-WF-023-013-A.jpg,1600,dash,O,z,1253,2,1,11831.299999952316,466165.7999999523,7227,ATS,C,5
4,test,2,C,haborder.png,1,z,Tue Oct 14 2025 17:34:52 GMT-0500 (Central Daylight Time),481044.2000000477,CFD-WF-037-016-A.jpg,1700,solid,O,z,1301,9,1,14878.400000095367,466165.7999999523,7227,ATS,C,6
5,test,2,C,haborder.png,1,z,Tue Oct 14 2025 17:34:52 GMT-0500 (Central Daylight Time),484058.2999999523,CFD-BF-002-018-A.jpg,1900,solid,O,z,1091,8,1,17892.5,466165.7999999523,7227,ATS,C,7
6,test,2,C,mfborder.png,1,z,Tue Oct 14 2025 17:34:52 GMT-0500 (Central Daylight Time),487140.2999999523,CFD-WF-013-009-HC.jpg,1700,dash,O,z,1364,1,1,20974.5,466165.7999999523,7227,ATS,C,8
7,test,2,C,mfborder.png,1,z,Tue Oct 14 2025 17:34:52 GMT-0500 (Central Daylight Time),489357.2000000477,CFD-BF-019-004-HC.jpg,1500,dash,O,z,683,3,1,23191.400000095367,466165.7999999523,7227,ATS,C,9
8,test,2,C,haborder.png,1,m,Tue Oct 14 2025 17:34:52 GMT-0500 (Central Daylight Time),492205.09999990463,CFD-BM-022-004-HC.jpg,1600,solid,O,m,1229,10,1,26039.299999952316,466165.7999999523,7227,ATS,C,10
9,test,2,C,mfborder.png,1,m,Tue Oct 14 2025 17:34:52 GMT-0500 (Central Daylight Time),494738.09999990463,CFD-WM-036-018-A.jpg,1200,dash,O,m,1300,6,1,28572.299999952316,466165.7999999523,7227,ATS,C,11
9,test,2,C,haborder.png,0,z,Tue Oct 14 2025 17:34:52 GMT-0500 (Central Daylight Time),497671.40000009537,CFD-BF-031-020-A.jpg,1400,solid,O,None,1516,7,1,31505.60000014305,466165.7999999523,7227,ATS,C,12
9,test,2,C,mfborder.png,0,m,Tue Oct 14 2025 17:34:52 GMT-0500 (Central Daylight Time),501186.90000009537,CFD-BM-043-014-A.jpg,2000,dash,O,None,1502,5,1,35021.10000014305,466165.7999999523,7227,ATS,C,13
9,test,2,C,haborder.png,0,m,Tue Oct 14 2025 17:34:52 GMT-0500 (Central Daylight Time),503719.09999990463,CFD-WM-028-005-HC.jpg,1000,solid,O,None,1516,12,1,37553.299999952316,466165.7999999523,7227,ATS,C,14
10,test,2,C,haborder.png,1,m,Tue Oct 14 2025 17:34:52 GMT-0500 (Central Daylight Time),506018.59999990463,CFD-WM-028-005-HC.jpg,1500,solid,O,m,776,11,1,39852.799999952316,466165.7999999523,7227,ATS,C,15
11,test,2,C,mfborder.png,1,m,Tue Oct 14 2025 17:34:52 GMT-0500 (Central Daylight Time),508484.2999999523,CFD-WM-036-018-A.jpg,1200,dash,O,m,1240,6,1,42318.5,466165.7999999523,7227,ATS,C,16
12,test,2,C,haborder.png,1,m,Tue Oct 14 2025 17:34:52 GMT-0500 (Central Daylight Time),511332.2999999523,CFD-WM-028-005-HC.jpg,1500,solid,O,m,1328,11,1,45166.5,466165.7999999523,7227,ATS,C,17
13,test,2,C,haborder.png,1,m,Tue Oct 14 2025 17:34:52 GMT-0500 (Central Daylight Time),513815.2000000477,CFD-BM-022-004-HC.jpg,1600,solid,O,m,861,10,1,47649.40000009537,466165.7999999523,7227,ATS,C,18
14,test,2,C,haborder.png,1,z,Tue Oct 14 2025 17:34:52 GMT-0500 (Central Daylight Time),516131.2999999523,CFD-BF-031-020-A.jpg,1400,solid,O,z,898,7,1,49965.5,466165.7999999523,7227,ATS,C,19
14,test,2,C,haborder.png,0,m,Tue Oct 14 2025 17:34:52 GMT-0500 (Central Daylight Time),518664.0,CFD-WM-028-005-HC.jpg,1000,solid,O,None,1516,12,1,52498.200000047684,466165.7999999523,7227,ATS,C,20
15,test,2,C,mfborder.png,1,z,Tue Oct 14 2025 17:34:52 GMT-0500 (Central Daylight Time),521579.7999999523,CFD-WF-023-013-A.jpg,1600,dash,O,z,1290,2,1,55414.0,466165.7999999523,7227,ATS,C,21
16,test,2,C,mfborder.png,1,z,Tue Oct 14 2025 17:34:52 GMT-0500 (Central Daylight Time),524012.2000000477,CFD-WF-013-009-HC.jpg,1700,dash,O,z,716,1,1,57846.40000009537,466165.7999999523,7227,ATS,C,22
17,test,2,C,mfborder.png,1,m,Tue Oct 14 2025 17:34:52 GMT-0500 (Central Daylight Time),527295.0,CFD-BM-043-014-A.jpg,2000,dash,O,m,1253,5,1,61129.200000047684,466165.7999999523,7227,ATS,C,23
17,test,2,C,haborder.png,0,z,Tue Oct 14 2025 17:34:52 GMT-0500 (Central Daylight Time),530726.0999999046,CFD-BF-002-018-A.jpg,1900,solid,O,None,1516,8,1,64560.299999952316,466165.7999999523,7227,ATS,C,24
1,test,3,C,mfborder.png,1,z,Tue Oct 14 2025 17:34:52 GMT-0500 (Central Daylight Time),535966.0,CFD-BF-031-020-A.jpg,1600,dash,O,z,1478,2,1,3104.5999999046326,532861.4000000954,7227,ATS,C,1
1,test,3,C,haborder.png,0,z,Tue Oct 14 2025 17:34:52 GMT-0500 (Central Daylight Time),539390.7999999523,CFD-BM-043-014-A.jpg,1900,solid,O,None,1515,8,1,6529.399999856949,532861.4000000954,7227,ATS,C,2
2,test,3,C,haborder.png,1,m,Tue Oct 14 2025 17:34:52 GMT-0500 (Central Daylight Time),541856.2000000477,CFD-WF-001-010-HC.jpg,1500,solid,O,m,933,11,1,8994.799999952316,532861.4000000954,7227,ATS,C,3
2,test,3,C,mfborder.png,0,m,Tue Oct 14 2025 17:34:52 GMT-0500 (Central Daylight Time),544574.4000000954,CFD-BM-022-004-HC.jpg,1200,dash,O,None,1501,6,1,11713.0,532861.4000000954,7227,ATS,C,4
3,test,3,C,haborder.png,1,z,Tue Oct 14 2025 17:34:52 GMT-0500 (Central Daylight Time),547754.0999999046,CFD-BM-043-014-A.jpg,1900,solid,O,z,1256,8,1,14892.699999809265,532861.4000000954,7227,ATS,C,5
4,test,3,C,haborder.png,1,m,Tue Oct 14 2025 17:34:52 GMT-0500 (Central Daylight Time),550737.2000000477,CFD-BF-019-004-HC.jpg,1600,solid,O,m,1360,10,1,17875.799999952316,532861.4000000954,7227,ATS,C,6
5,test,3,C,haborder.png,1,m,Tue Oct 14 2025 17:34:52 GMT-0500 (Central Daylight Time),553452.7000000477,CFD-WF-001-010-HC.jpg,1500,solid,O,m,1200,11,1,20591.299999952316,532861.4000000954,7227,ATS,C,7
6,test,3,C,haborder.png,1,z,Tue Oct 14 2025 17:34:52 GMT-0500 (Central Daylight Time),556086.2999999523,CFD-BM-021-026-A.jpg,1700,solid,O,z,916,9,1,23224.89999985695,532861.4000000954,7227,ATS,C,8
7,test,3,C,haborder.png,1,m,Tue Oct 14 2025 17:34:52 GMT-0500 (Central Daylight Time),558884.2000000477,CFD-BF-019-004-HC.jpg,1600,solid,O,m,1182,10,1,26022.799999952316,532861.4000000954,7227,ATS,C,9
8,test,3,C,mfborder.png,1,z,Tue Oct 14 2025 17:34:52 GMT-0500 (Central Daylight Time),561800.0,CFD-BF-031-020-A.jpg,1600,dash,O,z,1293,2,1,28938.599999904633,532861.4000000954,7227,ATS,C,10
9,test,3,C,mfborder.png,1,m,Tue Oct 14 2025 17:34:52 GMT-0500 (Central Daylight Time),563667.7000000477,CFD-WM-035-036-HC.jpg,1000,dash,O,m,849,4,1,30806.299999952316,532861.4000000954,7227,ATS,C,11
10,test,3,C,mfborder.png,1,z,Tue Oct 14 2025 17:34:52 GMT-0500 (Central Daylight Time),566433.4000000954,CFD-WF-037-016-A.jpg,1500,dash,O,z,1234,3,1,33572.0,532861.4000000954,7227,ATS,C,12
11,test,3,C,mfborder.png,1,z,Tue Oct 14 2025 17:34:52 GMT-0500 (Central Daylight Time),568782.0,CFD-WF-037-016-A.jpg,1500,dash,O,z,830,3,1,35920.59999990463,532861.4000000954,7227,ATS,C,13
12,test,3,C,mfborder.png,1,m,Tue Oct 14 2025 17:34:52 GMT-0500 (Central Daylight Time),571048.2000000477,CFD-BM-022-004-HC.jpg,1200,dash,O,m,1036,6,1,38186.799999952316,532861.4000000954,7227,ATS,C,14
13,test,3,C,mfborder.png,1,m,Tue Oct 14 2025 17:34:52 GMT-0500 (Central Daylight Time),574113.5,CFD-WM-034-040-A.jpg,2000,dash,O,m,1035,5,1,41252.09999990463,532861.4000000954,7227,ATS,C,15
14,test,3,C,mfborder.png,1,z,Tue Oct 14 2025 17:34:52 GMT-0500 (Central Daylight Time),576695.9000000954,CFD-BF-042-031-HC.jpg,1700,dash,O,z,862,1,1,43834.5,532861.4000000954,7227,ATS,C,16
15,test,3,C,haborder.png,1,z,Tue Oct 14 2025 17:34:52 GMT-0500 (Central Daylight Time),579895.5,CFD-BM-021-026-A.jpg,1700,solid,O,z,1469,9,1,47034.09999990463,532861.4000000954,7227,ATS,C,17
16,test,3,C,haborder.png,1,m,Tue Oct 14 2025 17:34:52 GMT-0500 (Central Daylight Time),581810.5999999046,CFD-WF-013-009-HC.jpg,1000,solid,O,m,884,12,1,48949.199999809265,532861.4000000954,7227,ATS,C,18
17,test,3,C,haborder.png,1,z,Tue Oct 14 2025 17:34:52 GMT-0500 (Central Daylight Time),584260.5999999046,CFD-WM-036-018-A.jpg,1400,solid,O,z,1023,7,1,51399.199999809265,532861.4000000954,7227,ATS,C,19
18,test,3,C,mfborder.png,1,z,Tue Oct 14 2025 17:34:52 GMT-0500 (Central Daylight Time),586726.7000000477,CFD-BF-042-031-HC.jpg,1700,dash,O,z,738,1,1,53865.299999952316,532861.4000000954,7227,ATS,C,20
19,test,3,C,haborder.png,1,z,Tue Oct 14 2025 17:34:52 GMT-0500 (Central Daylight Time),589592.2999999523,CFD-WM-036-018-A.jpg,1400,solid,O,z,1443,7,1,56730.89999985695,532861.4000000954,7227,ATS,C,21
20,test,3,C,mfborder.png,1,m,Tue Oct 14 2025 17:34:52 GMT-0500 (Central Daylight Time),591707.2000000477,CFD-WM-035-036-HC.jpg,1000,dash,O,m,1073,4,1,58845.799999952316,532861.4000000954,7227,ATS,C,22
21,test,3,C,mfborder.png,1,m,Tue Oct 14 2025 17:34:52 GMT-0500 (Central Daylight Time),594740.9000000954,CFD-WM-034-040-A.jpg,2000,dash,O,m,1007,5,1,61879.5,532861.4000000954,7227,ATS,C,23
21,test,3,C,haborder.png,0,m,Tue Oct 14 2025 17:34:52 GMT-0500 (Central Daylight Time),597272.5999999046,CFD-WF-013-009-HC.jpg,1000,solid,O,None,1516,12,1,64411.199999809265,532861.4000000954,7227,ATS,C,24
1,test,4,C,haborder.png,1,z,Tue Oct 14 2025 17:34:52 GMT-0500 (Central Daylight Time),601253.2999999523,CFD-WF-037-016-A.jpg,1700,solid,O,z,793,9,1,2515.2000000476837,598738.0999999046,7227,ATS,C,1
2,test,4,C,haborder.png,1,z,Tue Oct 14 2025 17:34:52 GMT-0500 (Central Daylight Time),603902.5,CFD-BF-002-018-A.jpg,1900,solid,O,z,727,8,1,5164.400000095367,598738.0999999046,7227,ATS,C,2
3,test,4,C,mfborder.png,1,z,Tue Oct 14 2025 17:34:52 GMT-0500 (Central Daylight Time),606385.7000000477,CFD-WF-023-013-A.jpg,1600,dash,O,z,859,2,1,7647.600000143051,598738.0999999046,7227,ATS,C,3
4,test,4,C,haborder.png,1,z,Tue Oct 14 2025 17:34:52 GMT-0500 (Central Daylight Time),609037.5,CFD-BF-031-020-A.jpg,1400,solid,O,z,1234,7,1,10299.400000095367,598738.0999999046,7227,ATS,C,4
5,test,4,C,mfborder.png,1,m,Tue Oct 14 2025 17:34:52 GMT-0500 (Central Daylight Time),612034.4000000954,CFD-BM-043-014-A.jpg,2000,dash,O,m,981,5,1,13296.300000190735,598738.0999999046,7227,ATS,C,5
6,test,4,C,mfborder.png,1,z,Tue Oct 14 2025 17:34:52 GMT-0500 (Central Daylight Time),614583.5999999046,CFD-BF-019-004-HC.jpg,1500,dash,O,z,1019,3,1,15845.5,598738.0999999046,7227,ATS,C,6
7,test,4,C,haborder.png,1,m,Tue Oct 14 2025 17:34:52 GMT-0500 (Central Daylight Time),617183.2999999523,CFD-WM-028-005-HC.jpg,1500,solid,O,m,1076,11,1,18445.200000047684,598738.0999999046,7227,ATS,C,7
8,test,4,C,mfborder.png,1,m,Tue Oct 14 2025 17:34:52 GMT-0500 (Central Daylight Time),619466.0,CFD-BM-034-035-HC.jpg,1000,dash,O,m,1267,4,1,20727.900000095367,598738.0999999046,7227,ATS,C,8
8,test,4,C,mfborder.png,0,m,Tue Oct 14 2025 17:34:52 GMT-0500 (Central Daylight Time),622084.0999999046,CFD-WM-036-018-A.jpg,1200,dash,O,z,1400,6,1,23346.0,598738.0999999046,7227,ATS,C,9
8,test,4,C,haborder.png,0,m,Tue Oct 14 2025 17:34:52 GMT-0500 (Central Daylight Time),624614.4000000954,CFD-WM-028-005-HC.jpg,1000,solid,O,None,1516,12,1,25876.300000190735,598738.0999999046,7227,ATS,C,10
8,test,4,C,mfborder.png,0,m,Tue Oct 14 2025 17:34:52 GMT-0500 (Central Daylight Time),627146.0999999046,CFD-BM-034-035-HC.jpg,1000,dash,O,None,1516,4,1,28408.0,598738.0999999046,7227,ATS,C,11
9,test,4,C,haborder.png,1,z,Tue Oct 14 2025 17:34:52 GMT-0500 (Central Daylight Time),629729.4000000954,CFD-WF-037-016-A.jpg,1700,solid,O,z,860,9,1,30991.300000190735,598738.0999999046,7227,ATS,C,12
10,test,4,C,mfborder.png,1,z,Tue Oct 14 2025 17:34:52 GMT-0500 (Central Daylight Time),632595.2999999523,CFD-WF-013-009-HC.jpg,1700,dash,O,z,1151,1,1,33857.200000047684,598738.0999999046,7227,ATS,C,13
11,test,4,C,mfborder.png,1,m,Tue Oct 14 2025 17:34:52 GMT-0500 (Central Daylight Time),636011.5,CFD-BM-043-014-A.jpg,2000,dash,O,m,1400,5,1,37273.40000009537,598738.0999999046,7227,ATS,C,14
12,test,4,C,haborder.png,1,m,Tue Oct 14 2025 17:34:52 GMT-0500 (Central Daylight Time),638543.0,CFD-WM-028-005-HC.jpg,1500,solid,O,m,1006,11,1,39804.90000009537,598738.0999999046,7227,ATS,C,15
13,test,4,C,mfborder.png,1,m,Tue Oct 14 2025 17:34:52 GMT-0500 (Central Daylight Time),641191.2000000477,CFD-WM-036-018-A.jpg,1200,dash,O,m,1426,6,1,42453.10000014305,598738.0999999046,7227,ATS,C,16
13,test,4,C,haborder.png,0,z,Tue Oct 14 2025 17:34:52 GMT-0500 (Central Daylight Time),644624.2000000477,CFD-BF-002-018-A.jpg,1900,solid,O,None,1515,8,1,45886.10000014305,598738.0999999046,7227,ATS,C,17
14,test,4,C,haborder.png,1,m,Tue Oct 14 2025 17:34:52 GMT-0500 (Central Daylight Time),646643.2000000477,CFD-WM-028-005-HC.jpg,1000,solid,O,m,996,12,1,47905.10000014305,598738.0999999046,7227,ATS,C,18
15,test,4,C,haborder.png,1,m,Tue Oct 14 2025 17:34:52 GMT-0500 (Central Daylight Time),649371.2000000477,CFD-BM-022-004-HC.jpg,1600,solid,O,m,1105,10,1,50633.10000014305,598738.0999999046,7227,ATS,C,19
16,test,4,C,haborder.png,1,z,Tue Oct 14 2025 17:34:52 GMT-0500 (Central Daylight Time),651538.2999999523,CFD-BF-031-020-A.jpg,1400,solid,O,z,748,7,1,52800.200000047684,598738.0999999046,7227,ATS,C,20
17,test,4,C,haborder.png,1,m,Tue Oct 14 2025 17:34:52 GMT-0500 (Central Daylight Time),654037.4000000954,CFD-BM-022-004-HC.jpg,1600,solid,O,m,871,10,1,55299.300000190735,598738.0999999046,7227,ATS,C,21
18,test,4,C,mfborder.png,1,z,Tue Oct 14 2025 17:34:52 GMT-0500 (Central Daylight Time),656337.5999999046,CFD-BF-019-004-HC.jpg,1500,dash,O,z,768,3,1,57599.5,598738.0999999046,7227,ATS,C,22
19,test,4,C,mfborder.png,1,z,Tue Oct 14 2025 17:34:52 GMT-0500 (Central Daylight Time),658753.7999999523,CFD-WF-013-009-HC.jpg,1700,dash,O,z,691,1,1,60015.700000047684,598738.0999999046,7227,ATS,C,23
20,test,4,C,mfborder.png,1,z,Tue Oct 14 2025 17:34:52 GMT-0500 (Central Daylight Time),661402.2999999523,CFD-WF-023-013-A.jpg,1600,dash,O,z,1024,2,1,62664.200000047684,598738.0999999046,7227,ATS,C,24
