Number,acc_sum,block,block_c,block_cond,con_img,correct,correct_response,datetime,endtime,jitter,project,response,response_time,row_sel,session_number,start_end,starttime,subject_id,task,task_vers,trial
2,1,prac,1,A,circle.png,1,z,Tue Nov 11 2025 17:33:15 GMT-0600 (Central Standard Time),96343.90000003576,2000,I,z,532,2,,3309.400000035763,93034.5,8053,NTS,A,1
6,2,prac,1,A,circle.png,1,m,Tue Nov 11 2025 17:33:15 GMT-0600 (Central Standard Time),99642.80000001192,1900,I,m,612,5,,3291.100000023842,96351.69999998808,8053,NTS,A,2
7,3,prac,1,A,circle.png,1,m,Tue Nov 11 2025 17:33:15 GMT-0600 (Central Standard Time),102608.69999998808,1700,I,m,482,6,,2959.599999964237,99649.10000002384,8053,NTS,A,3
1,4,prac,1,A,circle.png,1,z,Tue Nov 11 2025 17:33:15 GMT-0600 (Central Standard Time),104958.0,1000,I,z,560,1,,2343.5,102614.5,8053,NTS,A,4
6,5,prac,1,A,circle.png,1,m,Tue Nov 11 2025 17:33:15 GMT-0600 (Central Standard Time),108190.19999998808,1900,I,m,542,5,,3226.099999964237,104964.10000002384,8053,NTS,A,5
2,6,prac,1,A,circle.png,1,z,Tue Nov 11 2025 17:33:15 GMT-0600 (Central Standard Time),111558.10000002384,2000,I,z,586,2,,3362.0,108196.10000002384,8053,NTS,A,6
8,7,prac,1,A,circle.png,1,m,Tue Nov 11 2025 17:33:15 GMT-0600 (Central Standard Time),114471.60000002384,1600,I,m,517,7,,2906.900000035763,111564.69999998808,8053,NTS,A,7
1,8,prac,1,A,circle.png,1,z,Tue Nov 11 2025 17:33:15 GMT-0600 (Central Standard Time),116820.90000003576,1000,I,z,553,1,,2344.300000011921,114476.60000002384,8053,NTS,A,8
8,9,prac,1,A,circle.png,1,m,Tue Nov 11 2025 17:33:15 GMT-0600 (Central Standard Time),119753.10000002384,1600,I,m,540,7,,2926.699999988079,116826.40000003576,8053,NTS,A,9
9,10,prac,1,A,circle.png,1,m,Tue Nov 11 2025 17:33:15 GMT-0600 (Central Standard Time),122552.19999998808,1500,I,m,515,8,,2793.699999988079,119758.5,8053,NTS,A,10
3,11,prac,1,A,circle.png,1,z,Tue Nov 11 2025 17:33:15 GMT-0600 (Central Standard Time),125201.60000002384,1200,I,z,656,3,,2644.100000023842,122557.5,8053,NTS,A,11
4,12,prac,1,A,circle.png,1,z,Tue Nov 11 2025 17:33:15 GMT-0600 (Central Standard Time),128050.80000001192,1400,I,z,655,4,,2843.800000011921,125207.0,8053,NTS,A,12
4,1,prac,1,B,triangle.png,1,m,Tue Nov 11 2025 17:33:15 GMT-0600 (Central Standard Time),164855.80000001192,1500,I,m,549,4,,2826.699999988079,162029.10000002384,8053,NTS,A,1
6,2,prac,1,B,triangle.png,1,m,Tue Nov 11 2025 17:33:15 GMT-0600 (Central Standard Time),167238.5,1000,I,m,585,5,,2375.5,164863.0,8053,NTS,A,2
3,3,prac,1,B,triangle.png,1,z,Tue Nov 11 2025 17:33:15 GMT-0600 (Central Standard Time),170137.60000002384,1600,I,z,514,3,,2893.5,167244.10000002384,8053,NTS,A,3
2,3,prac,1,B,triangle.png,0,m,Tue Nov 11 2025 17:33:15 GMT-0600 (Central Standard Time),173220.0,1700,I,z,587,2,,3076.599999964237,170143.40000003576,8053,NTS,A,4
7,4,prac,1,B,triangle.png,1,z,Tue Nov 11 2025 17:33:15 GMT-0600 (Central Standard Time),176568.69999998808,2000,I,z,565,6,,3343.2999999523163,173225.40000003576,8053,NTS,A,5
4,5,prac,1,B,triangle.png,1,m,Tue Nov 11 2025 17:33:15 GMT-0600 (Central Standard Time),179534.5,1500,I,m,668,4,,2960.5,176574.0,8053,NTS,A,6
9,6,prac,1,B,triangle.png,1,z,Tue Nov 11 2025 17:33:15 GMT-0600 (Central Standard Time),182416.90000003576,1400,I,z,698,8,,2877.400000035763,179539.5,8053,NTS,A,7
8,7,prac,1,B,triangle.png,1,m,Tue Nov 11 2025 17:33:15 GMT-0600 (Central Standard Time),185066.30000001192,1200,I,m,655,7,,2644.0,182422.30000001192,8053,NTS,A,8
1,8,prac,1,B,triangle.png,1,z,Tue Nov 11 2025 17:33:15 GMT-0600 (Central Standard Time),188431.80000001192,1900,I,z,666,1,,3359.699999988079,185072.10000002384,8053,NTS,A,9
8,9,prac,1,B,triangle.png,1,m,Tue Nov 11 2025 17:33:15 GMT-0600 (Central Standard Time),190997.60000002384,1200,I,m,569,7,,2560.699999988079,188436.90000003576,8053,NTS,A,10
6,10,prac,1,B,triangle.png,1,m,Tue Nov 11 2025 17:33:15 GMT-0600 (Central Standard Time),193397.60000002384,1000,I,m,611,5,,2394.400000035763,191003.19999998808,8053,NTS,A,11
3,11,prac,1,B,triangle.png,1,z,Tue Nov 11 2025 17:33:15 GMT-0600 (Central Standard Time),196462.40000003576,1600,I,z,676,3,,3059.0,193403.40000003576,8053,NTS,A,12
8,1,test,1,A,circle.png,1,m,Tue Nov 11 2025 17:33:15 GMT-0600 (Central Standard Time),225770.0,1600,I,m,748,7,,2361.300000011921,223408.69999998808,8053,NTS,A,1
6,2,test,1,A,circle.png,1,m,Tue Nov 11 2025 17:33:15 GMT-0600 (Central Standard Time),228269.10000002384,1900,I,m,578,5,,2493.600000023842,225775.5,8053,NTS,A,2
2,3,test,1,A,circle.png,1,z,Tue Nov 11 2025 17:33:15 GMT-0600 (Central Standard Time),230735.0,2000,I,z,435,2,,2462.099999964237,228272.90000003576,8053,NTS,A,3
3,4,test,1,A,circle.png,1,z,Tue Nov 11 2025 17:33:15 GMT-0600 (Central Standard Time),232751.19999998808,1200,I,z,785,3,,2012.5,230738.69999998808,8053,NTS,A,4
1,5,test,1,A,circle.png,1,z,Tue Nov 11 2025 17:33:15 GMT-0600 (Central Standard Time),234317.19999998808,1000,I,z,537,1,,1562.0999999642372,232755.10000002384,8053,NTS,A,5
6,6,test,1,A,circle.png,1,m,Tue Nov 11 2025 17:33:15 GMT-0600 (Central Standard Time),236699.90000003576,1900,I,m,463,5,,2378.800000011921,234321.10000002384,8053,NTS,A,6
1,7,test,1,A,circle.png,1,z,Tue Nov 11 2025 17:33:15 GMT-0600 (Central Standard Time),238415.90000003576,1000,I,z,683,1,,1712.300000011921,236703.60000002384,8053,NTS,A,7
1,8,test,1,A,circle.png,1,z,Tue Nov 11 2025 17:33:15 GMT-0600 (Central Standard Time),239898.80000001192,1000,I,z,456,1,,1479.1000000238419,238419.69999998808,8053,NTS,A,8
9,9,test,1,A,circle.png,1,m,Tue Nov 11 2025 17:33:15 GMT-0600 (Central Standard Time),241898.19999998808,1500,I,m,481,8,,1995.5,239902.69999998808,8053,NTS,A,9
9,10,test,1,A,circle.png,1,m,Tue Nov 11 2025 17:33:15 GMT-0600 (Central Standard Time),243914.19999998808,1500,I,m,498,8,,2012.5,241901.69999998808,8053,NTS,A,10
9,11,test,1,A,circle.png,1,m,Tue Nov 11 2025 17:33:15 GMT-0600 (Central Standard Time),245896.90000003576,1500,I,m,450,8,,1979.2000000476837,243917.69999998808,8053,NTS,A,11
8,12,test,1,A,circle.png,1,m,Tue Nov 11 2025 17:33:15 GMT-0600 (Central Standard Time),247979.69999998808,1600,I,m,455,7,,2078.899999976158,245900.80000001192,8053,NTS,A,12
2,13,test,1,A,circle.png,1,z,Tue Nov 11 2025 17:33:15 GMT-0600 (Central Standard Time),250562.19999998808,2000,I,z,564,2,,2578.399999976158,247983.80000001192,8053,NTS,A,13
7,14,test,1,A,circle.png,1,m,Tue Nov 11 2025 17:33:15 GMT-0600 (Central Standard Time),252939.60000002384,1700,I,m,522,6,,2373.5,250566.10000002384,8053,NTS,A,14
8,15,test,1,A,circle.png,1,m,Tue Nov 11 2025 17:33:15 GMT-0600 (Central Standard Time),255060.69999998808,1600,I,m,488,7,,2117.099999964237,252943.60000002384,8053,NTS,A,15
9,16,test,1,A,circle.png,1,m,Tue Nov 11 2025 17:33:15 GMT-0600 (Central Standard Time),257110.30000001192,1500,I,m,519,8,,2045.800000011921,255064.5,8053,NTS,A,16
4,17,test,1,A,circle.png,1,z,Tue Nov 11 2025 17:33:15 GMT-0600 (Central Standard Time),259126.10000002384,1400,I,z,586,4,,2012.300000011921,257113.80000001192,8053,NTS,A,17
6,18,test,1,A,circle.png,1,m,Tue Nov 11 2025 17:33:15 GMT-0600 (Central Standard Time),261625.30000001192,1900,I,m,574,5,,2495.399999976158,259129.90000003576,8053,NTS,A,18
1,19,test,1,A,circle.png,1,z,Tue Nov 11 2025 17:33:15 GMT-0600 (Central Standard Time),263209.3000000119,1000,I,z,551,1,,1580.3999999761581,261628.90000003576,8053,NTS,A,19
7,20,test,1,A,circle.png,1,m,Tue Nov 11 2025 17:33:15 GMT-0600 (Central Standard Time),265474.1999999881,1700,I,m,548,6,,2261.399999976158,263212.8000000119,8053,NTS,A,20
2,21,test,1,A,circle.png,1,z,Tue Nov 11 2025 17:33:15 GMT-0600 (Central Standard Time),267990.3000000119,2000,I,z,494,2,,2512.300000011921,265478.0,8053,NTS,A,21
4,22,test,1,A,circle.png,1,z,Tue Nov 11 2025 17:33:15 GMT-0600 (Central Standard Time),270122.8000000119,1400,I,z,713,4,,2128.199999988079,267994.60000002384,8053,NTS,A,22
3,23,test,1,A,circle.png,1,z,Tue Nov 11 2025 17:33:15 GMT-0600 (Central Standard Time),272105.5,1200,I,z,765,3,,1978.5999999642372,270126.90000003576,8053,NTS,A,23
7,24,test,1,A,circle.png,1,m,Tue Nov 11 2025 17:33:15 GMT-0600 (Central Standard Time),274604.60000002384,1700,I,m,779,6,,2495.400000035763,272109.1999999881,8053,NTS,A,24
7,1,test,1,B,triangle.png,1,z,Tue Nov 11 2025 17:33:15 GMT-0600 (Central Standard Time),297247.60000002384,1600,I,z,676,14,,2295.600000023842,294952.0,8053,NTS,A,1
8,1,test,1,B,triangle.png,0,m,Tue Nov 11 2025 17:33:15 GMT-0600 (Central Standard Time),299113.6999999881,1200,I,z,634,7,,1860.8999999761581,297252.8000000119,8053,NTS,A,2
3,2,test,1,B,triangle.png,1,z,Tue Nov 11 2025 17:33:15 GMT-0600 (Central Standard Time),301746.1999999881,2000,I,z,607,11,,2628.7999999523163,299117.40000003576,8053,NTS,A,3
6,3,test,1,B,triangle.png,1,m,Tue Nov 11 2025 17:33:15 GMT-0600 (Central Standard Time),303395.8000000119,1000,I,m,622,5,,1645.8999999761581,301749.90000003576,8053,NTS,A,4
4,4,test,1,B,triangle.png,1,m,Tue Nov 11 2025 17:33:15 GMT-0600 (Central Standard Time),305645.0,1500,I,m,721,4,,2245.5,303399.5,8053,NTS,A,5
3,5,test,1,B,triangle.png,1,z,Tue Nov 11 2025 17:33:15 GMT-0600 (Central Standard Time),307844.3000000119,1600,I,z,572,3,,2195.699999988079,305648.60000002384,8053,NTS,A,6
4,6,test,1,B,triangle.png,1,m,Tue Nov 11 2025 17:33:15 GMT-0600 (Central Standard Time),309827.0,1500,I,m,464,4,,1978.800000011921,307848.1999999881,8053,NTS,A,7
9,7,test,1,B,triangle.png,1,z,Tue Nov 11 2025 17:33:15 GMT-0600 (Central Standard Time),311926.3000000119,1400,I,z,669,8,,2095.600000023842,309830.6999999881,8053,NTS,A,8
4,8,test,1,B,triangle.png,1,m,Tue Nov 11 2025 17:33:15 GMT-0600 (Central Standard Time),313609.10000002384,1000,I,m,650,12,,1679.199999988079,311929.90000003576,8053,NTS,A,9
6,9,test,1,B,triangle.png,1,m,Tue Nov 11 2025 17:33:15 GMT-0600 (Central Standard Time),315725.10000002384,1500,I,m,595,13,,2112.100000023842,313613.0,8053,NTS,A,10
1,10,test,1,B,triangle.png,1,z,Tue Nov 11 2025 17:33:15 GMT-0600 (Central Standard Time),318190.90000003576,1900,I,z,536,1,,2461.600000023842,315729.3000000119,8053,NTS,A,11
1,11,test,1,B,triangle.png,1,z,Tue Nov 11 2025 17:33:15 GMT-0600 (Central Standard Time),320706.8000000119,1900,I,z,590,1,,2511.899999976158,318194.90000003576,8053,NTS,A,12
1,12,test,1,B,triangle.png,1,z,Tue Nov 11 2025 17:33:15 GMT-0600 (Central Standard Time),322722.8000000119,1400,I,z,589,9,,2011.800000011921,320711.0,8053,NTS,A,13
9,13,test,1,B,triangle.png,1,z,Tue Nov 11 2025 17:33:15 GMT-0600 (Central Standard Time),325522.10000002384,1900,I,z,882,16,,2795.600000023842,322726.5,8053,NTS,A,14
3,14,test,1,B,triangle.png,1,z,Tue Nov 11 2025 17:33:15 GMT-0600 (Central Standard Time),328171.10000002384,2000,I,z,623,11,,2645.300000011921,325525.8000000119,8053,NTS,A,15
1,15,test,1,B,triangle.png,1,z,Tue Nov 11 2025 17:33:15 GMT-0600 (Central Standard Time),330104.0,1400,I,z,509,9,,1929.300000011921,328174.6999999881,8053,NTS,A,16
8,16,test,1,B,triangle.png,1,m,Tue Nov 11 2025 17:33:15 GMT-0600 (Central Standard Time),332419.90000003576,1700,I,m,589,15,,2312.0,330107.90000003576,8053,NTS,A,17
3,17,test,1,B,triangle.png,1,z,Tue Nov 11 2025 17:33:15 GMT-0600 (Central Standard Time),334735.8000000119,1600,I,z,693,3,,2312.300000011921,332423.5,8053,NTS,A,18
2,18,test,1,B,triangle.png,1,m,Tue Nov 11 2025 17:33:15 GMT-0600 (Central Standard Time),337218.5,1700,I,m,765,2,,2478.399999976158,334740.10000002384,8053,NTS,A,19
2,19,test,1,B,triangle.png,1,m,Tue Nov 11 2025 17:33:15 GMT-0600 (Central Standard Time),339317.8000000119,1200,I,m,870,10,,2095.600000023842,337222.1999999881,8053,NTS,A,20
9,20,test,1,B,triangle.png,1,z,Tue Nov 11 2025 17:33:15 GMT-0600 (Central Standard Time),342033.5,1900,I,z,799,16,,2712.0,339321.5,8053,NTS,A,21
7,21,test,1,B,triangle.png,1,z,Tue Nov 11 2025 17:33:15 GMT-0600 (Central Standard Time),345032.60000002384,2000,I,z,967,6,,2995.199999988079,342037.40000003576,8053,NTS,A,22
2,22,test,1,B,triangle.png,1,m,Tue Nov 11 2025 17:33:15 GMT-0600 (Central Standard Time),347081.90000003576,1200,I,m,831,10,,2045.9000000357628,345036.0,8053,NTS,A,23
7,23,test,1,B,triangle.png,1,z,Tue Nov 11 2025 17:33:15 GMT-0600 (Central Standard Time),349747.8000000119,2000,I,z,639,6,,2662.199999988079,347085.60000002384,8053,NTS,A,24
2,1,prac,1,C,triangle.png,1,m,Tue Nov 11 2025 17:33:15 GMT-0600 (Central Standard Time),397432.90000003576,1600,I,m,1157,2,,3544.100000023842,393888.8000000119,8053,NTS,A,1
7,2,prac,1,C,triangle.png,1,z,Tue Nov 11 2025 17:33:15 GMT-0600 (Central Standard Time),400198.8000000119,1200,I,z,767,6,,2760.100000023842,397438.6999999881,8053,NTS,A,2
4,3,prac,1,C,circle.png,1,z,Tue Nov 11 2025 17:33:15 GMT-0600 (Central Standard Time),402964.60000002384,1000,I,z,978,4,,2761.300000011921,400203.3000000119,8053,NTS,A,3
6,4,prac,1,C,circle.png,1,m,Tue Nov 11 2025 17:33:15 GMT-0600 (Central Standard Time),406396.6999999881,2000,I,m,636,5,,3425.699999988079,402971.0,8053,NTS,A,4
9,5,prac,1,C,circle.png,1,m,Tue Nov 11 2025 17:33:15 GMT-0600 (Central Standard Time),409945.60000002384,1900,I,m,856,8,,3544.0,406401.60000002384,8053,NTS,A,5
6,6,prac,1,C,circle.png,1,m,Tue Nov 11 2025 17:33:15 GMT-0600 (Central Standard Time),413394.60000002384,2000,I,m,655,5,,3444.0,409950.60000002384,8053,NTS,A,6
3,7,prac,1,C,triangle.png,1,z,Tue Nov 11 2025 17:33:15 GMT-0600 (Central Standard Time),416410.40000003576,1500,I,z,730,3,,3010.900000035763,413399.5,8053,NTS,A,7
1,8,prac,1,C,circle.png,1,z,Tue Nov 11 2025 17:33:15 GMT-0600 (Central Standard Time),419692.6999999881,1700,I,z,783,1,,3276.699999988079,416416.0,8053,NTS,A,8
4,9,prac,1,C,circle.png,1,z,Tue Nov 11 2025 17:33:15 GMT-0600 (Central Standard Time),422358.40000003576,1000,I,z,876,4,,2660.900000035763,419697.5,8053,NTS,A,9
2,10,prac,1,C,triangle.png,1,m,Tue Nov 11 2025 17:33:15 GMT-0600 (Central Standard Time),425790.60000002384,1600,I,m,1042,2,,3426.0,422364.60000002384,8053,NTS,A,10
7,11,prac,1,C,triangle.png,1,z,Tue Nov 11 2025 17:33:15 GMT-0600 (Central Standard Time),428839.8000000119,1200,I,z,1066,6,,3044.0,425795.8000000119,8053,NTS,A,11
8,12,prac,1,C,triangle.png,1,m,Tue Nov 11 2025 17:33:15 GMT-0600 (Central Standard Time),432088.8000000119,1400,I,m,1065,7,,3244.199999988079,428844.60000002384,8053,NTS,A,12
6,0,test,1,C,triangle.png,0,m,Tue Nov 11 2025 17:33:15 GMT-0600 (Central Standard Time),454065.10000002384,1000,I,None,1516,13,,2529.400000035763,451535.6999999881,8053,NTS,A,1
6,1,test,1,C,circle.png,1,m,Tue Nov 11 2025 17:33:15 GMT-0600 (Central Standard Time),457047.60000002384,1900,I,m,1060,21,,2977.699999988079,454069.90000003576,8053,NTS,A,2
4,2,test,1,C,triangle.png,1,m,Tue Nov 11 2025 17:33:15 GMT-0600 (Central Standard Time),459613.3000000119,1500,I,m,1037,12,,2561.800000011921,457051.5,8053,NTS,A,3
3,3,test,1,C,triangle.png,1,z,Tue Nov 11 2025 17:33:15 GMT-0600 (Central Standard Time),461696.0,1200,I,z,859,3,,2078.800000011921,459617.1999999881,8053,NTS,A,4
8,4,test,1,C,circle.png,1,m,Tue Nov 11 2025 17:33:15 GMT-0600 (Central Standard Time),463578.90000003576,1200,I,m,656,15,,1879.0,461699.90000003576,8053,NTS,A,5
7,5,test,1,C,triangle.png,1,z,Tue Nov 11 2025 17:33:15 GMT-0600 (Central Standard Time),466144.6999999881,1700,I,z,842,22,,2561.7999999523163,463582.90000003576,8053,NTS,A,6
9,6,test,1,C,circle.png,1,m,Tue Nov 11 2025 17:33:15 GMT-0600 (Central Standard Time),468310.8000000119,1500,I,m,636,24,,2161.699999988079,466149.10000002384,8053,NTS,A,7
7,7,test,1,C,circle.png,1,m,Tue Nov 11 2025 17:33:15 GMT-0600 (Central Standard Time),471609.6999999881,2000,I,m,1274,14,,3294.699999988079,468315.0,8053,NTS,A,8
1,8,test,1,C,triangle.png,1,z,Tue Nov 11 2025 17:33:15 GMT-0600 (Central Standard Time),474225.5,1900,I,z,691,9,,2611.899999976158,471613.60000002384,8053,NTS,A,9
9,9,test,1,C,circle.png,1,m,Tue Nov 11 2025 17:33:15 GMT-0600 (Central Standard Time),476409.40000003576,1500,I,m,667,8,,2180.100000023842,474229.3000000119,8053,NTS,A,10
2,10,test,1,C,circle.png,1,z,Tue Nov 11 2025 17:33:15 GMT-0600 (Central Standard Time),478790.8000000119,1700,I,z,653,18,,2377.300000011921,476413.5,8053,NTS,A,11
1,11,test,1,C,triangle.png,1,z,Tue Nov 11 2025 17:33:15 GMT-0600 (Central Standard Time),481439.8000000119,1900,I,z,726,17,,2645.300000011921,478794.5,8053,NTS,A,12
1,12,test,1,C,circle.png,1,z,Tue Nov 11 2025 17:33:15 GMT-0600 (Central Standard Time),483406.0,1000,I,z,944,1,,1962.300000011921,481443.6999999881,8053,NTS,A,13
8,13,test,1,C,triangle.png,1,m,Tue Nov 11 2025 17:33:15 GMT-0600 (Central Standard Time),485871.90000003576,1600,I,m,843,7,,2461.400000035763,483410.5,8053,NTS,A,14
6,14,test,1,C,circle.png,1,m,Tue Nov 11 2025 17:33:15 GMT-0600 (Central Standard Time),488579.0,1900,I,m,791,5,,2703.399999976158,485875.60000002384,8053,NTS,A,15
3,15,test,1,C,circle.png,1,z,Tue Nov 11 2025 17:33:15 GMT-0600 (Central Standard Time),490887.10000002384,1600,I,z,686,19,,2303.600000023842,488583.5,8053,NTS,A,16
3,16,test,1,C,circle.png,1,z,Tue Nov 11 2025 17:33:15 GMT-0600 (Central Standard Time),493119.60000002384,1600,I,z,610,11,,2228.199999988079,490891.40000003576,8053,NTS,A,17
4,17,test,1,C,circle.png,1,z,Tue Nov 11 2025 17:33:15 GMT-0600 (Central Standard Time),495335.6999999881,1400,I,z,785,4,,2211.699999988079,493124.0,8053,NTS,A,18
7,18,test,1,C,triangle.png,1,z,Tue Nov 11 2025 17:33:15 GMT-0600 (Central Standard Time),497918.0,1700,I,z,853,6,,2578.599999964237,495339.40000003576,8053,NTS,A,19
4,19,test,1,C,triangle.png,1,m,Tue Nov 11 2025 17:33:15 GMT-0600 (Central Standard Time),500250.60000002384,1500,I,m,815,20,,2328.900000035763,497921.6999999881,8053,NTS,A,20
8,20,test,1,C,triangle.png,1,m,Tue Nov 11 2025 17:33:15 GMT-0600 (Central Standard Time),502566.5,1600,I,m,694,23,,2311.5,500255.0,8053,NTS,A,21
9,21,test,1,C,triangle.png,1,z,Tue Nov 11 2025 17:33:15 GMT-0600 (Central Standard Time),504999.10000002384,1400,I,z,1010,16,,2428.900000035763,502570.1999999881,8053,NTS,A,22
2,22,test,1,C,circle.png,1,z,Tue Nov 11 2025 17:33:15 GMT-0600 (Central Standard Time),507415.1999999881,1700,I,z,686,10,,2412.5,505002.6999999881,8053,NTS,A,23
2,22,test,1,C,triangle.png,0,m,Tue Nov 11 2025 17:33:15 GMT-0600 (Central Standard Time),510680.8000000119,2000,I,z,1241,2,,3261.699999988079,507419.10000002384,8053,NTS,A,24
3,0,test,2,C,circle.png,0,z,Tue Nov 11 2025 17:33:15 GMT-0600 (Central Standard Time),521510.8000000119,1600,I,None,1516,11,,3129.199999988079,518381.60000002384,8053,NTS,A,1
8,1,test,2,C,circle.png,1,m,Tue Nov 11 2025 17:33:15 GMT-0600 (Central Standard Time),523626.60000002384,1200,I,m,898,23,,2110.900000035763,521515.6999999881,8053,NTS,A,2
4,2,test,2,C,triangle.png,1,m,Tue Nov 11 2025 17:33:15 GMT-0600 (Central Standard Time),526092.5,1500,I,m,946,20,,2462.300000011921,523630.1999999881,8053,NTS,A,3
6,3,test,2,C,circle.png,1,m,Tue Nov 11 2025 17:33:15 GMT-0600 (Central Standard Time),529008.3000000119,1900,I,m,992,5,,2911.899999976158,526096.4000000358,8053,NTS,A,4
2,4,test,2,C,circle.png,1,z,Tue Nov 11 2025 17:33:15 GMT-0600 (Central Standard Time),531690.9000000358,1700,I,z,956,18,,2679.0,529011.9000000358,8053,NTS,A,5
2,5,test,2,C,circle.png,1,z,Tue Nov 11 2025 17:33:15 GMT-0600 (Central Standard Time),534023.4000000358,1700,I,z,610,10,,2328.300000011921,531695.1000000238,8053,NTS,A,6
9,5,test,2,C,triangle.png,0,z,Tue Nov 11 2025 17:33:15 GMT-0600 (Central Standard Time),536372.6999999881,1400,I,m,921,16,,2345.0,534027.6999999881,8053,NTS,A,7
1,6,test,2,C,circle.png,1,z,Tue Nov 11 2025 17:33:15 GMT-0600 (Central Standard Time),538438.6999999881,1000,I,z,1044,1,,2062.199999988079,536376.5,8053,NTS,A,8
3,7,test,2,C,circle.png,1,z,Tue Nov 11 2025 17:33:15 GMT-0600 (Central Standard Time),540838.1000000238,1600,I,z,770,19,,2395.600000023842,538442.5,8053,NTS,A,9
9,8,test,2,C,triangle.png,1,z,Tue Nov 11 2025 17:33:15 GMT-0600 (Central Standard Time),543337.3000000119,1400,I,z,1075,24,,2495.100000023842,540842.1999999881,8053,NTS,A,10
7,9,test,2,C,circle.png,1,m,Tue Nov 11 2025 17:33:15 GMT-0600 (Central Standard Time),546169.6000000238,2000,I,m,808,22,,2828.300000011921,543341.3000000119,8053,NTS,A,11
3,10,test,2,C,triangle.png,1,z,Tue Nov 11 2025 17:33:15 GMT-0600 (Central Standard Time),548202.1999999881,1200,I,z,815,3,,2028.5,546173.6999999881,8053,NTS,A,12
9,11,test,2,C,circle.png,1,m,Tue Nov 11 2025 17:33:15 GMT-0600 (Central Standard Time),550434.9000000358,1500,I,m,715,8,,2228.900000035763,548206.0,8053,NTS,A,13
6,12,test,2,C,triangle.png,1,m,Tue Nov 11 2025 17:33:15 GMT-0600 (Central Standard Time),552467.6000000238,1000,I,m,1013,21,,2028.800000011921,550438.8000000119,8053,NTS,A,14
8,13,test,2,C,triangle.png,1,m,Tue Nov 11 2025 17:33:15 GMT-0600 (Central Standard Time),554966.9000000358,1600,I,m,877,7,,2495.600000023842,552471.3000000119,8053,NTS,A,15
7,14,test,2,C,triangle.png,1,z,Tue Nov 11 2025 17:33:15 GMT-0600 (Central Standard Time),557316.1000000238,1700,I,z,629,6,,2345.100000023842,554971.0,8053,NTS,A,16
1,15,test,2,C,triangle.png,1,z,Tue Nov 11 2025 17:33:15 GMT-0600 (Central Standard Time),559999.8000000119,1900,I,z,682,9,,2679.899999976158,557319.9000000358,8053,NTS,A,17
8,16,test,2,C,circle.png,1,m,Tue Nov 11 2025 17:33:15 GMT-0600 (Central Standard Time),562064.6999999881,1200,I,m,835,15,,2060.899999976158,560003.8000000119,8053,NTS,A,18
4,17,test,2,C,circle.png,1,z,Tue Nov 11 2025 17:33:15 GMT-0600 (Central Standard Time),564347.3000000119,1400,I,z,856,4,,2278.899999976158,562068.4000000358,8053,NTS,A,19
7,18,test,2,C,circle.png,1,m,Tue Nov 11 2025 17:33:15 GMT-0600 (Central Standard Time),567047.6000000238,2000,I,m,669,14,,2696.400000035763,564351.1999999881,8053,NTS,A,20
1,19,test,2,C,triangle.png,1,z,Tue Nov 11 2025 17:33:15 GMT-0600 (Central Standard Time),569679.0,1900,I,z,702,17,,2627.399999976158,567051.6000000238,8053,NTS,A,21
2,20,test,2,C,triangle.png,1,m,Tue Nov 11 2025 17:33:15 GMT-0600 (Central Standard Time),572677.9000000358,2000,I,m,978,2,,2995.100000023842,569682.8000000119,8053,NTS,A,22
6,21,test,2,C,triangle.png,1,m,Tue Nov 11 2025 17:33:15 GMT-0600 (Central Standard Time),574427.3000000119,1000,I,m,730,13,,1745.300000011921,572682.0,8053,NTS,A,23
4,22,test,2,C,triangle.png,1,m,Tue Nov 11 2025 17:33:15 GMT-0600 (Central Standard Time),576593.6999999881,1500,I,m,649,12,,2162.7999999523163,574430.9000000358,8053,NTS,A,24
9,1,test,3,C,circle.png,1,m,Tue Nov 11 2025 17:33:15 GMT-0600 (Central Standard Time),583408.0,1500,I,m,942,8,,2461.899999976158,580946.1000000238,8053,NTS,A,1
4,2,test,3,C,circle.png,1,z,Tue Nov 11 2025 17:33:15 GMT-0600 (Central Standard Time),585623.8000000119,1400,I,z,793,20,,2210.699999988079,583413.1000000238,8053,NTS,A,2
3,3,test,3,C,triangle.png,1,z,Tue Nov 11 2025 17:33:15 GMT-0600 (Central Standard Time),587673.5,1200,I,z,832,19,,2045.5,585628.0,8053,NTS,A,3
2,4,test,3,C,circle.png,1,z,Tue Nov 11 2025 17:33:15 GMT-0600 (Central Standard Time),590389.1000000238,1700,I,z,995,10,,2711.699999988079,587677.4000000358,8053,NTS,A,4
4,4,test,3,C,triangle.png,0,m,Tue Nov 11 2025 17:33:15 GMT-0600 (Central Standard Time),592705.1000000238,1500,I,z,784,12,,2312.199999988079,590392.9000000358,8053,NTS,A,5
1,5,test,3,C,triangle.png,1,z,Tue Nov 11 2025 17:33:15 GMT-0600 (Central Standard Time),595304.3000000119,1900,I,z,676,9,,2594.899999976158,592709.4000000358,8053,NTS,A,6
2,6,test,3,C,triangle.png,1,m,Tue Nov 11 2025 17:33:15 GMT-0600 (Central Standard Time),598503.4000000358,2000,I,m,1168,18,,3195.300000011921,595308.1000000238,8053,NTS,A,7
7,7,test,3,C,triangle.png,1,z,Tue Nov 11 2025 17:33:15 GMT-0600 (Central Standard Time),600952.6000000238,1700,I,z,717,6,,2445.600000023842,598507.0,8053,NTS,A,8
6,8,test,3,C,circle.png,1,m,Tue Nov 11 2025 17:33:15 GMT-0600 (Central Standard Time),603485.0,1900,I,m,604,21,,2528.800000011921,600956.1999999881,8053,NTS,A,9
6,9,test,3,C,triangle.png,1,m,Tue Nov 11 2025 17:33:15 GMT-0600 (Central Standard Time),605201.1999999881,1000,I,m,683,13,,1712.0,603489.1999999881,8053,NTS,A,10
4,10,test,3,C,circle.png,1,z,Tue Nov 11 2025 17:33:15 GMT-0600 (Central Standard Time),607417.0,1400,I,z,782,4,,2212.399999976158,605204.6000000238,8053,NTS,A,11
9,11,test,3,C,circle.png,1,m,Tue Nov 11 2025 17:33:15 GMT-0600 (Central Standard Time),609616.3000000119,1500,I,m,667,24,,2194.600000023842,607421.6999999881,8053,NTS,A,12
8,12,test,3,C,triangle.png,1,m,Tue Nov 11 2025 17:33:15 GMT-0600 (Central Standard Time),612082.3000000119,1600,I,m,848,7,,2462.0,609620.3000000119,8053,NTS,A,13
7,13,test,3,C,triangle.png,1,z,Tue Nov 11 2025 17:33:15 GMT-0600 (Central Standard Time),614648.4000000358,1700,I,z,834,22,,2562.2000000476837,612086.1999999881,8053,NTS,A,14
3,14,test,3,C,triangle.png,1,z,Tue Nov 11 2025 17:33:15 GMT-0600 (Central Standard Time),616464.3000000119,1200,I,z,584,3,,1812.1000000238419,614652.1999999881,8053,NTS,A,15
2,14,test,3,C,triangle.png,0,m,Tue Nov 11 2025 17:33:15 GMT-0600 (Central Standard Time),619163.4000000358,2000,I,z,672,2,,2695.600000023842,616467.8000000119,8053,NTS,A,16
1,15,test,3,C,circle.png,1,z,Tue Nov 11 2025 17:33:15 GMT-0600 (Central Standard Time),620929.5,1000,I,z,741,1,,1762.0999999642372,619167.4000000358,8053,NTS,A,17
3,16,test,3,C,circle.png,1,z,Tue Nov 11 2025 17:33:15 GMT-0600 (Central Standard Time),623178.8000000119,1600,I,z,631,11,,2245.199999988079,620933.6000000238,8053,NTS,A,18
7,17,test,3,C,circle.png,1,m,Tue Nov 11 2025 17:33:15 GMT-0600 (Central Standard Time),625811.5,2000,I,m,606,14,,2628.800000011921,623182.6999999881,8053,NTS,A,19
9,17,test,3,C,triangle.png,0,z,Tue Nov 11 2025 17:33:15 GMT-0600 (Central Standard Time),628327.1999999881,1400,I,m,1093,16,,2512.099999964237,625815.1000000238,8053,NTS,A,20
6,18,test,3,C,circle.png,1,m,Tue Nov 11 2025 17:33:15 GMT-0600 (Central Standard Time),631059.8000000119,1900,I,m,811,5,,2728.800000011921,628331.0,8053,NTS,A,21
8,19,test,3,C,circle.png,1,m,Tue Nov 11 2025 17:33:15 GMT-0600 (Central Standard Time),632942.4000000358,1200,I,m,653,15,,1878.300000011921,631064.1000000238,8053,NTS,A,22
1,20,test,3,C,circle.png,1,z,Tue Nov 11 2025 17:33:15 GMT-0600 (Central Standard Time),634825.1999999881,1000,I,z,850,17,,1879.199999988079,632946.0,8053,NTS,A,23
8,21,test,3,C,triangle.png,1,m,Tue Nov 11 2025 17:33:15 GMT-0600 (Central Standard Time),637191.1999999881,1600,I,m,735,23,,2362.2999999523163,634828.9000000358,8053,NTS,A,24
4,0,test,4,C,triangle.png,0,m,Tue Nov 11 2025 17:33:15 GMT-0600 (Central Standard Time),644322.3000000119,1500,I,z,1431,12,,2944.5,641377.8000000119,8053,NTS,A,1
7,1,test,4,C,triangle.png,1,z,Tue Nov 11 2025 17:33:15 GMT-0600 (Central Standard Time),647254.6999999881,1700,I,z,1210,6,,2926.7999999523163,644327.9000000358,8053,NTS,A,2
3,2,test,4,C,triangle.png,1,z,Tue Nov 11 2025 17:33:15 GMT-0600 (Central Standard Time),649170.6999999881,1200,I,z,698,3,,1912.2999999523163,647258.4000000358,8053,NTS,A,3
6,3,test,4,C,triangle.png,1,m,Tue Nov 11 2025 17:33:15 GMT-0600 (Central Standard Time),651136.6999999881,1000,I,m,942,13,,1962.0,649174.6999999881,8053,NTS,A,4
6,4,test,4,C,circle.png,1,m,Tue Nov 11 2025 17:33:15 GMT-0600 (Central Standard Time),653985.8000000119,1900,I,m,917,5,,2845.199999988079,651140.6000000238,8053,NTS,A,5
2,4,test,4,C,triangle.png,0,m,Tue Nov 11 2025 17:33:15 GMT-0600 (Central Standard Time),656984.9000000358,2000,I,z,968,2,,2995.400000035763,653989.5,8053,NTS,A,6
6,5,test,4,C,circle.png,1,m,Tue Nov 11 2025 17:33:15 GMT-0600 (Central Standard Time),659617.3000000119,1900,I,m,701,21,,2628.100000023842,656989.1999999881,8053,NTS,A,7
8,6,test,4,C,circle.png,1,m,Tue Nov 11 2025 17:33:15 GMT-0600 (Central Standard Time),661683.6999999881,1200,I,m,848,15,,2062.599999964237,659621.1000000238,8053,NTS,A,8
8,7,test,4,C,triangle.png,1,m,Tue Nov 11 2025 17:33:15 GMT-0600 (Central Standard Time),664066.1000000238,1600,I,m,757,7,,2378.800000011921,661687.3000000119,8053,NTS,A,9
7,8,test,4,C,triangle.png,1,z,Tue Nov 11 2025 17:33:15 GMT-0600 (Central Standard Time),666481.9000000358,1700,I,z,691,22,,2411.800000011921,664070.1000000238,8053,NTS,A,10
9,9,test,4,C,circle.png,1,m,Tue Nov 11 2025 17:33:15 GMT-0600 (Central Standard Time),668797.9000000358,1500,I,m,793,8,,2311.900000035763,666486.0,8053,NTS,A,11
1,10,test,4,C,circle.png,1,z,Tue Nov 11 2025 17:33:15 GMT-0600 (Central Standard Time),670664.1000000238,1000,I,z,834,1,,1861.800000011921,668802.3000000119,8053,NTS,A,12
2,11,test,4,C,triangle.png,1,m,Tue Nov 11 2025 17:33:15 GMT-0600 (Central Standard Time),673479.8000000119,2000,I,m,793,18,,2812.0,670667.8000000119,8053,NTS,A,13
7,12,test,4,C,circle.png,1,m,Tue Nov 11 2025 17:33:15 GMT-0600 (Central Standard Time),676545.5,2000,I,m,1033,14,,3061.599999964237,673483.9000000358,8053,NTS,A,14
2,13,test,4,C,circle.png,1,z,Tue Nov 11 2025 17:33:15 GMT-0600 (Central Standard Time),679644.6999999881,1700,I,z,1371,10,,3095.199999988079,676549.5,8053,NTS,A,15
3,14,test,4,C,triangle.png,1,z,Tue Nov 11 2025 17:33:15 GMT-0600 (Central Standard Time),681660.6999999881,1200,I,z,788,19,,2011.2999999523163,679649.4000000358,8053,NTS,A,16
1,15,test,4,C,circle.png,1,z,Tue Nov 11 2025 17:33:15 GMT-0600 (Central Standard Time),683626.6000000238,1000,I,z,940,17,,1962.1000000238419,681664.5,8053,NTS,A,17
4,16,test,4,C,circle.png,1,z,Tue Nov 11 2025 17:33:15 GMT-0600 (Central Standard Time),686109.4000000358,1400,I,z,1063,4,,2479.0,683630.4000000358,8053,NTS,A,18
9,17,test,4,C,triangle.png,1,z,Tue Nov 11 2025 17:33:15 GMT-0600 (Central Standard Time),688674.9000000358,1400,I,z,1139,16,,2561.400000035763,686113.5,8053,NTS,A,19
1,18,test,4,C,triangle.png,1,z,Tue Nov 11 2025 17:33:15 GMT-0600 (Central Standard Time),691340.8000000119,1900,I,z,746,9,,2662.100000023842,688678.6999999881,8053,NTS,A,20
3,19,test,4,C,circle.png,1,z,Tue Nov 11 2025 17:33:15 GMT-0600 (Central Standard Time),693891.1999999881,1600,I,z,932,11,,2546.0,691345.1999999881,8053,NTS,A,21
4,20,test,4,C,circle.png,1,z,Tue Nov 11 2025 17:33:15 GMT-0600 (Central Standard Time),696305.9000000358,1400,I,z,990,20,,2411.0,693894.9000000358,8053,NTS,A,22
9,21,test,4,C,circle.png,1,m,Tue Nov 11 2025 17:33:15 GMT-0600 (Central Standard Time),698755.1000000238,1500,I,m,931,24,,2445.0,696310.1000000238,8053,NTS,A,23
8,22,test,4,C,triangle.png,1,m,Tue Nov 11 2025 17:33:15 GMT-0600 (Central Standard Time),701287.6000000238,1600,I,m,909,23,,2528.800000011921,698758.8000000119,8053,NTS,A,24
