acc_sum,block,block_c,change,condition,correct,correct_response,datetime,endtime,face,project,response,response_time,row_sel,session_number,start_end,starttime,subject_id,task,task_vers,trial
0,prac,1,,1-Back,,,Tue Mar 03 2026 15:53:27 GMT-0600 (Central Standard Time),,093_m_f_n_a.png,O,space,7071,1,,,,7766,NNB,C,0
1,prac,1,0.0,1-Back,1.0,m,Tue Mar 03 2026 15:53:27 GMT-0600 (Central Standard Time),134699.20000000112,098_y_f_n_a.png,O,m,717,2,,1553.5,133145.70000000112,7766,NNB,C,1
1,prac,1,1.0,1-Back,0.0,z,Tue Mar 03 2026 15:53:27 GMT-0600 (Central Standard Time),137478.5,098_y_f_n_a.png,O,None,2002,3,,2768.7999999988824,134709.70000000112,7766,NNB,C,2
1,prac,1,0.0,1-Back,0.0,m,Tue Mar 03 2026 15:53:27 GMT-0600 (Central Standard Time),139897.5,059_o_m_n_a.png,O,z,1551,4,,2409.5,137488.0,7766,NNB,C,3
2,prac,1,0.0,1-Back,1.0,m,Tue Mar 03 2026 15:53:27 GMT-0600 (Central Standard Time),141896.09999999963,092_m_m_n_a.png,O,m,1165,5,,1994.699999999255,139901.40000000037,7766,NNB,C,4
2,prac,1,1.0,1-Back,0.0,z,Tue Mar 03 2026 15:53:27 GMT-0600 (Central Standard Time),143309.90000000037,092_m_m_n_a.png,O,m,631,6,,1404.0999999996275,141905.80000000075,7766,NNB,C,5
2,prac,1,0.0,1-Back,0.0,m,Tue Mar 03 2026 15:53:27 GMT-0600 (Central Standard Time),145977.0,130_o_f_n_a.png,O,z,1792,7,,2655.9000000003725,143321.09999999963,7766,NNB,C,6
3,prac,1,0.0,1-Back,1.0,m,Tue Mar 03 2026 15:53:27 GMT-0600 (Central Standard Time),148192.90000000037,082_m_m_n_a.png,O,m,1361,8,,2206.800000000745,145986.09999999963,7766,NNB,C,7
4,prac,1,0.0,1-Back,1.0,m,Tue Mar 03 2026 15:53:27 GMT-0600 (Central Standard Time),150025.80000000075,093_m_f_n_a.png,O,m,1051,9,,1820.5999999996275,148205.20000000112,7766,NNB,C,8
5,prac,1,1.0,1-Back,1.0,z,Tue Mar 03 2026 15:53:27 GMT-0600 (Central Standard Time),151694.40000000037,093_m_f_n_a.png,O,z,902,10,,1659.699999999255,150034.70000000112,7766,NNB,C,9
6,prac,1,0.0,1-Back,1.0,m,Tue Mar 03 2026 15:53:27 GMT-0600 (Central Standard Time),153875.20000000112,059_o_m_n_a.png,O,m,1410,11,,2173.0,151702.20000000112,7766,NNB,C,10
7,prac,1,0.0,1-Back,1.0,m,Tue Mar 03 2026 15:53:27 GMT-0600 (Central Standard Time),156024.0,028_y_f_n_a.png,O,m,1298,12,,2142.0999999996275,153881.90000000037,7766,NNB,C,11
0,prac,2,0.0,1-Back,,,Tue Mar 03 2026 15:53:27 GMT-0600 (Central Standard Time),156024.0,093_m_f_n_a.png,O,a,6418,1,,2142.0999999996275,153881.90000000037,7766,NNB,C,0
0,prac,2,0.0,1-Back,0.0,m,Tue Mar 03 2026 15:53:27 GMT-0600 (Central Standard Time),167923.80000000075,098_y_f_n_a.png,O,z,1599,2,,2433.0,165490.80000000075,7766,NNB,C,1
1,prac,2,1.0,1-Back,1.0,z,Tue Mar 03 2026 15:53:27 GMT-0600 (Central Standard Time),170001.70000000112,098_y_f_n_a.png,O,z,1294,3,,2071.0,167930.70000000112,7766,NNB,C,2
2,prac,2,0.0,1-Back,1.0,m,Tue Mar 03 2026 15:53:27 GMT-0600 (Central Standard Time),171984.30000000075,059_o_m_n_a.png,O,m,1204,4,,1972.0,170012.30000000075,7766,NNB,C,3
3,prac,2,0.0,1-Back,1.0,m,Tue Mar 03 2026 15:53:27 GMT-0600 (Central Standard Time),174484.0,092_m_m_n_a.png,O,m,1640,5,,2489.5,171994.5,7766,NNB,C,4
3,prac,2,1.0,1-Back,0.0,z,Tue Mar 03 2026 15:53:27 GMT-0600 (Central Standard Time),175865.70000000112,092_m_m_n_a.png,O,m,597,6,,1373.2000000011176,174492.5,7766,NNB,C,5
3,prac,2,0.0,1-Back,0.0,m,Tue Mar 03 2026 15:53:27 GMT-0600 (Central Standard Time),178616.90000000037,130_o_f_n_a.png,O,z,1879,7,,2737.0,175879.90000000037,7766,NNB,C,6
3,prac,2,0.0,1-Back,0.0,m,Tue Mar 03 2026 15:53:27 GMT-0600 (Central Standard Time),181465.80000000075,082_m_m_n_a.png,O,None,2001,8,,2838.0999999996275,178627.70000000112,7766,NNB,C,7
3,prac,2,0.0,1-Back,0.0,m,Tue Mar 03 2026 15:53:27 GMT-0600 (Central Standard Time),184248.59999999963,093_m_f_n_a.png,O,None,2006,9,,2772.89999999851,181475.70000000112,7766,NNB,C,8
3,prac,2,1.0,1-Back,0.0,z,Tue Mar 03 2026 15:53:27 GMT-0600 (Central Standard Time),187028.5,093_m_f_n_a.png,O,None,2005,10,,2771.0999999996275,184257.40000000037,7766,NNB,C,9
3,prac,2,0.0,1-Back,0.0,m,Tue Mar 03 2026 15:53:27 GMT-0600 (Central Standard Time),189812.80000000075,059_o_m_n_a.png,O,None,2010,11,,2777.0999999996275,187035.70000000112,7766,NNB,C,10
3,prac,2,0.0,1-Back,0.0,m,Tue Mar 03 2026 15:53:27 GMT-0600 (Central Standard Time),192661.40000000037,028_y_f_n_a.png,O,None,2005,12,,2839.800000000745,189821.59999999963,7766,NNB,C,11
0,test,1,0.0,1-Back,,,Tue Mar 03 2026 15:53:27 GMT-0600 (Central Standard Time),192661.40000000037,098_y_f_n_a.png,O,space,21197,1,,2839.800000000745,189821.59999999963,7766,NNB,C,0
1,test,1,0.0,1-Back,1.0,m,Tue Mar 03 2026 15:53:27 GMT-0600 (Central Standard Time),249194.20000000112,006_m_f_n_a.png,O,m,648,2,,1665.5,247528.70000000112,7766,NNB,C,1
2,test,1,0.0,1-Back,1.0,m,Tue Mar 03 2026 15:53:27 GMT-0600 (Central Standard Time),251143.0,028_y_f_n_a.png,O,m,916,3,,1939.0,249204.0,7766,NNB,C,2
3,test,1,1.0,1-Back,1.0,z,Tue Mar 03 2026 15:53:27 GMT-0600 (Central Standard Time),252892.30000000075,028_y_f_n_a.png,O,z,722,4,,1742.2000000011176,251150.09999999963,7766,NNB,C,3
4,test,1,0.0,1-Back,1.0,m,Tue Mar 03 2026 15:53:27 GMT-0600 (Central Standard Time),254892.0,006_m_f_n_a.png,O,m,972,5,,1991.0999999996275,252900.90000000037,7766,NNB,C,4
5,test,1,0.0,1-Back,1.0,m,Tue Mar 03 2026 15:53:27 GMT-0600 (Central Standard Time),256825.09999999963,059_o_m_n_a.png,O,m,910,6,,1926.5,254898.59999999963,7766,NNB,C,5
6,test,1,1.0,1-Back,1.0,z,Tue Mar 03 2026 15:53:27 GMT-0600 (Central Standard Time),258539.90000000037,059_o_m_n_a.png,O,z,696,7,,1708.4000000003725,256831.5,7766,NNB,C,6
7,test,1,0.0,1-Back,1.0,m,Tue Mar 03 2026 15:53:27 GMT-0600 (Central Standard Time),260423.80000000075,092_m_m_n_a.png,O,m,860,8,,1877.0,258546.80000000075,7766,NNB,C,7
8,test,1,0.0,1-Back,1.0,m,Tue Mar 03 2026 15:53:27 GMT-0600 (Central Standard Time),262260.5999999996,130_o_f_n_a.png,O,m,799,9,,1831.5,260429.09999999963,7766,NNB,C,8
9,test,1,0.0,1-Back,1.0,m,Tue Mar 03 2026 15:53:27 GMT-0600 (Central Standard Time),264170.9000000004,092_m_m_n_a.png,O,m,889,10,,1907.0,262263.9000000004,7766,NNB,C,9
10,test,1,0.0,1-Back,1.0,m,Tue Mar 03 2026 15:53:27 GMT-0600 (Central Standard Time),266071.30000000075,057_y_m_n_a.png,O,m,868,11,,1892.7000000011176,264178.5999999996,7766,NNB,C,10
11,test,1,1.0,1-Back,1.0,z,Tue Mar 03 2026 15:53:27 GMT-0600 (Central Standard Time),267770.0,057_y_m_n_a.png,O,z,681,12,,1693.7999999988824,266076.2000000011,7766,NNB,C,11
12,test,1,0.0,1-Back,1.0,m,Tue Mar 03 2026 15:53:27 GMT-0600 (Central Standard Time),269853.4000000004,030_o_f_n_a.png,O,m,1054,13,,2076.800000000745,267776.5999999996,7766,NNB,C,12
12,test,1,1.0,1-Back,0.0,z,Tue Mar 03 2026 15:53:27 GMT-0600 (Central Standard Time),271402.0,030_o_f_n_a.png,O,m,513,14,,1540.9000000003725,269861.0999999996,7766,NNB,C,13
13,test,1,0.0,1-Back,1.0,m,Tue Mar 03 2026 15:53:27 GMT-0600 (Central Standard Time),274067.5999999996,031_y_m_n_a.png,O,m,1646,15,,2658.0999999996275,271409.5,7766,NNB,C,14
14,test,1,0.0,1-Back,1.0,m,Tue Mar 03 2026 15:53:27 GMT-0600 (Central Standard Time),275934.9000000004,093_m_f_n_a.png,O,m,845,16,,1859.5,274075.4000000004,7766,NNB,C,15
15,test,1,0.0,1-Back,1.0,m,Tue Mar 03 2026 15:53:27 GMT-0600 (Central Standard Time),277685.9000000004,146_o_m_n_a.png,O,m,733,17,,1743.5,275942.4000000004,7766,NNB,C,16
16,test,1,0.0,1-Back,1.0,m,Tue Mar 03 2026 15:53:27 GMT-0600 (Central Standard Time),279467.80000000075,093_m_f_n_a.png,O,m,764,18,,1779.300000000745,277688.5,7766,NNB,C,17
0,test,2,0.0,1-Back,,,Tue Mar 03 2026 15:53:27 GMT-0600 (Central Standard Time),279467.80000000075,092_m_m_n_a.png,O,space,12421,1,,1779.300000000745,277688.5,7766,NNB,C,0
1,test,2,0.0,1-Back,1.0,m,Tue Mar 03 2026 15:53:27 GMT-0600 (Central Standard Time),295861.4000000004,006_m_f_n_a.png,O,m,928,2,,1944.0999999996275,293917.30000000075,7766,NNB,C,1
2,test,2,1.0,1-Back,1.0,z,Tue Mar 03 2026 15:53:27 GMT-0600 (Central Standard Time),297763.30000000075,006_m_f_n_a.png,O,z,883,3,,1894.5999999996275,295868.7000000011,7766,NNB,C,2
3,test,2,0.0,1-Back,1.0,m,Tue Mar 03 2026 15:53:27 GMT-0600 (Central Standard Time),299561.0999999996,092_m_m_n_a.png,O,m,784,4,,1791.8999999985099,297769.2000000011,7766,NNB,C,3
4,test,2,0.0,1-Back,1.0,m,Tue Mar 03 2026 15:53:27 GMT-0600 (Central Standard Time),301509.5,057_y_m_n_a.png,O,m,929,5,,1945.699999999255,299563.80000000075,7766,NNB,C,4
5,test,2,0.0,1-Back,1.0,m,Tue Mar 03 2026 15:53:27 GMT-0600 (Central Standard Time),303509.0,098_y_f_n_a.png,O,m,971,6,,1994.699999999255,301514.30000000075,7766,NNB,C,5
6,test,2,1.0,1-Back,1.0,z,Tue Mar 03 2026 15:53:27 GMT-0600 (Central Standard Time),305276.5,098_y_f_n_a.png,O,z,748,7,,1760.199999999255,303516.30000000075,7766,NNB,C,6
7,test,2,0.0,1-Back,1.0,m,Tue Mar 03 2026 15:53:27 GMT-0600 (Central Standard Time),307093.2000000011,057_y_m_n_a.png,O,m,789,8,,1809.6000000014901,305283.5999999996,7766,NNB,C,7
8,test,2,0.0,1-Back,1.0,m,Tue Mar 03 2026 15:53:27 GMT-0600 (Central Standard Time),308774.5999999996,030_o_f_n_a.png,O,m,662,9,,1675.3999999985099,307099.2000000011,7766,NNB,C,8
9,test,2,0.0,1-Back,1.0,m,Tue Mar 03 2026 15:53:27 GMT-0600 (Central Standard Time),310556.7000000011,082_m_m_n_a.png,O,m,762,10,,1775.6000000014901,308781.0999999996,7766,NNB,C,9
10,test,2,1.0,1-Back,1.0,z,Tue Mar 03 2026 15:53:27 GMT-0600 (Central Standard Time),312307.5,082_m_m_n_a.png,O,z,734,11,,1743.5,310564.0,7766,NNB,C,10
11,test,2,0.0,1-Back,1.0,m,Tue Mar 03 2026 15:53:27 GMT-0600 (Central Standard Time),314272.9000000004,030_o_f_n_a.png,O,m,935,12,,1959.699999999255,312313.2000000011,7766,NNB,C,11
12,test,2,0.0,1-Back,1.0,m,Tue Mar 03 2026 15:53:27 GMT-0600 (Central Standard Time),316340.30000000075,130_o_f_n_a.png,O,m,1048,13,,2061.0999999996275,314279.2000000011,7766,NNB,C,12
13,test,2,0.0,1-Back,1.0,m,Tue Mar 03 2026 15:53:27 GMT-0600 (Central Standard Time),318154.9000000004,059_o_m_n_a.png,O,m,789,14,,1807.300000000745,316347.5999999996,7766,NNB,C,13
14,test,2,0.0,1-Back,1.0,m,Tue Mar 03 2026 15:53:27 GMT-0600 (Central Standard Time),319937.5999999996,146_o_m_n_a.png,O,m,752,15,,1776.5,318161.0999999996,7766,NNB,C,14
15,test,2,1.0,1-Back,1.0,z,Tue Mar 03 2026 15:53:27 GMT-0600 (Central Standard Time),321870.5,146_o_m_n_a.png,O,z,902,16,,1926.5,319944.0,7766,NNB,C,15
16,test,2,0.0,1-Back,1.0,m,Tue Mar 03 2026 15:53:27 GMT-0600 (Central Standard Time),323835.7000000011,031_y_m_n_a.png,O,m,937,17,,1961.4000000003725,321874.30000000075,7766,NNB,C,16
17,test,2,1.0,1-Back,1.0,z,Tue Mar 03 2026 15:53:27 GMT-0600 (Central Standard Time),325587.0,031_y_m_n_a.png,O,z,718,18,,1745.5,323841.5,7766,NNB,C,17
0,test,3,1.0,1-Back,,,Tue Mar 03 2026 15:53:27 GMT-0600 (Central Standard Time),325587.0,028_y_f_n_a.png,O,space,10509,1,,1745.5,323841.5,7766,NNB,C,0
1,test,3,0.0,1-Back,1.0,m,Tue Mar 03 2026 15:53:27 GMT-0600 (Central Standard Time),339780.80000000075,146_o_m_n_a.png,O,m,578,1,,1589.4000000003725,338191.4000000004,7766,NNB,C,1
2,test,3,1.0,1-Back,1.0,z,Tue Mar 03 2026 15:53:27 GMT-0600 (Central Standard Time),341616.2000000011,146_o_m_n_a.png,O,z,812,1,,1829.1000000014901,339787.0999999996,7766,NNB,C,2
3,test,3,0.0,1-Back,1.0,m,Tue Mar 03 2026 15:53:27 GMT-0600 (Central Standard Time),343347.5,093_m_f_n_a.png,O,m,699,1,,1726.0999999996275,341621.4000000004,7766,NNB,C,3
4,test,3,1.0,1-Back,1.0,z,Tue Mar 03 2026 15:53:27 GMT-0600 (Central Standard Time),345163.5,093_m_f_n_a.png,O,z,798,1,,1810.0999999996275,343353.4000000004,7766,NNB,C,4
5,test,3,0.0,1-Back,1.0,m,Tue Mar 03 2026 15:53:27 GMT-0600 (Central Standard Time),347113.0999999996,030_o_f_n_a.png,O,m,925,1,,1942.5,345170.5999999996,7766,NNB,C,5
6,test,3,0.0,1-Back,1.0,m,Tue Mar 03 2026 15:53:27 GMT-0600 (Central Standard Time),348828.2000000011,057_y_m_n_a.png,O,m,689,1,,1708.0,347120.2000000011,7766,NNB,C,6
7,test,3,0.0,1-Back,1.0,m,Tue Mar 03 2026 15:53:27 GMT-0600 (Central Standard Time),350595.5,030_o_f_n_a.png,O,m,750,1,,1764.199999999255,348831.30000000075,7766,NNB,C,7
8,test,3,0.0,1-Back,1.0,m,Tue Mar 03 2026 15:53:27 GMT-0600 (Central Standard Time),352543.9000000004,031_y_m_n_a.png,O,m,926,1,,1940.800000000745,350603.0999999996,7766,NNB,C,8
9,test,3,1.0,1-Back,1.0,z,Tue Mar 03 2026 15:53:27 GMT-0600 (Central Standard Time),354310.4000000004,031_y_m_n_a.png,O,z,736,1,,1759.800000000745,352550.5999999996,7766,NNB,C,9
10,test,3,0.0,1-Back,1.0,m,Tue Mar 03 2026 15:53:27 GMT-0600 (Central Standard Time),356225.5999999996,006_m_f_n_a.png,O,m,891,1,,1907.8999999985099,354317.7000000011,7766,NNB,C,10
11,test,3,0.0,1-Back,1.0,m,Tue Mar 03 2026 15:53:27 GMT-0600 (Central Standard Time),357875.2000000011,098_y_f_n_a.png,O,m,623,1,,1642.300000000745,356232.9000000004,7766,NNB,C,11
12,test,3,1.0,1-Back,1.0,z,Tue Mar 03 2026 15:53:27 GMT-0600 (Central Standard Time),359541.9000000004,098_y_f_n_a.png,O,z,637,1,,1661.199999999255,357880.7000000011,7766,NNB,C,12
13,test,3,0.0,1-Back,1.0,m,Tue Mar 03 2026 15:53:27 GMT-0600 (Central Standard Time),361257.80000000075,006_m_f_n_a.png,O,m,699,1,,1708.9000000003725,359548.9000000004,7766,NNB,C,13
14,test,3,0.0,1-Back,1.0,m,Tue Mar 03 2026 15:53:27 GMT-0600 (Central Standard Time),362989.7000000011,092_m_m_n_a.png,O,m,703,1,,1726.2000000011176,361263.5,7766,NNB,C,14
15,test,3,1.0,1-Back,1.0,z,Tue Mar 03 2026 15:53:27 GMT-0600 (Central Standard Time),364873.80000000075,092_m_m_n_a.png,O,z,850,1,,1875.2000000011176,362998.5999999996,7766,NNB,C,15
16,test,3,0.0,1-Back,1.0,m,Tue Mar 03 2026 15:53:27 GMT-0600 (Central Standard Time),366789.30000000075,130_o_f_n_a.png,O,m,884,1,,1908.2000000011176,364881.0999999996,7766,NNB,C,16
17,test,3,1.0,1-Back,1.0,z,Tue Mar 03 2026 15:53:27 GMT-0600 (Central Standard Time),368556.0,130_o_f_n_a.png,O,z,734,1,,1760.2999999988824,366795.7000000011,7766,NNB,C,17
0,test,4,1.0,1-Back,,,Tue Mar 03 2026 15:53:27 GMT-0600 (Central Standard Time),368556.0,093_m_f_n_a.png,O,space,1565,1,,1760.2999999988824,366795.7000000011,7766,NNB,C,0
1,test,4,0.0,1-Back,1.0,m,Tue Mar 03 2026 15:53:27 GMT-0600 (Central Standard Time),373820.0,146_o_m_n_a.png,O,m,596,2,,1606.5,372213.5,7766,NNB,C,1
2,test,4,0.0,1-Back,1.0,m,Tue Mar 03 2026 15:53:27 GMT-0600 (Central Standard Time),375503.5999999996,093_m_f_n_a.png,O,m,651,3,,1675.199999999255,373828.4000000004,7766,NNB,C,2
3,test,4,0.0,1-Back,1.0,m,Tue Mar 03 2026 15:53:27 GMT-0600 (Central Standard Time),377268.9000000004,030_o_f_n_a.png,O,m,737,4,,1757.0999999996275,375511.80000000075,7766,NNB,C,3
4,test,4,1.0,1-Back,1.0,z,Tue Mar 03 2026 15:53:27 GMT-0600 (Central Standard Time),379101.4000000004,030_o_f_n_a.png,O,z,812,5,,1824.9000000003725,377276.5,7766,NNB,C,4
5,test,4,0.0,1-Back,1.0,m,Tue Mar 03 2026 15:53:27 GMT-0600 (Central Standard Time),380967.2000000011,098_y_f_n_a.png,O,m,855,6,,1862.5,379104.7000000011,7766,NNB,C,5
6,test,4,0.0,1-Back,1.0,m,Tue Mar 03 2026 15:53:27 GMT-0600 (Central Standard Time),382686.4000000004,057_y_m_n_a.png,O,m,700,7,,1713.4000000003725,380973.0,7766,NNB,C,6
7,test,4,1.0,1-Back,1.0,z,Tue Mar 03 2026 15:53:27 GMT-0600 (Central Standard Time),384334.0999999996,057_y_m_n_a.png,O,z,627,8,,1641.3999999985099,382692.7000000011,7766,NNB,C,7
8,test,4,0.0,1-Back,1.0,m,Tue Mar 03 2026 15:53:27 GMT-0600 (Central Standard Time),386066.0999999996,098_y_f_n_a.png,O,m,715,9,,1724.699999999255,384341.4000000004,7766,NNB,C,8
9,test,4,0.0,1-Back,1.0,m,Tue Mar 03 2026 15:53:27 GMT-0600 (Central Standard Time),387800.2000000011,082_m_m_n_a.png,O,m,701,10,,1725.4000000003725,386074.80000000075,7766,NNB,C,9
10,test,4,1.0,1-Back,1.0,z,Tue Mar 03 2026 15:53:27 GMT-0600 (Central Standard Time),390214.5999999996,082_m_m_n_a.png,O,z,1393,11,,2407.699999999255,387806.9000000004,7766,NNB,C,10
11,test,4,0.0,1-Back,1.0,m,Tue Mar 03 2026 15:53:27 GMT-0600 (Central Standard Time),391981.0,130_o_f_n_a.png,O,m,737,12,,1759.699999999255,390221.30000000075,7766,NNB,C,11
12,test,4,0.0,1-Back,1.0,m,Tue Mar 03 2026 15:53:27 GMT-0600 (Central Standard Time),393731.4000000004,059_o_m_n_a.png,O,m,730,13,,1742.800000000745,391988.5999999996,7766,NNB,C,12
13,test,4,0.0,1-Back,1.0,m,Tue Mar 03 2026 15:53:27 GMT-0600 (Central Standard Time),395548.0,130_o_f_n_a.png,O,m,798,14,,1807.0999999996275,393740.9000000004,7766,NNB,C,13
14,test,4,0.0,1-Back,1.0,m,Tue Mar 03 2026 15:53:27 GMT-0600 (Central Standard Time),397245.4000000004,028_y_f_n_a.png,O,m,669,15,,1688.4000000003725,395557.0,7766,NNB,C,14
15,test,4,1.0,1-Back,1.0,z,Tue Mar 03 2026 15:53:27 GMT-0600 (Central Standard Time),398845.7000000011,028_y_f_n_a.png,O,z,578,16,,1592.9000000003725,397252.80000000075,7766,NNB,C,15
16,test,4,0.0,1-Back,1.0,m,Tue Mar 03 2026 15:53:27 GMT-0600 (Central Standard Time),400544.30000000075,006_m_f_n_a.png,O,m,676,17,,1692.9000000003725,398851.4000000004,7766,NNB,C,16
17,test,4,1.0,1-Back,1.0,z,Tue Mar 03 2026 15:53:27 GMT-0600 (Central Standard Time),402612.2000000011,006_m_f_n_a.png,O,z,1048,18,,2061.2000000011176,400551.0,7766,NNB,C,17
0,test,5,1.0,1-Back,,,Tue Mar 03 2026 15:53:27 GMT-0600 (Central Standard Time),402612.2000000011,059_o_m_n_a.png,O,space,1708,1,,2061.2000000011176,400551.0,7766,NNB,C,0
1,test,5,1.0,1-Back,1.0,z,Tue Mar 03 2026 15:53:27 GMT-0600 (Central Standard Time),408143.4000000004,059_o_m_n_a.png,O,z,768,2,,1791.5,406351.9000000004,7766,NNB,C,1
2,test,5,0.0,1-Back,1.0,m,Tue Mar 03 2026 15:53:27 GMT-0600 (Central Standard Time),410059.5,098_y_f_n_a.png,O,m,890,3,,1909.2999999988824,408150.2000000011,7766,NNB,C,2
3,test,5,0.0,1-Back,1.0,m,Tue Mar 03 2026 15:53:27 GMT-0600 (Central Standard Time),411792.0,057_y_m_n_a.png,O,m,703,4,,1726.5,410065.5,7766,NNB,C,3
4,test,5,0.0,1-Back,1.0,m,Tue Mar 03 2026 15:53:27 GMT-0600 (Central Standard Time),413642.2000000011,098_y_f_n_a.png,O,m,831,5,,1842.0,411800.2000000011,7766,NNB,C,4
5,test,5,0.0,1-Back,1.0,m,Tue Mar 03 2026 15:53:27 GMT-0600 (Central Standard Time),415307.2000000011,092_m_m_n_a.png,O,m,634,6,,1660.300000000745,413646.9000000004,7766,NNB,C,5
6,test,5,1.0,1-Back,1.0,z,Tue Mar 03 2026 15:53:27 GMT-0600 (Central Standard Time),417173.2000000011,092_m_m_n_a.png,O,z,837,7,,1859.1000000014901,415314.0999999996,7766,NNB,C,6
7,test,5,0.0,1-Back,1.0,m,Tue Mar 03 2026 15:53:27 GMT-0600 (Central Standard Time),418789.7000000011,028_y_f_n_a.png,O,m,586,8,,1610.800000000745,417178.9000000004,7766,NNB,C,7
8,test,5,0.0,1-Back,1.0,m,Tue Mar 03 2026 15:53:27 GMT-0600 (Central Standard Time),420441.5,031_y_m_n_a.png,O,m,629,9,,1646.5999999996275,418794.9000000004,7766,NNB,C,8
9,test,5,0.0,1-Back,1.0,m,Tue Mar 03 2026 15:53:27 GMT-0600 (Central Standard Time),422105.0999999996,028_y_f_n_a.png,O,m,639,10,,1657.3999999985099,420447.7000000011,7766,NNB,C,9
10,test,5,0.0,1-Back,1.0,m,Tue Mar 03 2026 15:53:27 GMT-0600 (Central Standard Time),423922.7000000011,130_o_f_n_a.png,O,m,782,11,,1810.1000000014901,422112.5999999996,7766,NNB,C,10
11,test,5,1.0,1-Back,1.0,z,Tue Mar 03 2026 15:53:27 GMT-0600 (Central Standard Time),425987.4000000004,130_o_f_n_a.png,O,z,1040,12,,2058.5,423928.9000000004,7766,NNB,C,11
12,test,5,0.0,1-Back,1.0,m,Tue Mar 03 2026 15:53:27 GMT-0600 (Central Standard Time),427738.2000000011,146_o_m_n_a.png,O,m,717,13,,1744.300000000745,425993.9000000004,7766,NNB,C,12
13,test,5,0.0,1-Back,1.0,m,Tue Mar 03 2026 15:53:27 GMT-0600 (Central Standard Time),429336.30000000075,093_m_f_n_a.png,O,m,569,14,,1590.9000000003725,427745.4000000004,7766,NNB,C,13
14,test,5,1.0,1-Back,1.0,z,Tue Mar 03 2026 15:53:27 GMT-0600 (Central Standard Time),431119.0,093_m_f_n_a.png,O,z,752,15,,1775.5999999996275,429343.4000000004,7766,NNB,C,14
15,test,5,0.0,1-Back,1.0,m,Tue Mar 03 2026 15:53:27 GMT-0600 (Central Standard Time),432935.4000000004,146_o_m_n_a.png,O,m,794,16,,1809.0999999996275,431126.30000000075,7766,NNB,C,15
16,test,5,0.0,1-Back,1.0,m,Tue Mar 03 2026 15:53:27 GMT-0600 (Central Standard Time),434585.30000000075,006_m_f_n_a.png,O,m,617,17,,1643.800000000745,432941.5,7766,NNB,C,16
17,test,5,0.0,1-Back,1.0,m,Tue Mar 03 2026 15:53:27 GMT-0600 (Central Standard Time),436301.30000000075,082_m_m_n_a.png,O,m,699,18,,1709.5999999996275,434591.7000000011,7766,NNB,C,17
0,prac,1,0.0,2-Back,,,Tue Mar 03 2026 15:53:27 GMT-0600 (Central Standard Time),436301.30000000075,031_y_m_n_a.png,O,space,8404,1,,1709.5999999996275,434591.7000000011,7766,NNB,C,0
0,prac,1,0.0,2-Back,,,Tue Mar 03 2026 15:53:27 GMT-0600 (Central Standard Time),436301.30000000075,006_m_f_n_a.png,O,space,8404,2,,1709.5999999996275,434591.7000000011,7766,NNB,C,0
1,prac,1,1.0,2-Back,1.0,m,Tue Mar 03 2026 15:53:27 GMT-0600 (Central Standard Time),638787.3000000007,146_o_m_n_a.png,O,m,596,3,,1455.7000000011176,637331.5999999996,7766,NNB,C,1
2,prac,1,0.0,2-Back,1.0,m,Tue Mar 03 2026 15:53:27 GMT-0600 (Central Standard Time),641286.7000000011,130_o_f_n_a.png,O,m,1635,4,,2492.0,638794.7000000011,7766,NNB,C,2
2,prac,1,0.0,2-Back,0.0,z,Tue Mar 03 2026 15:53:27 GMT-0600 (Central Standard Time),643068.5999999996,146_o_m_n_a.png,O,m,1002,5,,1774.0,641294.5999999996,7766,NNB,C,3
3,prac,1,1.0,2-Back,1.0,z,Tue Mar 03 2026 15:53:27 GMT-0600 (Central Standard Time),645301.0999999996,130_o_f_n_a.png,O,z,1445,6,,2224.5,643076.5999999996,7766,NNB,C,4
3,prac,1,0.0,2-Back,0.0,m,Tue Mar 03 2026 15:53:27 GMT-0600 (Central Standard Time),648051.0999999996,082_m_m_n_a.png,O,z,1900,7,,2741.5,645309.5999999996,7766,NNB,C,5
4,prac,1,0.0,2-Back,1.0,m,Tue Mar 03 2026 15:53:27 GMT-0600 (Central Standard Time),649966.7000000011,059_o_m_n_a.png,O,m,1070,8,,1906.800000000745,648059.9000000004,7766,NNB,C,6
5,prac,1,0.0,2-Back,1.0,m,Tue Mar 03 2026 15:53:27 GMT-0600 (Central Standard Time),652149.2000000011,028_y_f_n_a.png,O,m,1330,9,,2173.10000000149,649976.0999999996,7766,NNB,C,7
6,prac,1,1.0,2-Back,1.0,z,Tue Mar 03 2026 15:53:27 GMT-0600 (Central Standard Time),654181.8000000007,059_o_m_n_a.png,O,z,1252,10,,2024.2000000011176,652157.5999999996,7766,NNB,C,8
7,prac,1,0.0,2-Back,1.0,m,Tue Mar 03 2026 15:53:27 GMT-0600 (Central Standard Time),656214.3000000007,098_y_f_n_a.png,O,m,1176,11,,2024.800000000745,654189.5,7766,NNB,C,9
7,prac,1,0.0,2-Back,0.0,m,Tue Mar 03 2026 15:53:27 GMT-0600 (Central Standard Time),658131.2000000011,082_m_m_n_a.png,O,z,1123,12,,1907.4000000003725,656223.8000000007,7766,NNB,C,10
0,test,1,0.0,2-Back,,,Tue Mar 03 2026 15:53:27 GMT-0600 (Central Standard Time),658131.2000000011,057_y_m_n_a.png,O,space,31299,1,,1907.4000000003725,656223.8000000007,7766,NNB,C,0
0,test,1,0.0,2-Back,,,Tue Mar 03 2026 15:53:27 GMT-0600 (Central Standard Time),658131.2000000011,057_y_m_n_a.png,O,space,31299,2,,1907.4000000003725,656223.8000000007,7766,NNB,C,0
1,test,1,0.0,2-Back,1.0,m,Tue Mar 03 2026 15:53:27 GMT-0600 (Central Standard Time),704000.3000000007,130_o_f_n_a.png,O,m,836,3,,1858.2000000011176,702142.0999999996,7766,NNB,C,1
2,test,1,0.0,2-Back,1.0,m,Tue Mar 03 2026 15:53:27 GMT-0600 (Central Standard Time),706282.5999999996,092_m_m_n_a.png,O,m,1258,4,,2276.0,704006.5999999996,7766,NNB,C,2
3,test,1,1.0,2-Back,1.0,z,Tue Mar 03 2026 15:53:27 GMT-0600 (Central Standard Time),708549.0999999996,130_o_f_n_a.png,O,z,1233,5,,2260.39999999851,706288.7000000011,7766,NNB,C,3
4,test,1,0.0,2-Back,1.0,m,Tue Mar 03 2026 15:53:27 GMT-0600 (Central Standard Time),710597.0999999996,098_y_f_n_a.png,O,m,1021,6,,2041.2999999988824,708555.8000000007,7766,NNB,C,4
4,test,1,0.0,2-Back,0.0,m,Tue Mar 03 2026 15:53:27 GMT-0600 (Central Standard Time),712812.9000000004,092_m_m_n_a.png,O,z,1189,7,,2208.5,710604.4000000004,7766,NNB,C,5
5,test,1,1.0,2-Back,1.0,z,Tue Mar 03 2026 15:53:27 GMT-0600 (Central Standard Time),715061.9000000004,098_y_f_n_a.png,O,z,1220,8,,2243.5999999996275,712818.3000000007,7766,NNB,C,6
6,test,1,0.0,2-Back,1.0,m,Tue Mar 03 2026 15:53:27 GMT-0600 (Central Standard Time),717295.0,031_y_m_n_a.png,O,m,1201,9,,2226.9000000003725,715068.0999999996,7766,NNB,C,7
7,test,1,0.0,2-Back,1.0,m,Tue Mar 03 2026 15:53:27 GMT-0600 (Central Standard Time),719426.7000000011,030_o_f_n_a.png,O,m,1106,10,,2122.4000000003725,717304.3000000007,7766,NNB,C,8
8,test,1,1.0,2-Back,1.0,z,Tue Mar 03 2026 15:53:27 GMT-0600 (Central Standard Time),721393.0,031_y_m_n_a.png,O,z,948,11,,1961.199999999255,719431.8000000007,7766,NNB,C,9
9,test,1,0.0,2-Back,1.0,m,Tue Mar 03 2026 15:53:27 GMT-0600 (Central Standard Time),723425.5,006_m_f_n_a.png,O,m,1008,12,,2027.7999999988824,721397.7000000011,7766,NNB,C,10
10,test,1,0.0,2-Back,1.0,m,Tue Mar 03 2026 15:53:27 GMT-0600 (Central Standard Time),726241.2000000011,006_m_f_n_a.png,O,m,1790,13,,2807.800000000745,723433.4000000004,7766,NNB,C,11
11,test,1,0.0,2-Back,1.0,m,Tue Mar 03 2026 15:53:27 GMT-0600 (Central Standard Time),728523.8000000007,146_o_m_n_a.png,O,m,1250,14,,2273.800000000745,726250.0,7766,NNB,C,12
12,test,1,0.0,2-Back,1.0,m,Tue Mar 03 2026 15:53:27 GMT-0600 (Central Standard Time),730705.3000000007,030_o_f_n_a.png,O,m,1163,15,,2173.800000000745,728531.5,7766,NNB,C,13
13,test,1,1.0,2-Back,1.0,z,Tue Mar 03 2026 15:53:27 GMT-0600 (Central Standard Time),732823.0999999996,146_o_m_n_a.png,O,z,1086,16,,2114.5,730708.5999999996,7766,NNB,C,14
14,test,1,0.0,2-Back,1.0,m,Tue Mar 03 2026 15:53:27 GMT-0600 (Central Standard Time),734789.0,093_m_f_n_a.png,O,m,933,17,,1962.0,732827.0,7766,NNB,C,15
15,test,1,0.0,2-Back,1.0,m,Tue Mar 03 2026 15:53:27 GMT-0600 (Central Standard Time),736921.9000000004,082_m_m_n_a.png,O,m,1117,18,,2125.5999999996275,734796.3000000007,7766,NNB,C,16
0,test,2,0.0,2-Back,,,Tue Mar 03 2026 15:53:27 GMT-0600 (Central Standard Time),736921.9000000004,082_m_m_n_a.png,O,space,6583,1,,2125.5999999996275,734796.3000000007,7766,NNB,C,0
0,test,2,0.0,2-Back,,,Tue Mar 03 2026 15:53:27 GMT-0600 (Central Standard Time),736921.9000000004,028_y_f_n_a.png,O,space,6583,2,,2125.5999999996275,734796.3000000007,7766,NNB,C,0
1,test,2,1.0,2-Back,1.0,z,Tue Mar 03 2026 15:53:27 GMT-0600 (Central Standard Time),750668.5999999996,082_m_m_n_a.png,O,z,1005,3,,2025.699999999255,748642.9000000004,7766,NNB,C,1
1,test,2,0.0,2-Back,0.0,m,Tue Mar 03 2026 15:53:27 GMT-0600 (Central Standard Time),753699.5,093_m_f_n_a.png,O,None,2013,4,,3024.7999999988824,750674.7000000011,7766,NNB,C,2
2,test,2,0.0,2-Back,1.0,m,Tue Mar 03 2026 15:53:27 GMT-0600 (Central Standard Time),755464.9000000004,028_y_f_n_a.png,O,m,741,5,,1758.5,753706.4000000004,7766,NNB,C,3
3,test,2,0.0,2-Back,1.0,m,Tue Mar 03 2026 15:53:27 GMT-0600 (Central Standard Time),757199.0999999996,146_o_m_n_a.png,O,m,704,6,,1729.7999999988824,755469.3000000007,7766,NNB,C,4
3,test,2,0.0,2-Back,0.0,m,Tue Mar 03 2026 15:53:27 GMT-0600 (Central Standard Time),759317.7000000011,098_y_f_n_a.png,O,z,1100,7,,2116.0,757201.7000000011,7766,NNB,C,5
3,test,2,1.0,2-Back,0.0,z,Tue Mar 03 2026 15:53:27 GMT-0600 (Central Standard Time),761031.4000000004,146_o_m_n_a.png,O,m,686,8,,1708.0,759323.4000000004,7766,NNB,C,6
4,test,2,0.0,2-Back,1.0,m,Tue Mar 03 2026 15:53:27 GMT-0600 (Central Standard Time),762981.3000000007,031_y_m_n_a.png,O,m,922,9,,1943.5,761037.8000000007,7766,NNB,C,7
5,test,2,0.0,2-Back,1.0,m,Tue Mar 03 2026 15:53:27 GMT-0600 (Central Standard Time),765312.2000000011,031_y_m_n_a.png,O,m,1310,10,,2324.800000000745,762987.4000000004,7766,NNB,C,8
6,test,2,0.0,2-Back,1.0,m,Tue Mar 03 2026 15:53:27 GMT-0600 (Central Standard Time),767612.3000000007,006_m_f_n_a.png,O,m,1283,11,,2293.800000000745,765318.5,7766,NNB,C,9
7,test,2,0.0,2-Back,1.0,m,Tue Mar 03 2026 15:53:27 GMT-0600 (Central Standard Time),769878.0999999996,028_y_f_n_a.png,O,m,1237,12,,2260.39999999851,767617.7000000011,7766,NNB,C,10
8,test,2,1.0,2-Back,1.0,z,Tue Mar 03 2026 15:53:27 GMT-0600 (Central Standard Time),771827.8000000007,006_m_f_n_a.png,O,z,922,13,,1943.0999999996275,769884.7000000011,7766,NNB,C,11
9,test,2,0.0,2-Back,1.0,m,Tue Mar 03 2026 15:53:27 GMT-0600 (Central Standard Time),773727.3000000007,059_o_m_n_a.png,O,m,877,14,,1892.0,771835.3000000007,7766,NNB,C,12
10,test,2,0.0,2-Back,1.0,m,Tue Mar 03 2026 15:53:27 GMT-0600 (Central Standard Time),775941.9000000004,059_o_m_n_a.png,O,m,1194,15,,2211.0,773730.9000000004,7766,NNB,C,13
11,test,2,0.0,2-Back,1.0,m,Tue Mar 03 2026 15:53:27 GMT-0600 (Central Standard Time),778024.9000000004,030_o_f_n_a.png,O,m,1051,16,,2076.9000000003725,775948.0,7766,NNB,C,14
12,test,2,0.0,2-Back,1.0,m,Tue Mar 03 2026 15:53:27 GMT-0600 (Central Standard Time),779841.0999999996,092_m_m_n_a.png,O,m,793,17,,1809.699999999255,778031.4000000004,7766,NNB,C,15
13,test,2,1.0,2-Back,1.0,z,Tue Mar 03 2026 15:53:27 GMT-0600 (Central Standard Time),782041.2000000011,030_o_f_n_a.png,O,z,1169,18,,2194.300000000745,779846.9000000004,7766,NNB,C,16
0,test,3,1.0,2-Back,,,Tue Mar 03 2026 15:53:27 GMT-0600 (Central Standard Time),782041.2000000011,057_y_m_n_a.png,O,space,1649,1,,2194.300000000745,779846.9000000004,7766,NNB,C,0
0,test,3,1.0,2-Back,,,Tue Mar 03 2026 15:53:27 GMT-0600 (Central Standard Time),782041.2000000011,057_y_m_n_a.png,O,space,1649,2,,2194.300000000745,779846.9000000004,7766,NNB,C,0
1,test,3,0.0,2-Back,1.0,m,Tue Mar 03 2026 15:53:27 GMT-0600 (Central Standard Time),790637.5999999996,030_o_f_n_a.png,O,m,804,3,,1823.7999999988824,788813.8000000007,7766,NNB,C,1
2,test,3,0.0,2-Back,1.0,m,Tue Mar 03 2026 15:53:27 GMT-0600 (Central Standard Time),792820.9000000004,082_m_m_n_a.png,O,m,1155,4,,2177.300000000745,790643.5999999996,7766,NNB,C,2
3,test,3,1.0,2-Back,1.0,z,Tue Mar 03 2026 15:53:27 GMT-0600 (Central Standard Time),794703.0999999996,030_o_f_n_a.png,O,z,860,5,,1875.0,792828.0999999996,7766,NNB,C,3
4,test,3,0.0,2-Back,1.0,m,Tue Mar 03 2026 15:53:27 GMT-0600 (Central Standard Time),796670.0999999996,031_y_m_n_a.png,O,m,938,6,,1961.3999999985099,794708.7000000011,7766,NNB,C,4
4,test,3,0.0,2-Back,0.0,m,Tue Mar 03 2026 15:53:27 GMT-0600 (Central Standard Time),798803.0,082_m_m_n_a.png,O,z,1117,7,,2126.2999999988824,796676.7000000011,7766,NNB,C,5
5,test,3,1.0,2-Back,1.0,z,Tue Mar 03 2026 15:53:27 GMT-0600 (Central Standard Time),800835.0999999996,031_y_m_n_a.png,O,z,1008,8,,2025.5,798809.5999999996,7766,NNB,C,6
6,test,3,0.0,2-Back,1.0,m,Tue Mar 03 2026 15:53:27 GMT-0600 (Central Standard Time),802716.4000000004,028_y_f_n_a.png,O,m,862,9,,1874.4000000003725,800842.0,7766,NNB,C,7
7,test,3,0.0,2-Back,1.0,m,Tue Mar 03 2026 15:53:27 GMT-0600 (Central Standard Time),804582.3000000007,092_m_m_n_a.png,O,m,834,10,,1860.9000000003725,802721.4000000004,7766,NNB,C,8
8,test,3,1.0,2-Back,1.0,z,Tue Mar 03 2026 15:53:27 GMT-0600 (Central Standard Time),806649.7000000011,028_y_f_n_a.png,O,z,1033,11,,2062.10000000149,804587.5999999996,7766,NNB,C,9
9,test,3,1.0,2-Back,1.0,z,Tue Mar 03 2026 15:53:27 GMT-0600 (Central Standard Time),808614.8000000007,092_m_m_n_a.png,O,z,942,12,,1958.5999999996275,806656.2000000011,7766,NNB,C,10
10,test,3,0.0,2-Back,1.0,m,Tue Mar 03 2026 15:53:27 GMT-0600 (Central Standard Time),810531.7000000011,030_o_f_n_a.png,O,m,890,13,,1910.800000000745,808620.9000000004,7766,NNB,C,11
11,test,3,0.0,2-Back,1.0,m,Tue Mar 03 2026 15:53:27 GMT-0600 (Central Standard Time),812515.3000000007,093_m_f_n_a.png,O,m,958,14,,1977.7000000011176,810537.5999999996,7766,NNB,C,12
12,test,3,0.0,2-Back,1.0,m,Tue Mar 03 2026 15:53:27 GMT-0600 (Central Standard Time),814430.7000000011,146_o_m_n_a.png,O,m,885,15,,1909.800000000745,812520.9000000004,7766,NNB,C,13
13,test,3,1.0,2-Back,1.0,z,Tue Mar 03 2026 15:53:27 GMT-0600 (Central Standard Time),816413.5,093_m_f_n_a.png,O,z,954,16,,1975.7999999988824,814437.7000000011,7766,NNB,C,14
14,test,3,0.0,2-Back,1.0,m,Tue Mar 03 2026 15:53:27 GMT-0600 (Central Standard Time),818512.9000000004,130_o_f_n_a.png,O,m,1067,17,,2093.800000000745,816419.0999999996,7766,NNB,C,15
15,test,3,0.0,2-Back,1.0,m,Tue Mar 03 2026 15:53:27 GMT-0600 (Central Standard Time),821144.8000000007,130_o_f_n_a.png,O,m,1607,18,,2625.2000000011176,818519.5999999996,7766,NNB,C,16
0,test,4,0.0,2-Back,,,Tue Mar 03 2026 15:53:27 GMT-0600 (Central Standard Time),821144.8000000007,059_o_m_n_a.png,O,space,4000,1,,2625.2000000011176,818519.5999999996,7766,NNB,C,0
0,test,4,0.0,2-Back,,,Tue Mar 03 2026 15:53:27 GMT-0600 (Central Standard Time),821144.8000000007,098_y_f_n_a.png,O,space,4000,2,,2625.2000000011176,818519.5999999996,7766,NNB,C,0
1,test,4,1.0,2-Back,1.0,z,Tue Mar 03 2026 15:53:27 GMT-0600 (Central Standard Time),832625.0999999996,059_o_m_n_a.png,O,z,1234,3,,2257.5999999996275,830367.5,7766,NNB,C,1
2,test,4,1.0,2-Back,1.0,z,Tue Mar 03 2026 15:53:27 GMT-0600 (Central Standard Time),834540.5999999996,098_y_f_n_a.png,O,z,888,4,,1909.5999999996275,832631.0,7766,NNB,C,2
3,test,4,0.0,2-Back,1.0,m,Tue Mar 03 2026 15:53:27 GMT-0600 (Central Standard Time),836389.7000000011,030_o_f_n_a.png,O,m,820,5,,1842.1000000014901,834547.5999999996,7766,NNB,C,3
4,test,4,0.0,2-Back,1.0,m,Tue Mar 03 2026 15:53:27 GMT-0600 (Central Standard Time),838589.7000000011,030_o_f_n_a.png,O,m,1171,6,,2192.2000000011176,836397.5,7766,NNB,C,4
5,test,4,0.0,2-Back,1.0,m,Tue Mar 03 2026 15:53:27 GMT-0600 (Central Standard Time),840588.4000000004,006_m_f_n_a.png,O,m,980,7,,1992.300000000745,838596.0999999996,7766,NNB,C,5
6,test,4,0.0,2-Back,1.0,m,Tue Mar 03 2026 15:53:27 GMT-0600 (Central Standard Time),842521.7000000011,031_y_m_n_a.png,O,m,901,8,,1926.2000000011176,840595.5,7766,NNB,C,6
7,test,4,1.0,2-Back,1.0,z,Tue Mar 03 2026 15:53:27 GMT-0600 (Central Standard Time),844853.5,006_m_f_n_a.png,O,z,1304,9,,2324.199999999255,842529.3000000007,7766,NNB,C,7
8,test,4,0.0,2-Back,1.0,m,Tue Mar 03 2026 15:53:27 GMT-0600 (Central Standard Time),846653.0999999996,092_m_m_n_a.png,O,m,771,10,,1791.7999999988824,844861.3000000007,7766,NNB,C,8
8,test,4,0.0,2-Back,0.0,m,Tue Mar 03 2026 15:53:27 GMT-0600 (Central Standard Time),848853.0,031_y_m_n_a.png,O,z,1172,11,,2192.0999999996275,846660.9000000004,7766,NNB,C,9
9,test,4,0.0,2-Back,1.0,m,Tue Mar 03 2026 15:53:27 GMT-0600 (Central Standard Time),850701.8000000007,130_o_f_n_a.png,O,m,820,12,,1841.800000000745,848860.0,7766,NNB,C,10
10,test,4,0.0,2-Back,1.0,m,Tue Mar 03 2026 15:53:27 GMT-0600 (Central Standard Time),852567.8000000007,057_y_m_n_a.png,O,m,837,13,,1856.5999999996275,850711.2000000011,7766,NNB,C,11
11,test,4,1.0,2-Back,1.0,z,Tue Mar 03 2026 15:53:27 GMT-0600 (Central Standard Time),854485.2000000011,130_o_f_n_a.png,O,z,896,14,,1912.0,852573.2000000011,7766,NNB,C,12
11,test,4,1.0,2-Back,0.0,z,Tue Mar 03 2026 15:53:27 GMT-0600 (Central Standard Time),856733.8000000007,057_y_m_n_a.png,O,m,1229,15,,2240.300000000745,854493.5,7766,NNB,C,13
12,test,4,0.0,2-Back,1.0,m,Tue Mar 03 2026 15:53:27 GMT-0600 (Central Standard Time),858685.5,082_m_m_n_a.png,O,m,924,16,,1944.7999999988824,856740.7000000011,7766,NNB,C,14
13,test,4,0.0,2-Back,1.0,m,Tue Mar 03 2026 15:53:27 GMT-0600 (Central Standard Time),860485.5,093_m_f_n_a.png,O,m,784,17,,1793.0,858692.5,7766,NNB,C,15
14,test,4,1.0,2-Back,1.0,z,Tue Mar 03 2026 15:53:27 GMT-0600 (Central Standard Time),862348.7000000011,082_m_m_n_a.png,O,z,848,18,,1856.2000000011176,860492.5,7766,NNB,C,16
0,test,5,1.0,2-Back,,,Tue Mar 03 2026 15:53:27 GMT-0600 (Central Standard Time),862348.7000000011,057_y_m_n_a.png,O,space,1604,1,,1856.2000000011176,860492.5,7766,NNB,C,0
0,test,5,1.0,2-Back,,,Tue Mar 03 2026 15:53:27 GMT-0600 (Central Standard Time),862348.7000000011,093_m_f_n_a.png,O,space,1604,2,,1856.2000000011176,860492.5,7766,NNB,C,0
1,test,5,1.0,2-Back,1.0,z,Tue Mar 03 2026 15:53:27 GMT-0600 (Central Standard Time),871028.0999999996,057_y_m_n_a.png,O,z,987,3,,2007.199999999255,869020.9000000004,7766,NNB,C,1
2,test,5,1.0,2-Back,1.0,z,Tue Mar 03 2026 15:53:27 GMT-0600 (Central Standard Time),873178.8000000007,093_m_f_n_a.png,O,z,1123,4,,2142.9000000003725,871035.9000000004,7766,NNB,C,2
3,test,5,0.0,2-Back,1.0,m,Tue Mar 03 2026 15:53:27 GMT-0600 (Central Standard Time),875177.5,130_o_f_n_a.png,O,m,966,5,,1991.199999999255,873186.3000000007,7766,NNB,C,3
4,test,5,0.0,2-Back,1.0,m,Tue Mar 03 2026 15:53:27 GMT-0600 (Central Standard Time),877628.0999999996,057_y_m_n_a.png,O,m,1431,6,,2442.7999999988824,875185.3000000007,7766,NNB,C,4
5,test,5,0.0,2-Back,1.0,m,Tue Mar 03 2026 15:53:27 GMT-0600 (Central Standard Time),879958.4000000004,028_y_f_n_a.png,O,m,1308,7,,2324.699999999255,877633.7000000011,7766,NNB,C,5
6,test,5,0.0,2-Back,1.0,m,Tue Mar 03 2026 15:53:27 GMT-0600 (Central Standard Time),881958.9000000004,130_o_f_n_a.png,O,m,977,8,,1997.699999999255,879961.2000000011,7766,NNB,C,6
7,test,5,1.0,2-Back,1.0,z,Tue Mar 03 2026 15:53:27 GMT-0600 (Central Standard Time),883974.8000000007,028_y_f_n_a.png,O,z,985,9,,2008.300000000745,881966.5,7766,NNB,C,7
8,test,5,0.0,2-Back,1.0,m,Tue Mar 03 2026 15:53:27 GMT-0600 (Central Standard Time),885890.8000000007,146_o_m_n_a.png,O,m,890,10,,1909.0999999996275,883981.7000000011,7766,NNB,C,8
9,test,5,0.0,2-Back,1.0,m,Tue Mar 03 2026 15:53:27 GMT-0600 (Central Standard Time),887773.0,006_m_f_n_a.png,O,m,853,11,,1874.699999999255,885898.3000000007,7766,NNB,C,9
9,test,5,0.0,2-Back,0.0,m,Tue Mar 03 2026 15:53:27 GMT-0600 (Central Standard Time),889805.8000000007,092_m_m_n_a.png,O,z,1009,12,,2028.5,887777.3000000007,7766,NNB,C,10
10,test,5,0.0,2-Back,1.0,m,Tue Mar 03 2026 15:53:27 GMT-0600 (Central Standard Time),891972.5,146_o_m_n_a.png,O,m,1148,13,,2159.4000000003725,889813.0999999996,7766,NNB,C,11
10,test,5,1.0,2-Back,0.0,z,Tue Mar 03 2026 15:53:27 GMT-0600 (Central Standard Time),894721.4000000004,092_m_m_n_a.png,O,m,1732,14,,2740.0999999996275,891981.3000000007,7766,NNB,C,12
11,test,5,0.0,2-Back,1.0,m,Tue Mar 03 2026 15:53:27 GMT-0600 (Central Standard Time),896754.2000000011,098_y_f_n_a.png,O,m,1007,15,,2026.9000000003725,894727.3000000007,7766,NNB,C,13
12,test,5,0.0,2-Back,1.0,m,Tue Mar 03 2026 15:53:27 GMT-0600 (Central Standard Time),898736.7000000011,059_o_m_n_a.png,O,m,958,16,,1974.1000000014901,896762.5999999996,7766,NNB,C,14
13,test,5,0.0,2-Back,1.0,m,Tue Mar 03 2026 15:53:27 GMT-0600 (Central Standard Time),900853.5999999996,006_m_f_n_a.png,O,m,1087,17,,2111.0999999996275,898742.5,7766,NNB,C,15
13,test,5,1.0,2-Back,0.0,z,Tue Mar 03 2026 15:53:27 GMT-0600 (Central Standard Time),902852.5,059_o_m_n_a.png,O,m,973,18,,1995.199999999255,900857.3000000007,7766,NNB,C,16
