Q,Q1,Q2,Q3,Q4,acc_sum,block,block_c,correct,correct_response,datetime,endtime,project,response,response_time,row_sel,session_number,squiggle1,squiggle1x,squiggle1y,squiggle2,squiggle2x,squiggle2y,squiggle3,squiggle3x,squiggle3y,squiggle4,squiggle4x,squiggle4y,start_end,starttime,subject_id,target_congruent,task,task_vers,testsquiggle,testsquigglex,testsquiggley,time_practice_delay,time_practice_fixation,time_practice_stimuli,time_practice_study,time_test_delay,time_test_fixation,time_test_stimuli,time_test_study,trial
1,1,0,0,0,0,prac,1,0,z,Tue Mar 03 2026 11:56:31 GMT-0600 (Central Standard Time),281196.2000000477,O,None,2016,1,1,116.bmp,-120,-120,117.bmp,120,-120,118.bmp,-120,120,119.bmp,120,120,10826.799999952316,270369.40000009537,7762,yes,SM,A,116.bmp,-120,-120,273475,267447,275491,269460,,,,,1
3,0,0,1,0,0,prac,1,0,m,Tue Mar 03 2026 11:56:31 GMT-0600 (Central Standard Time),292026.3000000715,O,None,2015,2,1,120.bmp,-120,-120,121.bmp,120,-120,122.bmp,-120,120,123.bmp,120,120,10825.5,281200.8000000715,7762,no,SM,A,123.bmp,-120,120,284305,278278,286321,280289,,,,,2
4,0,0,0,1,1,prac,1,1,m,Tue Mar 03 2026 11:56:31 GMT-0600 (Central Standard Time),302489.5,O,m,1640,3,1,124.bmp,-120,-120,125.bmp,120,-120,126.bmp,-120,120,127.bmp,120,120,10458.799999952316,292030.7000000477,7762,no,SM,A,124.bmp,120,120,295135,289108,297151,291120,,,,,3
2,0,1,0,0,1,prac,1,0,z,Tue Mar 03 2026 11:56:31 GMT-0600 (Central Standard Time),313120.60000002384,O,m,1801,4,1,128.bmp,-120,-120,129.bmp,120,-120,130.bmp,-120,120,131.bmp,120,120,10627.5,302493.10000002384,7762,yes,SM,A,129.bmp,120,-120,305598,299570,307614,301583,,,,,4
3,0,0,1,0,2,prac,1,1,z,Tue Mar 03 2026 11:56:31 GMT-0600 (Central Standard Time),323699.40000009537,O,z,1754,5,1,132.bmp,-120,-120,133.bmp,120,-120,134.bmp,-120,120,135.bmp,120,120,10574.400000095367,313125.0,7762,yes,SM,A,134.bmp,-120,120,316228,310202,318245,312213,,,,,5
1,1,0,0,0,2,prac,1,0,m,Tue Mar 03 2026 11:56:31 GMT-0600 (Central Standard Time),334529.40000009537,O,None,2016,6,1,136.bmp,-120,-120,137.bmp,120,-120,138.bmp,-120,120,139.bmp,120,120,10826.400000095367,323703.0,7762,no,SM,A,139.bmp,-120,-120,326808,320780,328824,322794,,,,,6
2,0,1,0,0,3,prac,1,1,m,Tue Mar 03 2026 11:56:31 GMT-0600 (Central Standard Time),344842.90000009537,O,m,1497,7,1,140.bmp,-120,-120,141.bmp,120,-120,142.bmp,-120,120,143.bmp,120,120,10310.100000023842,334532.8000000715,7762,no,SM,A,140.bmp,120,-120,337638,331610,339654,333623,,,,,7
4,0,0,0,1,3,prac,1,0,z,Tue Mar 03 2026 11:56:31 GMT-0600 (Central Standard Time),355156.0,O,m,1495,8,1,144.bmp,-120,-120,145.bmp,120,-120,146.bmp,-120,120,147.bmp,120,120,10309.799999952316,344846.2000000477,7762,yes,SM,A,147.bmp,120,120,347952,341923,349968,343936,,,,,8
1,1,0,0,0,0,prac,2,0,z,Tue Mar 03 2026 11:56:31 GMT-0600 (Central Standard Time),377400.3000000715,O,None,2016,1,1,116.bmp,-120,-120,117.bmp,120,-120,118.bmp,-120,120,119.bmp,120,120,10827.700000047684,366572.60000002384,7762,yes,SM,A,116.bmp,-120,-120,369678,363650,371694,365663,,,,,1
3,0,0,1,0,0,prac,2,0,m,Tue Mar 03 2026 11:56:31 GMT-0600 (Central Standard Time),388029.3000000715,O,z,1802,2,1,120.bmp,-120,-120,121.bmp,120,-120,122.bmp,-120,120,123.bmp,120,120,10624.200000047684,377405.10000002384,7762,no,SM,A,123.bmp,-120,120,380508,374482,382525,376492,,,,,2
4,0,0,0,1,0,prac,2,0,m,Tue Mar 03 2026 11:56:31 GMT-0600 (Central Standard Time),398026.2000000477,O,z,1181,3,1,124.bmp,-120,-120,125.bmp,120,-120,126.bmp,-120,120,127.bmp,120,120,9993.5,388032.7000000477,7762,no,SM,A,124.bmp,120,120,391138,385110,393154,387122,,,,,3
2,0,1,0,0,0,prac,2,0,z,Tue Mar 03 2026 11:56:31 GMT-0600 (Central Standard Time),408689.7000000477,O,m,1833,4,1,128.bmp,-120,-120,129.bmp,120,-120,130.bmp,-120,120,131.bmp,120,120,10659.799999952316,398029.90000009537,7762,yes,SM,A,129.bmp,120,-120,401135,395107,403151,397119,,,,,4
3,0,0,1,0,1,prac,2,1,z,Tue Mar 03 2026 11:56:31 GMT-0600 (Central Standard Time),419302.90000009537,O,z,1785,5,1,132.bmp,-120,-120,133.bmp,120,-120,134.bmp,-120,120,135.bmp,120,120,10609.200000047684,408693.7000000477,7762,yes,SM,A,134.bmp,-120,120,411798,405771,413814,407783,,,,,5
1,1,0,0,0,2,prac,2,1,m,Tue Mar 03 2026 11:56:31 GMT-0600 (Central Standard Time),429616.10000002384,O,m,1491,6,1,136.bmp,-120,-120,137.bmp,120,-120,138.bmp,-120,120,139.bmp,120,120,10309.199999928474,419306.90000009537,7762,no,SM,A,139.bmp,-120,-120,422411,416384,424428,418396,,,,,6
2,0,1,0,0,2,prac,2,0,m,Tue Mar 03 2026 11:56:31 GMT-0600 (Central Standard Time),440346.3000000715,O,z,1905,7,1,140.bmp,-120,-120,141.bmp,120,-120,142.bmp,-120,120,143.bmp,120,120,10723.700000047684,429622.60000002384,7762,no,SM,A,140.bmp,120,-120,432725,426700,434741,428710,,,,,7
4,0,0,0,1,3,prac,2,1,z,Tue Mar 03 2026 11:56:31 GMT-0600 (Central Standard Time),450709.90000009537,O,z,1543,8,1,144.bmp,-120,-120,145.bmp,120,-120,146.bmp,-120,120,147.bmp,120,120,10360.0,440349.90000009537,7762,yes,SM,A,147.bmp,120,120,443456,437427,445472,439440,,,,,8
4,0,0,0,1,0,test,1,0,m,Tue Mar 03 2026 11:56:31 GMT-0600 (Central Standard Time),482249.90000009537,O,z,1991,1,1,148.bmp,-120,-120,149.bmp,120,-120,150.bmp,-120,120,143.bmp,120,120,10044.100000023842,472205.8000000715,7762,no,SM,A,150.bmp,120,120,443456,437427,445472,439440,475312.0,469283.0,477328.0,471296.0,1
2,0,1,0,0,0,test,1,0,m,Tue Mar 03 2026 11:56:31 GMT-0600 (Central Standard Time),491663.5,O,z,1351,2,1,101.bmp,-120,-120,102.bmp,120,-120,103.bmp,-120,120,104.bmp,120,120,9410.599999904633,482252.90000009537,7762,no,SM,A,103.bmp,120,-120,443456,437427,445472,439440,485358.0,479330.0,487375.0,481343.0,2
1,1,0,0,0,0,test,1,0,z,Tue Mar 03 2026 11:56:31 GMT-0600 (Central Standard Time),501728.2000000477,O,None,2017,3,1,105.bmp,-120,-120,106.bmp,120,-120,107.bmp,-120,120,108.bmp,120,120,10061.0,491667.2000000477,7762,yes,SM,A,105.bmp,-120,-120,443456,437427,445472,439440,494772.0,488744.0,496788.0,490757.0,3
3,0,0,1,0,1,test,1,1,m,Tue Mar 03 2026 11:56:31 GMT-0600 (Central Standard Time),511691.7000000477,O,m,1914,4,1,109.bmp,-120,-120,110.bmp,120,-120,111.bmp,-120,120,112.bmp,120,120,9958.600000023842,501733.10000002384,7762,no,SM,A,109.bmp,-120,120,443456,437427,445472,439440,504836.0,498810.0,506852.0,500820.0,4
2,0,1,0,0,1,test,1,0,z,Tue Mar 03 2026 11:56:31 GMT-0600 (Central Standard Time),521654.2000000477,O,m,1904,5,1,113.bmp,-120,-120,114.bmp,120,-120,115.bmp,-120,120,116.bmp,120,120,9959.399999976158,511694.8000000715,7762,yes,SM,A,114.bmp,120,-120,443456,437427,445472,439440,514799.0,508772.0,516815.0,510784.0,5
3,0,0,1,0,2,test,1,1,z,Tue Mar 03 2026 11:56:31 GMT-0600 (Central Standard Time),531468.8000000715,O,z,1764,6,1,117.bmp,-120,-120,118.bmp,120,-120,119.bmp,-120,120,120.bmp,120,120,9810.899999976158,521657.90000009537,7762,yes,SM,A,119.bmp,-120,120,443456,437427,445472,439440,524764.0,518735.0,526779.0,520748.0,6
4,0,0,0,1,2,test,1,0,z,Tue Mar 03 2026 11:56:31 GMT-0600 (Central Standard Time),541531.4000000954,O,None,2015,7,1,121.bmp,-120,-120,122.bmp,120,-120,123.bmp,-120,120,124.bmp,120,120,10059.0,531472.4000000954,7762,yes,SM,A,124.bmp,120,120,443456,437427,445472,439440,534577.0,528550.0,536593.0,530562.0,7
2,0,1,0,0,2,test,1,0,m,Tue Mar 03 2026 11:56:31 GMT-0600 (Central Standard Time),551128.5,O,z,1534,8,1,125.bmp,-120,-120,126.bmp,120,-120,127.bmp,-120,120,128.bmp,120,120,9593.799999952316,541534.7000000477,7762,no,SM,A,125.bmp,120,-120,443456,437427,445472,439440,544640.0,538612.0,546656.0,540625.0,8
3,0,0,1,0,3,test,1,1,m,Tue Mar 03 2026 11:56:31 GMT-0600 (Central Standard Time),560792.0,O,m,1602,9,1,129.bmp,-120,-120,130.bmp,120,-120,131.bmp,-120,120,132.bmp,120,120,9660.199999928474,551131.8000000715,7762,no,SM,A,130.bmp,-120,120,443456,437427,445472,439440,554237.0,548209.0,556253.0,550222.0,9
4,0,0,0,1,4,test,1,1,z,Tue Mar 03 2026 11:56:31 GMT-0600 (Central Standard Time),570472.1000000238,O,z,1618,10,1,137.bmp,-120,-120,138.bmp,120,-120,139.bmp,-120,120,140.bmp,120,120,9676.699999928474,560795.4000000954,7762,yes,SM,A,140.bmp,120,120,443456,437427,445472,439440,563901.0,557873.0,565917.0,559885.0,10
3,0,0,1,0,4,test,1,0,z,Tue Mar 03 2026 11:56:31 GMT-0600 (Central Standard Time),580536.9000000954,O,None,2017,11,1,133.bmp,-120,-120,134.bmp,120,-120,135.bmp,-120,120,136.bmp,120,120,10061.100000023842,570475.8000000715,7762,yes,SM,A,135.bmp,-120,120,443456,437427,445472,439440,573581.0,567553.0,575597.0,569566.0,11
2,0,1,0,0,4,test,1,0,m,Tue Mar 03 2026 11:56:31 GMT-0600 (Central Standard Time),590599.1000000238,O,None,2016,12,1,141.bmp,-120,-120,142.bmp,120,-120,143.bmp,-120,120,144.bmp,120,120,10058.299999952316,580540.8000000715,7762,no,SM,A,141.bmp,120,-120,443456,437427,445472,439440,583644.0,577618.0,585660.0,579629.0,12
3,0,0,1,0,4,test,1,0,m,Tue Mar 03 2026 11:56:31 GMT-0600 (Central Standard Time),600662.6000000238,O,None,2016,13,1,145.bmp,-120,-120,146.bmp,120,-120,147.bmp,-120,120,148.bmp,120,120,10060.100000023842,590602.5,7762,no,SM,A,146.bmp,-120,120,443456,437427,445472,439440,593708.0,587680.0,595724.0,589692.0,13
1,1,0,0,0,4,test,1,0,z,Tue Mar 03 2026 11:56:31 GMT-0600 (Central Standard Time),610726.5,O,None,2016,14,1,149.bmp,-120,-120,150.bmp,120,-120,104.bmp,-120,120,101.bmp,120,120,10060.899999976158,600665.6000000238,7762,yes,SM,A,149.bmp,-120,-120,443456,437427,445472,439440,603771.0,597743.0,605787.0,599757.0,14
4,0,0,0,1,5,test,1,1,m,Tue Mar 03 2026 11:56:31 GMT-0600 (Central Standard Time),620722.9000000954,O,m,1947,15,1,110.bmp,-120,-120,111.bmp,120,-120,112.bmp,-120,120,113.bmp,120,120,9992.900000095367,610730.0,7762,no,SM,A,111.bmp,120,120,443456,437427,445472,439440,613835.0,607807.0,615852.0,609820.0,15
1,1,0,0,0,6,test,1,1,m,Tue Mar 03 2026 11:56:31 GMT-0600 (Central Standard Time),630570.0,O,m,1799,16,1,102.bmp,-120,-120,103.bmp,120,-120,104.bmp,-120,120,105.bmp,120,120,9843.599999904633,620726.4000000954,7762,no,SM,A,105.bmp,-120,-120,443456,437427,445472,439440,623832.0,617804.0,625848.0,619816.0,16
3,0,0,1,0,7,test,1,1,m,Tue Mar 03 2026 11:56:31 GMT-0600 (Central Standard Time),639817.5,O,m,1192,17,1,122.bmp,-120,-120,123.bmp,120,-120,124.bmp,-120,120,125.bmp,120,120,9244.399999976158,630573.1000000238,7762,no,SM,A,122.bmp,-120,120,443456,437427,445472,439440,633678.0,627650.0,635695.0,629664.0,17
1,1,0,0,0,7,test,1,0,z,Tue Mar 03 2026 11:56:31 GMT-0600 (Central Standard Time),649880.8000000715,O,None,2016,18,1,106.bmp,-120,-120,107.bmp,120,-120,108.bmp,-120,120,109.bmp,120,120,10059.600000023842,639821.2000000477,7762,yes,SM,A,106.bmp,-120,-120,443456,437427,445472,439440,642926.0,636898.0,644942.0,638911.0,18
2,0,1,0,0,8,test,1,1,z,Tue Mar 03 2026 11:56:31 GMT-0600 (Central Standard Time),659610.8000000715,O,z,1681,19,1,126.bmp,-120,-120,127.bmp,120,-120,128.bmp,-120,120,129.bmp,120,120,9726.300000071526,649884.5,7762,yes,SM,A,127.bmp,120,-120,443456,437427,445472,439440,652989.0,646962.0,655006.0,648975.0,19
3,0,0,1,0,9,test,1,1,z,Tue Mar 03 2026 11:56:31 GMT-0600 (Central Standard Time),669041.4000000954,O,z,1300,20,1,130.bmp,-120,-120,131.bmp,120,-120,132.bmp,-120,120,133.bmp,120,120,9427.300000071526,659614.1000000238,7762,yes,SM,A,132.bmp,-120,120,443456,437427,445472,439440,662787.0,656691.0,664803.0,658704.0,20
1,1,0,0,0,9,test,1,0,m,Tue Mar 03 2026 11:56:31 GMT-0600 (Central Standard Time),679105.0,O,None,2016,21,1,114.bmp,-120,-120,115.bmp,120,-120,116.bmp,-120,120,117.bmp,120,120,10060.599999904633,669044.4000000954,7762,no,SM,A,116.bmp,-120,-120,443456,437427,445472,439440,672150.0,666122.0,674166.0,668135.0,21
4,0,0,0,1,10,test,1,1,z,Tue Mar 03 2026 11:56:31 GMT-0600 (Central Standard Time),689018.6000000238,O,z,1857,22,1,118.bmp,-120,-120,119.bmp,120,-120,120.bmp,-120,120,121.bmp,120,120,9910.299999952316,679108.3000000715,7762,yes,SM,A,121.bmp,120,120,443456,437427,445472,439440,682214.0,676186.0,684229.0,678198.0,22
1,1,0,0,0,11,test,1,1,m,Tue Mar 03 2026 11:56:31 GMT-0600 (Central Standard Time),698932.2000000477,O,m,1864,23,1,134.bmp,-120,-120,135.bmp,120,-120,136.bmp,-120,120,137.bmp,120,120,9910.700000047684,689021.5,7762,no,SM,A,137.bmp,-120,-120,443456,437427,445472,439440,692127.0,686099.0,694143.0,688112.0,23
2,0,1,0,0,11,test,1,0,z,Tue Mar 03 2026 11:56:31 GMT-0600 (Central Standard Time),708995.7000000477,O,None,2016,24,1,142.bmp,-120,-120,143.bmp,120,-120,144.bmp,-120,120,145.bmp,120,120,10059.700000047684,698936.0,7762,yes,SM,A,143.bmp,120,-120,443456,437427,445472,439440,702041.0,696013.0,704057.0,698026.0,24
4,0,0,0,1,11,test,1,0,m,Tue Mar 03 2026 11:56:31 GMT-0600 (Central Standard Time),719059.1000000238,O,None,2016,25,1,146.bmp,-120,-120,147.bmp,120,-120,148.bmp,-120,120,149.bmp,120,120,10059.199999928474,708999.9000000954,7762,no,SM,A,148.bmp,120,120,443456,437427,445472,439440,712104.0,706077.0,714120.0,708089.0,25
1,1,0,0,0,12,test,1,1,z,Tue Mar 03 2026 11:56:31 GMT-0600 (Central Standard Time),729039.4000000954,O,z,1919,26,1,138.bmp,-120,-120,139.bmp,120,-120,140.bmp,-120,120,141.bmp,120,120,9976.200000047684,719063.2000000477,7762,yes,SM,A,138.bmp,-120,-120,443456,437427,445472,439440,722168.0,716140.0,724184.0,718152.0,26
4,0,0,0,1,13,test,1,1,z,Tue Mar 03 2026 11:56:31 GMT-0600 (Central Standard Time),738586.2000000477,O,z,1491,27,1,150.bmp,-120,-120,111.bmp,120,-120,101.bmp,-120,120,102.bmp,120,120,9543.5,729042.7000000477,7762,yes,SM,A,102.bmp,120,120,443456,437427,445472,439440,732148.0,726120.0,734164.0,728132.0,27
3,0,0,1,0,14,test,1,1,m,Tue Mar 03 2026 11:56:31 GMT-0600 (Central Standard Time),747650.0,O,m,1007,28,1,103.bmp,-120,-120,104.bmp,120,-120,105.bmp,-120,120,106.bmp,120,120,9059.899999976158,738590.1000000238,7762,no,SM,A,103.bmp,-120,120,443456,437427,445472,439440,741695.0,735667.0,743712.0,737680.0,28
2,0,1,0,0,15,test,1,1,z,Tue Mar 03 2026 11:56:31 GMT-0600 (Central Standard Time),757130.6000000238,O,z,1432,29,1,107.bmp,-120,-120,108.bmp,120,-120,109.bmp,-120,120,110.bmp,120,120,9477.100000023842,747653.5,7762,yes,SM,A,108.bmp,120,-120,443456,437427,445472,439440,750759.0,744731.0,752775.0,746743.0,29
3,0,0,1,0,16,test,1,1,z,Tue Mar 03 2026 11:56:31 GMT-0600 (Central Standard Time),766844.3000000715,O,z,1663,30,1,111.bmp,-120,-120,112.bmp,120,-120,113.bmp,-120,120,114.bmp,120,120,9710.700000047684,757133.6000000238,7762,yes,SM,A,113.bmp,-120,120,443456,437427,445472,439440,760239.0,754211.0,762256.0,756224.0,30
1,1,0,0,0,16,test,1,0,z,Tue Mar 03 2026 11:56:31 GMT-0600 (Central Standard Time),776908.7000000477,O,None,2017,31,1,115.bmp,-120,-120,116.bmp,120,-120,117.bmp,-120,120,118.bmp,120,120,10060.899999976158,766847.8000000715,7762,yes,SM,A,115.bmp,-120,-120,443456,437427,445472,439440,769953.0,763925.0,771969.0,765937.0,31
2,0,1,0,0,16,test,1,0,m,Tue Mar 03 2026 11:56:31 GMT-0600 (Central Standard Time),786972.3000000715,O,None,2016,32,1,119.bmp,-120,-120,120.bmp,120,-120,121.bmp,-120,120,122.bmp,120,120,10060.399999976158,776911.9000000954,7762,no,SM,A,119.bmp,120,-120,443456,437427,445472,439440,780016.0,773989.0,782033.0,776001.0,32
4,0,0,0,1,17,test,1,1,z,Tue Mar 03 2026 11:56:31 GMT-0600 (Central Standard Time),796351.6000000238,O,z,1319,33,1,131.bmp,-120,-120,132.bmp,120,-120,133.bmp,-120,120,134.bmp,120,120,9376.100000023842,786975.5,7762,yes,SM,A,134.bmp,120,120,443456,437427,445472,439440,790080.0,784053.0,792096.0,786064.0,33
2,0,1,0,0,17,test,1,0,z,Tue Mar 03 2026 11:56:31 GMT-0600 (Central Standard Time),806414.8000000715,O,None,2016,34,1,123.bmp,-120,-120,124.bmp,120,-120,125.bmp,-120,120,126.bmp,120,120,10060.300000071526,796354.5,7762,yes,SM,A,124.bmp,120,-120,443456,437427,445472,439440,799460.0,793432.0,801476.0,795445.0,34
4,0,0,0,1,18,test,1,1,m,Tue Mar 03 2026 11:56:31 GMT-0600 (Central Standard Time),816245.4000000954,O,m,1772,35,1,127.bmp,-120,-120,128.bmp,120,-120,129.bmp,-120,120,130.bmp,120,120,9827.0,806418.4000000954,7762,no,SM,A,129.bmp,120,120,443456,437427,445472,439440,809524.0,803496.0,811540.0,805510.0,35
3,0,0,1,0,18,test,1,0,m,Tue Mar 03 2026 11:56:31 GMT-0600 (Central Standard Time),825775.7000000477,O,z,1469,36,1,135.bmp,-120,-120,136.bmp,120,-120,137.bmp,-120,120,138.bmp,120,120,9527.200000047684,816248.5,7762,no,SM,A,135.bmp,-120,120,443456,437427,445472,439440,819354.0,813326.0,821370.0,815339.0,36
1,1,0,0,0,19,test,1,1,m,Tue Mar 03 2026 11:56:31 GMT-0600 (Central Standard Time),835689.4000000954,O,m,1850,37,1,139.bmp,-120,-120,140.bmp,120,-120,141.bmp,-120,120,142.bmp,120,120,9910.5,825778.9000000954,7762,no,SM,A,140.bmp,-120,-120,443456,437427,445472,439440,828884.0,822856.0,830900.0,824869.0,37
2,0,1,0,0,19,test,1,0,m,Tue Mar 03 2026 11:56:31 GMT-0600 (Central Standard Time),845753.2000000477,O,None,2016,38,1,143.bmp,-120,-120,144.bmp,120,-120,145.bmp,-120,120,146.bmp,120,120,10060.200000047684,835693.0,7762,no,SM,A,145.bmp,120,-120,443456,437427,445472,439440,838798.0,832770.0,840814.0,834783.0,38
4,0,0,0,1,20,test,1,1,z,Tue Mar 03 2026 11:56:31 GMT-0600 (Central Standard Time),855316.7000000477,O,z,1513,39,1,147.bmp,-120,-120,148.bmp,120,-120,149.bmp,-120,120,150.bmp,120,120,9560.200000047684,845756.5,7762,yes,SM,A,150.bmp,120,120,443456,437427,445472,439440,848861.0,842834.0,850878.0,844846.0,39
3,0,0,1,0,20,test,1,0,m,Tue Mar 03 2026 11:56:31 GMT-0600 (Central Standard Time),865246.8000000715,O,z,1870,40,1,104.bmp,-120,-120,105.bmp,120,-120,106.bmp,-120,120,107.bmp,120,120,9927.200000047684,855319.6000000238,7762,no,SM,A,105.bmp,-120,120,443456,437427,445472,439440,858426.0,852397.0,860441.0,854411.0,40
1,1,0,0,0,21,test,1,1,z,Tue Mar 03 2026 11:56:31 GMT-0600 (Central Standard Time),874910.4000000954,O,z,1604,41,1,108.bmp,-120,-120,109.bmp,120,-120,110.bmp,-120,120,111.bmp,120,120,9660.700000047684,865249.7000000477,7762,yes,SM,A,108.bmp,-120,-120,443456,437427,445472,439440,868355.0,862327.0,870371.0,864341.0,41
4,0,0,0,1,21,test,1,0,z,Tue Mar 03 2026 11:56:31 GMT-0600 (Central Standard Time),884974.0,O,None,2016,42,1,112.bmp,-120,-120,113.bmp,120,-120,114.bmp,-120,120,115.bmp,120,120,10060.5,874913.5,7762,yes,SM,A,115.bmp,120,120,443456,437427,445472,439440,878019.0,871991.0,880035.0,874004.0,42
1,1,0,0,0,22,test,1,1,z,Tue Mar 03 2026 11:56:31 GMT-0600 (Central Standard Time),894671.0,O,z,1644,43,1,116.bmp,-120,-120,117.bmp,120,-120,118.bmp,-120,120,119.bmp,120,120,9693.899999976158,884977.1000000238,7762,yes,SM,A,116.bmp,-120,-120,443456,437427,445472,439440,888082.0,882054.0,890099.0,884067.0,43
4,0,0,0,1,22,test,1,0,m,Tue Mar 03 2026 11:56:31 GMT-0600 (Central Standard Time),904734.5,O,None,2016,44,1,104.bmp,-120,-120,101.bmp,120,-120,102.bmp,-120,120,103.bmp,120,120,10060.099999904633,894674.4000000954,7762,no,SM,A,104.bmp,120,120,443456,437427,445472,439440,897780.0,891752.0,899796.0,893764.0,44
1,1,0,0,0,23,test,1,1,m,Tue Mar 03 2026 11:56:31 GMT-0600 (Central Standard Time),914264.9000000954,O,m,1468,45,1,128.bmp,-120,-120,129.bmp,120,-120,130.bmp,-120,120,131.bmp,120,120,9526.100000023842,904738.8000000715,7762,no,SM,A,131.bmp,-120,-120,443456,437427,445472,439440,907843.0,901816.0,909859.0,903828.0,45
1,1,0,0,0,24,test,1,1,m,Tue Mar 03 2026 11:56:31 GMT-0600 (Central Standard Time),924245.0,O,m,1922,46,1,120.bmp,-120,-120,121.bmp,120,-120,122.bmp,-120,120,123.bmp,120,120,9976.5,914268.5,7762,no,SM,A,121.bmp,-120,-120,443456,437427,445472,439440,917373.0,911346.0,919389.0,913358.0,46
3,0,0,1,0,24,test,1,0,z,Tue Mar 03 2026 11:56:31 GMT-0600 (Central Standard Time),934308.5,O,None,2015,47,1,124.bmp,-120,-120,125.bmp,120,-120,126.bmp,-120,120,127.bmp,120,120,10060.5,924248.0,7762,yes,SM,A,126.bmp,-120,120,443456,437427,445472,439440,927354.0,921325.0,929370.0,923338.0,47
3,0,0,1,0,25,test,1,1,z,Tue Mar 03 2026 11:56:31 GMT-0600 (Central Standard Time),944322.1000000238,O,z,1958,48,1,140.bmp,-120,-120,141.bmp,120,-120,142.bmp,-120,120,143.bmp,120,120,10010.600000023842,934311.5,7762,yes,SM,A,142.bmp,-120,120,443456,437427,445472,439440,937417.0,931389.0,939433.0,933402.0,48
2,0,1,0,0,26,test,1,1,z,Tue Mar 03 2026 11:56:31 GMT-0600 (Central Standard Time),954185.7000000477,O,z,1800,49,1,136.bmp,-120,-120,137.bmp,120,-120,138.bmp,-120,120,139.bmp,120,120,9860.600000023842,944325.1000000238,7762,yes,SM,A,137.bmp,120,-120,443456,437427,445472,439440,947430.0,941402.0,949447.0,943415.0,49
3,0,0,1,0,26,test,1,0,m,Tue Mar 03 2026 11:56:31 GMT-0600 (Central Standard Time),963665.9000000954,O,z,1431,50,1,132.bmp,-120,-120,133.bmp,120,-120,134.bmp,-120,120,135.bmp,120,120,9477.300000071526,954188.6000000238,7762,no,SM,A,132.bmp,-120,120,443456,437427,445472,439440,957294.0,951266.0,959312.0,953279.0,50
2,0,1,0,0,26,test,1,0,z,Tue Mar 03 2026 11:56:31 GMT-0600 (Central Standard Time),973729.8000000715,O,None,2017,51,1,144.bmp,-120,-120,145.bmp,120,-120,146.bmp,-120,120,147.bmp,120,120,10061.399999976158,963668.4000000954,7762,yes,SM,A,145.bmp,120,-120,443456,437427,445472,439440,966775.0,960746.0,968790.0,962760.0,51
4,0,0,0,1,26,test,1,0,m,Tue Mar 03 2026 11:56:31 GMT-0600 (Central Standard Time),983426.3000000715,O,z,1632,52,1,148.bmp,-120,-120,149.bmp,120,-120,150.bmp,-120,120,131.bmp,120,120,9693.399999976158,973732.9000000954,7762,no,SM,A,148.bmp,120,120,443456,437427,445472,439440,976838.0,970810.0,978855.0,972823.0,52
3,0,0,1,0,26,test,1,0,z,Tue Mar 03 2026 11:56:31 GMT-0600 (Central Standard Time),993490.0,O,None,2016,53,1,101.bmp,-120,-120,102.bmp,120,-120,103.bmp,-120,120,104.bmp,120,120,10060.399999976158,983429.6000000238,7762,yes,SM,A,103.bmp,-120,120,443456,437427,445472,439440,986535.0,980507.0,988551.0,982520.0,53
1,1,0,0,0,27,test,1,1,m,Tue Mar 03 2026 11:56:31 GMT-0600 (Central Standard Time),1003253.6000000238,O,m,1704,54,1,105.bmp,-120,-120,106.bmp,120,-120,107.bmp,-120,120,108.bmp,120,120,9758.600000023842,993495.0,7762,no,SM,A,107.bmp,-120,-120,443456,437427,445472,439440,996599.0,990572.0,998615.0,992583.0,54
4,0,0,0,1,28,test,1,1,z,Tue Mar 03 2026 11:56:31 GMT-0600 (Central Standard Time),1013233.9000000954,O,z,1932,55,1,109.bmp,-120,-120,110.bmp,120,-120,111.bmp,-120,120,112.bmp,120,120,9977.5,1003256.4000000954,7762,yes,SM,A,112.bmp,120,120,443456,437427,445472,439440,1006362.0,1000334.0,1008379.0,1002347.0,55
2,0,1,0,0,28,test,1,0,m,Tue Mar 03 2026 11:56:31 GMT-0600 (Central Standard Time),1023130.6000000238,O,z,1841,56,1,113.bmp,-120,-120,114.bmp,120,-120,115.bmp,-120,120,116.bmp,120,120,9893.600000023842,1013237.0,7762,no,SM,A,113.bmp,120,-120,443456,437427,445472,439440,1016342.0,1010314.0,1018358.0,1012327.0,56
4,0,0,0,1,29,test,1,1,m,Tue Mar 03 2026 11:56:31 GMT-0600 (Central Standard Time),1032927.5,O,m,1736,57,1,117.bmp,-120,-120,118.bmp,120,-120,119.bmp,-120,120,120.bmp,120,120,9793.5,1023134.0,7762,no,SM,A,118.bmp,120,120,443456,437427,445472,439440,1026239.0,1020211.0,1028255.0,1022224.0,57
3,0,0,1,0,30,test,1,1,z,Tue Mar 03 2026 11:56:31 GMT-0600 (Central Standard Time),1042874.2000000477,O,z,1891,58,1,121.bmp,-120,-120,122.bmp,120,-120,123.bmp,-120,120,124.bmp,120,120,9943.100000023842,1032931.1000000238,7762,yes,SM,A,123.bmp,-120,120,443456,437427,445472,439440,1036036.0,1030008.0,1038052.0,1032021.0,58
2,0,1,0,0,31,test,1,1,m,Tue Mar 03 2026 11:56:31 GMT-0600 (Central Standard Time),1052588.0,O,m,1655,59,1,125.bmp,-120,-120,126.bmp,120,-120,127.bmp,-120,120,128.bmp,120,120,9709.699999928474,1042878.3000000715,7762,no,SM,A,128.bmp,120,-120,443456,437427,445472,439440,1045983.0,1039956.0,1048000.0,1041968.0,59
1,1,0,0,0,31,test,1,0,z,Tue Mar 03 2026 11:56:31 GMT-0600 (Central Standard Time),1062651.9000000954,O,None,2016,60,1,129.bmp,-120,-120,130.bmp,120,-120,131.bmp,-120,120,132.bmp,120,120,10060.0,1052591.9000000954,7762,yes,SM,A,129.bmp,-120,-120,443456,437427,445472,439440,1055697.0,1049669.0,1057713.0,1051682.0,60
2,0,1,0,0,32,test,1,1,z,Tue Mar 03 2026 11:56:31 GMT-0600 (Central Standard Time),1072065.4000000954,O,z,1351,61,1,133.bmp,-120,-120,134.bmp,120,-120,135.bmp,-120,120,136.bmp,120,120,9410.5,1062654.9000000954,7762,yes,SM,A,134.bmp,120,-120,443456,437427,445472,439440,1065760.0,1059732.0,1067776.0,1061745.0,61
4,0,0,0,1,32,test,1,0,z,Tue Mar 03 2026 11:56:31 GMT-0600 (Central Standard Time),1081562.3000000715,O,m,1449,62,1,141.bmp,-120,-120,142.bmp,120,-120,143.bmp,-120,120,144.bmp,120,120,9493.899999976158,1072068.4000000954,7762,yes,SM,A,144.bmp,120,120,443456,437427,445472,439440,1075174.0,1069146.0,1077190.0,1071159.0,62
1,1,0,0,0,33,test,1,1,m,Tue Mar 03 2026 11:56:31 GMT-0600 (Central Standard Time),1091225.9000000954,O,m,1600,63,1,145.bmp,-120,-120,146.bmp,120,-120,147.bmp,-120,120,148.bmp,120,120,9659.900000095367,1081566.0,7762,no,SM,A,145.bmp,-120,120,443456,437427,445472,439440,1084671.0,1078643.0,1086687.0,1080656.0,63
2,0,1,0,0,33,test,1,0,z,Tue Mar 03 2026 11:56:31 GMT-0600 (Central Standard Time),1101056.2000000477,O,m,1776,64,1,149.bmp,-120,-120,150.bmp,120,-120,112.bmp,-120,120,101.bmp,120,120,9827.299999952316,1091228.9000000954,7762,yes,SM,A,150.bmp,120,-120,443456,437427,445472,439440,1094335.0,1088306.0,1096351.0,1090319.0,64
4,0,0,0,1,34,test,1,1,m,Tue Mar 03 2026 11:56:31 GMT-0600 (Central Standard Time),1110703.2000000477,O,m,1594,65,1,102.bmp,-120,-120,103.bmp,120,-120,104.bmp,-120,120,105.bmp,120,120,9644.0,1101059.2000000477,7762,no,SM,A,104.bmp,120,120,443456,437427,445472,439440,1104165.0,1098136.0,1106181.0,1100150.0,65
3,0,0,1,0,35,test,1,1,m,Tue Mar 03 2026 11:56:31 GMT-0600 (Central Standard Time),1120483.4000000954,O,m,1723,66,1,106.bmp,-120,-120,107.bmp,120,-120,108.bmp,-120,120,109.bmp,120,120,9776.300000071526,1110707.1000000238,7762,no,SM,A,109.bmp,-120,120,443456,437427,445472,439440,1113812.0,1107784.0,1115828.0,1109797.0,66
2,0,1,0,0,35,test,1,0,m,Tue Mar 03 2026 11:56:31 GMT-0600 (Central Standard Time),1130546.7000000477,O,None,2016,67,1,137.bmp,-120,-120,138.bmp,120,-120,139.bmp,-120,120,140.bmp,120,120,10058.600000023842,1120488.1000000238,7762,no,SM,A,139.bmp,120,-120,443456,437427,445472,439440,1123592.0,1117565.0,1125608.0,1119577.0,67
3,0,0,1,0,36,test,1,1,z,Tue Mar 03 2026 11:56:31 GMT-0600 (Central Standard Time),1140577.5,O,z,1975,68,1,110.bmp,-120,-120,111.bmp,120,-120,112.bmp,-120,120,113.bmp,120,120,10027.5,1130550.0,7762,yes,SM,A,112.bmp,-120,120,443456,437427,445472,439440,1133655.0,1127627.0,1135672.0,1129641.0,68
1,1,0,0,0,36,test,1,0,m,Tue Mar 03 2026 11:56:31 GMT-0600 (Central Standard Time),1150607.5,O,z,1977,69,1,114.bmp,-120,-120,115.bmp,120,-120,116.bmp,-120,120,117.bmp,120,120,10026.099999904633,1140581.4000000954,7762,no,SM,A,115.bmp,-120,-120,443456,437427,445472,439440,1143686.0,1137659.0,1145702.0,1139671.0,69
2,0,1,0,0,37,test,1,1,m,Tue Mar 03 2026 11:56:31 GMT-0600 (Central Standard Time),1160004.1000000238,O,m,1338,70,1,118.bmp,-120,-120,119.bmp,120,-120,120.bmp,-120,120,121.bmp,120,120,9392.699999928474,1150611.4000000954,7762,no,SM,A,120.bmp,120,-120,443456,437427,445472,439440,1153716.0,1147689.0,1155732.0,1149701.0,70
4,0,0,0,1,37,test,1,0,z,Tue Mar 03 2026 11:56:31 GMT-0600 (Central Standard Time),1169651.7000000477,O,m,1596,71,1,122.bmp,-120,-120,123.bmp,120,-120,124.bmp,-120,120,125.bmp,120,120,9644.799999952316,1160006.9000000954,7762,yes,SM,A,125.bmp,120,120,443456,437427,445472,439440,1163113.0,1157084.0,1165131.0,1159098.0,71
1,1,0,0,0,38,test,1,1,z,Tue Mar 03 2026 11:56:31 GMT-0600 (Central Standard Time),1178832.0,O,z,1119,72,1,126.bmp,-120,-120,127.bmp,120,-120,128.bmp,-120,120,129.bmp,120,120,9177.199999928474,1169654.8000000715,7762,yes,SM,A,126.bmp,-120,-120,443456,437427,445472,439440,1172760.0,1166732.0,1174776.0,1168745.0,72
2,0,1,0,0,38,test,1,0,z,Tue Mar 03 2026 11:56:31 GMT-0600 (Central Standard Time),1188878.7000000477,O,m,1986,73,1,130.bmp,-120,-120,131.bmp,120,-120,132.bmp,-120,120,133.bmp,120,120,10043.399999976158,1178835.3000000715,7762,yes,SM,A,131.bmp,120,-120,443456,437427,445472,439440,1181940.0,1175913.0,1183957.0,1177925.0,73
4,0,0,0,1,39,test,1,1,m,Tue Mar 03 2026 11:56:31 GMT-0600 (Central Standard Time),1198677.0,O,m,1748,74,1,134.bmp,-120,-120,135.bmp,120,-120,136.bmp,-120,120,137.bmp,120,120,9794.899999976158,1188882.1000000238,7762,no,SM,A,136.bmp,120,120,443456,437427,445472,439440,1191988.0,1185959.0,1194003.0,1187972.0,74
2,0,1,0,0,39,test,1,0,m,Tue Mar 03 2026 11:56:31 GMT-0600 (Central Standard Time),1208739.2000000477,O,None,2014,75,1,138.bmp,-120,-120,139.bmp,120,-120,140.bmp,-120,120,141.bmp,120,120,10059.899999976158,1198679.3000000715,7762,no,SM,A,141.bmp,120,-120,443456,437427,445472,439440,1201784.0,1195756.0,1203802.0,1197769.0,75
1,1,0,0,0,40,test,1,1,z,Tue Mar 03 2026 11:56:31 GMT-0600 (Central Standard Time),1218186.1000000238,O,z,1390,76,1,142.bmp,-120,-120,143.bmp,120,-120,144.bmp,-120,120,145.bmp,120,120,9444.100000023842,1208742.0,7762,yes,SM,A,142.bmp,-120,-120,443456,437427,445472,439440,1211848.0,1205819.0,1213865.0,1207833.0,76
3,0,0,1,0,41,test,1,1,z,Tue Mar 03 2026 11:56:31 GMT-0600 (Central Standard Time),1227600.0,O,z,1352,77,1,150.bmp,-120,-120,111.bmp,120,-120,101.bmp,-120,120,102.bmp,120,120,9410.899999976158,1218189.1000000238,7762,yes,SM,A,101.bmp,-120,120,443456,437427,445472,439440,1221295.0,1215266.0,1223311.0,1217280.0,77
1,1,0,0,0,41,test,1,0,m,Tue Mar 03 2026 11:56:31 GMT-0600 (Central Standard Time),1237663.8000000715,O,None,2016,78,1,146.bmp,-120,-120,147.bmp,120,-120,148.bmp,-120,120,149.bmp,120,120,10060.800000071526,1227603.0,7762,no,SM,A,147.bmp,-120,-120,443456,437427,445472,439440,1230709.0,1224680.0,1232725.0,1226693.0,78
4,0,0,0,1,42,test,1,1,m,Tue Mar 03 2026 11:56:31 GMT-0600 (Central Standard Time),1247543.9000000954,O,m,1819,79,1,107.bmp,-120,-120,108.bmp,120,-120,109.bmp,-120,120,110.bmp,120,120,9877.100000023842,1237666.8000000715,7762,no,SM,A,107.bmp,120,120,443456,437427,445472,439440,1240772.0,1234744.0,1242788.0,1236757.0,79
3,0,0,1,0,42,test,1,0,m,Tue Mar 03 2026 11:56:31 GMT-0600 (Central Standard Time),1257607.2000000477,O,None,2016,80,1,103.bmp,-120,-120,104.bmp,120,-120,105.bmp,-120,120,106.bmp,120,120,10060.5,1247546.7000000477,7762,no,SM,A,106.bmp,-120,120,443456,437427,445472,439440,1250652.0,1244624.0,1252668.0,1246637.0,80
