block_c,block_dur,condition,countdown,datetime,endtime,list,multichar_response,project,response,response_time,session_number,start_end,starttime,subject_id,task,task_vers,trial
,,,,Fri Mar 27 2026 11:21:17 GMT-0500 (Central Daylight Time),,,,I,space,405,1,,,8104,WL,C,
prac,,0,,Fri Mar 27 2026 11:21:17 GMT-0500 (Central Daylight Time),,NA,b,I,b,7609,1,,,8104,WL,C,1.0
prac,,0,,Fri Mar 27 2026 11:21:17 GMT-0500 (Central Daylight Time),,NA,bo,I,o,229,1,,,8104,WL,C,1.0
prac,,0,,Fri Mar 27 2026 11:21:17 GMT-0500 (Central Daylight Time),,NA,boo,I,o,172,1,,,8104,WL,C,1.0
prac,,0,,Fri Mar 27 2026 11:21:17 GMT-0500 (Central Daylight Time),,NA,boos,I,s,197,1,,,8104,WL,C,1.0
prac,,0,,Fri Mar 27 2026 11:21:17 GMT-0500 (Central Daylight Time),,NA,boost,I,t,358,1,,,8104,WL,C,1.0
prac,,0,,Fri Mar 27 2026 11:21:17 GMT-0500 (Central Daylight Time),,NA,boostenter,I,enter,2678,1,,,8104,WL,C,1.0
1,4.261999845504761,learn,55738.00015449524,Fri Mar 27 2026 11:21:17 GMT-0500 (Central Daylight Time),152246.80000001192,A,t,I,t,4255,1,4261.200000017881,147985.59999999404,8104,WL,C,1.0
1,4.7829999923706055,learn,55217.000007629395,Fri Mar 27 2026 11:21:17 GMT-0500 (Central Daylight Time),152768.09999999404,A,to,I,o,498,1,4782.5,147985.59999999404,8104,WL,C,1.0
1,4.998999834060669,learn,55001.00016593933,Fri Mar 27 2026 11:21:17 GMT-0500 (Central Daylight Time),152983.59999999404,A,tow,I,w,194,1,4998.0,147985.59999999404,8104,WL,C,1.0
1,5.247999906539917,learn,54752.00009346008,Fri Mar 27 2026 11:21:17 GMT-0500 (Central Daylight Time),153233.30000001192,A,towe,I,e,243,1,5247.700000017881,147985.59999999404,8104,WL,C,1.0
1,5.582000017166138,learn,54417.99998283386,Fri Mar 27 2026 11:21:17 GMT-0500 (Central Daylight Time),153566.69999998808,A,tower,I,r,313,1,5581.0999999940395,147985.59999999404,8104,WL,C,1.0
1,8.047999858856201,learn,51952.0001411438,Fri Mar 27 2026 11:21:17 GMT-0500 (Central Daylight Time),156033.30000001192,A,towerenter,I,enter,2453,1,8047.700000017881,147985.59999999404,8104,WL,C,1.0
1,9.86299991607666,learn,50137.00008392334,Fri Mar 27 2026 11:21:17 GMT-0500 (Central Daylight Time),157848.5,A,w,I,w,1809,1,1814.9000000059605,156033.59999999404,8104,WL,C,2.0
1,10.21399998664856,learn,49786.00001335144,Fri Mar 27 2026 11:21:17 GMT-0500 (Central Daylight Time),158198.59999999404,A,wh,I,h,338,1,2165.0,156033.59999999404,8104,WL,C,2.0
1,10.363999843597412,learn,49636.00015640259,Fri Mar 27 2026 11:21:17 GMT-0500 (Central Daylight Time),158348.69999998808,A,whe,I,e,131,1,2315.0999999940395,156033.59999999404,8104,WL,C,2.0
1,10.579999923706055,learn,49420.000076293945,Fri Mar 27 2026 11:21:17 GMT-0500 (Central Daylight Time),158565.0,A,whea,I,a,206,1,2531.4000000059605,156033.59999999404,8104,WL,C,2.0
1,11.02999997138977,learn,48970.00002861023,Fri Mar 27 2026 11:21:17 GMT-0500 (Central Daylight Time),159015.09999999404,A,wheat,I,t,429,1,2981.5,156033.59999999404,8104,WL,C,2.0
1,11.86299991607666,learn,48137.00008392334,Fri Mar 27 2026 11:21:17 GMT-0500 (Central Daylight Time),159848.19999998808,A,wheatenter,I,enter,820,1,3814.5999999940395,156033.59999999404,8104,WL,C,2.0
1,12.69599986076355,learn,47304.00013923645,Fri Mar 27 2026 11:21:17 GMT-0500 (Central Daylight Time),160681.0,A,c,I,c,827,1,832.3000000119209,159848.69999998808,8104,WL,C,3.0
1,12.796000003814697,learn,47203.9999961853,Fri Mar 27 2026 11:21:17 GMT-0500 (Central Daylight Time),160781.19999998808,A,co,I,o,89,1,932.5,159848.69999998808,8104,WL,C,3.0
1,12.928999900817871,learn,47071.00009918213,Fri Mar 27 2026 11:21:17 GMT-0500 (Central Daylight Time),160914.30000001192,A,cor,I,r,118,1,1065.6000000238419,159848.69999998808,8104,WL,C,3.0
1,13.145999908447266,learn,46854.000091552734,Fri Mar 27 2026 11:21:17 GMT-0500 (Central Daylight Time),161131.19999998808,A,corn,I,n,200,1,1282.5,159848.69999998808,8104,WL,C,3.0
1,13.911999940872192,learn,46088.00005912781,Fri Mar 27 2026 11:21:17 GMT-0500 (Central Daylight Time),161897.59999999404,A,cornenter,I,enter,759,1,2048.9000000059605,159848.69999998808,8104,WL,C,3.0
1,14.279000043869019,learn,45720.99995613098,Fri Mar 27 2026 11:21:17 GMT-0500 (Central Daylight Time),162263.90000000596,A,f,I,f,354,1,366.0,161897.90000000596,8104,WL,C,4.0
1,14.428999900817871,learn,45571.00009918213,Fri Mar 27 2026 11:21:17 GMT-0500 (Central Daylight Time),162413.69999998808,A,fi,I,i,131,1,515.7999999821186,161897.90000000596,8104,WL,C,4.0
1,14.845999956130981,learn,45154.00004386902,Fri Mar 27 2026 11:21:17 GMT-0500 (Central Daylight Time),162830.90000000596,A,fie,I,e,405,1,933.0,161897.90000000596,8104,WL,C,4.0
1,15.062000036239624,learn,44937.999963760376,Fri Mar 27 2026 11:21:17 GMT-0500 (Central Daylight Time),163047.30000001192,A,fiel,I,l,195,1,1149.4000000059605,161897.90000000596,8104,WL,C,4.0
1,15.244999885559082,learn,44755.00011444092,Fri Mar 27 2026 11:21:17 GMT-0500 (Central Daylight Time),163230.40000000596,A,field,I,d,172,1,1332.5,161897.90000000596,8104,WL,C,4.0
1,15.494999885559082,learn,44505.00011444092,Fri Mar 27 2026 11:21:17 GMT-0500 (Central Daylight Time),163480.19999998808,A,fieldenter,I,enter,236,1,1582.2999999821186,161897.90000000596,8104,WL,C,4.0
1,16.562000036239624,learn,43437.999963760376,Fri Mar 27 2026 11:21:17 GMT-0500 (Central Daylight Time),164546.90000000596,A,d,I,d,1051,1,1066.4000000059605,163480.5,8104,WL,C,5.0
1,16.67799997329712,learn,43322.00002670288,Fri Mar 27 2026 11:21:17 GMT-0500 (Central Daylight Time),164663.30000001192,A,do,I,o,96,1,1182.800000011921,163480.5,8104,WL,C,5.0
1,16.828999996185303,learn,43171.0000038147,Fri Mar 27 2026 11:21:17 GMT-0500 (Central Daylight Time),164814.30000001192,A,doc,I,c,130,1,1333.800000011921,163480.5,8104,WL,C,5.0
1,17.060999870300293,learn,42939.00012969971,Fri Mar 27 2026 11:21:17 GMT-0500 (Central Daylight Time),165046.5,A,doct,I,t,211,1,1566.0,163480.5,8104,WL,C,5.0
1,17.194999933242798,learn,42805.0000667572,Fri Mar 27 2026 11:21:17 GMT-0500 (Central Daylight Time),165179.80000001192,A,docto,I,o,117,1,1699.300000011921,163480.5,8104,WL,C,5.0
1,17.277999877929688,learn,42722.00012207031,Fri Mar 27 2026 11:21:17 GMT-0500 (Central Daylight Time),165263.19999998808,A,doctor,I,r,63,1,1782.699999988079,163480.5,8104,WL,C,5.0
1,17.51099991798401,learn,42489.00008201599,Fri Mar 27 2026 11:21:17 GMT-0500 (Central Daylight Time),165496.09999999404,A,doctorenter,I,enter,228,1,2015.5999999940395,163480.5,8104,WL,C,5.0
1,17.944999933242798,learn,42055.0000667572,Fri Mar 27 2026 11:21:17 GMT-0500 (Central Daylight Time),165929.59999999404,A,b,I,b,419,1,433.0,165496.59999999404,8104,WL,C,6.0
1,18.07799983024597,learn,41922.00016975403,Fri Mar 27 2026 11:21:17 GMT-0500 (Central Daylight Time),166062.69999998808,A,bo,I,o,113,1,566.0999999940395,165496.59999999404,8104,WL,C,6.0
1,18.378000020980835,learn,41621.999979019165,Fri Mar 27 2026 11:21:17 GMT-0500 (Central Daylight Time),166362.69999998808,A,boy,I,y,292,1,866.0999999940395,165496.59999999404,8104,WL,C,6.0
1,20.0939998626709,learn,39906.0001373291,Fri Mar 27 2026 11:21:17 GMT-0500 (Central Daylight Time),168078.90000000596,A,boyenter,I,enter,1704,1,2582.300000011921,165496.59999999404,8104,WL,C,6.0
1,23.70899987220764,learn,36291.00012779236,Fri Mar 27 2026 11:21:17 GMT-0500 (Central Daylight Time),171694.40000000596,A,c,I,c,3603,1,3615.0999999940395,168079.30000001192,8104,WL,C,7.0
1,23.825999975204468,learn,36174.00002479553,Fri Mar 27 2026 11:21:17 GMT-0500 (Central Daylight Time),171810.90000000596,A,co,I,o,101,1,3731.5999999940395,168079.30000001192,8104,WL,C,7.0
1,23.942999839782715,learn,36057.000160217285,Fri Mar 27 2026 11:21:17 GMT-0500 (Central Daylight Time),171927.69999998808,A,cor,I,r,95,1,3848.399999976158,168079.30000001192,8104,WL,C,7.0
1,24.125999927520752,learn,35874.00007247925,Fri Mar 27 2026 11:21:17 GMT-0500 (Central Daylight Time),172111.0,A,corn,I,n,162,1,4031.699999988079,168079.30000001192,8104,WL,C,7.0
1,24.441999912261963,learn,35558.00008773804,Fri Mar 27 2026 11:21:17 GMT-0500 (Central Daylight Time),172427.5,A,cornenter,I,enter,308,1,4348.199999988079,168079.30000001192,8104,WL,C,7.0
1,28.024999856948853,learn,31975.000143051147,Fri Mar 27 2026 11:21:17 GMT-0500 (Central Daylight Time),176009.80000001192,A,h,I,h,3431,1,3581.9000000059605,172427.90000000596,8104,WL,C,8.0
1,28.092000007629395,learn,31907.999992370605,Fri Mar 27 2026 11:21:17 GMT-0500 (Central Daylight Time),176076.59999999404,A,ho,I,o,55,1,3648.699999988079,172427.90000000596,8104,WL,C,8.0
1,28.473999977111816,learn,31526.000022888184,Fri Mar 27 2026 11:21:17 GMT-0500 (Central Daylight Time),176459.40000000596,A,hom,I,m,374,1,4031.5,172427.90000000596,8104,WL,C,8.0
1,28.85699987411499,learn,31143.00012588501,Fri Mar 27 2026 11:21:17 GMT-0500 (Central Daylight Time),176842.90000000596,A,home,I,e,368,1,4415.0,172427.90000000596,8104,WL,C,8.0
1,29.389999866485596,learn,30610.000133514404,Fri Mar 27 2026 11:21:17 GMT-0500 (Central Daylight Time),177375.80000001192,A,homeenter,I,enter,528,1,4947.9000000059605,172427.90000000596,8104,WL,C,8.0
1,35.355000019073486,learn,24644.999980926514,Fri Mar 27 2026 11:21:17 GMT-0500 (Central Daylight Time),183340.80000001192,A,f,I,f,5948,1,5964.700000017881,177376.09999999404,8104,WL,C,9.0
1,36.23799991607666,learn,23762.00008392334,Fri Mar 27 2026 11:21:17 GMT-0500 (Central Daylight Time),184223.80000001192,A,fi,I,i,869,1,6847.700000017881,177376.09999999404,8104,WL,C,9.0
1,36.83800005912781,learn,23161.999940872192,Fri Mar 27 2026 11:21:17 GMT-0500 (Central Daylight Time),184823.59999999404,A,fie,I,e,580,1,7447.5,177376.09999999404,8104,WL,C,9.0
1,37.15400004386902,learn,22845.99995613098,Fri Mar 27 2026 11:21:17 GMT-0500 (Central Daylight Time),185140.40000000596,A,fiel,I,l,300,1,7764.300000011921,177376.09999999404,8104,WL,C,9.0
1,37.47099995613098,learn,22529.00004386902,Fri Mar 27 2026 11:21:17 GMT-0500 (Central Daylight Time),185456.80000001192,A,field,I,d,303,1,8080.700000017881,177376.09999999404,8104,WL,C,9.0
1,37.63800001144409,learn,22361.99998855591,Fri Mar 27 2026 11:21:17 GMT-0500 (Central Daylight Time),185623.40000000596,A,fieldenter,I,enter,154,1,8247.300000011921,177376.09999999404,8104,WL,C,9.0
1,52.365999937057495,learn,7634.000062942505,Fri Mar 27 2026 11:21:17 GMT-0500 (Central Daylight Time),200352.19999998808,A,b,I,b,14708,1,14728.399999976158,185623.80000001192,8104,WL,C,10.0
1,52.58299994468689,learn,7417.00005531311,Fri Mar 27 2026 11:21:17 GMT-0500 (Central Daylight Time),200569.09999999404,A,bo,I,o,202,1,14945.299999982119,185623.80000001192,8104,WL,C,10.0
1,52.89999985694885,learn,7100.0001430511475,Fri Mar 27 2026 11:21:17 GMT-0500 (Central Daylight Time),200885.40000000596,A,boy,I,y,306,1,15261.59999999404,185623.80000001192,8104,WL,C,10.0
1,53.29900002479553,learn,6700.999975204468,Fri Mar 27 2026 11:21:17 GMT-0500 (Central Daylight Time),201284.90000000596,A,boyenter,I,enter,382,1,15661.09999999404,185623.80000001192,8104,WL,C,10.0
1,60.013999938964844,learn,-13.99993896484375,Fri Mar 27 2026 11:21:17 GMT-0500 (Central Daylight Time),207999.90000000596,A,None,I,None,6711,1,6714.5999999940395,201285.30000001192,8104,WL,C,11.0
2,1.815999984741211,learn,58184.00001525879,Fri Mar 27 2026 11:21:17 GMT-0500 (Central Daylight Time),286125.1999999881,A,t,I,t,1798,1,1815.3999999761581,284309.8000000119,8104,WL,C,1.0
2,1.9159998893737793,learn,58084.00011062622,Fri Mar 27 2026 11:21:17 GMT-0500 (Central Daylight Time),286224.90000000596,A,to,I,o,93,1,1915.0999999940395,284309.8000000119,8104,WL,C,1.0
2,2.065999984741211,learn,57934.00001525879,Fri Mar 27 2026 11:21:17 GMT-0500 (Central Daylight Time),286375.0,A,tow,I,w,130,1,2065.199999988079,284309.8000000119,8104,WL,C,1.0
2,2.2660000324249268,learn,57733.99996757507,Fri Mar 27 2026 11:21:17 GMT-0500 (Central Daylight Time),286575.09999999404,A,towe,I,e,180,1,2265.2999999821186,284309.8000000119,8104,WL,C,1.0
2,2.4820001125335693,learn,57517.99988746643,Fri Mar 27 2026 11:21:17 GMT-0500 (Central Daylight Time),286791.5,A,tower,I,r,196,1,2481.699999988079,284309.8000000119,8104,WL,C,1.0
2,3.7149999141693115,learn,56285.00008583069,Fri Mar 27 2026 11:21:17 GMT-0500 (Central Daylight Time),288024.3000000119,A,towerenter,I,enter,1227,1,3714.5,284309.8000000119,8104,WL,C,1.0
2,5.414999961853027,learn,54585.00003814697,Fri Mar 27 2026 11:21:17 GMT-0500 (Central Daylight Time),289724.09999999404,A,c,I,c,1683,1,1699.5,288024.59999999404,8104,WL,C,2.0
2,5.615000009536743,learn,54384.99999046326,Fri Mar 27 2026 11:21:17 GMT-0500 (Central Daylight Time),289924.0,A,ca,I,a,183,1,1899.4000000059605,288024.59999999404,8104,WL,C,2.0
2,5.8480000495910645,learn,54151.999950408936,Fri Mar 27 2026 11:21:17 GMT-0500 (Central Daylight Time),290157.3000000119,A,cat,I,t,215,1,2132.7000000178814,288024.59999999404,8104,WL,C,2.0
2,6.015000104904175,learn,53984.999895095825,Fri Mar 27 2026 11:21:17 GMT-0500 (Central Daylight Time),290323.90000000596,A,catt,I,t,158,1,2299.300000011921,288024.59999999404,8104,WL,C,2.0
2,6.164999961853027,learn,53835.00003814697,Fri Mar 27 2026 11:21:17 GMT-0500 (Central Daylight Time),290474.09999999404,A,cattl,I,l,136,1,2449.5,288024.59999999404,8104,WL,C,2.0
2,6.263999938964844,learn,53736.000061035156,Fri Mar 27 2026 11:21:17 GMT-0500 (Central Daylight Time),290573.90000000596,A,cattle,I,e,90,1,2549.300000011921,288024.59999999404,8104,WL,C,2.0
2,7.980999946594238,learn,52019.00005340576,Fri Mar 27 2026 11:21:17 GMT-0500 (Central Daylight Time),292290.0,A,cattleenter,I,enter,1701,1,4265.4000000059605,288024.59999999404,8104,WL,C,2.0
2,8.364000082015991,learn,51635.99991798401,Fri Mar 27 2026 11:21:17 GMT-0500 (Central Daylight Time),292673.5,A,c,I,c,369,1,383.09999999403954,292290.40000000596,8104,WL,C,3.0
2,8.530999898910522,learn,51469.00010108948,Fri Mar 27 2026 11:21:17 GMT-0500 (Central Daylight Time),292839.90000000596,A,ca,I,a,153,1,549.5,292290.40000000596,8104,WL,C,3.0
2,8.680999994277954,learn,51319.000005722046,Fri Mar 27 2026 11:21:17 GMT-0500 (Central Daylight Time),292989.90000000596,A,cam,I,m,139,1,699.5,292290.40000000596,8104,WL,C,3.0
2,8.94700002670288,learn,51052.99997329712,Fri Mar 27 2026 11:21:17 GMT-0500 (Central Daylight Time),293256.5,A,camp,I,p,254,1,966.0999999940395,292290.40000000596,8104,WL,C,3.0
2,9.69700002670288,learn,50302.99997329712,Fri Mar 27 2026 11:21:17 GMT-0500 (Central Daylight Time),294006.09999999404,A,campenter,I,enter,738,1,1715.699999988079,292290.40000000596,8104,WL,C,3.0
2,10.746999979019165,learn,49253.000020980835,Fri Mar 27 2026 11:21:17 GMT-0500 (Central Daylight Time),295056.1999999881,A,b,I,b,1046,1,1049.699999988079,294006.5,8104,WL,C,4.0
2,10.879999876022339,learn,49120.00012397766,Fri Mar 27 2026 11:21:17 GMT-0500 (Central Daylight Time),295188.90000000596,A,bo,I,o,115,1,1182.4000000059605,294006.5,8104,WL,C,4.0
2,11.02999997138977,learn,48970.00002861023,Fri Mar 27 2026 11:21:17 GMT-0500 (Central Daylight Time),295339.0,A,bod,I,d,142,1,1332.5,294006.5,8104,WL,C,4.0
2,11.230000019073486,learn,48769.999980926514,Fri Mar 27 2026 11:21:17 GMT-0500 (Central Daylight Time),295538.90000000596,A,body,I,y,191,1,1532.4000000059605,294006.5,8104,WL,C,4.0
2,11.663000106811523,learn,48336.99989318848,Fri Mar 27 2026 11:21:17 GMT-0500 (Central Daylight Time),295972.1999999881,A,bodyenter,I,enter,425,1,1965.699999988079,294006.5,8104,WL,C,4.0
2,11.961999893188477,learn,48038.00010681152,Fri Mar 27 2026 11:21:17 GMT-0500 (Central Daylight Time),296272.3000000119,A,d,I,d,288,1,299.80000001192093,295972.5,8104,WL,C,5.0
2,12.078999996185303,learn,47921.0000038147,Fri Mar 27 2026 11:21:17 GMT-0500 (Central Daylight Time),296388.6999999881,A,do,I,o,107,1,416.19999998807907,295972.5,8104,WL,C,5.0
2,12.211999893188477,learn,47788.00010681152,Fri Mar 27 2026 11:21:17 GMT-0500 (Central Daylight Time),296521.90000000596,A,doc,I,c,126,1,549.4000000059605,295972.5,8104,WL,C,5.0
2,12.430000066757202,learn,47569.9999332428,Fri Mar 27 2026 11:21:17 GMT-0500 (Central Daylight Time),296739.8000000119,A,doct,I,t,202,1,767.3000000119209,295972.5,8104,WL,C,5.0
2,12.578999996185303,learn,47421.0000038147,Fri Mar 27 2026 11:21:17 GMT-0500 (Central Daylight Time),296888.5,A,docto,I,o,136,1,916.0,295972.5,8104,WL,C,5.0
2,12.661999940872192,learn,47338.00005912781,Fri Mar 27 2026 11:21:17 GMT-0500 (Central Daylight Time),296971.8000000119,A,doctor,I,r,67,1,999.3000000119209,295972.5,8104,WL,C,5.0
2,12.944999933242798,learn,47055.0000667572,Fri Mar 27 2026 11:21:17 GMT-0500 (Central Daylight Time),297254.59999999404,A,doctorenter,I,enter,263,1,1282.0999999940395,295972.5,8104,WL,C,5.0
2,13.26200008392334,learn,46737.99991607666,Fri Mar 27 2026 11:21:17 GMT-0500 (Central Daylight Time),297571.6999999881,A,h,I,h,309,1,316.89999997615814,297254.8000000119,8104,WL,C,6.0
2,13.510999917984009,learn,46489.00008201599,Fri Mar 27 2026 11:21:17 GMT-0500 (Central Daylight Time),297821.1999999881,A,ho,I,o,231,1,566.3999999761581,297254.8000000119,8104,WL,C,6.0
2,13.76200008392334,learn,46237.99991607666,Fri Mar 27 2026 11:21:17 GMT-0500 (Central Daylight Time),298072.0,A,hom,I,m,237,1,817.1999999880791,297254.8000000119,8104,WL,C,6.0
2,13.878000020980835,learn,46121.999979019165,Fri Mar 27 2026 11:21:17 GMT-0500 (Central Daylight Time),298188.3000000119,A,home,I,e,100,1,933.5,297254.8000000119,8104,WL,C,6.0
2,14.295000076293945,learn,45704.999923706055,Fri Mar 27 2026 11:21:17 GMT-0500 (Central Daylight Time),298604.6999999881,A,homeenter,I,enter,407,1,1349.8999999761581,297254.8000000119,8104,WL,C,6.0
2,15.361000061035156,learn,44638.999938964844,Fri Mar 27 2026 11:21:17 GMT-0500 (Central Daylight Time),299671.1999999881,A,q,I,q,1047,1,1066.199999988079,298605.0,8104,WL,C,7.0
2,15.477999925613403,learn,44522.0000743866,Fri Mar 27 2026 11:21:17 GMT-0500 (Central Daylight Time),299787.59999999404,A,qu,I,u,100,1,1182.5999999940395,298605.0,8104,WL,C,7.0
2,15.760999917984009,learn,44239.00008201599,Fri Mar 27 2026 11:21:17 GMT-0500 (Central Daylight Time),300070.8000000119,A,que,I,e,264,1,1465.800000011921,298605.0,8104,WL,C,7.0
2,15.894999980926514,learn,44105.000019073486,Fri Mar 27 2026 11:21:17 GMT-0500 (Central Daylight Time),300205.1999999881,A,quee,I,e,125,1,1600.199999988079,298605.0,8104,WL,C,7.0
2,16.111000061035156,learn,43888.999938964844,Fri Mar 27 2026 11:21:17 GMT-0500 (Central Daylight Time),300420.8000000119,A,queen,I,n,198,1,1815.800000011921,298605.0,8104,WL,C,7.0
2,17.41100001335144,learn,42588.99998664856,Fri Mar 27 2026 11:21:17 GMT-0500 (Central Daylight Time),301720.40000000596,A,queenenter,I,enter,1287,1,3115.4000000059605,298605.0,8104,WL,C,7.0
2,18.89299988746643,learn,41107.00011253357,Fri Mar 27 2026 11:21:17 GMT-0500 (Central Daylight Time),303203.1999999881,A,f,I,f,1474,1,1482.3999999761581,301720.8000000119,8104,WL,C,8.0
2,19.042999982833862,learn,40957.00001716614,Fri Mar 27 2026 11:21:17 GMT-0500 (Central Daylight Time),303353.1999999881,A,fl,I,l,136,1,1632.3999999761581,301720.8000000119,8104,WL,C,8.0
2,19.193000078201294,learn,40806.999921798706,Fri Mar 27 2026 11:21:17 GMT-0500 (Central Daylight Time),303503.3000000119,A,fla,I,a,129,1,1782.5,301720.8000000119,8104,WL,C,8.0
2,19.526999950408936,learn,40473.000049591064,Fri Mar 27 2026 11:21:17 GMT-0500 (Central Daylight Time),303836.5,A,flag,I,g,316,1,2115.699999988079,301720.8000000119,8104,WL,C,8.0
2,20.325999975204468,learn,39674.00002479553,Fri Mar 27 2026 11:21:17 GMT-0500 (Central Daylight Time),304636.1999999881,A,flagenter,I,enter,783,1,2915.399999976158,301720.8000000119,8104,WL,C,8.0
2,21.70900011062622,learn,38290.99988937378,Fri Mar 27 2026 11:21:17 GMT-0500 (Central Daylight Time),306019.09999999404,A,c,I,c,1367,1,1382.5999999940395,304636.5,8104,WL,C,9.0
2,21.858999967575073,learn,38141.00003242493,Fri Mar 27 2026 11:21:17 GMT-0500 (Central Daylight Time),306169.09999999404,A,ca,I,a,136,1,1532.5999999940395,304636.5,8104,WL,C,9.0
2,21.992000102996826,learn,38007.999897003174,Fri Mar 27 2026 11:21:17 GMT-0500 (Central Daylight Time),306302.1999999881,A,cam,I,m,123,1,1665.699999988079,304636.5,8104,WL,C,9.0
2,22.175999879837036,learn,37824.000120162964,Fri Mar 27 2026 11:21:17 GMT-0500 (Central Daylight Time),306485.5,A,camp,I,p,164,1,1849.0,304636.5,8104,WL,C,9.0
2,22.55900001525879,learn,37440.99998474121,Fri Mar 27 2026 11:21:17 GMT-0500 (Central Daylight Time),306868.6999999881,A,campenter,I,enter,373,1,2232.199999988079,304636.5,8104,WL,C,9.0
2,33.5220000743866,learn,26477.999925613403,Fri Mar 27 2026 11:21:17 GMT-0500 (Central Daylight Time),317832.09999999404,A,f,I,f,10951,1,10963.0,306869.09999999404,8104,WL,C,10.0
2,33.75499987602234,learn,26245.00012397766,Fri Mar 27 2026 11:21:17 GMT-0500 (Central Daylight Time),318065.0,A,fl,I,l,219,1,11195.90000000596,306869.09999999404,8104,WL,C,10.0
2,33.93899989128113,learn,26061.000108718872,Fri Mar 27 2026 11:21:17 GMT-0500 (Central Daylight Time),318248.6999999881,A,fla,I,a,171,1,11379.59999999404,306869.09999999404,8104,WL,C,10.0
2,34.33999991416931,learn,25660.00008583069,Fri Mar 27 2026 11:21:17 GMT-0500 (Central Daylight Time),318649.59999999404,A,flag,I,g,379,1,11780.5,306869.09999999404,8104,WL,C,10.0
2,34.73900008201599,learn,25260.99991798401,Fri Mar 27 2026 11:21:17 GMT-0500 (Central Daylight Time),319049.1999999881,A,flagenter,I,enter,393,1,12180.09999999404,306869.09999999404,8104,WL,C,10.0
2,45.10199999809265,learn,14898.000001907349,Fri Mar 27 2026 11:21:17 GMT-0500 (Central Daylight Time),329411.59999999404,A,w,I,w,10346,1,10362.0,319049.59999999404,8104,WL,C,11.0
2,45.28500008583069,learn,14714.999914169312,Fri Mar 27 2026 11:21:17 GMT-0500 (Central Daylight Time),329594.90000000596,A,wh,I,h,167,1,10545.300000011921,319049.59999999404,8104,WL,C,11.0
2,45.45199990272522,learn,14548.00009727478,Fri Mar 27 2026 11:21:17 GMT-0500 (Central Daylight Time),329761.5,A,whe,I,e,161,1,10711.90000000596,319049.59999999404,8104,WL,C,11.0
2,45.651000022888184,learn,14348.999977111816,Fri Mar 27 2026 11:21:17 GMT-0500 (Central Daylight Time),329961.1999999881,A,whea,I,a,194,1,10911.59999999404,319049.59999999404,8104,WL,C,11.0
2,45.93499994277954,learn,14065.000057220459,Fri Mar 27 2026 11:21:17 GMT-0500 (Central Daylight Time),330245.09999999404,A,wheat,I,t,274,1,11195.5,319049.59999999404,8104,WL,C,11.0
2,47.8510000705719,learn,12148.9999294281,Fri Mar 27 2026 11:21:17 GMT-0500 (Central Daylight Time),332160.90000000596,A,wheatenter,I,enter,1903,1,13111.300000011921,319049.59999999404,8104,WL,C,11.0
2,53.198999881744385,learn,6801.000118255615,Fri Mar 27 2026 11:21:17 GMT-0500 (Central Daylight Time),337509.3000000119,A,c,I,c,5330,1,5348.100000023842,332161.1999999881,8104,WL,C,12.0
2,53.71600008010864,learn,6283.999919891357,Fri Mar 27 2026 11:21:17 GMT-0500 (Central Daylight Time),338025.59999999404,A,ca,I,a,509,1,5864.4000000059605,332161.1999999881,8104,WL,C,12.0
2,54.26600003242493,learn,5733.999967575073,Fri Mar 27 2026 11:21:17 GMT-0500 (Central Daylight Time),338575.5,A,cat,I,t,538,1,6414.300000011921,332161.1999999881,8104,WL,C,12.0
2,54.74900007247925,learn,5250.999927520752,Fri Mar 27 2026 11:21:17 GMT-0500 (Central Daylight Time),339058.59999999404,A,catt,I,t,476,1,6897.4000000059605,332161.1999999881,8104,WL,C,12.0
2,55.01600003242493,learn,4983.999967575073,Fri Mar 27 2026 11:21:17 GMT-0500 (Central Daylight Time),339325.6999999881,A,cattl,I,l,257,1,7164.5,332161.1999999881,8104,WL,C,12.0
2,55.16499996185303,learn,4835.000038146973,Fri Mar 27 2026 11:21:17 GMT-0500 (Central Daylight Time),339475.3000000119,A,cattle,I,e,142,1,7314.100000023842,332161.1999999881,8104,WL,C,12.0
2,55.515000104904175,learn,4484.999895095825,Fri Mar 27 2026 11:21:17 GMT-0500 (Central Daylight Time),339824.90000000596,A,cattleenter,I,enter,344,1,7663.700000017881,332161.1999999881,8104,WL,C,12.0
2,60.013999938964844,learn,-13.99993896484375,Fri Mar 27 2026 11:21:17 GMT-0500 (Central Daylight Time),344323.8000000119,A,None,I,None,4495,1,4498.700000017881,339825.09999999404,8104,WL,C,13.0
3,2.381999969482422,learn,57618.00003051758,Fri Mar 27 2026 11:21:17 GMT-0500 (Central Daylight Time),414551.90000000596,A,t,I,t,2379,1,2382.7000000178814,412169.1999999881,8104,WL,C,1.0
3,2.5820000171661377,learn,57417.99998283386,Fri Mar 27 2026 11:21:17 GMT-0500 (Central Daylight Time),414751.59999999404,A,to,I,o,179,1,2582.4000000059605,412169.1999999881,8104,WL,C,1.0
3,2.681999921798706,learn,57318.000078201294,Fri Mar 27 2026 11:21:17 GMT-0500 (Central Daylight Time),414851.59999999404,A,tow,I,w,92,1,2682.4000000059605,412169.1999999881,8104,WL,C,1.0
3,2.7990000247955322,learn,57200.99997520447,Fri Mar 27 2026 11:21:17 GMT-0500 (Central Daylight Time),414968.3000000119,A,towe,I,e,104,1,2799.100000023842,412169.1999999881,8104,WL,C,1.0
3,2.9649999141693115,learn,57035.00008583069,Fri Mar 27 2026 11:21:17 GMT-0500 (Central Daylight Time),415134.8000000119,A,tower,I,r,146,1,2965.600000023842,412169.1999999881,8104,WL,C,1.0
3,4.230999946594238,learn,55769.00005340576,Fri Mar 27 2026 11:21:17 GMT-0500 (Central Daylight Time),416400.90000000596,A,towerenter,I,enter,1261,1,4231.700000017881,412169.1999999881,8104,WL,C,1.0
3,4.647000074386597,learn,55352.9999256134,Fri Mar 27 2026 11:21:17 GMT-0500 (Central Daylight Time),416817.40000000596,A,w,I,w,412,1,416.30000001192093,416401.09999999404,8104,WL,C,2.0
3,4.8480000495910645,learn,55151.999950408936,Fri Mar 27 2026 11:21:17 GMT-0500 (Central Daylight Time),417017.59999999404,A,wh,I,h,194,1,616.5,416401.09999999404,8104,WL,C,2.0
3,4.998000144958496,learn,55001.999855041504,Fri Mar 27 2026 11:21:17 GMT-0500 (Central Daylight Time),417167.5,A,whe,I,e,138,1,766.4000000059605,416401.09999999404,8104,WL,C,2.0
3,5.21399998664856,learn,54786.00001335144,Fri Mar 27 2026 11:21:17 GMT-0500 (Central Daylight Time),417384.40000000596,A,whea,I,a,196,1,983.3000000119209,416401.09999999404,8104,WL,C,2.0
3,5.430999994277954,learn,54569.000005722046,Fri Mar 27 2026 11:21:17 GMT-0500 (Central Daylight Time),417600.8000000119,A,wheat,I,t,203,1,1199.7000000178814,416401.09999999404,8104,WL,C,2.0
3,5.8470001220703125,learn,54152.99987792969,Fri Mar 27 2026 11:21:17 GMT-0500 (Central Daylight Time),418017.3000000119,A,wheatenter,I,enter,402,1,1616.2000000178814,416401.09999999404,8104,WL,C,2.0
3,6.130000114440918,learn,53869.99988555908,Fri Mar 27 2026 11:21:17 GMT-0500 (Central Daylight Time),418300.40000000596,A,c,I,c,274,1,282.59999999403954,418017.8000000119,8104,WL,C,3.0
3,6.230000019073486,learn,53769.999980926514,Fri Mar 27 2026 11:21:17 GMT-0500 (Central Daylight Time),418400.40000000596,A,co,I,o,95,1,382.59999999403954,418017.8000000119,8104,WL,C,3.0
3,6.397000074386597,learn,53602.9999256134,Fri Mar 27 2026 11:21:17 GMT-0500 (Central Daylight Time),418567.09999999404,A,cor,I,r,146,1,549.2999999821186,418017.8000000119,8104,WL,C,3.0
3,6.614000082015991,learn,53385.99991798401,Fri Mar 27 2026 11:21:17 GMT-0500 (Central Daylight Time),418783.59999999404,A,corn,I,n,196,1,765.7999999821186,418017.8000000119,8104,WL,C,3.0
3,7.664000034332275,learn,52335.999965667725,Fri Mar 27 2026 11:21:17 GMT-0500 (Central Daylight Time),419833.5,A,cornenter,I,enter,1036,1,1815.699999988079,418017.8000000119,8104,WL,C,3.0
3,9.246000051498413,learn,50753.99994850159,Fri Mar 27 2026 11:21:17 GMT-0500 (Central Daylight Time),421416.3000000119,A,c,I,c,1562,1,1582.6000000238419,419833.6999999881,8104,WL,C,4.0
3,9.496000051498413,learn,50503.99994850159,Fri Mar 27 2026 11:21:17 GMT-0500 (Central Daylight Time),421666.1999999881,A,ca,I,a,242,1,1832.5,419833.6999999881,8104,WL,C,4.0
3,9.763000011444092,learn,50236.99998855591,Fri Mar 27 2026 11:21:17 GMT-0500 (Central Daylight Time),421932.6999999881,A,cat,I,t,249,1,2099.0,419833.6999999881,8104,WL,C,4.0
3,9.914000034332275,learn,50085.999965667725,Fri Mar 27 2026 11:21:17 GMT-0500 (Central Daylight Time),422083.8000000119,A,catt,I,t,135,1,2250.100000023842,419833.6999999881,8104,WL,C,4.0
3,10.062999963760376,learn,49937.000036239624,Fri Mar 27 2026 11:21:17 GMT-0500 (Central Daylight Time),422232.40000000596,A,cattl,I,l,144,1,2398.7000000178814,419833.6999999881,8104,WL,C,4.0
3,10.17900013923645,learn,49820.99986076355,Fri Mar 27 2026 11:21:17 GMT-0500 (Central Daylight Time),422349.1999999881,A,cattle,I,e,107,1,2515.5,419833.6999999881,8104,WL,C,4.0
3,10.696000099182129,learn,49303.99990081787,Fri Mar 27 2026 11:21:17 GMT-0500 (Central Daylight Time),422865.59999999404,A,cattleenter,I,enter,510,1,3031.9000000059605,419833.6999999881,8104,WL,C,4.0
3,10.979000091552734,learn,49020.999908447266,Fri Mar 27 2026 11:21:17 GMT-0500 (Central Daylight Time),423149.09999999404,A,c,I,c,275,1,283.2999999821186,422865.8000000119,8104,WL,C,5.0
3,11.161999940872192,learn,48838.00005912781,Fri Mar 27 2026 11:21:17 GMT-0500 (Central Daylight Time),423332.3000000119,A,ca,I,a,166,1,466.5,422865.8000000119,8104,WL,C,5.0
3,11.246000051498413,learn,48753.99994850159,Fri Mar 27 2026 11:21:17 GMT-0500 (Central Daylight Time),423415.59999999404,A,cam,I,m,71,1,549.7999999821186,422865.8000000119,8104,WL,C,5.0
3,11.42900013923645,learn,48570.99986076355,Fri Mar 27 2026 11:21:17 GMT-0500 (Central Daylight Time),423598.90000000596,A,camp,I,p,164,1,733.0999999940395,422865.8000000119,8104,WL,C,5.0
3,12.01200008392334,learn,47987.99991607666,Fri Mar 27 2026 11:21:17 GMT-0500 (Central Daylight Time),424182.0,A,campenter,I,enter,565,1,1316.199999988079,422865.8000000119,8104,WL,C,5.0
3,12.444999933242798,learn,47555.0000667572,Fri Mar 27 2026 11:21:17 GMT-0500 (Central Daylight Time),424615.1999999881,A,q,I,q,422,1,432.7999999821186,424182.40000000596,8104,WL,C,6.0
3,12.611999988555908,learn,47388.00001144409,Fri Mar 27 2026 11:21:17 GMT-0500 (Central Daylight Time),424781.90000000596,A,qu,I,u,148,1,599.5,424182.40000000596,8104,WL,C,6.0
3,12.82800006866455,learn,47171.99993133545,Fri Mar 27 2026 11:21:17 GMT-0500 (Central Daylight Time),424998.3000000119,A,que,I,e,206,1,815.9000000059605,424182.40000000596,8104,WL,C,6.0
3,12.995000123977661,learn,47004.99987602234,Fri Mar 27 2026 11:21:17 GMT-0500 (Central Daylight Time),425165.1999999881,A,quee,I,e,157,1,982.7999999821186,424182.40000000596,8104,WL,C,6.0
3,13.161999940872192,learn,46838.00005912781,Fri Mar 27 2026 11:21:17 GMT-0500 (Central Daylight Time),425331.59999999404,A,queen,I,n,157,1,1149.199999988079,424182.40000000596,8104,WL,C,6.0
3,13.644999980926514,learn,46355.000019073486,Fri Mar 27 2026 11:21:17 GMT-0500 (Central Daylight Time),425815.0,A,queenenter,I,enter,463,1,1632.5999999940395,424182.40000000596,8104,WL,C,6.0
3,15.260999917984009,learn,44739.00008201599,Fri Mar 27 2026 11:21:17 GMT-0500 (Central Daylight Time),427431.0,A,b,I,b,1605,1,1615.699999988079,425815.3000000119,8104,WL,C,7.0
3,15.361000061035156,learn,44638.999938964844,Fri Mar 27 2026 11:21:17 GMT-0500 (Central Daylight Time),427530.90000000596,A,bo,I,o,93,1,1715.5999999940395,425815.3000000119,8104,WL,C,7.0
3,15.526999950408936,learn,44473.000049591064,Fri Mar 27 2026 11:21:17 GMT-0500 (Central Daylight Time),427697.3000000119,A,bod,I,d,161,1,1882.0,425815.3000000119,8104,WL,C,7.0
3,15.66100001335144,learn,44338.99998664856,Fri Mar 27 2026 11:21:17 GMT-0500 (Central Daylight Time),427831.09999999404,A,body,I,y,121,1,2015.7999999821186,425815.3000000119,8104,WL,C,7.0
3,15.99399995803833,learn,44006.00004196167,Fri Mar 27 2026 11:21:17 GMT-0500 (Central Daylight Time),428164.09999999404,A,bodyenter,I,enter,316,1,2348.7999999821186,425815.3000000119,8104,WL,C,7.0
3,16.51099991798401,learn,43489.00008201599,Fri Mar 27 2026 11:21:17 GMT-0500 (Central Daylight Time),428680.40000000596,A,b,I,b,503,1,515.9000000059605,428164.5,8104,WL,C,8.0
3,16.66100001335144,learn,43338.99998664856,Fri Mar 27 2026 11:21:17 GMT-0500 (Central Daylight Time),428830.59999999404,A,bo,I,o,131,1,666.0999999940395,428164.5,8104,WL,C,8.0
3,16.89400005340576,learn,43105.99994659424,Fri Mar 27 2026 11:21:17 GMT-0500 (Central Daylight Time),429063.8000000119,A,boy,I,y,229,1,899.3000000119209,428164.5,8104,WL,C,8.0
3,17.293999910354614,learn,42706.000089645386,Fri Mar 27 2026 11:21:17 GMT-0500 (Central Daylight Time),429463.6999999881,A,boyenter,I,enter,388,1,1299.199999988079,428164.5,8104,WL,C,8.0
3,17.610000133514404,learn,42389.999866485596,Fri Mar 27 2026 11:21:17 GMT-0500 (Central Daylight Time),429780.09999999404,A,d,I,d,300,1,316.19999998807907,429463.90000000596,8104,WL,C,9.0
3,17.72699999809265,learn,42273.00000190735,Fri Mar 27 2026 11:21:17 GMT-0500 (Central Daylight Time),429896.59999999404,A,do,I,o,111,1,432.69999998807907,429463.90000000596,8104,WL,C,9.0
3,17.89400005340576,learn,42105.99994659424,Fri Mar 27 2026 11:21:17 GMT-0500 (Central Daylight Time),430063.59999999404,A,doc,I,c,146,1,599.6999999880791,429463.90000000596,8104,WL,C,9.0
3,18.110000133514404,learn,41889.999866485596,Fri Mar 27 2026 11:21:17 GMT-0500 (Central Daylight Time),430280.0,A,doct,I,t,212,1,816.0999999940395,429463.90000000596,8104,WL,C,9.0
3,18.243000030517578,learn,41756.99996948242,Fri Mar 27 2026 11:21:17 GMT-0500 (Central Daylight Time),430413.40000000596,A,docto,I,o,115,1,949.5,429463.90000000596,8104,WL,C,9.0
3,18.360000133514404,learn,41639.999866485596,Fri Mar 27 2026 11:21:17 GMT-0500 (Central Daylight Time),430529.90000000596,A,doctor,I,r,102,1,1066.0,429463.90000000596,8104,WL,C,9.0
3,18.64300012588501,learn,41356.99987411499,Fri Mar 27 2026 11:21:17 GMT-0500 (Central Daylight Time),430813.40000000596,A,doctorenter,I,enter,274,1,1349.5,429463.90000000596,8104,WL,C,9.0
3,21.658999919891357,learn,38341.00008010864,Fri Mar 27 2026 11:21:17 GMT-0500 (Central Daylight Time),433828.8000000119,A,f,I,f,3006,1,3015.100000023842,430813.6999999881,8104,WL,C,10.0
3,21.80900001525879,learn,38190.99998474121,Fri Mar 27 2026 11:21:17 GMT-0500 (Central Daylight Time),433979.0,A,fl,I,l,134,1,3165.300000011921,430813.6999999881,8104,WL,C,10.0
3,21.858999967575073,learn,38141.00003242493,Fri Mar 27 2026 11:21:17 GMT-0500 (Central Daylight Time),434028.90000000596,A,fla,I,a,33,1,3215.2000000178814,430813.6999999881,8104,WL,C,10.0
3,22.092999935150146,learn,37907.00006484985,Fri Mar 27 2026 11:21:17 GMT-0500 (Central Daylight Time),434262.90000000596,A,flag,I,g,215,1,3449.2000000178814,430813.6999999881,8104,WL,C,10.0
3,22.45799994468689,learn,37542.00005531311,Fri Mar 27 2026 11:21:17 GMT-0500 (Central Daylight Time),434628.40000000596,A,flagenter,I,enter,348,1,3814.7000000178814,430813.6999999881,8104,WL,C,10.0
3,26.907000064849854,learn,33092.99993515015,Fri Mar 27 2026 11:21:17 GMT-0500 (Central Daylight Time),439077.3000000119,A,n,I,n,4438,1,4448.700000017881,434628.59999999404,8104,WL,C,11.0
3,27.04100012779236,learn,32958.99987220764,Fri Mar 27 2026 11:21:17 GMT-0500 (Central Daylight Time),439210.6999999881,A,na,I,a,126,1,4582.0999999940395,434628.59999999404,8104,WL,C,11.0
3,27.19099998474121,learn,32809.00001525879,Fri Mar 27 2026 11:21:17 GMT-0500 (Central Daylight Time),439361.3000000119,A,nai,I,i,144,1,4732.700000017881,434628.59999999404,8104,WL,C,11.0
3,27.424000024795532,learn,32575.999975204468,Fri Mar 27 2026 11:21:17 GMT-0500 (Central Daylight Time),439593.8000000119,A,nail,I,l,219,1,4965.200000017881,434628.59999999404,8104,WL,C,11.0
3,27.85700011253357,learn,32142.99988746643,Fri Mar 27 2026 11:21:17 GMT-0500 (Central Daylight Time),440027.09999999404,A,nailenter,I,enter,426,1,5398.5,434628.59999999404,8104,WL,C,11.0
3,33.121999979019165,learn,26878.000020980835,Fri Mar 27 2026 11:21:17 GMT-0500 (Central Daylight Time),445292.0,A,s,I,s,5248,1,5264.5,440027.5,8104,WL,C,12.0
3,33.23900008201599,learn,26760.99991798401,Fri Mar 27 2026 11:21:17 GMT-0500 (Central Daylight Time),445408.59999999404,A,su,I,u,102,1,5381.0999999940395,440027.5,8104,WL,C,12.0
3,33.539000034332275,learn,26460.999965667725,Fri Mar 27 2026 11:21:17 GMT-0500 (Central Daylight Time),445708.5,A,sug,I,g,289,1,5681.0,440027.5,8104,WL,C,12.0
3,33.82200002670288,learn,26177.99997329712,Fri Mar 27 2026 11:21:17 GMT-0500 (Central Daylight Time),445991.90000000596,A,suga,I,a,271,1,5964.4000000059605,440027.5,8104,WL,C,12.0
3,34.0550000667572,learn,25944.999933242798,Fri Mar 27 2026 11:21:17 GMT-0500 (Central Daylight Time),446225.09999999404,A,sugar,I,r,220,1,6197.5999999940395,440027.5,8104,WL,C,12.0
3,34.289000034332275,learn,25710.999965667725,Fri Mar 27 2026 11:21:17 GMT-0500 (Central Daylight Time),446458.5,A,sugarenter,I,enter,218,1,6431.0,440027.5,8104,WL,C,12.0
3,43.7020001411438,learn,16297.999858856201,Fri Mar 27 2026 11:21:17 GMT-0500 (Central Daylight Time),455871.8000000119,A,f,I,f,9409,1,9412.90000000596,446458.90000000596,8104,WL,C,13.0
3,43.93499994277954,learn,16065.000057220459,Fri Mar 27 2026 11:21:17 GMT-0500 (Central Daylight Time),456105.40000000596,A,fi,I,i,219,1,9646.5,446458.90000000596,8104,WL,C,13.0
3,44.13499999046326,learn,15865.000009536743,Fri Mar 27 2026 11:21:17 GMT-0500 (Central Daylight Time),456305.3000000119,A,fie,I,e,186,1,9846.40000000596,446458.90000000596,8104,WL,C,13.0
3,44.50200009346008,learn,15497.999906539917,Fri Mar 27 2026 11:21:17 GMT-0500 (Central Daylight Time),456671.8000000119,A,fiel,I,l,354,1,10212.90000000596,446458.90000000596,8104,WL,C,13.0
3,45.16799998283386,learn,14832.000017166138,Fri Mar 27 2026 11:21:17 GMT-0500 (Central Daylight Time),457338.40000000596,A,field,I,d,652,1,10879.5,446458.90000000596,8104,WL,C,13.0
3,48.16700005531311,learn,11832.99994468689,Fri Mar 27 2026 11:21:17 GMT-0500 (Central Daylight Time),460337.09999999404,A,fieldenter,I,enter,2992,1,13878.199999988079,446458.90000000596,8104,WL,C,13.0
3,48.651000022888184,learn,11348.999977111816,Fri Mar 27 2026 11:21:17 GMT-0500 (Central Daylight Time),460820.6999999881,A,c,I,c,467,1,483.5,460337.1999999881,8104,WL,C,14.0
3,48.83400011062622,learn,11165.99988937378,Fri Mar 27 2026 11:21:17 GMT-0500 (Central Daylight Time),461003.6999999881,A,ca,I,a,173,1,666.5,460337.1999999881,8104,WL,C,14.0
3,49.01699995994568,learn,10983.000040054321,Fri Mar 27 2026 11:21:17 GMT-0500 (Central Daylight Time),461187.09999999404,A,cat,I,t,168,1,849.9000000059605,460337.1999999881,8104,WL,C,14.0
3,49.18400001525879,learn,10815.999984741211,Fri Mar 27 2026 11:21:17 GMT-0500 (Central Daylight Time),461353.90000000596,A,catt,I,t,161,1,1016.7000000178814,460337.1999999881,8104,WL,C,14.0
3,49.31699991226196,learn,10683.000087738037,Fri Mar 27 2026 11:21:17 GMT-0500 (Central Daylight Time),461486.90000000596,A,cattl,I,l,121,1,1149.7000000178814,460337.1999999881,8104,WL,C,14.0
3,49.43400001525879,learn,10565.999984741211,Fri Mar 27 2026 11:21:17 GMT-0500 (Central Daylight Time),461603.59999999404,A,cattle,I,e,101,1,1266.4000000059605,460337.1999999881,8104,WL,C,14.0
3,49.73399996757507,learn,10266.000032424927,Fri Mar 27 2026 11:21:17 GMT-0500 (Central Daylight Time),461903.5,A,cattleenter,I,enter,279,1,1566.300000011921,460337.1999999881,8104,WL,C,14.0
3,54.3989999294281,learn,5601.000070571899,Fri Mar 27 2026 11:21:17 GMT-0500 (Central Daylight Time),466568.6999999881,A,c,I,c,4652,1,4664.899999976158,461903.8000000119,8104,WL,C,15.0
3,54.49900007247925,learn,5500.999927520752,Fri Mar 27 2026 11:21:17 GMT-0500 (Central Daylight Time),466668.8000000119,A,co,I,o,89,1,4765.0,461903.8000000119,8104,WL,C,15.0
3,54.63199996948242,learn,5368.000030517578,Fri Mar 27 2026 11:21:17 GMT-0500 (Central Daylight Time),466801.90000000596,A,cor,I,r,126,1,4898.0999999940395,461903.8000000119,8104,WL,C,15.0
3,54.79900002479553,learn,5200.999975204468,Fri Mar 27 2026 11:21:17 GMT-0500 (Central Daylight Time),466968.6999999881,A,corn,I,n,154,1,5064.899999976158,461903.8000000119,8104,WL,C,15.0
3,55.098999977111816,learn,4901.000022888184,Fri Mar 27 2026 11:21:17 GMT-0500 (Central Daylight Time),467268.59999999404,A,cornenter,I,enter,290,1,5364.799999982119,461903.8000000119,8104,WL,C,15.0
4,2.6489999294281006,learn,57351.0000705719,Fri Mar 27 2026 11:21:17 GMT-0500 (Central Daylight Time),537479.8000000119,A,t,I,t,2645,1,2648.800000011921,534831.0,8104,WL,C,1.0
4,2.7990000247955322,learn,57200.99997520447,Fri Mar 27 2026 11:21:17 GMT-0500 (Central Daylight Time),537629.900000006,A,to,I,o,139,1,2798.9000000059605,534831.0,8104,WL,C,1.0
4,2.9159998893737793,learn,57084.00011062622,Fri Mar 27 2026 11:21:17 GMT-0500 (Central Daylight Time),537746.0,A,tow,I,w,101,1,2915.0,534831.0,8104,WL,C,1.0
4,3.0149998664855957,learn,56985.000133514404,Fri Mar 27 2026 11:21:17 GMT-0500 (Central Daylight Time),537846.0,A,towe,I,e,88,1,3015.0,534831.0,8104,WL,C,1.0
4,3.1649999618530273,learn,56835.00003814697,Fri Mar 27 2026 11:21:17 GMT-0500 (Central Daylight Time),537995.8000000119,A,tower,I,r,133,1,3164.800000011921,534831.0,8104,WL,C,1.0
4,3.9659998416900635,learn,56034.00015830994,Fri Mar 27 2026 11:21:17 GMT-0500 (Central Daylight Time),538796.099999994,A,towerenter,I,enter,784,1,3965.0999999940395,534831.0,8104,WL,C,1.0
4,7.497999906539917,learn,52502.00009346008,Fri Mar 27 2026 11:21:17 GMT-0500 (Central Daylight Time),542328.3000000119,A,c,I,c,3512,1,3531.9000000059605,538796.400000006,8104,WL,C,2.0
4,7.5980000495910645,learn,52401.999950408936,Fri Mar 27 2026 11:21:17 GMT-0500 (Central Daylight Time),542428.1999999881,A,co,I,o,91,1,3631.7999999821186,538796.400000006,8104,WL,C,2.0
4,7.71399998664856,learn,52286.00001335144,Fri Mar 27 2026 11:21:17 GMT-0500 (Central Daylight Time),542544.8000000119,A,cor,I,r,103,1,3748.4000000059605,538796.400000006,8104,WL,C,2.0
4,7.898000001907349,learn,52101.99999809265,Fri Mar 27 2026 11:21:17 GMT-0500 (Central Daylight Time),542728.1999999881,A,corn,I,n,163,1,3931.7999999821186,538796.400000006,8104,WL,C,2.0
4,8.263999938964844,learn,51736.000061035156,Fri Mar 27 2026 11:21:17 GMT-0500 (Central Daylight Time),543094.6999999881,A,cornenter,I,enter,346,1,4298.299999982119,538796.400000006,8104,WL,C,2.0
4,8.613999843597412,learn,51386.00015640259,Fri Mar 27 2026 11:21:17 GMT-0500 (Central Daylight Time),543444.5,A,c,I,c,333,1,349.5,543095.0,8104,WL,C,3.0
4,8.813999891281128,learn,51186.00010871887,Fri Mar 27 2026 11:21:17 GMT-0500 (Central Daylight Time),543644.6999999881,A,ca,I,a,183,1,549.6999999880791,543095.0,8104,WL,C,3.0
4,8.96399998664856,learn,51036.00001335144,Fri Mar 27 2026 11:21:17 GMT-0500 (Central Daylight Time),543794.6999999881,A,cat,I,t,142,1,699.6999999880791,543095.0,8104,WL,C,3.0
4,9.113999843597412,learn,50886.00015640259,Fri Mar 27 2026 11:21:17 GMT-0500 (Central Daylight Time),543944.3000000119,A,catt,I,t,144,1,849.3000000119209,543095.0,8104,WL,C,3.0
4,9.280999898910522,learn,50719.00010108948,Fri Mar 27 2026 11:21:17 GMT-0500 (Central Daylight Time),544111.6999999881,A,cattl,I,l,162,1,1016.6999999880791,543095.0,8104,WL,C,3.0
4,9.430999994277954,learn,50569.000005722046,Fri Mar 27 2026 11:21:17 GMT-0500 (Central Daylight Time),544261.099999994,A,cattle,I,e,132,1,1166.0999999940395,543095.0,8104,WL,C,3.0
4,9.679999828338623,learn,50320.00017166138,Fri Mar 27 2026 11:21:17 GMT-0500 (Central Daylight Time),544510.900000006,A,cattleenter,I,enter,238,1,1415.9000000059605,543095.0,8104,WL,C,3.0
4,10.113999843597412,learn,49886.00015640259,Fri Mar 27 2026 11:21:17 GMT-0500 (Central Daylight Time),544944.6999999881,A,w,I,w,420,1,433.5,544511.1999999881,8104,WL,C,4.0
4,10.664000034332275,learn,49335.999965667725,Fri Mar 27 2026 11:21:17 GMT-0500 (Central Daylight Time),545494.099999994,A,,I,backspace,539,1,982.9000000059605,544511.1999999881,8104,WL,C,4.0
4,11.19700002670288,learn,48802.99997329712,Fri Mar 27 2026 11:21:17 GMT-0500 (Central Daylight Time),546027.3000000119,A,q,I,q,526,1,1516.1000000238419,544511.1999999881,8104,WL,C,4.0
4,11.379999876022339,learn,48620.00012397766,Fri Mar 27 2026 11:21:17 GMT-0500 (Central Daylight Time),546210.400000006,A,qu,I,u,168,1,1699.2000000178814,544511.1999999881,8104,WL,C,4.0
4,11.596999883651733,learn,48403.00011634827,Fri Mar 27 2026 11:21:17 GMT-0500 (Central Daylight Time),546427.1999999881,A,que,I,e,201,1,1916.0,544511.1999999881,8104,WL,C,4.0
4,11.763000011444092,learn,48236.99998855591,Fri Mar 27 2026 11:21:17 GMT-0500 (Central Daylight Time),546593.6999999881,A,quee,I,e,153,1,2082.5,544511.1999999881,8104,WL,C,4.0
4,12.395999908447266,learn,47604.000091552734,Fri Mar 27 2026 11:21:17 GMT-0500 (Central Daylight Time),547226.900000006,A,queen,I,n,618,1,2715.7000000178814,544511.1999999881,8104,WL,C,4.0
4,12.713000059127808,learn,47286.99994087219,Fri Mar 27 2026 11:21:17 GMT-0500 (Central Daylight Time),547543.3000000119,A,queenenter,I,enter,304,1,3032.100000023842,544511.1999999881,8104,WL,C,4.0
4,13.395999908447266,learn,46604.000091552734,Fri Mar 27 2026 11:21:17 GMT-0500 (Central Daylight Time),548226.5,A,w,I,w,667,1,682.9000000059605,547543.599999994,8104,WL,C,5.0
4,13.52999997138977,learn,46470.00002861023,Fri Mar 27 2026 11:21:17 GMT-0500 (Central Daylight Time),548360.400000006,A,wh,I,h,129,1,816.8000000119209,547543.599999994,8104,WL,C,5.0
4,13.662999868392944,learn,46337.000131607056,Fri Mar 27 2026 11:21:17 GMT-0500 (Central Daylight Time),548493.1999999881,A,whe,I,e,123,1,949.5999999940395,547543.599999994,8104,WL,C,5.0
4,13.861999988555908,learn,46138.00001144409,Fri Mar 27 2026 11:21:17 GMT-0500 (Central Daylight Time),548692.900000006,A,whea,I,a,183,1,1149.300000011921,547543.599999994,8104,WL,C,5.0
4,14.078999996185303,learn,45921.0000038147,Fri Mar 27 2026 11:21:17 GMT-0500 (Central Daylight Time),548909.5,A,wheat,I,t,199,1,1365.9000000059605,547543.599999994,8104,WL,C,5.0
4,14.529000043869019,learn,45470.99995613098,Fri Mar 27 2026 11:21:17 GMT-0500 (Central Daylight Time),549359.400000006,A,wheatenter,I,enter,438,1,1815.800000011921,547543.599999994,8104,WL,C,5.0
4,15.562000036239624,learn,44437.999963760376,Fri Mar 27 2026 11:21:17 GMT-0500 (Central Daylight Time),550392.400000006,A,f,I,f,1019,1,1032.5999999940395,549359.8000000119,8104,WL,C,6.0
4,15.678999900817871,learn,44321.00009918213,Fri Mar 27 2026 11:21:17 GMT-0500 (Central Daylight Time),550509.1999999881,A,fl,I,l,107,1,1149.3999999761581,549359.8000000119,8104,WL,C,6.0
4,15.794999837875366,learn,44205.000162124634,Fri Mar 27 2026 11:21:17 GMT-0500 (Central Daylight Time),550625.6999999881,A,fla,I,a,102,1,1265.8999999761581,549359.8000000119,8104,WL,C,6.0
4,16.01199984550476,learn,43988.00015449524,Fri Mar 27 2026 11:21:17 GMT-0500 (Central Daylight Time),550842.5,A,flag,I,g,202,1,1482.699999988079,549359.8000000119,8104,WL,C,6.0
4,16.394999980926514,learn,43605.000019073486,Fri Mar 27 2026 11:21:17 GMT-0500 (Central Daylight Time),551225.5,A,flagenter,I,enter,377,1,1865.699999988079,549359.8000000119,8104,WL,C,6.0
4,16.727999925613403,learn,43272.0000743866,Fri Mar 27 2026 11:21:17 GMT-0500 (Central Daylight Time),551558.599999994,A,d,I,d,322,1,332.90000000596046,551225.6999999881,8104,WL,C,7.0
4,16.878000020980835,learn,43121.999979019165,Fri Mar 27 2026 11:21:17 GMT-0500 (Central Daylight Time),551708.6999999881,A,do,I,o,133,1,483.0,551225.6999999881,8104,WL,C,7.0
4,16.994999885559082,learn,43005.00011444092,Fri Mar 27 2026 11:21:17 GMT-0500 (Central Daylight Time),551825.3000000119,A,doc,I,c,103,1,599.6000000238419,551225.6999999881,8104,WL,C,7.0
4,17.210999965667725,learn,42789.000034332275,Fri Mar 27 2026 11:21:17 GMT-0500 (Central Daylight Time),552041.900000006,A,doct,I,t,202,1,816.2000000178814,551225.6999999881,8104,WL,C,7.0
4,17.360999822616577,learn,42639.00017738342,Fri Mar 27 2026 11:21:17 GMT-0500 (Central Daylight Time),552192.0,A,docto,I,o,129,1,966.3000000119209,551225.6999999881,8104,WL,C,7.0
4,17.444999933242798,learn,42555.0000667572,Fri Mar 27 2026 11:21:17 GMT-0500 (Central Daylight Time),552275.3000000119,A,doctor,I,r,68,1,1049.6000000238419,551225.6999999881,8104,WL,C,7.0
4,17.694999933242798,learn,42305.0000667572,Fri Mar 27 2026 11:21:17 GMT-0500 (Central Daylight Time),552525.3000000119,A,doctorenter,I,enter,240,1,1299.6000000238419,551225.6999999881,8104,WL,C,7.0
4,19.14400005340576,learn,40855.99994659424,Fri Mar 27 2026 11:21:17 GMT-0500 (Central Daylight Time),553974.900000006,A,s,I,s,1429,1,1449.2000000178814,552525.6999999881,8104,WL,C,8.0
4,19.277999877929688,learn,40722.00012207031,Fri Mar 27 2026 11:21:17 GMT-0500 (Central Daylight Time),554108.1999999881,A,su,I,u,125,1,1582.5,552525.6999999881,8104,WL,C,8.0
4,19.39400005340576,learn,40605.99994659424,Fri Mar 27 2026 11:21:17 GMT-0500 (Central Daylight Time),554224.8000000119,A,sur,I,r,104,1,1699.1000000238419,552525.6999999881,8104,WL,C,8.0
4,19.97699999809265,learn,40023.00000190735,Fri Mar 27 2026 11:21:17 GMT-0500 (Central Daylight Time),554807.900000006,A,su,I,backspace,563,1,2282.2000000178814,552525.6999999881,8104,WL,C,8.0
4,20.16100001335144,learn,39838.99998664856,Fri Mar 27 2026 11:21:17 GMT-0500 (Central Daylight Time),554991.099999994,A,sug,I,g,163,1,2465.4000000059605,552525.6999999881,8104,WL,C,8.0
4,20.427000045776367,learn,39572.99995422363,Fri Mar 27 2026 11:21:17 GMT-0500 (Central Daylight Time),555257.400000006,A,suga,I,a,251,1,2731.7000000178814,552525.6999999881,8104,WL,C,8.0
4,20.526999950408936,learn,39473.000049591064,Fri Mar 27 2026 11:21:17 GMT-0500 (Central Daylight Time),555357.3000000119,A,sugar,I,r,89,1,2831.600000023842,552525.6999999881,8104,WL,C,8.0
4,21.14400005340576,learn,38855.99994659424,Fri Mar 27 2026 11:21:17 GMT-0500 (Central Daylight Time),555974.099999994,A,sugarenter,I,enter,598,1,3448.4000000059605,552525.6999999881,8104,WL,C,8.0
4,21.427000045776367,learn,38572.99995422363,Fri Mar 27 2026 11:21:17 GMT-0500 (Central Daylight Time),556257.5,A,b,I,b,270,1,283.0,555974.5,8104,WL,C,9.0
4,21.57699990272522,learn,38423.00009727478,Fri Mar 27 2026 11:21:17 GMT-0500 (Central Daylight Time),556407.3000000119,A,bo,I,o,129,1,432.80000001192093,555974.5,8104,WL,C,9.0
4,21.859999895095825,learn,38140.000104904175,Fri Mar 27 2026 11:21:17 GMT-0500 (Central Daylight Time),556690.5,A,boy,I,y,275,1,716.0,555974.5,8104,WL,C,9.0
4,23.792999982833862,learn,36207.00001716614,Fri Mar 27 2026 11:21:17 GMT-0500 (Central Daylight Time),558623.400000006,A,boyenter,I,enter,1912,1,2648.9000000059605,555974.5,8104,WL,C,9.0
4,24.30900001525879,learn,35690.99998474121,Fri Mar 27 2026 11:21:17 GMT-0500 (Central Daylight Time),559139.6999999881,A,b,I,b,499,1,516.0,558623.6999999881,8104,WL,C,10.0
4,24.508999824523926,learn,35491.000175476074,Fri Mar 27 2026 11:21:17 GMT-0500 (Central Daylight Time),559339.5,A,bo,I,o,184,1,715.8000000119209,558623.6999999881,8104,WL,C,10.0
4,24.743000030517578,learn,35256.99996948242,Fri Mar 27 2026 11:21:17 GMT-0500 (Central Daylight Time),559573.1999999881,A,bod,I,d,216,1,949.5,558623.6999999881,8104,WL,C,10.0
4,24.941999912261963,learn,35058.00008773804,Fri Mar 27 2026 11:21:17 GMT-0500 (Central Daylight Time),559772.900000006,A,body,I,y,191,1,1149.2000000178814,558623.6999999881,8104,WL,C,10.0
4,25.825000047683716,learn,34174.999952316284,Fri Mar 27 2026 11:21:17 GMT-0500 (Central Daylight Time),560655.900000006,A,bodyenter,I,enter,862,1,2032.2000000178814,558623.6999999881,8104,WL,C,10.0
4,29.60800004005432,learn,30391.99995994568,Fri Mar 27 2026 11:21:17 GMT-0500 (Central Daylight Time),564438.099999994,A,c,I,c,3764,1,3781.9000000059605,560656.1999999881,8104,WL,C,11.0
4,29.70799994468689,learn,30292.00005531311,Fri Mar 27 2026 11:21:17 GMT-0500 (Central Daylight Time),564538.099999994,A,co,I,o,85,1,3881.9000000059605,560656.1999999881,8104,WL,C,11.0
4,29.85800004005432,learn,30141.99995994568,Fri Mar 27 2026 11:21:17 GMT-0500 (Central Daylight Time),564688.099999994,A,cor,I,r,146,1,4031.9000000059605,560656.1999999881,8104,WL,C,11.0
4,31.090999841690063,learn,28909.000158309937,Fri Mar 27 2026 11:21:17 GMT-0500 (Central Daylight Time),565921.099999994,A,corn,I,n,1219,1,5264.9000000059605,560656.1999999881,8104,WL,C,11.0
4,32.473999977111816,learn,27526.000022888184,Fri Mar 27 2026 11:21:17 GMT-0500 (Central Daylight Time),567305.0,A,cornenter,I,enter,1371,1,6648.800000011921,560656.1999999881,8104,WL,C,11.0
4,35.90599989891052,learn,24094.000101089478,Fri Mar 27 2026 11:21:17 GMT-0500 (Central Daylight Time),570736.099999994,A,n,I,n,3419,1,3430.7999999821186,567305.3000000119,8104,WL,C,12.0
4,36.039000034332275,learn,23960.999965667725,Fri Mar 27 2026 11:21:17 GMT-0500 (Central Daylight Time),570869.599999994,A,na,I,a,114,1,3564.2999999821186,567305.3000000119,8104,WL,C,12.0
4,36.17199993133545,learn,23828.00006866455,Fri Mar 27 2026 11:21:17 GMT-0500 (Central Daylight Time),571002.599999994,A,nai,I,i,125,1,3697.2999999821186,567305.3000000119,8104,WL,C,12.0
4,36.454999923706055,learn,23545.000076293945,Fri Mar 27 2026 11:21:17 GMT-0500 (Central Daylight Time),571285.900000006,A,nail,I,l,265,1,3980.5999999940395,567305.3000000119,8104,WL,C,12.0
4,36.97199988365173,learn,23028.000116348267,Fri Mar 27 2026 11:21:17 GMT-0500 (Central Daylight Time),571802.5,A,nailenter,I,enter,502,1,4497.199999988079,567305.3000000119,8104,WL,C,12.0
4,37.371999979019165,learn,22628.000020980835,Fri Mar 27 2026 11:21:17 GMT-0500 (Central Daylight Time),572202.3000000119,A,s,I,s,385,1,399.5,571802.8000000119,8104,WL,C,13.0
4,37.48899984359741,learn,22511.000156402588,Fri Mar 27 2026 11:21:17 GMT-0500 (Central Daylight Time),572319.1999999881,A,sh,I,h,96,1,516.3999999761581,571802.8000000119,8104,WL,C,13.0
4,37.67199993133545,learn,22328.00006866455,Fri Mar 27 2026 11:21:17 GMT-0500 (Central Daylight Time),572502.400000006,A,sho,I,o,164,1,699.5999999940395,571802.8000000119,8104,WL,C,13.0
4,37.787999868392944,learn,22212.000131607056,Fri Mar 27 2026 11:21:17 GMT-0500 (Central Daylight Time),572618.900000006,A,shor,I,r,101,1,816.0999999940395,571802.8000000119,8104,WL,C,13.0
4,37.88800001144409,learn,22111.99998855591,Fri Mar 27 2026 11:21:17 GMT-0500 (Central Daylight Time),572718.6999999881,A,shore,I,e,80,1,915.8999999761581,571802.8000000119,8104,WL,C,13.0
4,39.07099986076355,learn,20929.00013923645,Fri Mar 27 2026 11:21:17 GMT-0500 (Central Daylight Time),573901.8000000119,A,shoreenter,I,enter,1164,1,2099.0,571802.8000000119,8104,WL,C,13.0
4,41.12100005149841,learn,18878.999948501587,Fri Mar 27 2026 11:21:17 GMT-0500 (Central Daylight Time),575951.3000000119,A,h,I,h,2038,1,2049.100000023842,573902.1999999881,8104,WL,C,14.0
4,41.28699994087219,learn,18713.000059127808,Fri Mar 27 2026 11:21:17 GMT-0500 (Central Daylight Time),576117.900000006,A,ho,I,o,156,1,2215.7000000178814,573902.1999999881,8104,WL,C,14.0
4,41.68299984931946,learn,18317.000150680542,Fri Mar 27 2026 11:21:17 GMT-0500 (Central Daylight Time),576513.3000000119,A,hom,I,m,391,1,2611.100000023842,573902.1999999881,8104,WL,C,14.0
4,41.70299983024597,learn,18297.00016975403,Fri Mar 27 2026 11:21:17 GMT-0500 (Central Daylight Time),576533.900000006,A,home,I,e,9,1,2631.7000000178814,573902.1999999881,8104,WL,C,14.0
4,42.36999988555908,learn,17630.000114440918,Fri Mar 27 2026 11:21:17 GMT-0500 (Central Daylight Time),577200.6999999881,A,homeenter,I,enter,647,1,3298.5,573902.1999999881,8104,WL,C,14.0
4,60.014999866485596,learn,-14.999866485595703,Fri Mar 27 2026 11:21:17 GMT-0500 (Central Daylight Time),594845.400000006,A,None,I,None,17640,1,17644.40000000596,577201.0,8104,WL,C,15.0
5,1.6659998893737793,learn,60000.0,Fri Mar 27 2026 11:21:17 GMT-0500 (Central Daylight Time),663506.900000006,A,t,I,t,1651,1,1665.9000000059605,661841.0,8104,WL,C,1.0
5,1.7829999923706055,learn,60000.0,Fri Mar 27 2026 11:21:17 GMT-0500 (Central Daylight Time),663623.8000000119,A,to,I,o,111,1,1782.800000011921,661841.0,8104,WL,C,1.0
5,1.932999849319458,learn,60000.0,Fri Mar 27 2026 11:21:17 GMT-0500 (Central Daylight Time),663773.6999999881,A,tow,I,w,140,1,1932.699999988079,661841.0,8104,WL,C,1.0
5,2.1989998817443848,learn,60000.0,Fri Mar 27 2026 11:21:17 GMT-0500 (Central Daylight Time),664040.0,A,towe,I,e,262,1,2199.0,661841.0,8104,WL,C,1.0
5,2.2990000247955322,learn,60000.0,Fri Mar 27 2026 11:21:17 GMT-0500 (Central Daylight Time),664140.400000006,A,tower,I,r,92,1,2299.4000000059605,661841.0,8104,WL,C,1.0
5,2.9159998893737793,learn,60000.0,Fri Mar 27 2026 11:21:17 GMT-0500 (Central Daylight Time),664756.6999999881,A,towerenter,I,enter,607,1,2915.699999988079,661841.0,8104,WL,C,1.0
5,3.431999921798706,learn,60000.0,Fri Mar 27 2026 11:21:17 GMT-0500 (Central Daylight Time),665273.400000006,A,w,I,w,502,1,516.3000000119209,664757.099999994,8104,WL,C,2.0
5,3.5820000171661377,learn,60000.0,Fri Mar 27 2026 11:21:17 GMT-0500 (Central Daylight Time),665423.1999999881,A,wh,I,h,138,1,666.0999999940395,664757.099999994,8104,WL,C,2.0
5,3.681999921798706,learn,60000.0,Fri Mar 27 2026 11:21:17 GMT-0500 (Central Daylight Time),665523.099999994,A,whe,I,e,84,1,766.0,664757.099999994,8104,WL,C,2.0
5,3.881999969482422,learn,60000.0,Fri Mar 27 2026 11:21:17 GMT-0500 (Central Daylight Time),665723.1999999881,A,whea,I,a,184,1,966.0999999940395,664757.099999994,8104,WL,C,2.0
5,4.065000057220459,learn,60000.0,Fri Mar 27 2026 11:21:17 GMT-0500 (Central Daylight Time),665906.400000006,A,wheat,I,t,168,1,1149.300000011921,664757.099999994,8104,WL,C,2.0
5,4.514999866485596,learn,60000.0,Fri Mar 27 2026 11:21:17 GMT-0500 (Central Daylight Time),666356.099999994,A,wheatenter,I,enter,433,1,1599.0,664757.099999994,8104,WL,C,2.0
5,4.931999921798706,learn,60000.0,Fri Mar 27 2026 11:21:17 GMT-0500 (Central Daylight Time),666772.6999999881,A,q,I,q,407,1,416.19999998807907,666356.5,8104,WL,C,3.0
5,5.082000017166138,learn,60000.0,Fri Mar 27 2026 11:21:17 GMT-0500 (Central Daylight Time),666922.599999994,A,qu,I,u,135,1,566.0999999940395,666356.5,8104,WL,C,3.0
5,5.332000017166138,learn,60000.0,Fri Mar 27 2026 11:21:17 GMT-0500 (Central Daylight Time),667172.8000000119,A,que,I,e,233,1,816.3000000119209,666356.5,8104,WL,C,3.0
5,5.48199987411499,learn,60000.0,Fri Mar 27 2026 11:21:17 GMT-0500 (Central Daylight Time),667322.8000000119,A,quee,I,e,135,1,966.3000000119209,666356.5,8104,WL,C,3.0
5,5.697999954223633,learn,60000.0,Fri Mar 27 2026 11:21:17 GMT-0500 (Central Daylight Time),667539.1999999881,A,queet,I,t,209,1,1182.699999988079,666356.5,8104,WL,C,3.0
5,6.197999954223633,learn,60000.0,Fri Mar 27 2026 11:21:17 GMT-0500 (Central Daylight Time),668038.900000006,A,quee,I,backspace,480,1,1682.4000000059605,666356.5,8104,WL,C,3.0
5,6.480999946594238,learn,60000.0,Fri Mar 27 2026 11:21:17 GMT-0500 (Central Daylight Time),668322.3000000119,A,queen,I,n,277,1,1965.800000011921,666356.5,8104,WL,C,3.0
5,7.180999994277954,learn,60000.0,Fri Mar 27 2026 11:21:17 GMT-0500 (Central Daylight Time),669021.900000006,A,queenenter,I,enter,689,1,2665.4000000059605,666356.5,8104,WL,C,3.0
5,9.181999921798706,learn,60000.0,Fri Mar 27 2026 11:21:17 GMT-0500 (Central Daylight Time),671023.3000000119,A,s,I,s,1981,1,2001.1000000238419,669022.1999999881,8104,WL,C,4.0
5,9.23199987411499,learn,60000.0,Fri Mar 27 2026 11:21:17 GMT-0500 (Central Daylight Time),671073.099999994,A,sh,I,h,44,1,2050.9000000059605,669022.1999999881,8104,WL,C,4.0
5,9.430000066757202,learn,60000.0,Fri Mar 27 2026 11:21:17 GMT-0500 (Central Daylight Time),671271.1999999881,A,sho,I,o,183,1,2249.0,669022.1999999881,8104,WL,C,4.0
5,9.54699993133545,learn,60000.0,Fri Mar 27 2026 11:21:17 GMT-0500 (Central Daylight Time),671387.8000000119,A,shor,I,r,99,1,2365.600000023842,669022.1999999881,8104,WL,C,4.0
5,9.596999883651733,learn,60000.0,Fri Mar 27 2026 11:21:17 GMT-0500 (Central Daylight Time),671438.1999999881,A,shore,I,e,40,1,2416.0,669022.1999999881,8104,WL,C,4.0
5,10.312999963760376,learn,60000.0,Fri Mar 27 2026 11:21:17 GMT-0500 (Central Daylight Time),672154.5,A,shoreenter,I,enter,702,1,3132.300000011921,669022.1999999881,8104,WL,C,4.0
5,10.746999979019165,learn,60000.0,Fri Mar 27 2026 11:21:17 GMT-0500 (Central Daylight Time),672587.6999999881,A,f,I,f,417,1,432.89999997615814,672154.8000000119,8104,WL,C,5.0
5,10.94599986076355,learn,60000.0,Fri Mar 27 2026 11:21:17 GMT-0500 (Central Daylight Time),672787.400000006,A,fl,I,l,192,1,632.5999999940395,672154.8000000119,8104,WL,C,5.0
5,11.095999956130981,learn,60000.0,Fri Mar 27 2026 11:21:17 GMT-0500 (Central Daylight Time),672937.3000000119,A,fla,I,a,144,1,782.5,672154.8000000119,8104,WL,C,5.0
5,11.52999997138977,learn,60000.0,Fri Mar 27 2026 11:21:17 GMT-0500 (Central Daylight Time),673370.8000000119,A,flag,I,g,418,1,1216.0,672154.8000000119,8104,WL,C,5.0
5,11.77999997138977,learn,60000.0,Fri Mar 27 2026 11:21:17 GMT-0500 (Central Daylight Time),673620.599999994,A,flagenter,I,enter,241,1,1465.7999999821186,672154.8000000119,8104,WL,C,5.0
5,12.046000003814697,learn,60000.0,Fri Mar 27 2026 11:21:17 GMT-0500 (Central Daylight Time),673887.0,A,c,I,c,247,1,266.09999999403954,673620.900000006,8104,WL,C,6.0
5,12.228999853134155,learn,60000.0,Fri Mar 27 2026 11:21:17 GMT-0500 (Central Daylight Time),674070.400000006,A,ca,I,a,173,1,449.5,673620.900000006,8104,WL,C,6.0
5,12.36299991607666,learn,60000.0,Fri Mar 27 2026 11:21:17 GMT-0500 (Central Daylight Time),674203.900000006,A,cam,I,m,117,1,583.0,673620.900000006,8104,WL,C,6.0
5,12.645999908447266,learn,60000.0,Fri Mar 27 2026 11:21:17 GMT-0500 (Central Daylight Time),674487.1999999881,A,camp,I,p,272,1,866.2999999821186,673620.900000006,8104,WL,C,6.0
5,13.378999948501587,learn,60000.0,Fri Mar 27 2026 11:21:17 GMT-0500 (Central Daylight Time),675220.1999999881,A,campenter,I,enter,717,1,1599.2999999821186,673620.900000006,8104,WL,C,6.0
5,13.961999893188477,learn,60000.0,Fri Mar 27 2026 11:21:17 GMT-0500 (Central Daylight Time),675802.8000000119,A,n,I,n,575,1,582.3000000119209,675220.5,8104,WL,C,7.0
5,14.111999988555908,learn,60000.0,Fri Mar 27 2026 11:21:17 GMT-0500 (Central Daylight Time),675953.1999999881,A,na,I,a,136,1,732.6999999880791,675220.5,8104,WL,C,7.0
5,14.26199984550476,learn,60000.0,Fri Mar 27 2026 11:21:17 GMT-0500 (Central Daylight Time),676103.099999994,A,nai,I,i,129,1,882.5999999940395,675220.5,8104,WL,C,7.0
5,14.544999837875366,learn,60000.0,Fri Mar 27 2026 11:21:17 GMT-0500 (Central Daylight Time),676386.1999999881,A,nail,I,l,268,1,1165.699999988079,675220.5,8104,WL,C,7.0
5,14.944999933242798,learn,60000.0,Fri Mar 27 2026 11:21:17 GMT-0500 (Central Daylight Time),676786.1999999881,A,nailenter,I,enter,386,1,1565.699999988079,675220.5,8104,WL,C,7.0
5,15.244999885559082,learn,60000.0,Fri Mar 27 2026 11:21:17 GMT-0500 (Central Daylight Time),677086.5,A,d,I,d,282,1,300.0,676786.5,8104,WL,C,8.0
5,15.34500002861023,learn,60000.0,Fri Mar 27 2026 11:21:17 GMT-0500 (Central Daylight Time),677186.0,A,do,I,o,83,1,399.5,676786.5,8104,WL,C,8.0
5,15.494999885559082,learn,60000.0,Fri Mar 27 2026 11:21:17 GMT-0500 (Central Daylight Time),677336.099999994,A,doc,I,c,138,1,549.5999999940395,676786.5,8104,WL,C,8.0
5,15.713000059127808,learn,60000.0,Fri Mar 27 2026 11:21:17 GMT-0500 (Central Daylight Time),677553.599999994,A,doct,I,t,212,1,767.0999999940395,676786.5,8104,WL,C,8.0
5,15.894999980926514,learn,60000.0,Fri Mar 27 2026 11:21:17 GMT-0500 (Central Daylight Time),677736.0,A,docto,I,o,162,1,949.5,676786.5,8104,WL,C,8.0
5,15.977999925613403,learn,60000.0,Fri Mar 27 2026 11:21:17 GMT-0500 (Central Daylight Time),677819.1999999881,A,doctor,I,r,76,1,1032.699999988079,676786.5,8104,WL,C,8.0
5,16.394999980926514,learn,60000.0,Fri Mar 27 2026 11:21:17 GMT-0500 (Central Daylight Time),678236.0,A,doctorenter,I,enter,399,1,1449.5,676786.5,8104,WL,C,8.0
5,17.444000005722046,learn,60000.0,Fri Mar 27 2026 11:21:17 GMT-0500 (Central Daylight Time),679285.5,A,b,I,b,1032,1,1049.199999988079,678236.3000000119,8104,WL,C,9.0
5,17.560999870300293,learn,60000.0,Fri Mar 27 2026 11:21:17 GMT-0500 (Central Daylight Time),679402.0,A,bo,I,o,110,1,1165.699999988079,678236.3000000119,8104,WL,C,9.0
5,17.82800006866455,learn,60000.0,Fri Mar 27 2026 11:21:17 GMT-0500 (Central Daylight Time),679668.900000006,A,boy,I,y,249,1,1432.5999999940395,678236.3000000119,8104,WL,C,9.0
5,18.194000005722046,learn,60000.0,Fri Mar 27 2026 11:21:17 GMT-0500 (Central Daylight Time),680035.099999994,A,boyenter,I,enter,359,1,1798.7999999821186,678236.3000000119,8104,WL,C,9.0
5,18.57699990272522,learn,60000.0,Fri Mar 27 2026 11:21:17 GMT-0500 (Central Daylight Time),680418.400000006,A,b,I,b,368,1,382.90000000596046,680035.5,8104,WL,C,10.0
5,18.710999965667725,learn,60000.0,Fri Mar 27 2026 11:21:17 GMT-0500 (Central Daylight Time),680551.8000000119,A,bo,I,o,121,1,516.3000000119209,680035.5,8104,WL,C,10.0
5,19.01099991798401,learn,60000.0,Fri Mar 27 2026 11:21:17 GMT-0500 (Central Daylight Time),680851.6999999881,A,bod,I,d,285,1,816.1999999880791,680035.5,8104,WL,C,10.0
5,19.126999855041504,learn,60000.0,Fri Mar 27 2026 11:21:17 GMT-0500 (Central Daylight Time),680968.3000000119,A,body,I,y,103,1,932.8000000119209,680035.5,8104,WL,C,10.0
5,19.80999994277954,learn,60000.0,Fri Mar 27 2026 11:21:17 GMT-0500 (Central Daylight Time),681651.400000006,A,bodyenter,I,enter,667,1,1615.9000000059605,680035.5,8104,WL,C,10.0
5,21.243000030517578,learn,60000.0,Fri Mar 27 2026 11:21:17 GMT-0500 (Central Daylight Time),683084.400000006,A,l,I,l,1424,1,1432.7000000178814,681651.6999999881,8104,WL,C,11.0
5,21.375999927520752,learn,60000.0,Fri Mar 27 2026 11:21:17 GMT-0500 (Central Daylight Time),683217.3000000119,A,le,I,e,119,1,1565.6000000238419,681651.6999999881,8104,WL,C,11.0
5,21.592999935150146,learn,60000.0,Fri Mar 27 2026 11:21:17 GMT-0500 (Central Daylight Time),683434.099999994,A,let,I,t,202,1,1782.4000000059605,681651.6999999881,8104,WL,C,11.0
5,21.759999990463257,learn,60000.0,Fri Mar 27 2026 11:21:17 GMT-0500 (Central Daylight Time),683600.6999999881,A,lett,I,t,154,1,1949.0,681651.6999999881,8104,WL,C,11.0
5,21.993000030517578,learn,60000.0,Fri Mar 27 2026 11:21:17 GMT-0500 (Central Daylight Time),683833.900000006,A,lette,I,e,218,1,2182.2000000178814,681651.6999999881,8104,WL,C,11.0
5,22.075999975204468,learn,60000.0,Fri Mar 27 2026 11:21:17 GMT-0500 (Central Daylight Time),683917.1999999881,A,letter,I,r,73,1,2265.5,681651.6999999881,8104,WL,C,11.0
5,22.243000030517578,learn,60000.0,Fri Mar 27 2026 11:21:17 GMT-0500 (Central Daylight Time),684084.0,A,letterenter,I,enter,157,1,2432.300000011921,681651.6999999881,8104,WL,C,11.0
5,22.575999975204468,learn,60000.0,Fri Mar 27 2026 11:21:17 GMT-0500 (Central Daylight Time),684417.1999999881,A,s,I,s,320,1,332.7999999821186,684084.400000006,8104,WL,C,12.0
5,22.759000062942505,learn,60000.0,Fri Mar 27 2026 11:21:17 GMT-0500 (Central Daylight Time),684600.1999999881,A,su,I,u,177,1,515.7999999821186,684084.400000006,8104,WL,C,12.0
5,23.441999912261963,learn,60000.0,Fri Mar 27 2026 11:21:17 GMT-0500 (Central Daylight Time),685283.400000006,A,sug,I,g,676,1,1199.0,684084.400000006,8104,WL,C,12.0
5,23.70899987220764,learn,60000.0,Fri Mar 27 2026 11:21:17 GMT-0500 (Central Daylight Time),685550.3000000119,A,suga,I,a,256,1,1465.9000000059605,684084.400000006,8104,WL,C,12.0
5,23.776000022888184,learn,60000.0,Fri Mar 27 2026 11:21:17 GMT-0500 (Central Daylight Time),685616.599999994,A,sugar,I,r,61,1,1532.199999988079,684084.400000006,8104,WL,C,12.0
5,24.625999927520752,learn,60000.0,Fri Mar 27 2026 11:21:17 GMT-0500 (Central Daylight Time),686466.599999994,A,sugarenter,I,enter,843,1,2382.199999988079,684084.400000006,8104,WL,C,12.0
5,26.70799994468689,learn,60000.0,Fri Mar 27 2026 11:21:17 GMT-0500 (Central Daylight Time),688549.1999999881,A,c,I,c,2065,1,2082.199999988079,686467.0,8104,WL,C,13.0
5,26.792999982833862,learn,60000.0,Fri Mar 27 2026 11:21:17 GMT-0500 (Central Daylight Time),688633.6999999881,A,co,I,o,78,1,2166.699999988079,686467.0,8104,WL,C,13.0
5,26.97499990463257,learn,60000.0,Fri Mar 27 2026 11:21:17 GMT-0500 (Central Daylight Time),688815.8000000119,A,cor,I,r,161,1,2348.800000011921,686467.0,8104,WL,C,13.0
5,27.191999912261963,learn,60000.0,Fri Mar 27 2026 11:21:17 GMT-0500 (Central Daylight Time),689032.5,A,corn,I,n,196,1,2565.5,686467.0,8104,WL,C,13.0
5,27.641000032424927,learn,60000.0,Fri Mar 27 2026 11:21:17 GMT-0500 (Central Daylight Time),689482.099999994,A,cornenter,I,enter,435,1,3015.0999999940395,686467.0,8104,WL,C,13.0
5,54.49899983406067,learn,60000.0,Fri Mar 27 2026 11:21:17 GMT-0500 (Central Daylight Time),716340.5,A,s,I,s,26841,1,26858.09999999404,689482.400000006,8104,WL,C,14.0
5,54.6489999294281,learn,60000.0,Fri Mar 27 2026 11:21:17 GMT-0500 (Central Daylight Time),716490.3000000119,A,sh,I,h,143,1,27007.90000000596,689482.400000006,8104,WL,C,14.0
5,54.948999881744385,learn,60000.0,Fri Mar 27 2026 11:21:17 GMT-0500 (Central Daylight Time),716790.6999999881,A,sho,I,o,289,1,27308.29999998212,689482.400000006,8104,WL,C,14.0
5,55.08200001716614,learn,60000.0,Fri Mar 27 2026 11:21:17 GMT-0500 (Central Daylight Time),716923.6999999881,A,shor,I,r,125,1,27441.29999998212,689482.400000006,8104,WL,C,14.0
5,55.56599998474121,learn,60000.0,Fri Mar 27 2026 11:21:17 GMT-0500 (Central Daylight Time),717406.900000006,A,shore,I,e,463,1,27924.5,689482.400000006,8104,WL,C,14.0
5,55.96499991416931,learn,60000.0,Fri Mar 27 2026 11:21:17 GMT-0500 (Central Daylight Time),717806.3000000119,A,shoreenter,I,enter,381,1,28323.90000000596,689482.400000006,8104,WL,C,14.0
5,74.69299983978271,learn,60000.0,Fri Mar 27 2026 11:21:17 GMT-0500 (Central Daylight Time),736534.1999999881,A,n,I,n,18709,1,18727.59999999404,717806.599999994,8104,WL,C,15.0
6,2.383000135421753,distr,57616.99986457825,Fri Mar 27 2026 11:21:17 GMT-0500 (Central Daylight Time),823923.5,B,s,I,s,2367,1,2382.5,821541.0,8104,WL,C,1.0
6,2.5329999923706055,distr,57467.000007629395,Fri Mar 27 2026 11:21:17 GMT-0500 (Central Daylight Time),824073.400000006,B,sk,I,k,135,1,2532.4000000059605,821541.0,8104,WL,C,1.0
6,2.9830000400543213,distr,57016.99995994568,Fri Mar 27 2026 11:21:17 GMT-0500 (Central Daylight Time),824523.400000006,B,sky,I,y,435,1,2982.4000000059605,821541.0,8104,WL,C,1.0
6,3.7990000247955322,distr,56200.99997520447,Fri Mar 27 2026 11:21:17 GMT-0500 (Central Daylight Time),825340.0,B,skyenter,I,enter,808,1,3799.0,821541.0,8104,WL,C,1.0
6,4.25,distr,55750.0,Fri Mar 27 2026 11:21:17 GMT-0500 (Central Daylight Time),825790.8000000119,B,d,I,d,440,1,450.5,825340.3000000119,8104,WL,C,2.0
6,4.449000120162964,distr,55550.999879837036,Fri Mar 27 2026 11:21:17 GMT-0500 (Central Daylight Time),825989.400000006,B,do,I,o,189,1,649.0999999940395,825340.3000000119,8104,WL,C,2.0
6,4.9670000076293945,distr,55032.999992370605,Fri Mar 27 2026 11:21:17 GMT-0500 (Central Daylight Time),826507.099999994,B,dol,I,l,501,1,1166.7999999821186,825340.3000000119,8104,WL,C,2.0
6,5.182000160217285,distr,54817.999839782715,Fri Mar 27 2026 11:21:17 GMT-0500 (Central Daylight Time),826722.5,B,doll,I,l,207,1,1382.199999988079,825340.3000000119,8104,WL,C,2.0
6,5.315999984741211,distr,54684.00001525879,Fri Mar 27 2026 11:21:17 GMT-0500 (Central Daylight Time),826856.0,B,dolla,I,a,113,1,1515.699999988079,825340.3000000119,8104,WL,C,2.0
6,5.465000152587891,distr,54534.99984741211,Fri Mar 27 2026 11:21:17 GMT-0500 (Central Daylight Time),827005.6999999881,B,dollar,I,r,139,1,1665.3999999761581,825340.3000000119,8104,WL,C,2.0
6,6.900000095367432,distr,53099.99990463257,Fri Mar 27 2026 11:21:17 GMT-0500 (Central Daylight Time),828439.900000006,B,dollarenter,I,enter,1421,1,3099.5999999940395,825340.3000000119,8104,WL,C,2.0
6,8.231000185012817,distr,51768.99981498718,Fri Mar 27 2026 11:21:17 GMT-0500 (Central Daylight Time),829771.900000006,B,c,I,c,1316,1,1331.7000000178814,828440.1999999881,8104,WL,C,3.0
6,8.348000049591064,distr,51651.999950408936,Fri Mar 27 2026 11:21:17 GMT-0500 (Central Daylight Time),829888.6999999881,B,ch,I,h,95,1,1448.5,828440.1999999881,8104,WL,C,3.0
6,8.481000185012817,distr,51518.99981498718,Fri Mar 27 2026 11:21:17 GMT-0500 (Central Daylight Time),830021.599999994,B,chr,I,r,115,1,1581.4000000059605,828440.1999999881,8104,WL,C,3.0
6,8.648000001907349,distr,51351.99999809265,Fri Mar 27 2026 11:21:17 GMT-0500 (Central Daylight Time),830188.3000000119,B,chri,I,i,158,1,1748.1000000238419,828440.1999999881,8104,WL,C,3.0
6,8.764000177383423,distr,51235.99982261658,Fri Mar 27 2026 11:21:17 GMT-0500 (Central Daylight Time),830304.6999999881,B,chris,I,s,103,1,1864.5,828440.1999999881,8104,WL,C,3.0
6,8.96399998664856,distr,51036.00001335144,Fri Mar 27 2026 11:21:17 GMT-0500 (Central Daylight Time),830504.8000000119,B,christ,I,t,187,1,2064.600000023842,828440.1999999881,8104,WL,C,3.0
6,9.331000089645386,distr,50668.999910354614,Fri Mar 27 2026 11:21:17 GMT-0500 (Central Daylight Time),830871.400000006,B,christm,I,m,355,1,2431.2000000178814,828440.1999999881,8104,WL,C,3.0
6,9.54800009727478,distr,50451.99990272522,Fri Mar 27 2026 11:21:17 GMT-0500 (Central Daylight Time),831088.1999999881,B,christma,I,a,196,1,2648.0,828440.1999999881,8104,WL,C,3.0
6,9.981000185012817,distr,50018.99981498718,Fri Mar 27 2026 11:21:17 GMT-0500 (Central Daylight Time),831521.1999999881,B,christmas,I,s,427,1,3081.0,828440.1999999881,8104,WL,C,3.0
6,10.94700002670288,distr,49052.99997329712,Fri Mar 27 2026 11:21:17 GMT-0500 (Central Daylight Time),832487.5,B,christmasenter,I,enter,946,1,4047.300000011921,828440.1999999881,8104,WL,C,3.0
6,49.235000133514404,distr,10764.999866485596,Fri Mar 27 2026 11:21:17 GMT-0500 (Central Daylight Time),870775.8000000119,B,f,I,f,38268,1,38287.90000000596,832487.900000006,8104,WL,C,4.0
6,49.35199999809265,distr,10648.000001907349,Fri Mar 27 2026 11:21:17 GMT-0500 (Central Daylight Time),870892.599999994,B,fo,I,o,100,1,38404.69999998808,832487.900000006,8104,WL,C,4.0
6,49.45300006866455,distr,10546.99993133545,Fri Mar 27 2026 11:21:17 GMT-0500 (Central Daylight Time),870993.3000000119,B,for,I,r,87,1,38505.40000000596,832487.900000006,8104,WL,C,4.0
6,49.83500003814697,distr,10164.999961853027,Fri Mar 27 2026 11:21:17 GMT-0500 (Central Daylight Time),871375.3000000119,B,fore,I,e,361,1,38887.40000000596,832487.900000006,8104,WL,C,4.0
6,50.03500008583069,distr,9964.999914169312,Fri Mar 27 2026 11:21:17 GMT-0500 (Central Daylight Time),871575.3000000119,B,fores,I,s,188,1,39087.40000000596,832487.900000006,8104,WL,C,4.0
6,50.318000078201294,distr,9681.999921798706,Fri Mar 27 2026 11:21:17 GMT-0500 (Central Daylight Time),871858.400000006,B,forest,I,t,276,1,39370.5,832487.900000006,8104,WL,C,4.0
6,50.70099997520447,distr,9299.000024795532,Fri Mar 27 2026 11:21:17 GMT-0500 (Central Daylight Time),872241.6999999881,B,forestenter,I,enter,369,1,39753.79999998212,832487.900000006,8104,WL,C,4.0
6,59.36500000953674,distr,634.9999904632568,Fri Mar 27 2026 11:21:17 GMT-0500 (Central Daylight Time),880905.6999999881,B,m,I,m,8650,1,8663.59999999404,872242.099999994,8104,WL,C,5.0
6,59.63199996948242,distr,368.0000305175781,Fri Mar 27 2026 11:21:17 GMT-0500 (Central Daylight Time),881172.1999999881,B,mo,I,o,257,1,8930.09999999404,872242.099999994,8104,WL,C,5.0
6,59.86500000953674,distr,134.99999046325684,Fri Mar 27 2026 11:21:17 GMT-0500 (Central Daylight Time),881405.599999994,B,mon,I,n,223,1,9163.5,872242.099999994,8104,WL,C,5.0
6,60.015000104904175,distr,-15.000104904174805,Fri Mar 27 2026 11:21:17 GMT-0500 (Central Daylight Time),881555.599999994,B,monNone,I,None,145,1,9313.5,872242.099999994,8104,WL,C,5.0
7,8.429999828338623,immed,51570.00017166138,Fri Mar 27 2026 11:21:17 GMT-0500 (Central Daylight Time),902948.6999999881,A,t,I,t,8413,1,8430.299999982119,894518.400000006,8104,WL,C,1.0
7,8.578999996185303,immed,51421.0000038147,Fri Mar 27 2026 11:21:17 GMT-0500 (Central Daylight Time),903098.400000006,A,to,I,o,141,1,8580.0,894518.400000006,8104,WL,C,1.0
7,8.678999900817871,immed,51321.00009918213,Fri Mar 27 2026 11:21:17 GMT-0500 (Central Daylight Time),903198.5,A,tow,I,w,81,1,8680.09999999404,894518.400000006,8104,WL,C,1.0
7,8.912999868392944,immed,51087.000131607056,Fri Mar 27 2026 11:21:17 GMT-0500 (Central Daylight Time),903431.599999994,A,towe,I,e,212,1,8913.199999988079,894518.400000006,8104,WL,C,1.0
7,8.978999853134155,immed,51021.000146865845,Fri Mar 27 2026 11:21:17 GMT-0500 (Central Daylight Time),903498.599999994,A,tower,I,r,59,1,8980.199999988079,894518.400000006,8104,WL,C,1.0
7,9.27899980545044,immed,50721.00019454956,Fri Mar 27 2026 11:21:17 GMT-0500 (Central Daylight Time),903798.3000000119,A,towerenter,I,enter,289,1,9279.90000000596,894518.400000006,8104,WL,C,1.0
7,11.144999980926514,immed,48855.000019073486,Fri Mar 27 2026 11:21:17 GMT-0500 (Central Daylight Time),905664.400000006,A,w,I,w,1862,1,1865.800000011921,903798.599999994,8104,WL,C,2.0
7,11.27899980545044,immed,48721.00019454956,Fri Mar 27 2026 11:21:17 GMT-0500 (Central Daylight Time),905797.6999999881,A,wh,I,h,123,1,1999.0999999940395,903798.599999994,8104,WL,C,2.0
7,11.444999933242798,immed,48555.0000667572,Fri Mar 27 2026 11:21:17 GMT-0500 (Central Daylight Time),905964.400000006,A,whe,I,e,150,1,2165.800000011921,903798.599999994,8104,WL,C,2.0
7,11.744999885559082,immed,48255.00011444092,Fri Mar 27 2026 11:21:17 GMT-0500 (Central Daylight Time),906264.400000006,A,whea,I,a,295,1,2465.800000011921,903798.599999994,8104,WL,C,2.0
7,11.994999885559082,immed,48005.00011444092,Fri Mar 27 2026 11:21:17 GMT-0500 (Central Daylight Time),906514.3000000119,A,wheat,I,t,243,1,2715.7000000178814,903798.599999994,8104,WL,C,2.0
7,12.294999837875366,immed,47705.000162124634,Fri Mar 27 2026 11:21:17 GMT-0500 (Central Daylight Time),906814.599999994,A,wheatenter,I,enter,295,1,3016.0,903798.599999994,8104,WL,C,2.0
7,12.878000020980835,immed,47121.999979019165,Fri Mar 27 2026 11:21:17 GMT-0500 (Central Daylight Time),907397.400000006,A,c,I,c,572,1,582.4000000059605,906815.0,8104,WL,C,3.0
7,13.01199984550476,immed,46988.00015449524,Fri Mar 27 2026 11:21:17 GMT-0500 (Central Daylight Time),907530.6999999881,A,co,I,o,118,1,715.6999999880791,906815.0,8104,WL,C,3.0
7,13.161999940872192,immed,46838.00005912781,Fri Mar 27 2026 11:21:17 GMT-0500 (Central Daylight Time),907680.8000000119,A,cor,I,r,136,1,865.8000000119209,906815.0,8104,WL,C,3.0
7,13.41100001335144,immed,46588.99998664856,Fri Mar 27 2026 11:21:17 GMT-0500 (Central Daylight Time),907930.5,A,corn,I,n,243,1,1115.5,906815.0,8104,WL,C,3.0
7,14.16100001335144,immed,45838.99998664856,Fri Mar 27 2026 11:21:17 GMT-0500 (Central Daylight Time),908680.099999994,A,cornenter,I,enter,729,1,1865.0999999940395,906815.0,8104,WL,C,3.0
7,14.510999917984009,immed,45489.00008201599,Fri Mar 27 2026 11:21:17 GMT-0500 (Central Daylight Time),909030.099999994,A,f,I,f,332,1,349.69999998807907,908680.400000006,8104,WL,C,4.0
7,14.67799997329712,immed,45322.00002670288,Fri Mar 27 2026 11:21:17 GMT-0500 (Central Daylight Time),909196.8000000119,A,fi,I,i,156,1,516.4000000059605,908680.400000006,8104,WL,C,4.0
7,15.093999862670898,immed,44906.0001373291,Fri Mar 27 2026 11:21:17 GMT-0500 (Central Daylight Time),909613.3000000119,A,fie,I,e,399,1,932.9000000059605,908680.400000006,8104,WL,C,4.0
7,15.276999950408936,immed,44723.000049591064,Fri Mar 27 2026 11:21:17 GMT-0500 (Central Daylight Time),909796.400000006,A,fiel,I,l,167,1,1116.0,908680.400000006,8104,WL,C,4.0
7,15.510999917984009,immed,44489.00008201599,Fri Mar 27 2026 11:21:17 GMT-0500 (Central Daylight Time),910029.900000006,A,field,I,d,223,1,1349.5,908680.400000006,8104,WL,C,4.0
7,15.710999965667725,immed,44289.000034332275,Fri Mar 27 2026 11:21:17 GMT-0500 (Central Daylight Time),910229.900000006,A,fieldenter,I,enter,182,1,1549.5,908680.400000006,8104,WL,C,4.0
7,16.32699990272522,immed,43673.00009727478,Fri Mar 27 2026 11:21:17 GMT-0500 (Central Daylight Time),910846.1999999881,A,q,I,q,606,1,615.8999999761581,910230.3000000119,8104,WL,C,5.0
7,16.47699999809265,immed,43523.00000190735,Fri Mar 27 2026 11:21:17 GMT-0500 (Central Daylight Time),910996.3000000119,A,qu,I,u,132,1,766.0,910230.3000000119,8104,WL,C,5.0
7,16.65999984741211,immed,43340.00015258789,Fri Mar 27 2026 11:21:17 GMT-0500 (Central Daylight Time),911179.599999994,A,que,I,e,175,1,949.2999999821186,910230.3000000119,8104,WL,C,5.0
7,16.82699990272522,immed,43173.00009727478,Fri Mar 27 2026 11:21:17 GMT-0500 (Central Daylight Time),911345.900000006,A,quee,I,e,152,1,1115.5999999940395,910230.3000000119,8104,WL,C,5.0
7,17.043999910354614,immed,42956.000089645386,Fri Mar 27 2026 11:21:17 GMT-0500 (Central Daylight Time),911562.8000000119,A,queen,I,n,202,1,1332.5,910230.3000000119,8104,WL,C,5.0
7,17.55999994277954,immed,42440.00005722046,Fri Mar 27 2026 11:21:17 GMT-0500 (Central Daylight Time),912079.3000000119,A,queenenter,I,enter,496,1,1849.0,910230.3000000119,8104,WL,C,5.0
7,26.473999977111816,immed,33526.00002288818,Fri Mar 27 2026 11:21:17 GMT-0500 (Central Daylight Time),920993.0,A,s,I,s,8900,1,8913.40000000596,912079.599999994,8104,WL,C,6.0
7,26.590999841690063,immed,33409.00015830994,Fri Mar 27 2026 11:21:17 GMT-0500 (Central Daylight Time),921109.6999999881,A,su,I,u,97,1,9030.09999999404,912079.599999994,8104,WL,C,6.0
7,27.0239999294281,immed,32976.0000705719,Fri Mar 27 2026 11:21:17 GMT-0500 (Central Daylight Time),921543.0,A,sug,I,g,421,1,9463.40000000596,912079.599999994,8104,WL,C,6.0
7,27.289999961853027,immed,32710.000038146973,Fri Mar 27 2026 11:21:17 GMT-0500 (Central Daylight Time),921809.3000000119,A,suga,I,a,260,1,9729.700000017881,912079.599999994,8104,WL,C,6.0
7,27.43999981880188,immed,32560.00018119812,Fri Mar 27 2026 11:21:17 GMT-0500 (Central Daylight Time),921959.599999994,A,sugar,I,r,138,1,9880.0,912079.599999994,8104,WL,C,6.0
7,28.10699987411499,immed,31893.00012588501,Fri Mar 27 2026 11:21:17 GMT-0500 (Central Daylight Time),922625.8000000119,A,sugarenter,I,enter,660,1,10546.200000017881,912079.599999994,8104,WL,C,6.0
7,28.457000017166138,immed,31542.999982833862,Fri Mar 27 2026 11:21:17 GMT-0500 (Central Daylight Time),922975.6999999881,A,d,I,d,338,1,349.59999999403954,922626.099999994,8104,WL,C,7.0
7,28.556999921798706,immed,31443.000078201294,Fri Mar 27 2026 11:21:17 GMT-0500 (Central Daylight Time),923075.900000006,A,do,I,o,83,1,449.80000001192093,922626.099999994,8104,WL,C,7.0
7,28.707000017166138,immed,31292.999982833862,Fri Mar 27 2026 11:21:17 GMT-0500 (Central Daylight Time),923225.599999994,A,doc,I,c,135,1,599.5,922626.099999994,8104,WL,C,7.0
7,29.006999969482422,immed,30993.000030517578,Fri Mar 27 2026 11:21:17 GMT-0500 (Central Daylight Time),923525.599999994,A,doco,I,o,290,1,899.5,922626.099999994,8104,WL,C,7.0
7,29.50599980354309,immed,30494.00019645691,Fri Mar 27 2026 11:21:17 GMT-0500 (Central Daylight Time),924025.5,A,doc,I,backspace,493,1,1399.4000000059605,922626.099999994,8104,WL,C,7.0
7,29.705999851226807,immed,30294.000148773193,Fri Mar 27 2026 11:21:17 GMT-0500 (Central Daylight Time),924225.099999994,A,doct,I,t,194,1,1599.0,922626.099999994,8104,WL,C,7.0
7,29.85599994659424,immed,30144.00005340576,Fri Mar 27 2026 11:21:17 GMT-0500 (Central Daylight Time),924375.3000000119,A,docto,I,o,129,1,1749.2000000178814,922626.099999994,8104,WL,C,7.0
7,29.972999811172485,immed,30027.000188827515,Fri Mar 27 2026 11:21:17 GMT-0500 (Central Daylight Time),924491.8000000119,A,doctor,I,r,108,1,1865.7000000178814,922626.099999994,8104,WL,C,7.0
7,30.205999851226807,immed,29794.000148773193,Fri Mar 27 2026 11:21:17 GMT-0500 (Central Daylight Time),924725.400000006,A,doctorenter,I,enter,216,1,2099.300000011921,922626.099999994,8104,WL,C,7.0
7,30.655999898910522,immed,29344.000101089478,Fri Mar 27 2026 11:21:17 GMT-0500 (Central Daylight Time),925175.599999994,A,b,I,b,438,1,450.0,924725.599999994,8104,WL,C,8.0
7,30.77300000190735,immed,29226.99999809265,Fri Mar 27 2026 11:21:17 GMT-0500 (Central Daylight Time),925291.900000006,A,bo,I,o,100,1,566.3000000119209,924725.599999994,8104,WL,C,8.0
7,31.038999795913696,immed,28961.000204086304,Fri Mar 27 2026 11:21:17 GMT-0500 (Central Daylight Time),925558.400000006,A,boy,I,y,248,1,832.8000000119209,924725.599999994,8104,WL,C,8.0
7,31.3219997882843,immed,28678.0002117157,Fri Mar 27 2026 11:21:17 GMT-0500 (Central Daylight Time),925841.599999994,A,boyenter,I,enter,277,1,1116.0,924725.599999994,8104,WL,C,8.0
7,31.58899998664856,immed,28411.00001335144,Fri Mar 27 2026 11:21:17 GMT-0500 (Central Daylight Time),926108.3000000119,A,b,I,b,258,1,266.40000000596046,925841.900000006,8104,WL,C,9.0
7,31.738999843597412,immed,28261.000156402588,Fri Mar 27 2026 11:21:17 GMT-0500 (Central Daylight Time),926258.099999994,A,bo,I,o,144,1,416.19999998807907,925841.900000006,8104,WL,C,9.0
7,31.988999843597412,immed,28011.000156402588,Fri Mar 27 2026 11:21:17 GMT-0500 (Central Daylight Time),926508.099999994,A,bod,I,d,242,1,666.1999999880791,925841.900000006,8104,WL,C,9.0
7,32.121999979019165,immed,27878.000020980835,Fri Mar 27 2026 11:21:17 GMT-0500 (Central Daylight Time),926641.3000000119,A,body,I,y,126,1,799.4000000059605,925841.900000006,8104,WL,C,9.0
7,32.52199983596802,immed,27478.000164031982,Fri Mar 27 2026 11:21:17 GMT-0500 (Central Daylight Time),927041.3000000119,A,bodyenter,I,enter,394,1,1199.4000000059605,925841.900000006,8104,WL,C,9.0
7,37.5699999332428,immed,22430.000066757202,Fri Mar 27 2026 11:21:17 GMT-0500 (Central Daylight Time),932089.3000000119,A,c,I,c,5042,1,5047.600000023842,927041.6999999881,8104,WL,C,10.0
7,38.519999980926514,immed,21480.000019073486,Fri Mar 27 2026 11:21:17 GMT-0500 (Central Daylight Time),933039.5,A,ca,I,a,929,1,5997.800000011921,927041.6999999881,8104,WL,C,10.0
7,38.753000020980835,immed,21246.999979019165,Fri Mar 27 2026 11:21:17 GMT-0500 (Central Daylight Time),933272.5,A,cat,I,t,228,1,6230.800000011921,927041.6999999881,8104,WL,C,10.0
7,38.93599987030029,immed,21064.000129699707,Fri Mar 27 2026 11:21:17 GMT-0500 (Central Daylight Time),933455.400000006,A,catt,I,t,162,1,6413.700000017881,927041.6999999881,8104,WL,C,10.0
7,39.08699989318848,immed,20913.000106811523,Fri Mar 27 2026 11:21:17 GMT-0500 (Central Daylight Time),933605.8000000119,A,cattl,I,l,131,1,6564.100000023842,927041.6999999881,8104,WL,C,10.0
7,39.186999797821045,immed,20813.000202178955,Fri Mar 27 2026 11:21:17 GMT-0500 (Central Daylight Time),933705.6999999881,A,cattle,I,e,93,1,6664.0,927041.6999999881,8104,WL,C,10.0
7,39.503000020980835,immed,20496.999979019165,Fri Mar 27 2026 11:21:17 GMT-0500 (Central Daylight Time),934022.3000000119,A,cattleenter,I,enter,298,1,6980.600000023842,927041.6999999881,8104,WL,C,10.0
7,41.53600001335144,immed,18463.99998664856,Fri Mar 27 2026 11:21:17 GMT-0500 (Central Daylight Time),936054.900000006,A,n,I,n,2021,1,2032.2000000178814,934022.6999999881,8104,WL,C,11.0
7,42.168999910354614,immed,17831.000089645386,Fri Mar 27 2026 11:21:17 GMT-0500 (Central Daylight Time),936688.099999994,A,na,I,a,612,1,2665.4000000059605,934022.6999999881,8104,WL,C,11.0
7,42.335999965667725,immed,17664.000034332275,Fri Mar 27 2026 11:21:17 GMT-0500 (Central Daylight Time),936854.900000006,A,nai,I,i,156,1,2832.2000000178814,934022.6999999881,8104,WL,C,11.0
7,42.58699989318848,immed,17413.000106811523,Fri Mar 27 2026 11:21:17 GMT-0500 (Central Daylight Time),937105.6999999881,A,nail,I,l,244,1,3083.0,934022.6999999881,8104,WL,C,11.0
7,42.918999910354614,immed,17081.000089645386,Fri Mar 27 2026 11:21:17 GMT-0500 (Central Daylight Time),937437.900000006,A,nailenter,I,enter,321,1,3415.2000000178814,934022.6999999881,8104,WL,C,11.0
7,43.251999855041504,immed,16748.000144958496,Fri Mar 27 2026 11:21:17 GMT-0500 (Central Daylight Time),937771.099999994,A,f,I,f,325,1,332.7999999821186,937438.3000000119,8104,WL,C,12.0
7,43.401999950408936,immed,16598.000049591064,Fri Mar 27 2026 11:21:17 GMT-0500 (Central Daylight Time),937921.099999994,A,fl,I,l,136,1,482.7999999821186,937438.3000000119,8104,WL,C,12.0
7,43.51799988746643,immed,16482.00011253357,Fri Mar 27 2026 11:21:17 GMT-0500 (Central Daylight Time),938037.599999994,A,fla,I,a,99,1,599.2999999821186,937438.3000000119,8104,WL,C,12.0
7,43.80199980735779,immed,16198.000192642212,Fri Mar 27 2026 11:21:17 GMT-0500 (Central Daylight Time),938320.900000006,A,flag,I,g,262,1,882.5999999940395,937438.3000000119,8104,WL,C,12.0
7,44.18499994277954,immed,15815.000057220459,Fri Mar 27 2026 11:21:17 GMT-0500 (Central Daylight Time),938704.3000000119,A,flagenter,I,enter,362,1,1266.0,937438.3000000119,8104,WL,C,12.0
7,46.03499984741211,immed,13965.00015258789,Fri Mar 27 2026 11:21:17 GMT-0500 (Central Daylight Time),940553.6999999881,A,c,I,c,1843,1,1849.0,938704.6999999881,8104,WL,C,13.0
7,46.20099997520447,immed,13799.000024795532,Fri Mar 27 2026 11:21:17 GMT-0500 (Central Daylight Time),940720.3000000119,A,ca,I,a,154,1,2015.6000000238419,938704.6999999881,8104,WL,C,13.0
7,46.33399987220764,immed,13666.000127792358,Fri Mar 27 2026 11:21:17 GMT-0500 (Central Daylight Time),940853.400000006,A,cam,I,m,123,1,2148.7000000178814,938704.6999999881,8104,WL,C,13.0
7,46.567999839782715,immed,13432.000160217285,Fri Mar 27 2026 11:21:17 GMT-0500 (Central Daylight Time),941087.0,A,camp,I,p,222,1,2382.300000011921,938704.6999999881,8104,WL,C,13.0
7,47.01699995994568,immed,12983.000040054321,Fri Mar 27 2026 11:21:17 GMT-0500 (Central Daylight Time),941536.599999994,A,campenter,I,enter,429,1,2831.9000000059605,938704.6999999881,8104,WL,C,13.0
7,53.81499981880188,immed,6185.00018119812,Fri Mar 27 2026 11:21:17 GMT-0500 (Central Daylight Time),948334.5,A,h,I,h,6787,1,6797.5999999940395,941536.900000006,8104,WL,C,14.0
7,54.014999866485596,immed,5985.000133514404,Fri Mar 27 2026 11:21:17 GMT-0500 (Central Daylight Time),948534.3000000119,A,ho,I,o,188,1,6997.4000000059605,941536.900000006,8104,WL,C,14.0
7,54.264999866485596,immed,5735.000133514404,Fri Mar 27 2026 11:21:17 GMT-0500 (Central Daylight Time),948784.1999999881,A,hom,I,m,237,1,7247.299999982119,941536.900000006,8104,WL,C,14.0
7,54.3989999294281,immed,5601.000070571899,Fri Mar 27 2026 11:21:17 GMT-0500 (Central Daylight Time),948917.900000006,A,home,I,e,115,1,7381.0,941536.900000006,8104,WL,C,14.0
7,54.698999881744385,immed,5301.000118255615,Fri Mar 27 2026 11:21:17 GMT-0500 (Central Daylight Time),949217.6999999881,A,homeenter,I,enter,285,1,7680.799999982119,941536.900000006,8104,WL,C,14.0
7,60.013999938964844,immed,-13.99993896484375,Fri Mar 27 2026 11:21:17 GMT-0500 (Central Daylight Time),954532.6999999881,A,None,I,None,5311,1,5314.5999999940395,949218.099999994,8104,WL,C,15.0
