acc_sum,block,block_c,change,condition,correct,correct_response,datetime,endtime,face,project,response,response_time,row_sel,session_number,start_end,starttime,subject_id,task,task_vers,trial
0,prac,1,,1-Back,,,Wed Aug 20 2025 17:25:19 GMT-0500 (Central Daylight Time),,012_o_f_d_a.png,O,space,6017,1,1,,,7209,VNB,C,0
1,prac,1,0.0,1-Back,1,m,Wed Aug 20 2025 17:25:19 GMT-0500 (Central Daylight Time),129972.90000009537,022_y_f_n_a.png,O,m,1126,2,1,1971.9000000953674,128001.0,7209,VNB,C,1
2,prac,1,0.0,1-Back,1,m,Wed Aug 20 2025 17:25:19 GMT-0500 (Central Daylight Time),131654.70000004768,014_m_m_h_a.png,O,m,833,3,1,1671.8999999761581,129982.80000007153,7209,VNB,C,2
3,prac,1,0.0,1-Back,1,m,Wed Aug 20 2025 17:25:19 GMT-0500 (Central Daylight Time),133187.5,025_y_m_d_a.png,O,m,678,4,1,1521.5,131666.0,7209,VNB,C,3
4,prac,1,0.0,1-Back,1,m,Wed Aug 20 2025 17:25:19 GMT-0500 (Central Daylight Time),135070.5,012_o_f_n_a.png,O,m,1010,5,1,1874.6999999284744,133195.80000007153,7209,VNB,C,4
5,prac,1,1.0,1-Back,1,z,Wed Aug 20 2025 17:25:19 GMT-0500 (Central Daylight Time),136436.70000004768,025_y_m_n_a.png,O,z,503,6,1,1354.2999999523163,135082.40000009537,7209,VNB,C,5
6,prac,1,0.0,1-Back,1,m,Wed Aug 20 2025 17:25:19 GMT-0500 (Central Daylight Time),138002.30000007153,015_o_m_h_a.png,O,m,684,7,1,1554.7000000476837,136447.60000002384,7209,VNB,C,6
6,prac,1,0.0,1-Back,0,m,Wed Aug 20 2025 17:25:19 GMT-0500 (Central Daylight Time),139485.60000002384,019_m_f_d_a.png,O,z,605,8,1,1471.8999999761581,138013.70000004768,7209,VNB,C,7
6,prac,1,1.0,1-Back,0,z,Wed Aug 20 2025 17:25:19 GMT-0500 (Central Daylight Time),141135.80000007153,022_y_f_d_a.png,O,m,785,9,1,1640.3999999761581,139495.40000009537,7209,VNB,C,8
7,prac,1,0.0,1-Back,1,m,Wed Aug 20 2025 17:25:19 GMT-0500 (Central Daylight Time),143034.80000007153,014_m_m_n_a.png,O,m,1043,10,1,1886.5,141148.30000007153,7209,VNB,C,9
8,prac,1,0.0,1-Back,1,m,Wed Aug 20 2025 17:25:19 GMT-0500 (Central Daylight Time),144651.70000004768,012_o_f_h_a.png,O,m,758,11,1,1608.7000000476837,143043.0,7209,VNB,C,10
9,prac,1,0.0,1-Back,1,m,Wed Aug 20 2025 17:25:19 GMT-0500 (Central Daylight Time),146317.10000002384,025_y_m_d_a.png,O,m,820,12,1,1654.1000000238419,144663.0,7209,VNB,C,11
0,test,1,0.0,1-Back,,,Wed Aug 20 2025 17:25:19 GMT-0500 (Central Daylight Time),146317.10000002384,022_y_f_d_a.png,O,space,3501,1,1,1654.1000000238419,144663.0,7209,VNB,C,0
1,test,1,0.0,1-Back,1,m,Wed Aug 20 2025 17:25:19 GMT-0500 (Central Daylight Time),158179.60000002384,019_m_f_n_a.png,O,m,876,2,1,1887.1999999284744,156292.40000009537,7209,VNB,C,1
2,test,1,0.0,1-Back,1,m,Wed Aug 20 2025 17:25:19 GMT-0500 (Central Daylight Time),159946.10000002384,015_o_m_h_a.png,O,m,744,3,1,1759.2999999523163,158186.80000007153,7209,VNB,C,2
3,test,1,1.0,1-Back,1,z,Wed Aug 20 2025 17:25:19 GMT-0500 (Central Daylight Time),161828.90000009537,014_m_m_h_a.png,O,z,852,4,1,1875.1000000238419,159953.80000007153,7209,VNB,C,3
4,test,1,0.0,1-Back,1,m,Wed Aug 20 2025 17:25:19 GMT-0500 (Central Daylight Time),163494.90000009537,012_o_f_n_a.png,O,m,641,5,1,1658.0,161836.90000009537,7209,VNB,C,4
5,test,1,0.0,1-Back,1,m,Wed Aug 20 2025 17:25:19 GMT-0500 (Central Daylight Time),165079.10000002384,025_y_m_d_a.png,O,m,567,6,1,1575.7999999523163,163503.30000007153,7209,VNB,C,5
6,test,1,1.0,1-Back,1,z,Wed Aug 20 2025 17:25:19 GMT-0500 (Central Daylight Time),166878.10000002384,019_m_f_d_a.png,O,z,784,7,1,1792.1000000238419,165086.0,7209,VNB,C,6
7,test,1,0.0,1-Back,1,m,Wed Aug 20 2025 17:25:19 GMT-0500 (Central Daylight Time),168842.10000002384,022_y_f_h_a.png,O,m,944,8,1,1955.8999999761581,166886.20000004768,7209,VNB,C,7
8,test,1,0.0,1-Back,1,m,Wed Aug 20 2025 17:25:19 GMT-0500 (Central Daylight Time),170692.0,015_o_m_n_a.png,O,m,826,9,1,1841.5,168850.5,7209,VNB,C,8
9,test,1,0.0,1-Back,1,m,Wed Aug 20 2025 17:25:19 GMT-0500 (Central Daylight Time),172641.10000002384,025_y_m_h_a.png,O,m,925,10,1,1941.5,170699.60000002384,7209,VNB,C,9
10,test,1,0.0,1-Back,1,m,Wed Aug 20 2025 17:25:19 GMT-0500 (Central Daylight Time),174374.40000009537,015_o_m_d_a.png,O,m,715,11,1,1724.5,172649.90000009537,7209,VNB,C,10
11,test,1,1.0,1-Back,1,z,Wed Aug 20 2025 17:25:19 GMT-0500 (Central Daylight Time),176024.0,012_o_f_d_a.png,O,z,630,12,1,1642.6999999284744,174381.30000007153,7209,VNB,C,11
12,test,1,0.0,1-Back,1,m,Wed Aug 20 2025 17:25:19 GMT-0500 (Central Daylight Time),177973.10000002384,014_m_m_n_a.png,O,m,915,13,1,1941.7999999523163,176031.30000007153,7209,VNB,C,12
13,test,1,1.0,1-Back,1,z,Wed Aug 20 2025 17:25:19 GMT-0500 (Central Daylight Time),179655.70000004768,022_y_f_n_a.png,O,z,664,14,1,1675.6000000238419,177980.10000002384,7209,VNB,C,13
14,test,1,0.0,1-Back,1,m,Wed Aug 20 2025 17:25:19 GMT-0500 (Central Daylight Time),181388.90000009537,019_m_f_h_a.png,O,m,711,15,1,1725.5,179663.40000009537,7209,VNB,C,14
15,test,1,0.0,1-Back,1,m,Wed Aug 20 2025 17:25:19 GMT-0500 (Central Daylight Time),183071.80000007153,014_m_m_d_a.png,O,m,654,16,1,1673.6000000238419,181398.20000004768,7209,VNB,C,15
16,test,1,0.0,1-Back,1,m,Wed Aug 20 2025 17:25:19 GMT-0500 (Central Daylight Time),184839.40000009537,025_y_m_n_a.png,O,m,741,17,1,1760.4000000953674,183079.0,7209,VNB,C,16
17,test,1,0.0,1-Back,1,m,Wed Aug 20 2025 17:25:19 GMT-0500 (Central Daylight Time),186488.30000007153,012_o_f_h_a.png,O,m,633,18,1,1641.8000000715256,184846.5,7209,VNB,C,17
0,test,2,0.0,1-Back,,,Wed Aug 20 2025 17:25:19 GMT-0500 (Central Daylight Time),186488.30000007153,025_y_m_n_a.png,O,space,852,1,1,1641.8000000715256,184846.5,7209,VNB,C,0
1,test,2,0.0,1-Back,1,m,Wed Aug 20 2025 17:25:19 GMT-0500 (Central Daylight Time),191086.0,022_y_f_h_a.png,O,m,683,2,1,1706.0,189380.0,7209,VNB,C,1
2,test,2,1.0,1-Back,1,m,Wed Aug 20 2025 17:25:19 GMT-0500 (Central Daylight Time),192933.30000007153,015_o_m_n_a.png,O,m,829,3,1,1839.8999999761581,191093.40000009537,7209,VNB,C,2
3,test,2,0.0,1-Back,1,m,Wed Aug 20 2025 17:25:19 GMT-0500 (Central Daylight Time),194602.10000002384,019_m_f_d_a.png,O,m,645,4,1,1666.1999999284744,192935.90000009537,7209,VNB,C,3
4,test,2,0.0,1-Back,1,z,Wed Aug 20 2025 17:25:19 GMT-0500 (Central Daylight Time),196250.60000002384,014_m_m_d_a.png,O,z,626,5,1,1640.6000000238419,194610.0,7209,VNB,C,4
5,test,2,0.0,1-Back,1,m,Wed Aug 20 2025 17:25:19 GMT-0500 (Central Daylight Time),198051.0,025_y_m_h_a.png,O,m,779,6,1,1791.3999999761581,196259.60000002384,7209,VNB,C,5
6,test,2,1.0,1-Back,1,z,Wed Aug 20 2025 17:25:19 GMT-0500 (Central Daylight Time),199716.10000002384,012_o_f_h_a.png,O,z,642,7,1,1660.2999999523163,198055.80000007153,7209,VNB,C,6
7,test,2,0.0,1-Back,1,m,Wed Aug 20 2025 17:25:19 GMT-0500 (Central Daylight Time),201314.60000002384,019_m_f_n_a.png,O,m,576,8,1,1589.5,199725.10000002384,7209,VNB,C,7
8,test,2,0.0,1-Back,1,m,Wed Aug 20 2025 17:25:19 GMT-0500 (Central Daylight Time),202998.90000009537,022_y_f_d_a.png,O,m,657,9,1,1681.2000000476837,201317.70000004768,7209,VNB,C,8
9,test,2,0.0,1-Back,1,m,Wed Aug 20 2025 17:25:19 GMT-0500 (Central Daylight Time),204963.20000004768,014_m_m_n_a.png,O,m,942,10,1,1955.8999999761581,203007.30000007153,7209,VNB,C,9
10,test,2,1.0,1-Back,1,m,Wed Aug 20 2025 17:25:19 GMT-0500 (Central Daylight Time),206780.40000009537,019_m_f_h_a.png,O,m,784,11,1,1807.4000000953674,204973.0,7209,VNB,C,10
11,test,2,0.0,1-Back,1,z,Wed Aug 20 2025 17:25:19 GMT-0500 (Central Daylight Time),208630.40000009537,015_o_m_h_a.png,O,z,818,12,1,1840.9000000953674,206789.5,7209,VNB,C,11
12,test,2,0.0,1-Back,1,m,Wed Aug 20 2025 17:25:19 GMT-0500 (Central Daylight Time),210545.20000004768,025_y_m_d_a.png,O,m,886,13,1,1902.2000000476837,208643.0,7209,VNB,C,12
13,test,2,0.0,1-Back,1,m,Wed Aug 20 2025 17:25:19 GMT-0500 (Central Daylight Time),212412.60000002384,012_o_f_n_a.png,O,m,836,14,1,1858.5,210554.10000002384,7209,VNB,C,13
14,test,2,0.0,1-Back,1,z,Wed Aug 20 2025 17:25:19 GMT-0500 (Central Daylight Time),213979.30000007153,022_y_f_n_a.png,O,z,546,15,1,1557.6000000238419,212421.70000004768,7209,VNB,C,14
15,test,2,1.0,1-Back,1,m,Wed Aug 20 2025 17:25:19 GMT-0500 (Central Daylight Time),215644.60000002384,014_m_m_h_a.png,O,m,635,16,1,1654.8999999761581,213989.70000004768,7209,VNB,C,15
16,test,2,0.0,1-Back,1,m,Wed Aug 20 2025 17:25:19 GMT-0500 (Central Daylight Time),217676.10000002384,012_o_f_d_a.png,O,m,1007,17,1,2022.6999999284744,215653.40000009537,7209,VNB,C,16
17,test,2,1.0,1-Back,1,z,Wed Aug 20 2025 17:25:19 GMT-0500 (Central Daylight Time),219375.70000004768,015_o_m_d_a.png,O,z,670,18,1,1689.0,217686.70000004768,7209,VNB,C,17
0,test,3,1.0,1-Back,,,Wed Aug 20 2025 17:25:19 GMT-0500 (Central Daylight Time),219375.70000004768,012_o_f_h_a.png,O,space,796,1,1,1689.0,217686.70000004768,7209,VNB,C,0
1,test,3,0.0,1-Back,1,m,Wed Aug 20 2025 17:25:19 GMT-0500 (Central Daylight Time),224075.80000007153,019_m_f_d_a.png,O,m,776,2,1,1790.0,222285.80000007153,7209,VNB,C,1
2,test,3,1.0,1-Back,1,m,Wed Aug 20 2025 17:25:19 GMT-0500 (Central Daylight Time),225992.30000007153,014_m_m_n_a.png,O,m,886,3,1,1906.8000000715256,224085.5,7209,VNB,C,2
3,test,3,0.0,1-Back,1,z,Wed Aug 20 2025 17:25:19 GMT-0500 (Central Daylight Time),227689.90000009537,012_o_f_n_a.png,O,z,671,4,1,1687.0,226002.90000009537,7209,VNB,C,3
3,test,3,1.0,1-Back,0,m,Wed Aug 20 2025 17:25:19 GMT-0500 (Central Daylight Time),229922.20000004768,015_o_m_d_a.png,O,z,1200,5,1,2225.600000023842,227696.60000002384,7209,VNB,C,4
4,test,3,0.0,1-Back,1,m,Wed Aug 20 2025 17:25:19 GMT-0500 (Central Daylight Time),231671.60000002384,022_y_f_h_a.png,O,m,728,6,1,1741.2999999523163,229930.30000007153,7209,VNB,C,5
4,test,3,0.0,1-Back,0,z,Wed Aug 20 2025 17:25:19 GMT-0500 (Central Daylight Time),233673.0,025_y_m_h_a.png,O,m,979,7,1,1993.1999999284744,231679.80000007153,7209,VNB,C,6
5,test,3,0.0,1-Back,1,m,Wed Aug 20 2025 17:25:19 GMT-0500 (Central Daylight Time),235520.60000002384,019_m_f_n_a.png,O,m,829,8,1,1839.6999999284744,233680.90000009537,7209,VNB,C,7
5,test,3,0.0,1-Back,0,m,Wed Aug 20 2025 17:25:19 GMT-0500 (Central Daylight Time),237371.0,022_y_f_d_a.png,O,z,829,9,1,1841.8999999761581,235529.10000002384,7209,VNB,C,8
6,test,3,1.0,1-Back,1,m,Wed Aug 20 2025 17:25:19 GMT-0500 (Central Daylight Time),239270.5,015_o_m_n_a.png,O,m,873,10,1,1891.5999999046326,237378.90000009537,7209,VNB,C,9
7,test,3,0.0,1-Back,1,m,Wed Aug 20 2025 17:25:19 GMT-0500 (Central Daylight Time),241135.20000004768,014_m_m_h_a.png,O,m,846,11,1,1857.2000000476837,239278.0,7209,VNB,C,10
7,test,3,0.0,1-Back,0,z,Wed Aug 20 2025 17:25:19 GMT-0500 (Central Daylight Time),243200.40000009537,019_m_f_h_a.png,O,m,1042,12,1,2055.7000000476837,241144.70000004768,7209,VNB,C,11
8,test,3,1.0,1-Back,1,m,Wed Aug 20 2025 17:25:19 GMT-0500 (Central Daylight Time),245252.5,012_o_f_d_a.png,O,m,1018,13,1,2045.3999999761581,243207.10000002384,7209,VNB,C,12
9,test,3,0.0,1-Back,1,z,Wed Aug 20 2025 17:25:19 GMT-0500 (Central Daylight Time),247485.20000004768,014_m_m_d_a.png,O,z,1201,14,1,2225.7000000476837,245259.5,7209,VNB,C,13
10,test,3,0.0,1-Back,1,m,Wed Aug 20 2025 17:25:19 GMT-0500 (Central Daylight Time),249549.5,025_y_m_n_a.png,O,m,1039,15,1,2056.2999999523163,247493.20000004768,7209,VNB,C,14
11,test,3,1.0,1-Back,1,m,Wed Aug 20 2025 17:25:19 GMT-0500 (Central Daylight Time),251366.90000009537,015_o_m_h_a.png,O,m,786,16,1,1809.0,249557.90000009537,7209,VNB,C,15
12,test,3,0.0,1-Back,1,m,Wed Aug 20 2025 17:25:19 GMT-0500 (Central Daylight Time),253298.70000004768,025_y_m_d_a.png,O,m,900,17,1,1922.7000000476837,251376.0,7209,VNB,C,16
13,test,3,1.0,1-Back,1,m,Wed Aug 20 2025 17:25:19 GMT-0500 (Central Daylight Time),255281.70000004768,022_y_f_n_a.png,O,m,962,18,1,1976.3999999761581,253305.30000007153,7209,VNB,C,17
0,test,4,1.0,1-Back,,,Wed Aug 20 2025 17:25:19 GMT-0500 (Central Daylight Time),255281.70000004768,014_m_m_d_a.png,O,space,734,1,1,1976.3999999761581,253305.30000007153,7209,VNB,C,0
1,test,4,0.0,1-Back,1,z,Wed Aug 20 2025 17:25:19 GMT-0500 (Central Daylight Time),260245.90000009537,015_o_m_d_a.png,O,z,1173,2,1,2187.5,258058.40000009537,7209,VNB,C,1
2,test,4,0.0,1-Back,1,m,Wed Aug 20 2025 17:25:19 GMT-0500 (Central Daylight Time),262097.10000002384,025_y_m_h_a.png,O,m,817,3,1,1845.1000000238419,260252.0,7209,VNB,C,2
3,test,4,0.0,1-Back,1,m,Wed Aug 20 2025 17:25:19 GMT-0500 (Central Daylight Time),263895.7000000477,019_m_f_n_a.png,O,m,773,4,1,1788.7000000476837,262107.0,7209,VNB,C,3
4,test,4,1.0,1-Back,1,m,Wed Aug 20 2025 17:25:19 GMT-0500 (Central Daylight Time),265728.40000009537,012_o_f_h_a.png,O,m,814,5,1,1823.2000000476837,263905.2000000477,7209,VNB,C,4
5,test,4,0.0,1-Back,1,m,Wed Aug 20 2025 17:25:19 GMT-0500 (Central Daylight Time),267644.2000000477,014_m_m_n_a.png,O,m,892,6,1,1906.8999999761581,265737.3000000715,7209,VNB,C,5
6,test,4,0.0,1-Back,1,m,Wed Aug 20 2025 17:25:19 GMT-0500 (Central Daylight Time),269512.10000002384,025_y_m_d_a.png,O,m,850,7,1,1859.1999999284744,267652.90000009537,7209,VNB,C,6
7,test,4,1.0,1-Back,1,z,Wed Aug 20 2025 17:25:19 GMT-0500 (Central Daylight Time),271177.0,022_y_f_d_a.png,O,z,646,8,1,1656.0,269521.0,7209,VNB,C,7
8,test,4,0.0,1-Back,1,m,Wed Aug 20 2025 17:25:19 GMT-0500 (Central Daylight Time),273111.10000002384,019_m_f_h_a.png,O,m,908,9,1,1926.1999999284744,271184.90000009537,7209,VNB,C,8
9,test,4,0.0,1-Back,1,z,Wed Aug 20 2025 17:25:19 GMT-0500 (Central Daylight Time),275042.0,015_o_m_h_a.png,O,z,902,10,1,1922.5,273119.5,7209,VNB,C,9
10,test,4,1.0,1-Back,1,m,Wed Aug 20 2025 17:25:19 GMT-0500 (Central Daylight Time),277041.10000002384,012_o_f_n_a.png,O,m,977,11,1,1991.2999999523163,275049.8000000715,7209,VNB,C,10
11,test,4,0.0,1-Back,1,m,Wed Aug 20 2025 17:25:19 GMT-0500 (Central Daylight Time),278790.90000009537,019_m_f_d_a.png,O,m,723,12,1,1742.6000000238419,277048.3000000715,7209,VNB,C,11
12,test,4,0.0,1-Back,1,m,Wed Aug 20 2025 17:25:19 GMT-0500 (Central Daylight Time),280558.10000002384,022_y_f_n_a.png,O,m,743,13,1,1760.7999999523163,278797.3000000715,7209,VNB,C,12
13,test,4,0.0,1-Back,1,m,Wed Aug 20 2025 17:25:19 GMT-0500 (Central Daylight Time),282356.8000000715,012_o_f_d_a.png,O,m,767,14,1,1791.8000000715256,280565.0,7209,VNB,C,13
14,test,4,0.0,1-Back,1,m,Wed Aug 20 2025 17:25:19 GMT-0500 (Central Daylight Time),284322.5,022_y_f_h_a.png,O,m,935,15,1,1957.2999999523163,282365.2000000477,7209,VNB,C,14
15,test,4,1.0,1-Back,1,z,Wed Aug 20 2025 17:25:19 GMT-0500 (Central Daylight Time),285887.10000002384,014_m_m_h_a.png,O,z,536,16,1,1555.2999999523163,284331.8000000715,7209,VNB,C,15
16,test,4,0.0,1-Back,1,m,Wed Aug 20 2025 17:25:19 GMT-0500 (Central Daylight Time),287588.2000000477,015_o_m_n_a.png,O,m,678,17,1,1693.7999999523163,285894.40000009537,7209,VNB,C,16
17,test,4,1.0,1-Back,1,z,Wed Aug 20 2025 17:25:19 GMT-0500 (Central Daylight Time),289255.2000000477,025_y_m_n_a.png,O,z,648,18,1,1657.7000000476837,287597.5,7209,VNB,C,17
0,test,5,1.0,1-Back,,,Wed Aug 20 2025 17:25:19 GMT-0500 (Central Daylight Time),289255.2000000477,015_o_m_n_a.png,O,space,806,1,1,1657.7000000476837,287597.5,7209,VNB,C,0
1,test,5,1.0,1-Back,1,m,Wed Aug 20 2025 17:25:19 GMT-0500 (Central Daylight Time),293985.90000009537,012_o_f_h_a.png,O,m,877,2,1,1887.4000000953674,292098.5,7209,VNB,C,1
2,test,5,0.0,1-Back,1,m,Wed Aug 20 2025 17:25:19 GMT-0500 (Central Daylight Time),295719.5,025_y_m_d_a.png,O,m,708,3,1,1730.1999999284744,293989.3000000715,7209,VNB,C,2
3,test,5,0.0,1-Back,1,z,Wed Aug 20 2025 17:25:19 GMT-0500 (Central Daylight Time),297669.3000000715,015_o_m_d_a.png,O,z,933,4,1,1939.7000000476837,295729.60000002384,7209,VNB,C,3
4,test,5,0.0,1-Back,1,m,Wed Aug 20 2025 17:25:19 GMT-0500 (Central Daylight Time),299434.2000000477,019_m_f_h_a.png,O,m,743,5,1,1756.5,297677.7000000477,7209,VNB,C,4
5,test,5,0.0,1-Back,1,m,Wed Aug 20 2025 17:25:19 GMT-0500 (Central Daylight Time),301499.40000009537,022_y_f_n_a.png,O,m,1033,6,1,2056.3000000715256,299443.10000002384,7209,VNB,C,5
6,test,5,1.0,1-Back,1,z,Wed Aug 20 2025 17:25:19 GMT-0500 (Central Daylight Time),303266.7000000477,012_o_f_n_a.png,O,z,735,7,1,1758.3999999761581,301508.3000000715,7209,VNB,C,6
7,test,5,0.0,1-Back,1,m,Wed Aug 20 2025 17:25:19 GMT-0500 (Central Daylight Time),305032.40000009537,019_m_f_d_a.png,O,m,738,8,1,1758.2000000476837,303274.2000000477,7209,VNB,C,7
8,test,5,0.0,1-Back,1,m,Wed Aug 20 2025 17:25:19 GMT-0500 (Central Daylight Time),306814.60000002384,025_y_m_h_a.png,O,m,766,9,1,1774.7999999523163,305039.8000000715,7209,VNB,C,8
9,test,5,0.0,1-Back,1,m,Wed Aug 20 2025 17:25:19 GMT-0500 (Central Daylight Time),308965.2000000477,022_y_f_d_a.png,O,m,1126,10,1,2142.5,306822.7000000477,7209,VNB,C,9
10,test,5,0.0,1-Back,1,m,Wed Aug 20 2025 17:25:19 GMT-0500 (Central Daylight Time),311064.8000000715,014_m_m_n_a.png,O,m,1079,11,1,2090.399999976158,308974.40000009537,7209,VNB,C,10
11,test,5,1.0,1-Back,1,z,Wed Aug 20 2025 17:25:19 GMT-0500 (Central Daylight Time),312679.2000000477,019_m_f_n_a.png,O,z,587,12,1,1606.6000000238419,311072.60000002384,7209,VNB,C,11
12,test,5,0.0,1-Back,1,m,Wed Aug 20 2025 17:25:19 GMT-0500 (Central Daylight Time),314463.3000000715,015_o_m_h_a.png,O,m,757,13,1,1781.3000000715256,312682.0,7209,VNB,C,12
13,test,5,0.0,1-Back,1,z,Wed Aug 20 2025 17:25:19 GMT-0500 (Central Daylight Time),316278.90000009537,014_m_m_h_a.png,O,z,788,14,1,1806.8000000715256,314472.10000002384,7209,VNB,C,13
14,test,5,1.0,1-Back,1,m,Wed Aug 20 2025 17:25:19 GMT-0500 (Central Daylight Time),318045.7000000477,012_o_f_d_a.png,O,m,734,15,1,1756.7000000476837,316289.0,7209,VNB,C,14
14,test,5,0.0,1-Back,0,m,Wed Aug 20 2025 17:25:19 GMT-0500 (Central Daylight Time),320011.5,025_y_m_n_a.png,O,z,934,16,1,1956.3999999761581,318055.10000002384,7209,VNB,C,15
15,test,5,0.0,1-Back,1,m,Wed Aug 20 2025 17:25:19 GMT-0500 (Central Daylight Time),321660.8000000715,022_y_f_h_a.png,O,m,617,17,1,1639.8000000715256,320021.0,7209,VNB,C,16
16,test,5,0.0,1-Back,1,m,Wed Aug 20 2025 17:25:19 GMT-0500 (Central Daylight Time),323526.5,014_m_m_d_a.png,O,m,848,18,1,1857.3999999761581,321669.10000002384,7209,VNB,C,17
0,prac,1,0.0,2-Back,,,Wed Aug 20 2025 17:25:19 GMT-0500 (Central Daylight Time),323526.5,019_m_f_n_a.png,O,space,2673,1,1,1857.3999999761581,321669.10000002384,7209,VNB,C,0
0,prac,1,0.0,2-Back,,,Wed Aug 20 2025 17:25:19 GMT-0500 (Central Daylight Time),323526.5,012_o_f_h_a.png,O,space,2673,2,1,1857.3999999761581,321669.10000002384,7209,VNB,C,0
1,prac,1,0.0,2-Back,1,m,Wed Aug 20 2025 17:25:19 GMT-0500 (Central Daylight Time),410117.40000009537,015_o_m_d_a.png,O,m,948,3,1,1823.2000000476837,408294.2000000477,7209,VNB,C,1
2,prac,1,1.0,2-Back,1,z,Wed Aug 20 2025 17:25:19 GMT-0500 (Central Daylight Time),411749.8000000715,014_m_m_h_a.png,O,z,784,4,1,1622.2000000476837,410127.60000002384,7209,VNB,C,2
3,prac,1,0.0,2-Back,1,m,Wed Aug 20 2025 17:25:19 GMT-0500 (Central Daylight Time),413247.0,022_y_f_n_a.png,O,m,628,5,1,1488.0999999046326,411758.90000009537,7209,VNB,C,3
3,prac,1,1.0,2-Back,0,z,Wed Aug 20 2025 17:25:19 GMT-0500 (Central Daylight Time),414880.7000000477,015_o_m_h_a.png,O,m,758,6,1,1626.8999999761581,413253.8000000715,7209,VNB,C,4
3,prac,1,1.0,2-Back,0,z,Wed Aug 20 2025 17:25:19 GMT-0500 (Central Daylight Time),416881.0,025_y_m_n_a.png,O,m,1155,7,1,1990.3999999761581,414890.60000002384,7209,VNB,C,5
4,prac,1,0.0,2-Back,1,m,Wed Aug 20 2025 17:25:19 GMT-0500 (Central Daylight Time),418747.7000000477,019_m_f_d_a.png,O,m,1011,8,1,1857.2000000476837,416890.5,7209,VNB,C,6
5,prac,1,0.0,2-Back,1,m,Wed Aug 20 2025 17:25:19 GMT-0500 (Central Daylight Time),420696.7000000477,012_o_f_d_a.png,O,m,1085,9,1,1940.7000000476837,418756.0,7209,VNB,C,7
5,prac,1,0.0,2-Back,0,m,Wed Aug 20 2025 17:25:19 GMT-0500 (Central Daylight Time),422229.3000000715,014_m_m_h_a.png,O,z,750,10,1,1526.2000000476837,420703.10000002384,7209,VNB,C,8
5,prac,1,1.0,2-Back,0,z,Wed Aug 20 2025 17:25:19 GMT-0500 (Central Daylight Time),424078.8000000715,022_y_f_d_a.png,O,m,999,11,1,1840.8000000715256,422238.0,7209,VNB,C,9
6,prac,1,0.0,2-Back,1,m,Wed Aug 20 2025 17:25:19 GMT-0500 (Central Daylight Time),426227.2000000477,015_o_m_n_a.png,O,m,1276,12,1,2137.899999976158,424089.3000000715,7209,VNB,C,10
0,prac,2,0.0,2-Back,,,Wed Aug 20 2025 17:25:19 GMT-0500 (Central Daylight Time),426227.2000000477,019_m_f_n_a.png,O,a,4323,1,1,2137.899999976158,424089.3000000715,7209,VNB,C,0
0,prac,2,0.0,2-Back,,,Wed Aug 20 2025 17:25:19 GMT-0500 (Central Daylight Time),426227.2000000477,012_o_f_h_a.png,O,a,4323,2,1,2137.899999976158,424089.3000000715,7209,VNB,C,0
1,prac,2,0.0,2-Back,1,m,Wed Aug 20 2025 17:25:19 GMT-0500 (Central Daylight Time),437507.5,015_o_m_d_a.png,O,m,872,3,1,1738.0999999046326,435769.40000009537,7209,VNB,C,1
1,prac,2,1.0,2-Back,0,z,Wed Aug 20 2025 17:25:19 GMT-0500 (Central Daylight Time),439255.60000002384,014_m_m_h_a.png,O,m,960,4,1,1739.6000000238419,437516.0,7209,VNB,C,2
2,prac,2,0.0,2-Back,1,m,Wed Aug 20 2025 17:25:19 GMT-0500 (Central Daylight Time),441390.40000009537,022_y_f_n_a.png,O,m,1259,5,1,2126.0,439264.40000009537,7209,VNB,C,3
2,prac,2,1.0,2-Back,0,z,Wed Aug 20 2025 17:25:19 GMT-0500 (Central Daylight Time),443121.40000009537,015_o_m_h_a.png,O,m,851,6,1,1723.4000000953674,441398.0,7209,VNB,C,4
3,prac,2,1.0,2-Back,1,z,Wed Aug 20 2025 17:25:19 GMT-0500 (Central Daylight Time),444855.0,025_y_m_n_a.png,O,z,892,7,1,1729.1999999284744,443125.8000000715,7209,VNB,C,5
3,prac,2,0.0,2-Back,0,m,Wed Aug 20 2025 17:25:19 GMT-0500 (Central Daylight Time),446487.10000002384,019_m_f_d_a.png,O,z,751,8,1,1621.3999999761581,444865.7000000477,7209,VNB,C,6
3,prac,2,0.0,2-Back,0,m,Wed Aug 20 2025 17:25:19 GMT-0500 (Central Daylight Time),448455.40000009537,012_o_f_d_a.png,O,z,1108,9,1,1960.4000000953674,446495.0,7209,VNB,C,7
4,prac,2,0.0,2-Back,1,m,Wed Aug 20 2025 17:25:19 GMT-0500 (Central Daylight Time),449953.3000000715,014_m_m_h_a.png,O,m,707,10,1,1488.8000000715256,448464.5,7209,VNB,C,8
4,prac,2,1.0,2-Back,0,z,Wed Aug 20 2025 17:25:19 GMT-0500 (Central Daylight Time),451687.8000000715,022_y_f_d_a.png,O,m,856,11,1,1723.3000000715256,449964.5,7209,VNB,C,9
5,prac,2,0.0,2-Back,1,m,Wed Aug 20 2025 17:25:19 GMT-0500 (Central Daylight Time),453702.7000000477,015_o_m_n_a.png,O,m,1157,12,1,2008.8999999761581,451693.8000000715,7209,VNB,C,10
0,test,1,0.0,2-Back,,,Wed Aug 20 2025 17:25:19 GMT-0500 (Central Daylight Time),453702.7000000477,025_y_m_h_a.png,O,space,4714,1,1,2008.8999999761581,451693.8000000715,7209,VNB,C,0
0,test,1,0.0,2-Back,,,Wed Aug 20 2025 17:25:19 GMT-0500 (Central Daylight Time),453702.7000000477,012_o_f_n_a.png,O,space,4714,2,1,2008.8999999761581,451693.8000000715,7209,VNB,C,0
0,test,1,0.0,2-Back,0,z,Wed Aug 20 2025 17:25:19 GMT-0500 (Central Daylight Time),472047.8000000715,015_o_m_h_a.png,O,None,2015,3,1,3025.899999976158,469021.90000009537,7209,VNB,C,1
1,test,1,0.0,2-Back,1,m,Wed Aug 20 2025 17:25:19 GMT-0500 (Central Daylight Time),473712.2000000477,019_m_f_d_a.png,O,m,638,4,1,1656.3999999761581,472055.8000000715,7209,VNB,C,2
1,test,1,1.0,2-Back,0,m,Wed Aug 20 2025 17:25:19 GMT-0500 (Central Daylight Time),475977.5,025_y_m_n_a.png,O,z,1236,5,1,2256.899999976158,473720.60000002384,7209,VNB,C,3
1,test,1,0.0,2-Back,0,z,Wed Aug 20 2025 17:25:19 GMT-0500 (Central Daylight Time),478195.10000002384,022_y_f_d_a.png,O,m,1186,6,1,2207.6999999284744,475987.40000009537,7209,VNB,C,4
2,test,1,0.0,2-Back,1,m,Wed Aug 20 2025 17:25:19 GMT-0500 (Central Daylight Time),480327.60000002384,014_m_m_h_a.png,O,m,1107,7,1,2122.6999999284744,478204.90000009537,7209,VNB,C,5
2,test,1,1.0,2-Back,0,m,Wed Aug 20 2025 17:25:19 GMT-0500 (Central Daylight Time),482109.0,022_y_f_n_a.png,O,z,757,8,1,1771.1999999284744,480337.8000000715,7209,VNB,C,6
3,test,1,0.0,2-Back,1,z,Wed Aug 20 2025 17:25:19 GMT-0500 (Central Daylight Time),484074.3000000715,012_o_f_h_a.png,O,z,934,9,1,1956.8000000715256,482117.5,7209,VNB,C,7
4,test,1,0.0,2-Back,1,m,Wed Aug 20 2025 17:25:19 GMT-0500 (Central Daylight Time),485758.40000009537,015_o_m_d_a.png,O,m,657,10,1,1675.9000000953674,484082.5,7209,VNB,C,8
4,test,1,1.0,2-Back,0,m,Wed Aug 20 2025 17:25:19 GMT-0500 (Central Daylight Time),488040.5,014_m_m_d_a.png,O,z,1262,11,1,2274.0999999046326,485766.40000009537,7209,VNB,C,9
5,test,1,0.0,2-Back,1,m,Wed Aug 20 2025 17:25:19 GMT-0500 (Central Daylight Time),490039.60000002384,019_m_f_n_a.png,O,m,979,12,1,1993.1999999284744,488046.40000009537,7209,VNB,C,10
6,test,1,0.0,2-Back,1,m,Wed Aug 20 2025 17:25:19 GMT-0500 (Central Daylight Time),492038.60000002384,022_y_f_h_a.png,O,m,971,13,1,1990.8999999761581,490047.7000000477,7209,VNB,C,11
7,test,1,0.0,2-Back,1,z,Wed Aug 20 2025 17:25:19 GMT-0500 (Central Daylight Time),494039.10000002384,014_m_m_n_a.png,O,z,969,14,1,1995.8999999761581,492043.2000000477,7209,VNB,C,12
8,test,1,0.0,2-Back,1,m,Wed Aug 20 2025 17:25:19 GMT-0500 (Central Daylight Time),496072.10000002384,025_y_m_d_a.png,O,m,1012,15,1,2023.1999999284744,494048.90000009537,7209,VNB,C,13
9,test,1,1.0,2-Back,1,m,Wed Aug 20 2025 17:25:19 GMT-0500 (Central Daylight Time),498137.60000002384,019_m_f_h_a.png,O,m,1046,16,1,2056.6999999284744,496080.90000009537,7209,VNB,C,14
9,test,1,0.0,2-Back,0,z,Wed Aug 20 2025 17:25:19 GMT-0500 (Central Daylight Time),500470.40000009537,012_o_f_d_a.png,O,m,1307,17,1,2325.0,498145.40000009537,7209,VNB,C,15
10,test,1,0.0,2-Back,1,m,Wed Aug 20 2025 17:25:19 GMT-0500 (Central Daylight Time),502619.60000002384,015_o_m_n_a.png,O,m,1127,18,1,2141.600000023842,500478.0,7209,VNB,C,16
0,test,2,0.0,2-Back,,,Wed Aug 20 2025 17:25:19 GMT-0500 (Central Daylight Time),502619.60000002384,014_m_m_h_a.png,O,space,1335,1,1,2141.600000023842,500478.0,7209,VNB,C,0
0,test,2,0.0,2-Back,,,Wed Aug 20 2025 17:25:19 GMT-0500 (Central Daylight Time),502619.60000002384,022_y_f_n_a.png,O,space,1335,2,1,2141.600000023842,500478.0,7209,VNB,C,0
1,test,2,1.0,2-Back,1,z,Wed Aug 20 2025 17:25:19 GMT-0500 (Central Daylight Time),511433.90000009537,012_o_f_h_a.png,O,z,1235,3,1,2255.4000000953674,509178.5,7209,VNB,C,1
2,test,2,0.0,2-Back,1,m,Wed Aug 20 2025 17:25:19 GMT-0500 (Central Daylight Time),513366.8000000715,015_o_m_d_a.png,O,m,915,4,1,1923.2000000476837,511443.60000002384,7209,VNB,C,2
3,test,2,0.0,2-Back,1,m,Wed Aug 20 2025 17:25:19 GMT-0500 (Central Daylight Time),515799.8000000715,019_m_f_d_a.png,O,m,1406,5,1,2423.7000000476837,513376.10000002384,7209,VNB,C,3
4,test,2,0.0,2-Back,1,m,Wed Aug 20 2025 17:25:19 GMT-0500 (Central Daylight Time),518113.8000000715,025_y_m_h_a.png,O,m,1285,6,1,2306.899999976158,515806.90000009537,7209,VNB,C,4
5,test,2,0.0,2-Back,1,m,Wed Aug 20 2025 17:25:19 GMT-0500 (Central Daylight Time),520246.3000000715,012_o_f_n_a.png,O,m,1101,7,1,2123.100000023842,518123.2000000477,7209,VNB,C,5
6,test,2,1.0,2-Back,1,z,Wed Aug 20 2025 17:25:19 GMT-0500 (Central Daylight Time),522848.3000000715,015_o_m_h_a.png,O,z,1583,8,1,2594.600000023842,520253.7000000477,7209,VNB,C,6
6,test,2,0.0,2-Back,0,m,Wed Aug 20 2025 17:25:19 GMT-0500 (Central Daylight Time),525113.3000000715,022_y_f_d_a.png,O,z,1239,9,1,2256.600000023842,522856.7000000477,7209,VNB,C,7
6,test,2,0.0,2-Back,0,m,Wed Aug 20 2025 17:25:19 GMT-0500 (Central Daylight Time),527243.4000000954,025_y_m_d_a.png,O,z,1106,10,1,2122.4000000953674,525121.0,7209,VNB,C,8
7,test,2,0.0,2-Back,1,m,Wed Aug 20 2025 17:25:19 GMT-0500 (Central Daylight Time),528929.4000000954,014_m_m_n_a.png,O,m,657,11,1,1681.0,527248.4000000954,7209,VNB,C,9
8,test,2,0.0,2-Back,1,m,Wed Aug 20 2025 17:25:19 GMT-0500 (Central Daylight Time),531244.1000000238,019_m_f_h_a.png,O,m,1293,12,1,2306.2999999523163,528937.8000000715,7209,VNB,C,10
9,test,2,1.0,2-Back,1,z,Wed Aug 20 2025 17:25:19 GMT-0500 (Central Daylight Time),533609.7000000477,015_o_m_n_a.png,O,z,1335,13,1,2356.7999999523163,531252.9000000954,7209,VNB,C,11
10,test,2,0.0,2-Back,1,m,Wed Aug 20 2025 17:25:19 GMT-0500 (Central Daylight Time),535142.3000000715,012_o_f_d_a.png,O,m,505,14,1,1523.3000000715256,533619.0,7209,VNB,C,12
11,test,2,0.0,2-Back,1,m,Wed Aug 20 2025 17:25:19 GMT-0500 (Central Daylight Time),536874.9000000954,022_y_f_h_a.png,O,m,709,15,1,1723.5,535151.4000000954,7209,VNB,C,13
11,test,2,0.0,2-Back,0,z,Wed Aug 20 2025 17:25:19 GMT-0500 (Central Daylight Time),538275.0,014_m_m_d_a.png,O,m,377,16,1,1395.2999999523163,536879.7000000477,7209,VNB,C,14
12,test,2,0.0,2-Back,1,m,Wed Aug 20 2025 17:25:19 GMT-0500 (Central Daylight Time),539891.3000000715,025_y_m_n_a.png,O,m,593,17,1,1608.6000000238419,538282.7000000477,7209,VNB,C,15
13,test,2,1.0,2-Back,1,m,Wed Aug 20 2025 17:25:19 GMT-0500 (Central Daylight Time),541257.6000000238,019_m_f_n_a.png,O,m,335,18,1,1357.3999999761581,539900.2000000477,7209,VNB,C,16
0,test,3,1.0,2-Back,,,Wed Aug 20 2025 17:25:19 GMT-0500 (Central Daylight Time),541257.6000000238,015_o_m_n_a.png,O,space,785,1,1,1357.3999999761581,539900.2000000477,7209,VNB,C,0
0,test,3,1.0,2-Back,,,Wed Aug 20 2025 17:25:19 GMT-0500 (Central Daylight Time),541257.6000000238,012_o_f_d_a.png,O,space,785,2,1,1357.3999999761581,539900.2000000477,7209,VNB,C,0
1,test,3,0.0,2-Back,1,m,Wed Aug 20 2025 17:25:19 GMT-0500 (Central Daylight Time),549105.2000000477,022_y_f_h_a.png,O,m,997,3,1,2007.6000000238419,547097.6000000238,7209,VNB,C,1
2,test,3,0.0,2-Back,1,z,Wed Aug 20 2025 17:25:19 GMT-0500 (Central Daylight Time),551420.5,019_m_f_d_a.png,O,z,1298,4,1,2306.5999999046326,549113.9000000954,7209,VNB,C,2
3,test,3,1.0,2-Back,1,m,Wed Aug 20 2025 17:25:19 GMT-0500 (Central Daylight Time),553254.0,025_y_m_n_a.png,O,m,800,5,1,1827.0999999046326,551426.9000000954,7209,VNB,C,3
3,test,3,0.0,2-Back,0,m,Wed Aug 20 2025 17:25:19 GMT-0500 (Central Daylight Time),555886.0,015_o_m_h_a.png,O,z,1607,6,1,2623.6999999284744,553262.3000000715,7209,VNB,C,4
4,test,3,0.0,2-Back,1,z,Wed Aug 20 2025 17:25:19 GMT-0500 (Central Daylight Time),558251.0,022_y_f_n_a.png,O,z,1333,7,1,2353.899999976158,555897.1000000238,7209,VNB,C,5
5,test,3,1.0,2-Back,1,m,Wed Aug 20 2025 17:25:19 GMT-0500 (Central Daylight Time),560601.0,014_m_m_d_a.png,O,m,1332,8,1,2346.899999976158,558254.1000000238,7209,VNB,C,6
5,test,3,0.0,2-Back,0,m,Wed Aug 20 2025 17:25:19 GMT-0500 (Central Daylight Time),563000.0,025_y_m_d_a.png,O,z,1367,9,1,2390.0,560610.0,7209,VNB,C,7
6,test,3,0.0,2-Back,1,m,Wed Aug 20 2025 17:25:19 GMT-0500 (Central Daylight Time),564516.6000000238,012_o_f_h_a.png,O,m,493,10,1,1507.1000000238419,563009.5,7209,VNB,C,8
7,test,3,1.0,2-Back,1,m,Wed Aug 20 2025 17:25:19 GMT-0500 (Central Daylight Time),566381.7000000477,019_m_f_n_a.png,O,m,848,11,1,1857.7000000476837,564524.0,7209,VNB,C,9
7,test,3,1.0,2-Back,0,z,Wed Aug 20 2025 17:25:19 GMT-0500 (Central Daylight Time),568231.2000000477,014_m_m_h_a.png,O,m,830,12,1,1840.5,566390.7000000477,7209,VNB,C,10
8,test,3,0.0,2-Back,1,m,Wed Aug 20 2025 17:25:19 GMT-0500 (Central Daylight Time),570031.3000000715,022_y_f_d_a.png,O,m,772,13,1,1790.3000000715256,568241.0,7209,VNB,C,11
8,test,3,0.0,2-Back,0,m,Wed Aug 20 2025 17:25:19 GMT-0500 (Central Daylight Time),571498.0,012_o_f_n_a.png,O,z,437,14,1,1457.0,570041.0,7209,VNB,C,12
9,test,3,0.0,2-Back,1,z,Wed Aug 20 2025 17:25:19 GMT-0500 (Central Daylight Time),573014.1000000238,015_o_m_d_a.png,O,z,491,15,1,1509.6999999284744,571504.4000000954,7209,VNB,C,13
10,test,3,1.0,2-Back,1,m,Wed Aug 20 2025 17:25:19 GMT-0500 (Central Daylight Time),574547.0,019_m_f_h_a.png,O,m,500,16,1,1524.5,573022.5,7209,VNB,C,14
10,test,3,0.0,2-Back,0,m,Wed Aug 20 2025 17:25:19 GMT-0500 (Central Daylight Time),576697.0,014_m_m_n_a.png,O,z,1134,17,1,2139.0,574558.0,7209,VNB,C,15
10,test,3,0.0,2-Back,0,z,Wed Aug 20 2025 17:25:19 GMT-0500 (Central Daylight Time),578511.3000000715,025_y_m_h_a.png,O,m,788,18,1,1806.1000000238419,576705.2000000477,7209,VNB,C,16
0,test,4,0.0,2-Back,,,Wed Aug 20 2025 17:25:19 GMT-0500 (Central Daylight Time),578511.3000000715,019_m_f_n_a.png,O,space,980,1,1,1806.1000000238419,576705.2000000477,7209,VNB,C,0
0,test,4,0.0,2-Back,,,Wed Aug 20 2025 17:25:19 GMT-0500 (Central Daylight Time),578511.3000000715,015_o_m_n_a.png,O,space,980,2,1,1806.1000000238419,576705.2000000477,7209,VNB,C,0
1,test,4,1.0,2-Back,1,m,Wed Aug 20 2025 17:25:19 GMT-0500 (Central Daylight Time),586558.8000000715,025_y_m_h_a.png,O,m,830,3,1,1841.3000000715256,584717.5,7209,VNB,C,1
2,test,4,1.0,2-Back,1,m,Wed Aug 20 2025 17:25:19 GMT-0500 (Central Daylight Time),588525.0,012_o_f_d_a.png,O,m,942,4,1,1957.5,586567.5,7209,VNB,C,2
2,test,4,0.0,2-Back,0,z,Wed Aug 20 2025 17:25:19 GMT-0500 (Central Daylight Time),590575.4000000954,015_o_m_h_a.png,O,m,1014,5,1,2042.3000000715256,588533.1000000238,7209,VNB,C,3
2,test,4,0.0,2-Back,0,m,Wed Aug 20 2025 17:25:19 GMT-0500 (Central Daylight Time),592573.4000000954,014_m_m_n_a.png,O,z,980,6,1,1990.6000000238419,590582.8000000715,7209,VNB,C,4
2,test,4,0.0,2-Back,0,m,Wed Aug 20 2025 17:25:19 GMT-0500 (Central Daylight Time),594791.0,019_m_f_d_a.png,O,z,1185,7,1,2207.5,592583.5,7209,VNB,C,5
3,test,4,0.0,2-Back,1,z,Wed Aug 20 2025 17:25:19 GMT-0500 (Central Daylight Time),597023.4000000954,022_y_f_n_a.png,O,z,1206,8,1,2223.5,594799.9000000954,7209,VNB,C,6
4,test,4,1.0,2-Back,1,m,Wed Aug 20 2025 17:25:19 GMT-0500 (Central Daylight Time),598771.9000000954,012_o_f_h_a.png,O,m,727,9,1,1740.2000000476837,597031.7000000477,7209,VNB,C,7
5,test,4,0.0,2-Back,1,m,Wed Aug 20 2025 17:25:19 GMT-0500 (Central Daylight Time),600821.3000000715,014_m_m_h_a.png,O,m,1024,10,1,2041.5,598779.8000000715,7209,VNB,C,8
5,test,4,0.0,2-Back,0,m,Wed Aug 20 2025 17:25:19 GMT-0500 (Central Daylight Time),603070.7000000477,022_y_f_d_a.png,O,z,1222,11,1,2239.7999999523163,600830.9000000954,7209,VNB,C,9
6,test,4,0.0,2-Back,1,m,Wed Aug 20 2025 17:25:19 GMT-0500 (Central Daylight Time),604904.2000000477,025_y_m_n_a.png,O,m,806,12,1,1823.3999999761581,603080.8000000715,7209,VNB,C,10
6,test,4,0.0,2-Back,0,z,Wed Aug 20 2025 17:25:19 GMT-0500 (Central Daylight Time),606685.7000000477,015_o_m_d_a.png,O,m,751,13,1,1771.2999999523163,604914.4000000954,7209,VNB,C,11
7,test,4,1.0,2-Back,1,m,Wed Aug 20 2025 17:25:19 GMT-0500 (Central Daylight Time),608785.5,019_m_f_h_a.png,O,m,1070,14,1,2096.399999976158,606689.1000000238,7209,VNB,C,12
7,test,4,1.0,2-Back,0,m,Wed Aug 20 2025 17:25:19 GMT-0500 (Central Daylight Time),610966.6000000238,022_y_f_h_a.png,O,z,1163,15,1,2171.1999999284744,608795.4000000954,7209,VNB,C,13
8,test,4,0.0,2-Back,1,m,Wed Aug 20 2025 17:25:19 GMT-0500 (Central Daylight Time),612485.0,012_o_f_n_a.png,O,m,485,16,1,1510.6999999284744,610974.3000000715,7209,VNB,C,14
9,test,4,0.0,2-Back,1,m,Wed Aug 20 2025 17:25:19 GMT-0500 (Central Daylight Time),613984.2000000477,025_y_m_d_a.png,O,m,474,17,1,1496.2999999523163,612487.9000000954,7209,VNB,C,15
10,test,4,1.0,2-Back,1,m,Wed Aug 20 2025 17:25:19 GMT-0500 (Central Daylight Time),615383.3000000715,014_m_m_d_a.png,O,m,367,18,1,1390.6000000238419,613992.7000000477,7209,VNB,C,16
0,test,5,1.0,2-Back,,,Wed Aug 20 2025 17:25:19 GMT-0500 (Central Daylight Time),615383.3000000715,022_y_f_d_a.png,O,space,909,1,1,1390.6000000238419,613992.7000000477,7209,VNB,C,0
0,test,5,1.0,2-Back,,,Wed Aug 20 2025 17:25:19 GMT-0500 (Central Daylight Time),615383.3000000715,012_o_f_h_a.png,O,space,909,2,1,1390.6000000238419,613992.7000000477,7209,VNB,C,0
1,test,5,1.0,2-Back,1,z,Wed Aug 20 2025 17:25:19 GMT-0500 (Central Daylight Time),623715.0,015_o_m_d_a.png,O,z,1167,3,1,2194.1999999284744,621520.8000000715,7209,VNB,C,1
2,test,5,1.0,2-Back,1,m,Wed Aug 20 2025 17:25:19 GMT-0500 (Central Daylight Time),625797.2000000477,019_m_f_n_a.png,O,m,1058,4,1,2073.600000023842,623723.6000000238,7209,VNB,C,2
3,test,5,0.0,2-Back,1,m,Wed Aug 20 2025 17:25:19 GMT-0500 (Central Daylight Time),627863.5,014_m_m_h_a.png,O,m,1039,5,1,2056.5,625807.0,7209,VNB,C,3
4,test,5,0.0,2-Back,1,z,Wed Aug 20 2025 17:25:19 GMT-0500 (Central Daylight Time),629762.3000000715,022_y_f_n_a.png,O,z,878,6,1,1891.6000000238419,627870.7000000477,7209,VNB,C,4
5,test,5,0.0,2-Back,1,m,Wed Aug 20 2025 17:25:19 GMT-0500 (Central Daylight Time),631462.0,012_o_f_d_a.png,O,m,674,7,1,1690.5999999046326,629771.4000000954,7209,VNB,C,5
6,test,5,0.0,2-Back,1,m,Wed Aug 20 2025 17:25:19 GMT-0500 (Central Daylight Time),633144.9000000954,015_o_m_h_a.png,O,m,652,8,1,1674.8000000715256,631470.1000000238,7209,VNB,C,6
6,test,5,1.0,2-Back,0,z,Wed Aug 20 2025 17:25:19 GMT-0500 (Central Daylight Time),634878.5,019_m_f_d_a.png,O,m,709,9,1,1728.2999999523163,633150.2000000477,7209,VNB,C,7
7,test,5,0.0,2-Back,1,m,Wed Aug 20 2025 17:25:19 GMT-0500 (Central Daylight Time),636293.9000000954,025_y_m_n_a.png,O,m,400,10,1,1406.1000000238419,634887.8000000715,7209,VNB,C,8
8,test,5,0.0,2-Back,1,m,Wed Aug 20 2025 17:25:19 GMT-0500 (Central Daylight Time),637894.4000000954,014_m_m_n_a.png,O,m,583,11,1,1591.8000000715256,636302.6000000238,7209,VNB,C,9
8,test,5,0.0,2-Back,0,m,Wed Aug 20 2025 17:25:19 GMT-0500 (Central Daylight Time),639225.8000000715,022_y_f_h_a.png,O,z,311,12,1,1324.8000000715256,637901.0,7209,VNB,C,10
8,test,5,0.0,2-Back,0,m,Wed Aug 20 2025 17:25:19 GMT-0500 (Central Daylight Time),641075.3000000715,025_y_m_d_a.png,O,z,819,13,1,1841.0,639234.3000000715,7209,VNB,C,11
8,test,5,1.0,2-Back,0,z,Wed Aug 20 2025 17:25:19 GMT-0500 (Central Daylight Time),642508.4000000954,019_m_f_h_a.png,O,m,410,14,1,1424.4000000953674,641084.0,7209,VNB,C,12
9,test,5,0.0,2-Back,1,m,Wed Aug 20 2025 17:25:19 GMT-0500 (Central Daylight Time),644141.7000000477,015_o_m_n_a.png,O,m,614,15,1,1624.3999999761581,642517.3000000715,7209,VNB,C,13
10,test,5,0.0,2-Back,1,m,Wed Aug 20 2025 17:25:19 GMT-0500 (Central Daylight Time),645790.5,014_m_m_d_a.png,O,m,623,16,1,1640.2999999523163,644150.2000000477,7209,VNB,C,14
10,test,5,0.0,2-Back,0,z,Wed Aug 20 2025 17:25:19 GMT-0500 (Central Daylight Time),647490.2000000477,012_o_f_n_a.png,O,m,678,17,1,1689.1000000238419,645801.1000000238,7209,VNB,C,15
10,test,5,1.0,2-Back,0,m,Wed Aug 20 2025 17:25:19 GMT-0500 (Central Daylight Time),648889.1000000238,025_y_m_h_a.png,O,z,380,18,1,1391.6000000238419,647497.5,7209,VNB,C,16
