acc_sum,block,block_c,condition,correct,correct_response,datetime,endtime,flanker,jitter,project,response,response_test_buffer_response,response_test_target_response,response_time,response_time_test_buffer_response,response_time_test_target_response,row_sel,session_number,start_end,starttime,subject_id,target,task,task_vers,time_test_buffer,time_test_buffer_response,time_test_constants,time_test_flanker,time_test_jitter,time_test_logger,time_test_target,time_test_target_response,time_test_variables,trial
1,prac,1,con,1,m,Tue Aug 12 2025 16:35:59 GMT-0500 (Central Daylight Time),157487.79999995232,silver,1000,I,m,,,1257,,,11,1,3557.600000143051,153930.19999980927,7215,silver,NF,A,,,,,,,,,,1
1,prac,1,con,0,m,Tue Aug 12 2025 16:35:59 GMT-0500 (Central Daylight Time),162370.09999990463,bronze,800,I,None,,,1814,,,9,1,4875.099999904633,157495.0,7215,bronze,NF,A,,,,,,,,,,2
2,prac,1,inc,1,m,Tue Aug 12 2025 16:35:59 GMT-0500 (Central Daylight Time),165552.79999995232,plum,1100,I,m,,,759,,,16,1,3163.600000143051,162389.19999980927,7215,lead,NF,A,,,,,,,,,,3
3,prac,1,inc,1,z,Tue Aug 12 2025 16:35:59 GMT-0500 (Central Daylight Time),168618.29999995232,iron,900,I,z,,,833,,,6,1,3043.5,165574.79999995232,7215,pear,NF,A,,,,,,,,,,4
4,prac,1,inc,1,m,Tue Aug 12 2025 16:35:59 GMT-0500 (Central Daylight Time),171550.89999985695,raisin,1100,I,m,,,511,,,12,1,2909.5999999046326,168641.29999995232,7215,cobalt,NF,A,,,,,,,,,,5
5,prac,1,con,1,m,Tue Aug 12 2025 16:35:59 GMT-0500 (Central Daylight Time),174183.19999980927,gold,800,I,m,,,510,,,13,1,2613.2999999523163,171569.89999985695,7215,gold,NF,A,,,,,,,,,,6
6,prac,1,inc,1,m,Tue Aug 12 2025 16:35:59 GMT-0500 (Central Daylight Time),176881.29999995232,pear,900,I,m,,,474,,,14,1,2675.9000000953674,174205.39999985695,7215,iron,NF,A,,,,,,,,,,7
7,prac,1,con,1,m,Tue Aug 12 2025 16:35:59 GMT-0500 (Central Daylight Time),179797.89999985695,zinc,1000,I,m,,,611,,,15,1,2910.399999856949,176887.5,7215,zinc,NF,A,,,,,,,,,,8
8,prac,1,con,1,z,Tue Aug 12 2025 16:35:59 GMT-0500 (Central Daylight Time),182447.19999980927,lime,800,I,z,,,527,,,5,1,2629.0999999046326,179818.09999990463,7215,lime,NF,A,,,,,,,,,,9
8,prac,1,con,0,z,Tue Aug 12 2025 16:35:59 GMT-0500 (Central Daylight Time),185229.5,orange,1000,I,m,,,462,,,3,1,2759.100000143051,182470.39999985695,7215,orange,NF,A,,,,,,,,,,10
9,prac,1,con,1,z,Tue Aug 12 2025 16:35:59 GMT-0500 (Central Daylight Time),187945.19999980927,kiwi,1000,I,z,,,392,,,7,1,2696.0,185249.19999980927,7215,kiwi,NF,A,,,,,,,,,,11
10,prac,1,inc,1,z,Tue Aug 12 2025 16:35:59 GMT-0500 (Central Daylight Time),190994.5,lead,1100,I,z,,,623,,,8,1,3026.600000143051,187967.89999985695,7215,plum,NF,A,,,,,,,,,,12
11,prac,1,inc,1,z,Tue Aug 12 2025 16:35:59 GMT-0500 (Central Daylight Time),194025.79999995232,cobalt,1100,I,z,,,599,,,4,1,3010.100000143051,191015.69999980927,7215,raisin,NF,A,,,,,,,,,,13
12,prac,1,inc,1,m,Tue Aug 12 2025 16:35:59 GMT-0500 (Central Daylight Time),196825.69999980927,cherry,900,I,m,,,583,,,10,1,2792.7999999523163,194032.89999985695,7215,copper,NF,A,,,,,,,,,,14
13,prac,1,inc,1,z,Tue Aug 12 2025 16:35:59 GMT-0500 (Central Daylight Time),199591.5,copper,900,I,z,,,544,,,2,1,2742.2000000476837,196849.29999995232,7215,cherry,NF,A,,,,,,,,,,15
14,prac,1,con,1,z,Tue Aug 12 2025 16:35:59 GMT-0500 (Central Daylight Time),202157.29999995232,banana,800,I,z,,,437,,,1,1,2543.2999999523163,199614.0,7215,banana,NF,A,,,,,,,,,,16
1,test,1,con,1,z,Tue Aug 12 2025 16:35:59 GMT-0500 (Central Daylight Time),216003.0,plum,900,I,z,z,None,433,234.0,199.0,58,1,1879.9000000953674,214123.09999990463,7215,plum,NF,A,208692,208693,207062,207976,207063,208942,208493,208493,208942,1
2,test,1,con,1,z,Tue Aug 12 2025 16:35:59 GMT-0500 (Central Daylight Time),217869.19999980927,kiwi,900,I,z,z,None,414,215.0,199.0,50,1,1841.5999999046326,216027.59999990463,7215,kiwi,NF,A,210592,210592,208967,209875,208968,210808,210392,210392,210808,2
3,test,1,inc,1,z,Tue Aug 12 2025 16:35:59 GMT-0500 (Central Daylight Time),219851.09999990463,iron,900,I,z,z,None,524,325.0,199.0,38,1,1960.2999999523163,217890.79999995232,7215,lime,NF,A,212458,212458,210830,211741,210831,212790,212258,212258,212790,3
4,test,1,con,1,z,Tue Aug 12 2025 16:35:59 GMT-0500 (Central Daylight Time),221666.69999980927,plum,800,I,z,z,None,456,257.0,199.0,57,1,1794.7999999523163,219871.89999985695,7215,plum,NF,A,214341,214341,212811,213624,212812,214606,214141,214141,214606,4
5,test,1,inc,1,z,Tue Aug 12 2025 16:35:59 GMT-0500 (Central Daylight Time),223716.89999985695,silver,1000,I,z,z,None,499,300.0,199.0,23,1,2044.8999998569489,221672.0,7215,orange,NF,A,216340,216340,214611,215623,214611,216656,216140,216140,216656,5
6,test,1,inc,1,z,Tue Aug 12 2025 16:35:59 GMT-0500 (Central Daylight Time),225599.39999985695,gold,800,I,z,z,None,522,322.0,200.0,45,1,1861.5,223737.89999985695,7215,pear,NF,A,218206,218206,216677,217490,216678,218539,218005,218005,218538,6
6,test,1,inc,0,z,Tue Aug 12 2025 16:35:59 GMT-0500 (Central Daylight Time),227764.5,cobalt,1100,I,m,m,None,513,298.0,215.0,16,1,2143.600000143051,225620.89999985695,7215,cherry,NF,A,220404,220404,218560,219671,218561,220704,220189,220189,220704,7
7,test,1,inc,1,z,Tue Aug 12 2025 16:35:59 GMT-0500 (Central Daylight Time),229598.0,gold,800,I,z,z,None,496,297.0,199.0,53,1,1827.8000001907349,227770.19999980927,7215,kiwi,NF,A,222238,222238,220709,221522,220710,222537,222038,222038,222537,8
8,test,1,con,1,m,Tue Aug 12 2025 16:35:59 GMT-0500 (Central Daylight Time),231464.39999985695,lead,800,I,m,m,None,512,312.0,200.0,121,1,1846.0999999046326,229618.29999995232,7215,lead,NF,A,224087,224087,222557,223371,222559,224404,223887,223887,224403,9
9,test,1,inc,1,z,Tue Aug 12 2025 16:35:59 GMT-0500 (Central Daylight Time),233313.89999985695,gold,800,I,z,z,None,484,285.0,199.0,37,1,1827.2999999523163,231486.59999990463,7215,lime,NF,A,225954,225954,224426,225237,224427,226253,225754,225754,226253,10
10,test,1,con,1,z,Tue Aug 12 2025 16:35:59 GMT-0500 (Central Daylight Time),235479.5,cherry,1000,I,z,z,None,603,404.0,199.0,11,1,2144.0,233335.5,7215,cherry,NF,A,228003,228003,226275,227286,226276,228419,227803,227803,228418,11
11,test,1,inc,1,m,Tue Aug 12 2025 16:35:59 GMT-0500 (Central Daylight Time),237529.0,kiwi,1000,I,m,m,None,496,295.0,201.0,111,1,2026.9000000953674,235502.09999990463,7215,iron,NF,A,230169,230169,228441,229452,228442,230468,229967,229967,230468,12
12,test,1,con,1,m,Tue Aug 12 2025 16:35:59 GMT-0500 (Central Daylight Time),239510.89999985695,copper,900,I,m,m,None,519,320.0,199.0,74,1,1958.2000000476837,237552.69999980927,7215,copper,NF,A,232118,232118,230492,231402,230492,232450,231918,231918,232450,13
13,test,1,con,1,m,Tue Aug 12 2025 16:35:59 GMT-0500 (Central Daylight Time),241527.5,iron,1000,I,m,m,None,470,271.0,199.0,107,1,2007.4000000953674,239520.09999990463,7215,iron,NF,A,234184,234184,232459,233468,232460,234467,233984,233984,234466,14
14,test,1,inc,1,m,Tue Aug 12 2025 16:35:59 GMT-0500 (Central Daylight Time),243493.79999995232,pear,900,I,m,m,None,505,306.0,199.0,126,1,1945.7000000476837,241548.09999990463,7215,lead,NF,A,236117,236117,234487,235400,234488,236433,235917,235917,236433,15
15,test,1,con,1,z,Tue Aug 12 2025 16:35:59 GMT-0500 (Central Daylight Time),245326.39999985695,banana,900,I,z,z,None,379,180.0,199.0,2,1,1812.2000000476837,243514.19999980927,7215,banana,NF,A,238083,238083,236453,237366,236454,238266,237883,237883,238265,16
16,test,1,inc,1,m,Tue Aug 12 2025 16:35:59 GMT-0500 (Central Daylight Time),247508.09999990463,plum,1100,I,m,m,None,521,322.0,199.0,104,1,2160.9000000953674,245347.19999980927,7215,gold,NF,A,240116,240116,238286,239399,238288,240447,239916,239916,240447,17
17,test,1,con,1,m,Tue Aug 12 2025 16:35:59 GMT-0500 (Central Daylight Time),249525.5,gold,900,I,m,m,None,582,382.0,200.0,98,1,2012.2000000476837,247513.29999995232,7215,gold,NF,A,242081,242082,240452,241365,240453,242465,241881,241881,242465,18
18,test,1,con,1,m,Tue Aug 12 2025 16:35:59 GMT-0500 (Central Daylight Time),251607.79999995232,gold,1100,I,m,m,None,420,221.0,199.0,100,1,2061.9000000953674,249545.89999985695,7215,gold,NF,A,244314,244314,242485,243598,242486,244547,244114,244114,244547,19
19,test,1,inc,1,z,Tue Aug 12 2025 16:35:59 GMT-0500 (Central Daylight Time),253557.29999995232,iron,900,I,z,z,None,489,290.0,199.0,54,1,1928.4000000953674,251628.89999985695,7215,kiwi,NF,A,246197,246197,244568,245481,244569,246497,245997,245997,246496,20
20,test,1,inc,1,m,Tue Aug 12 2025 16:35:59 GMT-0500 (Central Daylight Time),255572.89999985695,orange,1000,I,m,m,None,456,257.0,199.0,87,1,1994.2000000476837,253578.69999980927,7215,silver,NF,A,248246,248246,246518,247529,246519,248512,248046,248046,248512,21
21,test,1,inc,1,z,Tue Aug 12 2025 16:35:59 GMT-0500 (Central Daylight Time),257372.5,bronze,800,I,z,z,None,440,241.0,199.0,29,1,1775.2000000476837,255597.29999995232,7215,raisin,NF,A,250062,250062,248536,249346,248537,250312,249862,249862,250311,22
22,test,1,con,1,m,Tue Aug 12 2025 16:35:59 GMT-0500 (Central Daylight Time),259421.29999995232,bronze,800,I,m,m,None,696,497.0,199.0,65,1,2027.4000000953674,257393.89999985695,7215,bronze,NF,A,251862,251862,250333,251145,250334,252360,251662,251662,252360,23
23,test,1,inc,1,z,Tue Aug 12 2025 16:35:59 GMT-0500 (Central Daylight Time),261537.59999990463,lead,1100,I,z,z,None,460,261.0,199.0,48,1,2097.9000000953674,259439.69999980927,7215,pear,NF,A,254211,254211,252379,253494,252379,254477,254011,254011,254477,24
24,test,1,inc,1,z,Tue Aug 12 2025 16:35:59 GMT-0500 (Central Daylight Time),263453.69999980927,iron,900,I,z,z,None,455,256.0,199.0,46,1,1894.7999999523163,261558.89999985695,7215,pear,NF,A,256127,256127,254498,255410,254499,256393,255927,255927,256393,25
25,test,1,con,1,m,Tue Aug 12 2025 16:35:59 GMT-0500 (Central Daylight Time),265769.59999990463,zinc,1000,I,m,m,None,751,552.0,199.0,115,1,2295.9000000953674,263473.69999980927,7215,zinc,NF,A,258143,258143,256413,257426,256414,258709,257943,257943,258709,26
26,test,1,con,1,m,Tue Aug 12 2025 16:35:59 GMT-0500 (Central Daylight Time),267668.2999999523,cobalt,800,I,m,m,None,538,339.0,199.0,89,1,1879.5,265788.7999999523,7215,cobalt,NF,A,260259,260259,258728,259542,258729,260607,260059,260059,260607,27
26,test,1,con,0,z,Tue Aug 12 2025 16:35:59 GMT-0500 (Central Daylight Time),269535.09999990463,kiwi,800,I,m,m,None,520,321.0,199.0,49,1,1859.4000000953674,267675.69999980927,7215,kiwi,NF,A,262142,262142,260615,261425,260615,262474,261942,261942,262474,28
27,test,1,inc,1,m,Tue Aug 12 2025 16:35:59 GMT-0500 (Central Daylight Time),271417.89999985695,banana,800,I,m,m,None,519,319.0,200.0,77,1,1863.5,269554.39999985695,7215,copper,NF,A,264024,264024,262493,263308,262494,264357,263824,263824,264357,29
28,test,1,con,1,z,Tue Aug 12 2025 16:35:59 GMT-0500 (Central Daylight Time),273300.69999980927,banana,800,I,z,z,None,542,342.0,200.0,1,1,1863.0999999046326,271437.59999990463,7215,banana,NF,A,265890,265890,264377,265189,264377,266240,265690,265690,266240,30
29,test,1,inc,1,m,Tue Aug 12 2025 16:35:59 GMT-0500 (Central Daylight Time),275499.89999985695,plum,1100,I,m,m,None,540,341.0,199.0,120,1,2179.5999999046326,273320.2999999523,7215,zinc,NF,A,268090,268090,266259,267373,266261,268439,267889,267890,268439,31
30,test,1,con,1,m,Tue Aug 12 2025 16:35:59 GMT-0500 (Central Daylight Time),277798.89999985695,gold,1000,I,m,m,None,745,546.0,199.0,99,1,2280.5999999046326,275518.2999999523,7215,gold,NF,A,270189,270189,268457,269472,268458,270738,269989,269989,270738,32
31,test,1,con,1,m,Tue Aug 12 2025 16:35:59 GMT-0500 (Central Daylight Time),279581.89999985695,gold,800,I,m,m,None,423,223.0,200.0,97,1,1760.5999999046326,277821.2999999523,7215,gold,NF,A,272288,272288,270760,271572,270762,272521,272088,272088,272521,33
32,test,1,inc,1,z,Tue Aug 12 2025 16:35:59 GMT-0500 (Central Daylight Time),281697.69999980927,lead,1100,I,z,z,None,459,260.0,199.0,56,1,2095.0999999046326,279602.59999990463,7215,kiwi,NF,A,274371,274371,272542,273654,272543,274637,274171,274171,274637,34
33,test,1,con,1,z,Tue Aug 12 2025 16:35:59 GMT-0500 (Central Daylight Time),283746.89999985695,lime,1000,I,z,z,None,492,293.0,199.0,35,1,2028.8999998569489,281718.0,7215,lime,NF,A,276387,276387,274657,275671,274658,276686,276187,276187,276686,35
34,test,1,inc,1,z,Tue Aug 12 2025 16:35:59 GMT-0500 (Central Daylight Time),285846.0,zinc,1000,I,z,z,None,537,322.0,215.0,47,1,2079.300000190735,283766.69999980927,7215,pear,NF,A,278453,278453,276706,277720,276707,278785,278237,278237,278785,36
35,test,1,inc,1,m,Tue Aug 12 2025 16:35:59 GMT-0500 (Central Daylight Time),287629.09999990463,banana,800,I,m,m,None,439,240.0,199.0,93,1,1771.2999999523163,285857.7999999523,7215,cobalt,NF,A,280319,280319,278797,279602,278797,280568,280119,280119,280568,37
36,test,1,con,1,z,Tue Aug 12 2025 16:35:59 GMT-0500 (Central Daylight Time),289778.39999985695,raisin,1000,I,z,z,None,584,385.0,199.0,27,1,2129.2000000476837,287649.19999980927,7215,raisin,NF,A,282318,282318,280588,281602,280589,282717,282118,282118,282717,38
37,test,1,inc,1,m,Tue Aug 12 2025 16:35:59 GMT-0500 (Central Daylight Time),291844.5,orange,1000,I,m,m,None,507,307.0,200.0,95,1,2047.1000001430511,289797.39999985695,7215,cobalt,NF,A,284468,284468,282736,283751,282737,284784,284267,284267,284784,39
38,test,1,inc,1,z,Tue Aug 12 2025 16:35:59 GMT-0500 (Central Daylight Time),293860.5,copper,900,I,z,z,None,549,350.0,199.0,30,1,1995.8000001907349,291864.69999980927,7215,raisin,NF,A,286434,286434,284804,285717,284805,286800,286234,286234,286800,40
39,test,1,inc,1,m,Tue Aug 12 2025 16:35:59 GMT-0500 (Central Daylight Time),295943.0,orange,1000,I,m,m,None,520,321.0,199.0,71,1,2062.300000190735,293880.69999980927,7215,bronze,NF,A,288550,288550,286820,287833,286821,288882,288350,288350,288882,41
40,test,1,con,1,z,Tue Aug 12 2025 16:35:59 GMT-0500 (Central Daylight Time),297859.2999999523,lime,800,I,z,z,None,550,351.0,199.0,33,1,1897.5,295961.7999999523,7215,lime,NF,A,290432,290432,288901,289715,288902,290798,290232,290232,290798,42
41,test,1,con,1,z,Tue Aug 12 2025 16:35:59 GMT-0500 (Central Daylight Time),300109.0,pear,1100,I,z,z,None,598,399.0,199.0,44,1,2231.0,297878.0,7215,pear,NF,A,292648,292648,290817,291932,290818,293048,292448,292448,293048,43
42,test,1,inc,1,z,Tue Aug 12 2025 16:35:59 GMT-0500 (Central Daylight Time),302357.69999980927,zinc,1000,I,z,z,None,690,490.0,200.0,55,1,2229.699999809265,300128.0,7215,kiwi,NF,A,294797,294797,293067,294081,293068,295297,294597,294597,295297,44
42,test,1,con,0,m,Tue Aug 12 2025 16:35:59 GMT-0500 (Central Daylight Time),304240.0,zinc,900,I,z,z,None,427,228.0,199.0,114,1,1863.3000001907349,302376.69999980927,7215,zinc,NF,A,296947,296947,295316,296230,295317,297179,296747,296747,297179,45
43,test,1,inc,1,m,Tue Aug 12 2025 16:35:59 GMT-0500 (Central Daylight Time),306456.5,plum,1100,I,m,m,None,569,370.0,199.0,128,1,2205.0,304251.5,7215,lead,NF,A,299013,299013,297191,298296,297191,299396,298813,298813,299395,46
44,test,1,con,1,z,Tue Aug 12 2025 16:35:59 GMT-0500 (Central Daylight Time),308672.2999999523,pear,900,I,z,z,None,763,563.0,200.0,42,1,2195.2999999523163,306477.0,7215,pear,NF,A,301045,301045,299416,300329,299417,301611,300845,300845,301611,47
45,test,1,inc,1,m,Tue Aug 12 2025 16:35:59 GMT-0500 (Central Daylight Time),310638.09999990463,pear,900,I,m,m,None,514,314.0,200.0,102,1,1946.0999999046326,308692.0,7215,gold,NF,A,303261,303261,301631,302545,301632,303577,303061,303061,303577,48
46,test,1,con,1,m,Tue Aug 12 2025 16:35:59 GMT-0500 (Central Daylight Time),312870.89999985695,silver,1100,I,m,m,None,580,380.0,200.0,84,1,2213.7999999523163,310657.09999990463,7215,silver,NF,A,305427,305427,303596,304711,303597,305810,305227,305227,305810,49
47,test,1,inc,1,m,Tue Aug 12 2025 16:35:59 GMT-0500 (Central Daylight Time),314803.69999980927,lime,800,I,m,m,None,566,367.0,199.0,125,1,1913.0999999046326,312890.59999990463,7215,lead,NF,A,307360,307360,305830,306643,305831,307743,307160,307160,307743,50
48,test,1,inc,1,m,Tue Aug 12 2025 16:35:59 GMT-0500 (Central Daylight Time),316953.0,orange,1000,I,m,m,None,586,386.0,200.0,79,1,2129.2000000476837,314823.7999999523,7215,copper,NF,A,309492,309493,307763,308776,307764,309892,309292,309292,309892,51
49,test,1,inc,1,z,Tue Aug 12 2025 16:35:59 GMT-0500 (Central Daylight Time),318785.59999990463,iron,900,I,z,z,None,376,177.0,199.0,62,1,1813.5,316972.09999990463,7215,plum,NF,A,311542,311542,309911,310826,309912,311725,311342,311342,311725,52
50,test,1,con,1,z,Tue Aug 12 2025 16:35:59 GMT-0500 (Central Daylight Time),320635.19999980927,pear,800,I,z,z,None,491,292.0,199.0,41,1,1831.0999999046326,318804.09999990463,7215,pear,NF,A,313275,313275,311743,312558,311744,313574,313075,313075,313574,53
51,test,1,con,1,m,Tue Aug 12 2025 16:35:59 GMT-0500 (Central Daylight Time),322634.39999985695,iron,800,I,m,m,None,643,443.0,200.0,105,1,1979.2000000476837,320655.19999980927,7215,iron,NF,A,315124,315124,313594,314407,313596,315574,314924,314924,315573,54
52,test,1,con,1,z,Tue Aug 12 2025 16:35:59 GMT-0500 (Central Daylight Time),325050.09999990463,raisin,1100,I,z,z,None,759,560.0,199.0,28,1,2396.7999999523163,322653.2999999523,7215,raisin,NF,A,317423,317424,315592,316707,315593,317989,317223,317224,317989,55
52,test,1,inc,0,z,Tue Aug 12 2025 16:35:59 GMT-0500 (Central Daylight Time),326849.39999985695,bronze,800,I,m,m,None,443,243.0,200.0,21,1,1779.5,325069.89999985695,7215,orange,NF,A,319539,319540,318009,318823,318010,319788,319339,319339,319788,56
53,test,1,con,1,z,Tue Aug 12 2025 16:35:59 GMT-0500 (Central Daylight Time),328782.2999999523,cherry,900,I,z,z,None,471,272.0,199.0,10,1,1912.5,326869.7999999523,7215,cherry,NF,A,321439,321439,319809,320722,319810,321722,321239,321239,321721,57
53,test,1,con,0,m,Tue Aug 12 2025 16:35:59 GMT-0500 (Central Daylight Time),331081.69999980927,zinc,1100,I,z,z,None,643,443.0,200.0,116,1,2279.899999856949,328801.7999999523,7215,zinc,NF,A,323571,323572,321741,322855,321742,324021,323371,323371,324021,58
54,test,1,inc,1,m,Tue Aug 12 2025 16:35:59 GMT-0500 (Central Daylight Time),333430.59999990463,raisin,1100,I,m,m,None,695,496.0,199.0,88,1,2329.2999999523163,331101.2999999523,7215,silver,NF,A,325871,325871,324040,325154,324041,326370,325671,325671,326370,59
55,test,1,con,1,z,Tue Aug 12 2025 16:35:59 GMT-0500 (Central Daylight Time),335447.0,pear,1000,I,z,z,None,455,256.0,199.0,43,1,1996.7000000476837,333450.2999999523,7215,pear,NF,A,328120,328120,326389,327403,326390,328386,327920,327920,328386,60
56,test,1,con,1,m,Tue Aug 12 2025 16:35:59 GMT-0500 (Central Daylight Time),337596.19999980927,lead,900,I,m,m,None,691,491.0,200.0,122,1,2127.7999999523163,335468.39999985695,7215,lead,NF,A,330036,330036,328407,329319,328408,330535,329835,329835,330535,61
57,test,1,inc,1,m,Tue Aug 12 2025 16:35:59 GMT-0500 (Central Daylight Time),339695.5,pear,900,I,m,m,None,638,438.0,200.0,118,1,2079.7000000476837,337615.7999999523,7215,zinc,NF,A,332185,332185,330555,331468,330556,332635,331985,331985,332634,62
58,test,1,inc,1,m,Tue Aug 12 2025 16:35:59 GMT-0500 (Central Daylight Time),341978.09999990463,raisin,1100,I,m,m,None,626,426.0,200.0,72,1,2263.0,339715.09999990463,7215,bronze,NF,A,334485,334485,332654,333768,332655,334917,334284,334284,334917,63
59,test,1,inc,1,m,Tue Aug 12 2025 16:35:59 GMT-0500 (Central Daylight Time),343927.39999985695,banana,800,I,m,m,None,588,388.0,200.0,85,1,1929.7999999523163,341997.59999990463,7215,silver,NF,A,336467,336467,334937,335751,334937,336867,336267,336267,336866,64
60,test,1,con,1,m,Tue Aug 12 2025 16:35:59 GMT-0500 (Central Daylight Time),346043.39999985695,cobalt,1000,I,m,m,None,550,350.0,200.0,91,1,2097.0,343946.39999985695,7215,cobalt,NF,A,338616,338617,336885,337900,336886,338983,338416,338416,338982,65
61,test,1,con,1,m,Tue Aug 12 2025 16:35:59 GMT-0500 (Central Daylight Time),348142.59999990463,cobalt,1100,I,m,m,None,436,237.0,199.0,92,1,2079.9000000953674,346062.69999980927,7215,cobalt,NF,A,340832,340833,339002,340116,339003,341082,340633,340633,341082,66
62,test,1,con,1,z,Tue Aug 12 2025 16:35:59 GMT-0500 (Central Daylight Time),350008.69999980927,raisin,800,I,z,z,None,527,328.0,199.0,25,1,1858.0,348150.69999980927,7215,raisin,NF,A,342615,342615,341090,341899,341090,342948,342415,342415,342948,67
63,test,1,con,1,m,Tue Aug 12 2025 16:35:59 GMT-0500 (Central Daylight Time),351941.59999990463,copper,800,I,m,m,None,572,373.0,199.0,73,1,1913.0,350028.59999990463,7215,copper,NF,A,344498,344498,342968,343781,342969,344881,344298,344298,344881,68
64,test,1,inc,1,m,Tue Aug 12 2025 16:35:59 GMT-0500 (Central Daylight Time),354007.5,kiwi,1000,I,m,m,None,504,305.0,199.0,103,1,2048.5,351959.0,7215,gold,NF,A,346630,346630,344898,345914,344899,346947,346431,346431,346947,69
65,test,1,inc,1,z,Tue Aug 12 2025 16:35:59 GMT-0500 (Central Daylight Time),356173.5,cobalt,1100,I,z,z,None,515,316.0,199.0,8,1,2146.100000143051,354027.39999985695,7215,banana,NF,A,348796,348796,346966,348080,346967,349113,348597,348597,349112,70
66,test,1,inc,1,m,Tue Aug 12 2025 16:35:59 GMT-0500 (Central Daylight Time),358105.69999980927,lime,800,I,m,m,None,575,376.0,199.0,101,1,1912.0,356193.69999980927,7215,gold,NF,A,350663,350663,349133,349945,349134,351045,350463,350463,351045,71
67,test,1,inc,1,m,Tue Aug 12 2025 16:35:59 GMT-0500 (Central Daylight Time),360455.19999980927,plum,1100,I,m,m,None,687,488.0,199.0,112,1,2330.899999856949,358124.2999999523,7215,iron,NF,A,352895,352895,351063,352179,351064,353394,352695,352695,353394,72
68,test,1,inc,1,m,Tue Aug 12 2025 16:35:59 GMT-0500 (Central Daylight Time),362421.39999985695,cherry,900,I,m,m,None,516,316.0,200.0,70,1,1946.2999999523163,360475.09999990463,7215,bronze,NF,A,355044,355044,353414,354328,353415,355360,354844,354844,355360,73
69,test,1,inc,1,z,Tue Aug 12 2025 16:35:59 GMT-0500 (Central Daylight Time),364520.7999999523,cobalt,1100,I,z,z,None,435,236.0,199.0,24,1,2080.5,362440.2999999523,7215,orange,NF,A,357211,357211,355379,356494,355380,357460,357011,357011,357460,74
70,test,1,con,1,m,Tue Aug 12 2025 16:35:59 GMT-0500 (Central Daylight Time),366753.2999999523,bronze,1100,I,m,m,None,569,370.0,199.0,68,1,2213.0,364540.2999999523,7215,bronze,NF,A,359310,359310,357479,358593,357481,359692,359110,359110,359692,75
70,test,1,con,0,z,Tue Aug 12 2025 16:35:59 GMT-0500 (Central Daylight Time),368869.39999985695,orange,1100,I,m,m,None,465,266.0,199.0,20,1,2097.2000000476837,366772.19999980927,7215,orange,NF,A,361542,361542,359711,360826,359712,361808,361342,361342,361808,76
71,test,1,con,1,z,Tue Aug 12 2025 16:35:59 GMT-0500 (Central Daylight Time),370918.5,lime,900,I,z,z,None,588,388.0,200.0,34,1,2030.6000001430511,368887.89999985695,7215,lime,NF,A,363459,363459,361827,362742,361828,363858,363258,363258,363857,77
72,test,1,con,1,z,Tue Aug 12 2025 16:35:59 GMT-0500 (Central Daylight Time),372951.2999999523,banana,1000,I,z,z,None,471,272.0,199.0,3,1,2013.6000001430511,370937.69999980927,7215,banana,NF,A,365608,365608,363877,364890,363878,365890,365408,365408,365890,78
73,test,1,con,1,m,Tue Aug 12 2025 16:35:59 GMT-0500 (Central Daylight Time),375183.89999985695,copper,1100,I,m,m,None,571,372.0,199.0,76,1,2213.7000000476837,372970.19999980927,7215,copper,NF,A,367740,367740,365909,367024,365910,368123,367540,367540,368123,79
74,test,1,inc,1,m,Tue Aug 12 2025 16:35:59 GMT-0500 (Central Daylight Time),377450.0,banana,800,I,m,m,None,902,703.0,199.0,69,1,2247.300000190735,375202.69999980927,7215,bronze,NF,A,369673,369673,368142,368956,368143,370389,369473,369473,370389,80
75,test,1,con,1,m,Tue Aug 12 2025 16:35:59 GMT-0500 (Central Daylight Time),379482.39999985695,bronze,1000,I,m,m,None,467,268.0,199.0,67,1,2012.7999999523163,377469.59999990463,7215,bronze,NF,A,372139,372139,370409,371422,370410,372422,371939,371939,372421,81
76,test,1,inc,1,m,Tue Aug 12 2025 16:35:59 GMT-0500 (Central Daylight Time),381381.7999999523,lime,800,I,m,m,None,539,340.0,199.0,117,1,1879.2999999523163,379502.5,7215,zinc,NF,A,373971,373971,372442,373255,372443,374321,373772,373772,374321,82
77,test,1,inc,1,m,Tue Aug 12 2025 16:35:59 GMT-0500 (Central Daylight Time),383565.2999999523,raisin,1100,I,m,m,None,531,332.0,199.0,80,1,2163.7000000476837,381401.59999990463,7215,copper,NF,A,376171,376171,374341,375454,374342,376504,375971,375971,376504,83
78,test,1,con,1,z,Tue Aug 12 2025 16:35:59 GMT-0500 (Central Daylight Time),385730.39999985695,kiwi,1000,I,z,z,None,610,410.0,200.0,51,1,2144.7000000476837,383585.69999980927,7215,kiwi,NF,A,378253,378253,376525,377537,376526,378670,378053,378053,378669,84
79,test,1,inc,1,z,Tue Aug 12 2025 16:35:59 GMT-0500 (Central Daylight Time),387746.19999980927,silver,1000,I,z,z,None,460,261.0,199.0,7,1,1996.1999998092651,385750.0,7215,banana,NF,A,380419,380419,378689,379703,378690,380685,380219,380220,380685,85
80,test,1,inc,1,z,Tue Aug 12 2025 16:35:59 GMT-0500 (Central Daylight Time),389613.09999990463,copper,900,I,z,z,None,415,215.0,200.0,6,1,1846.7000000476837,387766.39999985695,7215,banana,NF,A,382335,382336,380705,381619,380706,382552,382135,382135,382552,86
81,test,1,con,1,z,Tue Aug 12 2025 16:35:59 GMT-0500 (Central Daylight Time),391811.69999980927,plum,1100,I,z,z,None,541,341.0,200.0,60,1,2178.7999999523163,389632.89999985695,7215,plum,NF,A,384402,384402,382572,383685,382573,384751,384201,384201,384751,87
82,test,1,con,1,z,Tue Aug 12 2025 16:35:59 GMT-0500 (Central Daylight Time),393811.19999980927,plum,1000,I,z,z,None,442,242.0,200.0,59,1,1982.2999999523163,391828.89999985695,7215,plum,NF,A,386501,386501,384768,385784,384769,386750,386300,386300,386750,88
83,test,1,inc,1,m,Tue Aug 12 2025 16:35:59 GMT-0500 (Central Daylight Time),395993.59999990463,raisin,1100,I,m,m,None,518,319.0,199.0,96,1,2163.9000000953674,393829.69999980927,7215,cobalt,NF,A,388600,388600,386769,387884,386770,388933,388400,388400,388933,89
84,test,1,con,1,m,Tue Aug 12 2025 16:35:59 GMT-0500 (Central Daylight Time),398159.69999980927,iron,900,I,m,m,None,712,513.0,199.0,106,1,2146.899999856949,396012.7999999523,7215,iron,NF,A,390583,390583,388952,389866,388953,391099,390383,390383,391099,90
85,test,1,con,1,m,Tue Aug 12 2025 16:35:59 GMT-0500 (Central Daylight Time),400408.69999980927,lead,1100,I,m,m,None,586,386.0,200.0,124,1,2229.699999809265,398179.0,7215,lead,NF,A,392949,392949,391118,392232,391119,393348,392748,392748,393348,91
85,test,1,inc,0,z,Tue Aug 12 2025 16:35:59 GMT-0500 (Central Daylight Time),402241.5,bronze,800,I,m,m,None,469,270.0,199.0,5,1,1814.1000001430511,400427.39999985695,7215,banana,NF,A,394898,394898,393366,394181,393367,395181,394698,394698,395180,92
86,test,1,con,1,z,Tue Aug 12 2025 16:35:59 GMT-0500 (Central Daylight Time),404174.2999999523,raisin,900,I,z,z,None,471,272.0,199.0,26,1,1914.2000000476837,402260.09999990463,7215,raisin,NF,A,396831,396831,395199,396114,395200,397113,396631,396631,397113,93
87,test,1,con,1,m,Tue Aug 12 2025 16:35:59 GMT-0500 (Central Daylight Time),406323.69999980927,copper,1000,I,m,m,None,583,383.0,200.0,75,1,2130.399999856949,404193.2999999523,7215,copper,NF,A,398863,398864,397132,398147,397133,399263,398663,398663,399263,94
88,test,1,con,1,m,Tue Aug 12 2025 16:35:59 GMT-0500 (Central Daylight Time),408356.09999990463,zinc,800,I,m,m,None,674,475.0,199.0,113,1,2012.2000000476837,406343.89999985695,7215,zinc,NF,A,400813,400813,399283,400096,399284,401295,400613,400613,401295,95
89,test,1,con,1,m,Tue Aug 12 2025 16:35:59 GMT-0500 (Central Daylight Time),410255.69999980927,cobalt,900,I,m,m,None,461,262.0,199.0,90,1,1887.3999998569489,408368.2999999523,7215,cobalt,NF,A,402929,402929,401307,402212,401308,403195,402729,402729,403195,96
90,test,1,inc,1,m,Tue Aug 12 2025 16:35:59 GMT-0500 (Central Daylight Time),412321.69999980927,kiwi,1000,I,m,m,None,501,302.0,199.0,119,1,2046.0999999046326,410275.59999990463,7215,zinc,NF,A,404945,404945,403215,404228,403216,405261,404745,404745,405261,97
91,test,1,inc,1,m,Tue Aug 12 2025 16:35:59 GMT-0500 (Central Daylight Time),414337.69999980927,cherry,900,I,m,m,None,560,361.0,199.0,78,1,1996.3999998569489,412341.2999999523,7215,copper,NF,A,406911,406911,405280,406194,405281,407277,406711,406711,407277,98
92,test,1,con,1,z,Tue Aug 12 2025 16:35:59 GMT-0500 (Central Daylight Time),416536.7999999523,cherry,1100,I,z,z,None,536,337.0,199.0,12,1,2180.100000143051,414356.69999980927,7215,cherry,NF,A,409127,409127,407296,408410,407297,409476,408927,408927,409476,99
93,test,1,con,1,m,Tue Aug 12 2025 16:35:59 GMT-0500 (Central Daylight Time),418603.0,bronze,900,I,m,m,None,601,402.0,199.0,66,1,2047.0,416556.0,7215,bronze,NF,A,411126,411126,409495,410409,409496,411542,410926,410926,411542,100
94,test,1,con,1,z,Tue Aug 12 2025 16:35:59 GMT-0500 (Central Daylight Time),420885.69999980927,orange,900,I,z,z,None,822,623.0,199.0,18,1,2262.5,418623.19999980927,7215,orange,NF,A,413192,413192,411562,412476,411563,413825,412992,412992,413825,101
95,test,1,inc,1,m,Tue Aug 12 2025 16:35:59 GMT-0500 (Central Daylight Time),422851.59999990463,cherry,900,I,m,m,None,499,300.0,199.0,86,1,1947.0999999046326,420904.5,7215,silver,NF,A,415475,415475,413844,414758,413845,415791,415275,415275,415791,102
96,test,1,inc,1,m,Tue Aug 12 2025 16:35:59 GMT-0500 (Central Daylight Time),424850.89999985695,cherry,900,I,m,m,None,542,343.0,199.0,94,1,1980.7000000476837,422870.19999980927,7215,cobalt,NF,A,417440,417440,415809,416724,415810,417790,417241,417241,417790,103
97,test,1,con,1,m,Tue Aug 12 2025 16:35:59 GMT-0500 (Central Daylight Time),427233.5,silver,1000,I,m,m,None,818,619.0,199.0,83,1,2363.9000000953674,424869.59999990463,7215,silver,NF,A,419540,419540,417809,418823,417810,420173,419340,419340,420173,104
98,test,1,inc,1,z,Tue Aug 12 2025 16:35:59 GMT-0500 (Central Daylight Time),429482.7999999523,cobalt,1100,I,z,z,None,586,386.0,200.0,32,1,2230.0,427252.7999999523,7215,raisin,NF,A,422022,422022,420192,421306,420193,422422,421822,421822,422422,105
99,test,1,inc,1,z,Tue Aug 12 2025 16:35:59 GMT-0500 (Central Daylight Time),431648.69999980927,copper,900,I,z,z,None,710,511.0,199.0,22,1,2145.899999856949,429502.7999999523,7215,orange,NF,A,424072,424072,422442,423355,422443,424588,423872,423872,424588,106
100,test,1,con,1,m,Tue Aug 12 2025 16:35:59 GMT-0500 (Central Daylight Time),433781.2999999523,silver,900,I,m,m,None,681,482.0,199.0,82,1,2113.0,431668.2999999523,7215,silver,NF,A,426238,426238,424607,425521,424608,426720,426038,426038,426720,107
101,test,1,inc,1,z,Tue Aug 12 2025 16:35:59 GMT-0500 (Central Daylight Time),435730.5,gold,800,I,z,z,None,585,385.0,200.0,61,1,1931.6000001430511,433798.89999985695,7215,plum,NF,A,428270,428270,426738,427554,426738,428670,428070,428070,428669,108
102,test,1,inc,1,m,Tue Aug 12 2025 16:35:59 GMT-0500 (Central Daylight Time),438079.59999990463,kiwi,1000,I,m,m,None,795,596.0,199.0,127,1,2331.4000000953674,435748.19999980927,7215,lead,NF,A,430420,430420,428687,429703,428688,431019,430220,430220,431019,109
103,test,1,con,1,z,Tue Aug 12 2025 16:35:59 GMT-0500 (Central Daylight Time),440146.0,orange,800,I,z,z,None,702,503.0,199.0,17,1,2045.4000000953674,438100.59999990463,7215,orange,NF,A,432569,432569,431040,431852,431041,433085,432369,432369,433085,110
104,test,1,inc,1,z,Tue Aug 12 2025 16:35:59 GMT-0500 (Central Daylight Time),442428.59999990463,lead,1100,I,z,z,None,616,417.0,199.0,40,1,2262.5999999046326,440166.0,7215,lime,NF,A,434935,434935,433105,434218,433106,435368,434735,434735,435368,111
104,test,1,con,0,z,Tue Aug 12 2025 16:35:59 GMT-0500 (Central Daylight Time),444660.89999985695,orange,1000,I,m,m,None,675,474.0,201.0,19,1,2213.7000000476837,442447.19999980927,7215,orange,NF,A,437118,437118,435386,436401,435387,437600,436916,436916,437600,112
105,test,1,inc,1,z,Tue Aug 12 2025 16:35:59 GMT-0500 (Central Daylight Time),446676.89999985695,copper,900,I,z,z,None,556,357.0,199.0,14,1,1997.5999999046326,444679.2999999523,7215,cherry,NF,A,439250,439250,437618,438534,437619,439616,439050,439050,439616,113
106,test,1,con,1,z,Tue Aug 12 2025 16:35:59 GMT-0500 (Central Daylight Time),448893.09999990463,kiwi,1100,I,z,z,None,558,359.0,199.0,52,1,2197.0999999046326,446696.0,7215,kiwi,NF,A,441465,441465,439635,440749,439636,441832,441266,441266,441832,114
107,test,1,inc,1,z,Tue Aug 12 2025 16:35:59 GMT-0500 (Central Daylight Time),451242.09999990463,zinc,1000,I,z,z,None,785,586.0,199.0,39,1,2330.4000000953674,448911.69999980927,7215,lime,NF,A,443582,443582,441851,442865,441852,444181,443382,443382,444181,115
108,test,1,inc,1,z,Tue Aug 12 2025 16:35:59 GMT-0500 (Central Daylight Time),453441.5,lead,1100,I,z,z,None,537,337.0,200.0,64,1,2179.7000000476837,451261.7999999523,7215,plum,NF,A,446031,446031,444201,445315,444202,446381,445831,445831,446380,116
109,test,1,inc,1,z,Tue Aug 12 2025 16:35:59 GMT-0500 (Central Daylight Time),455440.89999985695,zinc,1000,I,z,z,None,435,236.0,199.0,63,1,1979.5999999046326,453461.2999999523,7215,plum,NF,A,448130,448131,446400,447414,446401,448380,447930,447931,448380,117
110,test,1,con,1,m,Tue Aug 12 2025 16:35:59 GMT-0500 (Central Daylight Time),457490.2999999523,lead,1000,I,m,m,None,493,294.0,199.0,123,1,2030.4000000953674,455459.89999985695,7215,lead,NF,A,450130,450130,448399,449413,448400,450429,449930,449930,450429,118
111,test,1,con,1,z,Tue Aug 12 2025 16:35:59 GMT-0500 (Central Daylight Time),459706.2999999523,banana,1100,I,z,z,None,553,354.0,199.0,4,1,2197.0,457509.2999999523,7215,banana,NF,A,452278,452278,450448,451563,450449,452645,452079,452079,452645,119
111,test,1,con,0,m,Tue Aug 12 2025 16:35:59 GMT-0500 (Central Daylight Time),461905.5,iron,1100,I,z,z,None,536,337.0,199.0,108,1,2179.100000143051,459726.39999985695,7215,iron,NF,A,454495,454495,452665,453778,452666,454845,454295,454295,454845,120
112,test,1,con,1,z,Tue Aug 12 2025 16:35:59 GMT-0500 (Central Daylight Time),464088.19999980927,lime,1100,I,z,z,None,522,322.0,200.0,36,1,2163.199999809265,461925.0,7215,lime,NF,A,456694,456694,454864,455978,454865,457027,456494,456494,457027,121
113,test,1,inc,1,m,Tue Aug 12 2025 16:35:59 GMT-0500 (Central Daylight Time),466154.19999980927,pear,900,I,m,m,None,609,410.0,199.0,110,1,2047.5999999046326,464106.59999990463,7215,iron,NF,A,458677,458677,457046,457960,457047,459093,458477,458477,459093,122
113,test,1,con,0,z,Tue Aug 12 2025 16:35:59 GMT-0500 (Central Daylight Time),467936.7999999523,cherry,800,I,m,m,None,428,229.0,199.0,9,1,1764.2000000476837,466172.59999990463,7215,cherry,NF,A,460643,460643,459112,459927,459113,460876,460443,460443,460876,123
114,test,1,inc,1,z,Tue Aug 12 2025 16:35:59 GMT-0500 (Central Daylight Time),470252.7999999523,silver,1000,I,z,z,None,757,558.0,199.0,15,1,2298.5,467954.2999999523,7215,cherry,NF,A,462626,462626,460893,461908,460894,463192,462426,462426,463192,124
114,test,1,inc,0,z,Tue Aug 12 2025 16:35:59 GMT-0500 (Central Daylight Time),472069.39999985695,bronze,800,I,m,m,None,465,266.0,199.0,13,1,1797.5,470271.89999985695,7215,cherry,NF,A,464742,464742,463211,464025,463212,465008,464542,464542,465008,125
115,test,1,inc,1,z,Tue Aug 12 2025 16:35:59 GMT-0500 (Central Daylight Time),474267.89999985695,silver,1000,I,z,z,None,641,442.0,199.0,31,1,2179.5,472088.39999985695,7215,raisin,NF,A,466758,466758,465027,466041,465029,467207,466558,466558,467207,126
116,test,1,con,1,m,Tue Aug 12 2025 16:35:59 GMT-0500 (Central Daylight Time),476167.5,silver,800,I,m,m,None,538,339.0,199.0,81,1,1881.1000001430511,474286.39999985695,7215,silver,NF,A,468757,468757,467225,468041,467226,469107,468557,468557,469106,127
117,test,1,inc,1,m,Tue Aug 12 2025 16:35:59 GMT-0500 (Central Daylight Time),478016.89999985695,lime,800,I,m,m,None,487,287.0,200.0,109,1,1829.2999999523163,476187.59999990463,7215,iron,NF,A,470656,470657,469127,469939,469128,470956,470456,470456,470956,128
