acc_sum,block,block_c,block_cond,con_img,correct,correct_response,datetime,endtime,face,jitter,line,project,response,response_time,row_sel,session_number,start_end,starttime,subject_id,task,task_vers,trial
1,prac,1,A,haborder.png,1,z,Wed Dec 17 2025 14:10:14 GMT-0600 (Central Standard Time),60160.0,CFD-BF-051-043-A.jpg,1000,solid,O,z,633,4,1,2432.0999999046326,57727.90000009537,7251,ATS,B,1
2,prac,1,A,haborder.png,1,m,Wed Dec 17 2025 14:10:14 GMT-0600 (Central Standard Time),62858.40000009537,CFD-WM-011-006-HC.jpg,1400,solid,O,m,496,7,1,5130.5,57727.90000009537,7251,ATS,B,2
3,prac,1,A,haborder.png,1,m,Wed Dec 17 2025 14:10:14 GMT-0600 (Central Standard Time),65826.20000004768,CFD-BM-020-024-HC.jpg,1500,solid,O,m,681,3,1,8098.299999952316,57727.90000009537,7251,ATS,B,3
4,prac,1,A,haborder.png,1,m,Wed Dec 17 2025 14:10:14 GMT-0600 (Central Standard Time),68855.70000004768,CFD-WM-012-007-HC.jpg,1700,solid,O,m,532,9,1,11127.799999952316,57727.90000009537,7251,ATS,B,4
5,prac,1,A,haborder.png,1,m,Wed Dec 17 2025 14:10:14 GMT-0600 (Central Standard Time),71656.10000002384,CFD-WF-011-006-HC.jpg,1500,solid,O,m,508,11,1,13928.199999928474,57727.90000009537,7251,ATS,B,5
6,prac,1,A,haborder.png,1,z,Wed Dec 17 2025 14:10:14 GMT-0600 (Central Standard Time),74039.70000004768,CFD-BF-050-012-A.jpg,1200,solid,O,z,409,6,1,16311.799999952316,57727.90000009537,7251,ATS,B,6
7,prac,1,A,haborder.png,1,z,Wed Dec 17 2025 14:10:14 GMT-0600 (Central Standard Time),77021.10000002384,CFD-WF-026-008-A.jpg,1600,solid,O,z,594,10,1,19293.199999928474,57727.90000009537,7251,ATS,B,7
8,prac,1,A,haborder.png,1,z,Wed Dec 17 2025 14:10:14 GMT-0600 (Central Standard Time),80303.30000007153,CFD-WM-009-009-A.jpg,1900,solid,O,z,591,8,1,22575.399999976158,57727.90000009537,7251,ATS,B,8
9,prac,1,A,haborder.png,1,m,Wed Dec 17 2025 14:10:14 GMT-0600 (Central Standard Time),83418.30000007153,CFD-BM-015-017-HC.jpg,1700,solid,O,m,635,1,1,25690.399999976158,57727.90000009537,7251,ATS,B,9
10,prac,1,A,haborder.png,1,m,Wed Dec 17 2025 14:10:14 GMT-0600 (Central Standard Time),86684.30000007153,CFD-BF-035-007-HC.jpg,2000,solid,O,m,470,5,1,28956.399999976158,57727.90000009537,7251,ATS,B,10
11,prac,1,A,haborder.png,1,z,Wed Dec 17 2025 14:10:14 GMT-0600 (Central Standard Time),89667.60000002384,CFD-BM-037-041-A.jpg,1600,solid,O,z,600,2,1,31939.699999928474,57727.90000009537,7251,ATS,B,11
12,prac,1,A,haborder.png,1,z,Wed Dec 17 2025 14:10:14 GMT-0600 (Central Standard Time),92316.40000009537,CFD-WF-013-015-A.jpg,1000,solid,O,z,853,12,1,34588.5,57727.90000009537,7251,ATS,B,12
1,prac,1,B,mfborder.png,1,m,Wed Dec 17 2025 14:10:14 GMT-0600 (Central Standard Time),122639.30000007153,CFD-WM-012-007-HC.jpg,1600,dash,O,m,518,10,1,2934.0,119705.30000007153,7251,ATS,B,1
2,prac,1,B,mfborder.png,1,z,Wed Dec 17 2025 14:10:14 GMT-0600 (Central Standard Time),124888.70000004768,CFD-WF-011-006-HC.jpg,1000,dash,O,z,457,12,1,5183.399999976158,119705.30000007153,7251,ATS,B,2
3,prac,1,B,mfborder.png,1,z,Wed Dec 17 2025 14:10:14 GMT-0600 (Central Standard Time),128322.30000007153,CFD-WF-027-007-HC.jpg,1900,dash,O,z,740,8,1,8617.0,119705.30000007153,7251,ATS,B,3
4,prac,1,B,mfborder.png,1,m,Wed Dec 17 2025 14:10:14 GMT-0600 (Central Standard Time),131137.30000007153,CFD-BM-041-048-A.jpg,1600,dash,O,m,422,2,1,11432.0,119705.30000007153,7251,ATS,B,4
4,prac,1,B,mfborder.png,0,z,Wed Dec 17 2025 14:10:14 GMT-0600 (Central Standard Time),134352.10000002384,CFD-BF-035-007-HC.jpg,1400,dash,O,m,998,7,1,14646.799999952316,119705.30000007153,7251,ATS,B,5
5,prac,1,B,mfborder.png,1,m,Wed Dec 17 2025 14:10:14 GMT-0600 (Central Standard Time),138083.20000004768,CFD-WM-009-009-A.jpg,1700,dash,O,m,1219,9,1,18377.899999976158,119705.30000007153,7251,ATS,B,6
6,prac,1,B,mfborder.png,1,z,Wed Dec 17 2025 14:10:14 GMT-0600 (Central Standard Time),141300.5,CFD-BF-027-013-HC.jpg,1500,dash,O,z,927,3,1,21595.199999928474,119705.30000007153,7251,ATS,B,7
7,prac,1,B,mfborder.png,1,m,Wed Dec 17 2025 14:10:14 GMT-0600 (Central Standard Time),144234.60000002384,CFD-WM-037-060-A.jpg,1200,dash,O,m,964,6,1,24529.299999952316,119705.30000007153,7251,ATS,B,8
8,prac,1,B,mfborder.png,1,z,Wed Dec 17 2025 14:10:14 GMT-0600 (Central Standard Time),147016.20000004768,CFD-BF-051-043-A.jpg,1000,dash,O,z,985,4,1,27310.899999976158,119705.30000007153,7251,ATS,B,9
9,prac,1,B,mfborder.png,1,z,Wed Dec 17 2025 14:10:14 GMT-0600 (Central Standard Time),150197.80000007153,CFD-WF-026-008-A.jpg,1500,dash,O,z,906,11,1,30492.5,119705.30000007153,7251,ATS,B,10
10,prac,1,B,mfborder.png,1,m,Wed Dec 17 2025 14:10:14 GMT-0600 (Central Standard Time),154129.90000009537,CFD-BM-037-041-A.jpg,2000,dash,O,m,1139,5,1,34424.60000002384,119705.30000007153,7251,ATS,B,11
11,prac,1,B,mfborder.png,1,m,Wed Dec 17 2025 14:10:14 GMT-0600 (Central Standard Time),157148.40000009537,CFD-BM-020-024-HC.jpg,1700,dash,O,m,533,1,1,37443.10000002384,119705.30000007153,7251,ATS,B,12
1,test,1,A,haborder.png,1,z,Wed Dec 17 2025 14:10:14 GMT-0600 (Central Standard Time),191100.80000007153,CFD-WF-013-015-A.jpg,1000,solid,O,z,805,12,1,1834.0,189266.80000007153,7251,ATS,B,1
2,test,1,A,haborder.png,1,z,Wed Dec 17 2025 14:10:14 GMT-0600 (Central Standard Time),192717.20000004768,CFD-BF-051-043-A.jpg,1000,solid,O,z,588,4,1,3450.399999976158,189266.80000007153,7251,ATS,B,2
3,test,1,A,haborder.png,1,m,Wed Dec 17 2025 14:10:14 GMT-0600 (Central Standard Time),194916.10000002384,CFD-BM-015-017-HC.jpg,1700,solid,O,m,477,1,1,5649.299999952316,189266.80000007153,7251,ATS,B,3
4,test,1,A,haborder.png,1,m,Wed Dec 17 2025 14:10:14 GMT-0600 (Central Standard Time),197115.40000009537,CFD-WM-012-007-HC.jpg,1700,solid,O,m,473,9,1,7848.600000023842,189266.80000007153,7251,ATS,B,4
5,test,1,A,haborder.png,1,m,Wed Dec 17 2025 14:10:14 GMT-0600 (Central Standard Time),199282.60000002384,CFD-WM-012-007-HC.jpg,1700,solid,O,m,440,9,1,10015.799999952316,189266.80000007153,7251,ATS,B,5
6,test,1,A,haborder.png,1,z,Wed Dec 17 2025 14:10:14 GMT-0600 (Central Standard Time),200933.10000002384,CFD-BF-051-043-A.jpg,1000,solid,O,z,632,4,1,11666.299999952316,189266.80000007153,7251,ATS,B,6
7,test,1,A,haborder.png,1,m,Wed Dec 17 2025 14:10:14 GMT-0600 (Central Standard Time),203197.10000002384,CFD-BM-020-024-HC.jpg,1500,solid,O,m,736,3,1,13930.299999952316,189266.80000007153,7251,ATS,B,7
8,test,1,A,haborder.png,1,z,Wed Dec 17 2025 14:10:14 GMT-0600 (Central Standard Time),205712.5,CFD-WM-009-009-A.jpg,1900,solid,O,z,592,8,1,16445.699999928474,189266.80000007153,7251,ATS,B,8
9,test,1,A,haborder.png,1,z,Wed Dec 17 2025 14:10:14 GMT-0600 (Central Standard Time),207930.80000007153,CFD-WF-026-008-A.jpg,1600,solid,O,z,595,10,1,18664.0,189266.80000007153,7251,ATS,B,9
10,test,1,A,haborder.png,1,z,Wed Dec 17 2025 14:10:14 GMT-0600 (Central Standard Time),210045.90000009537,CFD-WF-026-008-A.jpg,1600,solid,O,z,471,10,1,20779.100000023842,189266.80000007153,7251,ATS,B,10
11,test,1,A,haborder.png,1,m,Wed Dec 17 2025 14:10:14 GMT-0600 (Central Standard Time),211944.40000009537,CFD-WM-011-006-HC.jpg,1400,solid,O,m,477,7,1,22677.600000023842,189266.80000007153,7251,ATS,B,11
12,test,1,A,haborder.png,1,m,Wed Dec 17 2025 14:10:14 GMT-0600 (Central Standard Time),214579.70000004768,CFD-BF-035-007-HC.jpg,2000,solid,O,m,598,5,1,25312.899999976158,189266.80000007153,7251,ATS,B,12
13,test,1,A,haborder.png,1,z,Wed Dec 17 2025 14:10:14 GMT-0600 (Central Standard Time),216675.80000007153,CFD-BF-050-012-A.jpg,1200,solid,O,z,879,6,1,27409.0,189266.80000007153,7251,ATS,B,13
14,test,1,A,haborder.png,1,m,Wed Dec 17 2025 14:10:14 GMT-0600 (Central Standard Time),219258.60000002384,CFD-WF-011-006-HC.jpg,1500,solid,O,m,1056,11,1,29991.799999952316,189266.80000007153,7251,ATS,B,14
15,test,1,A,haborder.png,1,m,Wed Dec 17 2025 14:10:14 GMT-0600 (Central Standard Time),221507.0,CFD-BM-015-017-HC.jpg,1700,solid,O,m,520,1,1,32240.199999928474,189266.80000007153,7251,ATS,B,15
16,test,1,A,haborder.png,1,z,Wed Dec 17 2025 14:10:14 GMT-0600 (Central Standard Time),223624.20000004768,CFD-BM-037-041-A.jpg,1600,solid,O,z,483,2,1,34357.39999997616,189266.80000007153,7251,ATS,B,16
17,test,1,A,haborder.png,1,z,Wed Dec 17 2025 14:10:14 GMT-0600 (Central Standard Time),225273.60000002384,CFD-WF-013-015-A.jpg,1000,solid,O,z,623,12,1,36006.799999952316,189266.80000007153,7251,ATS,B,17
18,test,1,A,haborder.png,1,m,Wed Dec 17 2025 14:10:14 GMT-0600 (Central Standard Time),227788.80000007153,CFD-BF-035-007-HC.jpg,2000,solid,O,m,487,5,1,38522.0,189266.80000007153,7251,ATS,B,18
19,test,1,A,haborder.png,1,z,Wed Dec 17 2025 14:10:14 GMT-0600 (Central Standard Time),229956.5,CFD-BM-037-041-A.jpg,1600,solid,O,z,549,2,1,40689.699999928474,189266.80000007153,7251,ATS,B,19
20,test,1,A,haborder.png,1,z,Wed Dec 17 2025 14:10:14 GMT-0600 (Central Standard Time),232821.80000007153,CFD-WM-009-009-A.jpg,1900,solid,O,z,929,8,1,43555.0,189266.80000007153,7251,ATS,B,20
21,test,1,A,haborder.png,1,m,Wed Dec 17 2025 14:10:14 GMT-0600 (Central Standard Time),234920.30000007153,CFD-WF-011-006-HC.jpg,1500,solid,O,m,574,11,1,45653.5,189266.80000007153,7251,ATS,B,21
22,test,1,A,haborder.png,1,m,Wed Dec 17 2025 14:10:14 GMT-0600 (Central Standard Time),236954.60000002384,CFD-BM-020-024-HC.jpg,1500,solid,O,m,517,3,1,47687.799999952316,189266.80000007153,7251,ATS,B,22
23,test,1,A,haborder.png,1,z,Wed Dec 17 2025 14:10:14 GMT-0600 (Central Standard Time),238786.30000007153,CFD-BF-050-012-A.jpg,1200,solid,O,z,608,6,1,49519.5,189266.80000007153,7251,ATS,B,23
24,test,1,A,haborder.png,1,m,Wed Dec 17 2025 14:10:14 GMT-0600 (Central Standard Time),240718.10000002384,CFD-WM-011-006-HC.jpg,1400,solid,O,m,503,7,1,51451.299999952316,189266.80000007153,7251,ATS,B,24
1,test,1,B,mfborder.png,1,m,Wed Dec 17 2025 14:10:14 GMT-0600 (Central Standard Time),257162.30000007153,CFD-BM-041-048-A.jpg,1600,dash,O,m,497,2,1,2114.899999976158,255047.40000009537,7251,ATS,B,1
2,test,1,B,mfborder.png,1,m,Wed Dec 17 2025 14:10:14 GMT-0600 (Central Standard Time),259312.60000002384,CFD-BM-020-024-HC.jpg,1700,dash,O,m,425,1,1,4265.199999928474,255047.40000009537,7251,ATS,B,2
3,test,1,B,mfborder.png,1,z,Wed Dec 17 2025 14:10:14 GMT-0600 (Central Standard Time),261378.20000004768,CFD-WF-026-008-A.jpg,1500,dash,O,z,546,11,1,6330.799999952316,255047.40000009537,7251,ATS,B,3
4,test,1,B,mfborder.png,1,z,Wed Dec 17 2025 14:10:14 GMT-0600 (Central Standard Time),263894.3000000715,CFD-WF-027-007-HC.jpg,1900,dash,O,z,586,8,1,8846.899999976158,255047.40000009537,7251,ATS,B,4
5,test,1,B,mfborder.png,1,m,Wed Dec 17 2025 14:10:14 GMT-0600 (Central Standard Time),266094.3000000715,CFD-WM-012-007-HC.jpg,1600,dash,O,m,570,10,1,11046.899999976158,255047.40000009537,7251,ATS,B,5
6,test,1,B,mfborder.png,1,m,Wed Dec 17 2025 14:10:14 GMT-0600 (Central Standard Time),268376.10000002384,CFD-BM-020-024-HC.jpg,1700,dash,O,m,549,1,1,13328.699999928474,255047.40000009537,7251,ATS,B,6
7,test,1,B,mfborder.png,1,z,Wed Dec 17 2025 14:10:14 GMT-0600 (Central Standard Time),270426.2000000477,CFD-BF-051-043-A.jpg,1000,dash,O,z,1018,4,1,15378.799999952316,255047.40000009537,7251,ATS,B,7
8,test,1,B,mfborder.png,1,m,Wed Dec 17 2025 14:10:14 GMT-0600 (Central Standard Time),272241.7000000477,CFD-WM-037-060-A.jpg,1200,dash,O,m,599,6,1,17194.299999952316,255047.40000009537,7251,ATS,B,8
9,test,1,B,mfborder.png,1,z,Wed Dec 17 2025 14:10:14 GMT-0600 (Central Standard Time),273991.7000000477,CFD-BF-051-043-A.jpg,1000,dash,O,z,717,4,1,18944.299999952316,255047.40000009537,7251,ATS,B,9
10,test,1,B,mfborder.png,1,z,Wed Dec 17 2025 14:10:14 GMT-0600 (Central Standard Time),275623.7000000477,CFD-WF-011-006-HC.jpg,1000,dash,O,z,610,12,1,20576.299999952316,255047.40000009537,7251,ATS,B,10
11,test,1,B,mfborder.png,1,m,Wed Dec 17 2025 14:10:14 GMT-0600 (Central Standard Time),277973.0,CFD-BM-041-048-A.jpg,1600,dash,O,m,719,2,1,22925.599999904633,255047.40000009537,7251,ATS,B,11
12,test,1,B,mfborder.png,1,m,Wed Dec 17 2025 14:10:14 GMT-0600 (Central Standard Time),280473.2000000477,CFD-BM-037-041-A.jpg,2000,dash,O,m,467,5,1,25425.799999952316,255047.40000009537,7251,ATS,B,12
13,test,1,B,mfborder.png,1,z,Wed Dec 17 2025 14:10:14 GMT-0600 (Central Standard Time),282638.2000000477,CFD-BF-027-013-HC.jpg,1500,dash,O,z,643,3,1,27590.799999952316,255047.40000009537,7251,ATS,B,13
14,test,1,B,mfborder.png,1,m,Wed Dec 17 2025 14:10:14 GMT-0600 (Central Standard Time),284921.40000009537,CFD-WM-009-009-A.jpg,1700,dash,O,m,551,9,1,29874.0,255047.40000009537,7251,ATS,B,14
15,test,1,B,mfborder.png,1,m,Wed Dec 17 2025 14:10:14 GMT-0600 (Central Standard Time),286722.5,CFD-WM-037-060-A.jpg,1200,dash,O,m,567,6,1,31675.099999904633,255047.40000009537,7251,ATS,B,15
16,test,1,B,mfborder.png,1,z,Wed Dec 17 2025 14:10:14 GMT-0600 (Central Standard Time),288903.5,CFD-BF-027-013-HC.jpg,1500,dash,O,z,651,3,1,33856.09999990463,255047.40000009537,7251,ATS,B,16
16,test,1,B,mfborder.png,0,z,Wed Dec 17 2025 14:10:14 GMT-0600 (Central Standard Time),291119.2000000477,CFD-BF-035-007-HC.jpg,1400,dash,O,m,792,7,1,36071.799999952316,255047.40000009537,7251,ATS,B,17
17,test,1,B,mfborder.png,1,m,Wed Dec 17 2025 14:10:14 GMT-0600 (Central Standard Time),293702.0,CFD-WM-012-007-HC.jpg,1600,dash,O,m,960,10,1,38654.59999990463,255047.40000009537,7251,ATS,B,18
18,test,1,B,mfborder.png,1,m,Wed Dec 17 2025 14:10:14 GMT-0600 (Central Standard Time),296350.90000009537,CFD-BM-037-041-A.jpg,2000,dash,O,m,627,5,1,41303.5,255047.40000009537,7251,ATS,B,19
19,test,1,B,mfborder.png,1,z,Wed Dec 17 2025 14:10:14 GMT-0600 (Central Standard Time),298800.10000002384,CFD-WF-027-007-HC.jpg,1900,dash,O,z,527,8,1,43752.699999928474,255047.40000009537,7251,ATS,B,20
20,test,1,B,mfborder.png,1,z,Wed Dec 17 2025 14:10:14 GMT-0600 (Central Standard Time),301165.7000000477,CFD-BF-035-007-HC.jpg,1400,dash,O,z,943,7,1,46118.299999952316,255047.40000009537,7251,ATS,B,21
21,test,1,B,mfborder.png,1,m,Wed Dec 17 2025 14:10:14 GMT-0600 (Central Standard Time),303598.2000000477,CFD-WM-009-009-A.jpg,1700,dash,O,m,710,9,1,48550.799999952316,255047.40000009537,7251,ATS,B,22
22,test,1,B,mfborder.png,1,z,Wed Dec 17 2025 14:10:14 GMT-0600 (Central Standard Time),305265.10000002384,CFD-WF-011-006-HC.jpg,1000,dash,O,z,634,12,1,50217.699999928474,255047.40000009537,7251,ATS,B,23
23,test,1,B,mfborder.png,1,z,Wed Dec 17 2025 14:10:14 GMT-0600 (Central Standard Time),307380.60000002384,CFD-WF-026-008-A.jpg,1500,dash,O,z,596,11,1,52333.199999928474,255047.40000009537,7251,ATS,B,24
0,12,1,C,haborder.png,0,m,Wed Dec 17 2025 14:10:14 GMT-0600 (Central Standard Time),386738.3000000715,CFD-WM-011-006-HC.jpg,1400,solid,O,None,1514,prac,1,3714.899999976158,383023.40000009537,7251,ATS,B,1
1,5,1,C,mfborder.png,1,m,Wed Dec 17 2025 14:10:14 GMT-0600 (Central Standard Time),389954.90000009537,CFD-BM-037-041-A.jpg,1200,dash,O,m,1238,prac,1,6931.5,383023.40000009537,7251,ATS,B,2
2,2,1,C,mfborder.png,1,z,Wed Dec 17 2025 14:10:14 GMT-0600 (Central Standard Time),393469.90000009537,CFD-WF-013-015-A.jpg,1500,solid,O,z,1210,prac,1,10446.5,383023.40000009537,7251,ATS,B,3
3,8,1,C,haborder.png,1,z,Wed Dec 17 2025 14:10:14 GMT-0600 (Central Standard Time),397122.40000009537,CFD-BF-050-012-A.jpg,1700,solid,O,z,1167,prac,1,14099.0,383023.40000009537,7251,ATS,B,4
4,11,1,C,haborder.png,1,m,Wed Dec 17 2025 14:10:14 GMT-0600 (Central Standard Time),399851.0,CFD-WM-011-006-HC.jpg,1000,dash,O,m,937,prac,1,16827.599999904633,383023.40000009537,7251,ATS,B,5
5,4,1,C,mfborder.png,1,m,Wed Dec 17 2025 14:10:14 GMT-0600 (Central Standard Time),403533.90000009537,CFD-BM-015-017-HC.jpg,2000,solid,O,m,884,prac,1,20510.5,383023.40000009537,7251,ATS,B,6
6,7,1,C,haborder.png,1,z,Wed Dec 17 2025 14:10:14 GMT-0600 (Central Standard Time),407198.90000009537,CFD-BF-051-043-A.jpg,1900,dash,O,z,965,prac,1,24175.5,383023.40000009537,7251,ATS,B,7
7,1,1,C,mfborder.png,1,z,Wed Dec 17 2025 14:10:14 GMT-0600 (Central Standard Time),410381.5,CFD-WF-011-006-HC.jpg,1600,dash,O,z,792,prac,1,27358.099999904633,383023.40000009537,7251,ATS,B,8
8,10,1,C,haborder.png,1,m,Wed Dec 17 2025 14:10:14 GMT-0600 (Central Standard Time),413814.0,CFD-BM-020-024-HC.jpg,1500,solid,O,m,1135,prac,1,30790.599999904633,383023.40000009537,7251,ATS,B,9
9,6,1,C,mfborder.png,1,m,Wed Dec 17 2025 14:10:14 GMT-0600 (Central Standard Time),417346.3000000715,CFD-WM-009-009-A.jpg,1700,solid,O,m,1047,prac,1,34322.89999997616,383023.40000009537,7251,ATS,B,10
10,3,1,C,mfborder.png,1,z,Wed Dec 17 2025 14:10:14 GMT-0600 (Central Standard Time),420195.2000000477,CFD-BF-035-007-HC.jpg,1000,dash,O,z,1062,prac,1,37171.799999952316,383023.40000009537,7251,ATS,B,11
11,9,1,C,haborder.png,1,z,Wed Dec 17 2025 14:10:14 GMT-0600 (Central Standard Time),424060.2000000477,CFD-WF-026-008-A.jpg,1600,dash,O,z,1469,prac,1,41036.799999952316,383023.40000009537,7251,ATS,B,12
0,test,1,C,mfborder.png,0,z,Wed Dec 17 2025 14:10:14 GMT-0600 (Central Standard Time),453500.0,CFD-WF-026-008-A.jpg,1500,dash,O,None,1515,3,1,3031.399999976158,450468.60000002384,7251,ATS,B,1
1,test,1,C,mfborder.png,1,z,Wed Dec 17 2025 14:10:14 GMT-0600 (Central Standard Time),456032.40000009537,CFD-BF-027-013-HC.jpg,1700,dash,O,z,807,1,1,5563.800000071526,450468.60000002384,7251,ATS,B,2
1,test,1,C,mfborder.png,0,m,Wed Dec 17 2025 14:10:14 GMT-0600 (Central Standard Time),458565.0,CFD-WM-037-060-A.jpg,2000,dash,O,z,503,5,1,8096.399999976158,450468.60000002384,7251,ATS,B,3
2,test,1,C,mfborder.png,1,m,Wed Dec 17 2025 14:10:14 GMT-0600 (Central Standard Time),461366.10000002384,CFD-WM-037-060-A.jpg,2000,dash,O,m,770,5,1,10897.5,450468.60000002384,7251,ATS,B,4
3,test,1,C,mfborder.png,1,m,Wed Dec 17 2025 14:10:14 GMT-0600 (Central Standard Time),463414.10000002384,CFD-BM-020-024-HC.jpg,1200,dash,O,m,818,6,1,12945.5,450468.60000002384,7251,ATS,B,5
4,test,1,C,haborder.png,1,m,Wed Dec 17 2025 14:10:14 GMT-0600 (Central Standard Time),466029.40000009537,CFD-WF-027-007-HC.jpg,1500,solid,O,m,1094,11,1,15560.800000071526,450468.60000002384,7251,ATS,B,6
5,test,1,C,haborder.png,1,z,Wed Dec 17 2025 14:10:14 GMT-0600 (Central Standard Time),468763.0,CFD-BM-037-041-A.jpg,1900,solid,O,z,807,8,1,18294.399999976158,450468.60000002384,7251,ATS,B,7
5,test,1,C,haborder.png,0,z,Wed Dec 17 2025 14:10:14 GMT-0600 (Central Standard Time),471978.90000009537,CFD-BM-041-048-A.jpg,1700,solid,O,m,1490,9,1,21510.300000071526,450468.60000002384,7251,ATS,B,8
5,test,1,C,haborder.png,0,m,Wed Dec 17 2025 14:10:14 GMT-0600 (Central Standard Time),475019.5,CFD-WF-027-007-HC.jpg,1500,solid,O,None,1517,11,1,24550.899999976158,450468.60000002384,7251,ATS,B,9
5,test,1,C,mfborder.png,0,m,Wed Dec 17 2025 14:10:14 GMT-0600 (Central Standard Time),477542.7000000477,CFD-WM-012-007-HC.jpg,1000,dash,O,None,1515,4,1,27074.100000023842,450468.60000002384,7251,ATS,B,10
6,test,1,C,haborder.png,1,z,Wed Dec 17 2025 14:10:14 GMT-0600 (Central Standard Time),480426.2000000477,CFD-WM-009-009-A.jpg,1400,solid,O,z,1457,7,1,29957.600000023842,450468.60000002384,7251,ATS,B,11
7,test,1,C,mfborder.png,1,m,Wed Dec 17 2025 14:10:14 GMT-0600 (Central Standard Time),482241.90000009537,CFD-WM-012-007-HC.jpg,1000,dash,O,m,790,4,1,31773.300000071526,450468.60000002384,7251,ATS,B,12
8,test,1,C,haborder.png,1,z,Wed Dec 17 2025 14:10:14 GMT-0600 (Central Standard Time),485040.40000009537,CFD-BM-037-041-A.jpg,1900,solid,O,z,876,8,1,34571.800000071526,450468.60000002384,7251,ATS,B,13
8,test,1,C,haborder.png,0,m,Wed Dec 17 2025 14:10:14 GMT-0600 (Central Standard Time),488173.5,CFD-BF-035-007-HC.jpg,1600,solid,O,None,1516,10,1,37704.89999997616,450468.60000002384,7251,ATS,B,14
8,test,1,C,mfborder.png,0,z,Wed Dec 17 2025 14:10:14 GMT-0600 (Central Standard Time),491206.60000002384,CFD-WF-026-008-A.jpg,1500,dash,O,None,1517,3,1,40738.0,450468.60000002384,7251,ATS,B,15
8,test,1,C,haborder.png,0,m,Wed Dec 17 2025 14:10:14 GMT-0600 (Central Standard Time),493737.90000009537,CFD-WF-011-006-HC.jpg,1000,solid,O,None,1515,12,1,43269.300000071526,450468.60000002384,7251,ATS,B,16
8,test,1,C,mfborder.png,0,m,Wed Dec 17 2025 14:10:14 GMT-0600 (Central Standard Time),496469.8000000715,CFD-BM-020-024-HC.jpg,1200,dash,O,None,1514,6,1,46001.200000047684,450468.60000002384,7251,ATS,B,17
8,test,1,C,haborder.png,0,m,Wed Dec 17 2025 14:10:14 GMT-0600 (Central Standard Time),499169.3000000715,CFD-BF-035-007-HC.jpg,1600,solid,O,z,1064,10,1,48700.700000047684,450468.60000002384,7251,ATS,B,18
9,test,1,C,mfborder.png,1,z,Wed Dec 17 2025 14:10:14 GMT-0600 (Central Standard Time),501769.0,CFD-BF-051-043-A.jpg,1600,dash,O,z,964,2,1,51300.39999997616,450468.60000002384,7251,ATS,B,19
9,test,1,C,haborder.png,0,m,Wed Dec 17 2025 14:10:14 GMT-0600 (Central Standard Time),504302.0,CFD-WF-011-006-HC.jpg,1000,solid,O,None,1515,12,1,53833.39999997616,450468.60000002384,7251,ATS,B,20
9,test,1,C,haborder.png,0,z,Wed Dec 17 2025 14:10:14 GMT-0600 (Central Standard Time),506837.40000009537,CFD-WM-009-009-A.jpg,1400,solid,O,m,1119,7,1,56368.800000071526,450468.60000002384,7251,ATS,B,21
10,test,1,C,mfborder.png,1,z,Wed Dec 17 2025 14:10:14 GMT-0600 (Central Standard Time),509782.8000000715,CFD-BF-051-043-A.jpg,1600,dash,O,z,1318,2,1,59314.200000047684,450468.60000002384,7251,ATS,B,22
11,test,1,C,haborder.png,1,z,Wed Dec 17 2025 14:10:14 GMT-0600 (Central Standard Time),512781.40000009537,CFD-BM-041-048-A.jpg,1700,solid,O,z,1277,9,1,62312.800000071526,450468.60000002384,7251,ATS,B,23
12,test,1,C,mfborder.png,1,z,Wed Dec 17 2025 14:10:14 GMT-0600 (Central Standard Time),515864.10000002384,CFD-BF-027-013-HC.jpg,1700,dash,O,z,1349,1,1,65395.5,450468.60000002384,7251,ATS,B,24
0,test,2,C,haborder.png,0,z,Wed Dec 17 2025 14:10:14 GMT-0600 (Central Standard Time),527978.2000000477,CFD-WF-026-008-A.jpg,1700,solid,O,None,1515,9,1,3233.100000023842,524745.1000000238,7251,ATS,B,1
1,test,2,C,mfborder.png,1,m,Wed Dec 17 2025 14:10:14 GMT-0600 (Central Standard Time),530130.3000000715,CFD-WM-009-009-A.jpg,1200,dash,O,m,936,6,1,5385.200000047684,524745.1000000238,7251,ATS,B,2
2,test,2,C,mfborder.png,1,m,Wed Dec 17 2025 14:10:14 GMT-0600 (Central Standard Time),532142.3000000715,CFD-WM-009-009-A.jpg,1200,dash,O,m,794,6,1,7397.200000047684,524745.1000000238,7251,ATS,B,3
3,test,2,C,mfborder.png,1,z,Wed Dec 17 2025 14:10:14 GMT-0600 (Central Standard Time),535058.9000000954,CFD-WF-011-006-HC.jpg,1700,dash,O,z,1190,1,1,10313.800000071526,524745.1000000238,7251,ATS,B,4
3,test,2,C,mfborder.png,0,m,Wed Dec 17 2025 14:10:14 GMT-0600 (Central Standard Time),537590.7000000477,CFD-BM-015-017-HC.jpg,1000,dash,O,None,1516,4,1,12845.600000023842,524745.1000000238,7251,ATS,B,5
4,test,2,C,mfborder.png,1,z,Wed Dec 17 2025 14:10:14 GMT-0600 (Central Standard Time),540056.2000000477,CFD-WF-013-015-A.jpg,1600,dash,O,z,833,2,1,15311.100000023842,524745.1000000238,7251,ATS,B,6
5,test,2,C,haborder.png,1,m,Wed Dec 17 2025 14:10:14 GMT-0600 (Central Standard Time),541989.4000000954,CFD-WM-011-006-HC.jpg,1000,solid,O,m,911,12,1,17244.300000071526,524745.1000000238,7251,ATS,B,7
5,test,2,C,haborder.png,0,z,Wed Dec 17 2025 14:10:14 GMT-0600 (Central Standard Time),545421.2000000477,CFD-BF-050-012-A.jpg,1900,solid,O,None,1515,8,1,20676.100000023842,524745.1000000238,7251,ATS,B,8
6,test,2,C,haborder.png,1,m,Wed Dec 17 2025 14:10:14 GMT-0600 (Central Standard Time),547687.4000000954,CFD-WM-011-006-HC.jpg,1000,solid,O,m,1242,12,1,22942.300000071526,524745.1000000238,7251,ATS,B,9
7,test,2,C,mfborder.png,1,m,Wed Dec 17 2025 14:10:14 GMT-0600 (Central Standard Time),550086.6000000238,CFD-BM-015-017-HC.jpg,1000,dash,O,m,1376,4,1,25341.5,524745.1000000238,7251,ATS,B,10
8,test,2,C,haborder.png,1,z,Wed Dec 17 2025 14:10:14 GMT-0600 (Central Standard Time),552518.7000000477,CFD-BF-051-043-A.jpg,1400,solid,O,z,1008,7,1,27773.600000023842,524745.1000000238,7251,ATS,B,11
9,test,2,C,mfborder.png,1,z,Wed Dec 17 2025 14:10:14 GMT-0600 (Central Standard Time),555167.7000000477,CFD-WF-013-015-A.jpg,1600,dash,O,z,1023,2,1,30422.600000023842,524745.1000000238,7251,ATS,B,12
9,test,2,C,mfborder.png,0,z,Wed Dec 17 2025 14:10:14 GMT-0600 (Central Standard Time),558216.6000000238,CFD-BF-035-007-HC.jpg,1500,dash,O,None,1515,3,1,33471.5,524745.1000000238,7251,ATS,B,13
10,test,2,C,haborder.png,1,m,Wed Dec 17 2025 14:10:14 GMT-0600 (Central Standard Time),561018.2000000477,CFD-WM-011-006-HC.jpg,1500,solid,O,m,1267,11,1,36273.10000002384,524745.1000000238,7251,ATS,B,14
11,test,2,C,haborder.png,1,z,Wed Dec 17 2025 14:10:14 GMT-0600 (Central Standard Time),563266.7000000477,CFD-BF-051-043-A.jpg,1400,solid,O,z,824,7,1,38521.60000002384,524745.1000000238,7251,ATS,B,15
12,test,2,C,haborder.png,1,m,Wed Dec 17 2025 14:10:14 GMT-0600 (Central Standard Time),565614.9000000954,CFD-WM-011-006-HC.jpg,1500,solid,O,m,818,11,1,40869.800000071526,524745.1000000238,7251,ATS,B,16
13,test,2,C,mfborder.png,1,z,Wed Dec 17 2025 14:10:14 GMT-0600 (Central Standard Time),568196.9000000954,CFD-BF-035-007-HC.jpg,1500,dash,O,z,1052,3,1,43451.800000071526,524745.1000000238,7251,ATS,B,17
14,test,2,C,mfborder.png,1,m,Wed Dec 17 2025 14:10:14 GMT-0600 (Central Standard Time),571596.2000000477,CFD-BM-037-041-A.jpg,2000,dash,O,m,1379,5,1,46851.10000002384,524745.1000000238,7251,ATS,B,18
15,test,2,C,haborder.png,1,m,Wed Dec 17 2025 14:10:14 GMT-0600 (Central Standard Time),574295.5,CFD-BM-020-024-HC.jpg,1600,solid,O,m,1068,10,1,49550.39999997616,524745.1000000238,7251,ATS,B,19
16,test,2,C,haborder.png,1,z,Wed Dec 17 2025 14:10:14 GMT-0600 (Central Standard Time),577078.5,CFD-WF-026-008-A.jpg,1700,solid,O,z,1061,9,1,52333.39999997616,524745.1000000238,7251,ATS,B,20
17,test,2,C,haborder.png,1,z,Wed Dec 17 2025 14:10:14 GMT-0600 (Central Standard Time),579760.5,CFD-BF-050-012-A.jpg,1900,solid,O,z,759,8,1,55015.39999997616,524745.1000000238,7251,ATS,B,21
18,test,2,C,mfborder.png,1,z,Wed Dec 17 2025 14:10:14 GMT-0600 (Central Standard Time),582793.6000000238,CFD-WF-011-006-HC.jpg,1700,dash,O,z,1300,1,1,58048.5,524745.1000000238,7251,ATS,B,22
19,test,2,C,haborder.png,1,m,Wed Dec 17 2025 14:10:14 GMT-0600 (Central Standard Time),585294.3000000715,CFD-BM-020-024-HC.jpg,1600,solid,O,m,870,10,1,60549.200000047684,524745.1000000238,7251,ATS,B,23
20,test,2,C,mfborder.png,1,m,Wed Dec 17 2025 14:10:14 GMT-0600 (Central Standard Time),588426.2000000477,CFD-BM-037-041-A.jpg,2000,dash,O,m,1099,5,1,63681.10000002384,524745.1000000238,7251,ATS,B,24
1,test,3,C,haborder.png,1,m,Wed Dec 17 2025 14:10:14 GMT-0600 (Central Standard Time),598004.9000000954,CFD-WF-011-006-HC.jpg,1000,solid,O,m,1017,12,1,2033.4000000953674,595971.5,7251,ATS,B,1
2,test,3,C,mfborder.png,1,z,Wed Dec 17 2025 14:10:14 GMT-0600 (Central Standard Time),600722.7000000477,CFD-BF-051-043-A.jpg,1600,dash,O,z,1083,2,1,4751.200000047684,595971.5,7251,ATS,B,2
2,test,3,C,haborder.png,0,m,Wed Dec 17 2025 14:10:14 GMT-0600 (Central Standard Time),603853.0,CFD-BF-035-007-HC.jpg,1600,solid,O,None,1515,10,1,7881.5,595971.5,7251,ATS,B,3
3,test,3,C,haborder.png,1,m,Wed Dec 17 2025 14:10:14 GMT-0600 (Central Standard Time),606635.5,CFD-WF-027-007-HC.jpg,1500,solid,O,m,1263,11,1,10664.0,595971.5,7251,ATS,B,4
4,test,3,C,haborder.png,1,m,Wed Dec 17 2025 14:10:14 GMT-0600 (Central Standard Time),608768.3000000715,CFD-WF-027-007-HC.jpg,1500,solid,O,m,610,11,1,12796.800000071526,595971.5,7251,ATS,B,5
5,test,3,C,haborder.png,1,z,Wed Dec 17 2025 14:10:14 GMT-0600 (Central Standard Time),611516.8000000715,CFD-BM-037-041-A.jpg,1900,solid,O,z,820,8,1,15545.300000071526,595971.5,7251,ATS,B,6
6,test,3,C,haborder.png,1,z,Wed Dec 17 2025 14:10:14 GMT-0600 (Central Standard Time),614416.6000000238,CFD-BM-041-048-A.jpg,1700,solid,O,z,1166,9,1,18445.100000023842,595971.5,7251,ATS,B,7
7,test,3,C,haborder.png,1,z,Wed Dec 17 2025 14:10:14 GMT-0600 (Central Standard Time),616716.2000000477,CFD-WM-009-009-A.jpg,1400,solid,O,z,883,7,1,20744.700000047684,595971.5,7251,ATS,B,8
8,test,3,C,mfborder.png,1,z,Wed Dec 17 2025 14:10:14 GMT-0600 (Central Standard Time),619480.7000000477,CFD-BF-051-043-A.jpg,1600,dash,O,z,1134,2,1,23509.200000047684,595971.5,7251,ATS,B,9
9,test,3,C,mfborder.png,1,m,Wed Dec 17 2025 14:10:14 GMT-0600 (Central Standard Time),622481.4000000954,CFD-WM-037-060-A.jpg,2000,dash,O,m,964,5,1,26509.900000095367,595971.5,7251,ATS,B,10
9,test,3,C,haborder.png,0,z,Wed Dec 17 2025 14:10:14 GMT-0600 (Central Standard Time),625912.5,CFD-BM-037-041-A.jpg,1900,solid,O,None,1514,8,1,29941.0,595971.5,7251,ATS,B,11
10,test,3,C,haborder.png,1,z,Wed Dec 17 2025 14:10:14 GMT-0600 (Central Standard Time),628064.2000000477,CFD-WM-009-009-A.jpg,1400,solid,O,z,728,7,1,32092.700000047684,595971.5,7251,ATS,B,12
11,test,3,C,haborder.png,1,m,Wed Dec 17 2025 14:10:14 GMT-0600 (Central Standard Time),629961.6000000238,CFD-WF-011-006-HC.jpg,1000,solid,O,m,883,12,1,33990.10000002384,595971.5,7251,ATS,B,13
12,test,3,C,mfborder.png,1,m,Wed Dec 17 2025 14:10:14 GMT-0600 (Central Standard Time),632061.1000000238,CFD-BM-020-024-HC.jpg,1200,dash,O,m,878,6,1,36089.60000002384,595971.5,7251,ATS,B,14
13,test,3,C,mfborder.png,1,z,Wed Dec 17 2025 14:10:14 GMT-0600 (Central Standard Time),634809.9000000954,CFD-WF-026-008-A.jpg,1500,dash,O,z,1215,3,1,38838.40000009537,595971.5,7251,ATS,B,15
14,test,3,C,mfborder.png,1,m,Wed Dec 17 2025 14:10:14 GMT-0600 (Central Standard Time),636592.3000000715,CFD-WM-012-007-HC.jpg,1000,dash,O,m,759,4,1,40620.800000071526,595971.5,7251,ATS,B,16
15,test,3,C,mfborder.png,1,m,Wed Dec 17 2025 14:10:14 GMT-0600 (Central Standard Time),638176.3000000715,CFD-WM-012-007-HC.jpg,1000,dash,O,m,552,4,1,42204.800000071526,595971.5,7251,ATS,B,17
16,test,3,C,mfborder.png,1,m,Wed Dec 17 2025 14:10:14 GMT-0600 (Central Standard Time),640374.6000000238,CFD-BM-020-024-HC.jpg,1200,dash,O,m,969,6,1,44403.10000002384,595971.5,7251,ATS,B,18
17,test,3,C,mfborder.png,1,z,Wed Dec 17 2025 14:10:14 GMT-0600 (Central Standard Time),642673.7000000477,CFD-WF-026-008-A.jpg,1500,dash,O,z,781,3,1,46702.200000047684,595971.5,7251,ATS,B,19
17,test,3,C,mfborder.png,0,m,Wed Dec 17 2025 14:10:14 GMT-0600 (Central Standard Time),645890.9000000954,CFD-WM-037-060-A.jpg,2000,dash,O,z,1200,5,1,49919.40000009537,595971.5,7251,ATS,B,20
18,test,3,C,haborder.png,1,m,Wed Dec 17 2025 14:10:14 GMT-0600 (Central Standard Time),648705.6000000238,CFD-BF-035-007-HC.jpg,1600,solid,O,m,1192,10,1,52734.10000002384,595971.5,7251,ATS,B,21
19,test,3,C,mfborder.png,1,z,Wed Dec 17 2025 14:10:14 GMT-0600 (Central Standard Time),651504.2000000477,CFD-BF-027-013-HC.jpg,1700,dash,O,z,1059,1,1,55532.700000047684,595971.5,7251,ATS,B,22
19,test,3,C,haborder.png,0,z,Wed Dec 17 2025 14:10:14 GMT-0600 (Central Standard Time),654737.7000000477,CFD-BM-041-048-A.jpg,1700,solid,O,None,1517,9,1,58766.200000047684,595971.5,7251,ATS,B,23
20,test,3,C,mfborder.png,1,z,Wed Dec 17 2025 14:10:14 GMT-0600 (Central Standard Time),657336.7000000477,CFD-BF-027-013-HC.jpg,1700,dash,O,z,882,1,1,61365.200000047684,595971.5,7251,ATS,B,24
1,test,4,C,mfborder.png,1,z,Wed Dec 17 2025 14:10:14 GMT-0600 (Central Standard Time),665299.5,CFD-WF-011-006-HC.jpg,1700,dash,O,z,1072,1,1,2799.1999999284744,662500.3000000715,7251,ATS,B,1
2,test,4,C,mfborder.png,1,z,Wed Dec 17 2025 14:10:14 GMT-0600 (Central Standard Time),667674.7000000477,CFD-WF-011-006-HC.jpg,1700,dash,O,z,639,1,1,5174.399999976158,662500.3000000715,7251,ATS,B,2
3,test,4,C,haborder.png,1,m,Wed Dec 17 2025 14:10:14 GMT-0600 (Central Standard Time),669400.0,CFD-WM-011-006-HC.jpg,1000,solid,O,m,693,12,1,6899.699999928474,662500.3000000715,7251,ATS,B,3
4,test,4,C,mfborder.png,1,z,Wed Dec 17 2025 14:10:14 GMT-0600 (Central Standard Time),671815.1000000238,CFD-WF-013-015-A.jpg,1600,dash,O,z,785,2,1,9314.799999952316,662500.3000000715,7251,ATS,B,4
5,test,4,C,haborder.png,1,m,Wed Dec 17 2025 14:10:14 GMT-0600 (Central Standard Time),673949.0,CFD-WM-011-006-HC.jpg,1500,solid,O,m,615,11,1,11448.699999928474,662500.3000000715,7251,ATS,B,5
6,test,4,C,mfborder.png,1,m,Wed Dec 17 2025 14:10:14 GMT-0600 (Central Standard Time),677330.1000000238,CFD-BM-037-041-A.jpg,2000,dash,O,m,1349,5,1,14829.799999952316,662500.3000000715,7251,ATS,B,6
7,test,4,C,haborder.png,1,m,Wed Dec 17 2025 14:10:14 GMT-0600 (Central Standard Time),679545.4000000954,CFD-WM-011-006-HC.jpg,1500,solid,O,m,691,11,1,17045.100000023842,662500.3000000715,7251,ATS,B,7
8,test,4,C,mfborder.png,1,z,Wed Dec 17 2025 14:10:14 GMT-0600 (Central Standard Time),681911.9000000954,CFD-WF-013-015-A.jpg,1600,dash,O,z,735,2,1,19411.600000023842,662500.3000000715,7251,ATS,B,8
9,test,4,C,haborder.png,1,m,Wed Dec 17 2025 14:10:14 GMT-0600 (Central Standard Time),684160.9000000954,CFD-BM-020-024-HC.jpg,1600,solid,O,m,625,10,1,21660.600000023842,662500.3000000715,7251,ATS,B,9
10,test,4,C,haborder.png,1,m,Wed Dec 17 2025 14:10:14 GMT-0600 (Central Standard Time),686426.6000000238,CFD-BM-020-024-HC.jpg,1600,solid,O,m,639,10,1,23926.299999952316,662500.3000000715,7251,ATS,B,10
11,test,4,C,haborder.png,1,z,Wed Dec 17 2025 14:10:14 GMT-0600 (Central Standard Time),689558.5,CFD-BF-050-012-A.jpg,1900,solid,O,z,1210,8,1,27058.199999928474,662500.3000000715,7251,ATS,B,11
11,test,4,C,mfborder.png,0,m,Wed Dec 17 2025 14:10:14 GMT-0600 (Central Standard Time),692291.9000000954,CFD-WM-009-009-A.jpg,1200,dash,O,None,1517,6,1,29791.600000023842,662500.3000000715,7251,ATS,B,12
12,test,4,C,mfborder.png,1,m,Wed Dec 17 2025 14:10:14 GMT-0600 (Central Standard Time),694075.4000000954,CFD-WM-009-009-A.jpg,1200,dash,O,m,566,6,1,31575.100000023842,662500.3000000715,7251,ATS,B,13
13,test,4,C,haborder.png,1,z,Wed Dec 17 2025 14:10:14 GMT-0600 (Central Standard Time),696940.3000000715,CFD-BF-051-043-A.jpg,1400,solid,O,z,1449,7,1,34440.0,662500.3000000715,7251,ATS,B,14
14,test,4,C,haborder.png,1,z,Wed Dec 17 2025 14:10:14 GMT-0600 (Central Standard Time),699189.7000000477,CFD-BF-051-043-A.jpg,1400,solid,O,z,821,7,1,36689.39999997616,662500.3000000715,7251,ATS,B,15
15,test,4,C,haborder.png,1,z,Wed Dec 17 2025 14:10:14 GMT-0600 (Central Standard Time),702072.1000000238,CFD-WF-026-008-A.jpg,1700,solid,O,z,1150,9,1,39571.799999952316,662500.3000000715,7251,ATS,B,16
16,test,4,C,haborder.png,1,z,Wed Dec 17 2025 14:10:14 GMT-0600 (Central Standard Time),704437.8000000715,CFD-WF-026-008-A.jpg,1700,solid,O,z,645,9,1,41937.5,662500.3000000715,7251,ATS,B,17
17,test,4,C,mfborder.png,1,m,Wed Dec 17 2025 14:10:14 GMT-0600 (Central Standard Time),707685.8000000715,CFD-BM-037-041-A.jpg,2000,dash,O,m,1219,5,1,45185.5,662500.3000000715,7251,ATS,B,18
18,test,4,C,haborder.png,1,m,Wed Dec 17 2025 14:10:14 GMT-0600 (Central Standard Time),709353.7000000477,CFD-WM-011-006-HC.jpg,1000,solid,O,m,641,12,1,46853.39999997616,662500.3000000715,7251,ATS,B,19
19,test,4,C,mfborder.png,1,z,Wed Dec 17 2025 14:10:14 GMT-0600 (Central Standard Time),712251.8000000715,CFD-BF-035-007-HC.jpg,1500,dash,O,z,1355,3,1,49751.5,662500.3000000715,7251,ATS,B,20
20,test,4,C,haborder.png,1,z,Wed Dec 17 2025 14:10:14 GMT-0600 (Central Standard Time),715150.4000000954,CFD-BF-050-012-A.jpg,1900,solid,O,z,981,8,1,52650.10000002384,662500.3000000715,7251,ATS,B,21
21,test,4,C,mfborder.png,1,z,Wed Dec 17 2025 14:10:14 GMT-0600 (Central Standard Time),717883.0,CFD-BF-035-007-HC.jpg,1500,dash,O,z,1206,3,1,55382.699999928474,662500.3000000715,7251,ATS,B,22
21,test,4,C,mfborder.png,0,m,Wed Dec 17 2025 14:10:14 GMT-0600 (Central Standard Time),720415.7000000477,CFD-BM-015-017-HC.jpg,1000,dash,O,None,1514,4,1,57915.39999997616,662500.3000000715,7251,ATS,B,23
22,test,4,C,mfborder.png,1,m,Wed Dec 17 2025 14:10:14 GMT-0600 (Central Standard Time),721931.1000000238,CFD-BM-015-017-HC.jpg,1000,dash,O,m,495,4,1,59430.799999952316,662500.3000000715,7251,ATS,B,24
