block_c,block_dur,condition,countdown,datetime,endtime,list,multichar_response,project,response,response_time,session_number,start_end,starttime,subject_id,task,task_vers,trial
,,,,Thu Oct 09 2025 11:10:13 GMT-0500 (Central Daylight Time),,,,O,space,1019,1,,,7701,WL,A,
prac,,0,,Thu Oct 09 2025 11:10:13 GMT-0500 (Central Daylight Time),,NA,b,O,b,4416,1,,,7701,WL,A,1.0
prac,,0,,Thu Oct 09 2025 11:10:13 GMT-0500 (Central Daylight Time),,NA,bo,O,o,1020,1,,,7701,WL,A,1.0
prac,,0,,Thu Oct 09 2025 11:10:13 GMT-0500 (Central Daylight Time),,NA,boo,O,o,152,1,,,7701,WL,A,1.0
prac,,0,,Thu Oct 09 2025 11:10:13 GMT-0500 (Central Daylight Time),,NA,boos,O,s,164,1,,,7701,WL,A,1.0
prac,,0,,Thu Oct 09 2025 11:10:13 GMT-0500 (Central Daylight Time),,NA,boost,O,t,338,1,,,7701,WL,A,1.0
prac,,0,,Thu Oct 09 2025 11:10:13 GMT-0500 (Central Daylight Time),,NA,boostenter,O,enter,2245,1,,,7701,WL,A,1.0
1,1.3989999294281006,learn,58601.0000705719,Thu Oct 09 2025 11:10:13 GMT-0500 (Central Daylight Time),168543.5,A,m,O,m,1388,1,1398.8999999761581,167144.60000002384,7701,WL,A,1.0
1,1.8250000476837158,learn,58174.999952316284,Thu Oct 09 2025 11:10:13 GMT-0500 (Central Daylight Time),168969.89999997616,A,me,O,e,421,1,1825.2999999523163,167144.60000002384,7701,WL,A,1.0
1,2.065000057220459,learn,57934.99994277954,Thu Oct 09 2025 11:10:13 GMT-0500 (Central Daylight Time),169209.10000002384,A,mea,O,a,226,1,2064.5,167144.60000002384,7701,WL,A,1.0
1,2.5149998664855957,learn,57485.000133514404,Thu Oct 09 2025 11:10:13 GMT-0500 (Central Daylight Time),169659.10000002384,A,mead,O,d,441,1,2514.5,167144.60000002384,7701,WL,A,1.0
1,2.930999994277954,learn,57069.000005722046,Thu Oct 09 2025 11:10:13 GMT-0500 (Central Daylight Time),170075.10000002384,A,meado,O,o,400,1,2930.5,167144.60000002384,7701,WL,A,1.0
1,3.129999876022339,learn,56870.00012397766,Thu Oct 09 2025 11:10:13 GMT-0500 (Central Daylight Time),170274.60000002384,A,meadow,O,w,182,1,3130.0,167144.60000002384,7701,WL,A,1.0
1,4.381999969482422,learn,55618.00003051758,Thu Oct 09 2025 11:10:13 GMT-0500 (Central Daylight Time),171526.10000002384,A,meadowenter,O,enter,1232,1,4381.5,167144.60000002384,7701,WL,A,1.0
1,4.9649999141693115,learn,55035.00008583069,Thu Oct 09 2025 11:10:13 GMT-0500 (Central Daylight Time),172109.60000002384,A,r,O,r,563,1,583.1000000238419,171526.5,7701,WL,A,2.0
1,5.096999883651733,learn,54903.00011634827,Thu Oct 09 2025 11:10:13 GMT-0500 (Central Daylight Time),172241.10000002384,A,ru,O,u,117,1,714.6000000238419,171526.5,7701,WL,A,2.0
1,5.516999959945679,learn,54483.00004005432,Thu Oct 09 2025 11:10:13 GMT-0500 (Central Daylight Time),172661.39999997616,A,rug,O,g,400,1,1134.8999999761581,171526.5,7701,WL,A,2.0
1,6.162999868392944,learn,53837.000131607056,Thu Oct 09 2025 11:10:13 GMT-0500 (Central Daylight Time),173307.89999997616,A,rugenter,O,enter,627,1,1781.3999999761581,171526.5,7701,WL,A,2.0
1,7.730000019073486,learn,52269.999980926514,Thu Oct 09 2025 11:10:13 GMT-0500 (Central Daylight Time),174874.5,A,f,O,f,1551,1,1566.1999999284744,173308.30000007153,7701,WL,A,3.0
1,7.86299991607666,learn,52137.00008392334,Thu Oct 09 2025 11:10:13 GMT-0500 (Central Daylight Time),175007.30000007153,A,fl,O,l,111,1,1699.0,173308.30000007153,7701,WL,A,3.0
1,8.062999963760376,learn,51937.000036239624,Thu Oct 09 2025 11:10:13 GMT-0500 (Central Daylight Time),175207.20000004768,A,flo,O,o,187,1,1898.8999999761581,173308.30000007153,7701,WL,A,3.0
1,8.378999948501587,learn,51621.00005149841,Thu Oct 09 2025 11:10:13 GMT-0500 (Central Daylight Time),175523.39999997616,A,flow,O,w,308,1,2215.0999999046326,173308.30000007153,7701,WL,A,3.0
1,8.680000066757202,learn,51319.9999332428,Thu Oct 09 2025 11:10:13 GMT-0500 (Central Daylight Time),175824.0,A,flowe,O,e,286,1,2515.6999999284744,173308.30000007153,7701,WL,A,3.0
1,8.94599986076355,learn,51054.00013923645,Thu Oct 09 2025 11:10:13 GMT-0500 (Central Daylight Time),176090.89999997616,A,flower,O,r,258,1,2782.5999999046326,173308.30000007153,7701,WL,A,3.0
1,9.628999948501587,learn,50371.00005149841,Thu Oct 09 2025 11:10:13 GMT-0500 (Central Daylight Time),176773.20000004768,A,flowerenter,O,enter,670,1,3464.899999976158,173308.30000007153,7701,WL,A,3.0
1,12.246000051498413,learn,47753.99994850159,Thu Oct 09 2025 11:10:13 GMT-0500 (Central Daylight Time),179391.70000004768,A,t,O,t,2599,1,2618.2000000476837,176773.5,7701,WL,A,4.0
1,12.7260000705719,learn,47273.9999294281,Thu Oct 09 2025 11:10:13 GMT-0500 (Central Daylight Time),179872.30000007153,A,tr,O,r,459,1,3098.8000000715256,176773.5,7701,WL,A,4.0
1,13.059999942779541,learn,46940.00005722046,Thu Oct 09 2025 11:10:13 GMT-0500 (Central Daylight Time),180205.70000004768,A,tra,O,a,321,1,3432.2000000476837,176773.5,7701,WL,A,4.0
1,13.175999879837036,learn,46824.000120162964,Thu Oct 09 2025 11:10:13 GMT-0500 (Central Daylight Time),180321.89999997616,A,trai,O,i,99,1,3548.399999976158,176773.5,7701,WL,A,4.0
1,13.546000003814697,learn,46453.9999961853,Thu Oct 09 2025 11:10:13 GMT-0500 (Central Daylight Time),180691.30000007153,A,train,O,n,363,1,3917.8000000715256,176773.5,7701,WL,A,4.0
1,14.042999982833862,learn,45957.00001716614,Thu Oct 09 2025 11:10:13 GMT-0500 (Central Daylight Time),181188.80000007153,A,trainenter,O,enter,477,1,4415.300000071526,176773.5,7701,WL,A,4.0
1,14.759999990463257,learn,45240.00000953674,Thu Oct 09 2025 11:10:13 GMT-0500 (Central Daylight Time),181906.0,A,g,O,g,711,1,716.8999999761581,181189.10000002384,7701,WL,A,5.0
1,14.878000020980835,learn,45121.999979019165,Thu Oct 09 2025 11:10:13 GMT-0500 (Central Daylight Time),182024.20000004768,A,go,O,o,104,1,835.1000000238419,181189.10000002384,7701,WL,A,5.0
1,15.07699990272522,learn,44923.00009727478,Thu Oct 09 2025 11:10:13 GMT-0500 (Central Daylight Time),182222.5,A,gol,O,l,178,1,1033.3999999761581,181189.10000002384,7701,WL,A,5.0
1,15.259999990463257,learn,44740.00000953674,Thu Oct 09 2025 11:10:13 GMT-0500 (Central Daylight Time),182405.70000004768,A,gold,O,d,163,1,1216.6000000238419,181189.10000002384,7701,WL,A,5.0
1,16.223999977111816,learn,43776.00002288818,Thu Oct 09 2025 11:10:13 GMT-0500 (Central Daylight Time),183370.20000004768,A,goldenter,O,enter,949,1,2181.100000023842,181189.10000002384,7701,WL,A,5.0
1,17.59500002861023,learn,42404.99997138977,Thu Oct 09 2025 11:10:13 GMT-0500 (Central Daylight Time),184740.60000002384,A,r,O,r,1353,1,1370.1000000238419,183370.5,7701,WL,A,6.0
1,17.759000062942505,learn,42240.999937057495,Thu Oct 09 2025 11:10:13 GMT-0500 (Central Daylight Time),184904.70000004768,A,ru,O,u,142,1,1534.2000000476837,183370.5,7701,WL,A,6.0
1,17.97499990463257,learn,42025.00009536743,Thu Oct 09 2025 11:10:13 GMT-0500 (Central Daylight Time),185121.10000002384,A,rug,O,g,203,1,1750.6000000238419,183370.5,7701,WL,A,6.0
1,18.174000024795532,learn,41825.99997520447,Thu Oct 09 2025 11:10:13 GMT-0500 (Central Daylight Time),185320.10000002384,A,rugenter,O,enter,194,1,1949.6000000238419,183370.5,7701,WL,A,6.0
1,31.22000002861023,learn,28779.99997138977,Thu Oct 09 2025 11:10:13 GMT-0500 (Central Daylight Time),198365.80000007153,A,b,O,b,13036,1,13045.400000095367,185320.39999997616,7701,WL,A,7.0
1,31.536999940872192,learn,28463.000059127808,Thu Oct 09 2025 11:10:13 GMT-0500 (Central Daylight Time),198682.70000004768,A,bo,O,o,308,1,13362.300000071526,185320.39999997616,7701,WL,A,7.0
1,31.687999963760376,learn,28312.000036239624,Thu Oct 09 2025 11:10:13 GMT-0500 (Central Daylight Time),198833.39999997616,A,boo,O,o,136,1,13513.0,185320.39999997616,7701,WL,A,7.0
1,32.00499987602234,learn,27995.00012397766,Thu Oct 09 2025 11:10:13 GMT-0500 (Central Daylight Time),199150.70000004768,A,book,O,k,296,1,13830.300000071526,185320.39999997616,7701,WL,A,7.0
1,32.50499987602234,learn,27495.00012397766,Thu Oct 09 2025 11:10:13 GMT-0500 (Central Daylight Time),199650.30000007153,A,bookenter,O,enter,485,1,14329.900000095367,185320.39999997616,7701,WL,A,7.0
1,39.88499999046326,learn,20115.000009536743,Thu Oct 09 2025 11:10:13 GMT-0500 (Central Daylight Time),207030.30000007153,A,l,O,l,7360,1,7379.700000047684,199650.60000002384,7701,WL,A,8.0
1,40.10199999809265,learn,19898.00000190735,Thu Oct 09 2025 11:10:13 GMT-0500 (Central Daylight Time),207248.0,A,lo,O,o,204,1,7597.399999976158,199650.60000002384,7701,WL,A,8.0
1,40.33500003814697,learn,19664.999961853027,Thu Oct 09 2025 11:10:13 GMT-0500 (Central Daylight Time),207481.0,A,log,O,g,229,1,7830.399999976158,199650.60000002384,7701,WL,A,8.0
1,40.736000061035156,learn,19263.999938964844,Thu Oct 09 2025 11:10:13 GMT-0500 (Central Daylight Time),207882.20000004768,A,logenter,O,enter,380,1,8231.600000023842,199650.60000002384,7701,WL,A,8.0
1,50.19799995422363,learn,9802.000045776367,Thu Oct 09 2025 11:10:13 GMT-0500 (Central Daylight Time),217343.89999997616,A,a,O,a,9440,1,9461.399999976158,207882.5,7701,WL,A,9.0
1,50.44799995422363,learn,9552.000045776367,Thu Oct 09 2025 11:10:13 GMT-0500 (Central Daylight Time),217593.39999997616,A,ap,O,p,236,1,9710.899999976158,207882.5,7701,WL,A,9.0
1,50.598999977111816,learn,9401.000022888184,Thu Oct 09 2025 11:10:13 GMT-0500 (Central Daylight Time),217744.89999997616,A,app,O,p,147,1,9862.399999976158,207882.5,7701,WL,A,9.0
1,50.930999994277954,learn,9069.000005722046,Thu Oct 09 2025 11:10:13 GMT-0500 (Central Daylight Time),218076.39999997616,A,appl,O,l,323,1,10193.899999976158,207882.5,7701,WL,A,9.0
1,51.18300008773804,learn,8816.999912261963,Thu Oct 09 2025 11:10:13 GMT-0500 (Central Daylight Time),218328.39999997616,A,apple,O,e,231,1,10445.899999976158,207882.5,7701,WL,A,9.0
1,51.63199996948242,learn,8368.000030517578,Thu Oct 09 2025 11:10:13 GMT-0500 (Central Daylight Time),218778.0,A,appleenter,O,enter,446,1,10895.5,207882.5,7701,WL,A,9.0
1,60.01200008392334,learn,-12.000083923339844,Thu Oct 09 2025 11:10:13 GMT-0500 (Central Daylight Time),227157.70000004768,A,None,O,None,8375,1,8379.399999976158,218778.30000007153,7701,WL,A,10.0
2,0.9839999675750732,learn,59016.00003242493,Thu Oct 09 2025 11:10:13 GMT-0500 (Central Daylight Time),299385.39999997616,A,l,O,l,975,1,983.0,298402.39999997616,7701,WL,A,1.0
2,1.1990001201629639,learn,58800.999879837036,Thu Oct 09 2025 11:10:13 GMT-0500 (Central Daylight Time),299600.39999997616,A,lo,O,o,198,1,1198.0,298402.39999997616,7701,WL,A,1.0
2,1.565999984741211,learn,58434.00001525879,Thu Oct 09 2025 11:10:13 GMT-0500 (Central Daylight Time),299967.5,A,log,O,g,345,1,1565.1000000238419,298402.39999997616,7701,WL,A,1.0
2,2.2320001125335693,learn,57767.99988746643,Thu Oct 09 2025 11:10:13 GMT-0500 (Central Daylight Time),300633.7000000477,A,logenter,O,enter,659,1,2231.3000000715256,298402.39999997616,7701,WL,A,1.0
2,2.815999984741211,learn,57184.00001525879,Thu Oct 09 2025 11:10:13 GMT-0500 (Central Daylight Time),301217.5,A,c,O,c,570,1,583.5,300634.0,7701,WL,A,2.0
2,2.949000120162964,learn,57050.999879837036,Thu Oct 09 2025 11:10:13 GMT-0500 (Central Daylight Time),301350.5,A,ch,O,h,112,1,716.5,300634.0,7701,WL,A,2.0
2,3.431999921798706,learn,56568.000078201294,Thu Oct 09 2025 11:10:13 GMT-0500 (Central Daylight Time),301833.5,A,chi,O,i,468,1,1199.5,300634.0,7701,WL,A,2.0
2,3.699000120162964,learn,56300.999879837036,Thu Oct 09 2025 11:10:13 GMT-0500 (Central Daylight Time),302100.7000000477,A,chim,O,m,248,1,1466.7000000476837,300634.0,7701,WL,A,2.0
2,3.9830000400543213,learn,56016.99995994568,Thu Oct 09 2025 11:10:13 GMT-0500 (Central Daylight Time),302384.8000000715,A,chimn,O,n,263,1,1750.8000000715256,300634.0,7701,WL,A,2.0
2,4.232000112533569,learn,55767.99988746643,Thu Oct 09 2025 11:10:13 GMT-0500 (Central Daylight Time),302633.7000000477,A,chimne,O,e,242,1,1999.7000000476837,300634.0,7701,WL,A,2.0
2,4.365000009536743,learn,55634.99999046326,Thu Oct 09 2025 11:10:13 GMT-0500 (Central Daylight Time),302766.39999997616,A,chimney,O,y,111,1,2132.399999976158,300634.0,7701,WL,A,2.0
2,6.400000095367432,learn,53599.99990463257,Thu Oct 09 2025 11:10:13 GMT-0500 (Central Daylight Time),304801.5,A,chimneyenter,O,enter,2030,1,4167.5,300634.0,7701,WL,A,2.0
2,6.947999954223633,learn,53052.00004577637,Thu Oct 09 2025 11:10:13 GMT-0500 (Central Daylight Time),305349.89999997616,A,k,O,k,529,1,548.0999999046326,304801.8000000715,7701,WL,A,3.0
2,7.081000089645386,learn,52918.999910354614,Thu Oct 09 2025 11:10:13 GMT-0500 (Central Daylight Time),305482.8000000715,A,ke,O,e,110,1,681.0,304801.8000000715,7701,WL,A,3.0
2,7.296999931335449,learn,52703.00006866455,Thu Oct 09 2025 11:10:13 GMT-0500 (Central Daylight Time),305698.7000000477,A,key,O,y,208,1,896.8999999761581,304801.8000000715,7701,WL,A,3.0
2,7.8480000495910645,learn,52151.999950408936,Thu Oct 09 2025 11:10:13 GMT-0500 (Central Daylight Time),306249.3000000715,A,keyenter,O,enter,535,1,1447.5,304801.8000000715,7701,WL,A,3.0
2,8.449000120162964,learn,51550.999879837036,Thu Oct 09 2025 11:10:13 GMT-0500 (Central Daylight Time),306849.89999997616,A,g,O,g,586,1,600.3999999761581,306249.5,7701,WL,A,4.0
2,8.564000129699707,learn,51435.99987030029,Thu Oct 09 2025 11:10:13 GMT-0500 (Central Daylight Time),306965.2000000477,A,go,O,o,95,1,715.7000000476837,306249.5,7701,WL,A,4.0
2,8.763999938964844,learn,51236.000061035156,Thu Oct 09 2025 11:10:13 GMT-0500 (Central Daylight Time),307165.2000000477,A,gol,O,l,190,1,915.7000000476837,306249.5,7701,WL,A,4.0
2,8.998000144958496,learn,51001.999855041504,Thu Oct 09 2025 11:10:13 GMT-0500 (Central Daylight Time),307399.5,A,gold,O,d,214,1,1150.0,306249.5,7701,WL,A,4.0
2,9.246999979019165,learn,50753.000020980835,Thu Oct 09 2025 11:10:13 GMT-0500 (Central Daylight Time),307648.2000000477,A,goldenter,O,enter,234,1,1398.7000000476837,306249.5,7701,WL,A,4.0
2,9.847000122070312,learn,50152.99987792969,Thu Oct 09 2025 11:10:13 GMT-0500 (Central Daylight Time),308248.8000000715,A,m,O,m,595,1,600.3000000715256,307648.5,7701,WL,A,5.0
2,9.98200011253357,learn,50017.99988746643,Thu Oct 09 2025 11:10:13 GMT-0500 (Central Daylight Time),308383.2000000477,A,me,O,e,125,1,734.7000000476837,307648.5,7701,WL,A,5.0
2,10.145999908447266,learn,49854.000091552734,Thu Oct 09 2025 11:10:13 GMT-0500 (Central Daylight Time),308547.89999997616,A,mea,O,a,154,1,899.3999999761581,307648.5,7701,WL,A,5.0
2,10.413000106811523,learn,49586.99989318848,Thu Oct 09 2025 11:10:13 GMT-0500 (Central Daylight Time),308814.3000000715,A,mead,O,d,247,1,1165.8000000715256,307648.5,7701,WL,A,5.0
2,10.61299991607666,learn,49387.00008392334,Thu Oct 09 2025 11:10:13 GMT-0500 (Central Daylight Time),309014.5,A,meado,O,o,179,1,1366.0,307648.5,7701,WL,A,5.0
2,10.895999908447266,learn,49104.000091552734,Thu Oct 09 2025 11:10:13 GMT-0500 (Central Daylight Time),309297.10000002384,A,meadow,O,w,276,1,1648.6000000238419,307648.5,7701,WL,A,5.0
2,11.645999908447266,learn,48354.000091552734,Thu Oct 09 2025 11:10:13 GMT-0500 (Central Daylight Time),310047.60000002384,A,meadowenter,O,enter,731,1,2399.100000023842,307648.5,7701,WL,A,5.0
2,12.796000003814697,learn,47203.9999961853,Thu Oct 09 2025 11:10:13 GMT-0500 (Central Daylight Time),311197.89999997616,A,a,O,a,1132,1,1150.0999999046326,310047.8000000715,7701,WL,A,6.0
2,13.02999997138977,learn,46970.00002861023,Thu Oct 09 2025 11:10:13 GMT-0500 (Central Daylight Time),311431.2000000477,A,ap,O,p,211,1,1383.3999999761581,310047.8000000715,7701,WL,A,6.0
2,13.128999948501587,learn,46871.00005149841,Thu Oct 09 2025 11:10:13 GMT-0500 (Central Daylight Time),311530.39999997616,A,app,O,p,93,1,1482.5999999046326,310047.8000000715,7701,WL,A,6.0
2,13.395999908447266,learn,46604.000091552734,Thu Oct 09 2025 11:10:13 GMT-0500 (Central Daylight Time),311797.10000002384,A,appl,O,l,257,1,1749.2999999523163,310047.8000000715,7701,WL,A,6.0
2,13.578999996185303,learn,46421.0000038147,Thu Oct 09 2025 11:10:13 GMT-0500 (Central Daylight Time),311980.0,A,apple,O,e,178,1,1932.1999999284744,310047.8000000715,7701,WL,A,6.0
2,13.86299991607666,learn,46137.00008392334,Thu Oct 09 2025 11:10:13 GMT-0500 (Central Daylight Time),312264.7000000477,A,appleenter,O,enter,262,1,2216.899999976158,310047.8000000715,7701,WL,A,6.0
2,17.66100001335144,learn,42338.99998664856,Thu Oct 09 2025 11:10:13 GMT-0500 (Central Daylight Time),316062.7000000477,A,r,O,r,3786,1,3797.7000000476837,312265.0,7701,WL,A,7.0
2,17.776999950408936,learn,42223.000049591064,Thu Oct 09 2025 11:10:13 GMT-0500 (Central Daylight Time),316178.5,A,ru,O,u,101,1,3913.5,312265.0,7701,WL,A,7.0
2,18.043999910354614,learn,41956.000089645386,Thu Oct 09 2025 11:10:13 GMT-0500 (Central Daylight Time),316445.0,A,rug,O,g,257,1,4180.0,312265.0,7701,WL,A,7.0
2,18.344000101089478,learn,41655.99989891052,Thu Oct 09 2025 11:10:13 GMT-0500 (Central Daylight Time),316745.60000002384,A,rugenter,O,enter,295,1,4480.600000023842,312265.0,7701,WL,A,7.0
2,20.592999935150146,learn,39407.00006484985,Thu Oct 09 2025 11:10:13 GMT-0500 (Central Daylight Time),318994.5,A,g,O,g,2234,1,2248.600000023842,316745.89999997616,7701,WL,A,8.0
2,20.72699999809265,learn,39273.00000190735,Thu Oct 09 2025 11:10:13 GMT-0500 (Central Daylight Time),319128.7000000477,A,go,O,o,128,1,2382.8000000715256,316745.89999997616,7701,WL,A,8.0
2,20.943000078201294,learn,39056.999921798706,Thu Oct 09 2025 11:10:13 GMT-0500 (Central Daylight Time),319344.2000000477,A,gol,O,l,203,1,2598.3000000715256,316745.89999997616,7701,WL,A,8.0
2,21.05900001525879,learn,38940.99998474121,Thu Oct 09 2025 11:10:13 GMT-0500 (Central Daylight Time),319460.5,A,gold,O,d,97,1,2714.600000023842,316745.89999997616,7701,WL,A,8.0
2,21.30999994277954,learn,38690.00005722046,Thu Oct 09 2025 11:10:13 GMT-0500 (Central Daylight Time),319711.3000000715,A,goldenter,O,enter,229,1,2965.4000000953674,316745.89999997616,7701,WL,A,8.0
2,29.039999961853027,learn,30960.000038146973,Thu Oct 09 2025 11:10:13 GMT-0500 (Central Daylight Time),327441.8000000715,A,k,O,k,7717,1,7730.300000071526,319711.5,7701,WL,A,9.0
2,29.27300000190735,learn,30726.99999809265,Thu Oct 09 2025 11:10:13 GMT-0500 (Central Daylight Time),327674.89999997616,A,ke,O,e,217,1,7963.399999976158,319711.5,7701,WL,A,9.0
2,29.44099998474121,learn,30559.00001525879,Thu Oct 09 2025 11:10:13 GMT-0500 (Central Daylight Time),327842.60000002384,A,key,O,y,161,1,8131.100000023842,319711.5,7701,WL,A,9.0
2,30.308000087738037,learn,29691.999912261963,Thu Oct 09 2025 11:10:13 GMT-0500 (Central Daylight Time),328708.89999997616,A,keyenter,O,enter,848,1,8997.399999976158,319711.5,7701,WL,A,9.0
2,31.390000104904175,learn,28609.999895095825,Thu Oct 09 2025 11:10:13 GMT-0500 (Central Daylight Time),329791.2000000477,A,r,O,r,1070,1,1082.0,328709.2000000477,7701,WL,A,10.0
2,31.60599994659424,learn,28394.00005340576,Thu Oct 09 2025 11:10:13 GMT-0500 (Central Daylight Time),330007.2000000477,A,ra,O,a,204,1,1298.0,328709.2000000477,7701,WL,A,10.0
2,31.806999921798706,learn,28193.000078201294,Thu Oct 09 2025 11:10:13 GMT-0500 (Central Daylight Time),330208.0,A,rat,O,t,189,1,1498.7999999523163,328709.2000000477,7701,WL,A,10.0
2,31.954999923706055,learn,28045.000076293945,Thu Oct 09 2025 11:10:13 GMT-0500 (Central Daylight Time),330356.89999997616,A,ratt,O,t,140,1,1647.6999999284744,328709.2000000477,7701,WL,A,10.0
2,32.27300000190735,learn,27726.99999809265,Thu Oct 09 2025 11:10:13 GMT-0500 (Central Daylight Time),330674.3000000715,A,rattl,O,l,314,1,1965.1000000238419,328709.2000000477,7701,WL,A,10.0
2,32.390000104904175,learn,27609.999895095825,Thu Oct 09 2025 11:10:13 GMT-0500 (Central Daylight Time),330791.0,A,rattle,O,e,97,1,2081.7999999523163,328709.2000000477,7701,WL,A,10.0
2,32.83899998664856,learn,27161.00001335144,Thu Oct 09 2025 11:10:13 GMT-0500 (Central Daylight Time),331240.2000000477,A,rattleenter,O,enter,433,1,2531.0,328709.2000000477,7701,WL,A,10.0
2,40.70300006866455,learn,19296.99993133545,Thu Oct 09 2025 11:10:13 GMT-0500 (Central Daylight Time),339104.60000002384,A,f,O,f,7851,1,7864.100000023842,331240.5,7701,WL,A,11.0
2,40.835999965667725,learn,19164.000034332275,Thu Oct 09 2025 11:10:13 GMT-0500 (Central Daylight Time),339237.7000000477,A,fi,O,i,122,1,7997.200000047684,331240.5,7701,WL,A,11.0
2,40.98699998855591,learn,19013.00001144409,Thu Oct 09 2025 11:10:13 GMT-0500 (Central Daylight Time),339388.3000000715,A,fin,O,n,133,1,8147.800000071526,331240.5,7701,WL,A,11.0
2,41.104000091552734,learn,18895.999908447266,Thu Oct 09 2025 11:10:13 GMT-0500 (Central Daylight Time),339505.39999997616,A,fing,O,g,101,1,8264.899999976158,331240.5,7701,WL,A,11.0
2,41.30299997329712,learn,18697.00002670288,Thu Oct 09 2025 11:10:13 GMT-0500 (Central Daylight Time),339704.89999997616,A,finge,O,e,193,1,8464.399999976158,331240.5,7701,WL,A,11.0
2,41.45300006866455,learn,18546.99993133545,Thu Oct 09 2025 11:10:13 GMT-0500 (Central Daylight Time),339854.60000002384,A,finger,O,r,130,1,8614.100000023842,331240.5,7701,WL,A,11.0
2,41.6029999256134,learn,18397.000074386597,Thu Oct 09 2025 11:10:13 GMT-0500 (Central Daylight Time),340004.5,A,fingerenter,O,enter,139,1,8764.0,331240.5,7701,WL,A,11.0
2,48.38599991798401,learn,11614.000082015991,Thu Oct 09 2025 11:10:13 GMT-0500 (Central Daylight Time),346787.5,A,t,O,t,6778,1,6782.600000023842,340004.89999997616,7701,WL,A,12.0
2,48.71799993515015,learn,11282.000064849854,Thu Oct 09 2025 11:10:13 GMT-0500 (Central Daylight Time),347119.0,A,tr,O,r,319,1,7114.100000023842,340004.89999997616,7701,WL,A,12.0
2,48.91799998283386,learn,11082.000017166138,Thu Oct 09 2025 11:10:13 GMT-0500 (Central Daylight Time),347319.8000000715,A,tra,O,a,180,1,7314.900000095367,340004.89999997616,7701,WL,A,12.0
2,49.03399991989136,learn,10966.000080108643,Thu Oct 09 2025 11:10:13 GMT-0500 (Central Daylight Time),347435.7000000477,A,trai,O,i,108,1,7430.800000071526,340004.89999997616,7701,WL,A,12.0
2,49.18499994277954,learn,10815.000057220459,Thu Oct 09 2025 11:10:13 GMT-0500 (Central Daylight Time),347586.39999997616,A,train,O,n,144,1,7581.5,340004.89999997616,7701,WL,A,12.0
2,50.38499999046326,learn,9615.000009536743,Thu Oct 09 2025 11:10:13 GMT-0500 (Central Daylight Time),348786.3000000715,A,trainenter,O,enter,1193,1,8781.400000095367,340004.89999997616,7701,WL,A,12.0
2,53.43400001525879,learn,6565.999984741211,Thu Oct 09 2025 11:10:13 GMT-0500 (Central Daylight Time),351835.0,A,b,O,b,3034,1,3048.5,348786.5,7701,WL,A,13.0
2,53.765000104904175,learn,6234.999895095825,Thu Oct 09 2025 11:10:13 GMT-0500 (Central Daylight Time),352166.7000000477,A,bo,O,o,313,1,3380.2000000476837,348786.5,7701,WL,A,13.0
2,53.901000022888184,learn,6098.999977111816,Thu Oct 09 2025 11:10:13 GMT-0500 (Central Daylight Time),352302.2000000477,A,boo,O,o,125,1,3515.7000000476837,348786.5,7701,WL,A,13.0
2,54.08299994468689,learn,5917.00005531311,Thu Oct 09 2025 11:10:13 GMT-0500 (Central Daylight Time),352484.8000000715,A,book,O,k,173,1,3698.3000000715256,348786.5,7701,WL,A,13.0
2,54.28200006484985,learn,5717.9999351501465,Thu Oct 09 2025 11:10:13 GMT-0500 (Central Daylight Time),352683.39999997616,A,bookenter,O,enter,182,1,3896.899999976158,348786.5,7701,WL,A,13.0
2,58.81500005722046,learn,1184.999942779541,Thu Oct 09 2025 11:10:13 GMT-0500 (Central Daylight Time),357216.10000002384,A,r,O,r,4520,1,4532.5,352683.60000002384,7701,WL,A,14.0
2,58.998000144958496,learn,1001.9998550415039,Thu Oct 09 2025 11:10:13 GMT-0500 (Central Daylight Time),357399.0,A,ru,O,u,172,1,4715.399999976158,352683.60000002384,7701,WL,A,14.0
2,59.29699993133545,learn,703.0000686645508,Thu Oct 09 2025 11:10:13 GMT-0500 (Central Daylight Time),357698.5,A,rug,O,g,288,1,5014.899999976158,352683.60000002384,7701,WL,A,14.0
2,59.56400012969971,learn,435.99987030029297,Thu Oct 09 2025 11:10:13 GMT-0500 (Central Daylight Time),357965.5,A,rugenter,O,enter,259,1,5281.899999976158,352683.60000002384,7701,WL,A,14.0
2,60.013999938964844,learn,-13.99993896484375,Thu Oct 09 2025 11:10:13 GMT-0500 (Central Daylight Time),358415.7000000477,A,None,O,None,447,1,450.0,357965.7000000477,7701,WL,A,15.0
3,0.7839999198913574,learn,59216.00008010864,Thu Oct 09 2025 11:10:13 GMT-0500 (Central Daylight Time),445788.39999997616,A,r,O,r,779,1,783.0999999046326,445005.3000000715,7701,WL,A,1.0
3,1.4160001277923584,learn,58583.99987220764,Thu Oct 09 2025 11:10:13 GMT-0500 (Central Daylight Time),446420.10000002384,A,ra,O,a,623,1,1414.7999999523163,445005.3000000715,7701,WL,A,1.0
3,1.7160000801086426,learn,58283.99991989136,Thu Oct 09 2025 11:10:13 GMT-0500 (Central Daylight Time),446720.60000002384,A,rat,O,t,288,1,1715.2999999523163,445005.3000000715,7701,WL,A,1.0
3,1.8819999694824219,learn,58118.00003051758,Thu Oct 09 2025 11:10:13 GMT-0500 (Central Daylight Time),446886.5,A,ratt,O,t,146,1,1881.1999999284744,445005.3000000715,7701,WL,A,1.0
3,2.117000102996826,learn,57882.999897003174,Thu Oct 09 2025 11:10:13 GMT-0500 (Central Daylight Time),447121.2000000477,A,rattl,O,l,220,1,2115.899999976158,445005.3000000715,7701,WL,A,1.0
3,2.2320001125335693,learn,57767.99988746643,Thu Oct 09 2025 11:10:13 GMT-0500 (Central Daylight Time),447236.7000000477,A,rattle,O,e,99,1,2231.399999976158,445005.3000000715,7701,WL,A,1.0
3,2.8989999294281006,learn,57101.0000705719,Thu Oct 09 2025 11:10:13 GMT-0500 (Central Daylight Time),447903.8000000715,A,rattleenter,O,enter,653,1,2898.5,445005.3000000715,7701,WL,A,1.0
3,3.4649999141693115,learn,56535.00008583069,Thu Oct 09 2025 11:10:13 GMT-0500 (Central Daylight Time),448469.89999997616,A,l,O,l,547,1,565.7999999523163,447904.10000002384,7701,WL,A,2.0
3,3.6670000553131104,learn,56332.99994468689,Thu Oct 09 2025 11:10:13 GMT-0500 (Central Daylight Time),448671.2000000477,A,lo,O,o,191,1,767.1000000238419,447904.10000002384,7701,WL,A,2.0
3,3.9000000953674316,learn,56099.99990463257,Thu Oct 09 2025 11:10:13 GMT-0500 (Central Daylight Time),448904.60000002384,A,log,O,g,212,1,1000.5,447904.10000002384,7701,WL,A,2.0
3,4.115000009536743,learn,55884.99999046326,Thu Oct 09 2025 11:10:13 GMT-0500 (Central Daylight Time),449119.5,A,logenter,O,enter,204,1,1215.3999999761581,447904.10000002384,7701,WL,A,2.0
3,4.598999977111816,learn,55401.00002288818,Thu Oct 09 2025 11:10:13 GMT-0500 (Central Daylight Time),449603.10000002384,A,r,O,r,477,1,483.39999997615814,449119.7000000477,7701,WL,A,3.0
3,4.75,learn,55250.0,Thu Oct 09 2025 11:10:13 GMT-0500 (Central Daylight Time),449754.10000002384,A,ru,O,u,136,1,634.3999999761581,449119.7000000477,7701,WL,A,3.0
3,5.115000009536743,learn,54884.99999046326,Thu Oct 09 2025 11:10:13 GMT-0500 (Central Daylight Time),450119.60000002384,A,rug,O,g,354,1,999.8999999761581,449119.7000000477,7701,WL,A,3.0
3,5.447000026702881,learn,54552.99997329712,Thu Oct 09 2025 11:10:13 GMT-0500 (Central Daylight Time),450452.0,A,rugenter,O,enter,317,1,1332.2999999523163,449119.7000000477,7701,WL,A,3.0
3,5.933000087738037,learn,54066.99991226196,Thu Oct 09 2025 11:10:13 GMT-0500 (Central Daylight Time),450937.3000000715,A,h,O,h,472,1,485.0,450452.3000000715,7701,WL,A,4.0
3,6.081000089645386,learn,53918.999910354614,Thu Oct 09 2025 11:10:13 GMT-0500 (Central Daylight Time),451085.2000000477,A,ha,O,a,129,1,632.8999999761581,450452.3000000715,7701,WL,A,4.0
3,6.248000144958496,learn,53751.999855041504,Thu Oct 09 2025 11:10:13 GMT-0500 (Central Daylight Time),451252.3000000715,A,har,O,r,149,1,800.0,450452.3000000715,7701,WL,A,4.0
3,6.4649999141693115,learn,53535.00008583069,Thu Oct 09 2025 11:10:13 GMT-0500 (Central Daylight Time),451470.0,A,harp,O,p,206,1,1017.6999999284744,450452.3000000715,7701,WL,A,4.0
3,6.953999996185303,learn,53046.0000038147,Thu Oct 09 2025 11:10:13 GMT-0500 (Central Daylight Time),451958.7000000477,A,harpenter,O,enter,486,1,1506.3999999761581,450452.3000000715,7701,WL,A,4.0
3,7.364000082015991,learn,52635.99991798401,Thu Oct 09 2025 11:10:13 GMT-0500 (Central Daylight Time),452368.5,A,b,O,b,398,1,409.5,451959.0,7701,WL,A,5.0
3,7.513999938964844,learn,52486.000061035156,Thu Oct 09 2025 11:10:13 GMT-0500 (Central Daylight Time),452518.8000000715,A,bu,O,u,139,1,559.8000000715256,451959.0,7701,WL,A,5.0
3,7.763999938964844,learn,52236.000061035156,Thu Oct 09 2025 11:10:13 GMT-0500 (Central Daylight Time),452768.3000000715,A,but,O,t,244,1,809.3000000715256,451959.0,7701,WL,A,5.0
3,7.963000059127808,learn,52036.99994087219,Thu Oct 09 2025 11:10:13 GMT-0500 (Central Daylight Time),452967.3000000715,A,butt,O,t,187,1,1008.3000000715256,451959.0,7701,WL,A,5.0
3,8.11299991607666,learn,51887.00008392334,Thu Oct 09 2025 11:10:13 GMT-0500 (Central Daylight Time),453118.10000002384,A,butto,O,o,133,1,1159.1000000238419,451959.0,7701,WL,A,5.0
3,8.299999952316284,learn,51700.000047683716,Thu Oct 09 2025 11:10:13 GMT-0500 (Central Daylight Time),453304.5,A,button,O,n,166,1,1345.5,451959.0,7701,WL,A,5.0
3,9.015000104904175,learn,50984.999895095825,Thu Oct 09 2025 11:10:13 GMT-0500 (Central Daylight Time),454019.2000000477,A,buttonenter,O,enter,700,1,2060.2000000476837,451959.0,7701,WL,A,5.0
3,9.496999979019165,learn,50503.000020980835,Thu Oct 09 2025 11:10:13 GMT-0500 (Central Daylight Time),454501.60000002384,A,m,O,m,472,1,482.10000002384186,454019.5,7701,WL,A,6.0
3,9.631999969482422,learn,50368.00003051758,Thu Oct 09 2025 11:10:13 GMT-0500 (Central Daylight Time),454636.10000002384,A,me,O,e,130,1,616.6000000238419,454019.5,7701,WL,A,6.0
3,9.79800009727478,learn,50201.99990272522,Thu Oct 09 2025 11:10:13 GMT-0500 (Central Daylight Time),454802.7000000477,A,mea,O,a,152,1,783.2000000476837,454019.5,7701,WL,A,6.0
3,10.015000104904175,learn,49984.999895095825,Thu Oct 09 2025 11:10:13 GMT-0500 (Central Daylight Time),455019.5,A,mead,O,d,208,1,1000.0,454019.5,7701,WL,A,6.0
3,10.21399998664856,learn,49786.00001335144,Thu Oct 09 2025 11:10:13 GMT-0500 (Central Daylight Time),455218.2000000477,A,meado,O,o,184,1,1198.7000000476837,454019.5,7701,WL,A,6.0
3,10.397000074386597,learn,49602.9999256134,Thu Oct 09 2025 11:10:13 GMT-0500 (Central Daylight Time),455401.60000002384,A,meadow,O,w,168,1,1382.1000000238419,454019.5,7701,WL,A,6.0
3,10.812999963760376,learn,49187.000036239624,Thu Oct 09 2025 11:10:13 GMT-0500 (Central Daylight Time),455817.7000000477,A,meadowenter,O,enter,404,1,1798.2000000476837,454019.5,7701,WL,A,6.0
3,12.328999996185303,learn,47671.0000038147,Thu Oct 09 2025 11:10:13 GMT-0500 (Central Daylight Time),457333.60000002384,A,t,O,t,1507,1,1515.7000000476837,455817.89999997616,7701,WL,A,7.0
3,12.597000122070312,learn,47402.99987792969,Thu Oct 09 2025 11:10:13 GMT-0500 (Central Daylight Time),457601.3000000715,A,tr,O,r,262,1,1783.4000000953674,455817.89999997616,7701,WL,A,7.0
3,12.746999979019165,learn,47253.000020980835,Thu Oct 09 2025 11:10:13 GMT-0500 (Central Daylight Time),457751.39999997616,A,tra,O,a,130,1,1933.5,455817.89999997616,7701,WL,A,7.0
3,12.880000114440918,learn,47119.99988555908,Thu Oct 09 2025 11:10:13 GMT-0500 (Central Daylight Time),457884.7000000477,A,trai,O,i,115,1,2066.8000000715256,455817.89999997616,7701,WL,A,7.0
3,12.996999979019165,learn,47003.000020980835,Thu Oct 09 2025 11:10:13 GMT-0500 (Central Daylight Time),458001.10000002384,A,train,O,n,104,1,2183.2000000476837,455817.89999997616,7701,WL,A,7.0
3,13.213000059127808,learn,46786.99994087219,Thu Oct 09 2025 11:10:13 GMT-0500 (Central Daylight Time),458217.60000002384,A,trainenter,O,enter,212,1,2399.7000000476837,455817.89999997616,7701,WL,A,7.0
3,13.977999925613403,learn,46022.0000743866,Thu Oct 09 2025 11:10:13 GMT-0500 (Central Daylight Time),458983.0,A,b,O,b,745,1,765.1000000238419,458217.89999997616,7701,WL,A,8.0
3,14.17900013923645,learn,45820.99986076355,Thu Oct 09 2025 11:10:13 GMT-0500 (Central Daylight Time),459183.5,A,bo,O,o,180,1,965.6000000238419,458217.89999997616,7701,WL,A,8.0
3,14.312000036239624,learn,45687.999963760376,Thu Oct 09 2025 11:10:13 GMT-0500 (Central Daylight Time),459317.0,A,boo,O,o,116,1,1099.1000000238419,458217.89999997616,7701,WL,A,8.0
3,14.52999997138977,learn,45470.00002861023,Thu Oct 09 2025 11:10:13 GMT-0500 (Central Daylight Time),459534.2000000477,A,book,O,k,199,1,1316.3000000715256,458217.89999997616,7701,WL,A,8.0
3,14.727999925613403,learn,45272.0000743866,Thu Oct 09 2025 11:10:13 GMT-0500 (Central Daylight Time),459732.89999997616,A,bookenter,O,enter,189,1,1515.0,458217.89999997616,7701,WL,A,8.0
3,15.26200008392334,learn,44737.99991607666,Thu Oct 09 2025 11:10:13 GMT-0500 (Central Daylight Time),460266.89999997616,A,f,O,f,519,1,533.6999999284744,459733.2000000477,7701,WL,A,9.0
3,15.380000114440918,learn,44619.99988555908,Thu Oct 09 2025 11:10:13 GMT-0500 (Central Daylight Time),460384.2000000477,A,fl,O,l,106,1,651.0,459733.2000000477,7701,WL,A,9.0
3,15.578999996185303,learn,44421.0000038147,Thu Oct 09 2025 11:10:13 GMT-0500 (Central Daylight Time),460583.89999997616,A,flo,O,o,178,1,850.6999999284744,459733.2000000477,7701,WL,A,9.0
3,15.712000131607056,learn,44287.999868392944,Thu Oct 09 2025 11:10:13 GMT-0500 (Central Daylight Time),460716.2000000477,A,flow,O,w,124,1,983.0,459733.2000000477,7701,WL,A,9.0
3,15.86299991607666,learn,44137.00008392334,Thu Oct 09 2025 11:10:13 GMT-0500 (Central Daylight Time),460867.7000000477,A,flowe,O,e,135,1,1134.5,459733.2000000477,7701,WL,A,9.0
3,16.01099991798401,learn,43989.00008201599,Thu Oct 09 2025 11:10:13 GMT-0500 (Central Daylight Time),461015.3000000715,A,flower,O,r,135,1,1282.1000000238419,459733.2000000477,7701,WL,A,9.0
3,16.27900004386902,learn,43720.99995613098,Thu Oct 09 2025 11:10:13 GMT-0500 (Central Daylight Time),461283.2000000477,A,flowerenter,O,enter,252,1,1550.0,459733.2000000477,7701,WL,A,9.0
3,16.663000106811523,learn,43336.99989318848,Thu Oct 09 2025 11:10:13 GMT-0500 (Central Daylight Time),461667.2000000477,A,f,O,f,378,1,383.7000000476837,461283.5,7701,WL,A,10.0
3,16.812999963760376,learn,43187.000036239624,Thu Oct 09 2025 11:10:13 GMT-0500 (Central Daylight Time),461817.3000000715,A,fi,O,i,127,1,533.8000000715256,461283.5,7701,WL,A,10.0
3,16.92799997329712,learn,43072.00002670288,Thu Oct 09 2025 11:10:13 GMT-0500 (Central Daylight Time),461932.60000002384,A,fin,O,n,107,1,649.1000000238419,461283.5,7701,WL,A,10.0
3,17.111000061035156,learn,42888.999938964844,Thu Oct 09 2025 11:10:13 GMT-0500 (Central Daylight Time),462115.7000000477,A,fing,O,g,175,1,832.2000000476837,461283.5,7701,WL,A,10.0
3,17.328999996185303,learn,42671.0000038147,Thu Oct 09 2025 11:10:13 GMT-0500 (Central Daylight Time),462333.7000000477,A,finge,O,e,199,1,1050.2000000476837,461283.5,7701,WL,A,10.0
3,17.444000005722046,learn,42555.999994277954,Thu Oct 09 2025 11:10:13 GMT-0500 (Central Daylight Time),462448.7000000477,A,finger,O,r,108,1,1165.2000000476837,461283.5,7701,WL,A,10.0
3,18.411999940872192,learn,41588.00005912781,Thu Oct 09 2025 11:10:13 GMT-0500 (Central Daylight Time),463416.7000000477,A,fingerenter,O,enter,953,1,2133.2000000476837,461283.5,7701,WL,A,10.0
3,19.361000061035156,learn,40638.999938964844,Thu Oct 09 2025 11:10:13 GMT-0500 (Central Daylight Time),464365.39999997616,A,g,O,g,938,1,948.3999999761581,463417.0,7701,WL,A,11.0
3,19.477999925613403,learn,40522.0000743866,Thu Oct 09 2025 11:10:13 GMT-0500 (Central Daylight Time),464482.3000000715,A,go,O,o,112,1,1065.3000000715256,463417.0,7701,WL,A,11.0
3,19.710999965667725,learn,40289.000034332275,Thu Oct 09 2025 11:10:13 GMT-0500 (Central Daylight Time),464715.2000000477,A,gol,O,l,216,1,1298.2000000476837,463417.0,7701,WL,A,11.0
3,20.125999927520752,learn,39874.00007247925,Thu Oct 09 2025 11:10:13 GMT-0500 (Central Daylight Time),465131.10000002384,A,gold,O,d,412,1,1714.1000000238419,463417.0,7701,WL,A,11.0
3,20.693000078201294,learn,39306.999921798706,Thu Oct 09 2025 11:10:13 GMT-0500 (Central Daylight Time),465697.3000000715,A,goldenter,O,enter,547,1,2280.3000000715256,463417.0,7701,WL,A,11.0
3,21.276000022888184,learn,38723.99997711182,Thu Oct 09 2025 11:10:13 GMT-0500 (Central Daylight Time),466280.3000000715,A,k,O,k,578,1,582.8000000715256,465697.5,7701,WL,A,12.0
3,21.41000008583069,learn,38589.99991416931,Thu Oct 09 2025 11:10:13 GMT-0500 (Central Daylight Time),466415.0,A,ke,O,e,122,1,717.5,465697.5,7701,WL,A,12.0
3,21.575999975204468,learn,38424.00002479553,Thu Oct 09 2025 11:10:13 GMT-0500 (Central Daylight Time),466580.2000000477,A,key,O,y,158,1,882.7000000476837,465697.5,7701,WL,A,12.0
3,22.062000036239624,learn,37937.999963760376,Thu Oct 09 2025 11:10:13 GMT-0500 (Central Daylight Time),467066.10000002384,A,keyenter,O,enter,482,1,1368.6000000238419,465697.5,7701,WL,A,12.0
3,22.41000008583069,learn,37589.99991416931,Thu Oct 09 2025 11:10:13 GMT-0500 (Central Daylight Time),467414.3000000715,A,c,O,c,329,1,347.90000009536743,467066.39999997616,7701,WL,A,13.0
3,22.526999950408936,learn,37473.000049591064,Thu Oct 09 2025 11:10:13 GMT-0500 (Central Daylight Time),467531.60000002384,A,ch,O,h,112,1,465.2000000476837,467066.39999997616,7701,WL,A,13.0
3,22.676000118255615,learn,37323.999881744385,Thu Oct 09 2025 11:10:13 GMT-0500 (Central Daylight Time),467680.3000000715,A,chi,O,i,143,1,613.9000000953674,467066.39999997616,7701,WL,A,13.0
3,22.844000101089478,learn,37155.99989891052,Thu Oct 09 2025 11:10:13 GMT-0500 (Central Daylight Time),467849.0,A,chim,O,m,164,1,782.6000000238419,467066.39999997616,7701,WL,A,13.0
3,23.35800004005432,learn,36641.99995994568,Thu Oct 09 2025 11:10:13 GMT-0500 (Central Daylight Time),468362.7000000477,A,chimn,O,n,497,1,1296.3000000715256,467066.39999997616,7701,WL,A,13.0
3,23.610000133514404,learn,36389.999866485596,Thu Oct 09 2025 11:10:13 GMT-0500 (Central Daylight Time),468614.5,A,chimne,O,e,241,1,1548.1000000238419,467066.39999997616,7701,WL,A,13.0
3,23.742000102996826,learn,36257.999897003174,Thu Oct 09 2025 11:10:13 GMT-0500 (Central Daylight Time),468747.10000002384,A,chimney,O,y,117,1,1680.7000000476837,467066.39999997616,7701,WL,A,13.0
3,24.342000007629395,learn,35657.999992370605,Thu Oct 09 2025 11:10:13 GMT-0500 (Central Daylight Time),469346.8000000715,A,chimneyenter,O,enter,583,1,2280.4000000953674,467066.39999997616,7701,WL,A,13.0
3,24.944999933242798,learn,35055.0000667572,Thu Oct 09 2025 11:10:13 GMT-0500 (Central Daylight Time),469949.60000002384,A,l,O,l,581,1,602.6000000238419,469347.0,7701,WL,A,14.0
3,25.111999988555908,learn,34888.00001144409,Thu Oct 09 2025 11:10:13 GMT-0500 (Central Daylight Time),470116.7000000477,A,lo,O,o,150,1,769.7000000476837,469347.0,7701,WL,A,14.0
3,25.223999977111816,learn,34776.00002288818,Thu Oct 09 2025 11:10:13 GMT-0500 (Central Daylight Time),470228.89999997616,A,log,O,g,103,1,881.8999999761581,469347.0,7701,WL,A,14.0
3,25.70900011062622,learn,34290.99988937378,Thu Oct 09 2025 11:10:13 GMT-0500 (Central Daylight Time),470714.10000002384,A,logenter,O,enter,482,1,1367.1000000238419,469347.0,7701,WL,A,14.0
3,29.891000032424927,learn,30108.999967575073,Thu Oct 09 2025 11:10:13 GMT-0500 (Central Daylight Time),474895.89999997616,A,s,O,s,4169,1,4181.599999904633,470714.3000000715,7701,WL,A,15.0
3,30.10700011253357,learn,29892.99988746643,Thu Oct 09 2025 11:10:13 GMT-0500 (Central Daylight Time),475111.5,A,sa,O,a,195,1,4397.199999928474,470714.3000000715,7701,WL,A,15.0
3,30.223999977111816,learn,29776.000022888184,Thu Oct 09 2025 11:10:13 GMT-0500 (Central Daylight Time),475228.8000000715,A,sal,O,l,101,1,4514.5,470714.3000000715,7701,WL,A,15.0
3,30.4760000705719,learn,29523.9999294281,Thu Oct 09 2025 11:10:13 GMT-0500 (Central Daylight Time),475480.39999997616,A,salt,O,t,229,1,4766.099999904633,470714.3000000715,7701,WL,A,15.0
3,30.939000129699707,learn,29060.999870300293,Thu Oct 09 2025 11:10:13 GMT-0500 (Central Daylight Time),475943.89999997616,A,saltenter,O,enter,447,1,5229.599999904633,470714.3000000715,7701,WL,A,15.0
4,0.8660001754760742,learn,59133.999824523926,Thu Oct 09 2025 11:10:13 GMT-0500 (Central Daylight Time),548188.6000000238,A,g,O,g,855,1,865.2999999523163,547323.3000000715,7701,WL,A,1.0
4,1.06600022315979,learn,58933.99977684021,Thu Oct 09 2025 11:10:13 GMT-0500 (Central Daylight Time),548388.8999999762,A,go,O,o,189,1,1065.5999999046326,547323.3000000715,7701,WL,A,1.0
4,1.2660000324249268,learn,58733.99996757507,Thu Oct 09 2025 11:10:13 GMT-0500 (Central Daylight Time),548588.8000000715,A,gol,O,l,182,1,1265.5,547323.3000000715,7701,WL,A,1.0
4,1.4150002002716064,learn,58584.99979972839,Thu Oct 09 2025 11:10:13 GMT-0500 (Central Daylight Time),548737.8999999762,A,gold,O,d,126,1,1414.5999999046326,547323.3000000715,7701,WL,A,1.0
4,1.6990001201629639,learn,58300.999879837036,Thu Oct 09 2025 11:10:13 GMT-0500 (Central Daylight Time),549022.0,A,goldenter,O,enter,267,1,1698.6999999284744,547323.3000000715,7701,WL,A,1.0
4,2.0820000171661377,learn,57917.99998283386,Thu Oct 09 2025 11:10:13 GMT-0500 (Central Daylight Time),549405.1000000238,A,f,O,f,374,1,382.7999999523163,549022.3000000715,7701,WL,A,2.0
4,2.200000047683716,learn,57799.999952316284,Thu Oct 09 2025 11:10:13 GMT-0500 (Central Daylight Time),549522.7000000477,A,fi,O,i,101,1,500.39999997615814,549022.3000000715,7701,WL,A,2.0
4,2.3480000495910645,learn,57651.999950408936,Thu Oct 09 2025 11:10:13 GMT-0500 (Central Daylight Time),549670.7000000477,A,fin,O,n,136,1,648.3999999761581,549022.3000000715,7701,WL,A,2.0
4,2.4650001525878906,learn,57534.99984741211,Thu Oct 09 2025 11:10:13 GMT-0500 (Central Daylight Time),549788.2000000477,A,fing,O,g,109,1,765.8999999761581,549022.3000000715,7701,WL,A,2.0
4,2.682000160217285,learn,57317.999839782715,Thu Oct 09 2025 11:10:13 GMT-0500 (Central Daylight Time),550005.2000000477,A,finge,O,e,199,1,982.8999999761581,549022.3000000715,7701,WL,A,2.0
4,2.8320000171661377,learn,57167.99998283386,Thu Oct 09 2025 11:10:13 GMT-0500 (Central Daylight Time),550154.3000000715,A,finger,O,r,133,1,1132.0,549022.3000000715,7701,WL,A,2.0
4,3.5830001831054688,learn,56416.99981689453,Thu Oct 09 2025 11:10:13 GMT-0500 (Central Daylight Time),550906.0,A,fingerenter,O,enter,748,1,1883.6999999284744,549022.3000000715,7701,WL,A,2.0
4,4.04800009727478,learn,55951.99990272522,Thu Oct 09 2025 11:10:13 GMT-0500 (Central Daylight Time),551371.1000000238,A,m,O,m,460,1,464.7999999523163,550906.3000000715,7701,WL,A,3.0
4,4.166000127792358,learn,55833.99987220764,Thu Oct 09 2025 11:10:13 GMT-0500 (Central Daylight Time),551489.0,A,me,O,e,111,1,582.6999999284744,550906.3000000715,7701,WL,A,3.0
4,4.314000129699707,learn,55685.99987030029,Thu Oct 09 2025 11:10:13 GMT-0500 (Central Daylight Time),551637.2000000477,A,mea,O,a,136,1,730.8999999761581,550906.3000000715,7701,WL,A,3.0
4,4.54800009727478,learn,55451.99990272522,Thu Oct 09 2025 11:10:13 GMT-0500 (Central Daylight Time),551870.7000000477,A,mead,O,d,212,1,964.3999999761581,550906.3000000715,7701,WL,A,3.0
4,4.9150002002716064,learn,55084.99979972839,Thu Oct 09 2025 11:10:13 GMT-0500 (Central Daylight Time),552237.5,A,meado,O,o,355,1,1331.1999999284744,550906.3000000715,7701,WL,A,3.0
4,5.065000057220459,learn,54934.99994277954,Thu Oct 09 2025 11:10:13 GMT-0500 (Central Daylight Time),552387.3000000715,A,meadow,O,w,132,1,1481.0,550906.3000000715,7701,WL,A,3.0
4,5.385000228881836,learn,54614.999771118164,Thu Oct 09 2025 11:10:13 GMT-0500 (Central Daylight Time),552707.7000000477,A,meadowenter,O,enter,306,1,1801.3999999761581,550906.3000000715,7701,WL,A,3.0
4,5.831000089645386,learn,54168.999910354614,Thu Oct 09 2025 11:10:13 GMT-0500 (Central Daylight Time),553154.0,A,b,O,b,441,1,446.10000002384186,552707.8999999762,7701,WL,A,4.0
4,5.985000133514404,learn,54014.999866485596,Thu Oct 09 2025 11:10:13 GMT-0500 (Central Daylight Time),553307.7000000477,A,bo,O,o,145,1,599.8000000715256,552707.8999999762,7701,WL,A,4.0
4,6.13100004196167,learn,53868.99995803833,Thu Oct 09 2025 11:10:13 GMT-0500 (Central Daylight Time),553453.8000000715,A,boo,O,o,133,1,745.9000000953674,552707.8999999762,7701,WL,A,4.0
4,6.331000089645386,learn,53668.999910354614,Thu Oct 09 2025 11:10:13 GMT-0500 (Central Daylight Time),553653.7000000477,A,book,O,k,179,1,945.8000000715256,552707.8999999762,7701,WL,A,4.0
4,6.514000177383423,learn,53485.99982261658,Thu Oct 09 2025 11:10:13 GMT-0500 (Central Daylight Time),553836.8999999762,A,bookenter,O,enter,173,1,1129.0,552707.8999999762,7701,WL,A,4.0
4,6.880000114440918,learn,53119.99988555908,Thu Oct 09 2025 11:10:13 GMT-0500 (Central Daylight Time),554202.5,A,t,O,t,358,1,365.39999997615814,553837.1000000238,7701,WL,A,5.0
4,7.181000232696533,learn,52818.99976730347,Thu Oct 09 2025 11:10:13 GMT-0500 (Central Daylight Time),554503.5,A,tr,O,r,281,1,666.3999999761581,553837.1000000238,7701,WL,A,5.0
4,7.364000082015991,learn,52635.99991798401,Thu Oct 09 2025 11:10:13 GMT-0500 (Central Daylight Time),554687.0,A,tra,O,a,162,1,849.8999999761581,553837.1000000238,7701,WL,A,5.0
4,7.464000225067139,learn,52535.99977493286,Thu Oct 09 2025 11:10:13 GMT-0500 (Central Daylight Time),554786.5,A,trai,O,i,94,1,949.3999999761581,553837.1000000238,7701,WL,A,5.0
4,7.630000114440918,learn,52369.99988555908,Thu Oct 09 2025 11:10:13 GMT-0500 (Central Daylight Time),554952.3999999762,A,train,O,n,159,1,1115.2999999523163,553837.1000000238,7701,WL,A,5.0
4,8.016000032424927,learn,51983.99996757507,Thu Oct 09 2025 11:10:13 GMT-0500 (Central Daylight Time),555338.6000000238,A,trainenter,O,enter,380,1,1501.5,553837.1000000238,7701,WL,A,5.0
4,8.481000185012817,learn,51518.99981498718,Thu Oct 09 2025 11:10:13 GMT-0500 (Central Daylight Time),555803.3000000715,A,r,O,r,449,1,464.40000009536743,555338.8999999762,7701,WL,A,6.0
4,8.616000175476074,learn,51383.999824523926,Thu Oct 09 2025 11:10:13 GMT-0500 (Central Daylight Time),555938.8999999762,A,ru,O,u,131,1,600.0,555338.8999999762,7701,WL,A,6.0
4,8.980000019073486,learn,51019.999980926514,Thu Oct 09 2025 11:10:13 GMT-0500 (Central Daylight Time),556302.6000000238,A,rug,O,g,351,1,963.7000000476837,555338.8999999762,7701,WL,A,6.0
4,9.231000185012817,learn,50768.99981498718,Thu Oct 09 2025 11:10:13 GMT-0500 (Central Daylight Time),556553.8999999762,A,rugenter,O,enter,238,1,1215.0,555338.8999999762,7701,WL,A,6.0
4,9.646000146865845,learn,50353.999853134155,Thu Oct 09 2025 11:10:13 GMT-0500 (Central Daylight Time),556968.8999999762,A,f,O,f,402,1,414.6999999284744,556554.2000000477,7701,WL,A,7.0
4,9.796000003814697,learn,50203.9999961853,Thu Oct 09 2025 11:10:13 GMT-0500 (Central Daylight Time),557118.8999999762,A,fl,O,l,139,1,564.6999999284744,556554.2000000477,7701,WL,A,7.0
4,9.996000051498413,learn,50003.99994850159,Thu Oct 09 2025 11:10:13 GMT-0500 (Central Daylight Time),557318.8999999762,A,flo,O,o,186,1,764.6999999284744,556554.2000000477,7701,WL,A,7.0
4,10.247000217437744,learn,49752.999782562256,Thu Oct 09 2025 11:10:13 GMT-0500 (Central Daylight Time),557569.3000000715,A,flow,O,w,236,1,1015.1000000238419,556554.2000000477,7701,WL,A,7.0
4,10.414000034332275,learn,49585.999965667725,Thu Oct 09 2025 11:10:13 GMT-0500 (Central Daylight Time),557736.6000000238,A,flowe,O,e,145,1,1182.3999999761581,556554.2000000477,7701,WL,A,7.0
4,10.597000122070312,learn,49402.99987792969,Thu Oct 09 2025 11:10:13 GMT-0500 (Central Daylight Time),557919.3999999762,A,flower,O,r,171,1,1365.1999999284744,556554.2000000477,7701,WL,A,7.0
4,11.979000091552734,learn,48020.999908447266,Thu Oct 09 2025 11:10:13 GMT-0500 (Central Daylight Time),559301.8999999762,A,flowerenter,O,enter,1366,1,2747.6999999284744,556554.2000000477,7701,WL,A,7.0
4,13.246000051498413,learn,46753.99994850159,Thu Oct 09 2025 11:10:13 GMT-0500 (Central Daylight Time),560568.5,A,h,O,h,1255,1,1266.3999999761581,559302.1000000238,7701,WL,A,8.0
4,13.395000219345093,learn,46604.99978065491,Thu Oct 09 2025 11:10:13 GMT-0500 (Central Daylight Time),560718.0,A,ha,O,a,140,1,1415.8999999761581,559302.1000000238,7701,WL,A,8.0
4,13.562000036239624,learn,46437.999963760376,Thu Oct 09 2025 11:10:13 GMT-0500 (Central Daylight Time),560884.7000000477,A,har,O,r,161,1,1582.6000000238419,559302.1000000238,7701,WL,A,8.0
4,14.028000116348267,learn,45971.99988365173,Thu Oct 09 2025 11:10:13 GMT-0500 (Central Daylight Time),561351.1000000238,A,harp,O,p,455,1,2049.0,559302.1000000238,7701,WL,A,8.0
4,14.561000108718872,learn,45438.99989128113,Thu Oct 09 2025 11:10:13 GMT-0500 (Central Daylight Time),561883.2000000477,A,harpenter,O,enter,517,1,2581.100000023842,559302.1000000238,7701,WL,A,8.0
4,15.027000188827515,learn,44972.999811172485,Thu Oct 09 2025 11:10:13 GMT-0500 (Central Daylight Time),562349.2000000477,A,s,O,s,454,1,465.7000000476837,561883.5,7701,WL,A,9.0
4,15.228000164031982,learn,44771.99983596802,Thu Oct 09 2025 11:10:13 GMT-0500 (Central Daylight Time),562550.6000000238,A,sa,O,a,183,1,667.1000000238419,561883.5,7701,WL,A,9.0
4,15.32800006866455,learn,44671.99993133545,Thu Oct 09 2025 11:10:13 GMT-0500 (Central Daylight Time),562650.6000000238,A,sal,O,l,82,1,767.1000000238419,561883.5,7701,WL,A,9.0
4,15.645000219345093,learn,44354.99978065491,Thu Oct 09 2025 11:10:13 GMT-0500 (Central Daylight Time),562967.3000000715,A,salt,O,t,297,1,1083.8000000715256,561883.5,7701,WL,A,9.0
4,16.41100001335144,learn,43588.99998664856,Thu Oct 09 2025 11:10:13 GMT-0500 (Central Daylight Time),563733.1000000238,A,saltenter,O,enter,748,1,1849.6000000238419,561883.5,7701,WL,A,9.0
4,17.329000234603882,learn,42670.99976539612,Thu Oct 09 2025 11:10:13 GMT-0500 (Central Daylight Time),564651.5,A,k,O,k,913,1,918.1000000238419,563733.3999999762,7701,WL,A,10.0
4,17.460000038146973,learn,42539.99996185303,Thu Oct 09 2025 11:10:13 GMT-0500 (Central Daylight Time),564782.6000000238,A,ke,O,e,112,1,1049.2000000476837,563733.3999999762,7701,WL,A,10.0
4,17.628000020980835,learn,42371.999979019165,Thu Oct 09 2025 11:10:13 GMT-0500 (Central Daylight Time),564950.2000000477,A,key,O,y,156,1,1216.8000000715256,563733.3999999762,7701,WL,A,10.0
4,17.897000074386597,learn,42102.9999256134,Thu Oct 09 2025 11:10:13 GMT-0500 (Central Daylight Time),565219.3999999762,A,keyenter,O,enter,252,1,1486.0,563733.3999999762,7701,WL,A,10.0
4,24.02500009536743,learn,35974.99990463257,Thu Oct 09 2025 11:10:13 GMT-0500 (Central Daylight Time),571347.8000000715,A,b,O,b,6113,1,6128.200000047684,565219.6000000238,7701,WL,A,11.0
4,24.19700002670288,learn,35802.99997329712,Thu Oct 09 2025 11:10:13 GMT-0500 (Central Daylight Time),571519.5,A,bu,O,u,161,1,6299.899999976158,565219.6000000238,7701,WL,A,11.0
4,24.45800018310547,learn,35541.99981689453,Thu Oct 09 2025 11:10:13 GMT-0500 (Central Daylight Time),571781.1000000238,A,but,O,t,252,1,6561.5,565219.6000000238,7701,WL,A,11.0
4,24.609000205993652,learn,35390.99979400635,Thu Oct 09 2025 11:10:13 GMT-0500 (Central Daylight Time),571931.7000000477,A,butt,O,t,141,1,6712.100000023842,565219.6000000238,7701,WL,A,11.0
4,24.725000143051147,learn,35274.99985694885,Thu Oct 09 2025 11:10:13 GMT-0500 (Central Daylight Time),572047.7000000477,A,butto,O,o,96,1,6828.100000023842,565219.6000000238,7701,WL,A,11.0
4,24.85800004005432,learn,35141.99995994568,Thu Oct 09 2025 11:10:13 GMT-0500 (Central Daylight Time),572180.5,A,button,O,n,125,1,6960.899999976158,565219.6000000238,7701,WL,A,11.0
4,25.10800004005432,learn,34891.99995994568,Thu Oct 09 2025 11:10:13 GMT-0500 (Central Daylight Time),572430.6000000238,A,buttonenter,O,enter,231,1,7211.0,565219.6000000238,7701,WL,A,11.0
4,32.82300019264221,learn,27176.999807357788,Thu Oct 09 2025 11:10:13 GMT-0500 (Central Daylight Time),580145.6000000238,A,k,O,k,7711,1,7714.799999952316,572430.8000000715,7701,WL,A,12.0
4,33.039000034332275,learn,26960.999965667725,Thu Oct 09 2025 11:10:13 GMT-0500 (Central Daylight Time),580361.8999999762,A,ke,O,e,210,1,7931.099999904633,572430.8000000715,7701,WL,A,12.0
4,33.206000089645386,learn,26793.999910354614,Thu Oct 09 2025 11:10:13 GMT-0500 (Central Daylight Time),580528.6000000238,A,key,O,y,154,1,8097.799999952316,572430.8000000715,7701,WL,A,12.0
4,33.5220000743866,learn,26477.999925613403,Thu Oct 09 2025 11:10:13 GMT-0500 (Central Daylight Time),580844.8000000715,A,keyenter,O,enter,300,1,8414.0,572430.8000000715,7701,WL,A,12.0
4,35.98800015449524,learn,24011.99984550476,Thu Oct 09 2025 11:10:13 GMT-0500 (Central Daylight Time),583310.5,A,l,O,l,2456,1,2465.5,580845.0,7701,WL,A,13.0
4,36.1710000038147,learn,23828.999996185303,Thu Oct 09 2025 11:10:13 GMT-0500 (Central Daylight Time),583494.0,A,lo,O,o,165,1,2649.0,580845.0,7701,WL,A,13.0
4,36.32200002670288,learn,23677.99997329712,Thu Oct 09 2025 11:10:13 GMT-0500 (Central Daylight Time),583644.2000000477,A,log,O,g,142,1,2799.2000000476837,580845.0,7701,WL,A,13.0
4,36.62100005149841,learn,23378.999948501587,Thu Oct 09 2025 11:10:13 GMT-0500 (Central Daylight Time),583943.3000000715,A,logenter,O,enter,280,1,3098.3000000715256,580845.0,7701,WL,A,13.0
4,50.950000047683716,learn,9049.999952316284,Thu Oct 09 2025 11:10:13 GMT-0500 (Central Daylight Time),598273.1000000238,A,enter,O,enter,14319,1,14329.700000047684,583943.3999999762,7701,WL,A,14.0
4,60.01400017738342,learn,-14.000177383422852,Thu Oct 09 2025 11:10:13 GMT-0500 (Central Daylight Time),607336.5,A,None,O,None,9058,1,9063.100000023842,598273.3999999762,7701,WL,A,15.0
5,0.9830000400543213,learn,60000.0,Thu Oct 09 2025 11:10:13 GMT-0500 (Central Daylight Time),692743.3000000715,A,b,O,b,974,1,983.2000000476837,691760.1000000238,7701,WL,A,1.0
5,1.2170000076293945,learn,60000.0,Thu Oct 09 2025 11:10:13 GMT-0500 (Central Daylight Time),692976.8999999762,A,bu,O,u,228,1,1216.7999999523163,691760.1000000238,7701,WL,A,1.0
5,1.9490001201629639,learn,60000.0,Thu Oct 09 2025 11:10:13 GMT-0500 (Central Daylight Time),693708.8999999762,A,but,O,t,723,1,1948.7999999523163,691760.1000000238,7701,WL,A,1.0
5,2.116000175476074,learn,60000.0,Thu Oct 09 2025 11:10:13 GMT-0500 (Central Daylight Time),693875.8000000715,A,butt,O,t,147,1,2115.7000000476837,691760.1000000238,7701,WL,A,1.0
5,2.25,learn,60000.0,Thu Oct 09 2025 11:10:13 GMT-0500 (Central Daylight Time),694010.1000000238,A,butto,O,o,129,1,2250.0,691760.1000000238,7701,WL,A,1.0
5,2.4170000553131104,learn,60000.0,Thu Oct 09 2025 11:10:13 GMT-0500 (Central Daylight Time),694177.3000000715,A,button,O,n,161,1,2417.2000000476837,691760.1000000238,7701,WL,A,1.0
5,3.3000001907348633,learn,60000.0,Thu Oct 09 2025 11:10:13 GMT-0500 (Central Daylight Time),695059.7000000477,A,buttonenter,O,enter,874,1,3299.600000023842,691760.1000000238,7701,WL,A,1.0
5,3.8500001430511475,learn,60000.0,Thu Oct 09 2025 11:10:13 GMT-0500 (Central Daylight Time),695609.8000000715,A,k,O,k,546,1,549.8000000715256,695060.0,7701,WL,A,2.0
5,3.9810001850128174,learn,60000.0,Thu Oct 09 2025 11:10:13 GMT-0500 (Central Daylight Time),695741.1000000238,A,ke,O,e,112,1,681.1000000238419,695060.0,7701,WL,A,2.0
5,4.148000001907349,learn,60000.0,Thu Oct 09 2025 11:10:13 GMT-0500 (Central Daylight Time),695908.2000000477,A,key,O,y,151,1,848.2000000476837,695060.0,7701,WL,A,2.0
5,4.881999969482422,learn,60000.0,Thu Oct 09 2025 11:10:13 GMT-0500 (Central Daylight Time),696642.6000000238,A,keyenter,O,enter,729,1,1582.6000000238419,695060.0,7701,WL,A,2.0
5,5.465000152587891,learn,60000.0,Thu Oct 09 2025 11:10:13 GMT-0500 (Central Daylight Time),697225.0,A,r,O,r,578,1,582.1000000238419,696642.8999999762,7701,WL,A,3.0
5,5.581000089645386,learn,60000.0,Thu Oct 09 2025 11:10:13 GMT-0500 (Central Daylight Time),697340.8000000715,A,ru,O,u,109,1,697.9000000953674,696642.8999999762,7701,WL,A,3.0
5,5.914999961853027,learn,60000.0,Thu Oct 09 2025 11:10:13 GMT-0500 (Central Daylight Time),697675.0,A,rug,O,g,319,1,1032.1000000238419,696642.8999999762,7701,WL,A,3.0
5,6.129000186920166,learn,60000.0,Thu Oct 09 2025 11:10:13 GMT-0500 (Central Daylight Time),697889.6000000238,A,rugenter,O,enter,209,1,1246.7000000476837,696642.8999999762,7701,WL,A,3.0
5,7.0980000495910645,learn,60000.0,Thu Oct 09 2025 11:10:13 GMT-0500 (Central Daylight Time),698857.8000000715,A,c,O,c,964,1,967.9000000953674,697889.8999999762,7701,WL,A,4.0
5,7.246999979019165,learn,60000.0,Thu Oct 09 2025 11:10:13 GMT-0500 (Central Daylight Time),699007.5,A,ch,O,h,137,1,1117.6000000238419,697889.8999999762,7701,WL,A,4.0
5,7.499000072479248,learn,60000.0,Thu Oct 09 2025 11:10:13 GMT-0500 (Central Daylight Time),699259.0,A,chi,O,i,237,1,1369.1000000238419,697889.8999999762,7701,WL,A,4.0
5,7.733000040054321,learn,60000.0,Thu Oct 09 2025 11:10:13 GMT-0500 (Central Daylight Time),699492.8000000715,A,chim,O,m,216,1,1602.9000000953674,697889.8999999762,7701,WL,A,4.0
5,8.430999994277954,learn,60000.0,Thu Oct 09 2025 11:10:13 GMT-0500 (Central Daylight Time),700190.8000000715,A,chimn,O,n,681,1,2300.9000000953674,697889.8999999762,7701,WL,A,4.0
5,8.581000089645386,learn,60000.0,Thu Oct 09 2025 11:10:13 GMT-0500 (Central Daylight Time),700341.1000000238,A,chimne,O,e,142,1,2451.2000000476837,697889.8999999762,7701,WL,A,4.0
5,8.730000019073486,learn,60000.0,Thu Oct 09 2025 11:10:13 GMT-0500 (Central Daylight Time),700490.1000000238,A,chimney,O,y,145,1,2600.2000000476837,697889.8999999762,7701,WL,A,4.0
5,9.062000036239624,learn,60000.0,Thu Oct 09 2025 11:10:13 GMT-0500 (Central Daylight Time),700822.6000000238,A,chimneyenter,O,enter,322,1,2932.7000000476837,697889.8999999762,7701,WL,A,4.0
5,9.547000169754028,learn,60000.0,Thu Oct 09 2025 11:10:13 GMT-0500 (Central Daylight Time),701307.1000000238,A,l,O,l,470,1,484.2999999523163,700822.8000000715,7701,WL,A,5.0
5,9.730000019073486,learn,60000.0,Thu Oct 09 2025 11:10:13 GMT-0500 (Central Daylight Time),701489.7000000477,A,lo,O,o,168,1,666.8999999761581,700822.8000000715,7701,WL,A,5.0
5,9.88100004196167,learn,60000.0,Thu Oct 09 2025 11:10:13 GMT-0500 (Central Daylight Time),701640.8999999762,A,log,O,g,138,1,818.0999999046326,700822.8000000715,7701,WL,A,5.0
5,10.265000104904175,learn,60000.0,Thu Oct 09 2025 11:10:13 GMT-0500 (Central Daylight Time),702024.7000000477,A,logenter,O,enter,363,1,1201.8999999761581,700822.8000000715,7701,WL,A,5.0
5,10.763000011444092,learn,60000.0,Thu Oct 09 2025 11:10:13 GMT-0500 (Central Daylight Time),702522.7000000477,A,m,O,m,483,1,497.8000000715256,702024.8999999762,7701,WL,A,6.0
5,10.88100004196167,learn,60000.0,Thu Oct 09 2025 11:10:13 GMT-0500 (Central Daylight Time),702641.0,A,me,O,e,105,1,616.1000000238419,702024.8999999762,7701,WL,A,6.0
5,10.996000051498413,learn,60000.0,Thu Oct 09 2025 11:10:13 GMT-0500 (Central Daylight Time),702756.6000000238,A,mea,O,a,106,1,731.7000000476837,702024.8999999762,7701,WL,A,6.0
5,11.230000019073486,learn,60000.0,Thu Oct 09 2025 11:10:13 GMT-0500 (Central Daylight Time),702990.0,A,mead,O,d,224,1,965.1000000238419,702024.8999999762,7701,WL,A,6.0
5,11.396000146865845,learn,60000.0,Thu Oct 09 2025 11:10:13 GMT-0500 (Central Daylight Time),703155.8999999762,A,meado,O,o,158,1,1131.0,702024.8999999762,7701,WL,A,6.0
5,11.562999963760376,learn,60000.0,Thu Oct 09 2025 11:10:13 GMT-0500 (Central Daylight Time),703322.8999999762,A,meadow,O,w,162,1,1298.0,702024.8999999762,7701,WL,A,6.0
5,11.897000074386597,learn,60000.0,Thu Oct 09 2025 11:10:13 GMT-0500 (Central Daylight Time),703657.1000000238,A,meadowenter,O,enter,322,1,1632.2000000476837,702024.8999999762,7701,WL,A,6.0
5,12.562999963760376,learn,60000.0,Thu Oct 09 2025 11:10:13 GMT-0500 (Central Daylight Time),704322.8000000715,A,b,O,b,651,1,665.5,703657.3000000715,7701,WL,A,7.0
5,12.763000011444092,learn,60000.0,Thu Oct 09 2025 11:10:13 GMT-0500 (Central Daylight Time),704523.1000000238,A,bo,O,o,184,1,865.7999999523163,703657.3000000715,7701,WL,A,7.0
5,12.912000179290771,learn,60000.0,Thu Oct 09 2025 11:10:13 GMT-0500 (Central Daylight Time),704672.5,A,boo,O,o,136,1,1015.1999999284744,703657.3000000715,7701,WL,A,7.0
5,13.097000122070312,learn,60000.0,Thu Oct 09 2025 11:10:13 GMT-0500 (Central Daylight Time),704857.3000000715,A,book,O,k,171,1,1200.0,703657.3000000715,7701,WL,A,7.0
5,13.328999996185303,learn,60000.0,Thu Oct 09 2025 11:10:13 GMT-0500 (Central Daylight Time),705088.7000000477,A,bookenter,O,enter,217,1,1431.3999999761581,703657.3000000715,7701,WL,A,7.0
5,13.746000051498413,learn,60000.0,Thu Oct 09 2025 11:10:13 GMT-0500 (Central Daylight Time),705506.1000000238,A,f,O,f,405,1,417.2000000476837,705088.8999999762,7701,WL,A,8.0
5,13.878000020980835,learn,60000.0,Thu Oct 09 2025 11:10:13 GMT-0500 (Central Daylight Time),705638.2000000477,A,fl,O,l,122,1,549.3000000715256,705088.8999999762,7701,WL,A,8.0
5,14.07800006866455,learn,60000.0,Thu Oct 09 2025 11:10:13 GMT-0500 (Central Daylight Time),705838.6000000238,A,flo,O,o,191,1,749.7000000476837,705088.8999999762,7701,WL,A,8.0
5,14.228000164031982,learn,60000.0,Thu Oct 09 2025 11:10:13 GMT-0500 (Central Daylight Time),705988.5,A,flow,O,w,133,1,899.6000000238419,705088.8999999762,7701,WL,A,8.0
5,14.361999988555908,learn,60000.0,Thu Oct 09 2025 11:10:13 GMT-0500 (Central Daylight Time),706122.3000000715,A,flowe,O,e,121,1,1033.4000000953674,705088.8999999762,7701,WL,A,8.0
5,14.495000123977661,learn,60000.0,Thu Oct 09 2025 11:10:13 GMT-0500 (Central Daylight Time),706254.8000000715,A,flower,O,r,122,1,1165.9000000953674,705088.8999999762,7701,WL,A,8.0
5,16.478000164031982,learn,60000.0,Thu Oct 09 2025 11:10:13 GMT-0500 (Central Daylight Time),708238.2000000477,A,flowerenter,O,enter,1975,1,3149.3000000715256,705088.8999999762,7701,WL,A,8.0
5,16.978000164031982,learn,60000.0,Thu Oct 09 2025 11:10:13 GMT-0500 (Central Daylight Time),708738.5,A,t,O,t,495,1,500.0,708238.5,7701,WL,A,9.0
5,17.210999965667725,learn,60000.0,Thu Oct 09 2025 11:10:13 GMT-0500 (Central Daylight Time),708970.7000000477,A,tr,O,r,218,1,732.2000000476837,708238.5,7701,WL,A,9.0
5,17.34600019454956,learn,60000.0,Thu Oct 09 2025 11:10:13 GMT-0500 (Central Daylight Time),709105.7000000477,A,tra,O,a,131,1,867.2000000476837,708238.5,7701,WL,A,9.0
5,17.527000188827515,learn,60000.0,Thu Oct 09 2025 11:10:13 GMT-0500 (Central Daylight Time),709287.0,A,trai,O,i,169,1,1048.5,708238.5,7701,WL,A,9.0
5,17.777000188827515,learn,60000.0,Thu Oct 09 2025 11:10:13 GMT-0500 (Central Daylight Time),709537.6000000238,A,train,O,n,237,1,1299.1000000238419,708238.5,7701,WL,A,9.0
5,19.32800006866455,learn,60000.0,Thu Oct 09 2025 11:10:13 GMT-0500 (Central Daylight Time),711087.6000000238,A,trainenter,O,enter,1538,1,2849.100000023842,708238.5,7701,WL,A,9.0
5,19.680999994277954,learn,60000.0,Thu Oct 09 2025 11:10:13 GMT-0500 (Central Daylight Time),711440.8999999762,A,a,O,a,332,1,353.0,711087.8999999762,7701,WL,A,10.0
5,19.91000008583069,learn,60000.0,Thu Oct 09 2025 11:10:13 GMT-0500 (Central Daylight Time),711670.3999999762,A,ap,O,p,212,1,582.5,711087.8999999762,7701,WL,A,10.0
5,20.06000018119812,learn,60000.0,Thu Oct 09 2025 11:10:13 GMT-0500 (Central Daylight Time),711820.0,A,app,O,p,130,1,732.1000000238419,711087.8999999762,7701,WL,A,10.0
5,20.292999982833862,learn,60000.0,Thu Oct 09 2025 11:10:13 GMT-0500 (Central Daylight Time),712053.3000000715,A,appl,O,l,224,1,965.4000000953674,711087.8999999762,7701,WL,A,10.0
5,20.610000133514404,learn,60000.0,Thu Oct 09 2025 11:10:13 GMT-0500 (Central Daylight Time),712370.6000000238,A,apple,O,e,302,1,1282.7000000476837,711087.8999999762,7701,WL,A,10.0
5,20.860000133514404,learn,60000.0,Thu Oct 09 2025 11:10:13 GMT-0500 (Central Daylight Time),712619.7000000477,A,appleenter,O,enter,243,1,1531.8000000715256,711087.8999999762,7701,WL,A,10.0
5,21.24400019645691,learn,60000.0,Thu Oct 09 2025 11:10:13 GMT-0500 (Central Daylight Time),713004.1000000238,A,s,O,s,368,1,384.2000000476837,712619.8999999762,7701,WL,A,11.0
5,21.39400005340576,learn,60000.0,Thu Oct 09 2025 11:10:13 GMT-0500 (Central Daylight Time),713154.1000000238,A,sa,O,a,138,1,534.2000000476837,712619.8999999762,7701,WL,A,11.0
5,21.509999990463257,learn,60000.0,Thu Oct 09 2025 11:10:13 GMT-0500 (Central Daylight Time),713270.2000000477,A,sal,O,l,97,1,650.3000000715256,712619.8999999762,7701,WL,A,11.0
5,21.759000062942505,learn,60000.0,Thu Oct 09 2025 11:10:13 GMT-0500 (Central Daylight Time),713519.3000000715,A,salt,O,t,235,1,899.4000000953674,712619.8999999762,7701,WL,A,11.0
5,22.028000116348267,learn,60000.0,Thu Oct 09 2025 11:10:13 GMT-0500 (Central Daylight Time),713788.3000000715,A,saltenter,O,enter,262,1,1168.4000000953674,712619.8999999762,7701,WL,A,11.0
5,23.12600016593933,learn,60000.0,Thu Oct 09 2025 11:10:13 GMT-0500 (Central Daylight Time),714886.1000000238,A,h,O,h,1088,1,1097.6000000238419,713788.5,7701,WL,A,12.0
5,23.292999982833862,learn,60000.0,Thu Oct 09 2025 11:10:13 GMT-0500 (Central Daylight Time),715053.3999999762,A,ha,O,a,149,1,1264.8999999761581,713788.5,7701,WL,A,12.0
5,23.4760000705719,learn,60000.0,Thu Oct 09 2025 11:10:13 GMT-0500 (Central Daylight Time),715236.3999999762,A,har,O,r,177,1,1447.8999999761581,713788.5,7701,WL,A,12.0
5,23.743000030517578,learn,60000.0,Thu Oct 09 2025 11:10:13 GMT-0500 (Central Daylight Time),715502.7000000477,A,harp,O,p,254,1,1714.2000000476837,713788.5,7701,WL,A,12.0
5,24.94099998474121,learn,60000.0,Thu Oct 09 2025 11:10:13 GMT-0500 (Central Daylight Time),716701.3999999762,A,harpenter,O,enter,1191,1,2912.899999976158,713788.5,7701,WL,A,12.0
5,50.33400011062622,learn,60000.0,Thu Oct 09 2025 11:10:13 GMT-0500 (Central Daylight Time),742094.0,A,h,O,h,25375,1,25392.299999952316,716701.7000000477,7701,WL,A,13.0
5,50.616000175476074,learn,60000.0,Thu Oct 09 2025 11:10:13 GMT-0500 (Central Daylight Time),742376.7000000477,A,ha,O,a,261,1,25675.0,716701.7000000477,7701,WL,A,13.0
5,50.782999992370605,learn,60000.0,Thu Oct 09 2025 11:10:13 GMT-0500 (Central Daylight Time),742543.6000000238,A,har,O,r,146,1,25841.899999976158,716701.7000000477,7701,WL,A,13.0
5,50.93300008773804,learn,60000.0,Thu Oct 09 2025 11:10:13 GMT-0500 (Central Daylight Time),742693.2000000477,A,harp,O,p,140,1,25991.5,716701.7000000477,7701,WL,A,13.0
5,51.68300008773804,learn,60000.0,Thu Oct 09 2025 11:10:13 GMT-0500 (Central Daylight Time),743443.3999999762,A,harpenter,O,enter,734,1,26741.699999928474,716701.7000000477,7701,WL,A,13.0
5,111.69800019264221,learn,60000.0,Thu Oct 09 2025 11:10:13 GMT-0500 (Central Daylight Time),803458.3999999762,A,None,O,None,60010,1,60014.799999952316,743443.6000000238,7701,WL,A,14.0
6,1.25,distr,58750.0,Thu Oct 09 2025 11:10:13 GMT-0500 (Central Daylight Time),906325.3999999762,B,c,O,c,1242,1,1250.0999999046326,905075.3000000715,7701,WL,A,1.0
6,1.3999998569488525,distr,58600.00014305115,Thu Oct 09 2025 11:10:13 GMT-0500 (Central Daylight Time),906475.1000000238,B,ch,O,h,133,1,1399.7999999523163,905075.3000000715,7701,WL,A,1.0
6,1.9489998817443848,distr,58051.000118255615,Thu Oct 09 2025 11:10:13 GMT-0500 (Central Daylight Time),907023.5,B,cha,O,a,529,1,1948.1999999284744,905075.3000000715,7701,WL,A,1.0
6,2.315999984741211,distr,57684.00001525879,Thu Oct 09 2025 11:10:13 GMT-0500 (Central Daylight Time),907391.5,B,chai,O,i,348,1,2316.1999999284744,905075.3000000715,7701,WL,A,1.0
6,2.5329999923706055,distr,57467.000007629395,Thu Oct 09 2025 11:10:13 GMT-0500 (Central Daylight Time),907608.1000000238,B,chair,O,r,196,1,2532.7999999523163,905075.3000000715,7701,WL,A,1.0
6,3.547999858856201,distr,56452.0001411438,Thu Oct 09 2025 11:10:13 GMT-0500 (Central Daylight Time),908623.3000000715,B,chairenter,O,enter,995,1,3548.0,905075.3000000715,7701,WL,A,1.0
6,3.9839999675750732,distr,56016.00003242493,Thu Oct 09 2025 11:10:13 GMT-0500 (Central Daylight Time),909059.0,B,d,O,d,423,1,435.5,908623.5,7701,WL,A,2.0
6,4.648999929428101,distr,55351.0000705719,Thu Oct 09 2025 11:10:13 GMT-0500 (Central Daylight Time),909724.3999999762,B,da,O,a,657,1,1100.8999999761581,908623.5,7701,WL,A,2.0
6,4.898000001907349,distr,55101.99999809265,Thu Oct 09 2025 11:10:13 GMT-0500 (Central Daylight Time),909973.3999999762,B,daw,O,w,230,1,1349.8999999761581,908623.5,7701,WL,A,2.0
6,5.447000026702881,distr,54552.99997329712,Thu Oct 09 2025 11:10:13 GMT-0500 (Central Daylight Time),910522.3000000715,B,dawn,O,n,533,1,1898.8000000715256,908623.5,7701,WL,A,2.0
6,7.363999843597412,distr,52636.00015640259,Thu Oct 09 2025 11:10:13 GMT-0500 (Central Daylight Time),912439.0,B,dawnenter,O,enter,1907,1,3815.5,908623.5,7701,WL,A,2.0
6,13.145999908447266,distr,46854.000091552734,Thu Oct 09 2025 11:10:13 GMT-0500 (Central Daylight Time),918221.5,B,g,O,g,5767,1,5782.299999952316,912439.2000000477,7701,WL,A,3.0
6,13.412999868392944,distr,46587.000131607056,Thu Oct 09 2025 11:10:13 GMT-0500 (Central Daylight Time),918488.0,B,gr,O,r,252,1,6048.799999952316,912439.2000000477,7701,WL,A,3.0
6,13.611999988555908,distr,46388.00001144409,Thu Oct 09 2025 11:10:13 GMT-0500 (Central Daylight Time),918687.5,B,gra,O,a,180,1,6248.299999952316,912439.2000000477,7701,WL,A,3.0
6,13.728999853134155,distr,46271.000146865845,Thu Oct 09 2025 11:10:13 GMT-0500 (Central Daylight Time),918804.3999999762,B,gran,O,n,100,1,6365.199999928474,912439.2000000477,7701,WL,A,3.0
6,13.963000059127808,distr,46036.99994087219,Thu Oct 09 2025 11:10:13 GMT-0500 (Central Daylight Time),919038.1000000238,B,grant,O,t,213,1,6598.899999976158,912439.2000000477,7701,WL,A,3.0
6,15.27999997138977,distr,44720.00002861023,Thu Oct 09 2025 11:10:13 GMT-0500 (Central Daylight Time),920354.7000000477,B,grantenter,O,enter,1310,1,7915.5,912439.2000000477,7701,WL,A,3.0
6,16.244999885559082,distr,43755.00011444092,Thu Oct 09 2025 11:10:13 GMT-0500 (Central Daylight Time),921320.0,B,b,O,b,946,1,965.1000000238419,920354.8999999762,7701,WL,A,4.0
6,16.378999948501587,distr,43621.00005149841,Thu Oct 09 2025 11:10:13 GMT-0500 (Central Daylight Time),921453.6000000238,B,bo,O,o,116,1,1098.7000000476837,920354.8999999762,7701,WL,A,4.0
6,16.810999870300293,distr,43189.00012969971,Thu Oct 09 2025 11:10:13 GMT-0500 (Central Daylight Time),921886.3999999762,B,bow,O,w,413,1,1531.5,920354.8999999762,7701,WL,A,4.0
6,17.111999988555908,distr,42888.00001144409,Thu Oct 09 2025 11:10:13 GMT-0500 (Central Daylight Time),922186.7000000477,B,bowl,O,l,295,1,1831.8000000715256,920354.8999999762,7701,WL,A,4.0
6,17.328999996185303,distr,42671.0000038147,Thu Oct 09 2025 11:10:13 GMT-0500 (Central Daylight Time),922403.8999999762,B,bowlenter,O,enter,209,1,2049.0,920354.8999999762,7701,WL,A,4.0
6,23.741999864578247,distr,36258.00013542175,Thu Oct 09 2025 11:10:13 GMT-0500 (Central Daylight Time),928817.5,B,s,O,s,6408,1,6413.399999976158,922404.1000000238,7701,WL,A,5.0
6,23.993000030517578,distr,36006.99996948242,Thu Oct 09 2025 11:10:13 GMT-0500 (Central Daylight Time),929068.0,B,su,O,u,235,1,6663.899999976158,922404.1000000238,7701,WL,A,5.0
6,24.246000051498413,distr,35753.99994850159,Thu Oct 09 2025 11:10:13 GMT-0500 (Central Daylight Time),929320.7000000477,B,sun,O,n,232,1,6916.600000023842,922404.1000000238,7701,WL,A,5.0
6,24.625999927520752,distr,35374.00007247925,Thu Oct 09 2025 11:10:13 GMT-0500 (Central Daylight Time),929701.0,B,sunr,O,r,363,1,7296.899999976158,922404.1000000238,7701,WL,A,5.0
6,24.79200005531311,distr,35207.99994468689,Thu Oct 09 2025 11:10:13 GMT-0500 (Central Daylight Time),929866.7000000477,B,sunri,O,i,150,1,7462.600000023842,922404.1000000238,7701,WL,A,5.0
6,24.85800004005432,distr,35141.99995994568,Thu Oct 09 2025 11:10:13 GMT-0500 (Central Daylight Time),929933.1000000238,B,sunris,O,s,57,1,7529.0,922404.1000000238,7701,WL,A,5.0
6,25.05900001525879,distr,34940.99998474121,Thu Oct 09 2025 11:10:13 GMT-0500 (Central Daylight Time),930134.5,B,sunrise,O,e,183,1,7730.399999976158,922404.1000000238,7701,WL,A,5.0
6,25.241999864578247,distr,34758.00013542175,Thu Oct 09 2025 11:10:13 GMT-0500 (Central Daylight Time),930317.3999999762,B,sunriseenter,O,enter,165,1,7913.299999952316,922404.1000000238,7701,WL,A,5.0
6,36.45700001716614,distr,23542.999982833862,Thu Oct 09 2025 11:10:13 GMT-0500 (Central Daylight Time),941531.6000000238,B,s,O,s,11208,1,11214.0,930317.6000000238,7701,WL,A,6.0
6,36.605000019073486,distr,23394.999980926514,Thu Oct 09 2025 11:10:13 GMT-0500 (Central Daylight Time),941679.8999999762,B,sh,O,h,128,1,11362.299999952316,930317.6000000238,7701,WL,A,6.0
6,36.92199993133545,distr,23078.00006866455,Thu Oct 09 2025 11:10:13 GMT-0500 (Central Daylight Time),941997.0,B,she,O,e,309,1,11679.399999976158,930317.6000000238,7701,WL,A,6.0
6,37.073999881744385,distr,22926.000118255615,Thu Oct 09 2025 11:10:13 GMT-0500 (Central Daylight Time),942148.8000000715,B,shee,O,e,146,1,11831.200000047684,930317.6000000238,7701,WL,A,6.0
6,37.204999923706055,distr,22795.000076293945,Thu Oct 09 2025 11:10:13 GMT-0500 (Central Daylight Time),942279.6000000238,B,sheep,O,p,119,1,11962.0,930317.6000000238,7701,WL,A,6.0
6,37.74000000953674,distr,22259.999990463257,Thu Oct 09 2025 11:10:13 GMT-0500 (Central Daylight Time),942814.7000000477,B,sheepenter,O,enter,518,1,12497.100000023842,930317.6000000238,7701,WL,A,6.0
6,50.80200004577637,distr,9197.999954223633,Thu Oct 09 2025 11:10:13 GMT-0500 (Central Daylight Time),955876.7000000477,B,m,O,m,13048,1,13061.800000071526,942814.8999999762,7701,WL,A,7.0
6,51.39999985694885,distr,8600.000143051147,Thu Oct 09 2025 11:10:13 GMT-0500 (Central Daylight Time),956475.1000000238,B,mo,O,o,583,1,13660.200000047684,942814.8999999762,7701,WL,A,7.0
6,51.567999839782715,distr,8432.000160217285,Thu Oct 09 2025 11:10:13 GMT-0500 (Central Daylight Time),956642.7000000477,B,mor,O,r,161,1,13827.800000071526,942814.8999999762,7701,WL,A,7.0
6,51.75099992752075,distr,8249.000072479248,Thu Oct 09 2025 11:10:13 GMT-0500 (Central Daylight Time),956825.8999999762,B,morn,O,n,168,1,14011.0,942814.8999999762,7701,WL,A,7.0
6,51.91700005531311,distr,8082.99994468689,Thu Oct 09 2025 11:10:13 GMT-0500 (Central Daylight Time),956992.0,B,morni,O,i,154,1,14177.100000023842,942814.8999999762,7701,WL,A,7.0
6,52.23399996757507,distr,7766.000032424927,Thu Oct 09 2025 11:10:13 GMT-0500 (Central Daylight Time),957308.7000000477,B,mornin,O,n,294,1,14493.800000071526,942814.8999999762,7701,WL,A,7.0
6,52.68499994277954,distr,7315.000057220459,Thu Oct 09 2025 11:10:13 GMT-0500 (Central Daylight Time),957760.0,B,morning,O,g,432,1,14945.100000023842,942814.8999999762,7701,WL,A,7.0
6,53.634000062942505,distr,6365.999937057495,Thu Oct 09 2025 11:10:13 GMT-0500 (Central Daylight Time),958708.8000000715,B,morningenter,O,enter,944,1,15893.900000095367,942814.8999999762,7701,WL,A,7.0
6,60.01600003242493,distr,-16.000032424926758,Thu Oct 09 2025 11:10:13 GMT-0500 (Central Daylight Time),965090.8000000715,B,None,O,None,6379,1,6381.800000071526,958709.0,7701,WL,A,8.0
7,0.8500001430511475,immed,59149.99985694885,Thu Oct 09 2025 11:10:13 GMT-0500 (Central Daylight Time),988232.3999999762,A,b,O,b,825,1,849.5999999046326,987382.8000000715,7701,WL,A,1.0
7,1.0520000457763672,immed,58947.99995422363,Thu Oct 09 2025 11:10:13 GMT-0500 (Central Daylight Time),988433.7000000477,A,bo,O,o,195,1,1050.8999999761581,987382.8000000715,7701,WL,A,1.0
7,1.2170000076293945,immed,58782.999992370605,Thu Oct 09 2025 11:10:13 GMT-0500 (Central Daylight Time),988598.8000000715,A,boo,O,o,152,1,1216.0,987382.8000000715,7701,WL,A,1.0
7,1.5499999523162842,immed,58450.000047683716,Thu Oct 09 2025 11:10:13 GMT-0500 (Central Daylight Time),988931.8000000715,A,book,O,k,317,1,1549.0,987382.8000000715,7701,WL,A,1.0
7,2.3500001430511475,immed,57649.99985694885,Thu Oct 09 2025 11:10:13 GMT-0500 (Central Daylight Time),989732.1000000238,A,bookenter,O,enter,782,1,2349.2999999523163,987382.8000000715,7701,WL,A,1.0
7,2.7660000324249268,immed,57233.99996757507,Thu Oct 09 2025 11:10:13 GMT-0500 (Central Daylight Time),990147.8999999762,A,f,O,f,400,1,415.5,989732.3999999762,7701,WL,A,2.0
7,2.883000135421753,immed,57116.99986457825,Thu Oct 09 2025 11:10:13 GMT-0500 (Central Daylight Time),990265.3000000715,A,fl,O,l,101,1,532.9000000953674,989732.3999999762,7701,WL,A,2.0
7,3.069000005722046,immed,56930.999994277954,Thu Oct 09 2025 11:10:13 GMT-0500 (Central Daylight Time),990450.7000000477,A,flo,O,o,177,1,718.3000000715256,989732.3999999762,7701,WL,A,2.0
7,3.2330000400543213,immed,56766.99995994568,Thu Oct 09 2025 11:10:13 GMT-0500 (Central Daylight Time),990615.3999999762,A,flow,O,w,142,1,883.0,989732.3999999762,7701,WL,A,2.0
7,3.365999937057495,immed,56634.000062942505,Thu Oct 09 2025 11:10:13 GMT-0500 (Central Daylight Time),990748.2000000477,A,flowe,O,e,116,1,1015.8000000715256,989732.3999999762,7701,WL,A,2.0
7,3.5160000324249268,immed,56483.99996757507,Thu Oct 09 2025 11:10:13 GMT-0500 (Central Daylight Time),990898.3000000715,A,flower,O,r,142,1,1165.9000000953674,989732.3999999762,7701,WL,A,2.0
7,3.8340001106262207,immed,56165.99988937378,Thu Oct 09 2025 11:10:13 GMT-0500 (Central Daylight Time),991216.3000000715,A,flowerenter,O,enter,302,1,1483.9000000953674,989732.3999999762,7701,WL,A,2.0
7,4.365000009536743,immed,55634.99999046326,Thu Oct 09 2025 11:10:13 GMT-0500 (Central Daylight Time),991747.8000000715,A,m,O,m,524,1,531.3000000715256,991216.5,7701,WL,A,3.0
7,4.5320000648498535,immed,55467.99993515015,Thu Oct 09 2025 11:10:13 GMT-0500 (Central Daylight Time),991914.5,A,me,O,e,149,1,698.0,991216.5,7701,WL,A,3.0
7,4.648999929428101,immed,55351.0000705719,Thu Oct 09 2025 11:10:13 GMT-0500 (Central Daylight Time),992030.8999999762,A,mea,O,a,102,1,814.3999999761581,991216.5,7701,WL,A,3.0
7,4.898999929428101,immed,55101.0000705719,Thu Oct 09 2025 11:10:13 GMT-0500 (Central Daylight Time),992281.3999999762,A,mead,O,d,243,1,1064.8999999761581,991216.5,7701,WL,A,3.0
7,5.084000110626221,immed,54915.99988937378,Thu Oct 09 2025 11:10:13 GMT-0500 (Central Daylight Time),992466.0,A,meado,O,o,169,1,1249.5,991216.5,7701,WL,A,3.0
7,5.299000024795532,immed,54700.99997520447,Thu Oct 09 2025 11:10:13 GMT-0500 (Central Daylight Time),992680.6000000238,A,meadow,O,w,190,1,1464.1000000238419,991216.5,7701,WL,A,3.0
7,5.666000127792358,immed,54333.99987220764,Thu Oct 09 2025 11:10:13 GMT-0500 (Central Daylight Time),993047.7000000477,A,meadowenter,O,enter,344,1,1831.2000000476837,991216.5,7701,WL,A,3.0
7,6.0320000648498535,immed,53967.99993515015,Thu Oct 09 2025 11:10:13 GMT-0500 (Central Daylight Time),993414.0,A,c,O,c,348,1,366.10000002384186,993047.8999999762,7701,WL,A,4.0
7,6.148000001907349,immed,53851.99999809265,Thu Oct 09 2025 11:10:13 GMT-0500 (Central Daylight Time),993530.5,A,ch,O,h,99,1,482.60000002384186,993047.8999999762,7701,WL,A,4.0
7,6.315000057220459,immed,53684.99994277954,Thu Oct 09 2025 11:10:13 GMT-0500 (Central Daylight Time),993697.1000000238,A,chi,O,i,151,1,649.2000000476837,993047.8999999762,7701,WL,A,4.0
7,6.482000112533569,immed,53517.99988746643,Thu Oct 09 2025 11:10:13 GMT-0500 (Central Daylight Time),993863.8000000715,A,chim,O,m,156,1,815.9000000953674,993047.8999999762,7701,WL,A,4.0
7,6.88700008392334,immed,53112.99991607666,Thu Oct 09 2025 11:10:13 GMT-0500 (Central Daylight Time),994269.2000000477,A,chimn,O,n,396,1,1221.3000000715256,993047.8999999762,7701,WL,A,4.0
7,7.065000057220459,immed,52934.99994277954,Thu Oct 09 2025 11:10:13 GMT-0500 (Central Daylight Time),994446.8000000715,A,chimne,O,e,158,1,1398.9000000953674,993047.8999999762,7701,WL,A,4.0
7,7.197999954223633,immed,52802.00004577637,Thu Oct 09 2025 11:10:13 GMT-0500 (Central Daylight Time),994580.2000000477,A,chimney,O,y,117,1,1532.3000000715256,993047.8999999762,7701,WL,A,4.0
7,7.88100004196167,immed,52118.99995803833,Thu Oct 09 2025 11:10:13 GMT-0500 (Central Daylight Time),995263.5,A,chimneyenter,O,enter,666,1,2215.600000023842,993047.8999999762,7701,WL,A,4.0
7,8.314000129699707,immed,51685.99987030029,Thu Oct 09 2025 11:10:13 GMT-0500 (Central Daylight Time),995696.3000000715,A,l,O,l,413,1,432.5,995263.8000000715,7701,WL,A,5.0
7,8.48200011253357,immed,51517.99988746643,Thu Oct 09 2025 11:10:13 GMT-0500 (Central Daylight Time),995863.8999999762,A,lo,O,o,151,1,600.0999999046326,995263.8000000715,7701,WL,A,5.0
7,8.781000137329102,immed,51218.9998626709,Thu Oct 09 2025 11:10:13 GMT-0500 (Central Daylight Time),996163.3000000715,A,log,O,g,274,1,899.5,995263.8000000715,7701,WL,A,5.0
7,9.680000066757202,immed,50319.9999332428,Thu Oct 09 2025 11:10:13 GMT-0500 (Central Daylight Time),997062.3999999762,A,logenter,O,enter,879,1,1798.5999999046326,995263.8000000715,7701,WL,A,5.0
7,10.079999923706055,immed,49920.000076293945,Thu Oct 09 2025 11:10:13 GMT-0500 (Central Daylight Time),997462.5,A,k,O,k,390,1,399.89999997615814,997062.6000000238,7701,WL,A,6.0
7,10.19700002670288,immed,49802.99997329712,Thu Oct 09 2025 11:10:13 GMT-0500 (Central Daylight Time),997579.3999999762,A,ke,O,e,107,1,516.7999999523163,997062.6000000238,7701,WL,A,6.0
7,10.348000049591064,immed,49651.999950408936,Thu Oct 09 2025 11:10:13 GMT-0500 (Central Daylight Time),997730.0,A,key,O,y,145,1,667.3999999761581,997062.6000000238,7701,WL,A,6.0
7,10.680999994277954,immed,49319.000005722046,Thu Oct 09 2025 11:10:13 GMT-0500 (Central Daylight Time),998062.8999999762,A,keyenter,O,enter,320,1,1000.2999999523163,997062.6000000238,7701,WL,A,6.0
7,11.829999923706055,immed,48170.000076293945,Thu Oct 09 2025 11:10:13 GMT-0500 (Central Daylight Time),999211.8000000715,A,f,O,f,1133,1,1148.7000000476837,998063.1000000238,7701,WL,A,7.0
7,11.996999979019165,immed,48003.000020980835,Thu Oct 09 2025 11:10:13 GMT-0500 (Central Daylight Time),999379.8000000715,A,fi,O,i,158,1,1316.7000000476837,998063.1000000238,7701,WL,A,7.0
7,12.114000082015991,immed,47885.99991798401,Thu Oct 09 2025 11:10:13 GMT-0500 (Central Daylight Time),999495.8000000715,A,fin,O,n,102,1,1432.7000000476837,998063.1000000238,7701,WL,A,7.0
7,12.246000051498413,immed,47753.99994850159,Thu Oct 09 2025 11:10:13 GMT-0500 (Central Daylight Time),999628.6000000238,A,fing,O,g,113,1,1565.5,998063.1000000238,7701,WL,A,7.0
7,12.480000019073486,immed,47519.999980926514,Thu Oct 09 2025 11:10:13 GMT-0500 (Central Daylight Time),999861.8999999762,A,finge,O,e,210,1,1798.7999999523163,998063.1000000238,7701,WL,A,7.0
7,12.611000061035156,immed,47388.999938964844,Thu Oct 09 2025 11:10:13 GMT-0500 (Central Daylight Time),999993.3999999762,A,finger,O,r,124,1,1930.2999999523163,998063.1000000238,7701,WL,A,7.0
7,13.380000114440918,immed,46619.99988555908,Thu Oct 09 2025 11:10:13 GMT-0500 (Central Daylight Time),1000761.6000000238,A,fingerenter,O,enter,765,1,2698.5,998063.1000000238,7701,WL,A,7.0
7,16.644999980926514,immed,43355.000019073486,Thu Oct 09 2025 11:10:13 GMT-0500 (Central Daylight Time),1004027.5,A,c,O,c,3258,1,3265.600000023842,1000761.8999999762,7701,WL,A,8.0
7,16.77900004386902,immed,43220.99995613098,Thu Oct 09 2025 11:10:13 GMT-0500 (Central Daylight Time),1004160.8000000715,A,ch,O,h,119,1,3398.9000000953674,1000761.8999999762,7701,WL,A,8.0
7,16.977999925613403,immed,43022.0000743866,Thu Oct 09 2025 11:10:13 GMT-0500 (Central Daylight Time),1004360.2000000477,A,chi,O,i,178,1,3598.3000000715256,1000761.8999999762,7701,WL,A,8.0
7,17.128999948501587,immed,42871.00005149841,Thu Oct 09 2025 11:10:13 GMT-0500 (Central Daylight Time),1004511.1000000238,A,chin,O,n,136,1,3749.2000000476837,1000761.8999999762,7701,WL,A,8.0
7,18.41000008583069,immed,41589.99991416931,Thu Oct 09 2025 11:10:13 GMT-0500 (Central Daylight Time),1005792.2000000477,A,chi,O,backspace,1275,1,5030.300000071526,1000761.8999999762,7701,WL,A,8.0
7,19.710000038146973,immed,40289.99996185303,Thu Oct 09 2025 11:10:13 GMT-0500 (Central Daylight Time),1007092.5,A,chim,O,m,1284,1,6330.600000023842,1000761.8999999762,7701,WL,A,8.0
7,19.927000045776367,immed,40072.99995422363,Thu Oct 09 2025 11:10:13 GMT-0500 (Central Daylight Time),1007309.5,A,chimn,O,n,203,1,6547.600000023842,1000761.8999999762,7701,WL,A,8.0
7,20.062000036239624,immed,39937.999963760376,Thu Oct 09 2025 11:10:13 GMT-0500 (Central Daylight Time),1007444.3999999762,A,chimne,O,e,124,1,6682.5,1000761.8999999762,7701,WL,A,8.0
7,20.210999965667725,immed,39789.000034332275,Thu Oct 09 2025 11:10:13 GMT-0500 (Central Daylight Time),1007593.1000000238,A,chimney,O,y,124,1,6831.200000047684,1000761.8999999762,7701,WL,A,8.0
7,20.99500012397766,immed,39004.99987602234,Thu Oct 09 2025 11:10:13 GMT-0500 (Central Daylight Time),1008377.1000000238,A,chimneyenter,O,enter,769,1,7615.200000047684,1000761.8999999762,7701,WL,A,8.0
7,21.47699999809265,immed,38523.00000190735,Thu Oct 09 2025 11:10:13 GMT-0500 (Central Daylight Time),1008859.3000000715,A,l,O,l,467,1,481.90000009536743,1008377.3999999762,7701,WL,A,9.0
7,21.644999980926514,immed,38355.000019073486,Thu Oct 09 2025 11:10:13 GMT-0500 (Central Daylight Time),1009027.3999999762,A,lo,O,o,159,1,650.0,1008377.3999999762,7701,WL,A,9.0
7,21.8270001411438,immed,38172.9998588562,Thu Oct 09 2025 11:10:13 GMT-0500 (Central Daylight Time),1009208.8000000715,A,log,O,g,159,1,831.4000000953674,1008377.3999999762,7701,WL,A,9.0
7,22.276999950408936,immed,37723.000049591064,Thu Oct 09 2025 11:10:13 GMT-0500 (Central Daylight Time),1009658.8999999762,A,logenter,O,enter,440,1,1281.5,1008377.3999999762,7701,WL,A,9.0
7,23.509999990463257,immed,36490.00000953674,Thu Oct 09 2025 11:10:13 GMT-0500 (Central Daylight Time),1010891.8000000715,A,g,O,g,1217,1,1232.7000000476837,1009659.1000000238,7701,WL,A,10.0
7,23.592000007629395,immed,36407.999992370605,Thu Oct 09 2025 11:10:13 GMT-0500 (Central Daylight Time),1010973.7000000477,A,go,O,o,60,1,1314.6000000238419,1009659.1000000238,7701,WL,A,10.0
7,23.79200005531311,immed,36207.99994468689,Thu Oct 09 2025 11:10:13 GMT-0500 (Central Daylight Time),1011174.3999999762,A,gol,O,l,190,1,1515.2999999523163,1009659.1000000238,7701,WL,A,10.0
7,23.943000078201294,immed,36056.999921798706,Thu Oct 09 2025 11:10:13 GMT-0500 (Central Daylight Time),1011325.3999999762,A,gold,O,d,132,1,1666.2999999523163,1009659.1000000238,7701,WL,A,10.0
7,24.611000061035156,immed,35388.999938964844,Thu Oct 09 2025 11:10:13 GMT-0500 (Central Daylight Time),1011992.7000000477,A,goldenter,O,enter,652,1,2333.600000023842,1009659.1000000238,7701,WL,A,10.0
7,31.789999961853027,immed,28210.000038146973,Thu Oct 09 2025 11:10:13 GMT-0500 (Central Daylight Time),1019172.1000000238,A,b,O,b,7171,1,7179.100000023842,1011993.0,7701,WL,A,11.0
7,32.00699996948242,immed,27993.000030517578,Thu Oct 09 2025 11:10:13 GMT-0500 (Central Daylight Time),1019389.7000000477,A,bu,O,u,210,1,7396.700000047684,1011993.0,7701,WL,A,11.0
7,32.2739999294281,immed,27726.0000705719,Thu Oct 09 2025 11:10:13 GMT-0500 (Central Daylight Time),1019656.2000000477,A,but,O,t,256,1,7663.200000047684,1011993.0,7701,WL,A,11.0
7,32.44000005722046,immed,27559.99994277954,Thu Oct 09 2025 11:10:13 GMT-0500 (Central Daylight Time),1019822.0,A,butt,O,t,146,1,7829.0,1011993.0,7701,WL,A,11.0
7,32.53999996185303,immed,27460.000038146973,Thu Oct 09 2025 11:10:13 GMT-0500 (Central Daylight Time),1019923.2000000477,A,butto,O,o,82,1,7930.200000047684,1011993.0,7701,WL,A,11.0
7,32.70700001716614,immed,27292.999982833862,Thu Oct 09 2025 11:10:13 GMT-0500 (Central Daylight Time),1020089.1000000238,A,button,O,n,141,1,8096.100000023842,1011993.0,7701,WL,A,11.0
7,33.14100003242493,immed,26858.999967575073,Thu Oct 09 2025 11:10:13 GMT-0500 (Central Daylight Time),1020523.1000000238,A,buttonenter,O,enter,426,1,8530.100000023842,1011993.0,7701,WL,A,11.0
7,33.575000047683716,immed,26424.999952316284,Thu Oct 09 2025 11:10:13 GMT-0500 (Central Daylight Time),1020957.3999999762,A,h,O,h,429,1,434.09999990463257,1020523.3000000715,7701,WL,A,12.0
7,33.723999977111816,immed,26276.000022888184,Thu Oct 09 2025 11:10:13 GMT-0500 (Central Daylight Time),1021106.2000000477,A,ha,O,a,124,1,582.8999999761581,1020523.3000000715,7701,WL,A,12.0
7,33.83899998664856,immed,26161.00001335144,Thu Oct 09 2025 11:10:13 GMT-0500 (Central Daylight Time),1021221.3000000715,A,har,O,r,101,1,698.0,1020523.3000000715,7701,WL,A,12.0
7,34.00600004196167,immed,25993.99995803833,Thu Oct 09 2025 11:10:13 GMT-0500 (Central Daylight Time),1021388.3000000715,A,harp,O,p,150,1,865.0,1020523.3000000715,7701,WL,A,12.0
7,34.388999938964844,immed,25611.000061035156,Thu Oct 09 2025 11:10:13 GMT-0500 (Central Daylight Time),1021771.2000000477,A,harpenter,O,enter,375,1,1247.8999999761581,1020523.3000000715,7701,WL,A,12.0
7,34.78999996185303,immed,25210.000038146973,Thu Oct 09 2025 11:10:13 GMT-0500 (Central Daylight Time),1022171.8999999762,A,s,O,s,386,1,400.39999997615814,1021771.5,7701,WL,A,13.0
7,34.973000049591064,immed,25026.999950408936,Thu Oct 09 2025 11:10:13 GMT-0500 (Central Daylight Time),1022355.3999999762,A,sa,O,a,168,1,583.8999999761581,1021771.5,7701,WL,A,13.0
7,35.08899998664856,immed,24911.00001335144,Thu Oct 09 2025 11:10:13 GMT-0500 (Central Daylight Time),1022471.1000000238,A,sal,O,l,95,1,699.6000000238419,1021771.5,7701,WL,A,13.0
7,35.40499997138977,immed,24595.00002861023,Thu Oct 09 2025 11:10:13 GMT-0500 (Central Daylight Time),1022787.7000000477,A,salt,O,t,300,1,1016.2000000476837,1021771.5,7701,WL,A,13.0
7,35.73900008201599,immed,24260.99991798401,Thu Oct 09 2025 11:10:13 GMT-0500 (Central Daylight Time),1023121.6000000238,A,saltenter,O,enter,320,1,1350.1000000238419,1021771.5,7701,WL,A,13.0
7,46.28600001335144,immed,13713.99998664856,Thu Oct 09 2025 11:10:13 GMT-0500 (Central Daylight Time),1033667.8999999762,A,enter,O,enter,10539,1,10546.099999904633,1023121.8000000715,7701,WL,A,14.0
7,47.00399994850159,immed,12996.000051498413,Thu Oct 09 2025 11:10:13 GMT-0500 (Central Daylight Time),1034386.2000000477,A,enter,O,enter,704,1,717.8999999761581,1033668.3000000715,7701,WL,A,15.0
