block_c,block_dur,condition,countdown,datetime,endtime,list,multichar_response,project,response,response_time,session_number,start_end,starttime,subject_id,task,task_vers,trial
,,,,Thu Jan 22 2026 16:37:33 GMT-0500 (Eastern Standard Time),,,,I,space,2576,1,,,9048,WL,A,
prac,,0,,Thu Jan 22 2026 16:37:33 GMT-0500 (Eastern Standard Time),,NA,b,I,b,6688,1,,,9048,WL,A,1.0
prac,,0,,Thu Jan 22 2026 16:37:33 GMT-0500 (Eastern Standard Time),,NA,bo,I,o,950,1,,,9048,WL,A,1.0
prac,,0,,Thu Jan 22 2026 16:37:33 GMT-0500 (Eastern Standard Time),,NA,bos,I,s,1653,1,,,9048,WL,A,1.0
prac,,0,,Thu Jan 22 2026 16:37:33 GMT-0500 (Eastern Standard Time),,NA,boss,I,s,334,1,,,9048,WL,A,1.0
prac,,0,,Thu Jan 22 2026 16:37:33 GMT-0500 (Eastern Standard Time),,NA,bosst,I,t,2384,1,,,9048,WL,A,1.0
prac,,0,,Thu Jan 22 2026 16:37:33 GMT-0500 (Eastern Standard Time),,NA,bosstenter,I,enter,10543,1,,,9048,WL,A,1.0
1,4.5329999923706055,learn,55467.000007629395,Thu Jan 22 2026 16:37:33 GMT-0500 (Eastern Standard Time),251879.4000005722,A,r,I,r,4512,1,4532.60000038147,247346.80000019073,9048,WL,A,1.0
1,5.233000040054321,learn,54766.99995994568,Thu Jan 22 2026 16:37:33 GMT-0500 (Eastern Standard Time),252579.19999980927,A,ru,I,u,683,1,5232.39999961853,247346.80000019073,9048,WL,A,1.0
1,6.466000080108643,learn,53533.99991989136,Thu Jan 22 2026 16:37:33 GMT-0500 (Eastern Standard Time),253812.4000005722,A,rug,I,g,1216,1,6465.60000038147,247346.80000019073,9048,WL,A,1.0
1,7.315999984741211,learn,52684.00001525879,Thu Jan 22 2026 16:37:33 GMT-0500 (Eastern Standard Time),254661.9000005722,A,rugenter,I,enter,830,1,7315.10000038147,247346.80000019073,9048,WL,A,1.0
1,9.08299994468689,learn,50917.00005531311,Thu Jan 22 2026 16:37:33 GMT-0500 (Eastern Standard Time),256429.10000038147,A,b,I,b,1743,1,1766.6000003814697,254662.5,9048,WL,A,2.0
1,9.900000095367432,learn,50099.99990463257,Thu Jan 22 2026 16:37:33 GMT-0500 (Eastern Standard Time),257245.80000019073,A,bo,I,o,790,1,2583.300000190735,254662.5,9048,WL,A,2.0
1,10.150000095367432,learn,49849.99990463257,Thu Jan 22 2026 16:37:33 GMT-0500 (Eastern Standard Time),257495.80000019073,A,boo,I,o,230,1,2833.300000190735,254662.5,9048,WL,A,2.0
1,10.450000047683716,learn,49549.999952316284,Thu Jan 22 2026 16:37:33 GMT-0500 (Eastern Standard Time),257795.69999980927,A,book,I,k,284,1,3133.199999809265,254662.5,9048,WL,A,2.0
1,11.799000024795532,learn,48200.99997520447,Thu Jan 22 2026 16:37:33 GMT-0500 (Eastern Standard Time),259145.19999980927,A,bookenter,I,enter,1326,1,4482.699999809265,254662.5,9048,WL,A,2.0
1,17.08299994468689,learn,42917.00005531311,Thu Jan 22 2026 16:37:33 GMT-0500 (Eastern Standard Time),264429.0,A,f,I,f,5260,1,5283.199999809265,259145.80000019073,9048,WL,A,3.0
1,18.216000080108643,learn,41783.99991989136,Thu Jan 22 2026 16:37:33 GMT-0500 (Eastern Standard Time),265562.5,A,fi,I,i,1100,1,6416.699999809265,259145.80000019073,9048,WL,A,3.0
1,19.600000143051147,learn,40399.99985694885,Thu Jan 22 2026 16:37:33 GMT-0500 (Eastern Standard Time),266945.80000019073,A,fin,I,n,1369,1,7800.0,259145.80000019073,9048,WL,A,3.0
1,20.23300004005432,learn,39766.99995994568,Thu Jan 22 2026 16:37:33 GMT-0500 (Eastern Standard Time),267579.30000019073,A,fing,I,g,609,1,8433.5,259145.80000019073,9048,WL,A,3.0
1,20.73300004005432,learn,39266.99995994568,Thu Jan 22 2026 16:37:33 GMT-0500 (Eastern Standard Time),268078.69999980927,A,finge,I,e,487,1,8932.89999961853,259145.80000019073,9048,WL,A,3.0
1,21.25,learn,38750.0,Thu Jan 22 2026 16:37:33 GMT-0500 (Eastern Standard Time),268595.80000019073,A,finger,I,r,501,1,9450.0,259145.80000019073,9048,WL,A,3.0
1,23.16600012779236,learn,36833.99987220764,Thu Jan 22 2026 16:37:33 GMT-0500 (Eastern Standard Time),270511.80000019073,A,fingerenter,I,enter,1903,1,11366.0,259145.80000019073,9048,WL,A,3.0
1,25.90000009536743,learn,34099.99990463257,Thu Jan 22 2026 16:37:33 GMT-0500 (Eastern Standard Time),273245.69999980927,A,r,I,r,2710,1,2733.3999996185303,270512.30000019073,9048,WL,A,4.0
1,26.433000087738037,learn,33566.99991226196,Thu Jan 22 2026 16:37:33 GMT-0500 (Eastern Standard Time),273779.10000038147,A,ru,I,u,517,1,3266.800000190735,270512.30000019073,9048,WL,A,4.0
1,27.56599998474121,learn,32434.00001525879,Thu Jan 22 2026 16:37:33 GMT-0500 (Eastern Standard Time),274912.30000019073,A,rug,I,g,1117,1,4400.0,270512.30000019073,9048,WL,A,4.0
1,28.83299994468689,learn,31167.00005531311,Thu Jan 22 2026 16:37:33 GMT-0500 (Eastern Standard Time),276178.60000038147,A,rugenter,I,enter,1251,1,5666.300000190735,270512.30000019073,9048,WL,A,4.0
1,42.83299994468689,learn,17167.00005531311,Thu Jan 22 2026 16:37:33 GMT-0500 (Eastern Standard Time),290178.9000005722,A,b,I,b,13987,1,13999.70000076294,276179.19999980927,9048,WL,A,5.0
1,43.782999992370605,learn,16217.000007629395,Thu Jan 22 2026 16:37:33 GMT-0500 (Eastern Standard Time),291129.0,A,bu,I,u,928,1,14949.800000190735,276179.19999980927,9048,WL,A,5.0
1,44.71600008010864,learn,15283.999919891357,Thu Jan 22 2026 16:37:33 GMT-0500 (Eastern Standard Time),292062.30000019073,A,but,I,t,923,1,15883.10000038147,276179.19999980927,9048,WL,A,5.0
1,45.43300008773804,learn,14566.999912261963,Thu Jan 22 2026 16:37:33 GMT-0500 (Eastern Standard Time),292778.80000019073,A,butt,I,t,693,1,16599.60000038147,276179.19999980927,9048,WL,A,5.0
1,45.88300013542175,learn,14116.999864578247,Thu Jan 22 2026 16:37:33 GMT-0500 (Eastern Standard Time),293229.0,A,butto,I,o,425,1,17049.800000190735,276179.19999980927,9048,WL,A,5.0
1,50.18300008773804,learn,9816.999912261963,Thu Jan 22 2026 16:37:33 GMT-0500 (Eastern Standard Time),297529.0,A,button,I,n,4278,1,21349.800000190735,276179.19999980927,9048,WL,A,5.0
1,51.08200001716614,learn,8917.999982833862,Thu Jan 22 2026 16:37:33 GMT-0500 (Eastern Standard Time),298428.5,A,buttonenter,I,enter,871,1,22249.300000190735,276179.19999980927,9048,WL,A,5.0
1,57.93300008773804,learn,2066.999912261963,Thu Jan 22 2026 16:37:33 GMT-0500 (Eastern Standard Time),305278.60000038147,A,f,I,f,6842,1,6849.60000038147,298429.0,9048,WL,A,6.0
1,58.799999952316284,learn,1200.0000476837158,Thu Jan 22 2026 16:37:33 GMT-0500 (Eastern Standard Time),306145.69999980927,A,fl,I,l,853,1,7716.699999809265,298429.0,9048,WL,A,6.0
1,59.799999952316284,learn,200.00004768371582,Thu Jan 22 2026 16:37:33 GMT-0500 (Eastern Standard Time),307145.60000038147,A,flo,I,o,977,1,8716.60000038147,298429.0,9048,WL,A,6.0
1,60.01600003242493,learn,-16.000032424926758,Thu Jan 22 2026 16:37:33 GMT-0500 (Eastern Standard Time),307362.5,A,floNone,I,None,206,1,8933.5,298429.0,9048,WL,A,6.0
2,8.700000047683716,learn,51299.999952316284,Thu Jan 22 2026 16:37:33 GMT-0500 (Eastern Standard Time),386362.4000005722,A,r,I,r,8678,1,8699.70000076294,377662.69999980927,9048,WL,A,1.0
2,9.350000143051147,learn,50649.99985694885,Thu Jan 22 2026 16:37:33 GMT-0500 (Eastern Standard Time),387012.30000019073,A,ra,I,a,629,1,9349.60000038147,377662.69999980927,9048,WL,A,1.0
2,11.583000183105469,learn,48416.99981689453,Thu Jan 22 2026 16:37:33 GMT-0500 (Eastern Standard Time),389244.80000019073,A,rat,I,t,2222,1,11582.10000038147,377662.69999980927,9048,WL,A,1.0
2,12.384000062942505,learn,47615.999937057495,Thu Jan 22 2026 16:37:33 GMT-0500 (Eastern Standard Time),390045.60000038147,A,ratt,I,t,777,1,12382.900000572205,377662.69999980927,9048,WL,A,1.0
2,13.133000135421753,learn,46866.99986457825,Thu Jan 22 2026 16:37:33 GMT-0500 (Eastern Standard Time),390795.5,A,rattl,I,l,725,1,13132.800000190735,377662.69999980927,9048,WL,A,1.0
2,13.683000087738037,learn,46316.99991226196,Thu Jan 22 2026 16:37:33 GMT-0500 (Eastern Standard Time),391345.5,A,rattle,I,e,536,1,13682.800000190735,377662.69999980927,9048,WL,A,1.0
2,14.815999984741211,learn,45184.00001525879,Thu Jan 22 2026 16:37:33 GMT-0500 (Eastern Standard Time),392478.30000019073,A,rattleenter,I,enter,1121,1,14815.60000038147,377662.69999980927,9048,WL,A,1.0
2,20.100000143051147,learn,39899.99985694885,Thu Jan 22 2026 16:37:33 GMT-0500 (Eastern Standard Time),397762.19999980927,A,g,I,g,5271,1,5283.39999961853,392478.80000019073,9048,WL,A,2.0
2,20.51699995994568,learn,39483.00004005432,Thu Jan 22 2026 16:37:33 GMT-0500 (Eastern Standard Time),398178.80000019073,A,go,I,o,398,1,5700.0,392478.80000019073,9048,WL,A,2.0
2,21.433000087738037,learn,38566.99991226196,Thu Jan 22 2026 16:37:33 GMT-0500 (Eastern Standard Time),399095.5,A,gol,I,l,896,1,6616.699999809265,392478.80000019073,9048,WL,A,2.0
2,22.200000047683716,learn,37799.999952316284,Thu Jan 22 2026 16:37:33 GMT-0500 (Eastern Standard Time),399862.19999980927,A,gold,I,d,749,1,7383.39999961853,392478.80000019073,9048,WL,A,2.0
2,23.433000087738037,learn,36566.99991226196,Thu Jan 22 2026 16:37:33 GMT-0500 (Eastern Standard Time),401094.9000005722,A,goldenter,I,enter,1212,1,8616.10000038147,392478.80000019073,9048,WL,A,2.0
2,27.317000150680542,learn,32682.999849319458,Thu Jan 22 2026 16:37:33 GMT-0500 (Eastern Standard Time),404978.9000005722,A,c,I,c,3870,1,3883.5,401095.4000005722,9048,WL,A,3.0
2,28.183000087738037,learn,31816.999912261963,Thu Jan 22 2026 16:37:33 GMT-0500 (Eastern Standard Time),405845.5,A,ch,I,h,850,1,4750.099999427795,401095.4000005722,9048,WL,A,3.0
2,28.91700005531311,learn,31082.99994468689,Thu Jan 22 2026 16:37:33 GMT-0500 (Eastern Standard Time),406578.9000005722,A,chi,I,i,718,1,5483.5,401095.4000005722,9048,WL,A,3.0
2,33.48300004005432,learn,26516.99995994568,Thu Jan 22 2026 16:37:33 GMT-0500 (Eastern Standard Time),411145.5,A,chiz,I,z,4546,1,10050.099999427795,401095.4000005722,9048,WL,A,3.0
2,34.38300013542175,learn,25616.999864578247,Thu Jan 22 2026 16:37:33 GMT-0500 (Eastern Standard Time),412045.60000038147,A,chizm,I,m,871,1,10950.199999809265,401095.4000005722,9048,WL,A,3.0
2,35.049999952316284,learn,24950.000047683716,Thu Jan 22 2026 16:37:33 GMT-0500 (Eastern Standard Time),412712.10000038147,A,chizme,I,e,646,1,11616.699999809265,401095.4000005722,9048,WL,A,3.0
2,35.65000009536743,learn,24349.99990463257,Thu Jan 22 2026 16:37:33 GMT-0500 (Eastern Standard Time),413312.10000038147,A,chizmey,I,y,588,1,12216.699999809265,401095.4000005722,9048,WL,A,3.0
2,36.616000175476074,learn,23383.999824523926,Thu Jan 22 2026 16:37:33 GMT-0500 (Eastern Standard Time),414278.4000005722,A,chizmeyenter,I,enter,947,1,13183.0,401095.4000005722,9048,WL,A,3.0
2,41.049999952316284,learn,18950.000047683716,Thu Jan 22 2026 16:37:33 GMT-0500 (Eastern Standard Time),418712.30000019073,A,t,I,t,4415,1,4433.39999961853,414278.9000005722,9048,WL,A,4.0
2,41.367000102996826,learn,18632.999897003174,Thu Jan 22 2026 16:37:33 GMT-0500 (Eastern Standard Time),419028.80000019073,A,tr,I,r,298,1,4749.89999961853,414278.9000005722,9048,WL,A,4.0
2,41.967000007629395,learn,18032.999992370605,Thu Jan 22 2026 16:37:33 GMT-0500 (Eastern Standard Time),419628.80000019073,A,tra,I,a,575,1,5349.89999961853,414278.9000005722,9048,WL,A,4.0
2,42.31700015068054,learn,17682.999849319458,Thu Jan 22 2026 16:37:33 GMT-0500 (Eastern Standard Time),419978.9000005722,A,trai,I,i,321,1,5700.0,414278.9000005722,9048,WL,A,4.0
2,44.51699995994568,learn,15483.000040054321,Thu Jan 22 2026 16:37:33 GMT-0500 (Eastern Standard Time),422178.80000019073,A,train,I,n,2185,1,7899.89999961853,414278.9000005722,9048,WL,A,4.0
2,45.26600003242493,learn,14733.999967575073,Thu Jan 22 2026 16:37:33 GMT-0500 (Eastern Standard Time),422928.4000005722,A,trainenter,I,enter,734,1,8649.5,414278.9000005722,9048,WL,A,4.0
2,60.01699995994568,learn,-16.99995994567871,Thu Jan 22 2026 16:37:33 GMT-0500 (Eastern Standard Time),437678.9000005722,A,None,I,None,14742,1,14750.10000038147,422928.80000019073,9048,WL,A,5.0
3,1.934000015258789,learn,58065.99998474121,Thu Jan 22 2026 16:37:33 GMT-0500 (Eastern Standard Time),507412.10000038147,A,g,I,g,1917,1,1933.0,505479.10000038147,9048,WL,A,1.0
3,2.2840001583099365,learn,57715.99984169006,Thu Jan 22 2026 16:37:33 GMT-0500 (Eastern Standard Time),507762.10000038147,A,go,I,o,335,1,2283.0,505479.10000038147,9048,WL,A,1.0
3,3.0340001583099365,learn,56965.99984169006,Thu Jan 22 2026 16:37:33 GMT-0500 (Eastern Standard Time),508512.0,A,gol,I,l,736,1,3032.8999996185303,505479.10000038147,9048,WL,A,1.0
3,5.800000190734863,learn,54199.99980926514,Thu Jan 22 2026 16:37:33 GMT-0500 (Eastern Standard Time),511278.60000038147,A,gold,I,d,2752,1,5799.5,505479.10000038147,9048,WL,A,1.0
3,7.200000047683716,learn,52799.999952316284,Thu Jan 22 2026 16:37:33 GMT-0500 (Eastern Standard Time),512678.30000019073,A,goldenter,I,enter,1380,1,7199.199999809265,505479.10000038147,9048,WL,A,1.0
3,7.91700005531311,learn,52082.99994468689,Thu Jan 22 2026 16:37:33 GMT-0500 (Eastern Standard Time),513395.30000019073,A,r,I,r,704,1,716.6000003814697,512678.69999980927,9048,WL,A,2.0
3,8.58400011062622,learn,51415.99988937378,Thu Jan 22 2026 16:37:33 GMT-0500 (Eastern Standard Time),514062.10000038147,A,ru,I,u,636,1,1383.4000005722046,512678.69999980927,9048,WL,A,2.0
3,9.501000165939331,learn,50498.99983406067,Thu Jan 22 2026 16:37:33 GMT-0500 (Eastern Standard Time),514978.69999980927,A,rug,I,g,901,1,2300.0,512678.69999980927,9048,WL,A,2.0
3,10.950000047683716,learn,49049.999952316284,Thu Jan 22 2026 16:37:33 GMT-0500 (Eastern Standard Time),516428.30000019073,A,rugenter,I,enter,1425,1,3749.6000003814697,512678.69999980927,9048,WL,A,2.0
3,11.83400011062622,learn,48165.99988937378,Thu Jan 22 2026 16:37:33 GMT-0500 (Eastern Standard Time),517311.9000005722,A,f,I,f,874,1,883.2000007629395,516428.69999980927,9048,WL,A,3.0
3,12.3510000705719,learn,47648.9999294281,Thu Jan 22 2026 16:37:33 GMT-0500 (Eastern Standard Time),517828.80000019073,A,fl,I,l,499,1,1400.1000003814697,516428.69999980927,9048,WL,A,3.0
3,13.117000102996826,learn,46882.999897003174,Thu Jan 22 2026 16:37:33 GMT-0500 (Eastern Standard Time),518595.30000019073,A,flo,I,o,748,1,2166.6000003814697,516428.69999980927,9048,WL,A,3.0
3,17.43400001525879,learn,42565.99998474121,Thu Jan 22 2026 16:37:33 GMT-0500 (Eastern Standard Time),522912.0,A,flow,I,w,4303,1,6483.300000190735,516428.69999980927,9048,WL,A,3.0
3,18.267000198364258,learn,41732.99980163574,Thu Jan 22 2026 16:37:33 GMT-0500 (Eastern Standard Time),523745.5,A,flowe,I,e,818,1,7316.800000190735,516428.69999980927,9048,WL,A,3.0
3,18.534000158309937,learn,41465.99984169006,Thu Jan 22 2026 16:37:33 GMT-0500 (Eastern Standard Time),524012.10000038147,A,flower,I,r,241,1,7583.400000572205,516428.69999980927,9048,WL,A,3.0
3,19.384999990463257,learn,40615.00000953674,Thu Jan 22 2026 16:37:33 GMT-0500 (Eastern Standard Time),524862.5,A,flowerenter,I,enter,839,1,8433.800000190735,516428.69999980927,9048,WL,A,3.0
3,20.700999975204468,learn,39299.00002479553,Thu Jan 22 2026 16:37:33 GMT-0500 (Eastern Standard Time),526178.6999998093,A,t,I,t,1303,1,1315.6999998092651,524863.0,9048,WL,A,4.0
3,21.067000150680542,learn,38932.99984931946,Thu Jan 22 2026 16:37:33 GMT-0500 (Eastern Standard Time),526545.4000005722,A,tr,I,r,352,1,1682.4000005722046,524863.0,9048,WL,A,4.0
3,21.717000007629395,learn,38282.999992370605,Thu Jan 22 2026 16:37:33 GMT-0500 (Eastern Standard Time),527195.4000005722,A,tra,I,a,625,1,2332.4000005722046,524863.0,9048,WL,A,4.0
3,22.1010000705719,learn,37898.9999294281,Thu Jan 22 2026 16:37:33 GMT-0500 (Eastern Standard Time),527578.6999998093,A,trai,I,i,360,1,2715.699999809265,524863.0,9048,WL,A,4.0
3,23.450000047683716,learn,36549.999952316284,Thu Jan 22 2026 16:37:33 GMT-0500 (Eastern Standard Time),528928.5,A,train,I,n,1336,1,4065.5,524863.0,9048,WL,A,4.0
3,24.200999975204468,learn,35799.00002479553,Thu Jan 22 2026 16:37:33 GMT-0500 (Eastern Standard Time),529679.4000005722,A,trainenter,I,enter,736,1,4816.400000572205,524863.0,9048,WL,A,4.0
3,27.43400001525879,learn,32565.99998474121,Thu Jan 22 2026 16:37:33 GMT-0500 (Eastern Standard Time),532911.9000005722,A,c,I,c,3223,1,3232.2000007629395,529679.6999998093,9048,WL,A,5.0
3,28.18400001525879,learn,31815.99998474121,Thu Jan 22 2026 16:37:33 GMT-0500 (Eastern Standard Time),533662.1000003815,A,ch,I,h,720,1,3982.4000005722046,529679.6999998093,9048,WL,A,5.0
3,29.483999967575073,learn,30516.000032424927,Thu Jan 22 2026 16:37:33 GMT-0500 (Eastern Standard Time),534962.0,A,chi,I,i,1284,1,5282.300000190735,529679.6999998093,9048,WL,A,5.0
3,33.08400011062622,learn,26915.99988937378,Thu Jan 22 2026 16:37:33 GMT-0500 (Eastern Standard Time),538562.0,A,chiz,I,z,3587,1,8882.300000190735,529679.6999998093,9048,WL,A,5.0
3,34.41700005531311,learn,25582.99994468689,Thu Jan 22 2026 16:37:33 GMT-0500 (Eastern Standard Time),539895.4000005722,A,chizn,I,n,1313,1,10215.70000076294,529679.6999998093,9048,WL,A,5.0
3,35.1010000705719,learn,24898.9999294281,Thu Jan 22 2026 16:37:33 GMT-0500 (Eastern Standard Time),540578.6000003815,A,chizne,I,e,668,1,10898.900000572205,529679.6999998093,9048,WL,A,5.0
3,35.66700005531311,learn,24332.99994468689,Thu Jan 22 2026 16:37:33 GMT-0500 (Eastern Standard Time),541145.5,A,chizney,I,y,545,1,11465.800000190735,529679.6999998093,9048,WL,A,5.0
3,39.70099997520447,learn,20299.000024795532,Thu Jan 22 2026 16:37:33 GMT-0500 (Eastern Standard Time),545178.6999998093,A,chizneyr,I,r,4009,1,15499.0,529679.6999998093,9048,WL,A,5.0
3,40.08500003814697,learn,19914.999961853027,Thu Jan 22 2026 16:37:33 GMT-0500 (Eastern Standard Time),545562.8000001907,A,chizneyru,I,u,360,1,15883.10000038147,529679.6999998093,9048,WL,A,5.0
3,41.867000102996826,learn,18132.999897003174,Thu Jan 22 2026 16:37:33 GMT-0500 (Eastern Standard Time),547345.4000005722,A,chizneyrug,I,g,1768,1,17665.70000076294,529679.6999998093,9048,WL,A,5.0
3,42.700000047683716,learn,17299.999952316284,Thu Jan 22 2026 16:37:33 GMT-0500 (Eastern Standard Time),548178.1000003815,A,chizneyrugenter,I,enter,818,1,18498.400000572205,529679.6999998093,9048,WL,A,5.0
3,45.867000102996826,learn,14132.999897003174,Thu Jan 22 2026 16:37:33 GMT-0500 (Eastern Standard Time),551345.1999998093,A,g,I,g,3157,1,3166.5999994277954,548178.6000003815,9048,WL,A,6.0
3,46.117000102996826,learn,13882.999897003174,Thu Jan 22 2026 16:37:33 GMT-0500 (Eastern Standard Time),551595.4000005722,A,go,I,o,225,1,3416.800000190735,548178.6000003815,9048,WL,A,6.0
3,47.06700015068054,learn,12932.999849319458,Thu Jan 22 2026 16:37:33 GMT-0500 (Eastern Standard Time),552545.3000001907,A,gol,I,l,935,1,4366.699999809265,548178.6000003815,9048,WL,A,6.0
3,51.73399996757507,learn,8266.000032424927,Thu Jan 22 2026 16:37:33 GMT-0500 (Eastern Standard Time),557212.1000003815,A,gold,I,d,4642,1,9033.5,548178.6000003815,9048,WL,A,6.0
3,53.31700015068054,learn,6682.999849319458,Thu Jan 22 2026 16:37:33 GMT-0500 (Eastern Standard Time),558794.9000005722,A,goldenter,I,enter,1559,1,10616.300000190735,548178.6000003815,9048,WL,A,6.0
3,60.01700019836426,learn,-17.000198364257812,Thu Jan 22 2026 16:37:33 GMT-0500 (Eastern Standard Time),565495.5,A,None,I,None,6694,1,6700.300000190735,558795.1999998093,9048,WL,A,7.0
4,6.401000022888184,learn,53598.99997711182,Thu Jan 22 2026 16:37:33 GMT-0500 (Eastern Standard Time),643328.6000003815,A,b,I,b,6387,1,6399.699999809265,636928.9000005722,9048,WL,A,1.0
4,6.834000110626221,learn,53165.99988937378,Thu Jan 22 2026 16:37:33 GMT-0500 (Eastern Standard Time),643762.0,A,bo,I,o,418,1,6833.099999427795,636928.9000005722,9048,WL,A,1.0
4,7.283999919891357,learn,52716.00008010864,Thu Jan 22 2026 16:37:33 GMT-0500 (Eastern Standard Time),644212.0,A,boo,I,o,432,1,7283.099999427795,636928.9000005722,9048,WL,A,1.0
4,8.75,learn,51250.0,Thu Jan 22 2026 16:37:33 GMT-0500 (Eastern Standard Time),645678.3000001907,A,book,I,k,1455,1,8749.39999961853,636928.9000005722,9048,WL,A,1.0
4,10.067000150680542,learn,49932.99984931946,Thu Jan 22 2026 16:37:33 GMT-0500 (Eastern Standard Time),646994.9000005722,A,bookenter,I,enter,1301,1,10066.0,636928.9000005722,9048,WL,A,1.0
4,14.200000047683716,learn,45799.999952316284,Thu Jan 22 2026 16:37:33 GMT-0500 (Eastern Standard Time),651128.6000003815,A,l,I,l,4116,1,4133.300000190735,646995.3000001907,9048,WL,A,2.0
4,14.516999959945679,learn,45483.00004005432,Thu Jan 22 2026 16:37:33 GMT-0500 (Eastern Standard Time),651445.1999998093,A,lo,I,o,298,1,4449.89999961853,646995.3000001907,9048,WL,A,2.0
4,16.049999952316284,learn,43950.000047683716,Thu Jan 22 2026 16:37:33 GMT-0500 (Eastern Standard Time),652978.5,A,log,I,g,1518,1,5983.199999809265,646995.3000001907,9048,WL,A,2.0
4,16.90000009536743,learn,43099.99990463257,Thu Jan 22 2026 16:37:33 GMT-0500 (Eastern Standard Time),653828.1000003815,A,logenter,I,enter,832,1,6832.800000190735,646995.3000001907,9048,WL,A,2.0
4,18.66700005531311,learn,41332.99994468689,Thu Jan 22 2026 16:37:33 GMT-0500 (Eastern Standard Time),655595.3000001907,A,f,I,f,1746,1,1766.8999996185303,653828.4000005722,9048,WL,A,3.0
4,19.384000062942505,learn,40615.999937057495,Thu Jan 22 2026 16:37:33 GMT-0500 (Eastern Standard Time),656311.9000005722,A,fi,I,i,695,1,2483.5,653828.4000005722,9048,WL,A,3.0
4,21.134000062942505,learn,38865.999937057495,Thu Jan 22 2026 16:37:33 GMT-0500 (Eastern Standard Time),658062.0,A,fin,I,n,1725,1,4233.599999427795,653828.4000005722,9048,WL,A,3.0
4,21.717000007629395,learn,38282.999992370605,Thu Jan 22 2026 16:37:33 GMT-0500 (Eastern Standard Time),658645.1999998093,A,fing,I,g,564,1,4816.799999237061,653828.4000005722,9048,WL,A,3.0
4,22.26699995994568,learn,37733.00004005432,Thu Jan 22 2026 16:37:33 GMT-0500 (Eastern Standard Time),659195.1999998093,A,finge,I,e,526,1,5366.799999237061,653828.4000005722,9048,WL,A,3.0
4,22.717000007629395,learn,37282.999992370605,Thu Jan 22 2026 16:37:33 GMT-0500 (Eastern Standard Time),659645.3000001907,A,finger,I,r,423,1,5816.89999961853,653828.4000005722,9048,WL,A,3.0
4,23.282999992370605,learn,36717.000007629395,Thu Jan 22 2026 16:37:33 GMT-0500 (Eastern Standard Time),660211.4000005722,A,fingerenter,I,enter,549,1,6383.0,653828.4000005722,9048,WL,A,3.0
4,26.567000150680542,learn,33432.99984931946,Thu Jan 22 2026 16:37:33 GMT-0500 (Eastern Standard Time),663495.1999998093,A,t,I,t,3267,1,3283.3999996185303,660211.8000001907,9048,WL,A,4.0
4,26.93400001525879,learn,33065.99998474121,Thu Jan 22 2026 16:37:33 GMT-0500 (Eastern Standard Time),663861.9000005722,A,tr,I,r,348,1,3650.1000003814697,660211.8000001907,9048,WL,A,4.0
4,27.66700005531311,learn,32332.99994468689,Thu Jan 22 2026 16:37:33 GMT-0500 (Eastern Standard Time),664595.1999998093,A,tra,I,a,718,1,4383.39999961853,660211.8000001907,9048,WL,A,4.0
4,28.0,learn,32000.0,Thu Jan 22 2026 16:37:33 GMT-0500 (Eastern Standard Time),664928.5,A,trai,I,i,321,1,4716.699999809265,660211.8000001907,9048,WL,A,4.0
4,28.867000102996826,learn,31132.999897003174,Thu Jan 22 2026 16:37:33 GMT-0500 (Eastern Standard Time),665795.1999998093,A,train,I,n,850,1,5583.39999961853,660211.8000001907,9048,WL,A,4.0
4,29.58299994468689,learn,30417.00005531311,Thu Jan 22 2026 16:37:33 GMT-0500 (Eastern Standard Time),666511.4000005722,A,trainenter,I,enter,705,1,6299.60000038147,660211.8000001907,9048,WL,A,4.0
4,31.049999952316284,learn,28950.000047683716,Thu Jan 22 2026 16:37:33 GMT-0500 (Eastern Standard Time),667978.6000003815,A,f,I,f,1447,1,1466.9000005722046,666511.6999998093,9048,WL,A,5.0
4,33.41700005531311,learn,26582.99994468689,Thu Jan 22 2026 16:37:33 GMT-0500 (Eastern Standard Time),670345.1999998093,A,fl,I,l,2346,1,3833.5,666511.6999998093,9048,WL,A,5.0
4,33.950000047683716,learn,26049.999952316284,Thu Jan 22 2026 16:37:33 GMT-0500 (Eastern Standard Time),670878.3000001907,A,flo,I,o,521,1,4366.60000038147,666511.6999998093,9048,WL,A,5.0
4,34.83400011062622,learn,25165.99988937378,Thu Jan 22 2026 16:37:33 GMT-0500 (Eastern Standard Time),671761.8000001907,A,flow,I,w,870,1,5250.10000038147,666511.6999998093,9048,WL,A,5.0
4,35.15000009536743,learn,24849.99990463257,Thu Jan 22 2026 16:37:33 GMT-0500 (Eastern Standard Time),672078.1999998093,A,flowe,I,e,306,1,5566.5,666511.6999998093,9048,WL,A,5.0
4,35.41700005531311,learn,24582.99994468689,Thu Jan 22 2026 16:37:33 GMT-0500 (Eastern Standard Time),672345.4000005722,A,flower,I,r,243,1,5833.700000762939,666511.6999998093,9048,WL,A,5.0
4,36.66700005531311,learn,23332.99994468689,Thu Jan 22 2026 16:37:33 GMT-0500 (Eastern Standard Time),673594.6999998093,A,flowerenter,I,enter,1225,1,7083.0,666511.6999998093,9048,WL,A,5.0
4,38.81700015068054,learn,21182.999849319458,Thu Jan 22 2026 16:37:33 GMT-0500 (Eastern Standard Time),675745.1999998093,A,b,I,b,2139,1,2150.0999994277954,673595.1000003815,9048,WL,A,6.0
4,39.10000014305115,learn,20899.999856948853,Thu Jan 22 2026 16:37:33 GMT-0500 (Eastern Standard Time),676028.1000003815,A,bo,I,o,256,1,2433.0,673595.1000003815,9048,WL,A,6.0
4,39.367000102996826,learn,20632.999897003174,Thu Jan 22 2026 16:37:33 GMT-0500 (Eastern Standard Time),676295.1999998093,A,boo,I,o,249,1,2700.0999994277954,673595.1000003815,9048,WL,A,6.0
4,39.799999952316284,learn,20200.000047683716,Thu Jan 22 2026 16:37:33 GMT-0500 (Eastern Standard Time),676728.6000003815,A,book,I,k,411,1,3133.5,673595.1000003815,9048,WL,A,6.0
4,40.88300013542175,learn,19116.999864578247,Thu Jan 22 2026 16:37:33 GMT-0500 (Eastern Standard Time),677811.4000005722,A,bookenter,I,enter,1066,1,4216.300000190735,673595.1000003815,9048,WL,A,6.0
4,45.15000009536743,learn,14849.999904632568,Thu Jan 22 2026 16:37:33 GMT-0500 (Eastern Standard Time),682078.5,A,l,I,l,4244,1,4266.800000190735,677811.6999998093,9048,WL,A,7.0
4,45.617000102996826,learn,14382.999897003174,Thu Jan 22 2026 16:37:33 GMT-0500 (Eastern Standard Time),682545.1999998093,A,lo,I,o,454,1,4733.5,677811.6999998093,9048,WL,A,7.0
4,46.85000014305115,learn,13149.999856948853,Thu Jan 22 2026 16:37:33 GMT-0500 (Eastern Standard Time),683778.5,A,log,I,g,1217,1,5966.800000190735,677811.6999998093,9048,WL,A,7.0
4,47.73300004005432,learn,12266.999959945679,Thu Jan 22 2026 16:37:33 GMT-0500 (Eastern Standard Time),684661.4000005722,A,logenter,I,enter,864,1,6849.700000762939,677811.6999998093,9048,WL,A,7.0
4,52.01699995994568,learn,7983.000040054321,Thu Jan 22 2026 16:37:33 GMT-0500 (Eastern Standard Time),688945.3000001907,A,r,I,r,4273,1,4283.39999961853,684661.9000005722,9048,WL,A,8.0
4,52.617000102996826,learn,7382.999897003174,Thu Jan 22 2026 16:37:33 GMT-0500 (Eastern Standard Time),689544.9000005722,A,ra,I,a,576,1,4883.0,684661.9000005722,9048,WL,A,8.0
4,54.10000014305115,learn,5899.9998569488525,Thu Jan 22 2026 16:37:33 GMT-0500 (Eastern Standard Time),691028.5,A,rat,I,t,1464,1,6366.599999427795,684661.9000005722,9048,WL,A,8.0
4,54.33400011062622,learn,5665.999889373779,Thu Jan 22 2026 16:37:33 GMT-0500 (Eastern Standard Time),691261.9000005722,A,ratt,I,t,208,1,6600.0,684661.9000005722,9048,WL,A,8.0
4,55.16700005531311,learn,4832.99994468689,Thu Jan 22 2026 16:37:33 GMT-0500 (Eastern Standard Time),692094.9000005722,A,rattl,I,l,821,1,7433.0,684661.9000005722,9048,WL,A,8.0
4,56.049999952316284,learn,3950.000047683716,Thu Jan 22 2026 16:37:33 GMT-0500 (Eastern Standard Time),692978.5,A,rattle,I,e,867,1,8316.599999427795,684661.9000005722,9048,WL,A,8.0
4,57.0,learn,3000.0,Thu Jan 22 2026 16:37:33 GMT-0500 (Eastern Standard Time),693928.0,A,rattleenter,I,enter,928,1,9266.099999427795,684661.9000005722,9048,WL,A,8.0
4,60.01699995994568,learn,-16.99995994567871,Thu Jan 22 2026 16:37:33 GMT-0500 (Eastern Standard Time),696945.1999998093,A,None,I,None,3010,1,3016.7999992370605,693928.4000005722,9048,WL,A,9.0
5,2.6500000953674316,learn,60000.0,Thu Jan 22 2026 16:37:33 GMT-0500 (Eastern Standard Time),767245.5,A,b,I,b,2625,1,2650.0999994277954,764595.4000005722,9048,WL,A,1.0
5,3.0,learn,60000.0,Thu Jan 22 2026 16:37:33 GMT-0500 (Eastern Standard Time),767595.1999998093,A,bo,I,o,323,1,2999.7999992370605,764595.4000005722,9048,WL,A,1.0
5,3.2330000400543213,learn,60000.0,Thu Jan 22 2026 16:37:33 GMT-0500 (Eastern Standard Time),767828.4000005722,A,boo,I,o,216,1,3233.0,764595.4000005722,9048,WL,A,1.0
5,3.950000047683716,learn,60000.0,Thu Jan 22 2026 16:37:33 GMT-0500 (Eastern Standard Time),768545.1000003815,A,book,I,k,703,1,3949.699999809265,764595.4000005722,9048,WL,A,1.0
5,4.865999937057495,learn,60000.0,Thu Jan 22 2026 16:37:33 GMT-0500 (Eastern Standard Time),769461.3000001907,A,bookenter,I,enter,898,1,4865.89999961853,764595.4000005722,9048,WL,A,1.0
5,7.299999952316284,learn,60000.0,Thu Jan 22 2026 16:37:33 GMT-0500 (Eastern Standard Time),771895.1000003815,A,l,I,l,2417,1,2433.4000005722046,769461.6999998093,9048,WL,A,2.0
5,7.549999952316284,learn,60000.0,Thu Jan 22 2026 16:37:33 GMT-0500 (Eastern Standard Time),772145.1000003815,A,lo,I,o,235,1,2683.4000005722046,769461.6999998093,9048,WL,A,2.0
5,8.566999912261963,learn,60000.0,Thu Jan 22 2026 16:37:33 GMT-0500 (Eastern Standard Time),773161.8000001907,A,log,I,g,992,1,3700.1000003814697,769461.6999998093,9048,WL,A,2.0
5,9.849999904632568,learn,60000.0,Thu Jan 22 2026 16:37:33 GMT-0500 (Eastern Standard Time),774444.8000001907,A,logenter,I,enter,1273,1,4983.10000038147,769461.6999998093,9048,WL,A,2.0
5,11.183000087738037,learn,60000.0,Thu Jan 22 2026 16:37:33 GMT-0500 (Eastern Standard Time),775778.4000005722,A,f,I,f,1322,1,1333.2000007629395,774445.1999998093,9048,WL,A,3.0
5,11.91700005531311,learn,60000.0,Thu Jan 22 2026 16:37:33 GMT-0500 (Eastern Standard Time),776511.6000003815,A,fl,I,l,721,1,2066.4000005722046,774445.1999998093,9048,WL,A,3.0
5,12.549999952316284,learn,60000.0,Thu Jan 22 2026 16:37:33 GMT-0500 (Eastern Standard Time),777145.0,A,flo,I,o,611,1,2699.800000190735,774445.1999998093,9048,WL,A,3.0
5,13.766999959945679,learn,60000.0,Thu Jan 22 2026 16:37:33 GMT-0500 (Eastern Standard Time),778361.8000001907,A,flow,I,w,1193,1,3916.6000003814697,774445.1999998093,9048,WL,A,3.0
5,14.200000047683716,learn,60000.0,Thu Jan 22 2026 16:37:33 GMT-0500 (Eastern Standard Time),778795.1000003815,A,flowe,I,e,409,1,4349.900000572205,774445.1999998093,9048,WL,A,3.0
5,14.483000040054321,learn,60000.0,Thu Jan 22 2026 16:37:33 GMT-0500 (Eastern Standard Time),779078.4000005722,A,flower,I,r,264,1,4633.200000762939,774445.1999998093,9048,WL,A,3.0
5,15.599999904632568,learn,60000.0,Thu Jan 22 2026 16:37:33 GMT-0500 (Eastern Standard Time),780194.6000003815,A,flowerenter,I,enter,1099,1,5749.400000572205,774445.1999998093,9048,WL,A,3.0
5,18.066999912261963,learn,60000.0,Thu Jan 22 2026 16:37:33 GMT-0500 (Eastern Standard Time),782661.6999998093,A,l,I,l,2452,1,2466.699999809265,780195.0,9048,WL,A,4.0
5,18.34999990463257,learn,60000.0,Thu Jan 22 2026 16:37:33 GMT-0500 (Eastern Standard Time),782945.1000003815,A,lo,I,o,269,1,2750.1000003814697,780195.0,9048,WL,A,4.0
5,19.75,learn,60000.0,Thu Jan 22 2026 16:37:33 GMT-0500 (Eastern Standard Time),784345.0,A,log,I,g,1378,1,4150.0,780195.0,9048,WL,A,4.0
5,21.41599988937378,learn,60000.0,Thu Jan 22 2026 16:37:33 GMT-0500 (Eastern Standard Time),786011.3000001907,A,logenter,I,enter,1641,1,5816.300000190735,780195.0,9048,WL,A,4.0
5,22.316999912261963,learn,60000.0,Thu Jan 22 2026 16:37:33 GMT-0500 (Eastern Standard Time),786911.8000001907,A,r,I,r,891,1,900.1000003814697,786011.6999998093,9048,WL,A,5.0
5,22.90000009536743,learn,60000.0,Thu Jan 22 2026 16:37:33 GMT-0500 (Eastern Standard Time),787495.0,A,ra,I,a,561,1,1483.3000001907349,786011.6999998093,9048,WL,A,5.0
5,24.26699995994568,learn,60000.0,Thu Jan 22 2026 16:37:33 GMT-0500 (Eastern Standard Time),788861.6000003815,A,rat,I,t,1340,1,2849.9000005722046,786011.6999998093,9048,WL,A,5.0
5,24.84999990463257,learn,60000.0,Thu Jan 22 2026 16:37:33 GMT-0500 (Eastern Standard Time),789445.0,A,ratt,I,t,563,1,3433.300000190735,786011.6999998093,9048,WL,A,5.0
5,25.316999912261963,learn,60000.0,Thu Jan 22 2026 16:37:33 GMT-0500 (Eastern Standard Time),789911.6000003815,A,rattl,I,l,446,1,3899.9000005722046,786011.6999998093,9048,WL,A,5.0
5,25.717000007629395,learn,60000.0,Thu Jan 22 2026 16:37:33 GMT-0500 (Eastern Standard Time),790311.8000001907,A,rattle,I,e,380,1,4300.10000038147,786011.6999998093,9048,WL,A,5.0
5,26.75,learn,60000.0,Thu Jan 22 2026 16:37:33 GMT-0500 (Eastern Standard Time),791344.6000003815,A,rattleenter,I,enter,1018,1,5332.900000572205,786011.6999998093,9048,WL,A,5.0
5,29.816999912261963,learn,60000.0,Thu Jan 22 2026 16:37:33 GMT-0500 (Eastern Standard Time),794411.6999998093,A,r,I,r,3046,1,3066.699999809265,791345.0,9048,WL,A,6.0
5,30.66700005531311,learn,60000.0,Thu Jan 22 2026 16:37:33 GMT-0500 (Eastern Standard Time),795261.6999998093,A,ru,I,u,824,1,3916.699999809265,791345.0,9048,WL,A,6.0
5,32.450000047683716,learn,60000.0,Thu Jan 22 2026 16:37:33 GMT-0500 (Eastern Standard Time),797045.1000003815,A,rug,I,g,1764,1,5700.10000038147,791345.0,9048,WL,A,6.0
5,33.43300008773804,learn,60000.0,Thu Jan 22 2026 16:37:33 GMT-0500 (Eastern Standard Time),798027.9000005722,A,rugenter,I,enter,957,1,6682.900000572205,791345.0,9048,WL,A,6.0
5,46.34999990463257,learn,60000.0,Thu Jan 22 2026 16:37:33 GMT-0500 (Eastern Standard Time),810945.1000003815,A,g,I,g,12907,1,12916.900000572205,798028.1999998093,9048,WL,A,7.0
5,46.700000047683716,learn,60000.0,Thu Jan 22 2026 16:37:33 GMT-0500 (Eastern Standard Time),811295.0,A,go,I,o,338,1,13266.800000190735,798028.1999998093,9048,WL,A,7.0
5,47.33299994468689,learn,60000.0,Thu Jan 22 2026 16:37:33 GMT-0500 (Eastern Standard Time),811928.4000005722,A,gol,I,l,613,1,13900.20000076294,798028.1999998093,9048,WL,A,7.0
5,48.132999897003174,learn,60000.0,Thu Jan 22 2026 16:37:33 GMT-0500 (Eastern Standard Time),812728.4000005722,A,gold,I,d,778,1,14700.20000076294,798028.1999998093,9048,WL,A,7.0
5,48.950000047683716,learn,60000.0,Thu Jan 22 2026 16:37:33 GMT-0500 (Eastern Standard Time),813544.6000003815,A,goldenter,I,enter,794,1,15516.400000572205,798028.1999998093,9048,WL,A,7.0
5,51.66700005531311,learn,60000.0,Thu Jan 22 2026 16:37:33 GMT-0500 (Eastern Standard Time),816261.6999998093,A,t,I,t,2702,1,2716.7999992370605,813544.9000005722,9048,WL,A,8.0
5,52.08299994468689,learn,60000.0,Thu Jan 22 2026 16:37:33 GMT-0500 (Eastern Standard Time),816678.3000001907,A,tr,I,r,398,1,3133.3999996185303,813544.9000005722,9048,WL,A,8.0
5,52.61699986457825,learn,60000.0,Thu Jan 22 2026 16:37:33 GMT-0500 (Eastern Standard Time),817211.6999998093,A,tra,I,a,510,1,3666.7999992370605,813544.9000005722,9048,WL,A,8.0
5,52.98300004005432,learn,60000.0,Thu Jan 22 2026 16:37:33 GMT-0500 (Eastern Standard Time),817578.4000005722,A,trai,I,i,344,1,4033.5,813544.9000005722,9048,WL,A,8.0
5,54.73300004005432,learn,60000.0,Thu Jan 22 2026 16:37:33 GMT-0500 (Eastern Standard Time),819328.3000001907,A,train,I,n,1737,1,5783.39999961853,813544.9000005722,9048,WL,A,8.0
5,55.68300008773804,learn,60000.0,Thu Jan 22 2026 16:37:33 GMT-0500 (Eastern Standard Time),820277.9000005722,A,trainenter,I,enter,930,1,6733.0,813544.9000005722,9048,WL,A,8.0
5,59.51699995994568,learn,60000.0,Thu Jan 22 2026 16:37:33 GMT-0500 (Eastern Standard Time),824111.6999998093,A,b,I,b,3824,1,3833.3999996185303,820278.3000001907,9048,WL,A,9.0
5,62.09999990463257,learn,60000.0,Thu Jan 22 2026 16:37:33 GMT-0500 (Eastern Standard Time),826695.1000003815,A,bu,I,u,2564,1,6416.800000190735,820278.3000001907,9048,WL,A,9.0
6,47.01699995994568,distr,12983.000040054321,Thu Jan 22 2026 16:37:33 GMT-0500 (Eastern Standard Time),945645.0,B,d,I,d,46992,1,47016.5,898628.5,9048,WL,A,1.0
6,47.34999990463257,distr,12650.000095367432,Thu Jan 22 2026 16:37:33 GMT-0500 (Eastern Standard Time),945978.1000003815,B,do,I,o,308,1,47349.60000038147,898628.5,9048,WL,A,1.0
6,49.81699991226196,distr,10183.000087738037,Thu Jan 22 2026 16:37:33 GMT-0500 (Eastern Standard Time),948444.8000001907,B,don,I,n,2440,1,49816.300000190735,898628.5,9048,WL,A,1.0
6,51.01699995994568,distr,8983.000040054321,Thu Jan 22 2026 16:37:33 GMT-0500 (Eastern Standard Time),949644.8000001907,B,done,I,e,1175,1,51016.300000190735,898628.5,9048,WL,A,1.0
6,51.8510000705719,distr,8148.999929428101,Thu Jan 22 2026 16:37:33 GMT-0500 (Eastern Standard Time),950478.9000005722,B,doneenter,I,enter,821,1,51850.400000572205,898628.5,9048,WL,A,1.0
6,60.01699995994568,distr,-16.99995994567871,Thu Jan 22 2026 16:37:33 GMT-0500 (Eastern Standard Time),958645.1000003815,B,None,I,None,8160,1,8165.900000572205,950479.1999998093,9048,WL,A,2.0
7,2.8000001907348633,immed,57199.99980926514,Thu Jan 22 2026 16:37:33 GMT-0500 (Eastern Standard Time),973744.8000001907,A,g,I,g,2787,1,2799.3999996185303,970945.4000005722,9048,WL,A,1.0
7,3.116000175476074,immed,56883.999824523926,Thu Jan 22 2026 16:37:33 GMT-0500 (Eastern Standard Time),974061.5,A,go,I,o,290,1,3116.0999994277954,970945.4000005722,9048,WL,A,1.0
7,3.9000000953674316,immed,56099.99990463257,Thu Jan 22 2026 16:37:33 GMT-0500 (Eastern Standard Time),974844.9000005722,A,gol,I,l,757,1,3899.5,970945.4000005722,9048,WL,A,1.0
7,4.6000001430511475,immed,55399.99985694885,Thu Jan 22 2026 16:37:33 GMT-0500 (Eastern Standard Time),975544.6999998093,A,gold,I,d,679,1,4599.299999237061,970945.4000005722,9048,WL,A,1.0
7,7.5329999923706055,immed,52467.000007629395,Thu Jan 22 2026 16:37:33 GMT-0500 (Eastern Standard Time),978478.1000003815,A,goldb,I,b,2924,1,7532.699999809265,970945.4000005722,9048,WL,A,1.0
7,8.0,immed,52000.0,Thu Jan 22 2026 16:37:33 GMT-0500 (Eastern Standard Time),978944.8000001907,A,goldbo,I,o,451,1,7999.39999961853,970945.4000005722,9048,WL,A,1.0
7,8.233000040054321,immed,51766.99995994568,Thu Jan 22 2026 16:37:33 GMT-0500 (Eastern Standard Time),979178.1999998093,A,goldboo,I,o,209,1,8232.79999923706,970945.4000005722,9048,WL,A,1.0
7,9.516000032424927,immed,50483.99996757507,Thu Jan 22 2026 16:37:33 GMT-0500 (Eastern Standard Time),980461.5,A,goldbook,I,k,1274,1,9516.099999427795,970945.4000005722,9048,WL,A,1.0
7,10.833000183105469,immed,49166.99981689453,Thu Jan 22 2026 16:37:33 GMT-0500 (Eastern Standard Time),981778.3000001907,A,goldbookt,I,t,1301,1,10832.89999961853,970945.4000005722,9048,WL,A,1.0
7,11.200000047683716,immed,48799.999952316284,Thu Jan 22 2026 16:37:33 GMT-0500 (Eastern Standard Time),982145.5,A,goldbooktr,I,r,354,1,11200.099999427795,970945.4000005722,9048,WL,A,1.0
7,11.815999984741211,immed,48184.00001525879,Thu Jan 22 2026 16:37:33 GMT-0500 (Eastern Standard Time),982761.5,A,goldbooktra,I,a,597,1,11816.099999427795,970945.4000005722,9048,WL,A,1.0
7,12.183000087738037,immed,47816.99991226196,Thu Jan 22 2026 16:37:33 GMT-0500 (Eastern Standard Time),983128.1999998093,A,goldbooktrai,I,i,345,1,12182.79999923706,970945.4000005722,9048,WL,A,1.0
7,13.800000190734863,immed,46199.99980926514,Thu Jan 22 2026 16:37:33 GMT-0500 (Eastern Standard Time),984744.9000005722,A,goldbooktrain,I,n,1596,1,13799.5,970945.4000005722,9048,WL,A,1.0
7,23.716000080108643,immed,36283.99991989136,Thu Jan 22 2026 16:37:33 GMT-0500 (Eastern Standard Time),994661.6000003815,A,goldbooktrainf,I,f,9897,1,23716.199999809265,970945.4000005722,9048,WL,A,1.0
7,24.66600012779236,immed,35333.99987220764,Thu Jan 22 2026 16:37:33 GMT-0500 (Eastern Standard Time),995611.5,A,goldbooktrainfl,I,l,923,1,24666.099999427795,970945.4000005722,9048,WL,A,1.0
7,25.633000135421753,immed,34366.99986457825,Thu Jan 22 2026 16:37:33 GMT-0500 (Eastern Standard Time),996578.1999998093,A,goldbooktrainflo,I,o,952,1,25632.79999923706,970945.4000005722,9048,WL,A,1.0
7,26.100000143051147,immed,33899.99985694885,Thu Jan 22 2026 16:37:33 GMT-0500 (Eastern Standard Time),997044.8000001907,A,goldbooktrainflow,I,w,450,1,26099.39999961853,970945.4000005722,9048,WL,A,1.0
7,26.348999977111816,immed,33651.00002288818,Thu Jan 22 2026 16:37:33 GMT-0500 (Eastern Standard Time),997294.5,A,goldbooktrainflowe,I,e,238,1,26349.099999427795,970945.4000005722,9048,WL,A,1.0
7,26.600000143051147,immed,33399.99985694885,Thu Jan 22 2026 16:37:33 GMT-0500 (Eastern Standard Time),997544.8000001907,A,goldbooktrainflower,I,r,230,1,26599.39999961853,970945.4000005722,9048,WL,A,1.0
7,27.282999992370605,immed,32717.000007629395,Thu Jan 22 2026 16:37:33 GMT-0500 (Eastern Standard Time),998227.6999998093,A,goldbooktrainflowerenter,I,enter,658,1,27282.29999923706,970945.4000005722,9048,WL,A,1.0
7,29.41600012779236,immed,30583.99987220764,Thu Jan 22 2026 16:37:33 GMT-0500 (Eastern Standard Time),1000361.5,A,t,I,t,2114,1,2133.5,998228.0,9048,WL,A,2.0
7,29.75,immed,30250.0,Thu Jan 22 2026 16:37:33 GMT-0500 (Eastern Standard Time),1000694.8000001907,A,tr,I,r,315,1,2466.800000190735,998228.0,9048,WL,A,2.0
7,30.33300018310547,immed,29666.99981689453,Thu Jan 22 2026 16:37:33 GMT-0500 (Eastern Standard Time),1001277.9000005722,A,tra,I,a,573,1,3049.9000005722046,998228.0,9048,WL,A,2.0
7,30.66600012779236,immed,29333.99987220764,Thu Jan 22 2026 16:37:33 GMT-0500 (Eastern Standard Time),1001611.5,A,trai,I,i,309,1,3383.5,998228.0,9048,WL,A,2.0
7,31.466000080108643,immed,28533.999919891357,Thu Jan 22 2026 16:37:33 GMT-0500 (Eastern Standard Time),1002411.5,A,train,I,n,775,1,4183.5,998228.0,9048,WL,A,2.0
7,32.098999977111816,immed,27901.000022888184,Thu Jan 22 2026 16:37:33 GMT-0500 (Eastern Standard Time),1003044.4000005722,A,trainenter,I,enter,616,1,4816.400000572205,998228.0,9048,WL,A,2.0
7,34.200000047683716,immed,25799.999952316284,Thu Jan 22 2026 16:37:33 GMT-0500 (Eastern Standard Time),1005144.8000001907,A,r,I,r,2082,1,2100.1000003814697,1003044.6999998093,9048,WL,A,3.0
7,35.117000102996826,immed,24882.999897003174,Thu Jan 22 2026 16:37:33 GMT-0500 (Eastern Standard Time),1006061.6000003815,A,ru,I,u,906,1,3016.9000005722046,1003044.6999998093,9048,WL,A,3.0
7,36.41600012779236,immed,23583.99987220764,Thu Jan 22 2026 16:37:33 GMT-0500 (Eastern Standard Time),1007361.5,A,rug,I,g,1287,1,4316.800000190735,1003044.6999998093,9048,WL,A,3.0
7,37.51699995994568,immed,22483.00004005432,Thu Jan 22 2026 16:37:33 GMT-0500 (Eastern Standard Time),1008462.1000003815,A,rugenter,I,enter,1089,1,5417.400000572205,1003044.6999998093,9048,WL,A,3.0
7,40.5,immed,19500.0,Thu Jan 22 2026 16:37:33 GMT-0500 (Eastern Standard Time),1011444.9000005722,A,b,I,b,2968,1,2982.4000005722046,1008462.5,9048,WL,A,4.0
7,41.66600012779236,immed,18333.99987220764,Thu Jan 22 2026 16:37:33 GMT-0500 (Eastern Standard Time),1012611.5,A,bu,I,u,1151,1,4149.0,1008462.5,9048,WL,A,4.0
7,42.282999992370605,immed,17717.000007629395,Thu Jan 22 2026 16:37:33 GMT-0500 (Eastern Standard Time),1013228.1999998093,A,but,I,t,592,1,4765.699999809265,1008462.5,9048,WL,A,4.0
7,42.46600008010864,immed,17533.999919891357,Thu Jan 22 2026 16:37:33 GMT-0500 (Eastern Standard Time),1013411.5,A,butt,I,t,168,1,4949.0,1008462.5,9048,WL,A,4.0
7,43.08300018310547,immed,16916.99981689453,Thu Jan 22 2026 16:37:33 GMT-0500 (Eastern Standard Time),1014028.1999998093,A,butto,I,o,591,1,5565.699999809265,1008462.5,9048,WL,A,4.0
7,44.55000019073486,immed,15449.999809265137,Thu Jan 22 2026 16:37:33 GMT-0500 (Eastern Standard Time),1015494.8000001907,A,button,I,n,1447,1,7032.300000190735,1008462.5,9048,WL,A,4.0
7,45.08300018310547,immed,14916.999816894531,Thu Jan 22 2026 16:37:33 GMT-0500 (Eastern Standard Time),1016027.6000003815,A,buttonenter,I,enter,508,1,7565.10000038147,1008462.5,9048,WL,A,4.0
7,56.616000175476074,immed,3383.999824523926,Thu Jan 22 2026 16:37:33 GMT-0500 (Eastern Standard Time),1027561.5,A,b,I,b,11515,1,11533.5,1016028.0,9048,WL,A,5.0
7,57.200000047683716,immed,2799.999952316284,Thu Jan 22 2026 16:37:33 GMT-0500 (Eastern Standard Time),1028144.8000001907,A,bo,I,o,569,1,12116.800000190735,1016028.0,9048,WL,A,5.0
7,57.40000009536743,immed,2599.9999046325684,Thu Jan 22 2026 16:37:33 GMT-0500 (Eastern Standard Time),1028344.8000001907,A,boo,I,o,178,1,12316.800000190735,1016028.0,9048,WL,A,5.0
7,57.85000014305115,immed,2149.9998569488525,Thu Jan 22 2026 16:37:33 GMT-0500 (Eastern Standard Time),1028794.9000005722,A,book,I,k,426,1,12766.900000572205,1016028.0,9048,WL,A,5.0
7,58.616000175476074,immed,1383.9998245239258,Thu Jan 22 2026 16:37:33 GMT-0500 (Eastern Standard Time),1029561.0,A,bookenter,I,enter,744,1,13533.0,1016028.0,9048,WL,A,5.0
7,60.01600003242493,immed,-16.000032424926758,Thu Jan 22 2026 16:37:33 GMT-0500 (Eastern Standard Time),1030961.5,A,None,I,None,1394,1,1400.1999998092651,1029561.3000001907,9048,WL,A,6.0
