acc_sum,block,block_c,condition,correct,correct_response,datetime,endtime,flanker,jitter,project,response,response_test_buffer_response,response_test_target_response,response_time,response_time_test_buffer_response,response_time_test_target_response,row_sel,session_number,start_end,starttime,subject_id,target,task,task_vers,time_test_buffer,time_test_buffer_response,time_test_constants,time_test_flanker,time_test_jitter,time_test_logger,time_test_target,time_test_target_response,time_test_variables,trial
1,prac,1,inc,1,m,Tue Jun 30 2026 10:33:09 GMT-0400 (Eastern Daylight Time),100385.39999999944,raisin,1100,I,m,,,719,,,12,3,3123.899999999441,97261.5,9045,cobalt,NF,C,,,,,,,,,,1
2,prac,1,con,1,z,Tue Jun 30 2026 10:33:09 GMT-0400 (Eastern Daylight Time),103218.5,lime,800,I,z,,,718,,,5,3,2823.100000000559,100395.39999999944,9045,lime,NF,C,,,,,,,,,,2
3,prac,1,inc,1,z,Tue Jun 30 2026 10:33:09 GMT-0400 (Eastern Daylight Time),106285.09999999963,cobalt,1100,I,z,,,656,,,4,3,3056.399999999441,103228.70000000019,9045,raisin,NF,C,,,,,,,,,,3
4,prac,1,inc,1,z,Tue Jun 30 2026 10:33:09 GMT-0400 (Eastern Daylight Time),109068.39999999944,iron,900,I,z,,,574,,,6,3,2773.699999999255,106294.70000000019,9045,pear,NF,C,,,,,,,,,,4
5,prac,1,con,1,z,Tue Jun 30 2026 10:33:09 GMT-0400 (Eastern Daylight Time),111968.59999999963,orange,1000,I,z,,,588,,,3,3,2889.7000000001863,109078.89999999944,9045,orange,NF,C,,,,,,,,,,5
6,prac,1,con,1,m,Tue Jun 30 2026 10:33:09 GMT-0400 (Eastern Daylight Time),114718.5,silver,1000,I,m,,,440,,,11,3,2737.5,111981.0,9045,silver,NF,C,,,,,,,,,,6
7,prac,1,inc,1,m,Tue Jun 30 2026 10:33:09 GMT-0400 (Eastern Daylight Time),117485.09999999963,pear,900,I,m,,,557,,,14,3,2754.5,114730.59999999963,9045,iron,NF,C,,,,,,,,,,7
7,prac,1,con,0,m,Tue Jun 30 2026 10:33:09 GMT-0400 (Eastern Daylight Time),120335.20000000019,zinc,1000,I,z,,,538,,,15,3,2840.7000000001863,117494.5,9045,zinc,NF,C,,,,,,,,,,8
7,prac,1,con,0,z,Tue Jun 30 2026 10:33:09 GMT-0400 (Eastern Daylight Time),123285.09999999963,kiwi,1000,I,m,,,648,,,7,3,2940.2999999998137,120344.79999999981,9045,kiwi,NF,C,,,,,,,,,,9
8,prac,1,con,1,z,Tue Jun 30 2026 10:33:09 GMT-0400 (Eastern Daylight Time),126018.39999999944,banana,800,I,z,,,618,,,1,3,2721.0,123297.39999999944,9045,banana,NF,C,,,,,,,,,,10
9,prac,1,inc,1,z,Tue Jun 30 2026 10:33:09 GMT-0400 (Eastern Daylight Time),128818.29999999981,copper,900,I,z,,,586,,,2,3,2789.2000000001863,126029.09999999963,9045,cherry,NF,C,,,,,,,,,,11
10,prac,1,inc,1,m,Tue Jun 30 2026 10:33:09 GMT-0400 (Eastern Daylight Time),131501.89999999944,cherry,900,I,m,,,473,,,10,3,2674.2999999998137,128827.59999999963,9045,copper,NF,C,,,,,,,,,,12
11,prac,1,con,1,m,Tue Jun 30 2026 10:33:09 GMT-0400 (Eastern Daylight Time),134101.7000000002,bronze,800,I,m,,,483,,,9,3,2591.2000000001863,131510.5,9045,bronze,NF,C,,,,,,,,,,13
11,prac,1,inc,0,m,Tue Jun 30 2026 10:33:09 GMT-0400 (Eastern Daylight Time),137001.7000000002,plum,1100,I,z,,,493,,,16,3,2888.2000000001863,134113.5,9045,lead,NF,C,,,,,,,,,,14
12,prac,1,con,1,m,Tue Jun 30 2026 10:33:09 GMT-0400 (Eastern Daylight Time),139868.2999999998,gold,800,I,m,,,757,,,13,3,2857.9000000003725,137010.39999999944,9045,gold,NF,C,,,,,,,,,,15
12,prac,1,inc,0,z,Tue Jun 30 2026 10:33:09 GMT-0400 (Eastern Daylight Time),142801.7000000002,lead,1100,I,m,,,520,,,8,3,2922.0,139879.7000000002,9045,plum,NF,C,,,,,,,,,,16
1,test,1,con,1,m,Tue Jun 30 2026 10:33:09 GMT-0400 (Eastern Daylight Time),163918.39999999944,silver,1000,I,m,m,None,708,508.0,200.0,83,3,2242.2999999998137,161676.09999999963,9045,silver,NF,C,161323,161323,159597,160606,159598,161840,161123,161123,161839,1
2,test,1,inc,1,m,Tue Jun 30 2026 10:33:09 GMT-0400 (Eastern Daylight Time),166134.5,kiwi,1000,I,m,m,None,681,482.0,199.0,103,3,2205.4000000003725,163929.09999999963,9045,gold,NF,C,163573,163573,161850,162856,161851,164056,163373,163373,164056,2
3,test,1,con,1,z,Tue Jun 30 2026 10:33:09 GMT-0400 (Eastern Daylight Time),168268.09999999963,raisin,1000,I,z,z,None,592,393.0,199.0,27,3,2125.0,166143.09999999963,9045,raisin,NF,C,165790,165790,164064,165073,164064,166189,165590,165590,166189,3
4,test,1,inc,1,m,Tue Jun 30 2026 10:33:09 GMT-0400 (Eastern Daylight Time),170434.89999999944,orange,1000,I,m,m,None,619,420.0,199.0,95,3,2156.699999999255,168278.2000000002,9045,cobalt,NF,C,167923,167923,166199,167206,166200,168356,167723,167723,168356,4
5,test,1,con,1,m,Tue Jun 30 2026 10:33:09 GMT-0400 (Eastern Daylight Time),172451.2999999998,gold,800,I,m,m,None,667,468.0,199.0,97,3,2004.4000000003725,170446.89999999944,9045,gold,NF,C,169890,169890,168368,169173,168368,170372,169690,169690,170372,5
6,test,1,inc,1,z,Tue Jun 30 2026 10:33:09 GMT-0400 (Eastern Daylight Time),174601.59999999963,lead,1100,I,z,z,None,511,312.0,199.0,48,3,2144.0,172457.59999999963,9045,pear,NF,C,172207,172207,170379,171490,170379,172523,172006,172007,172523,6
7,test,1,inc,1,z,Tue Jun 30 2026 10:33:09 GMT-0400 (Eastern Daylight Time),176651.59999999963,silver,1000,I,z,z,None,510,310.0,200.0,7,3,2038.5,174613.09999999963,9045,banana,NF,C,174256,174257,172534,173540,172535,174573,174056,174056,174573,7
8,test,1,con,1,m,Tue Jun 30 2026 10:33:09 GMT-0400 (Eastern Daylight Time),178768.2000000002,bronze,900,I,m,m,None,673,473.0,200.0,66,3,2102.0,176666.2000000002,9045,bronze,NF,C,176206,176206,174587,175490,174588,176689,176006,176006,176689,8
9,test,1,inc,1,z,Tue Jun 30 2026 10:33:09 GMT-0400 (Eastern Daylight Time),180734.7999999998,bronze,800,I,z,z,None,623,424.0,199.0,21,3,1956.0,178778.7999999998,9045,orange,NF,C,178223,178223,176700,177506,176700,178656,178023,178023,178656,9
10,test,1,con,1,m,Tue Jun 30 2026 10:33:09 GMT-0400 (Eastern Daylight Time),182701.5,copper,900,I,m,m,None,524,325.0,199.0,74,3,1957.2999999998137,180744.2000000002,9045,copper,NF,C,180290,180290,178665,179573,178666,180623,180090,180090,180623,10
11,test,1,con,1,m,Tue Jun 30 2026 10:33:09 GMT-0400 (Eastern Daylight Time),184551.2999999998,zinc,800,I,m,m,None,515,315.0,200.0,113,3,1839.4000000003725,182711.89999999944,9045,zinc,NF,C,182156,182156,180633,181440,180633,182472,181956,181956,182472,11
12,test,1,con,1,z,Tue Jun 30 2026 10:33:09 GMT-0400 (Eastern Daylight Time),186618.2000000002,cherry,1000,I,z,z,None,528,328.0,200.0,11,3,2057.0,184561.2000000002,9045,cherry,NF,C,184207,184207,182482,183490,182483,184539,184006,184006,184539,12
13,test,1,inc,1,z,Tue Jun 30 2026 10:33:09 GMT-0400 (Eastern Daylight Time),188884.7999999998,zinc,1000,I,z,z,None,717,518.0,199.0,39,3,2255.5,186629.2999999998,9045,lime,NF,C,186273,186273,184550,185556,184551,186806,186073,186073,186806,13
14,test,1,inc,1,m,Tue Jun 30 2026 10:33:09 GMT-0400 (Eastern Daylight Time),190784.89999999944,banana,800,I,m,m,None,554,355.0,199.0,77,3,1890.7999999998137,188894.09999999963,9045,copper,NF,C,188340,188340,186815,187623,186816,188706,188140,188140,188706,14
15,test,1,inc,1,z,Tue Jun 30 2026 10:33:09 GMT-0400 (Eastern Daylight Time),192818.09999999963,iron,900,I,z,z,None,586,387.0,199.0,38,3,2024.3999999994412,190793.7000000002,9045,lime,NF,C,190340,190340,188715,189623,188715,190739,190140,190140,190739,15
16,test,1,con,1,m,Tue Jun 30 2026 10:33:09 GMT-0400 (Eastern Daylight Time),195051.5,gold,1000,I,m,m,None,693,494.0,199.0,99,3,2224.600000000559,192826.89999999944,9045,gold,NF,C,192473,192473,190748,191756,190748,192973,192273,192273,192972,16
17,test,1,con,1,z,Tue Jun 30 2026 10:33:09 GMT-0400 (Eastern Daylight Time),197184.7000000002,banana,1000,I,z,z,None,588,388.0,200.0,3,3,2123.2000000001863,195061.5,9045,banana,NF,C,194706,194707,192983,193990,192983,195106,194506,194506,195106,17
18,test,1,con,1,z,Tue Jun 30 2026 10:33:09 GMT-0400 (Eastern Daylight Time),199234.7999999998,lime,900,I,z,z,None,602,403.0,199.0,34,3,2038.5999999996275,197196.2000000002,9045,lime,NF,C,196740,196740,195117,196023,195118,197156,196540,196540,197156,18
19,test,1,con,1,z,Tue Jun 30 2026 10:33:09 GMT-0400 (Eastern Daylight Time),201118.2000000002,raisin,800,I,z,z,None,540,341.0,199.0,25,3,1872.2000000001863,199246.0,9045,raisin,NF,C,198690,198690,197167,197973,197167,199039,198490,198490,199039,19
20,test,1,con,1,z,Tue Jun 30 2026 10:33:09 GMT-0400 (Eastern Daylight Time),203134.7999999998,pear,1000,I,z,z,None,473,274.0,199.0,43,3,2006.2999999998137,201128.5,9045,pear,NF,C,200773,200773,199050,200056,199050,201056,200573,200573,201056,20
21,test,1,inc,1,m,Tue Jun 30 2026 10:33:09 GMT-0400 (Eastern Daylight Time),204951.09999999963,lime,800,I,m,m,None,480,281.0,199.0,125,3,1805.0999999996275,203146.0,9045,lead,NF,C,202590,202590,201067,201873,201067,202872,202390,202390,202872,21
22,test,1,con,1,m,Tue Jun 30 2026 10:33:09 GMT-0400 (Eastern Daylight Time),206801.5,bronze,800,I,m,m,None,505,305.0,200.0,65,3,1840.2999999998137,204961.2000000002,9045,bronze,NF,C,204406,204406,202882,203690,202883,204723,204206,204206,204723,22
23,test,1,inc,1,z,Tue Jun 30 2026 10:33:09 GMT-0400 (Eastern Daylight Time),208918.0,lead,1100,I,z,z,None,467,267.0,200.0,64,3,2107.5,206810.5,9045,plum,NF,C,206556,206556,204732,205840,204732,206839,206356,206356,206839,23
24,test,1,inc,1,m,Tue Jun 30 2026 10:33:09 GMT-0400 (Eastern Daylight Time),211334.7999999998,plum,1100,I,m,m,None,765,566.0,199.0,112,3,2404.2000000001863,208930.59999999963,9045,iron,NF,C,208673,208673,206852,207956,206852,209256,208473,208473,209256,24
25,test,1,inc,1,m,Tue Jun 30 2026 10:33:09 GMT-0400 (Eastern Daylight Time),213501.5,orange,1000,I,m,m,None,624,425.0,199.0,87,3,2157.600000000559,211343.89999999944,9045,silver,NF,C,210990,210990,209265,210273,209265,211423,210790,210790,211422,25
26,test,1,inc,1,m,Tue Jun 30 2026 10:33:09 GMT-0400 (Eastern Daylight Time),215501.39999999944,banana,800,I,m,m,None,659,459.0,200.0,69,3,1991.5,213509.89999999944,9045,bronze,NF,C,212956,212956,211431,212239,211431,213423,212756,212756,213422,26
27,test,1,inc,1,m,Tue Jun 30 2026 10:33:09 GMT-0400 (Eastern Daylight Time),217618.09999999963,kiwi,1000,I,m,m,None,571,371.0,200.0,127,3,2107.899999999441,215510.2000000002,9045,lead,NF,C,215156,215156,213431,214440,213432,215539,214956,214956,215539,27
28,test,1,con,1,z,Tue Jun 30 2026 10:33:09 GMT-0400 (Eastern Daylight Time),219834.7000000002,cherry,1100,I,z,z,None,577,378.0,199.0,12,3,2207.2000000001863,217627.5,9045,cherry,NF,C,217373,217373,215549,216656,215549,217756,217173,217173,217756,28
29,test,1,inc,1,m,Tue Jun 30 2026 10:33:09 GMT-0400 (Eastern Daylight Time),221751.09999999963,lime,800,I,m,m,None,580,381.0,199.0,101,3,1905.0999999996275,219846.0,9045,gold,NF,C,219290,219290,217767,218573,217767,219672,219090,219090,219672,29
30,test,1,inc,1,z,Tue Jun 30 2026 10:33:09 GMT-0400 (Eastern Daylight Time),223784.5,iron,900,I,z,z,None,597,397.0,200.0,54,3,2023.2000000001863,221761.2999999998,9045,kiwi,NF,C,221306,221306,219682,220589,219683,221706,221106,221106,221705,30
31,test,1,inc,1,z,Tue Jun 30 2026 10:33:09 GMT-0400 (Eastern Daylight Time),225984.7000000002,cobalt,1100,I,z,z,None,554,355.0,199.0,16,3,2190.9000000003725,223793.7999999998,9045,cherry,NF,C,223540,223540,221715,222823,221715,223906,223340,223340,223906,31
32,test,1,con,1,m,Tue Jun 30 2026 10:33:09 GMT-0400 (Eastern Daylight Time),228184.7000000002,iron,1100,I,m,m,None,562,363.0,199.0,108,3,2191.4000000003725,225993.2999999998,9045,iron,NF,C,225740,225740,223914,225023,223915,226106,225539,225540,226106,32
33,test,1,inc,1,m,Tue Jun 30 2026 10:33:09 GMT-0400 (Eastern Daylight Time),230184.7000000002,cherry,900,I,m,m,None,562,363.0,199.0,94,3,1989.300000000745,228195.39999999944,9045,cobalt,NF,C,227740,227740,226116,227023,226117,228106,227540,227540,228106,33
34,test,1,inc,1,z,Tue Jun 30 2026 10:33:09 GMT-0400 (Eastern Daylight Time),232301.2999999998,silver,1000,I,z,z,None,574,375.0,199.0,15,3,2106.0999999996275,230195.2000000002,9045,cherry,NF,C,229840,229840,228116,229123,228116,230222,229639,229640,230222,34
35,test,1,inc,1,m,Tue Jun 30 2026 10:33:09 GMT-0400 (Eastern Daylight Time),234451.39999999944,kiwi,1000,I,m,m,None,602,402.0,200.0,111,3,2140.899999999441,232310.5,9045,iron,NF,C,231957,231957,230232,231239,230232,232373,231756,231756,232372,35
36,test,1,inc,1,m,Tue Jun 30 2026 10:33:09 GMT-0400 (Eastern Daylight Time),236668.0,plum,1100,I,m,m,None,577,377.0,200.0,120,3,2208.2999999998137,234459.7000000002,9045,zinc,NF,C,234206,234206,232381,233490,232381,234589,234006,234006,234589,36
37,test,1,inc,1,m,Tue Jun 30 2026 10:33:09 GMT-0400 (Eastern Daylight Time),238851.39999999944,raisin,1100,I,m,m,None,535,336.0,199.0,72,3,2172.5999999996275,236678.7999999998,9045,bronze,NF,C,236423,236423,234600,235706,234600,236773,236223,236223,236772,37
38,test,1,con,1,m,Tue Jun 30 2026 10:33:09 GMT-0400 (Eastern Daylight Time),240901.2999999998,cobalt,1000,I,m,m,None,501,301.0,200.0,91,3,2040.5,238860.7999999998,9045,cobalt,NF,C,238506,238506,236782,237789,236782,238822,238306,238306,238822,38
39,test,1,con,1,z,Tue Jun 30 2026 10:33:09 GMT-0400 (Eastern Daylight Time),242884.7000000002,plum,800,I,z,z,None,616,417.0,199.0,57,3,1967.9000000003725,240916.7999999998,9045,plum,NF,C,240373,240373,238838,239656,238839,240806,240173,240173,240806,39
40,test,1,con,1,z,Tue Jun 30 2026 10:33:09 GMT-0400 (Eastern Daylight Time),245084.7000000002,kiwi,1000,I,z,z,None,659,459.0,200.0,51,3,2191.0,242893.7000000002,9045,kiwi,NF,C,242540,242540,240815,241823,240815,243006,242339,242339,243006,40
41,test,1,inc,1,z,Tue Jun 30 2026 10:33:09 GMT-0400 (Eastern Daylight Time),247134.5,copper,900,I,z,z,None,607,407.0,200.0,30,3,2040.4000000003725,245094.09999999963,9045,raisin,NF,C,244640,244640,243015,243923,243016,245056,244439,244439,245056,41
42,test,1,con,1,m,Tue Jun 30 2026 10:33:09 GMT-0400 (Eastern Daylight Time),249317.89999999944,lead,1100,I,m,m,None,532,333.0,199.0,124,3,2171.5,247146.39999999944,9045,lead,NF,C,246890,246890,245067,246173,245068,247239,246689,246690,247239,42
43,test,1,con,1,m,Tue Jun 30 2026 10:33:09 GMT-0400 (Eastern Daylight Time),251268.0,cobalt,900,I,m,m,None,501,302.0,199.0,90,3,1938.7000000001863,249329.2999999998,9045,cobalt,NF,C,248873,248873,247250,248156,247251,249189,248673,248673,249189,43
44,test,1,con,1,z,Tue Jun 30 2026 10:33:09 GMT-0400 (Eastern Daylight Time),253234.7000000002,pear,900,I,z,z,None,519,320.0,199.0,42,3,1955.2000000001863,251279.5,9045,pear,NF,C,250823,250823,249201,250106,249201,251156,250623,250623,251156,44
45,test,1,inc,1,z,Tue Jun 30 2026 10:33:09 GMT-0400 (Eastern Daylight Time),255184.59999999963,gold,800,I,z,z,None,604,405.0,199.0,61,3,1938.7999999998137,253245.7999999998,9045,plum,NF,C,252690,252690,251167,251973,251167,253106,252490,252490,253106,45
46,test,1,con,1,z,Tue Jun 30 2026 10:33:09 GMT-0400 (Eastern Daylight Time),257351.0,orange,1000,I,z,z,None,631,431.0,200.0,19,3,2157.4000000003725,255193.59999999963,9045,orange,NF,C,254839,254840,253115,254123,253115,255272,254639,254639,255272,46
47,test,1,con,1,z,Tue Jun 30 2026 10:33:09 GMT-0400 (Eastern Daylight Time),259318.0,orange,800,I,z,z,None,616,417.0,199.0,17,3,1957.2000000001863,257360.7999999998,9045,orange,NF,C,256806,256806,255282,256089,255282,257239,256606,256606,257239,47
48,test,1,con,1,m,Tue Jun 30 2026 10:33:09 GMT-0400 (Eastern Daylight Time),261601.2000000002,cobalt,1100,I,m,m,None,638,439.0,199.0,92,3,2273.800000000745,259327.39999999944,9045,cobalt,NF,C,259072,259072,257248,258356,257249,259522,258873,258873,259522,48
49,test,1,inc,1,m,Tue Jun 30 2026 10:33:09 GMT-0400 (Eastern Daylight Time),263601.2000000002,pear,900,I,m,m,None,555,355.0,200.0,126,3,1989.2000000001863,261612.0,9045,lead,NF,C,261156,261156,259533,260439,259533,261522,260956,260956,261522,49
50,test,1,con,1,z,Tue Jun 30 2026 10:33:09 GMT-0400 (Eastern Daylight Time),265767.5999999996,lime,1000,I,z,z,None,613,414.0,199.0,35,3,2150.7999999998137,263616.7999999998,9045,lime,NF,C,263273,263273,261538,262556,261539,263689,263073,263073,263689,50
51,test,1,con,1,m,Tue Jun 30 2026 10:33:09 GMT-0400 (Eastern Daylight Time),267718.2999999998,silver,800,I,m,m,None,615,416.0,199.0,81,3,1939.7999999998137,265778.5,9045,silver,NF,C,265223,265223,263700,264506,263700,265639,265023,265023,265639,51
52,test,1,inc,1,m,Tue Jun 30 2026 10:33:09 GMT-0400 (Eastern Daylight Time),269801.2000000002,orange,1000,I,m,m,None,545,346.0,199.0,79,3,2074.800000000745,267726.39999999944,9045,copper,NF,C,267373,267373,265647,266656,265648,267722,267173,267173,267722,52
53,test,1,inc,1,z,Tue Jun 30 2026 10:33:09 GMT-0400 (Eastern Daylight Time),271934.7000000002,silver,1000,I,z,z,None,591,391.0,200.0,23,3,2122.4000000003725,269812.2999999998,9045,orange,NF,C,269456,269456,267733,268739,267734,269856,269256,269256,269856,53
54,test,1,inc,1,m,Tue Jun 30 2026 10:33:09 GMT-0400 (Eastern Daylight Time),273934.5999999996,cherry,900,I,m,m,None,541,341.0,200.0,70,3,1983.2000000001863,271951.39999999944,9045,bronze,NF,C,271506,271506,269872,270789,269873,271856,271306,271306,271856,54
55,test,1,inc,1,z,Tue Jun 30 2026 10:33:09 GMT-0400 (Eastern Daylight Time),276184.39999999944,copper,900,I,z,z,None,813,613.0,200.0,6,3,2238.199999999255,273946.2000000002,9045,banana,NF,C,273489,273490,271867,272773,271868,274105,273289,273289,274105,55
55,test,1,con,0,z,Tue Jun 30 2026 10:33:09 GMT-0400 (Eastern Daylight Time),279517.89999999944,cherry,800,I,None,None,None,1799,1799.0,200.0,9,3,3324.5,276193.39999999944,9045,cherry,NF,C,275639,275640,274114,274923,274115,277439,275439,275439,277439,56
55,test,1,con,0,m,Tue Jun 30 2026 10:33:09 GMT-0400 (Eastern Daylight Time),282951.2999999998,zinc,900,I,None,None,None,1799,1799.0,199.0,114,3,3426.0,279525.2999999998,9045,zinc,NF,C,279073,279073,277446,278356,277447,280872,278873,278873,280872,57
56,test,1,con,1,z,Tue Jun 30 2026 10:33:09 GMT-0400 (Eastern Daylight Time),285351.0,kiwi,1100,I,z,z,None,765,565.0,200.0,52,3,2392.4000000003725,282958.5999999996,9045,kiwi,NF,C,282706,282706,280880,281990,280880,283272,282506,282506,283272,58
57,test,1,inc,1,m,Tue Jun 30 2026 10:33:09 GMT-0400 (Eastern Daylight Time),287417.89999999944,cherry,900,I,m,m,None,629,429.0,200.0,86,3,2055.5999999996275,285362.2999999998,9045,silver,NF,C,284906,284906,283283,284189,283284,285339,284706,284706,285339,59
58,test,1,con,1,m,Tue Jun 30 2026 10:33:09 GMT-0400 (Eastern Daylight Time),289451.2000000002,copper,1000,I,m,m,None,493,294.0,199.0,75,3,2022.300000000745,287428.89999999944,9045,copper,NF,C,287073,287073,285350,286356,285350,287372,286873,286873,287372,60
59,test,1,inc,1,m,Tue Jun 30 2026 10:33:09 GMT-0400 (Eastern Daylight Time),291334.2999999998,banana,800,I,m,m,None,549,349.0,200.0,93,3,1872.0999999996275,289462.2000000002,9045,cobalt,NF,C,288906,288906,287383,288189,287384,289255,288706,288706,289255,61
60,test,1,con,1,m,Tue Jun 30 2026 10:33:09 GMT-0400 (Eastern Daylight Time),293467.7999999998,iron,1000,I,m,m,None,594,394.0,200.0,107,3,2124.4000000003725,291343.39999999944,9045,iron,NF,C,290989,290989,289264,290273,289265,291389,290789,290789,291389,62
61,test,1,inc,1,m,Tue Jun 30 2026 10:33:09 GMT-0400 (Eastern Daylight Time),295501.2000000002,pear,900,I,m,m,None,591,392.0,199.0,102,3,2024.7000000001863,293476.5,9045,gold,NF,C,293023,293023,291398,292306,291398,293422,292823,292823,293422,63
62,test,1,con,1,z,Tue Jun 30 2026 10:33:09 GMT-0400 (Eastern Daylight Time),297451.2999999998,banana,800,I,z,z,None,611,411.0,200.0,1,3,1939.5,295511.7999999998,9045,banana,NF,C,294956,294956,293433,294239,293433,295372,294756,294756,295372,64
63,test,1,inc,1,z,Tue Jun 30 2026 10:33:09 GMT-0400 (Eastern Daylight Time),299534.5999999996,copper,900,I,z,z,None,641,441.0,200.0,22,3,2071.7999999998137,297462.7999999998,9045,orange,NF,C,297006,297006,295384,296289,295384,297456,296806,296806,297456,65
64,test,1,inc,1,z,Tue Jun 30 2026 10:33:09 GMT-0400 (Eastern Daylight Time),301417.7999999998,gold,800,I,z,z,None,545,345.0,200.0,45,3,1872.9000000003725,299544.89999999944,9045,pear,NF,C,298989,298989,297466,298273,297466,299339,298789,298789,299339,66
65,test,1,con,1,m,Tue Jun 30 2026 10:33:09 GMT-0400 (Eastern Daylight Time),303334.2000000002,iron,800,I,m,m,None,581,382.0,199.0,105,3,1907.0,301427.2000000002,9045,iron,NF,C,300873,300873,299348,300156,299348,301255,300673,300673,301255,67
66,test,1,con,1,m,Tue Jun 30 2026 10:33:09 GMT-0400 (Eastern Daylight Time),305201.2000000002,cobalt,800,I,m,m,None,522,322.0,200.0,89,3,1852.7000000001863,303348.5,9045,cobalt,NF,C,302789,302789,301270,302073,301270,303122,302589,302589,303122,68
66,test,1,con,0,z,Tue Jun 30 2026 10:33:09 GMT-0400 (Eastern Daylight Time),307284.5999999996,raisin,900,I,m,m,None,634,435.0,199.0,26,3,2072.399999999441,305212.2000000002,9045,raisin,NF,C,304755,304755,303133,304039,303134,305206,304556,304556,305206,69
67,test,1,inc,1,m,Tue Jun 30 2026 10:33:09 GMT-0400 (Eastern Daylight Time),309601.2000000002,raisin,1100,I,m,m,None,671,471.0,200.0,96,3,2306.800000000745,307294.39999999944,9045,cobalt,NF,C,307040,307040,305215,306323,305216,307522,306839,306839,307522,70
68,test,1,inc,1,m,Tue Jun 30 2026 10:33:09 GMT-0400 (Eastern Daylight Time),311734.2999999998,cherry,900,I,m,m,None,698,499.0,199.0,78,3,2123.7999999998137,309610.5,9045,copper,NF,C,309156,309156,307532,308439,307532,309655,308956,308956,309655,71
69,test,1,inc,1,z,Tue Jun 30 2026 10:33:09 GMT-0400 (Eastern Daylight Time),313750.89999999944,copper,900,I,z,z,None,582,382.0,200.0,14,3,2008.699999999255,311742.2000000002,9045,cherry,NF,C,311289,311289,309663,310573,309664,311672,311089,311089,311672,72
70,test,1,con,1,z,Tue Jun 30 2026 10:33:09 GMT-0400 (Eastern Daylight Time),316067.7999999998,orange,1100,I,z,z,None,668,468.0,200.0,20,3,2308.2000000001863,313759.5999999996,9045,orange,NF,C,313506,313506,311681,312789,311681,313989,313306,313306,313989,73
71,test,1,inc,1,z,Tue Jun 30 2026 10:33:09 GMT-0400 (Eastern Daylight Time),318201.0999999996,zinc,1000,I,z,z,None,594,395.0,199.0,47,3,2122.2000000001863,316078.89999999944,9045,pear,NF,C,315723,315723,314000,315006,314000,316122,315523,315523,316122,74
72,test,1,inc,1,z,Tue Jun 30 2026 10:33:09 GMT-0400 (Eastern Daylight Time),320201.0999999996,bronze,800,I,z,z,None,662,463.0,199.0,29,3,1990.5999999996275,318210.5,9045,raisin,NF,C,317656,317656,316131,316939,316132,318122,317456,317456,318122,75
73,test,1,inc,1,m,Tue Jun 30 2026 10:33:09 GMT-0400 (Eastern Daylight Time),322384.5,orange,1000,I,m,m,None,637,438.0,199.0,71,3,2174.5,320210.0,9045,bronze,NF,C,319856,319856,318131,319139,318131,320306,319656,319656,320305,76
74,test,1,inc,1,z,Tue Jun 30 2026 10:33:09 GMT-0400 (Eastern Daylight Time),324617.7999999998,cobalt,1100,I,z,z,None,595,395.0,200.0,8,3,2221.4000000003725,322396.39999999944,9045,banana,NF,C,322139,322139,320317,321423,320318,322539,321939,321939,322539,77
75,test,1,con,1,z,Tue Jun 30 2026 10:33:09 GMT-0400 (Eastern Daylight Time),326784.5,pear,800,I,z,z,None,820,621.0,199.0,41,3,2157.2000000001863,324627.2999999998,9045,pear,NF,C,324073,324073,322548,323356,322549,324706,323873,323873,324706,78
76,test,1,con,1,m,Tue Jun 30 2026 10:33:09 GMT-0400 (Eastern Daylight Time),329117.89999999944,copper,1100,I,m,m,None,691,491.0,200.0,76,3,2322.2999999998137,326795.5999999996,9045,copper,NF,C,326539,326539,324717,325823,324717,327039,326339,326339,327039,79
77,test,1,con,1,z,Tue Jun 30 2026 10:33:09 GMT-0400 (Eastern Daylight Time),331367.5,lime,1100,I,z,z,None,613,414.0,199.0,36,3,2240.7000000001863,329126.7999999998,9045,lime,NF,C,328873,328873,327048,328156,327048,329289,328673,328673,329288,80
78,test,1,inc,1,m,Tue Jun 30 2026 10:33:09 GMT-0400 (Eastern Daylight Time),333651.0999999996,raisin,1100,I,m,m,None,634,435.0,199.0,80,3,2274.5999999996275,331376.5,9045,copper,NF,C,331123,331123,329298,330406,329298,331572,330923,330923,331572,81
79,test,1,con,1,m,Tue Jun 30 2026 10:33:09 GMT-0400 (Eastern Daylight Time),335701.2000000002,lead,800,I,m,m,None,699,500.0,199.0,121,3,2039.300000000745,333661.89999999944,9045,lead,NF,C,333106,333106,331583,332389,331583,333622,332906,332906,333622,82
80,test,1,inc,1,m,Tue Jun 30 2026 10:33:09 GMT-0400 (Eastern Daylight Time),337734.2999999998,pear,900,I,m,m,None,597,398.0,199.0,110,3,2024.5,335709.7999999998,9045,iron,NF,C,335256,335256,333631,334539,333631,335655,335056,335056,335655,83
81,test,1,con,1,m,Tue Jun 30 2026 10:33:09 GMT-0400 (Eastern Daylight Time),339901.0999999996,silver,1100,I,m,m,None,525,325.0,200.0,84,3,2155.399999999441,337745.7000000002,9045,silver,NF,C,337489,337489,335667,336773,335667,337822,337289,337289,337822,84
82,test,1,con,1,z,Tue Jun 30 2026 10:33:09 GMT-0400 (Eastern Daylight Time),342017.7000000002,plum,1000,I,z,z,None,570,371.0,199.0,59,3,2107.9000000003725,339909.7999999998,9045,plum,NF,C,339556,339556,337831,338839,337831,339939,339356,339356,339939,85
83,test,1,con,1,z,Tue Jun 30 2026 10:33:09 GMT-0400 (Eastern Daylight Time),344101.0,kiwi,900,I,z,z,None,632,433.0,199.0,50,3,2074.4000000003725,342026.5999999996,9045,kiwi,NF,C,341573,341573,339948,340856,339948,342022,341373,341373,342022,86
84,test,1,inc,1,m,Tue Jun 30 2026 10:33:09 GMT-0400 (Eastern Daylight Time),346067.7999999998,lime,800,I,m,m,None,617,418.0,199.0,117,3,1958.5,344109.2999999998,9045,zinc,NF,C,343556,343556,342030,342839,342031,343989,343356,343356,343989,87
85,test,1,con,1,z,Tue Jun 30 2026 10:33:09 GMT-0400 (Eastern Daylight Time),348034.5,lime,800,I,z,z,None,618,419.0,199.0,33,3,1957.4000000003725,346077.0999999996,9045,lime,NF,C,345523,345523,343998,344806,343998,345956,345323,345323,345956,88
86,test,1,con,1,m,Tue Jun 30 2026 10:33:09 GMT-0400 (Eastern Daylight Time),350317.7999999998,silver,900,I,m,m,None,841,641.0,200.0,82,3,2273.5,348044.2999999998,9045,silver,NF,C,347589,347589,345965,346873,345966,348239,347389,347389,348239,89
87,test,1,con,1,z,Tue Jun 30 2026 10:33:09 GMT-0400 (Eastern Daylight Time),352367.7000000002,plum,900,I,z,z,None,605,406.0,199.0,58,3,2039.9000000003725,350327.7999999998,9045,plum,NF,C,349873,349873,348249,349155,348249,350289,349673,349673,350289,90
88,test,1,con,1,m,Tue Jun 30 2026 10:33:09 GMT-0400 (Eastern Daylight Time),354467.7999999998,gold,900,I,m,m,None,650,451.0,199.0,98,3,2090.5999999996275,352377.2000000002,9045,gold,NF,C,351923,351923,350298,351206,350299,352389,351723,351723,352389,91
89,test,1,inc,1,z,Tue Jun 30 2026 10:33:09 GMT-0400 (Eastern Daylight Time),356667.7000000002,silver,1000,I,z,z,None,658,459.0,199.0,31,3,2188.9000000003725,354478.7999999998,9045,raisin,NF,C,354123,354123,352400,353406,352400,354589,353923,353923,354589,92
90,test,1,con,1,m,Tue Jun 30 2026 10:33:09 GMT-0400 (Eastern Daylight Time),358850.7999999998,iron,900,I,m,m,None,734,535.0,199.0,106,3,2173.7999999998137,356677.0,9045,iron,NF,C,356223,356223,354598,355506,354598,356772,356023,356023,356772,93
91,test,1,con,1,z,Tue Jun 30 2026 10:33:09 GMT-0400 (Eastern Daylight Time),361617.7999999998,banana,1100,I,z,z,None,1119,920.0,199.0,4,3,2756.4000000003725,358861.39999999944,9045,banana,NF,C,358606,358606,356782,357889,356783,359539,358406,358406,359539,94
92,test,1,con,1,m,Tue Jun 30 2026 10:33:09 GMT-0400 (Eastern Daylight Time),363667.7000000002,lead,900,I,m,m,None,601,402.0,199.0,122,3,2041.1000000005588,361626.5999999996,9045,lead,NF,C,361172,361173,359548,360456,359548,361589,360973,360973,361589,95
92,test,1,con,0,z,Tue Jun 30 2026 10:33:09 GMT-0400 (Eastern Daylight Time),365717.7000000002,orange,900,I,m,m,None,600,400.0,200.0,18,3,2039.800000000745,363677.89999999944,9045,orange,NF,C,363223,363223,361599,362506,361599,363639,363022,363022,363639,96
93,test,1,inc,1,m,Tue Jun 30 2026 10:33:09 GMT-0400 (Eastern Daylight Time),368050.89999999944,plum,1100,I,m,m,None,684,485.0,199.0,128,3,2321.7999999998137,365729.0999999996,9045,lead,NF,C,365473,365473,363650,364756,363650,365972,365272,365273,365972,97
94,test,1,inc,1,z,Tue Jun 30 2026 10:33:09 GMT-0400 (Eastern Daylight Time),369967.7000000002,gold,800,I,z,z,None,571,372.0,199.0,53,3,1906.0,368061.7000000002,9045,kiwi,NF,C,367506,367506,365983,366789,365983,367889,367306,367306,367889,98
95,test,1,inc,1,z,Tue Jun 30 2026 10:33:09 GMT-0400 (Eastern Daylight Time),372051.0,iron,900,I,z,z,None,635,436.0,199.0,62,3,2072.4000000003725,369978.5999999996,9045,plum,NF,C,369523,369523,367900,368806,367900,369972,369323,369323,369972,99
96,test,1,inc,1,z,Tue Jun 30 2026 10:33:09 GMT-0400 (Eastern Daylight Time),374067.7999999998,bronze,800,I,z,z,None,668,469.0,199.0,13,3,2005.5,372062.2999999998,9045,cherry,NF,C,371506,371506,369983,370789,369984,371989,371306,371306,371989,100
97,test,1,con,1,m,Tue Jun 30 2026 10:33:09 GMT-0400 (Eastern Daylight Time),376401.0,zinc,1100,I,m,m,None,687,487.0,200.0,116,3,2323.600000000559,374077.39999999944,9045,zinc,NF,C,373822,373823,371998,373106,371999,374322,373622,373622,374322,101
98,test,1,con,1,z,Tue Jun 30 2026 10:33:09 GMT-0400 (Eastern Daylight Time),378767.7999999998,plum,1100,I,z,z,None,721,522.0,199.0,60,3,2357.0,376410.7999999998,9045,plum,NF,C,376156,376156,374332,375439,374332,376689,375956,375956,376689,102
99,test,1,inc,1,z,Tue Jun 30 2026 10:33:09 GMT-0400 (Eastern Daylight Time),380917.5999999996,zinc,1000,I,z,z,None,599,399.0,200.0,55,3,2134.5,378783.0999999996,9045,kiwi,NF,C,378422,378423,376704,377706,376704,378839,378222,378222,378839,103
100,test,1,inc,1,z,Tue Jun 30 2026 10:33:09 GMT-0400 (Eastern Daylight Time),383101.0,iron,900,I,z,z,None,740,541.0,199.0,46,3,2172.2999999998137,380928.7000000002,9045,pear,NF,C,380472,380473,378850,379756,378850,381022,380273,380273,381022,104
101,test,1,inc,1,m,Tue Jun 30 2026 10:33:09 GMT-0400 (Eastern Daylight Time),385217.7000000002,kiwi,1000,I,m,m,None,570,371.0,199.0,119,3,2107.5,383110.2000000002,9045,zinc,NF,C,382756,382756,381031,382039,381032,383139,382556,382556,383139,105
102,test,1,inc,1,z,Tue Jun 30 2026 10:33:09 GMT-0400 (Eastern Daylight Time),387384.2999999998,zinc,1000,I,z,z,None,630,430.0,200.0,63,3,2155.5999999996275,385228.7000000002,9045,plum,NF,C,384873,384873,383150,384156,383150,385305,384672,384672,385305,106
103,test,1,con,1,z,Tue Jun 30 2026 10:33:09 GMT-0400 (Eastern Daylight Time),389634.39999999944,banana,900,I,z,z,None,803,603.0,200.0,2,3,2238.2999999998137,387396.0999999996,9045,banana,NF,C,386939,386939,385317,386223,385318,387556,386739,386739,387555,107
104,test,1,inc,1,m,Tue Jun 30 2026 10:33:09 GMT-0400 (Eastern Daylight Time),391634.2999999998,lime,800,I,m,m,None,653,453.0,200.0,109,3,1988.9000000003725,389645.39999999944,9045,iron,NF,C,389089,389089,387566,388372,387567,389555,388889,388889,389555,108
105,test,1,inc,1,z,Tue Jun 30 2026 10:33:09 GMT-0400 (Eastern Daylight Time),393667.5999999996,gold,800,I,z,z,None,685,485.0,200.0,37,3,2022.8999999994412,391644.7000000002,9045,lime,NF,C,391089,391089,389566,390372,389566,391589,390889,390889,391589,109
106,test,1,con,1,m,Tue Jun 30 2026 10:33:09 GMT-0400 (Eastern Daylight Time),395884.2999999998,bronze,1000,I,m,m,None,676,476.0,200.0,67,3,2207.2999999998137,393677.0,9045,bronze,NF,C,393322,393323,391598,392606,391598,393805,393122,393122,393805,110
107,test,1,con,1,m,Tue Jun 30 2026 10:33:09 GMT-0400 (Eastern Daylight Time),398217.5999999996,gold,1100,I,m,m,None,695,495.0,200.0,100,3,2324.0,395893.5999999996,9045,gold,NF,C,395639,395639,393815,394922,393815,396139,395439,395439,396139,111
108,test,1,inc,1,z,Tue Jun 30 2026 10:33:09 GMT-0400 (Eastern Daylight Time),400184.2000000002,bronze,800,I,z,z,None,630,430.0,200.0,5,3,1957.4000000003725,398226.7999999998,9045,banana,NF,C,397672,397672,396148,396956,396148,398105,397472,397472,398105,112
109,test,1,inc,1,z,Tue Jun 30 2026 10:33:09 GMT-0400 (Eastern Daylight Time),402518.0999999996,lead,1100,I,z,z,None,700,500.0,200.0,40,3,2323.0999999996275,400195.0,9045,lime,NF,C,399939,399939,398116,399222,398116,400439,399739,399739,400439,113
110,test,1,con,1,z,Tue Jun 30 2026 10:33:09 GMT-0400 (Eastern Daylight Time),404484.2999999998,cherry,900,I,z,z,None,518,318.0,200.0,10,3,1955.2000000001863,402529.0999999996,9045,cherry,NF,C,402072,402072,400450,401355,400450,402405,401872,401872,402405,114
111,test,1,inc,1,m,Tue Jun 30 2026 10:33:09 GMT-0400 (Eastern Daylight Time),406717.5999999996,plum,1100,I,m,m,None,592,392.0,200.0,104,3,2222.2999999998137,404495.2999999998,9045,gold,NF,C,404239,404239,402416,403522,402417,404639,404039,404039,404639,115
112,test,1,inc,1,m,Tue Jun 30 2026 10:33:09 GMT-0400 (Eastern Daylight Time),408850.89999999944,pear,900,I,m,m,None,686,486.0,200.0,118,3,2124.199999999255,406726.7000000002,9045,zinc,NF,C,406272,406272,404648,405556,404648,406772,406072,406072,406772,116
112,test,1,inc,0,m,Tue Jun 30 2026 10:33:09 GMT-0400 (Eastern Daylight Time),412184.2999999998,banana,800,I,None,None,None,1799,1799.0,199.0,85,3,3325.0,408859.2999999998,9045,silver,NF,C,408306,408306,406780,407589,406781,410105,408106,408106,410105,117
113,test,1,con,1,z,Tue Jun 30 2026 10:33:09 GMT-0400 (Eastern Daylight Time),414384.39999999944,pear,1100,I,z,z,None,555,355.0,200.0,44,3,2188.899999999441,412195.5,9045,pear,NF,C,411939,411939,410117,411222,410117,412305,411739,411739,412305,118
114,test,1,inc,1,m,Tue Jun 30 2026 10:33:09 GMT-0400 (Eastern Daylight Time),416650.89999999944,raisin,1100,I,m,m,None,627,427.0,200.0,88,3,2255.899999999441,414395.0,9045,silver,NF,C,414139,414139,412316,413422,412316,414572,413939,413939,414572,119
115,test,1,con,1,m,Tue Jun 30 2026 10:33:09 GMT-0400 (Eastern Daylight Time),418750.89999999944,lead,1000,I,m,m,None,556,357.0,199.0,123,3,2091.5,416659.39999999944,9045,lead,NF,C,416306,416306,414580,415589,414581,416672,416106,416106,416672,120
116,test,1,con,1,m,Tue Jun 30 2026 10:33:09 GMT-0400 (Eastern Daylight Time),420984.2000000002,bronze,1100,I,m,m,None,595,396.0,199.0,68,3,2224.600000000559,418759.5999999996,9045,bronze,NF,C,418506,418506,416681,417789,416681,418905,418306,418306,418905,121
117,test,1,con,1,z,Tue Jun 30 2026 10:33:09 GMT-0400 (Eastern Daylight Time),423134.2999999998,raisin,1100,I,z,z,None,507,307.0,200.0,28,3,2141.0,420993.2999999998,9045,raisin,NF,C,420739,420739,418914,420023,418915,421055,420539,420539,421055,122
118,test,1,inc,1,z,Tue Jun 30 2026 10:33:09 GMT-0400 (Eastern Daylight Time),425400.7999999998,cobalt,1100,I,z,z,None,629,429.0,200.0,32,3,2257.7000000001863,423143.0999999996,9045,raisin,NF,C,422889,422889,421064,422172,421065,423322,422689,422689,423322,123
119,test,1,con,1,m,Tue Jun 30 2026 10:33:09 GMT-0400 (Eastern Daylight Time),427450.89999999944,copper,800,I,m,m,None,709,510.0,199.0,73,3,2038.699999999255,425412.2000000002,9045,copper,NF,C,424856,424856,423333,424139,423334,425372,424656,424656,425372,124
120,test,1,inc,1,z,Tue Jun 30 2026 10:33:09 GMT-0400 (Eastern Daylight Time),429800.7999999998,lead,1100,I,z,z,None,712,513.0,199.0,56,3,2340.2000000001863,427460.5999999996,9045,kiwi,NF,C,427206,427206,425382,426489,425382,427722,427006,427006,427722,125
121,test,1,inc,1,z,Tue Jun 30 2026 10:33:09 GMT-0400 (Eastern Daylight Time),432084.2999999998,cobalt,1100,I,z,z,None,633,434.0,199.0,24,3,2273.9000000003725,429810.39999999944,9045,orange,NF,C,429556,429556,427731,428839,427732,430005,429356,429356,430005,126
122,test,1,con,1,m,Tue Jun 30 2026 10:33:09 GMT-0400 (Eastern Daylight Time),434167.2000000002,zinc,1000,I,m,m,None,546,347.0,199.0,115,3,2072.4000000003725,432094.7999999998,9045,zinc,NF,C,431739,431739,430016,431022,430016,432088,431539,431539,432088,127
123,test,1,con,1,z,Tue Jun 30 2026 10:33:09 GMT-0400 (Eastern Daylight Time),436384.2000000002,kiwi,800,I,z,z,None,872,672.0,200.0,49,3,2207.9000000003725,434176.2999999998,9045,kiwi,NF,C,433622,433622,432097,432906,432098,434305,433422,433422,434305,128
