acc_sum,block,block_c,condition,correct,correct_response,datetime,endtime,flanker,jitter,project,response,response_test_buffer_response,response_test_target_response,response_time,response_time_test_buffer_response,response_time_test_target_response,row_sel,session_number,start_end,starttime,subject_id,target,task,task_vers,time_test_buffer,time_test_buffer_response,time_test_constants,time_test_flanker,time_test_jitter,time_test_logger,time_test_target,time_test_target_response,time_test_variables,trial
1,prac,1,inc,1,z,Wed Mar 18 2026 10:03:15 GMT-0400 (Eastern Daylight Time),136085.5,lead,1100,I,z,,,299,,,8,2,2708.3999999910593,133377.10000000894,9045,plum,NF,C,,,,,,,,,,1
2,prac,1,inc,1,z,Wed Mar 18 2026 10:03:15 GMT-0400 (Eastern Daylight Time),138902.10000000894,iron,900,I,z,,,614,,,6,2,2804.6000000089407,136097.5,9045,pear,NF,C,,,,,,,,,,2
3,prac,1,inc,1,m,Wed Mar 18 2026 10:03:15 GMT-0400 (Eastern Daylight Time),141752.0,plum,1100,I,m,,,445,,,16,2,2840.8999999910593,138911.10000000894,9045,lead,NF,C,,,,,,,,,,3
4,prac,1,inc,1,m,Wed Mar 18 2026 10:03:15 GMT-0400 (Eastern Daylight Time),144501.90000000596,pear,900,I,m,,,547,,,14,2,2740.7000000029802,141761.20000000298,9045,iron,NF,C,,,,,,,,,,4
5,prac,1,con,1,m,Wed Mar 18 2026 10:03:15 GMT-0400 (Eastern Daylight Time),147418.5,silver,1000,I,m,,,609,,,11,2,2906.699999988079,144511.80000001192,9045,silver,NF,C,,,,,,,,,,5
6,prac,1,con,1,z,Wed Mar 18 2026 10:03:15 GMT-0400 (Eastern Daylight Time),150218.60000000894,orange,1000,I,z,,,493,,,3,2,2790.2999999970198,147428.30000001192,9045,orange,NF,C,,,,,,,,,,6
7,prac,1,inc,1,z,Wed Mar 18 2026 10:03:15 GMT-0400 (Eastern Daylight Time),153201.90000000596,cobalt,1100,I,z,,,570,,,4,2,2973.0999999940395,150228.80000001192,9045,raisin,NF,C,,,,,,,,,,7
7,prac,1,inc,0,m,Wed Mar 18 2026 10:03:15 GMT-0400 (Eastern Daylight Time),156151.90000000596,raisin,1100,I,z,,,545,,,12,2,2941.0999999940395,153210.80000001192,9045,cobalt,NF,C,,,,,,,,,,8
8,prac,1,con,1,z,Wed Mar 18 2026 10:03:15 GMT-0400 (Eastern Daylight Time),158951.80000001192,kiwi,1000,I,z,,,495,,,7,2,2790.6000000089407,156161.20000000298,9045,kiwi,NF,C,,,,,,,,,,9
8,prac,1,con,0,m,Wed Mar 18 2026 10:03:15 GMT-0400 (Eastern Daylight Time),161585.20000000298,gold,800,I,z,,,519,,,13,2,2623.0,158962.20000000298,9045,gold,NF,C,,,,,,,,,,10
9,prac,1,inc,1,z,Wed Mar 18 2026 10:03:15 GMT-0400 (Eastern Daylight Time),164518.10000000894,copper,900,I,z,,,730,,,2,2,2923.0,161595.10000000894,9045,cherry,NF,C,,,,,,,,,,11
9,prac,1,con,0,z,Wed Mar 18 2026 10:03:15 GMT-0400 (Eastern Daylight Time),167085.20000000298,lime,800,I,m,,,458,,,5,2,2557.8999999910593,164527.30000001192,9045,lime,NF,C,,,,,,,,,,12
10,prac,1,con,1,m,Wed Mar 18 2026 10:03:15 GMT-0400 (Eastern Daylight Time),169868.5,bronze,800,I,m,,,674,,,9,2,2775.0999999940395,167093.40000000596,9045,bronze,NF,C,,,,,,,,,,13
11,prac,1,con,1,m,Wed Mar 18 2026 10:03:15 GMT-0400 (Eastern Daylight Time),172701.90000000596,zinc,1000,I,m,,,524,,,15,2,2822.7000000029802,169879.20000000298,9045,zinc,NF,C,,,,,,,,,,14
12,prac,1,con,1,z,Wed Mar 18 2026 10:03:15 GMT-0400 (Eastern Daylight Time),175285.20000000298,banana,800,I,z,,,481,,,1,2,2573.8999999910593,172711.30000001192,9045,banana,NF,C,,,,,,,,,,15
13,prac,1,inc,1,m,Wed Mar 18 2026 10:03:15 GMT-0400 (Eastern Daylight Time),177985.30000001192,cherry,900,I,m,,,486,,,10,2,2688.6000000089407,175296.70000000298,9045,copper,NF,C,,,,,,,,,,16
1,test,1,inc,1,z,Wed Mar 18 2026 10:03:15 GMT-0400 (Eastern Daylight Time),194601.90000000596,iron,900,I,z,z,None,578,379.0,199.0,38,2,2008.2000000029802,192593.70000000298,9045,lime,NF,C,190820,190820,189195,190103,189195,191203,190620,190620,191203,1
1,test,1,inc,0,m,Wed Mar 18 2026 10:03:15 GMT-0400 (Eastern Daylight Time),196518.60000000894,pear,900,I,z,z,None,481,282.0,199.0,126,2,1905.7999999970198,194612.80000001192,9045,lead,NF,C,192837,192837,191214,192120,191214,193120,192637,192637,193120,2
2,test,1,con,1,m,Wed Mar 18 2026 10:03:15 GMT-0400 (Eastern Daylight Time),198518.20000000298,iron,900,I,m,m,None,550,350.0,200.0,106,2,1990.3999999910593,196527.80000001192,9045,iron,NF,C,194753,194753,193129,194037,193129,195119,194553,194553,195119,3
3,test,1,con,1,z,Wed Mar 18 2026 10:03:15 GMT-0400 (Eastern Daylight Time),200518.70000000298,cherry,1000,I,z,z,None,465,265.0,200.0,11,2,1991.2000000029802,198527.5,9045,cherry,NF,C,196853,196854,195128,196137,195129,197120,196653,196653,197120,4
4,test,1,con,1,m,Wed Mar 18 2026 10:03:15 GMT-0400 (Eastern Daylight Time),202801.80000001192,silver,1100,I,m,m,None,638,438.0,200.0,84,2,2273.7000000029802,200528.10000000894,9045,silver,NF,C,198953,198953,197129,198237,197130,199403,198753,198753,199403,5
5,test,1,con,1,m,Wed Mar 18 2026 10:03:15 GMT-0400 (Eastern Daylight Time),204834.80000001192,bronze,1000,I,m,m,None,484,285.0,199.0,67,2,2023.800000011921,202811.0,9045,bronze,NF,C,201137,201137,199412,200419,199412,201436,200937,200937,201436,6
6,test,1,inc,1,m,Wed Mar 18 2026 10:03:15 GMT-0400 (Eastern Daylight Time),206885.10000000894,cherry,900,I,m,m,None,600,401.0,199.0,94,2,2041.7999999970198,204843.30000001192,9045,cobalt,NF,C,203070,203070,201444,202353,201445,203486,202870,202870,203486,7
7,test,1,con,1,z,Wed Mar 18 2026 10:03:15 GMT-0400 (Eastern Daylight Time),208901.80000001192,kiwi,800,I,z,z,None,666,467.0,199.0,49,2,2007.800000011921,206894.0,9045,kiwi,NF,C,205020,205020,203495,204303,203495,205503,204820,204820,205503,8
8,test,1,con,1,z,Wed Mar 18 2026 10:03:15 GMT-0400 (Eastern Daylight Time),210934.90000000596,lime,1000,I,z,z,None,497,298.0,199.0,35,2,2024.4000000059605,208910.5,9045,lime,NF,C,207237,207237,205512,206520,205512,207536,207037,207037,207536,9
8,test,1,inc,0,z,Wed Mar 18 2026 10:03:15 GMT-0400 (Eastern Daylight Time),212818.40000000596,iron,900,I,m,m,None,436,237.0,199.0,62,2,1873.4000000059605,210945.0,9045,plum,NF,C,209170,209170,207546,208453,207546,209420,208970,208970,209419,10
9,test,1,con,1,z,Wed Mar 18 2026 10:03:15 GMT-0400 (Eastern Daylight Time),214885.10000000894,raisin,800,I,z,z,None,718,518.0,200.0,25,2,2058.0,212827.10000000894,9045,raisin,NF,C,210953,210953,209428,210237,209429,211486,210753,210753,211486,11
10,test,1,inc,1,z,Wed Mar 18 2026 10:03:15 GMT-0400 (Eastern Daylight Time),217018.40000000596,silver,1000,I,z,z,None,594,395.0,199.0,7,2,2122.5999999940395,214895.80000001192,9045,banana,NF,C,213220,213220,211497,212503,211497,213620,213020,213020,213619,12
11,test,1,inc,1,z,Wed Mar 18 2026 10:03:15 GMT-0400 (Eastern Daylight Time),219201.80000001192,cobalt,1100,I,z,z,None,538,338.0,200.0,8,2,2173.4000000059605,217028.40000000596,9045,banana,NF,C,215453,215453,213629,214736,213630,215803,215253,215253,215803,13
12,test,1,inc,1,z,Wed Mar 18 2026 10:03:15 GMT-0400 (Eastern Daylight Time),221251.80000001192,iron,900,I,z,z,None,601,402.0,199.0,46,2,2039.800000011921,219212.0,9045,pear,NF,C,217437,217437,215813,216720,215813,217853,217237,217237,217853,14
13,test,1,inc,1,m,Wed Mar 18 2026 10:03:15 GMT-0400 (Eastern Daylight Time),223318.30000001192,orange,1000,I,m,m,None,516,317.0,199.0,79,2,2056.7000000029802,221261.60000000894,9045,copper,NF,C,219587,219587,217863,218870,217863,219919,219387,219387,219919,15
13,test,1,con,0,z,Wed Mar 18 2026 10:03:15 GMT-0400 (Eastern Daylight Time),225401.90000000596,orange,1100,I,m,m,None,445,245.0,200.0,20,2,2073.7999999970198,223328.10000000894,9045,orange,NF,C,221753,221754,219929,221037,219929,222003,221553,221553,222003,16
14,test,1,inc,1,z,Wed Mar 18 2026 10:03:15 GMT-0400 (Eastern Daylight Time),227518.20000000298,copper,900,I,z,z,None,656,456.0,200.0,14,2,2100.3999999910593,225417.80000001192,9045,cherry,NF,C,223654,223654,222019,222937,222020,224119,223453,223453,224119,17
15,test,1,inc,1,z,Wed Mar 18 2026 10:03:15 GMT-0400 (Eastern Daylight Time),229701.80000001192,cobalt,1100,I,z,z,None,534,334.0,200.0,24,2,2177.0,227524.80000001192,9045,orange,NF,C,225953,225953,224126,225236,224126,226303,225753,225753,226303,18
16,test,1,con,1,z,Wed Mar 18 2026 10:03:15 GMT-0400 (Eastern Daylight Time),231935.0,cherry,1100,I,z,z,None,589,390.0,199.0,12,2,2223.2999999970198,229711.70000000298,9045,cherry,NF,C,228137,228137,226313,227420,226313,228536,227937,227937,228536,19
17,test,1,con,1,m,Wed Mar 18 2026 10:03:15 GMT-0400 (Eastern Daylight Time),233851.80000001192,silver,800,I,m,m,None,576,377.0,199.0,81,2,1908.4000000059605,231943.40000000596,9045,silver,NF,C,230070,230070,228544,229353,228545,230453,229870,229870,230453,20
18,test,1,con,1,z,Wed Mar 18 2026 10:03:15 GMT-0400 (Eastern Daylight Time),236001.80000001192,plum,1000,I,z,z,None,603,404.0,199.0,59,2,2137.7000000029802,233864.10000000894,9045,plum,NF,C,232187,232187,230465,231470,230466,232603,231987,231987,232603,21
19,test,1,inc,1,z,Wed Mar 18 2026 10:03:15 GMT-0400 (Eastern Daylight Time),238035.0,copper,900,I,z,z,None,585,386.0,199.0,22,2,2024.5999999940395,236010.40000000596,9045,orange,NF,C,234237,234237,232611,233520,232612,234636,234037,234037,234636,22
20,test,1,con,1,m,Wed Mar 18 2026 10:03:15 GMT-0400 (Eastern Daylight Time),239868.40000000596,cobalt,800,I,m,m,None,492,293.0,199.0,89,2,1824.2999999970198,238044.10000000894,9045,cobalt,NF,C,236170,236170,234645,235453,234646,236470,235970,235970,236469,23
21,test,1,con,1,z,Wed Mar 18 2026 10:03:15 GMT-0400 (Eastern Daylight Time),241918.40000000596,orange,1000,I,z,z,None,507,307.0,200.0,19,2,2039.2000000029802,239879.20000000298,9045,orange,NF,C,238203,238204,236480,237487,236480,238520,238003,238003,238519,24
22,test,1,con,1,z,Wed Mar 18 2026 10:03:15 GMT-0400 (Eastern Daylight Time),243985.10000000894,banana,1000,I,z,z,None,522,322.0,200.0,3,2,2056.9000000059605,241928.20000000298,9045,banana,NF,C,240253,240253,238529,239537,238530,240586,240053,240053,240586,25
23,test,1,inc,1,z,Wed Mar 18 2026 10:03:15 GMT-0400 (Eastern Daylight Time),246151.60000000894,lead,1100,I,z,z,None,530,331.0,199.0,48,2,2157.4000000059605,243994.20000000298,9045,pear,NF,C,242420,242420,240595,241703,240596,242753,242220,242220,242753,26
24,test,1,inc,1,m,Wed Mar 18 2026 10:03:15 GMT-0400 (Eastern Daylight Time),248318.30000001192,raisin,1100,I,m,m,None,523,324.0,199.0,96,2,2155.9000000059605,246162.40000000596,9045,cobalt,NF,C,244587,244587,242763,243870,242764,244919,244387,244387,244919,27
25,test,1,con,1,m,Wed Mar 18 2026 10:03:15 GMT-0400 (Eastern Daylight Time),250351.80000001192,gold,1000,I,m,m,None,489,289.0,200.0,99,2,2025.2000000029802,248326.60000000894,9045,gold,NF,C,246653,246654,244928,245937,244928,246953,246453,246453,246953,28
26,test,1,con,1,m,Wed Mar 18 2026 10:03:15 GMT-0400 (Eastern Daylight Time),252268.5,bronze,900,I,m,m,None,475,276.0,199.0,66,2,1907.5999999940395,250360.90000000596,9045,bronze,NF,C,248587,248587,246962,247870,246962,248870,248387,248387,248869,29
27,test,1,inc,1,m,Wed Mar 18 2026 10:03:15 GMT-0400 (Eastern Daylight Time),254251.80000001192,lime,800,I,m,m,None,644,444.0,200.0,125,2,1973.7000000029802,252278.10000000894,9045,lead,NF,C,250403,250403,248879,249687,248879,250853,250203,250203,250853,30
27,test,1,con,0,m,Wed Mar 18 2026 10:03:15 GMT-0400 (Eastern Daylight Time),256235.10000000894,gold,800,I,z,z,None,643,444.0,199.0,97,2,1972.9000000059605,254262.20000000298,9045,gold,NF,C,252387,252387,250863,251670,250863,252836,252187,252187,252836,31
28,test,1,con,1,z,Wed Mar 18 2026 10:03:15 GMT-0400 (Eastern Daylight Time),258135.10000000894,banana,800,I,z,z,None,564,365.0,199.0,1,2,1889.0,256246.10000000894,9045,banana,NF,C,254370,254370,252847,253653,252848,254736,254170,254170,254736,32
29,test,1,inc,1,m,Wed Mar 18 2026 10:03:15 GMT-0400 (Eastern Daylight Time),259934.90000000596,banana,800,I,m,m,None,474,274.0,200.0,93,2,1791.2999999970198,258143.60000000894,9045,cobalt,NF,C,256253,256253,254745,255552,254745,256536,256053,256053,256536,33
30,test,1,con,1,m,Wed Mar 18 2026 10:03:15 GMT-0400 (Eastern Daylight Time),262185.0,bronze,1100,I,m,m,None,613,413.0,200.0,68,2,2238.8999999910593,259946.10000000894,9045,bronze,NF,C,258370,258370,256547,257653,256547,258786,258170,258170,258786,34
31,test,1,inc,1,z,Wed Mar 18 2026 10:03:15 GMT-0400 (Eastern Daylight Time),264335.200000003,silver,1000,I,z,z,None,607,407.0,200.0,31,2,2141.5,262193.700000003,9045,raisin,NF,C,260520,260520,258795,259803,258795,260936,260320,260320,260936,35
32,test,1,con,1,m,Wed Mar 18 2026 10:03:15 GMT-0400 (Eastern Daylight Time),266618.5,copper,1100,I,m,m,None,644,445.0,199.0,76,2,2273.7999999970198,264344.700000003,9045,copper,NF,C,262770,262770,260946,262053,260946,263220,262570,262570,263219,36
33,test,1,con,1,m,Wed Mar 18 2026 10:03:15 GMT-0400 (Eastern Daylight Time),268635.0,silver,900,I,m,m,None,578,378.0,200.0,82,2,2007.0,266628.0,9045,silver,NF,C,264853,264853,263229,264137,263229,265236,264653,264653,265236,37
34,test,1,inc,1,z,Wed Mar 18 2026 10:03:15 GMT-0400 (Eastern Daylight Time),270885.10000000894,cobalt,1100,I,z,z,None,600,401.0,199.0,32,2,2239.1000000089407,268646.0,9045,raisin,NF,C,267070,267070,265247,266353,265247,267486,266870,266870,267486,38
35,test,1,con,1,m,Wed Mar 18 2026 10:03:15 GMT-0400 (Eastern Daylight Time),273185.10000000894,gold,1100,I,m,m,None,654,455.0,199.0,100,2,2291.4000000059605,270893.700000003,9045,gold,NF,C,269320,269320,267495,268603,267495,269786,269120,269120,269786,39
36,test,1,inc,1,z,Wed Mar 18 2026 10:03:15 GMT-0400 (Eastern Daylight Time),275085.200000003,gold,800,I,z,z,None,559,360.0,199.0,61,2,1888.3999999910593,273196.8000000119,9045,plum,NF,C,271320,271320,269798,270603,269798,271686,271120,271120,271686,40
37,test,1,con,1,m,Wed Mar 18 2026 10:03:15 GMT-0400 (Eastern Daylight Time),276985.0,copper,800,I,m,m,None,563,363.0,200.0,73,2,1890.2999999970198,275094.700000003,9045,copper,NF,C,273220,273220,271696,272503,271696,273586,273020,273020,273586,41
38,test,1,con,1,z,Wed Mar 18 2026 10:03:15 GMT-0400 (Eastern Daylight Time),278901.700000003,cherry,800,I,z,z,None,566,367.0,199.0,9,2,1908.0999999940395,276993.60000000894,9045,cherry,NF,C,275120,275120,273595,274403,273595,275503,274920,274920,275503,42
39,test,1,inc,1,z,Wed Mar 18 2026 10:03:15 GMT-0400 (Eastern Daylight Time),281001.700000003,copper,900,I,z,z,None,662,462.0,200.0,30,2,2089.3999999910593,278912.3000000119,9045,raisin,NF,C,277137,277137,275513,276420,275514,277603,276936,276936,277603,43
40,test,1,con,1,z,Wed Mar 18 2026 10:03:15 GMT-0400 (Eastern Daylight Time),283151.8000000119,pear,1000,I,z,z,None,605,406.0,199.0,43,2,2139.9000000059605,281011.90000000596,9045,pear,NF,C,279337,279337,277613,278620,277613,279753,279137,279137,279753,44
41,test,1,con,1,z,Wed Mar 18 2026 10:03:15 GMT-0400 (Eastern Daylight Time),285368.200000003,plum,1100,I,z,z,None,579,380.0,199.0,60,2,2207.5,283160.700000003,9045,plum,NF,C,281587,281587,279762,280870,279762,281969,281387,281387,281969,45
42,test,1,con,1,m,Wed Mar 18 2026 10:03:15 GMT-0400 (Eastern Daylight Time),287368.10000000894,lead,1000,I,m,m,None,464,264.0,200.0,123,2,1985.4000000059605,285382.700000003,9045,lead,NF,C,283703,283703,281984,282987,281985,283969,283503,283503,283969,46
43,test,1,inc,1,m,Wed Mar 18 2026 10:03:15 GMT-0400 (Eastern Daylight Time),289685.10000000894,plum,1100,I,m,m,None,668,468.0,200.0,104,2,2306.4000000059605,287378.700000003,9045,gold,NF,C,285803,285803,283980,285087,283980,286286,285603,285603,286286,47
44,test,1,inc,1,m,Wed Mar 18 2026 10:03:15 GMT-0400 (Eastern Daylight Time),291585.200000003,lime,800,I,m,m,None,554,355.0,199.0,117,2,1891.2000000029802,289694.0,9045,zinc,NF,C,287820,287820,286295,287103,286295,288186,287620,287620,288186,48
45,test,1,inc,1,z,Wed Mar 18 2026 10:03:15 GMT-0400 (Eastern Daylight Time),293801.700000003,silver,1000,I,z,z,None,678,479.0,199.0,15,2,2207.2000000029802,291594.5,9045,cherry,NF,C,289920,289920,288196,289203,288196,290403,289720,289720,290403,49
46,test,1,inc,1,m,Wed Mar 18 2026 10:03:15 GMT-0400 (Eastern Daylight Time),295901.8000000119,pear,900,I,m,m,None,658,459.0,199.0,118,2,2088.6000000089407,293813.200000003,9045,zinc,NF,C,292037,292037,290414,291320,290414,292503,291837,291837,292503,50
47,test,1,con,1,z,Wed Mar 18 2026 10:03:15 GMT-0400 (Eastern Daylight Time),298051.8000000119,orange,900,I,z,z,None,701,502.0,199.0,18,2,2140.7000000029802,295911.10000000894,9045,orange,NF,C,294137,294137,292512,293420,292512,294653,293937,293937,294653,51
48,test,1,con,1,m,Wed Mar 18 2026 10:03:15 GMT-0400 (Eastern Daylight Time),299968.5,bronze,800,I,m,m,None,571,372.0,199.0,65,2,1907.7999999970198,298060.700000003,9045,bronze,NF,C,296187,296187,294662,295471,294662,296570,295987,295987,296569,52
49,test,1,con,1,m,Wed Mar 18 2026 10:03:15 GMT-0400 (Eastern Daylight Time),302168.200000003,iron,1100,I,m,m,None,563,363.0,200.0,108,2,2190.0,299978.200000003,9045,iron,NF,C,298403,298404,296579,297687,296580,298769,298203,298203,298769,53
50,test,1,con,1,z,Wed Mar 18 2026 10:03:15 GMT-0400 (Eastern Daylight Time),304068.40000000596,lime,800,I,z,z,None,552,352.0,200.0,33,2,1890.0,302178.40000000596,9045,lime,NF,C,300303,300303,298779,299587,298780,300670,300103,300103,300669,54
51,test,1,con,1,z,Wed Mar 18 2026 10:03:15 GMT-0400 (Eastern Daylight Time),306168.10000000894,banana,900,I,z,z,None,664,464.0,200.0,2,2,2091.6000000089407,304076.5,9045,banana,NF,C,302303,302303,300678,301587,300678,302769,302103,302103,302769,55
52,test,1,con,1,m,Wed Mar 18 2026 10:03:15 GMT-0400 (Eastern Daylight Time),308185.10000000894,lead,800,I,m,m,None,680,480.0,200.0,121,2,2010.2999999970198,306174.8000000119,9045,lead,NF,C,304303,304303,302776,303587,302776,304786,304103,304103,304786,56
53,test,1,inc,1,m,Wed Mar 18 2026 10:03:15 GMT-0400 (Eastern Daylight Time),310285.10000000894,kiwi,1000,I,m,m,None,558,359.0,199.0,103,2,2090.2999999970198,308194.8000000119,9045,gold,NF,C,306520,306520,304796,305803,304796,306886,306320,306320,306886,57
54,test,1,inc,1,m,Wed Mar 18 2026 10:03:15 GMT-0400 (Eastern Daylight Time),312551.5,orange,1000,I,m,m,None,730,531.0,199.0,71,2,2255.7999999970198,310295.700000003,9045,bronze,NF,C,308620,308620,306897,307903,306897,309153,308420,308420,309153,58
55,test,1,con,1,m,Wed Mar 18 2026 10:03:15 GMT-0400 (Eastern Daylight Time),314551.5,gold,900,I,m,m,None,563,364.0,199.0,98,2,1991.199999988079,312560.3000000119,9045,gold,NF,C,310787,310787,309161,310070,309162,311153,310587,310587,311153,59
56,test,1,con,1,z,Wed Mar 18 2026 10:03:15 GMT-0400 (Eastern Daylight Time),316535.200000003,kiwi,1000,I,z,z,None,448,249.0,199.0,51,2,1972.5999999940395,314562.60000000894,9045,kiwi,NF,C,312887,312887,311164,312170,311164,313136,312687,312687,313136,60
57,test,1,con,1,m,Wed Mar 18 2026 10:03:15 GMT-0400 (Eastern Daylight Time),318818.5,lead,1100,I,m,m,None,636,437.0,199.0,124,2,2275.7999999970198,316542.700000003,9045,lead,NF,C,314970,314970,313144,314253,313144,315420,314770,314770,315419,61
58,test,1,inc,1,m,Wed Mar 18 2026 10:03:15 GMT-0400 (Eastern Daylight Time),321051.60000000894,raisin,1100,I,m,m,None,594,394.0,200.0,80,2,2223.6000000089407,318828.0,9045,copper,NF,C,317253,317253,315429,316537,315429,317653,317053,317053,317653,62
59,test,1,con,1,m,Wed Mar 18 2026 10:03:15 GMT-0400 (Eastern Daylight Time),323101.8000000119,iron,1000,I,m,m,None,507,308.0,199.0,107,2,2041.7000000029802,321060.10000000894,9045,iron,NF,C,319387,319387,317661,318670,317661,319703,319187,319187,319703,63
60,test,1,con,1,m,Wed Mar 18 2026 10:03:15 GMT-0400 (Eastern Daylight Time),325251.8000000119,zinc,1100,I,m,m,None,501,302.0,199.0,116,2,2139.6000000089407,323112.200000003,9045,zinc,NF,C,321537,321537,319713,320820,319714,321853,321337,321337,321853,64
61,test,1,inc,1,m,Wed Mar 18 2026 10:03:15 GMT-0400 (Eastern Daylight Time),327235.200000003,lime,800,I,m,m,None,635,436.0,199.0,109,2,1974.3999999910593,325260.8000000119,9045,iron,NF,C,323387,323387,321862,322670,321862,323836,323187,323187,323836,65
62,test,1,inc,1,m,Wed Mar 18 2026 10:03:15 GMT-0400 (Eastern Daylight Time),329268.5,cherry,900,I,m,m,None,584,385.0,199.0,78,2,2021.5999999940395,327246.90000000596,9045,copper,NF,C,325470,325470,323848,324753,323848,325870,325270,325270,325870,66
63,test,1,inc,1,z,Wed Mar 18 2026 10:03:15 GMT-0400 (Eastern Daylight Time),331468.5,zinc,1000,I,z,z,None,660,460.0,200.0,55,2,2191.0999999940395,329277.40000000596,9045,kiwi,NF,C,327603,327603,325878,326887,325879,328070,327403,327403,328069,67
64,test,1,inc,1,z,Wed Mar 18 2026 10:03:15 GMT-0400 (Eastern Daylight Time),333751.60000000894,lead,1100,I,z,z,None,648,448.0,200.0,40,2,2273.9000000059605,331477.700000003,9045,lime,NF,C,329903,329903,328079,329187,328079,330353,329703,329703,330353,68
65,test,1,inc,1,m,Wed Mar 18 2026 10:03:15 GMT-0400 (Eastern Daylight Time),335651.90000000596,banana,800,I,m,m,None,551,352.0,199.0,85,2,1892.5,333759.40000000596,9045,silver,NF,C,331887,331887,330360,331170,330361,332253,331687,331687,332253,69
66,test,1,inc,1,z,Wed Mar 18 2026 10:03:15 GMT-0400 (Eastern Daylight Time),337668.40000000596,gold,800,I,z,z,None,667,468.0,199.0,53,2,2007.7000000029802,335660.700000003,9045,kiwi,NF,C,333787,333787,332262,333070,332262,334270,333587,333587,334269,70
67,test,1,inc,1,m,Wed Mar 18 2026 10:03:15 GMT-0400 (Eastern Daylight Time),339785.10000000894,kiwi,1000,I,m,m,None,580,380.0,200.0,111,2,2106.0,337679.10000000894,9045,iron,NF,C,336003,336003,334280,335287,334281,336386,335803,335803,336386,71
68,test,1,inc,1,m,Wed Mar 18 2026 10:03:15 GMT-0400 (Eastern Daylight Time),341951.8000000119,orange,1000,I,m,m,None,622,423.0,199.0,95,2,2158.2000000029802,339793.60000000894,9045,cobalt,NF,C,338120,338120,336395,337403,336395,338553,337920,337920,338553,72
69,test,1,inc,1,m,Wed Mar 18 2026 10:03:15 GMT-0400 (Eastern Daylight Time),343885.0,banana,800,I,m,m,None,591,392.0,199.0,69,2,1923.3999999910593,341961.60000000894,9045,bronze,NF,C,340087,340087,338563,339370,338563,340486,339887,339887,340486,73
70,test,1,inc,1,m,Wed Mar 18 2026 10:03:15 GMT-0400 (Eastern Daylight Time),346034.700000003,kiwi,1000,I,m,m,None,601,402.0,199.0,127,2,2139.2999999970198,343895.40000000596,9045,lead,NF,C,342220,342220,340496,341503,340497,342636,342020,342020,342636,74
71,test,1,inc,1,m,Wed Mar 18 2026 10:03:15 GMT-0400 (Eastern Daylight Time),348168.200000003,orange,1000,I,m,m,None,596,397.0,199.0,87,2,2128.5999999940395,346039.60000000894,9045,silver,NF,C,344370,344370,342641,343653,342641,344769,344170,344170,344769,75
72,test,1,con,1,m,Wed Mar 18 2026 10:03:15 GMT-0400 (Eastern Daylight Time),350201.8000000119,iron,800,I,m,m,None,696,496.0,200.0,105,2,2024.9000000059605,348176.90000000596,9045,iron,NF,C,346303,346303,344778,345586,344778,346803,346103,346103,346803,76
73,test,1,con,1,m,Wed Mar 18 2026 10:03:15 GMT-0400 (Eastern Daylight Time),352285.0,zinc,1000,I,m,m,None,541,342.0,199.0,115,2,2075.0999999940395,350209.90000000596,9045,zinc,NF,C,348537,348537,346811,347820,346811,348886,348337,348337,348886,77
74,test,1,inc,1,m,Wed Mar 18 2026 10:03:15 GMT-0400 (Eastern Daylight Time),354251.90000000596,banana,800,I,m,m,None,626,427.0,199.0,77,2,1956.4000000059605,352295.5,9045,copper,NF,C,350420,350420,348897,349703,348897,350853,350220,350220,350853,78
75,test,1,con,1,z,Wed Mar 18 2026 10:03:15 GMT-0400 (Eastern Daylight Time),356318.5,pear,900,I,z,z,None,623,424.0,199.0,42,2,2058.199999988079,354260.3000000119,9045,pear,NF,C,352487,352487,350861,351770,350862,352920,352287,352287,352920,79
76,test,1,inc,1,m,Wed Mar 18 2026 10:03:15 GMT-0400 (Eastern Daylight Time),358468.5,cherry,900,I,m,m,None,702,502.0,200.0,70,2,2140.5,356328.0,9045,bronze,NF,C,354553,354553,352929,353837,352929,355070,354353,354353,355070,80
77,test,1,con,1,m,Wed Mar 18 2026 10:03:15 GMT-0400 (Eastern Daylight Time),360885.200000003,silver,1000,I,m,m,None,868,668.0,200.0,83,2,2408.0999999940395,358477.10000000894,9045,silver,NF,C,356803,356803,355078,356087,355078,357486,356603,356603,357486,81
78,test,1,con,1,z,Wed Mar 18 2026 10:03:15 GMT-0400 (Eastern Daylight Time),363085.200000003,kiwi,1100,I,z,z,None,558,359.0,199.0,52,2,2189.8999999910593,360895.3000000119,9045,kiwi,NF,C,359320,359320,357496,358603,357497,359686,359120,359120,359686,82
79,test,1,con,1,z,Wed Mar 18 2026 10:03:15 GMT-0400 (Eastern Daylight Time),364968.3000000119,orange,800,I,z,z,None,546,347.0,199.0,17,2,1874.300000011921,363094.0,9045,orange,NF,C,361220,361220,359695,360503,359695,361569,361020,361020,361569,83
80,test,1,inc,1,m,Wed Mar 18 2026 10:03:15 GMT-0400 (Eastern Daylight Time),367201.8000000119,plum,1100,I,m,m,None,587,387.0,200.0,112,2,2224.1000000089407,364977.700000003,9045,iron,NF,C,363403,363404,361579,362687,361579,363803,363203,363203,363803,84
81,test,1,con,1,z,Wed Mar 18 2026 10:03:15 GMT-0400 (Eastern Daylight Time),369268.40000000596,cherry,900,I,z,z,None,617,418.0,199.0,10,2,2057.0999999940395,367211.3000000119,9045,cherry,NF,C,365437,365437,363812,364720,363813,365870,365237,365237,365869,85
82,test,1,inc,1,m,Wed Mar 18 2026 10:03:15 GMT-0400 (Eastern Daylight Time),371401.8000000119,kiwi,1000,I,m,m,None,596,396.0,200.0,119,2,2124.5,369277.3000000119,9045,zinc,NF,C,367603,367603,365878,366886,365879,368003,367403,367403,368003,86
83,test,1,con,1,z,Wed Mar 18 2026 10:03:15 GMT-0400 (Eastern Daylight Time),373618.5,pear,1100,I,z,z,None,569,370.0,199.0,44,2,2206.0999999940395,371412.40000000596,9045,pear,NF,C,369837,369837,368013,369120,368014,370220,369637,369637,370219,87
84,test,1,inc,1,m,Wed Mar 18 2026 10:03:15 GMT-0400 (Eastern Daylight Time),375618.5,cherry,900,I,m,m,None,553,353.0,200.0,86,2,1990.2999999970198,373628.200000003,9045,silver,NF,C,371854,371854,370229,371137,370230,372220,371653,371653,372219,88
85,test,1,inc,1,z,Wed Mar 18 2026 10:03:15 GMT-0400 (Eastern Daylight Time),377901.8000000119,lead,1100,I,z,z,None,642,442.0,200.0,56,2,2274.7000000029802,375627.10000000894,9045,kiwi,NF,C,374053,374053,372228,373336,372229,374503,373853,373853,374503,89
85,test,1,inc,0,z,Wed Mar 18 2026 10:03:15 GMT-0400 (Eastern Daylight Time),379851.8000000119,copper,900,I,m,m,None,509,310.0,199.0,6,2,1939.9000000059605,377911.90000000596,9045,banana,NF,C,376137,376137,374513,375420,374513,376453,375937,375937,376453,90
86,test,1,inc,1,z,Wed Mar 18 2026 10:03:15 GMT-0400 (Eastern Daylight Time),382119.0,lead,1100,I,z,z,None,631,432.0,199.0,64,2,2256.5,379862.5,9045,plum,NF,C,378287,378287,376464,377570,376464,378720,378087,378087,378720,91
87,test,1,con,1,z,Wed Mar 18 2026 10:03:15 GMT-0400 (Eastern Daylight Time),384068.5,lime,900,I,z,z,None,502,302.0,200.0,34,2,1940.699999988079,382127.8000000119,9045,lime,NF,C,380353,380353,378729,379636,378729,380670,380153,380153,380670,92
88,test,1,con,1,m,Wed Mar 18 2026 10:03:15 GMT-0400 (Eastern Daylight Time),386101.8000000119,copper,900,I,m,m,None,585,385.0,200.0,74,2,2023.1000000089407,384078.700000003,9045,copper,NF,C,382303,382303,380680,381587,380680,382703,382103,382103,382703,93
89,test,1,inc,1,z,Wed Mar 18 2026 10:03:15 GMT-0400 (Eastern Daylight Time),388168.200000003,iron,900,I,z,z,None,629,430.0,199.0,54,2,2056.0,386112.200000003,9045,kiwi,NF,C,384337,384337,382713,383620,382713,384769,384137,384137,384769,94
90,test,1,inc,1,z,Wed Mar 18 2026 10:03:15 GMT-0400 (Eastern Daylight Time),390301.90000000596,zinc,1000,I,z,z,None,593,393.0,200.0,63,2,2123.2999999970198,388178.60000000894,9045,plum,NF,C,386503,386503,384780,385787,384780,386903,386303,386303,386903,95
91,test,1,con,1,m,Wed Mar 18 2026 10:03:15 GMT-0400 (Eastern Daylight Time),392568.3000000119,copper,1000,I,m,m,None,729,530.0,199.0,75,2,2255.9000000059605,390312.40000000596,9045,copper,NF,C,388637,388637,386913,387920,386914,389169,388437,388437,389169,96
92,test,1,inc,1,m,Wed Mar 18 2026 10:03:15 GMT-0400 (Eastern Daylight Time),394785.10000000894,raisin,1100,I,m,m,None,572,372.0,200.0,88,2,2206.2000000029802,392578.90000000596,9045,silver,NF,C,391003,391003,389180,390287,389180,391386,390803,390803,391386,97
93,test,1,inc,1,z,Wed Mar 18 2026 10:03:15 GMT-0400 (Eastern Daylight Time),396901.90000000596,silver,1000,I,z,z,None,566,367.0,199.0,23,2,2105.2999999970198,394796.60000000894,9045,orange,NF,C,393120,393120,391398,392403,391398,393503,392920,392920,393503,98
94,test,1,con,1,m,Wed Mar 18 2026 10:03:15 GMT-0400 (Eastern Daylight Time),399101.90000000596,cobalt,1100,I,m,m,None,557,358.0,199.0,92,2,2188.9000000059605,396913.0,9045,cobalt,NF,C,395337,395337,393514,394621,393514,395703,395137,395137,395703,99
95,test,1,inc,1,z,Wed Mar 18 2026 10:03:15 GMT-0400 (Eastern Daylight Time),400968.200000003,gold,800,I,z,z,None,531,331.0,200.0,37,2,1854.5,399113.700000003,9045,lime,NF,C,397237,397237,395715,396520,395715,397569,397036,397036,397569,100
96,test,1,con,1,m,Wed Mar 18 2026 10:03:15 GMT-0400 (Eastern Daylight Time),403101.90000000596,cobalt,1000,I,m,m,None,592,392.0,200.0,91,2,2125.9000000059605,400976.0,9045,cobalt,NF,C,399303,399303,397577,398587,397577,399703,399103,399103,399703,101
97,test,1,inc,1,m,Wed Mar 18 2026 10:03:15 GMT-0400 (Eastern Daylight Time),405385.10000000894,plum,1100,I,m,m,None,645,446.0,199.0,120,2,2274.9000000059605,403110.200000003,9045,zinc,NF,C,401537,401537,399711,400820,399712,401986,401337,401337,401986,102
98,test,1,inc,1,z,Wed Mar 18 2026 10:03:15 GMT-0400 (Eastern Daylight Time),407301.700000003,bronze,800,I,z,z,None,567,367.0,200.0,29,2,1906.0999999940395,405395.60000000894,9045,raisin,NF,C,403520,403520,401997,402803,401997,403903,403320,403320,403903,103
99,test,1,inc,1,m,Wed Mar 18 2026 10:03:15 GMT-0400 (Eastern Daylight Time),409318.10000000894,lime,800,I,m,m,None,682,483.0,199.0,101,2,2007.5,407310.60000000894,9045,gold,NF,C,405436,405436,403912,404720,403912,405919,405237,405237,405919,104
100,test,1,con,1,z,Wed Mar 18 2026 10:03:15 GMT-0400 (Eastern Daylight Time),411585.200000003,banana,1100,I,z,z,None,623,423.0,200.0,4,2,2259.2999999970198,409325.90000000596,9045,banana,NF,C,407753,407753,405927,407037,405927,408186,407553,407553,408186,105
100,test,1,con,0,z,Wed Mar 18 2026 10:03:15 GMT-0400 (Eastern Daylight Time),413801.8000000119,lime,1100,I,m,m,None,578,379.0,199.0,36,2,2206.5,411595.3000000119,9045,lime,NF,C,410020,410020,408196,409303,408197,410403,409820,409820,410403,106
101,test,1,inc,1,z,Wed Mar 18 2026 10:03:15 GMT-0400 (Eastern Daylight Time),415718.40000000596,gold,800,I,z,z,None,566,367.0,199.0,45,2,1903.7000000029802,413814.700000003,9045,pear,NF,C,411936,411936,410416,411220,410416,412320,411737,411737,412319,107
102,test,1,con,1,z,Wed Mar 18 2026 10:03:15 GMT-0400 (Eastern Daylight Time),417685.10000000894,plum,800,I,z,z,None,618,418.0,200.0,57,2,1955.2000000029802,415729.90000000596,9045,plum,NF,C,413853,413853,412331,413137,412331,414286,413653,413653,414286,108
103,test,1,inc,1,z,Wed Mar 18 2026 10:03:15 GMT-0400 (Eastern Daylight Time),419735.10000000894,zinc,1000,I,z,z,None,514,315.0,199.0,47,2,2041.4000000059605,417693.700000003,9045,pear,NF,C,416020,416020,414295,415303,414295,416336,415820,415820,416336,109
104,test,1,inc,1,z,Wed Mar 18 2026 10:03:15 GMT-0400 (Eastern Daylight Time),421685.10000000894,bronze,800,I,z,z,None,600,401.0,199.0,13,2,1942.7000000029802,419742.40000000596,9045,cherry,NF,C,417870,417870,416343,417153,416344,418286,417670,417670,418286,110
104,test,1,inc,0,m,Wed Mar 18 2026 10:03:15 GMT-0400 (Eastern Daylight Time),423835.200000003,raisin,1100,I,z,z,None,510,311.0,199.0,72,2,2140.5999999940395,421694.60000000894,9045,bronze,NF,C,420120,420120,418296,419403,418296,420436,419920,419920,420436,111
105,test,1,con,1,z,Wed Mar 18 2026 10:03:15 GMT-0400 (Eastern Daylight Time),426118.8000000119,kiwi,900,I,z,z,None,848,649.0,199.0,50,2,2273.300000011921,423845.5,9045,kiwi,NF,C,422070,422070,420447,421353,420447,422720,421870,421870,422720,112
106,test,1,inc,1,m,Wed Mar 18 2026 10:03:15 GMT-0400 (Eastern Daylight Time),428235.200000003,pear,900,I,m,m,None,678,478.0,200.0,102,2,2109.5,426125.700000003,9045,gold,NF,C,424353,424353,422727,423636,422727,424836,424153,424153,424836,113
107,test,1,con,1,m,Wed Mar 18 2026 10:03:15 GMT-0400 (Eastern Daylight Time),430285.10000000894,lead,900,I,m,m,None,608,409.0,199.0,122,2,2038.9000000059605,428246.200000003,9045,lead,NF,C,426470,426470,424847,425753,424848,426886,426270,426270,426886,114
108,test,1,con,1,z,Wed Mar 18 2026 10:03:15 GMT-0400 (Eastern Daylight Time),432251.8000000119,pear,800,I,z,z,None,627,428.0,199.0,41,2,1958.1000000089407,430293.700000003,9045,pear,NF,C,428420,428420,426895,427703,426895,428853,428220,428220,428853,115
109,test,1,con,1,z,Wed Mar 18 2026 10:03:15 GMT-0400 (Eastern Daylight Time),434785.200000003,raisin,1100,I,z,z,None,888,688.0,200.0,28,2,2524.5,432260.700000003,9045,raisin,NF,C,430687,430687,428862,429970,428862,431386,430486,430486,431386,116
110,test,1,inc,1,m,Wed Mar 18 2026 10:03:15 GMT-0400 (Eastern Daylight Time),436818.5,pear,900,I,m,m,None,587,387.0,200.0,110,2,2024.699999988079,434793.8000000119,9045,iron,NF,C,433020,433020,431395,432303,431395,433420,432820,432820,433420,117
111,test,1,con,1,z,Wed Mar 18 2026 10:03:15 GMT-0400 (Eastern Daylight Time),438918.700000003,raisin,1000,I,z,z,None,566,366.0,200.0,27,2,2091.7000000029802,436827.0,9045,raisin,NF,C,435153,435153,433428,434437,433428,435520,434953,434953,435520,118
112,test,1,con,1,m,Wed Mar 18 2026 10:03:15 GMT-0400 (Eastern Daylight Time),440785.10000000894,zinc,800,I,m,m,None,522,322.0,200.0,113,2,1855.7000000029802,438929.40000000596,9045,zinc,NF,C,437053,437053,435530,436337,435531,437386,436853,436853,437386,119
113,test,1,inc,1,z,Wed Mar 18 2026 10:03:15 GMT-0400 (Eastern Daylight Time),442868.40000000596,zinc,1000,I,z,z,None,534,335.0,199.0,39,2,2073.0999999940395,440795.3000000119,9045,lime,NF,C,439120,439120,437396,438403,437397,439470,438920,438920,439469,120
114,test,1,con,1,m,Wed Mar 18 2026 10:03:15 GMT-0400 (Eastern Daylight Time),444901.90000000596,cobalt,900,I,m,m,None,583,383.0,200.0,90,2,2022.2000000029802,442879.700000003,9045,cobalt,NF,C,441104,441104,439481,440387,439481,441503,440903,440903,441503,121
115,test,1,con,1,z,Wed Mar 18 2026 10:03:15 GMT-0400 (Eastern Daylight Time),447168.60000000894,plum,900,I,z,z,None,821,622.0,199.0,58,2,2256.6000000089407,444912.0,9045,plum,NF,C,443137,443137,441513,442420,441513,443770,442937,442937,443770,122
116,test,1,con,1,m,Wed Mar 18 2026 10:03:15 GMT-0400 (Eastern Daylight Time),449235.3000000119,zinc,900,I,m,m,None,620,420.0,200.0,114,2,2056.0,447179.3000000119,9045,zinc,NF,C,445403,445403,443780,444687,443781,445836,445203,445203,445836,123
117,test,1,con,1,z,Wed Mar 18 2026 10:03:15 GMT-0400 (Eastern Daylight Time),451185.10000000894,raisin,900,I,z,z,None,504,305.0,199.0,26,2,1941.0,449244.10000000894,9045,raisin,NF,C,447470,447470,445845,446753,445845,447786,447270,447270,447786,124
118,test,1,inc,1,z,Wed Mar 18 2026 10:03:15 GMT-0400 (Eastern Daylight Time),453018.5,bronze,800,I,z,z,None,495,296.0,199.0,21,2,1823.199999988079,451195.3000000119,9045,orange,NF,C,449320,449320,447796,448603,447797,449620,449120,449120,449620,125
119,test,1,inc,1,m,Wed Mar 18 2026 10:03:15 GMT-0400 (Eastern Daylight Time),455285.200000003,plum,1100,I,m,m,None,618,418.0,200.0,128,2,2255.0,453030.200000003,9045,lead,NF,C,451453,451453,449631,450737,449632,451886,451253,451253,451886,126
120,test,1,inc,1,z,Wed Mar 18 2026 10:03:15 GMT-0400 (Eastern Daylight Time),457435.200000003,cobalt,1100,I,z,z,None,510,311.0,199.0,16,2,2139.8999999910593,455295.3000000119,9045,cherry,NF,C,453720,453720,451896,453003,451897,454036,453520,453520,454036,127
121,test,1,inc,1,z,Wed Mar 18 2026 10:03:15 GMT-0400 (Eastern Daylight Time),459201.8000000119,bronze,800,I,z,z,None,421,221.0,200.0,5,2,1758.6000000089407,457443.200000003,9045,banana,NF,C,455570,455570,454044,454853,454045,455803,455370,455370,455803,128
