acc_sum,block,block_c,condition,correct,correct_response,datetime,endtime,flanker,jitter,project,response,response_test_buffer_response,response_test_target_response,response_time,response_time_test_buffer_response,response_time_test_target_response,row_sel,session_number,start_end,starttime,subject_id,target,task,task_vers,time_test_buffer,time_test_buffer_response,time_test_constants,time_test_flanker,time_test_jitter,time_test_logger,time_test_target,time_test_target_response,time_test_variables,trial
0,prac,1,inc,0,m,Tue Dec 09 2025 09:10:45 GMT-0500 (Eastern Standard Time),191154.7999997139,raisin,1100,I,None,,,1815,,,12,1,5173.699999809265,185981.09999990463,9045,cobalt,NF,C,,,,,,,,,,1
1,prac,1,inc,1,z,Tue Dec 09 2025 09:10:45 GMT-0500 (Eastern Standard Time),193904.59999990463,cobalt,1100,I,z,,,343,,,4,1,2738.5,191166.09999990463,9045,raisin,NF,C,,,,,,,,,,2
1,prac,1,con,0,m,Tue Dec 09 2025 09:10:45 GMT-0500 (Eastern Standard Time),196771.2999997139,silver,1000,I,z,,,559,,,11,1,2854.3999996185303,193916.90000009537,9045,silver,NF,C,,,,,,,,,,3
1,prac,1,inc,0,z,Tue Dec 09 2025 09:10:45 GMT-0500 (Eastern Standard Time),199221.2999997139,iron,900,I,m,,,239,,,6,1,2440.3999996185303,196780.90000009537,9045,pear,NF,C,,,,,,,,,,4
1,prac,1,con,0,m,Tue Dec 09 2025 09:10:45 GMT-0500 (Eastern Standard Time),201787.90000009537,gold,800,I,z,,,449,,,13,1,2556.300000190735,199231.59999990463,9045,gold,NF,C,,,,,,,,,,5
1,prac,1,inc,0,m,Tue Dec 09 2025 09:10:45 GMT-0500 (Eastern Standard Time),204554.59999990463,pear,900,I,z,,,550,,,14,1,2757.5,201797.09999990463,9045,iron,NF,C,,,,,,,,,,6
2,prac,1,con,1,z,Tue Dec 09 2025 09:10:45 GMT-0500 (Eastern Standard Time),207504.59999990463,orange,1000,I,z,,,646,,,3,1,2938.5999999046326,204566.0,9045,orange,NF,C,,,,,,,,,,7
3,prac,1,con,1,z,Tue Dec 09 2025 09:10:45 GMT-0500 (Eastern Standard Time),210321.19999980927,kiwi,1000,I,z,,,511,,,7,1,2806.5,207514.69999980927,9045,kiwi,NF,C,,,,,,,,,,8
4,prac,1,con,1,m,Tue Dec 09 2025 09:10:45 GMT-0500 (Eastern Standard Time),213071.2999997139,zinc,1000,I,m,,,445,,,15,1,2739.3999996185303,210331.90000009537,9045,zinc,NF,C,,,,,,,,,,9
5,prac,1,inc,1,m,Tue Dec 09 2025 09:10:45 GMT-0500 (Eastern Standard Time),215688.0,cherry,900,I,m,,,403,,,10,1,2607.0999999046326,213080.90000009537,9045,copper,NF,C,,,,,,,,,,10
6,prac,1,inc,1,z,Tue Dec 09 2025 09:10:45 GMT-0500 (Eastern Standard Time),218271.2999997139,copper,900,I,z,,,379,,,2,1,2574.0,215697.2999997139,9045,cherry,NF,C,,,,,,,,,,11
7,prac,1,con,1,z,Tue Dec 09 2025 09:10:45 GMT-0500 (Eastern Standard Time),220754.59999990463,banana,800,I,z,,,376,,,1,1,2475.699999809265,218278.90000009537,9045,banana,NF,C,,,,,,,,,,12
8,prac,1,con,1,m,Tue Dec 09 2025 09:10:45 GMT-0500 (Eastern Standard Time),223087.7999997139,bronze,800,I,m,,,229,,,9,1,2323.5,220764.2999997139,9045,bronze,NF,C,,,,,,,,,,13
9,prac,1,con,1,z,Tue Dec 09 2025 09:10:45 GMT-0500 (Eastern Standard Time),225687.90000009537,lime,800,I,z,,,487,,,5,1,2589.4000000953674,223098.5,9045,lime,NF,C,,,,,,,,,,14
10,prac,1,inc,1,m,Tue Dec 09 2025 09:10:45 GMT-0500 (Eastern Standard Time),228487.90000009537,plum,1100,I,m,,,387,,,16,1,2790.1000003814697,225697.7999997139,9045,lead,NF,C,,,,,,,,,,15
10,prac,1,inc,0,z,Tue Dec 09 2025 09:10:45 GMT-0500 (Eastern Standard Time),231337.7999997139,lead,1100,I,m,,,434,,,8,1,2840.5,228497.2999997139,9045,plum,NF,C,,,,,,,,,,16
0,test,1,con,0,m,Tue Dec 09 2025 09:10:45 GMT-0500 (Eastern Standard Time),249087.90000009537,gold,1000,I,z,z,None,446,246.0,200.0,99,1,1975.1000003814697,247112.7999997139,9045,gold,NF,C,241111,241112,239386,240395,239386,241361,240911,240911,241361,1
1,test,1,con,1,m,Tue Dec 09 2025 09:10:45 GMT-0500 (Eastern Standard Time),251404.40000009537,silver,1100,I,m,m,None,666,467.0,199.0,84,1,2306.2000002861023,249098.19999980927,9045,silver,NF,C,243195,243195,241371,242478,241372,243678,242995,242995,243677,2
2,test,1,con,1,z,Tue Dec 09 2025 09:10:45 GMT-0500 (Eastern Standard Time),253121.09999990463,banana,800,I,z,z,None,379,179.0,200.0,1,1,1706.6999998092651,251414.40000009537,9045,banana,NF,C,245211,245212,243687,244495,243688,245394,245011,245011,245394,3
3,test,1,inc,1,m,Tue Dec 09 2025 09:10:45 GMT-0500 (Eastern Standard Time),254854.5,cherry,900,I,m,m,None,289,90.0,199.0,70,1,1721.5999999046326,253132.90000009537,9045,bronze,NF,C,247028,247028,245406,246311,245406,247128,246828,246828,247128,4
4,test,1,con,1,m,Tue Dec 09 2025 09:10:45 GMT-0500 (Eastern Standard Time),256704.40000009537,bronze,900,I,m,m,None,413,213.0,200.0,66,1,1841.6000003814697,254862.7999997139,9045,bronze,NF,C,248761,248761,247136,248045,247136,248978,248561,248561,248977,5
5,test,1,inc,1,z,Tue Dec 09 2025 09:10:45 GMT-0500 (Eastern Standard Time),258621.09999990463,silver,1000,I,z,z,None,366,166.0,200.0,31,1,1907.0999999046326,256714.0,9045,raisin,NF,C,250711,250712,248987,249995,248987,250894,250511,250511,250894,6
6,test,1,con,1,z,Tue Dec 09 2025 09:10:45 GMT-0500 (Eastern Standard Time),260321.0,plum,800,I,z,z,None,361,162.0,199.0,57,1,1690.8000001907349,258630.19999980927,9045,plum,NF,C,252428,252428,250903,251711,250904,252594,252228,252228,252594,7
7,test,1,inc,1,m,Tue Dec 09 2025 09:10:45 GMT-0500 (Eastern Standard Time),262387.7999997139,plum,1100,I,m,m,None,426,227.0,199.0,104,1,2055.0999999046326,260332.69999980927,9045,gold,NF,C,254428,254428,252606,253711,252606,254661,254228,254228,254661,8
8,test,1,con,1,m,Tue Dec 09 2025 09:10:45 GMT-0500 (Eastern Standard Time),264270.90000009537,silver,800,I,m,m,None,547,348.0,199.0,81,1,1874.1000003814697,262396.7999997139,9045,silver,NF,C,256195,256195,254670,255478,254670,256544,255994,255995,256544,9
8,test,1,inc,0,z,Tue Dec 09 2025 09:10:45 GMT-0500 (Eastern Standard Time),266187.90000009537,copper,900,I,m,m,None,467,268.0,199.0,22,1,1905.3000001907349,264282.59999990463,9045,orange,NF,C,258178,258178,256556,257461,256556,258461,257978,257978,258461,10
8,test,1,inc,0,m,Tue Dec 09 2025 09:10:45 GMT-0500 (Eastern Standard Time),267987.7999997139,lime,800,I,z,z,None,458,259.0,199.0,125,1,1787.8999996185303,266199.90000009537,9045,lead,NF,C,259995,259995,258473,259278,258473,260261,259795,259795,260261,11
9,test,1,inc,1,z,Tue Dec 09 2025 09:10:45 GMT-0500 (Eastern Standard Time),270137.69999980927,lead,1100,I,z,z,None,502,303.0,199.0,56,1,2140.199999809265,267997.5,9045,kiwi,NF,C,262095,262095,260271,261378,260271,262411,261895,261895,262411,12
10,test,1,con,1,z,Tue Dec 09 2025 09:10:45 GMT-0500 (Eastern Standard Time),272154.5,plum,1000,I,z,z,None,468,269.0,199.0,59,1,2005.0,270149.5,9045,plum,NF,C,264145,264145,262423,263428,262423,264428,263945,263945,264427,13
11,test,1,con,1,z,Tue Dec 09 2025 09:10:45 GMT-0500 (Eastern Standard Time),274104.40000009537,orange,900,I,z,z,None,505,305.0,200.0,18,1,1940.2000002861023,272164.19999980927,9045,orange,NF,C,266061,266061,264437,265344,264438,266377,265861,265861,266377,14
12,test,1,inc,1,m,Tue Dec 09 2025 09:10:45 GMT-0500 (Eastern Standard Time),275870.7999997139,banana,800,I,m,m,None,432,232.0,200.0,77,1,1756.8999996185303,274113.90000009537,9045,copper,NF,C,267911,267911,266387,267194,266387,268144,267711,267711,268144,15
13,test,1,con,1,m,Tue Dec 09 2025 09:10:45 GMT-0500 (Eastern Standard Time),277687.69999980927,cobalt,900,I,m,m,None,371,172.0,199.0,90,1,1805.7999997138977,275881.90000009537,9045,cobalt,NF,C,269778,269778,268155,269061,268155,269961,269578,269578,269961,16
14,test,1,con,1,m,Tue Dec 09 2025 09:10:45 GMT-0500 (Eastern Standard Time),279404.2999997139,copper,800,I,m,m,None,366,167.0,199.0,73,1,1707.2999997138977,277697.0,9045,copper,NF,C,271495,271495,269970,270778,269970,271678,271295,271295,271677,17
15,test,1,con,1,m,Tue Dec 09 2025 09:10:45 GMT-0500 (Eastern Standard Time),281304.5,cobalt,800,I,m,m,None,555,355.0,200.0,89,1,1891.3000001907349,279413.19999980927,9045,cobalt,NF,C,273211,273211,271686,272494,271687,273578,273011,273011,273577,18
15,test,1,inc,0,m,Tue Dec 09 2025 09:10:45 GMT-0500 (Eastern Standard Time),283321.19999980927,plum,1100,I,z,z,None,371,171.0,200.0,128,1,2005.2999997138977,281315.90000009537,9045,lead,NF,C,275411,275411,273589,274695,273589,275594,275211,275211,275594,19
16,test,1,inc,1,m,Tue Dec 09 2025 09:10:45 GMT-0500 (Eastern Standard Time),285521.0,cherry,900,I,m,m,None,761,562.0,199.0,78,1,2190.2000002861023,283330.7999997139,9045,copper,NF,C,277228,277228,275604,276511,275604,277794,277028,277028,277794,20
16,test,1,inc,0,z,Tue Dec 09 2025 09:10:45 GMT-0500 (Eastern Standard Time),287571.0,iron,900,I,m,m,None,593,394.0,199.0,62,1,2032.8000001907349,285538.19999980927,9045,plum,NF,C,279445,279445,277811,278728,277812,279844,279245,279245,279844,21
17,test,1,inc,1,m,Tue Dec 09 2025 09:10:45 GMT-0500 (Eastern Standard Time),289804.40000009537,cherry,900,I,m,m,None,783,584.0,199.0,86,1,2222.9000000953674,287581.5,9045,silver,NF,C,281478,281478,279855,280761,279855,282078,281278,281278,282077,22
18,test,1,con,1,m,Tue Dec 09 2025 09:10:45 GMT-0500 (Eastern Standard Time),291604.2999997139,lead,800,I,m,m,None,459,259.0,200.0,121,1,1788.5,289815.7999997139,9045,lead,NF,C,283611,283611,282089,282895,282089,283877,283411,283411,283877,23
19,test,1,con,1,z,Tue Dec 09 2025 09:10:45 GMT-0500 (Eastern Standard Time),293421.09999990463,kiwi,800,I,z,z,None,467,267.0,200.0,49,1,1807.4000000953674,291613.69999980927,9045,kiwi,NF,C,285411,285411,283887,284694,283887,285694,285211,285211,285694,24
20,test,1,inc,1,z,Tue Dec 09 2025 09:10:45 GMT-0500 (Eastern Standard Time),295453.90000009537,zinc,1000,I,z,z,None,497,298.0,199.0,55,1,2021.7000002861023,293432.19999980927,9045,kiwi,NF,C,287428,287428,285705,286711,285706,287727,287228,287228,287727,25
21,test,1,con,1,m,Tue Dec 09 2025 09:10:45 GMT-0500 (Eastern Standard Time),297554.2999997139,bronze,1000,I,m,m,None,561,361.0,200.0,67,1,2094.5999999046326,295459.69999980927,9045,bronze,NF,C,289461,289461,287733,288744,287733,289827,289261,289261,289827,26
22,test,1,con,1,z,Tue Dec 09 2025 09:10:45 GMT-0500 (Eastern Standard Time),299487.5,banana,900,I,z,z,None,498,298.0,200.0,2,1,1920.5,297567.0,9045,banana,NF,C,291461,291461,289840,290744,289840,291761,291261,291261,291760,27
23,test,1,con,1,m,Tue Dec 09 2025 09:10:45 GMT-0500 (Eastern Standard Time),301554.40000009537,cobalt,1100,I,m,m,None,426,227.0,199.0,92,1,2058.5,299495.90000009537,9045,cobalt,NF,C,293595,293595,291769,292878,291769,293827,293394,293395,293827,28
24,test,1,inc,1,z,Tue Dec 09 2025 09:10:45 GMT-0500 (Eastern Standard Time),303437.90000009537,copper,900,I,z,z,None,450,250.0,200.0,6,1,1873.2000002861023,301564.69999980927,9045,banana,NF,C,295461,295461,293838,294744,293838,295711,295261,295261,295711,29
25,test,1,con,1,m,Tue Dec 09 2025 09:10:45 GMT-0500 (Eastern Standard Time),305554.2999997139,copper,1100,I,m,m,None,477,277.0,200.0,76,1,2108.0999999046326,303446.19999980927,9045,copper,NF,C,297545,297545,295719,296827,295720,297827,297344,297344,297827,30
26,test,1,inc,1,z,Tue Dec 09 2025 09:10:45 GMT-0500 (Eastern Standard Time),307437.7999997139,iron,900,I,z,z,None,415,216.0,199.0,38,1,1867.6999998092651,305570.09999990463,9045,lime,NF,C,299478,299478,297843,298761,297844,299711,299278,299278,299711,31
27,test,1,inc,1,m,Tue Dec 09 2025 09:10:45 GMT-0500 (Eastern Standard Time),309237.7999997139,lime,800,I,m,m,None,457,257.0,200.0,101,1,1789.1999998092651,307448.59999990463,9045,gold,NF,C,301245,301245,299722,300528,299722,301511,301044,301044,301511,32
28,test,1,inc,1,z,Tue Dec 09 2025 09:10:45 GMT-0500 (Eastern Standard Time),311204.2999997139,gold,800,I,z,z,None,625,426.0,199.0,61,1,1956.0,309248.2999997139,9045,plum,NF,C,303045,303045,301521,302328,301522,303477,302844,302845,303477,33
28,test,1,inc,0,z,Tue Dec 09 2025 09:10:45 GMT-0500 (Eastern Standard Time),313321.09999990463,cobalt,1100,I,m,m,None,471,271.0,200.0,16,1,2107.5,311213.59999990463,9045,cherry,NF,C,305311,305311,303487,304594,303487,305594,305111,305111,305594,34
29,test,1,inc,1,z,Tue Dec 09 2025 09:10:45 GMT-0500 (Eastern Standard Time),315171.0,gold,800,I,z,z,None,509,310.0,199.0,37,1,1840.5999999046326,313330.40000009537,9045,lime,NF,C,307128,307128,305603,306411,305604,307444,306928,306928,307444,35
29,test,1,inc,0,z,Tue Dec 09 2025 09:10:45 GMT-0500 (Eastern Standard Time),317237.7999997139,lead,1100,I,m,m,None,423,224.0,199.0,48,1,2057.5,315180.2999997139,9045,pear,NF,C,309278,309278,307453,308561,307454,309511,309078,309078,309511,36
30,test,1,con,1,m,Tue Dec 09 2025 09:10:45 GMT-0500 (Eastern Standard Time),319021.09999990463,bronze,800,I,m,m,None,432,233.0,199.0,65,1,1772.3000001907349,317248.7999997139,9045,bronze,NF,C,311045,311045,309522,310328,309522,311294,310845,310845,311294,37
31,test,1,inc,1,m,Tue Dec 09 2025 09:10:45 GMT-0500 (Eastern Standard Time),321054.19999980927,orange,1000,I,m,m,None,497,298.0,199.0,71,1,2023.2999997138977,319030.90000009537,9045,bronze,NF,C,313028,313028,311304,312311,311304,313327,312828,312828,313327,38
32,test,1,inc,1,m,Tue Dec 09 2025 09:10:45 GMT-0500 (Eastern Standard Time),322821.0,banana,800,I,m,m,None,426,227.0,199.0,69,1,1759.0,321062.0,9045,bronze,NF,C,314860,314860,313335,314145,313335,315094,314661,314661,315094,39
33,test,1,con,1,z,Tue Dec 09 2025 09:10:45 GMT-0500 (Eastern Standard Time),324871.0,orange,1100,I,z,z,None,405,206.0,199.0,20,1,2041.5999999046326,322829.40000009537,9045,orange,NF,C,316928,316928,315102,316211,315103,317144,316728,316728,317144,40
34,test,1,inc,1,m,Tue Dec 09 2025 09:10:45 GMT-0500 (Eastern Standard Time),327037.69999980927,plum,1100,I,m,m,None,515,316.0,199.0,120,1,2157.7999997138977,324879.90000009537,9045,zinc,NF,C,318978,318978,317153,318261,317153,319311,318778,318778,319311,41
35,test,1,inc,1,z,Tue Dec 09 2025 09:10:45 GMT-0500 (Eastern Standard Time),328820.90000009537,bronze,800,I,z,z,None,441,241.0,200.0,5,1,1773.8000001907349,327047.09999990463,9045,banana,NF,C,320845,320845,319320,320128,319320,321094,320644,320644,321094,42
36,test,1,con,1,z,Tue Dec 09 2025 09:10:45 GMT-0500 (Eastern Standard Time),330737.59999990463,cherry,900,I,z,z,None,477,278.0,199.0,10,1,1905.8000001907349,328831.7999997139,9045,cherry,NF,C,322728,322728,321105,322011,321105,323011,322528,322528,323011,43
37,test,1,con,1,m,Tue Dec 09 2025 09:10:45 GMT-0500 (Eastern Standard Time),332770.90000009537,zinc,1000,I,m,m,None,494,294.0,200.0,115,1,2023.5,330747.40000009537,9045,zinc,NF,C,324744,324744,323020,324028,323021,325044,324544,324544,325044,44
38,test,1,inc,1,z,Tue Dec 09 2025 09:10:45 GMT-0500 (Eastern Standard Time),334670.7999997139,iron,900,I,z,z,None,464,265.0,199.0,46,1,1890.5999999046326,332780.19999980927,9045,pear,NF,C,326678,326678,325053,325961,325053,326944,326478,326478,326944,45
39,test,1,inc,1,m,Tue Dec 09 2025 09:10:45 GMT-0500 (Eastern Standard Time),336571.09999990463,pear,900,I,m,m,None,451,252.0,199.0,102,1,1889.8000001907349,334681.2999997139,9045,gold,NF,C,328578,328578,326954,327861,326955,328844,328378,328378,328844,46
40,test,1,inc,1,m,Tue Dec 09 2025 09:10:45 GMT-0500 (Eastern Standard Time),338637.69999980927,kiwi,1000,I,m,m,None,517,318.0,199.0,111,1,2055.9000000953674,336581.7999997139,9045,iron,NF,C,330578,330578,328855,329861,328855,330911,330378,330378,330911,47
40,test,1,inc,0,z,Tue Dec 09 2025 09:10:45 GMT-0500 (Eastern Standard Time),340720.90000009537,zinc,1000,I,m,m,None,545,345.0,200.0,63,1,2071.9000000953674,338649.0,9045,plum,NF,C,332645,332645,330922,331928,330922,332994,332444,332444,332994,48
41,test,1,inc,1,z,Tue Dec 09 2025 09:10:45 GMT-0500 (Eastern Standard Time),342670.7999997139,zinc,1000,I,z,z,None,413,214.0,199.0,39,1,1938.8999996185303,340731.90000009537,9045,lime,NF,C,334728,334728,333005,334011,333005,334944,334528,334528,334944,49
42,test,1,con,1,z,Tue Dec 09 2025 09:10:45 GMT-0500 (Eastern Standard Time),344854.40000009537,raisin,1100,I,z,z,None,540,341.0,199.0,28,1,2173.1000003814697,342681.2999997139,9045,raisin,NF,C,336778,336778,334954,336061,334955,337128,336578,336578,337127,50
43,test,1,con,1,m,Tue Dec 09 2025 09:10:45 GMT-0500 (Eastern Standard Time),346887.69999980927,lead,900,I,m,m,None,588,389.0,199.0,122,1,2023.5999999046326,344864.09999990463,9045,lead,NF,C,338761,338761,337137,338044,337137,339161,338561,338561,339161,51
44,test,1,con,1,z,Tue Dec 09 2025 09:10:45 GMT-0500 (Eastern Standard Time),348637.7999997139,raisin,800,I,z,z,None,416,216.0,200.0,25,1,1740.7999997138977,346897.0,9045,raisin,NF,C,340694,340694,339170,339978,339170,340911,340494,340494,340911,52
45,test,1,inc,1,m,Tue Dec 09 2025 09:10:45 GMT-0500 (Eastern Standard Time),350920.90000009537,plum,1100,I,m,m,None,637,437.0,200.0,112,1,2274.800000190735,348646.09999990463,9045,iron,NF,C,342744,342745,340919,342028,340920,343194,342544,342544,343194,53
46,test,1,con,1,z,Tue Dec 09 2025 09:10:45 GMT-0500 (Eastern Standard Time),352687.5,lime,800,I,z,z,None,429,230.0,199.0,33,1,1757.0999999046326,350930.40000009537,9045,lime,NF,C,344728,344728,343203,344011,343204,344961,344528,344528,344960,54
47,test,1,con,1,m,Tue Dec 09 2025 09:10:45 GMT-0500 (Eastern Standard Time),354737.59999990463,bronze,1100,I,m,m,None,411,211.0,200.0,68,1,2041.6999998092651,352695.90000009537,9045,bronze,NF,C,346794,346795,344969,346078,344969,347011,346594,346594,347011,55
47,test,1,con,0,m,Tue Dec 09 2025 09:10:45 GMT-0500 (Eastern Standard Time),356470.90000009537,iron,800,I,z,z,None,391,191.0,200.0,105,1,1721.6000003814697,354749.2999997139,9045,iron,NF,C,348544,348544,347022,347828,347023,348744,348344,348344,348744,56
48,test,1,con,1,z,Tue Dec 09 2025 09:10:45 GMT-0500 (Eastern Standard Time),358421.0,lime,1000,I,z,z,None,407,208.0,199.0,35,1,1939.5999999046326,356481.40000009537,9045,lime,NF,C,350478,350478,348754,349761,348755,350694,350278,350278,350694,57
49,test,1,inc,1,z,Tue Dec 09 2025 09:10:45 GMT-0500 (Eastern Standard Time),360437.59999990463,silver,1000,I,z,z,None,473,274.0,199.0,15,1,2005.8000001907349,358431.7999997139,9045,cherry,NF,C,352428,352428,350705,351711,350705,352711,352228,352228,352711,58
50,test,1,inc,1,m,Tue Dec 09 2025 09:10:45 GMT-0500 (Eastern Standard Time),362520.90000009537,kiwi,1000,I,m,m,None,537,337.0,200.0,103,1,2074.800000190735,360446.09999990463,9045,gold,NF,C,354444,354445,352719,353728,352719,354794,354244,354244,354794,59
51,test,1,con,1,z,Tue Dec 09 2025 09:10:45 GMT-0500 (Eastern Standard Time),364421.0,pear,800,I,z,z,None,557,358.0,199.0,41,1,1890.4000000953674,362530.59999990463,9045,pear,NF,C,356328,356328,354804,355611,354804,356694,356128,356128,356694,60
51,test,1,inc,0,z,Tue Dec 09 2025 09:10:45 GMT-0500 (Eastern Standard Time),366354.2999997139,iron,900,I,m,m,None,493,294.0,199.0,54,1,1922.5,364431.7999997139,9045,kiwi,NF,C,358328,358328,356705,357611,356705,358627,358128,358128,358627,61
52,test,1,inc,1,m,Tue Dec 09 2025 09:10:45 GMT-0500 (Eastern Standard Time),368637.0,orange,1000,I,m,m,None,733,533.0,200.0,79,1,2273.0999999046326,366363.90000009537,9045,copper,NF,C,360360,360360,358637,359644,358637,360910,360160,360160,360910,62
53,test,1,con,1,m,Tue Dec 09 2025 09:10:45 GMT-0500 (Eastern Standard Time),370587.0,iron,900,I,m,m,None,500,301.0,199.0,106,1,1943.7000002861023,368643.2999997139,9045,iron,NF,C,362544,362544,360916,361827,360917,362860,362344,362344,362860,63
54,test,1,con,1,m,Tue Dec 09 2025 09:10:45 GMT-0500 (Eastern Standard Time),372720.7999997139,lead,1000,I,m,m,None,595,395.0,200.0,123,1,2128.0,370592.7999997139,9045,lead,NF,C,364594,364595,362866,363877,362866,364994,364394,364394,364994,64
54,test,1,con,0,m,Tue Dec 09 2025 09:10:45 GMT-0500 (Eastern Standard Time),374771.0,zinc,1100,I,z,z,None,409,210.0,199.0,116,1,2041.5,372729.5,9045,zinc,NF,C,366828,366828,365003,366111,365003,367044,366628,366628,367044,65
55,test,1,inc,1,z,Tue Dec 09 2025 09:10:45 GMT-0500 (Eastern Standard Time),376737.59999990463,silver,1000,I,z,z,None,428,229.0,199.0,7,1,1954.9000000953674,374782.69999980927,9045,banana,NF,C,368778,368778,367056,368061,367056,369011,368578,368578,369011,66
56,test,1,con,1,z,Tue Dec 09 2025 09:10:45 GMT-0500 (Eastern Standard Time),378787.59999990463,banana,1100,I,z,z,None,409,209.0,200.0,4,1,2036.9000000953674,376750.69999980927,9045,banana,NF,C,370845,370845,369024,370128,369024,371061,370644,370644,371061,67
57,test,1,inc,1,z,Tue Dec 09 2025 09:10:45 GMT-0500 (Eastern Standard Time),381137.59999990463,cobalt,1100,I,z,z,None,712,512.0,200.0,32,1,2339.300000190735,378798.2999997139,9045,raisin,NF,C,372894,372894,371071,372178,371072,373411,372694,372694,373411,68
58,test,1,con,1,z,Tue Dec 09 2025 09:10:45 GMT-0500 (Eastern Standard Time),383120.7999997139,orange,1000,I,z,z,None,446,246.0,200.0,19,1,1972.5,381148.2999997139,9045,orange,NF,C,375144,375144,373421,374428,373422,375394,374944,374944,375394,69
59,test,1,inc,1,m,Tue Dec 09 2025 09:10:45 GMT-0500 (Eastern Standard Time),384920.90000009537,banana,800,I,m,m,None,453,254.0,199.0,85,1,1791.6000003814697,383129.2999997139,9045,silver,NF,C,376928,376928,375402,376211,375403,377194,376728,376728,377194,70
60,test,1,con,1,m,Tue Dec 09 2025 09:10:45 GMT-0500 (Eastern Standard Time),386987.59999990463,copper,1000,I,m,m,None,518,319.0,199.0,75,1,2057.300000190735,384930.2999997139,9045,copper,NF,C,378928,378928,377203,378211,377204,379261,378728,378728,379261,71
61,test,1,con,1,z,Tue Dec 09 2025 09:10:45 GMT-0500 (Eastern Standard Time),388970.5,plum,900,I,z,z,None,536,336.0,200.0,58,1,1973.4000000953674,386997.09999990463,9045,plum,NF,C,380894,380894,379270,380178,379270,381244,380694,380694,381244,72
62,test,1,inc,1,m,Tue Dec 09 2025 09:10:45 GMT-0500 (Eastern Standard Time),391104.19999980927,kiwi,1000,I,m,m,None,595,396.0,199.0,127,1,2126.2999997138977,388977.90000009537,9045,lead,NF,C,382978,382978,381251,382261,381251,383377,382778,382778,383377,73
63,test,1,inc,1,z,Tue Dec 09 2025 09:10:45 GMT-0500 (Eastern Standard Time),392954.2999997139,bronze,800,I,z,z,None,503,303.0,200.0,21,1,1841.3999996185303,391112.90000009537,9045,orange,NF,C,384911,384911,383386,384194,383386,385227,384711,384711,385227,74
64,test,1,inc,1,z,Tue Dec 09 2025 09:10:45 GMT-0500 (Eastern Standard Time),395204.19999980927,cobalt,1100,I,z,z,None,608,409.0,199.0,8,1,2235.5,392968.69999980927,9045,banana,NF,C,387061,387061,385242,386344,385243,387477,386861,386861,387477,75
65,test,1,con,1,m,Tue Dec 09 2025 09:10:45 GMT-0500 (Eastern Standard Time),397137.59999990463,copper,900,I,m,m,None,496,296.0,200.0,74,1,1923.0,395214.59999990463,9045,copper,NF,C,389111,389111,387488,388394,387488,389411,388911,388911,389411,76
66,test,1,inc,1,z,Tue Dec 09 2025 09:10:45 GMT-0500 (Eastern Standard Time),399170.90000009537,silver,1000,I,z,z,None,494,294.0,200.0,23,1,2023.8000001907349,397147.09999990463,9045,orange,NF,C,391144,391144,389420,390428,389420,391444,390944,390944,391444,77
67,test,1,inc,1,z,Tue Dec 09 2025 09:10:45 GMT-0500 (Eastern Standard Time),401237.5,cobalt,1100,I,z,z,None,423,224.0,199.0,24,1,2056.300000190735,399181.19999980927,9045,orange,NF,C,393278,393278,391454,392561,391455,393511,393078,393078,393511,78
68,test,1,con,1,m,Tue Dec 09 2025 09:10:45 GMT-0500 (Eastern Standard Time),403137.59999990463,gold,900,I,m,m,None,461,261.0,200.0,98,1,1887.1999998092651,401250.40000009537,9045,gold,NF,C,395144,395145,393523,394428,393524,395411,394944,394944,395411,79
69,test,1,inc,1,m,Tue Dec 09 2025 09:10:45 GMT-0500 (Eastern Standard Time),405020.90000009537,banana,800,I,m,m,None,533,333.0,200.0,93,1,1873.0,403147.90000009537,9045,cobalt,NF,C,396944,396945,395421,396228,395421,397294,396744,396744,397294,80
70,test,1,inc,1,z,Tue Dec 09 2025 09:10:45 GMT-0500 (Eastern Standard Time),406954.19999980927,copper,900,I,z,z,None,485,286.0,199.0,30,1,1922.5999999046326,405031.59999990463,9045,raisin,NF,C,398928,398928,397305,398211,397305,399227,398728,398728,399227,81
71,test,1,con,1,m,Tue Dec 09 2025 09:10:45 GMT-0500 (Eastern Standard Time),409071.59999990463,gold,1100,I,m,m,None,482,282.0,200.0,100,1,2108.300000190735,406963.2999997139,9045,gold,NF,C,401061,401061,399236,400344,399237,401345,400861,400861,401345,82
71,test,1,con,0,m,Tue Dec 09 2025 09:10:45 GMT-0500 (Eastern Standard Time),410887.69999980927,zinc,800,I,z,z,None,471,272.0,199.0,113,1,1805.0999999046326,409082.59999990463,9045,zinc,NF,C,402878,402878,401356,402161,401356,403161,402678,402678,403161,83
72,test,1,con,1,z,Tue Dec 09 2025 09:10:45 GMT-0500 (Eastern Standard Time),412770.90000009537,cherry,800,I,z,z,None,544,344.0,200.0,9,1,1873.9000000953674,410897.0,9045,cherry,NF,C,404694,404694,403170,403978,403170,405044,404494,404494,405044,84
73,test,1,con,1,z,Tue Dec 09 2025 09:10:45 GMT-0500 (Eastern Standard Time),414937.59999990463,pear,1000,I,z,z,None,619,420.0,199.0,43,1,2157.9000000953674,412779.69999980927,9045,pear,NF,C,406778,406778,405053,406061,405053,407211,406578,406578,407211,85
73,test,1,con,0,z,Tue Dec 09 2025 09:10:45 GMT-0500 (Eastern Standard Time),416904.2999997139,raisin,900,I,m,m,None,522,322.0,200.0,26,1,1958.0,414946.2999997139,9045,raisin,NF,C,408844,408844,407219,408128,407220,409177,408644,408644,409177,86
73,test,1,con,0,z,Tue Dec 09 2025 09:10:45 GMT-0500 (Eastern Standard Time),418920.90000009537,kiwi,1000,I,m,m,None,470,271.0,199.0,51,1,2006.4000000953674,416914.5,9045,kiwi,NF,C,410911,410911,409188,410194,409188,411194,410711,410711,411194,87
74,test,1,con,1,z,Tue Dec 09 2025 09:10:45 GMT-0500 (Eastern Standard Time),421154.19999980927,pear,900,I,z,z,None,794,595.0,199.0,42,1,2224.699999809265,418929.5,9045,pear,NF,C,412828,412828,411203,412111,411203,413427,412628,412628,413427,88
75,test,1,con,1,z,Tue Dec 09 2025 09:10:45 GMT-0500 (Eastern Standard Time),423554.19999980927,banana,1000,I,z,z,None,861,661.0,200.0,3,1,2389.9000000953674,421164.2999997139,9045,banana,NF,C,415161,415161,413437,414444,413438,415827,414961,414961,415827,89
76,test,1,con,1,z,Tue Dec 09 2025 09:10:45 GMT-0500 (Eastern Standard Time),425670.90000009537,plum,1100,I,z,z,None,472,273.0,199.0,60,1,2107.4000000953674,423563.5,9045,plum,NF,C,417661,417661,415837,416944,415837,417944,417461,417461,417944,90
76,test,1,inc,0,m,Tue Dec 09 2025 09:10:45 GMT-0500 (Eastern Standard Time),427571.0,pear,900,I,z,z,None,459,260.0,199.0,126,1,1891.3000001907349,425679.69999980927,9045,lead,NF,C,419578,419578,417953,418861,417953,419844,419378,419378,419844,91
77,test,1,con,1,z,Tue Dec 09 2025 09:10:45 GMT-0500 (Eastern Standard Time),429737.5,cherry,1100,I,z,z,None,519,320.0,199.0,12,1,2156.300000190735,427581.19999980927,9045,cherry,NF,C,421678,421678,419854,420961,419855,422011,421478,421478,422011,92
78,test,1,con,1,m,Tue Dec 09 2025 09:10:45 GMT-0500 (Eastern Standard Time),431737.5,zinc,900,I,m,m,None,555,355.0,200.0,114,1,1989.8000001907349,429747.69999980927,9045,zinc,NF,C,423644,423644,422021,422928,422021,424011,423444,423444,424011,93
79,test,1,con,1,m,Tue Dec 09 2025 09:10:45 GMT-0500 (Eastern Standard Time),433887.40000009537,cobalt,1000,I,m,m,None,614,414.0,200.0,91,1,2139.9000000953674,431747.5,9045,cobalt,NF,C,425744,425744,424021,425028,424021,426160,425544,425544,426160,94
79,test,1,con,0,m,Tue Dec 09 2025 09:10:45 GMT-0500 (Eastern Standard Time),436020.90000009537,lead,1100,I,z,z,None,492,292.0,200.0,124,1,2125.1000003814697,433895.7999997139,9045,lead,NF,C,427994,427994,426169,427278,426169,428294,427794,427794,428294,95
79,test,1,inc,0,m,Tue Dec 09 2025 09:10:45 GMT-0500 (Eastern Standard Time),437854.09999990463,lime,800,I,z,z,None,497,298.0,199.0,117,1,1820.0999999046326,436034.0,9045,zinc,NF,C,429828,429828,428307,429111,428307,430127,429628,429628,430127,96
80,test,1,con,1,m,Tue Dec 09 2025 09:10:45 GMT-0500 (Eastern Standard Time),440320.7999997139,iron,1000,I,m,m,None,928,729.0,199.0,107,1,2459.0,437861.7999997139,9045,iron,NF,C,431861,431861,430135,431144,430135,432594,431661,431661,432594,97
81,test,1,con,1,z,Tue Dec 09 2025 09:10:45 GMT-0500 (Eastern Standard Time),442337.40000009537,kiwi,900,I,z,z,None,578,379.0,199.0,50,1,2006.0,440331.40000009537,9045,kiwi,NF,C,434228,434228,432604,433511,432605,434611,434028,434028,434610,98
82,test,1,con,1,z,Tue Dec 09 2025 09:10:45 GMT-0500 (Eastern Standard Time),444470.90000009537,lime,900,I,z,z,None,688,489.0,199.0,34,1,2122.6000003814697,442348.2999997139,9045,lime,NF,C,436245,436245,434621,435528,434622,436744,436045,436045,436744,99
82,test,1,con,0,m,Tue Dec 09 2025 09:10:45 GMT-0500 (Eastern Standard Time),446604.09999990463,iron,1100,I,z,z,None,484,285.0,199.0,108,1,2123.699999809265,444480.40000009537,9045,iron,NF,C,438577,438577,436753,437861,436754,438877,438378,438378,438877,100
83,test,1,inc,1,z,Tue Dec 09 2025 09:10:45 GMT-0500 (Eastern Standard Time),448954.09999990463,lead,1100,I,z,z,None,702,503.0,199.0,40,1,2340.9000000953674,446613.19999980927,9045,lime,NF,C,440711,440711,438886,439994,438887,441227,440511,440511,441227,101
84,test,1,inc,1,m,Tue Dec 09 2025 09:10:45 GMT-0500 (Eastern Standard Time),451370.7999997139,raisin,1100,I,m,m,None,768,569.0,199.0,72,1,2404.7999997138977,448966.0,9045,bronze,NF,C,443061,443061,441239,442344,441239,443644,442861,442861,443644,102
85,test,1,inc,1,m,Tue Dec 09 2025 09:10:45 GMT-0500 (Eastern Standard Time),453470.69999980927,orange,1000,I,m,m,None,564,365.0,199.0,87,1,2092.199999809265,451378.5,9045,silver,NF,C,445378,445378,443652,444661,443652,445744,445178,445178,445744,103
86,test,1,con,1,z,Tue Dec 09 2025 09:10:45 GMT-0500 (Eastern Standard Time),455570.7999997139,kiwi,1100,I,z,z,None,459,260.0,199.0,52,1,2090.8999996185303,453479.90000009537,9045,kiwi,NF,C,447578,447578,445753,446861,445753,447844,447378,447378,447844,104
87,test,1,inc,1,z,Tue Dec 09 2025 09:10:45 GMT-0500 (Eastern Standard Time),457637.5,bronze,800,I,z,z,None,723,524.0,199.0,13,1,2055.9000000953674,455581.59999990463,9045,cherry,NF,C,449378,449378,447855,448661,447855,449911,449178,449178,449911,105
88,test,1,con,1,m,Tue Dec 09 2025 09:10:45 GMT-0500 (Eastern Standard Time),460004.19999980927,silver,1000,I,m,m,None,826,626.0,200.0,83,1,2357.0,457647.19999980927,9045,silver,NF,C,451644,451644,449920,450928,449920,452277,451444,451444,452277,106
89,test,1,inc,1,z,Tue Dec 09 2025 09:10:45 GMT-0500 (Eastern Standard Time),462004.09999990463,copper,900,I,z,z,None,558,359.0,199.0,14,1,1989.4000000953674,460014.69999980927,9045,cherry,NF,C,453911,453911,452288,453194,452288,454277,453711,453711,454277,107
90,test,1,inc,1,z,Tue Dec 09 2025 09:10:45 GMT-0500 (Eastern Standard Time),464187.59999990463,zinc,1000,I,z,z,None,634,435.0,199.0,47,1,2172.0,462015.59999990463,9045,pear,NF,C,456011,456011,454289,455294,454289,456461,455811,455811,456461,108
91,test,1,con,1,m,Tue Dec 09 2025 09:10:45 GMT-0500 (Eastern Standard Time),466037.5,gold,800,I,m,m,None,508,308.0,200.0,97,1,1840.7000002861023,464196.7999997139,9045,gold,NF,C,457994,457994,456470,457278,456470,458311,457794,457794,458310,109
92,test,1,inc,1,m,Tue Dec 09 2025 09:10:45 GMT-0500 (Eastern Standard Time),468954.19999980927,raisin,1100,I,m,m,None,1269,1069.0,200.0,80,1,2907.7999997138977,466046.40000009537,9045,copper,NF,C,460145,460145,458319,459428,458320,461227,459944,459944,461227,110
93,test,1,inc,1,m,Tue Dec 09 2025 09:10:45 GMT-0500 (Eastern Standard Time),471187.40000009537,pear,900,I,m,m,None,792,593.0,199.0,110,1,2222.9000000953674,468964.5,9045,iron,NF,C,462861,462861,461238,462144,461238,463461,462661,462661,463460,111
94,test,1,inc,1,m,Tue Dec 09 2025 09:10:45 GMT-0500 (Eastern Standard Time),473170.7999997139,lime,800,I,m,m,None,644,444.0,200.0,109,1,1972.1999998092651,471198.59999990463,9045,iron,NF,C,464994,464994,463472,464277,463472,465444,464794,464794,465444,112
95,test,1,con,1,z,Tue Dec 09 2025 09:10:45 GMT-0500 (Eastern Standard Time),475270.7999997139,pear,1100,I,z,z,None,455,256.0,199.0,44,1,2088.2999997138977,473182.5,9045,pear,NF,C,467278,467278,465456,466561,465456,467544,467078,467078,467544,113
96,test,1,inc,1,z,Tue Dec 09 2025 09:10:45 GMT-0500 (Eastern Standard Time),477320.7999997139,gold,800,I,z,z,None,703,504.0,199.0,45,1,2039.8999996185303,475280.90000009537,9045,pear,NF,C,469078,469078,467554,468361,467554,469594,468878,468878,469594,114
97,test,1,inc,1,m,Tue Dec 09 2025 09:10:45 GMT-0500 (Eastern Standard Time),479504.09999990463,pear,900,I,m,m,None,745,546.0,199.0,118,1,2173.699999809265,477330.40000009537,9045,zinc,NF,C,471228,471228,469603,470511,469604,471777,471028,471028,471777,115
98,test,1,inc,1,m,Tue Dec 09 2025 09:10:45 GMT-0500 (Eastern Standard Time),481754.0,raisin,1100,I,m,m,None,602,403.0,199.0,96,1,2241.2000002861023,479512.7999997139,9045,cobalt,NF,C,473611,473611,471786,472894,471786,474027,473411,473411,474027,116
99,test,1,inc,1,m,Tue Dec 09 2025 09:10:45 GMT-0500 (Eastern Standard Time),483954.19999980927,orange,1000,I,m,m,None,643,444.0,199.0,95,1,2184.0999999046326,481770.09999990463,9045,cobalt,NF,C,475778,475778,474043,475061,474044,476227,475577,475578,476227,117
100,test,1,inc,1,z,Tue Dec 09 2025 09:10:45 GMT-0500 (Eastern Standard Time),486370.7999997139,lead,1100,I,z,z,None,776,577.0,199.0,64,1,2401.7999997138977,483969.0,9045,plum,NF,C,478061,478061,476242,477344,476242,478644,477861,477861,478644,118
101,test,1,inc,1,m,Tue Dec 09 2025 09:10:45 GMT-0500 (Eastern Standard Time),488570.7999997139,kiwi,1000,I,m,m,None,652,453.0,199.0,119,1,2190.3999996185303,486380.40000009537,9045,zinc,NF,C,480377,480377,478653,479661,478654,480844,480178,480178,480844,119
102,test,1,inc,1,z,Tue Dec 09 2025 09:10:45 GMT-0500 (Eastern Standard Time),490570.7999997139,gold,800,I,z,z,None,651,452.0,199.0,53,1,1991.0999999046326,488579.69999980927,9045,kiwi,NF,C,482378,482378,480853,481661,480853,482844,482178,482178,482844,120
103,test,1,inc,1,m,Tue Dec 09 2025 09:10:45 GMT-0500 (Eastern Standard Time),492637.40000009537,cherry,900,I,m,m,None,616,416.0,200.0,94,1,2057.7000002861023,490579.69999980927,9045,cobalt,NF,C,484478,484478,482853,483761,482853,484911,484277,484277,484910,121
104,test,1,con,1,z,Tue Dec 09 2025 09:10:45 GMT-0500 (Eastern Standard Time),494854.09999990463,raisin,1000,I,z,z,None,674,474.0,200.0,27,1,2206.0999999046326,492648.0,9045,raisin,NF,C,486644,486644,484921,485928,484922,487127,486444,486444,487127,122
105,test,1,con,1,z,Tue Dec 09 2025 09:10:45 GMT-0500 (Eastern Standard Time),497103.90000009537,lime,1100,I,z,z,None,613,414.0,199.0,36,1,2240.300000190735,494863.59999990463,9045,lime,NF,C,488961,488961,487137,488244,487137,489377,488761,488761,489377,123
106,test,1,con,1,m,Tue Dec 09 2025 09:10:45 GMT-0500 (Eastern Standard Time),499520.69999980927,silver,900,I,m,m,None,978,779.0,199.0,82,1,2402.0999999046326,497118.59999990463,9045,silver,NF,C,491011,491011,489392,490294,489392,491794,490811,490811,491794,124
107,test,1,inc,1,z,Tue Dec 09 2025 09:10:45 GMT-0500 (Eastern Standard Time),501637.40000009537,bronze,800,I,z,z,None,773,574.0,199.0,29,1,2106.0,499531.40000009537,9045,raisin,NF,C,493328,493328,491804,492611,491805,493911,493127,493128,493910,125
108,test,1,con,1,z,Tue Dec 09 2025 09:10:45 GMT-0500 (Eastern Standard Time),503837.40000009537,orange,800,I,z,z,None,850,650.0,200.0,17,1,2191.7000002861023,501645.69999980927,9045,orange,NF,C,495444,495444,493919,494727,493919,496110,495244,495244,496110,126
109,test,1,inc,1,m,Tue Dec 09 2025 09:10:45 GMT-0500 (Eastern Standard Time),506120.90000009537,raisin,1100,I,m,m,None,638,438.0,200.0,88,1,2273.800000190735,503847.09999990463,9045,silver,NF,C,497944,497944,496120,497227,496120,498394,497744,497744,498394,127
110,test,1,con,1,z,Tue Dec 09 2025 09:10:45 GMT-0500 (Eastern Standard Time),508537.40000009537,cherry,1000,I,z,z,None,870,671.0,199.0,11,1,2405.9000000953674,506131.5,9045,cherry,NF,C,500128,500128,498405,499411,498405,500810,499927,499928,500810,128
