Number,acc_sum,block,block_c,block_cond,con_img,correct,correct_response,datetime,endtime,jitter,project,response,response_time,row_sel,session_number,start_end,starttime,subject_id,task,task_vers,trial
7,1,prac,1,A,circle.png,1,m,Fri Jan 30 2026 09:58:00 GMT-0600 (Central Standard Time),59488.90000000596,1700,I,m,940,6,3,3426.0,56062.90000000596,8051,NTS,C,1
4,2,prac,1,A,circle.png,1,z,Fri Jan 30 2026 09:58:00 GMT-0600 (Central Standard Time),62104.69999998808,1400,I,z,431,4,3,2609.5999999940395,59495.09999999404,8051,NTS,C,2
6,3,prac,1,A,circle.png,1,m,Fri Jan 30 2026 09:58:00 GMT-0600 (Central Standard Time),65253.59999999404,1900,I,m,451,5,3,3141.9000000059605,62111.69999998808,8051,NTS,C,3
8,4,prac,1,A,circle.png,1,m,Fri Jan 30 2026 09:58:00 GMT-0600 (Central Standard Time),68052.59999999404,1600,I,m,411,7,3,2792.800000011921,65259.79999998212,8051,NTS,C,4
7,5,prac,1,A,circle.png,1,m,Fri Jan 30 2026 09:58:00 GMT-0600 (Central Standard Time),71118.40000000596,1700,I,m,568,6,3,3060.0,68058.40000000596,8051,NTS,C,5
3,6,prac,1,A,circle.png,1,z,Fri Jan 30 2026 09:58:00 GMT-0600 (Central Standard Time),73567.5,1200,I,z,458,3,3,2442.5999999940395,71124.90000000596,8051,NTS,C,6
4,7,prac,1,A,circle.png,1,z,Fri Jan 30 2026 09:58:00 GMT-0600 (Central Standard Time),76166.79999998212,1400,I,z,401,4,3,2594.0999999940395,73572.69999998808,8051,NTS,C,7
2,8,prac,1,A,circle.png,1,z,Fri Jan 30 2026 09:58:00 GMT-0600 (Central Standard Time),79415.90000000596,2000,I,z,465,2,3,3243.7000000178814,76172.19999998808,8051,NTS,C,8
9,9,prac,1,A,circle.png,1,m,Fri Jan 30 2026 09:58:00 GMT-0600 (Central Standard Time),82215.0,1500,I,m,509,8,3,2794.2000000178814,79420.79999998212,8051,NTS,C,9
1,10,prac,1,A,circle.png,1,z,Fri Jan 30 2026 09:58:00 GMT-0600 (Central Standard Time),84464.29999998212,1000,I,z,465,1,3,2243.5999999940395,82220.69999998808,8051,NTS,C,10
3,11,prac,1,A,circle.png,1,z,Fri Jan 30 2026 09:58:00 GMT-0600 (Central Standard Time),86996.79999998212,1200,I,z,536,3,3,2527.2999999821186,84469.5,8051,NTS,C,11
6,12,prac,1,A,circle.png,1,m,Fri Jan 30 2026 09:58:00 GMT-0600 (Central Standard Time),90079.09999999404,1900,I,m,384,5,3,3077.300000011921,87001.79999998212,8051,NTS,C,12
9,1,prac,1,B,triangle.png,1,z,Fri Jan 30 2026 09:58:00 GMT-0600 (Central Standard Time),126967.69999998808,1400,I,z,716,8,3,2894.2999999821186,124073.40000000596,8051,NTS,C,1
3,2,prac,1,B,triangle.png,1,z,Fri Jan 30 2026 09:58:00 GMT-0600 (Central Standard Time),129816.59999999404,1600,I,z,465,3,3,2842.5,126974.09999999404,8051,NTS,C,2
7,3,prac,1,B,triangle.png,1,z,Fri Jan 30 2026 09:58:00 GMT-0600 (Central Standard Time),133199.09999999404,2000,I,z,592,6,3,3376.800000011921,129822.29999998212,8051,NTS,C,3
8,4,prac,1,B,triangle.png,1,m,Fri Jan 30 2026 09:58:00 GMT-0600 (Central Standard Time),135698.19999998808,1200,I,m,513,7,3,2493.5999999940395,133204.59999999404,8051,NTS,C,4
8,5,prac,1,B,triangle.png,1,m,Fri Jan 30 2026 09:58:00 GMT-0600 (Central Standard Time),138197.29999998212,1200,I,m,510,7,3,2494.0999999940395,135703.19999998808,8051,NTS,C,5
1,6,prac,1,B,triangle.png,1,z,Fri Jan 30 2026 09:58:00 GMT-0600 (Central Standard Time),141363.19999998808,1900,I,z,471,1,3,3160.0999999940395,138203.09999999404,8051,NTS,C,6
2,7,prac,1,B,triangle.png,1,m,Fri Jan 30 2026 09:58:00 GMT-0600 (Central Standard Time),144428.69999998808,1700,I,m,570,2,3,3060.699999988079,141368.0,8051,NTS,C,7
1,8,prac,1,B,triangle.png,1,z,Fri Jan 30 2026 09:58:00 GMT-0600 (Central Standard Time),147561.09999999404,1900,I,z,448,1,3,3126.9000000059605,144434.19999998808,8051,NTS,C,8
3,9,prac,1,B,triangle.png,1,z,Fri Jan 30 2026 09:58:00 GMT-0600 (Central Standard Time),150493.40000000596,1600,I,z,544,3,3,2927.2000000178814,147566.19999998808,8051,NTS,C,9
4,10,prac,1,B,triangle.png,1,m,Fri Jan 30 2026 09:58:00 GMT-0600 (Central Standard Time),153509.09999999404,1500,I,m,727,4,3,3010.300000011921,150498.79999998212,8051,NTS,C,10
9,11,prac,1,B,triangle.png,1,z,Fri Jan 30 2026 09:58:00 GMT-0600 (Central Standard Time),156225.09999999404,1400,I,z,523,8,3,2710.5,153514.59999999404,8051,NTS,C,11
6,12,prac,1,B,triangle.png,1,m,Fri Jan 30 2026 09:58:00 GMT-0600 (Central Standard Time),158541.09999999404,1000,I,m,527,5,3,2310.800000011921,156230.29999998212,8051,NTS,C,12
6,1,test,1,A,circle.png,1,m,Fri Jan 30 2026 09:58:00 GMT-0600 (Central Standard Time),183283.59999999404,1900,I,m,572,5,3,2494.5,180789.09999999404,8051,NTS,C,1
2,2,test,1,A,circle.png,1,z,Fri Jan 30 2026 09:58:00 GMT-0600 (Central Standard Time),185782.40000000596,2000,I,z,477,2,3,2494.100000023842,183288.29999998212,8051,NTS,C,2
8,3,test,1,A,circle.png,1,m,Fri Jan 30 2026 09:58:00 GMT-0600 (Central Standard Time),187765.09999999404,1600,I,m,354,7,3,1979.0999999940395,185786.0,8051,NTS,C,3
1,4,test,1,A,circle.png,1,z,Fri Jan 30 2026 09:58:00 GMT-0600 (Central Standard Time),189081.40000000596,1000,I,z,291,1,3,1312.0,187769.40000000596,8051,NTS,C,4
4,4,test,1,A,circle.png,0,z,Fri Jan 30 2026 09:58:00 GMT-0600 (Central Standard Time),190897.5,1400,I,m,399,4,3,1812.300000011921,189085.19999998808,8051,NTS,C,5
4,5,test,1,A,circle.png,1,z,Fri Jan 30 2026 09:58:00 GMT-0600 (Central Standard Time),192697.09999999404,1400,I,z,382,4,3,1795.5999999940395,190901.5,8051,NTS,C,6
7,6,test,1,A,circle.png,1,m,Fri Jan 30 2026 09:58:00 GMT-0600 (Central Standard Time),194813.0,1700,I,m,396,6,3,2112.0,192701.0,8051,NTS,C,7
3,7,test,1,A,circle.png,1,z,Fri Jan 30 2026 09:58:00 GMT-0600 (Central Standard Time),196562.29999998212,1200,I,z,523,3,3,1745.699999988079,194816.59999999404,8051,NTS,C,8
2,8,test,1,A,circle.png,1,z,Fri Jan 30 2026 09:58:00 GMT-0600 (Central Standard Time),198961.59999999404,2000,I,z,382,2,3,2395.5999999940395,196566.0,8051,NTS,C,9
9,9,test,1,A,circle.png,1,m,Fri Jan 30 2026 09:58:00 GMT-0600 (Central Standard Time),200944.40000000596,1500,I,m,450,8,3,1979.300000011921,198965.09999999404,8051,NTS,C,10
1,10,test,1,A,circle.png,1,z,Fri Jan 30 2026 09:58:00 GMT-0600 (Central Standard Time),202410.5,1000,I,z,440,1,3,1462.5,200948.0,8051,NTS,C,11
1,11,test,1,A,circle.png,1,z,Fri Jan 30 2026 09:58:00 GMT-0600 (Central Standard Time),203826.69999998808,1000,I,z,398,1,3,1412.199999988079,202414.5,8051,NTS,C,12
7,11,test,1,A,circle.png,0,m,Fri Jan 30 2026 09:58:00 GMT-0600 (Central Standard Time),206026.0,1700,I,z,482,6,3,2195.5999999940395,203830.40000000596,8051,NTS,C,13
9,12,test,1,A,circle.png,1,m,Fri Jan 30 2026 09:58:00 GMT-0600 (Central Standard Time),208058.59999999404,1500,I,m,506,8,3,2028.5999999940395,206030.0,8051,NTS,C,14
2,13,test,1,A,circle.png,1,z,Fri Jan 30 2026 09:58:00 GMT-0600 (Central Standard Time),210624.79999998212,2000,I,z,541,2,3,2561.5999999940395,208063.19999998808,8051,NTS,C,15
4,14,test,1,A,circle.png,1,z,Fri Jan 30 2026 09:58:00 GMT-0600 (Central Standard Time),212607.40000000596,1400,I,z,551,4,3,1978.800000011921,210628.59999999404,8051,NTS,C,16
8,15,test,1,A,circle.png,1,m,Fri Jan 30 2026 09:58:00 GMT-0600 (Central Standard Time),214806.79999998212,1600,I,m,577,7,3,2195.5,212611.29999998212,8051,NTS,C,17
1,16,test,1,A,circle.png,1,z,Fri Jan 30 2026 09:58:00 GMT-0600 (Central Standard Time),216489.40000000596,1000,I,z,665,1,3,1679.0,214810.40000000596,8051,NTS,C,18
3,17,test,1,A,circle.png,1,z,Fri Jan 30 2026 09:58:00 GMT-0600 (Central Standard Time),218405.5,1200,I,z,695,3,3,1912.300000011921,216493.19999998808,8051,NTS,C,19
7,18,test,1,A,circle.png,1,m,Fri Jan 30 2026 09:58:00 GMT-0600 (Central Standard Time),220854.79999998212,1700,I,m,718,6,3,2445.2999999821186,218409.5,8051,NTS,C,20
6,19,test,1,A,circle.png,1,m,Fri Jan 30 2026 09:58:00 GMT-0600 (Central Standard Time),223437.40000000596,1900,I,m,662,5,3,2578.5,220858.90000000596,8051,NTS,C,21
3,20,test,1,A,circle.png,1,z,Fri Jan 30 2026 09:58:00 GMT-0600 (Central Standard Time),225136.90000000596,1200,I,z,474,3,3,1696.0,223440.90000000596,8051,NTS,C,22
8,21,test,1,A,circle.png,1,m,Fri Jan 30 2026 09:58:00 GMT-0600 (Central Standard Time),227252.69999998808,1600,I,m,495,7,3,2112.0999999940395,225140.59999999404,8051,NTS,C,23
9,22,test,1,A,circle.png,1,m,Fri Jan 30 2026 09:58:00 GMT-0600 (Central Standard Time),229152.29999998212,1500,I,m,375,8,3,1895.199999988079,227257.09999999404,8051,NTS,C,24
7,1,test,1,B,triangle.png,1,z,Fri Jan 30 2026 09:58:00 GMT-0600 (Central Standard Time),250229.0,2000,I,z,494,6,3,2512.5,247716.5,8051,NTS,C,1
9,2,test,1,B,triangle.png,1,z,Fri Jan 30 2026 09:58:00 GMT-0600 (Central Standard Time),252794.79999998212,1900,I,z,648,16,3,2561.199999988079,250233.59999999404,8051,NTS,C,2
8,3,test,1,B,triangle.png,1,m,Fri Jan 30 2026 09:58:00 GMT-0600 (Central Standard Time),255394.0,1700,I,m,874,15,3,2595.300000011921,252798.69999998808,8051,NTS,C,3
3,4,test,1,B,triangle.png,1,z,Fri Jan 30 2026 09:58:00 GMT-0600 (Central Standard Time),258026.5,2000,I,z,607,11,3,2628.300000011921,255398.19999998808,8051,NTS,C,4
9,5,test,1,B,triangle.png,1,z,Fri Jan 30 2026 09:58:00 GMT-0600 (Central Standard Time),260292.29999998212,1400,I,z,838,8,3,2262.199999988079,258030.09999999404,8051,NTS,C,5
2,6,test,1,B,triangle.png,1,m,Fri Jan 30 2026 09:58:00 GMT-0600 (Central Standard Time),262708.2999999821,1700,I,m,696,2,3,2412.5999999940395,260295.69999998808,8051,NTS,C,6
7,7,test,1,B,triangle.png,1,z,Fri Jan 30 2026 09:58:00 GMT-0600 (Central Standard Time),264924.5,1600,I,z,596,14,3,2212.5999999940395,262711.90000000596,8051,NTS,C,7
8,8,test,1,B,triangle.png,1,m,Fri Jan 30 2026 09:58:00 GMT-0600 (Central Standard Time),266652.2999999821,1200,I,m,508,7,3,1723.7999999821186,264928.5,8051,NTS,C,8
2,9,test,1,B,triangle.png,1,m,Fri Jan 30 2026 09:58:00 GMT-0600 (Central Standard Time),269206.5,1700,I,m,819,2,3,2549.300000011921,266657.1999999881,8051,NTS,C,9
1,10,test,1,B,triangle.png,1,z,Fri Jan 30 2026 09:58:00 GMT-0600 (Central Standard Time),271638.90000000596,1900,I,z,502,1,3,2428.5,269210.40000000596,8051,NTS,C,10
4,11,test,1,B,triangle.png,1,m,Fri Jan 30 2026 09:58:00 GMT-0600 (Central Standard Time),273705.1999999881,1500,I,m,534,4,3,2062.4000000059605,271642.7999999821,8051,NTS,C,11
2,12,test,1,B,triangle.png,1,m,Fri Jan 30 2026 09:58:00 GMT-0600 (Central Standard Time),275604.2999999821,1200,I,m,679,10,3,1895.199999988079,273709.09999999404,8051,NTS,C,12
3,13,test,1,B,triangle.png,1,z,Fri Jan 30 2026 09:58:00 GMT-0600 (Central Standard Time),277886.90000000596,1600,I,z,652,3,3,2278.9000000059605,275608.0,8051,NTS,C,13
3,14,test,1,B,triangle.png,1,z,Fri Jan 30 2026 09:58:00 GMT-0600 (Central Standard Time),280052.90000000596,1600,I,z,537,3,3,2162.2000000178814,277890.6999999881,8051,NTS,C,14
9,15,test,1,B,triangle.png,1,z,Fri Jan 30 2026 09:58:00 GMT-0600 (Central Standard Time),282618.7999999821,1900,I,z,648,16,3,2562.0,280056.7999999821,8051,NTS,C,15
8,16,test,1,B,triangle.png,1,m,Fri Jan 30 2026 09:58:00 GMT-0600 (Central Standard Time),284434.7999999821,1200,I,m,598,7,3,1812.0999999940395,282622.6999999881,8051,NTS,C,16
1,17,test,1,B,triangle.png,1,z,Fri Jan 30 2026 09:58:00 GMT-0600 (Central Standard Time),286368.6999999881,1400,I,z,509,9,3,1930.2999999821186,284438.40000000596,8051,NTS,C,17
6,18,test,1,B,triangle.png,1,m,Fri Jan 30 2026 09:58:00 GMT-0600 (Central Standard Time),287967.09999999404,1000,I,m,569,5,3,1594.300000011921,286372.7999999821,8051,NTS,C,18
4,18,test,1,B,triangle.png,0,m,Fri Jan 30 2026 09:58:00 GMT-0600 (Central Standard Time),290228.40000000596,1500,I,z,744,4,3,2257.800000011921,287970.59999999404,8051,NTS,C,19
2,19,test,1,B,triangle.png,1,m,Fri Jan 30 2026 09:58:00 GMT-0600 (Central Standard Time),292115.7999999821,1200,I,m,663,10,3,1882.699999988079,290233.09999999404,8051,NTS,C,20
6,20,test,1,B,triangle.png,1,m,Fri Jan 30 2026 09:58:00 GMT-0600 (Central Standard Time),294116.2999999821,1500,I,m,473,13,3,1996.699999988079,292119.59999999404,8051,NTS,C,21
1,21,test,1,B,triangle.png,1,z,Fri Jan 30 2026 09:58:00 GMT-0600 (Central Standard Time),296647.6999999881,1900,I,z,602,1,3,2527.699999988079,294120.0,8051,NTS,C,22
7,22,test,1,B,triangle.png,1,z,Fri Jan 30 2026 09:58:00 GMT-0600 (Central Standard Time),299113.59999999404,1600,I,z,849,14,3,2462.0999999940395,296651.5,8051,NTS,C,23
4,23,test,1,B,triangle.png,1,m,Fri Jan 30 2026 09:58:00 GMT-0600 (Central Standard Time),300813.1999999881,1000,I,m,671,12,3,1695.699999988079,299117.5,8051,NTS,C,24
3,1,prac,1,C,triangle.png,1,z,Fri Jan 30 2026 09:58:00 GMT-0600 (Central Standard Time),344483.2999999821,1500,I,z,888,3,3,3178.0,341305.2999999821,8051,NTS,C,1
1,2,prac,1,C,circle.png,1,z,Fri Jan 30 2026 09:58:00 GMT-0600 (Central Standard Time),348215.5,1700,I,z,1234,1,3,3726.7000000178814,344488.7999999821,8051,NTS,C,2
4,3,prac,1,C,circle.png,1,z,Fri Jan 30 2026 09:58:00 GMT-0600 (Central Standard Time),350831.09999999404,1000,I,z,825,4,3,2610.800000011921,348220.2999999821,8051,NTS,C,3
2,3,prac,1,C,triangle.png,0,m,Fri Jan 30 2026 09:58:00 GMT-0600 (Central Standard Time),353880.0,1600,I,z,650,2,3,3041.2000000178814,350838.7999999821,8051,NTS,C,4
2,4,prac,1,C,triangle.png,1,m,Fri Jan 30 2026 09:58:00 GMT-0600 (Central Standard Time),356912.59999999404,1600,I,m,640,2,3,3028.0999999940395,353884.5,8051,NTS,C,5
7,5,prac,1,C,triangle.png,1,z,Fri Jan 30 2026 09:58:00 GMT-0600 (Central Standard Time),359794.90000000596,1200,I,z,889,6,3,2877.2000000178814,356917.6999999881,8051,NTS,C,6
6,6,prac,1,C,circle.png,1,m,Fri Jan 30 2026 09:58:00 GMT-0600 (Central Standard Time),363343.90000000596,2000,I,m,750,5,3,3543.9000000059605,359800.0,8051,NTS,C,7
9,7,prac,1,C,circle.png,1,m,Fri Jan 30 2026 09:58:00 GMT-0600 (Central Standard Time),366626.09999999404,1900,I,m,590,8,3,3277.0999999940395,363349.0,8051,NTS,C,8
6,8,prac,1,C,circle.png,1,m,Fri Jan 30 2026 09:58:00 GMT-0600 (Central Standard Time),370058.5,2000,I,m,638,5,3,3427.7000000178814,366630.7999999821,8051,NTS,C,9
8,9,prac,1,C,triangle.png,1,m,Fri Jan 30 2026 09:58:00 GMT-0600 (Central Standard Time),372791.0,1400,I,m,542,7,3,2727.0999999940395,370063.90000000596,8051,NTS,C,10
1,10,prac,1,C,circle.png,1,z,Fri Jan 30 2026 09:58:00 GMT-0600 (Central Standard Time),376106.6999999881,1700,I,z,831,1,3,3310.699999988079,372796.0,8051,NTS,C,11
3,11,prac,1,C,triangle.png,1,z,Fri Jan 30 2026 09:58:00 GMT-0600 (Central Standard Time),379455.59999999404,1500,I,z,1058,3,3,3344.300000011921,376111.2999999821,8051,NTS,C,12
4,0,test,1,C,triangle.png,0,m,Fri Jan 30 2026 09:58:00 GMT-0600 (Central Standard Time),403548.09999999404,1500,I,z,1239,20,3,2762.199999988079,400785.90000000596,8051,NTS,C,1
6,1,test,1,C,circle.png,1,m,Fri Jan 30 2026 09:58:00 GMT-0600 (Central Standard Time),406230.59999999404,1900,I,m,753,5,3,2678.300000011921,403552.2999999821,8051,NTS,C,2
3,2,test,1,C,triangle.png,1,z,Fri Jan 30 2026 09:58:00 GMT-0600 (Central Standard Time),408155.90000000596,1200,I,z,709,3,3,1920.9000000059605,406235.0,8051,NTS,C,3
9,3,test,1,C,circle.png,1,m,Fri Jan 30 2026 09:58:00 GMT-0600 (Central Standard Time),410362.1999999881,1500,I,m,698,24,3,2202.199999988079,408160.0,8051,NTS,C,4
7,4,test,1,C,circle.png,1,m,Fri Jan 30 2026 09:58:00 GMT-0600 (Central Standard Time),413128.1999999881,2000,I,m,734,14,3,2762.4000000059605,410365.7999999821,8051,NTS,C,5
3,5,test,1,C,circle.png,1,z,Fri Jan 30 2026 09:58:00 GMT-0600 (Central Standard Time),415727.40000000596,1600,I,z,976,11,3,2595.300000011921,413132.09999999404,8051,NTS,C,6
2,6,test,1,C,circle.png,1,z,Fri Jan 30 2026 09:58:00 GMT-0600 (Central Standard Time),418359.90000000596,1700,I,z,902,18,3,2628.2000000178814,415731.6999999881,8051,NTS,C,7
7,6,test,1,C,triangle.png,0,z,Fri Jan 30 2026 09:58:00 GMT-0600 (Central Standard Time),420975.6999999881,1700,I,m,892,22,3,2611.9000000059605,418363.7999999821,8051,NTS,C,8
8,7,test,1,C,triangle.png,1,m,Fri Jan 30 2026 09:58:00 GMT-0600 (Central Standard Time),423841.59999999404,1600,I,m,1233,7,3,2861.9000000059605,420979.6999999881,8051,NTS,C,9
2,8,test,1,C,circle.png,1,z,Fri Jan 30 2026 09:58:00 GMT-0600 (Central Standard Time),426340.90000000596,1700,I,z,780,10,3,2495.5,423845.40000000596,8051,NTS,C,10
8,9,test,1,C,circle.png,1,m,Fri Jan 30 2026 09:58:00 GMT-0600 (Central Standard Time),428523.59999999404,1200,I,m,956,15,3,2178.5999999940395,426345.0,8051,NTS,C,11
2,10,test,1,C,triangle.png,1,m,Fri Jan 30 2026 09:58:00 GMT-0600 (Central Standard Time),431255.6999999881,2000,I,m,709,2,3,2728.2999999821186,428527.40000000596,8051,NTS,C,12
1,11,test,1,C,circle.png,1,z,Fri Jan 30 2026 09:58:00 GMT-0600 (Central Standard Time),433205.2999999821,1000,I,z,921,1,3,1945.699999988079,431259.59999999404,8051,NTS,C,13
4,12,test,1,C,triangle.png,1,m,Fri Jan 30 2026 09:58:00 GMT-0600 (Central Standard Time),435871.1999999881,1500,I,m,1136,12,3,2662.199999988079,433209.0,8051,NTS,C,14
6,13,test,1,C,triangle.png,1,m,Fri Jan 30 2026 09:58:00 GMT-0600 (Central Standard Time),437655.09999999404,1000,I,m,754,13,3,1780.300000011921,435874.7999999821,8051,NTS,C,15
8,14,test,1,C,triangle.png,1,m,Fri Jan 30 2026 09:58:00 GMT-0600 (Central Standard Time),439970.0,1600,I,m,690,23,3,2311.0999999940395,437658.90000000596,8051,NTS,C,16
1,15,test,1,C,triangle.png,1,z,Fri Jan 30 2026 09:58:00 GMT-0600 (Central Standard Time),442602.1999999881,1900,I,z,707,17,3,2628.5,439973.6999999881,8051,NTS,C,17
9,16,test,1,C,circle.png,1,m,Fri Jan 30 2026 09:58:00 GMT-0600 (Central Standard Time),444968.2999999821,1500,I,m,834,8,3,2362.399999976158,442605.90000000596,8051,NTS,C,18
1,17,test,1,C,triangle.png,1,z,Fri Jan 30 2026 09:58:00 GMT-0600 (Central Standard Time),447667.5,1900,I,z,773,9,3,2695.2000000178814,444972.2999999821,8051,NTS,C,19
6,18,test,1,C,circle.png,1,m,Fri Jan 30 2026 09:58:00 GMT-0600 (Central Standard Time),450699.7999999821,1900,I,m,1106,21,3,3028.5,447671.2999999821,8051,NTS,C,20
4,19,test,1,C,circle.png,1,z,Fri Jan 30 2026 09:58:00 GMT-0600 (Central Standard Time),452899.2999999821,1400,I,z,774,4,3,2195.899999976158,450703.40000000596,8051,NTS,C,21
7,20,test,1,C,triangle.png,1,z,Fri Jan 30 2026 09:58:00 GMT-0600 (Central Standard Time),455931.5,1700,I,z,1305,6,3,3028.4000000059605,452903.09999999404,8051,NTS,C,22
9,21,test,1,C,triangle.png,1,z,Fri Jan 30 2026 09:58:00 GMT-0600 (Central Standard Time),458097.6999999881,1400,I,z,750,16,3,2162.5,455935.1999999881,8051,NTS,C,23
3,22,test,1,C,circle.png,1,z,Fri Jan 30 2026 09:58:00 GMT-0600 (Central Standard Time),460580.0,1600,I,z,863,19,3,2478.300000011921,458101.6999999881,8051,NTS,C,24
3,1,test,2,C,circle.png,1,z,Fri Jan 30 2026 09:58:00 GMT-0600 (Central Standard Time),473276.1999999881,1600,I,z,1096,11,3,2712.5999999940395,470563.59999999404,8051,NTS,C,1
7,2,test,2,C,triangle.png,1,z,Fri Jan 30 2026 09:58:00 GMT-0600 (Central Standard Time),475991.90000000596,1700,I,z,994,6,3,2710.600000023842,473281.2999999821,8051,NTS,C,2
4,3,test,2,C,circle.png,1,z,Fri Jan 30 2026 09:58:00 GMT-0600 (Central Standard Time),478058.40000000596,1400,I,z,641,4,3,2062.7000000178814,475995.6999999881,8051,NTS,C,3
9,4,test,2,C,triangle.png,1,z,Fri Jan 30 2026 09:58:00 GMT-0600 (Central Standard Time),480257.09999999404,1400,I,z,775,16,3,2192.5,478064.59999999404,8051,NTS,C,4
2,5,test,2,C,circle.png,1,z,Fri Jan 30 2026 09:58:00 GMT-0600 (Central Standard Time),482640.0,1700,I,z,652,10,3,2379.0999999940395,480260.90000000596,8051,NTS,C,5
8,5,test,2,C,circle.png,0,m,Fri Jan 30 2026 09:58:00 GMT-0600 (Central Standard Time),484589.40000000596,1200,I,z,729,15,3,1945.7000000178814,482643.6999999881,8051,NTS,C,6
3,6,test,2,C,triangle.png,1,z,Fri Jan 30 2026 09:58:00 GMT-0600 (Central Standard Time),486671.90000000596,1200,I,z,851,3,3,2078.5,484593.40000000596,8051,NTS,C,7
9,7,test,2,C,circle.png,1,m,Fri Jan 30 2026 09:58:00 GMT-0600 (Central Standard Time),488954.2999999821,1500,I,m,765,8,3,2278.2999999821186,486676.0,8051,NTS,C,8
1,8,test,2,C,triangle.png,1,z,Fri Jan 30 2026 09:58:00 GMT-0600 (Central Standard Time),492120.1999999881,1900,I,z,1234,17,3,3162.0999999940395,488958.09999999404,8051,NTS,C,9
9,9,test,2,C,triangle.png,1,z,Fri Jan 30 2026 09:58:00 GMT-0600 (Central Standard Time),494669.40000000596,1400,I,z,1129,24,3,2545.4000000059605,492124.0,8051,NTS,C,10
8,10,test,2,C,circle.png,1,m,Fri Jan 30 2026 09:58:00 GMT-0600 (Central Standard Time),496768.90000000596,1200,I,m,867,23,3,2095.800000011921,494673.09999999404,8051,NTS,C,11
2,11,test,2,C,circle.png,1,z,Fri Jan 30 2026 09:58:00 GMT-0600 (Central Standard Time),499284.2999999821,1700,I,z,797,18,3,2511.7999999821186,496772.5,8051,NTS,C,12
4,11,test,2,C,triangle.png,0,m,Fri Jan 30 2026 09:58:00 GMT-0600 (Central Standard Time),501567.1999999881,1500,I,z,761,20,3,2279.4000000059605,499287.7999999821,8051,NTS,C,13
6,12,test,2,C,triangle.png,1,m,Fri Jan 30 2026 09:58:00 GMT-0600 (Central Standard Time),504033.40000000596,1000,I,m,1432,13,3,2462.0,501571.40000000596,8051,NTS,C,14
4,13,test,2,C,triangle.png,1,m,Fri Jan 30 2026 09:58:00 GMT-0600 (Central Standard Time),506115.5,1500,I,m,564,12,3,2078.2000000178814,504037.2999999821,8051,NTS,C,15
8,14,test,2,C,triangle.png,1,m,Fri Jan 30 2026 09:58:00 GMT-0600 (Central Standard Time),508315.09999999404,1600,I,m,574,7,3,2196.0,506119.09999999404,8051,NTS,C,16
1,15,test,2,C,triangle.png,1,z,Fri Jan 30 2026 09:58:00 GMT-0600 (Central Standard Time),510914.09999999404,1900,I,z,681,9,3,2595.0999999940395,508319.0,8051,NTS,C,17
6,16,test,2,C,triangle.png,1,m,Fri Jan 30 2026 09:58:00 GMT-0600 (Central Standard Time),512713.7999999821,1000,I,m,775,21,3,1796.0999999940395,510917.6999999881,8051,NTS,C,18
1,17,test,2,C,circle.png,1,z,Fri Jan 30 2026 09:58:00 GMT-0600 (Central Standard Time),514463.2999999821,1000,I,z,720,1,3,1745.5,512717.7999999821,8051,NTS,C,19
2,18,test,2,C,triangle.png,1,m,Fri Jan 30 2026 09:58:00 GMT-0600 (Central Standard Time),517662.40000000596,2000,I,m,1170,2,3,3195.600000023842,514466.7999999821,8051,NTS,C,20
7,19,test,2,C,circle.png,1,m,Fri Jan 30 2026 09:58:00 GMT-0600 (Central Standard Time),520328.09999999404,2000,I,m,634,22,3,2661.800000011921,517666.2999999821,8051,NTS,C,21
7,20,test,2,C,circle.png,1,m,Fri Jan 30 2026 09:58:00 GMT-0600 (Central Standard Time),523160.6999999881,2000,I,m,801,14,3,2829.0,520331.6999999881,8051,NTS,C,22
3,21,test,2,C,circle.png,1,z,Fri Jan 30 2026 09:58:00 GMT-0600 (Central Standard Time),525840.400000006,1600,I,z,1063,19,3,2675.7000000178814,523164.6999999881,8051,NTS,C,23
6,22,test,2,C,circle.png,1,m,Fri Jan 30 2026 09:58:00 GMT-0600 (Central Standard Time),528358.7999999821,1900,I,m,587,5,3,2514.5999999940395,525844.1999999881,8051,NTS,C,24
8,0,test,3,C,triangle.png,0,m,Fri Jan 30 2026 09:58:00 GMT-0600 (Central Standard Time),534440.599999994,1600,I,None,1516,7,3,3129.5999999940395,531311.0,8051,NTS,C,1
9,1,test,3,C,circle.png,1,m,Fri Jan 30 2026 09:58:00 GMT-0600 (Central Standard Time),536806.2999999821,1500,I,m,837,8,3,2360.5999999940395,534445.6999999881,8051,NTS,C,2
8,2,test,3,C,triangle.png,1,m,Fri Jan 30 2026 09:58:00 GMT-0600 (Central Standard Time),538988.7999999821,1600,I,m,562,23,3,2179.0,536809.7999999821,8051,NTS,C,3
2,3,test,3,C,circle.png,1,z,Fri Jan 30 2026 09:58:00 GMT-0600 (Central Standard Time),541238.2999999821,1700,I,z,529,10,3,2245.5999999940395,538992.6999999881,8051,NTS,C,4
8,4,test,3,C,circle.png,1,m,Fri Jan 30 2026 09:58:00 GMT-0600 (Central Standard Time),543104.2999999821,1200,I,m,634,15,3,1862.2999999821186,541242.0,8051,NTS,C,5
6,5,test,3,C,triangle.png,1,m,Fri Jan 30 2026 09:58:00 GMT-0600 (Central Standard Time),544986.6999999881,1000,I,m,865,13,3,1878.2999999821186,543108.400000006,8051,NTS,C,6
7,6,test,3,C,triangle.png,1,z,Fri Jan 30 2026 09:58:00 GMT-0600 (Central Standard Time),547785.900000006,1700,I,z,1083,6,3,2795.4000000059605,544990.5,8051,NTS,C,7
7,7,test,3,C,circle.png,1,m,Fri Jan 30 2026 09:58:00 GMT-0600 (Central Standard Time),550785.1999999881,2000,I,m,967,14,3,2995.5,547789.6999999881,8051,NTS,C,8
4,7,test,3,C,triangle.png,0,m,Fri Jan 30 2026 09:58:00 GMT-0600 (Central Standard Time),553151.0,1500,I,z,836,12,3,2361.800000011921,550789.1999999881,8051,NTS,C,9
6,8,test,3,C,circle.png,1,m,Fri Jan 30 2026 09:58:00 GMT-0600 (Central Standard Time),555783.900000006,1900,I,m,711,5,3,2629.2000000178814,553154.6999999881,8051,NTS,C,10
1,9,test,3,C,circle.png,1,z,Fri Jan 30 2026 09:58:00 GMT-0600 (Central Standard Time),557417.2999999821,1000,I,z,617,17,3,1629.5999999940395,555787.6999999881,8051,NTS,C,11
7,9,test,3,C,triangle.png,0,z,Fri Jan 30 2026 09:58:00 GMT-0600 (Central Standard Time),560648.900000006,1700,I,None,1516,22,3,3227.600000023842,557421.2999999821,8051,NTS,C,12
9,10,test,3,C,triangle.png,1,z,Fri Jan 30 2026 09:58:00 GMT-0600 (Central Standard Time),562731.599999994,1400,I,z,657,16,3,2079.0999999940395,560652.5,8051,NTS,C,13
4,10,test,3,C,circle.png,0,z,Fri Jan 30 2026 09:58:00 GMT-0600 (Central Standard Time),564847.400000006,1400,I,m,685,4,3,2111.7000000178814,562735.6999999881,8051,NTS,C,14
4,11,test,3,C,circle.png,1,z,Fri Jan 30 2026 09:58:00 GMT-0600 (Central Standard Time),566796.7999999821,1400,I,z,521,20,3,1945.5,564851.2999999821,8051,NTS,C,15
1,12,test,3,C,circle.png,1,z,Fri Jan 30 2026 09:58:00 GMT-0600 (Central Standard Time),568329.5,1000,I,z,508,1,3,1529.0,566800.5,8051,NTS,C,16
3,13,test,3,C,circle.png,1,z,Fri Jan 30 2026 09:58:00 GMT-0600 (Central Standard Time),570679.099999994,1600,I,z,728,11,3,2346.0999999940395,568333.0,8051,NTS,C,17
3,14,test,3,C,triangle.png,1,z,Fri Jan 30 2026 09:58:00 GMT-0600 (Central Standard Time),572974.7999999821,1200,I,z,1080,3,3,2292.199999988079,570682.599999994,8051,NTS,C,18
3,15,test,3,C,triangle.png,1,z,Fri Jan 30 2026 09:58:00 GMT-0600 (Central Standard Time),574961.099999994,1200,I,z,750,19,3,1982.0,572979.099999994,8051,NTS,C,19
2,16,test,3,C,triangle.png,1,m,Fri Jan 30 2026 09:58:00 GMT-0600 (Central Standard Time),577760.1999999881,2000,I,m,768,18,3,2795.199999988079,574965.0,8051,NTS,C,20
2,17,test,3,C,triangle.png,1,m,Fri Jan 30 2026 09:58:00 GMT-0600 (Central Standard Time),580426.0,2000,I,m,650,2,3,2662.2000000178814,577763.7999999821,8051,NTS,C,21
1,18,test,3,C,triangle.png,1,z,Fri Jan 30 2026 09:58:00 GMT-0600 (Central Standard Time),583025.099999994,1900,I,z,676,9,3,2595.199999988079,580429.900000006,8051,NTS,C,22
9,19,test,3,C,circle.png,1,m,Fri Jan 30 2026 09:58:00 GMT-0600 (Central Standard Time),585257.599999994,1500,I,m,715,24,3,2228.300000011921,583029.2999999821,8051,NTS,C,23
6,20,test,3,C,circle.png,1,m,Fri Jan 30 2026 09:58:00 GMT-0600 (Central Standard Time),587923.7999999821,1900,I,m,747,21,3,2662.399999976158,585261.400000006,8051,NTS,C,24
2,1,test,4,C,circle.png,1,z,Fri Jan 30 2026 09:58:00 GMT-0600 (Central Standard Time),593188.599999994,1700,I,z,796,10,3,2512.699999988079,590675.900000006,8051,NTS,C,1
7,1,test,4,C,triangle.png,0,z,Fri Jan 30 2026 09:58:00 GMT-0600 (Central Standard Time),595687.900000006,1700,I,m,768,22,3,2495.0,593192.900000006,8051,NTS,C,2
1,2,test,4,C,circle.png,1,z,Fri Jan 30 2026 09:58:00 GMT-0600 (Central Standard Time),597387.400000006,1000,I,z,681,1,3,1695.2000000178814,595692.1999999881,8051,NTS,C,3
7,3,test,4,C,triangle.png,1,z,Fri Jan 30 2026 09:58:00 GMT-0600 (Central Standard Time),599786.2999999821,1700,I,z,682,6,3,2395.2999999821186,597391.0,8051,NTS,C,4
7,3,test,4,C,circle.png,0,m,Fri Jan 30 2026 09:58:00 GMT-0600 (Central Standard Time),602585.6999999881,2000,I,z,774,14,3,2794.9000000059605,599790.7999999821,8051,NTS,C,5
6,4,test,4,C,triangle.png,1,m,Fri Jan 30 2026 09:58:00 GMT-0600 (Central Standard Time),604652.6999999881,1000,I,m,1048,13,3,2063.0999999940395,602589.599999994,8051,NTS,C,6
4,5,test,4,C,triangle.png,1,m,Fri Jan 30 2026 09:58:00 GMT-0600 (Central Standard Time),607017.6999999881,1500,I,m,842,12,3,2360.9000000059605,604656.7999999821,8051,NTS,C,7
3,6,test,4,C,triangle.png,1,z,Fri Jan 30 2026 09:58:00 GMT-0600 (Central Standard Time),609050.400000006,1200,I,z,800,3,3,2029.1000000238419,607021.2999999821,8051,NTS,C,8
1,7,test,4,C,circle.png,1,z,Fri Jan 30 2026 09:58:00 GMT-0600 (Central Standard Time),610683.400000006,1000,I,z,607,17,3,1629.300000011921,609054.099999994,8051,NTS,C,9
2,8,test,4,C,triangle.png,1,m,Fri Jan 30 2026 09:58:00 GMT-0600 (Central Standard Time),613715.1999999881,2000,I,m,1015,18,3,3027.5,610687.6999999881,8051,NTS,C,10
9,8,test,4,C,triangle.png,0,z,Fri Jan 30 2026 09:58:00 GMT-0600 (Central Standard Time),616648.400000006,1400,I,None,1516,16,3,2929.300000011921,613719.099999994,8051,NTS,C,11
4,9,test,4,C,circle.png,1,z,Fri Jan 30 2026 09:58:00 GMT-0600 (Central Standard Time),619130.1999999881,1400,I,z,1065,20,3,2478.199999988079,616652.0,8051,NTS,C,12
9,10,test,4,C,circle.png,1,m,Fri Jan 30 2026 09:58:00 GMT-0600 (Central Standard Time),621329.7999999821,1500,I,m,683,24,3,2196.0999999940395,619133.6999999881,8051,NTS,C,13
1,11,test,4,C,triangle.png,1,z,Fri Jan 30 2026 09:58:00 GMT-0600 (Central Standard Time),624295.2999999821,1900,I,z,1043,9,3,2961.399999976158,621333.900000006,8051,NTS,C,14
6,12,test,4,C,circle.png,1,m,Fri Jan 30 2026 09:58:00 GMT-0600 (Central Standard Time),627227.599999994,1900,I,m,1014,5,3,2928.300000011921,624299.2999999821,8051,NTS,C,15
3,13,test,4,C,circle.png,1,z,Fri Jan 30 2026 09:58:00 GMT-0600 (Central Standard Time),629793.7999999821,1600,I,z,950,11,3,2562.199999988079,627231.599999994,8051,NTS,C,16
8,13,test,4,C,triangle.png,0,m,Fri Jan 30 2026 09:58:00 GMT-0600 (Central Standard Time),632742.7999999821,1600,I,z,1319,23,3,2945.399999976158,629797.400000006,8051,NTS,C,17
6,14,test,4,C,circle.png,1,m,Fri Jan 30 2026 09:58:00 GMT-0600 (Central Standard Time),635392.099999994,1900,I,m,719,21,3,2645.5,632746.599999994,8051,NTS,C,18
2,15,test,4,C,triangle.png,1,m,Fri Jan 30 2026 09:58:00 GMT-0600 (Central Standard Time),638441.2999999821,2000,I,m,1016,2,3,3045.5,635395.7999999821,8051,NTS,C,19
8,16,test,4,C,triangle.png,1,m,Fri Jan 30 2026 09:58:00 GMT-0600 (Central Standard Time),640623.6999999881,1600,I,m,561,7,3,2178.4000000059605,638445.2999999821,8051,NTS,C,20
4,17,test,4,C,circle.png,1,z,Fri Jan 30 2026 09:58:00 GMT-0600 (Central Standard Time),642873.1999999881,1400,I,z,817,4,3,2245.7999999821186,640627.400000006,8051,NTS,C,21
3,17,test,4,C,triangle.png,0,z,Fri Jan 30 2026 09:58:00 GMT-0600 (Central Standard Time),645022.400000006,1200,I,m,920,19,3,2145.300000011921,642877.099999994,8051,NTS,C,22
9,18,test,4,C,circle.png,1,m,Fri Jan 30 2026 09:58:00 GMT-0600 (Central Standard Time),647755.099999994,1500,I,m,1207,8,3,2728.699999988079,645026.400000006,8051,NTS,C,23
8,19,test,4,C,circle.png,1,m,Fri Jan 30 2026 09:58:00 GMT-0600 (Central Standard Time),649554.5,1200,I,m,575,15,3,1795.7000000178814,647758.7999999821,8051,NTS,C,24
