acc_sum,block,block_c,condition,correct,correct_response,datetime,endtime,flanker,jitter,project,response,response_test_buffer_response,response_test_target_response,response_time,response_time_test_buffer_response,response_time_test_target_response,row_sel,session_number,start_end,starttime,subject_id,target,task,task_vers,time_test_buffer,time_test_buffer_response,time_test_constants,time_test_flanker,time_test_jitter,time_test_logger,time_test_target,time_test_target_response,time_test_variables,trial
1,prac,1,con,1,m,Wed Mar 04 2026 14:47:54 GMT-0600 (Central Standard Time),286910.1999999881,jacket,800,O,m,,,1023,,,5,1,3124.5,283785.6999999881,7735,jacket,AF,A,,,,,,,,,,1
2,prac,1,con,1,m,Wed Mar 04 2026 14:47:54 GMT-0600 (Central Standard Time),290162.59999999404,step,800,O,m,,,1138,,,1,1,3248.4000000059605,286914.1999999881,7735,step,AF,A,,,,,,,,,,2
3,prac,1,con,1,m,Wed Mar 04 2026 14:47:54 GMT-0600 (Central Standard Time),292827.89999999106,bell,1000,O,m,,,361,,,3,1,2659.7999999970198,290168.09999999404,7735,bell,AF,A,,,,,,,,,,3
4,prac,1,con,1,z,Wed Mar 04 2026 14:47:54 GMT-0600 (Central Standard Time),295875.0,rage,1000,O,z,,,734,,,15,1,3042.9000000059605,292832.09999999404,7735,rage,AF,A,,,,,,,,,,4
5,prac,1,inc,1,m,Wed Mar 04 2026 14:47:54 GMT-0600 (Central Standard Time),299075.799999997,brutal,1100,O,m,,,787,,,8,1,3195.6000000089407,295880.1999999881,7735,window,AF,A,,,,,,,,,,5
6,prac,1,inc,1,m,Wed Mar 04 2026 14:47:54 GMT-0600 (Central Standard Time),302173.299999997,hate,1100,O,m,,,693,,,4,1,3092.2999999970198,299081.0,7735,film,AF,A,,,,,,,,,,6
7,prac,1,con,1,z,Wed Mar 04 2026 14:47:54 GMT-0600 (Central Standard Time),304841.1999999881,brutal,800,O,z,,,551,,,13,1,2661.0,302180.1999999881,7735,brutal,AF,A,,,,,,,,,,7
8,prac,1,con,1,m,Wed Mar 04 2026 14:47:54 GMT-0600 (Central Standard Time),308188.89999999106,remote,1000,O,m,,,1032,,,7,1,3342.2000000029802,304846.6999999881,7735,remote,AF,A,,,,,,,,,,8
9,prac,1,inc,1,z,Wed Mar 04 2026 14:47:54 GMT-0600 (Central Standard Time),311288.1999999881,film,900,O,z,,,891,,,14,1,3094.0,308194.1999999881,7735,hate,AF,A,,,,,,,,,,9
10,prac,1,inc,1,m,Wed Mar 04 2026 14:47:54 GMT-0600 (Central Standard Time),314202.5,elated,900,O,m,,,702,,,6,1,2909.2000000029802,311293.299999997,7735,napkin,AF,A,,,,,,,,,,10
10,prac,1,inc,0,z,Wed Mar 04 2026 14:47:54 GMT-0600 (Central Standard Time),318168.0,window,1100,O,m,,,1555,,,16,1,3960.300000011921,314207.6999999881,7735,temper,AF,A,,,,,,,,,,11
10,prac,1,inc,0,m,Wed Mar 04 2026 14:47:54 GMT-0600 (Central Standard Time),323150.6999999881,kind,900,O,None,,,1815,,,2,1,4976.699999988079,318174.0,7735,rock,AF,A,,,,,,,,,,12
11,prac,1,con,1,z,Wed Mar 04 2026 14:47:54 GMT-0600 (Central Standard Time),326733.39999999106,love,1000,O,z,,,1277,,,11,1,3578.2999999970198,323155.09999999404,7735,love,AF,A,,,,,,,,,,13
12,prac,1,con,1,z,Wed Mar 04 2026 14:47:54 GMT-0600 (Central Standard Time),330665.59999999404,elated,800,O,z,,,1816,,,9,1,3926.7999999970198,326738.799999997,7735,elated,AF,A,,,,,,,,,,14
13,prac,1,inc,1,z,Wed Mar 04 2026 14:47:54 GMT-0600 (Central Standard Time),334262.89999999106,rock,900,O,z,,,1391,,,10,1,3590.7000000029802,330672.1999999881,7735,kind,AF,A,,,,,,,,,,15
13,prac,1,inc,0,z,Wed Mar 04 2026 14:47:54 GMT-0600 (Central Standard Time),337627.89999999106,napkin,1100,O,m,,,950,,,12,1,3358.3999999910593,334269.5,7735,friend,AF,A,,,,,,,,,,16
1,test,1,con,1,m,Wed Mar 04 2026 14:47:54 GMT-0600 (Central Standard Time),386462.799999997,rock,1100,O,m,m,None,667,468.0,199.0,76,1,2311.6000000089407,384151.1999999881,7735,rock,AF,A,380299,380299,378470,379583,378471,380782,380099,380099,380782,1
2,test,1,inc,1,z,Wed Mar 04 2026 14:47:54 GMT-0600 (Central Standard Time),388896.0,window,1100,O,z,z,None,807,593.0,214.0,8,1,2426.4000000059605,386469.59999999404,7735,elated,AF,A,382615,382615,380789,381899,380789,383215,382400,382400,383215,2
3,test,1,con,1,m,Wed Mar 04 2026 14:47:54 GMT-0600 (Central Standard Time),391011.5,window,800,O,m,m,None,777,578.0,199.0,121,1,2110.6000000089407,388900.89999999106,7735,window,AF,A,384749,384749,383220,384031,383220,385331,384549,384549,385331,3
4,test,1,con,1,z,Wed Mar 04 2026 14:47:54 GMT-0600 (Central Standard Time),393129.09999999404,hate,800,O,z,z,None,783,584.0,199.0,41,1,2112.0999999940395,391017.0,7735,hate,AF,A,386848,386848,385336,386146,385336,387448,386648,386648,387448,4
5,test,1,inc,1,m,Wed Mar 04 2026 14:47:54 GMT-0600 (Central Standard Time),395292.6999999881,brutal,900,O,m,m,None,727,511.0,216.0,118,1,2158.2999999970198,393134.39999999106,7735,remote,AF,A,389096,389096,387453,388364,387454,389612,388880,388880,389612,5
6,test,1,con,1,z,Wed Mar 04 2026 14:47:54 GMT-0600 (Central Standard Time),397493.1999999881,kind,900,O,z,z,None,761,560.0,201.0,10,1,2193.3999999910593,395299.799999997,7735,kind,AF,A,391247,391247,389619,390530,389619,391812,391046,391046,391812,6
7,test,1,con,1,z,Wed Mar 04 2026 14:47:54 GMT-0600 (Central Standard Time),399643.299999997,love,1100,O,z,z,None,505,305.0,200.0,20,1,2145.2000000029802,397498.09999999404,7735,love,AF,A,393646,393646,391817,392929,391817,393962,393445,393445,393962,7
8,test,1,inc,1,z,Wed Mar 04 2026 14:47:54 GMT-0600 (Central Standard Time),401707.299999997,jacket,800,O,z,z,None,728,513.0,215.0,29,1,2060.2999999970198,399647.0,7735,friend,AF,A,395510,395510,393966,394778,393966,396026,395295,395295,396026,8
8,test,1,con,0,z,Wed Mar 04 2026 14:47:54 GMT-0600 (Central Standard Time),403673.89999999106,temper,900,O,m,m,None,521,322.0,199.0,58,1,1962.2000000029802,401711.6999999881,7735,temper,AF,A,397661,397661,396031,396944,396031,397993,397461,397461,397993,9
9,test,1,con,1,m,Wed Mar 04 2026 14:47:54 GMT-0600 (Central Standard Time),405823.39999999106,window,1100,O,m,m,None,516,317.0,199.0,124,1,2141.5999999940395,403681.799999997,7735,window,AF,A,399810,399810,398001,399109,398001,400142,399611,399611,400142,10
10,test,1,inc,1,m,Wed Mar 04 2026 14:47:54 GMT-0600 (Central Standard Time),408073.59999999404,kind,900,O,m,m,None,805,591.0,214.0,94,1,2245.2000000029802,405828.39999999106,7735,film,AF,A,401792,401792,400147,401060,400148,402393,401577,401577,402393,11
11,test,1,con,1,z,Wed Mar 04 2026 14:47:54 GMT-0600 (Central Standard Time),410655.59999999404,elated,1100,O,z,z,None,932,717.0,215.0,4,1,2578.7999999970198,408076.799999997,7735,elated,AF,A,404242,404242,402396,403509,402396,404975,404027,404027,404975,12
12,test,1,con,1,m,Wed Mar 04 2026 14:47:54 GMT-0600 (Central Standard Time),413337.299999997,rock,900,O,m,m,None,1238,1038.0,200.0,74,1,2676.1000000089407,410661.1999999881,7735,rock,AF,A,406609,406609,404980,405891,404980,407656,406408,406408,407656,13
13,test,1,con,1,m,Wed Mar 04 2026 14:47:54 GMT-0600 (Central Standard Time),415120.299999997,film,800,O,m,m,None,456,256.0,200.0,89,1,1778.2000000029802,413342.09999999404,7735,film,AF,A,409174,409174,407661,408473,407662,409439,408974,408974,409439,14
14,test,1,inc,1,z,Wed Mar 04 2026 14:47:54 GMT-0600 (Central Standard Time),417636.5,remote,1000,O,z,z,None,978,779.0,199.0,63,1,2510.5,415126.0,7735,temper,AF,A,411173,411173,409445,410456,409445,411956,410974,410974,411956,15
15,test,1,con,1,z,Wed Mar 04 2026 14:47:54 GMT-0600 (Central Standard Time),419803.59999999404,love,800,O,z,z,None,845,646.0,199.0,17,1,2160.9000000059605,417642.6999999881,7735,love,AF,A,413473,413473,411962,412772,411962,414123,413273,413273,414123,16
16,test,1,inc,1,m,Wed Mar 04 2026 14:47:54 GMT-0600 (Central Standard Time),422118.39999999106,love,1000,O,m,m,None,783,584.0,199.0,71,1,2308.7999999970198,419809.59999999404,7735,step,AF,A,415839,415839,414129,415137,414129,416437,415640,415640,416437,17
17,test,1,inc,1,z,Wed Mar 04 2026 14:47:54 GMT-0600 (Central Standard Time),424168.299999997,step,800,O,z,z,None,716,516.0,200.0,21,1,2044.2000000029802,422124.09999999404,7735,love,AF,A,417971,417971,416443,417255,416443,418487,417770,417770,418487,18
18,test,1,con,1,m,Wed Mar 04 2026 14:47:54 GMT-0600 (Central Standard Time),426433.0,bell,1100,O,m,m,None,622,406.0,216.0,84,1,2259.7000000029802,424173.299999997,7735,bell,AF,A,420337,420337,418492,419604,418493,420752,420121,420121,420752,19
19,test,1,inc,1,z,Wed Mar 04 2026 14:47:54 GMT-0600 (Central Standard Time),428465.6999999881,step,800,O,z,z,None,686,472.0,214.0,53,1,2029.5,426436.1999999881,7735,rage,AF,A,422303,422304,420755,421570,420755,422785,422089,422089,422785,20
20,test,1,con,1,m,Wed Mar 04 2026 14:47:54 GMT-0600 (Central Standard Time),430547.59999999404,rock,800,O,m,m,None,742,543.0,199.0,73,1,2075.9000000059605,428471.6999999881,7735,rock,AF,A,424320,424320,422791,423603,422791,424867,424120,424120,424867,21
21,test,1,inc,1,z,Wed Mar 04 2026 14:47:54 GMT-0600 (Central Standard Time),432815.299999997,jacket,800,O,z,z,None,918,718.0,200.0,61,1,2264.1000000089407,430551.1999999881,7735,temper,AF,A,426401,426401,424870,425685,424870,427134,426201,426201,427134,22
21,test,1,inc,0,m,Wed Mar 04 2026 14:47:54 GMT-0600 (Central Standard Time),435447.5,friend,1100,O,z,z,None,999,784.0,215.0,112,1,2626.300000011921,432821.1999999881,7735,napkin,AF,A,428967,428967,427140,428250,427140,429767,428752,428752,429766,23
22,test,1,con,1,m,Wed Mar 04 2026 14:47:54 GMT-0600 (Central Standard Time),438214.59999999404,film,1000,O,m,m,None,1228,1027.0,201.0,91,1,2760.7999999970198,435453.799999997,7735,film,AF,A,431500,431500,429773,430783,429773,432534,431299,431299,432534,24
23,test,1,inc,1,z,Wed Mar 04 2026 14:47:54 GMT-0600 (Central Standard Time),440346.5,jacket,800,O,z,z,None,815,615.0,200.0,5,1,2128.2000000029802,438218.299999997,7735,elated,AF,A,434050,434050,432537,433348,432538,434666,433849,433849,434666,25
24,test,1,con,1,m,Wed Mar 04 2026 14:47:54 GMT-0600 (Central Standard Time),442546.39999999106,rock,1000,O,m,m,None,667,467.0,200.0,75,1,2194.8999999910593,440351.5,7735,rock,AF,A,436398,436398,434671,435681,434671,436866,436198,436198,436865,26
25,test,1,con,1,m,Wed Mar 04 2026 14:47:54 GMT-0600 (Central Standard Time),444794.1999999881,jacket,900,O,m,m,None,815,615.0,200.0,98,1,2243.199999988079,442551.0,7735,jacket,AF,A,438498,438498,436870,437781,436870,439113,438298,438298,439113,27
26,test,1,con,1,z,Wed Mar 04 2026 14:47:54 GMT-0600 (Central Standard Time),446810.299999997,brutal,800,O,z,z,None,674,473.0,201.0,33,1,2011.9000000059605,444798.39999999106,7735,brutal,AF,A,440647,440647,439117,439930,439118,441129,440446,440446,441129,28
27,test,1,con,1,m,Wed Mar 04 2026 14:47:54 GMT-0600 (Central Standard Time),449160.1999999881,bell,1000,O,m,m,None,798,599.0,199.0,83,1,2345.7999999970198,446814.39999999106,7735,bell,AF,A,442864,442864,441133,442147,441134,443479,442664,442664,443479,29
28,test,1,con,1,z,Wed Mar 04 2026 14:47:54 GMT-0600 (Central Standard Time),451043.799999997,hate,900,O,z,z,None,450,251.0,199.0,42,1,1880.0,449163.799999997,7735,hate,AF,A,445111,445111,443483,444396,443483,445363,444912,444912,445363,30
28,test,1,con,0,z,Wed Mar 04 2026 14:47:54 GMT-0600 (Central Standard Time),452908.0,rage,800,O,m,m,None,527,327.0,200.0,49,1,1859.2000000029802,451048.799999997,7735,rage,AF,A,446896,446896,445368,446178,445368,447227,446695,446695,447227,31
29,test,1,inc,1,m,Wed Mar 04 2026 14:47:54 GMT-0600 (Central Standard Time),455290.5,friend,1100,O,m,m,None,746,547.0,199.0,104,1,2379.6000000089407,452910.89999999106,7735,jacket,AF,A,449061,449061,447230,448345,447230,449610,448862,448862,449610,32
30,test,1,inc,1,z,Wed Mar 04 2026 14:47:54 GMT-0600 (Central Standard Time),457657.39999999106,bell,1000,O,z,z,None,824,623.0,201.0,15,1,2360.7000000029802,455296.6999999881,7735,kind,AF,A,451344,451344,449616,450627,449616,451977,451143,451143,451976,33
31,test,1,inc,1,m,Wed Mar 04 2026 14:47:54 GMT-0600 (Central Standard Time),459907.299999997,temper,1000,O,m,m,None,713,512.0,201.0,103,1,2245.5,457661.799999997,7735,jacket,AF,A,453711,453711,451981,452994,451981,454226,453509,453509,454226,34
32,test,1,con,1,m,Wed Mar 04 2026 14:47:54 GMT-0600 (Central Standard Time),462354.799999997,jacket,1000,O,m,m,None,908,707.0,201.0,99,1,2443.1000000089407,459911.6999999881,7735,jacket,AF,A,455959,455959,454231,455242,454231,456674,455758,455758,456674,35
33,test,1,con,1,m,Wed Mar 04 2026 14:47:54 GMT-0600 (Central Standard Time),464522.0,step,1000,O,m,m,None,634,434.0,200.0,67,1,2161.4000000059605,462360.59999999404,7735,step,AF,A,458407,458407,456680,457692,456680,458841,458207,458207,458841,36
34,test,1,con,1,m,Wed Mar 04 2026 14:47:54 GMT-0600 (Central Standard Time),466787.59999999404,window,900,O,m,m,None,829,629.0,200.0,122,1,2261.0,464526.59999999404,7735,window,AF,A,460474,460474,458846,459757,458846,461107,460273,460273,461107,37
35,test,1,inc,1,m,Wed Mar 04 2026 14:47:54 GMT-0600 (Central Standard Time),468920.1999999881,elated,800,O,m,m,None,797,598.0,199.0,101,1,2125.5,466794.6999999881,7735,jacket,AF,A,462640,462640,461114,461924,461114,463239,462440,462440,463239,38
36,test,1,inc,1,m,Wed Mar 04 2026 14:47:54 GMT-0600 (Central Standard Time),470986.5,brutal,900,O,m,m,None,629,430.0,199.0,102,1,2063.4000000059605,468923.09999999404,7735,jacket,AF,A,464872,464873,463242,464156,463242,465306,464673,464673,465306,39
37,test,1,inc,1,z,Wed Mar 04 2026 14:47:54 GMT-0600 (Central Standard Time),473168.299999997,bell,1000,O,z,z,None,664,448.0,216.0,47,1,2177.7000000029802,470990.59999999404,7735,hate,AF,A,467039,467039,465310,466321,465310,467487,466823,466823,467487,40
38,test,1,inc,1,m,Wed Mar 04 2026 14:47:54 GMT-0600 (Central Standard Time),475468.799999997,temper,1000,O,m,m,None,762,562.0,200.0,111,1,2296.4000000059605,473172.39999999106,7735,napkin,AF,A,469222,469222,467491,468504,467492,469788,469021,469021,469788,41
39,test,1,inc,1,m,Wed Mar 04 2026 14:47:54 GMT-0600 (Central Standard Time),478117.39999999106,elated,800,O,m,m,None,1310,1111.0,199.0,117,1,2644.0,475473.39999999106,7735,remote,AF,A,471320,471320,469792,470603,469793,472436,471120,471120,472436,42
40,test,1,con,1,z,Wed Mar 04 2026 14:47:54 GMT-0600 (Central Standard Time),480482.1999999881,elated,800,O,z,z,None,1020,821.0,199.0,1,1,2359.3999999910593,478122.799999997,7735,elated,AF,A,473969,473970,472442,473254,472442,474801,473770,473770,474801,43
41,test,1,con,1,z,Wed Mar 04 2026 14:47:54 GMT-0600 (Central Standard Time),482998.5,temper,1000,O,z,z,None,975,775.0,200.0,59,1,2510.9000000059605,480487.59999999404,7735,temper,AF,A,476536,476536,474807,475819,474807,477318,476335,476335,477317,44
42,test,1,con,1,m,Wed Mar 04 2026 14:47:54 GMT-0600 (Central Standard Time),485432.0,jacket,1100,O,m,m,None,799,584.0,215.0,100,1,2428.5,483003.5,7735,jacket,AF,A,479151,479151,477323,478434,477323,479751,478936,478936,479751,45
43,test,1,con,1,m,Wed Mar 04 2026 14:47:54 GMT-0600 (Central Standard Time),487464.39999999106,jacket,800,O,m,m,None,683,483.0,200.0,97,1,2024.2999999970198,485440.09999999404,7735,jacket,AF,A,481284,481284,479759,480567,479760,481783,481083,481083,481783,46
44,test,1,inc,1,m,Wed Mar 04 2026 14:47:54 GMT-0600 (Central Standard Time),489598.299999997,rage,800,O,m,m,None,787,587.0,200.0,69,1,2128.7000000029802,487469.59999999404,7735,step,AF,A,483316,483316,481789,482600,481789,483917,483116,483116,483917,47
45,test,1,inc,1,z,Wed Mar 04 2026 14:47:54 GMT-0600 (Central Standard Time),491779.09999999404,napkin,900,O,z,z,None,739,538.0,201.0,6,1,2174.4000000059605,489604.6999999881,7735,elated,AF,A,485549,485549,483924,484832,483924,486098,485348,485348,486098,48
46,test,1,inc,1,z,Wed Mar 04 2026 14:47:54 GMT-0600 (Central Standard Time),493911.6999999881,rock,900,O,z,z,None,690,490.0,200.0,14,1,2126.199999988079,491785.5,7735,kind,AF,A,487733,487733,486105,487015,486105,488231,487532,487532,488231,49
47,test,1,con,1,z,Wed Mar 04 2026 14:47:54 GMT-0600 (Central Standard Time),496328.1999999881,friend,1000,O,z,z,None,868,668.0,200.0,27,1,2410.7999999970198,493917.39999999106,7735,friend,AF,A,489964,489964,488236,489248,488237,490647,489764,489764,490647,50
48,test,1,inc,1,m,Wed Mar 04 2026 14:47:54 GMT-0600 (Central Standard Time),498793.5,hate,1100,O,m,m,None,831,630.0,201.0,72,1,2459.0,496334.5,7735,step,AF,A,492481,492481,490654,491764,490654,493113,492280,492280,493113,51
49,test,1,inc,1,z,Wed Mar 04 2026 14:47:54 GMT-0600 (Central Standard Time),501093.39999999106,window,1100,O,z,z,None,661,445.0,216.0,40,1,2293.8999999910593,498799.5,7735,brutal,AF,A,494962,494963,493119,494229,493119,495412,494746,494746,495412,52
50,test,1,con,1,z,Wed Mar 04 2026 14:47:54 GMT-0600 (Central Standard Time),503225.799999997,love,1000,O,z,z,None,588,389.0,199.0,19,1,2127.7999999970198,501098.0,7735,love,AF,A,497146,497146,495417,496429,495417,497545,496946,496946,497545,53
51,test,1,inc,1,m,Wed Mar 04 2026 14:47:54 GMT-0600 (Central Standard Time),505458.6999999881,brutal,900,O,m,m,None,789,589.0,200.0,110,1,2229.5,503229.1999999881,7735,napkin,AF,A,499179,499179,497548,498462,497548,499778,498978,498978,499778,54
52,test,1,inc,1,z,Wed Mar 04 2026 14:47:54 GMT-0600 (Central Standard Time),507391.799999997,jacket,800,O,z,z,None,598,384.0,214.0,37,1,1929.2999999970198,505462.5,7735,brutal,AF,A,501327,501327,499782,500595,499782,501711,501112,501112,501711,55
53,test,1,con,1,z,Wed Mar 04 2026 14:47:54 GMT-0600 (Central Standard Time),509856.89999999106,elated,1000,O,z,z,None,923,707.0,216.0,3,1,2462.0,507394.89999999106,7735,elated,AF,A,503461,503461,501714,502728,501714,504176,503244,503244,504176,56
54,test,1,con,1,z,Wed Mar 04 2026 14:47:54 GMT-0600 (Central Standard Time),511991.1999999881,brutal,1100,O,z,z,None,501,286.0,215.0,36,1,2129.199999988079,509862.0,7735,brutal,AF,A,506009,506009,504181,505293,504181,506310,505794,505794,506310,57
55,test,1,con,1,z,Wed Mar 04 2026 14:47:54 GMT-0600 (Central Standard Time),513988.5,kind,800,O,z,z,None,652,453.0,199.0,9,1,1991.1000000089407,511997.39999999106,7735,kind,AF,A,507842,507842,506316,507126,506317,508308,507643,507643,508307,58
56,test,1,con,1,z,Wed Mar 04 2026 14:47:54 GMT-0600 (Central Standard Time),516672.0,temper,1100,O,z,z,None,1032,833.0,199.0,60,1,2676.2000000029802,513995.799999997,7735,temper,AF,A,510142,510142,508315,509426,508315,510991,509942,509942,510991,59
57,test,1,con,1,m,Wed Mar 04 2026 14:47:54 GMT-0600 (Central Standard Time),518671.299999997,bell,800,O,m,m,None,651,451.0,200.0,81,1,1994.1000000089407,516677.1999999881,7735,bell,AF,A,512524,512524,510996,511808,510996,512990,512324,512324,512990,60
58,test,1,inc,1,z,Wed Mar 04 2026 14:47:54 GMT-0600 (Central Standard Time),520922.09999999404,bell,1000,O,z,z,None,717,517.0,200.0,23,1,2244.9000000059605,518677.1999999881,7735,love,AF,A,514724,514724,512996,514007,512997,515241,514524,514524,515241,61
59,test,1,inc,1,z,Wed Mar 04 2026 14:47:54 GMT-0600 (Central Standard Time),523186.299999997,film,1100,O,z,z,None,630,431.0,199.0,24,1,2259.1000000089407,520927.1999999881,7735,love,AF,A,517072,517072,515246,516356,515246,517505,516873,516873,517505,62
60,test,1,con,1,z,Wed Mar 04 2026 14:47:54 GMT-0600 (Central Standard Time),525769.599999994,rage,1100,O,z,z,None,949,734.0,215.0,52,1,2577.5,523192.09999999404,7735,rage,AF,A,519354,519354,517511,518622,517511,520089,519139,519139,520089,63
61,test,1,con,1,m,Wed Mar 04 2026 14:47:54 GMT-0600 (Central Standard Time),528285.0,bell,900,O,m,m,None,1094,895.0,199.0,82,1,2509.2000000029802,525775.799999997,7735,bell,AF,A,521704,521704,520095,521004,520095,522604,521505,521505,522604,64
62,test,1,inc,1,m,Wed Mar 04 2026 14:47:54 GMT-0600 (Central Standard Time),530350.3999999911,rage,800,O,m,m,None,743,542.0,201.0,85,1,2060.3999999910593,528290.0,7735,bell,AF,A,524121,524121,522609,523419,522609,524669,523920,523920,524669,65
63,test,1,inc,1,z,Wed Mar 04 2026 14:47:54 GMT-0600 (Central Standard Time),532434.299999997,napkin,900,O,z,z,None,663,464.0,199.0,62,1,2081.1000000089407,530353.1999999881,7735,temper,AF,A,526287,526287,524672,525586,524672,526753,526087,526087,526753,66
64,test,1,inc,1,z,Wed Mar 04 2026 14:47:54 GMT-0600 (Central Standard Time),534882.5,window,1100,O,z,z,None,812,612.0,200.0,32,1,2442.7000000029802,532439.799999997,7735,friend,AF,A,528587,528587,526759,527869,526759,529202,528386,528386,529202,67
65,test,1,inc,1,m,Wed Mar 04 2026 14:47:54 GMT-0600 (Central Standard Time),536898.099999994,kind,900,O,m,m,None,572,372.0,200.0,86,1,2009.4000000059605,534888.6999999881,7735,bell,AF,A,530835,530835,529208,530119,529208,531217,530635,530635,531217,68
66,test,1,inc,1,z,Wed Mar 04 2026 14:47:54 GMT-0600 (Central Standard Time),539115.799999997,film,1100,O,z,z,None,572,372.0,200.0,56,1,2213.0,536902.799999997,7735,rage,AF,A,533051,533051,531222,532335,531222,533435,532851,532851,533435,69
67,test,1,inc,1,m,Wed Mar 04 2026 14:47:54 GMT-0600 (Central Standard Time),541380.3999999911,love,1000,O,m,m,None,720,520.0,200.0,95,1,2261.7999999970198,539118.599999994,7735,film,AF,A,535167,535167,533438,534449,533438,535699,534967,534967,535699,70
68,test,1,con,1,z,Wed Mar 04 2026 14:47:54 GMT-0600 (Central Standard Time),543796.099999994,friend,1100,O,z,z,None,771,570.0,201.0,28,1,2409.5,541386.599999994,7735,friend,AF,A,537533,537533,535706,536817,535706,538115,537332,537332,538115,71
69,test,1,con,1,m,Wed Mar 04 2026 14:47:54 GMT-0600 (Central Standard Time),546378.0,napkin,1000,O,m,m,None,1063,848.0,215.0,107,1,2576.800000011921,543801.1999999881,7735,napkin,AF,A,539848,539849,538120,539132,538121,540697,539633,539633,540697,72
70,test,1,inc,1,z,Wed Mar 04 2026 14:47:54 GMT-0600 (Central Standard Time),548778.599999994,film,1100,O,z,z,None,772,573.0,199.0,16,1,2396.9000000059605,546381.6999999881,7735,kind,AF,A,542514,542514,540701,541814,540701,543098,542315,542315,543098,73
71,test,1,con,1,m,Wed Mar 04 2026 14:47:54 GMT-0600 (Central Standard Time),550727.099999994,step,800,O,m,m,None,599,399.0,200.0,65,1,1944.7999999970198,548782.299999997,7735,step,AF,A,544632,544632,543101,543914,543102,545046,544431,544431,545046,74
72,test,1,inc,1,m,Wed Mar 04 2026 14:47:54 GMT-0600 (Central Standard Time),552909.1999999881,brutal,900,O,m,m,None,742,542.0,200.0,126,1,2177.5999999940395,550731.599999994,7735,window,AF,A,546681,546681,545051,545964,545051,547228,546480,546480,547228,75
73,test,1,inc,1,z,Wed Mar 04 2026 14:47:54 GMT-0600 (Central Standard Time),554909.3999999911,step,800,O,z,z,None,660,460.0,200.0,45,1,1995.7000000029802,552913.6999999881,7735,hate,AF,A,548763,548763,547233,548046,547233,549228,548562,548562,549228,76
74,test,1,con,1,z,Wed Mar 04 2026 14:47:54 GMT-0600 (Central Standard Time),557008.599999994,brutal,900,O,z,z,None,664,449.0,215.0,34,1,2095.0,554913.599999994,7735,brutal,AF,A,550878,550878,549233,550145,549233,551328,550662,550663,551328,77
75,test,1,inc,1,m,Wed Mar 04 2026 14:47:54 GMT-0600 (Central Standard Time),559391.599999994,hate,1100,O,m,m,None,733,533.0,200.0,80,1,2376.2999999970198,557015.299999997,7735,rock,AF,A,553162,553162,551334,552446,551335,553711,552962,552962,553711,78
76,test,1,inc,1,m,Wed Mar 04 2026 14:47:54 GMT-0600 (Central Standard Time),561424.5,rage,800,O,m,m,None,685,484.0,201.0,93,1,2026.7000000029802,559397.799999997,7735,film,AF,A,555244,555244,553717,554528,553717,555744,555043,555043,555744,79
76,test,1,con,0,m,Wed Mar 04 2026 14:47:54 GMT-0600 (Central Standard Time),563873.1999999881,remote,900,O,z,z,None,1006,806.0,200.0,114,1,2443.7999999970198,561429.3999999911,7735,remote,AF,A,557377,557377,555748,556660,555749,558192,557177,557177,558192,80
77,test,1,inc,1,m,Wed Mar 04 2026 14:47:54 GMT-0600 (Central Standard Time),565922.599999994,rage,800,O,m,m,None,732,533.0,199.0,77,1,2043.2000000029802,563879.3999999911,7735,rock,AF,A,559708,559708,558198,559008,558199,560242,559509,559509,560242,81
78,test,1,con,1,z,Wed Mar 04 2026 14:47:54 GMT-0600 (Central Standard Time),568089.299999997,brutal,1000,O,z,z,None,623,423.0,200.0,35,1,2159.7999999970198,565929.5,7735,brutal,AF,A,561976,561976,560249,561259,560249,562408,561775,561775,562408,82
78,test,1,con,0,m,Wed Mar 04 2026 14:47:54 GMT-0600 (Central Standard Time),570338.0,remote,1100,O,z,z,None,616,415.0,201.0,116,1,2245.7000000029802,568092.299999997,7735,remote,AF,A,564242,564242,562411,563524,562411,564657,564040,564040,564657,83
79,test,1,inc,1,z,Wed Mar 04 2026 14:47:54 GMT-0600 (Central Standard Time),572770.8999999911,remote,1000,O,z,z,None,888,688.0,200.0,39,1,2426.0999999940395,570344.799999997,7735,brutal,AF,A,566391,566391,564664,565674,564664,567090,566190,566190,567090,84
80,test,1,con,1,z,Wed Mar 04 2026 14:47:54 GMT-0600 (Central Standard Time),574919.5,love,900,O,z,z,None,709,509.0,200.0,18,1,2144.300000011921,572775.1999999881,7735,love,AF,A,568723,568723,567094,568006,567094,569239,568522,568522,569239,85
80,test,1,con,0,z,Wed Mar 04 2026 14:47:54 GMT-0600 (Central Standard Time),577784.799999997,friend,900,O,m,m,None,1439,1239.0,200.0,26,1,2861.2999999970198,574923.5,7735,friend,AF,A,570856,570856,569243,570155,569243,572104,570656,570656,572104,86
81,test,1,inc,1,z,Wed Mar 04 2026 14:47:54 GMT-0600 (Central Standard Time),580001.5,rock,900,O,z,z,None,782,582.0,200.0,46,1,2211.300000011921,577790.1999999881,7735,hate,AF,A,573737,573737,572109,573021,572109,574321,573537,573537,574321,87
82,test,1,inc,1,m,Wed Mar 04 2026 14:47:54 GMT-0600 (Central Standard Time),582550.099999994,hate,1100,O,m,m,None,902,701.0,201.0,96,1,2543.0,580007.099999994,7735,film,AF,A,576154,576154,574326,575438,574326,576869,575953,575953,576869,88
83,test,1,con,1,m,Wed Mar 04 2026 14:47:54 GMT-0600 (Central Standard Time),585367.1999999881,step,1100,O,m,m,None,1168,968.0,200.0,68,1,2812.0999999940395,582555.099999994,7735,step,AF,A,578703,578703,576874,577986,576874,579686,578503,578503,579686,89
84,test,1,inc,1,z,Wed Mar 04 2026 14:47:54 GMT-0600 (Central Standard Time),587649.3999999911,remote,1000,O,z,z,None,740,541.0,199.0,7,1,2275.7999999970198,585373.599999994,7735,elated,AF,A,581418,581418,579693,580703,579693,581968,581218,581219,581968,90
85,test,1,inc,1,z,Wed Mar 04 2026 14:47:54 GMT-0600 (Central Standard Time),590080.099999994,window,1100,O,z,z,None,789,587.0,202.0,64,1,2425.0999999940395,587655.0,7735,temper,AF,A,583803,583803,581974,583084,581974,584399,583601,583601,584399,91
86,test,1,inc,1,m,Wed Mar 04 2026 14:47:54 GMT-0600 (Central Standard Time),592413.5,hate,1100,O,m,m,None,694,494.0,200.0,88,1,2328.9000000059605,590084.599999994,7735,bell,AF,A,586233,586233,584404,585519,584404,586733,586033,586033,586733,92
87,test,1,inc,1,m,Wed Mar 04 2026 14:47:54 GMT-0600 (Central Standard Time),594499.799999997,kind,900,O,m,m,None,652,450.0,202.0,78,1,2083.4000000059605,592416.3999999911,7735,rock,AF,A,588369,588369,586735,587652,586736,588819,588167,588167,588819,93
87,test,1,inc,0,m,Wed Mar 04 2026 14:47:54 GMT-0600 (Central Standard Time),596662.5,elated,800,O,z,z,None,826,626.0,200.0,125,1,2157.1000000089407,594505.3999999911,7735,window,AF,A,590349,590350,588824,589633,588825,590982,590149,590149,590982,94
88,test,1,inc,1,m,Wed Mar 04 2026 14:47:54 GMT-0600 (Central Standard Time),598795.099999994,kind,900,O,m,m,None,704,504.0,200.0,70,1,2128.0999999940395,596667.0,7735,step,AF,A,592599,592599,590986,591898,590986,593114,592399,592399,593114,95
89,test,1,inc,1,m,Wed Mar 04 2026 14:47:54 GMT-0600 (Central Standard Time),602129.3999999911,friend,1100,O,m,m,None,1698,1484.0,214.0,120,1,3329.0999999940395,598800.299999997,7735,remote,AF,A,594964,594964,593119,594232,593120,596448,594750,594750,596448,96
90,test,1,inc,1,m,Wed Mar 04 2026 14:47:54 GMT-0600 (Central Standard Time),604461.299999997,elated,800,O,m,m,None,994,795.0,199.0,109,1,2327.2999999970198,602134.0,7735,napkin,AF,A,597980,597980,596453,597264,596453,598780,597780,597780,598780,97
91,test,1,con,1,z,Wed Mar 04 2026 14:47:54 GMT-0600 (Central Standard Time),607042.6999999881,elated,900,O,z,z,None,1154,941.0,213.0,2,1,2577.0999999940395,604465.599999994,7735,elated,AF,A,600411,600411,598785,599696,598785,601362,600198,600198,601362,98
92,test,1,con,1,m,Wed Mar 04 2026 14:47:54 GMT-0600 (Central Standard Time),609175.0,film,900,O,m,m,None,691,492.0,199.0,90,1,2127.9000000059605,607047.099999994,7735,film,AF,A,602995,602995,601366,602278,601367,603494,602795,602795,603494,99
93,test,1,con,1,m,Wed Mar 04 2026 14:47:54 GMT-0600 (Central Standard Time),611556.1999999881,remote,1000,O,m,m,None,849,634.0,215.0,115,1,2375.2999999970198,609180.8999999911,7735,remote,AF,A,605228,605228,603500,604511,603500,605875,605013,605013,605875,100
94,test,1,con,1,z,Wed Mar 04 2026 14:47:54 GMT-0600 (Central Standard Time),614506.299999997,kind,1000,O,z,z,None,1413,1212.0,201.0,11,1,2947.2999999970198,611559.0,7735,kind,AF,A,607611,607611,605878,606894,605878,608825,607410,607410,608825,101
94,test,1,inc,0,m,Wed Mar 04 2026 14:47:54 GMT-0600 (Central Standard Time),618038.6999999881,temper,1000,O,None,None,None,1799,1799.0,201.0,119,1,3526.699999988079,614512.0,7735,remote,AF,A,610559,610559,608831,609844,608831,612358,610358,610358,612358,102
95,test,1,con,1,z,Wed Mar 04 2026 14:47:54 GMT-0600 (Central Standard Time),620455.099999994,kind,1100,O,z,z,None,774,575.0,199.0,12,1,2411.0999999940395,618044.0,7735,kind,AF,A,614192,614192,612363,613476,612363,614774,613992,613992,614774,103
96,test,1,inc,1,m,Wed Mar 04 2026 14:47:54 GMT-0600 (Central Standard Time),622803.6999999881,friend,1100,O,m,m,None,712,512.0,200.0,128,1,2344.199999988079,620459.5,7735,window,AF,A,616608,616608,614779,615891,614779,617123,616407,616407,617123,104
97,test,1,inc,1,z,Wed Mar 04 2026 14:47:54 GMT-0600 (Central Standard Time),625253.599999994,film,1100,O,z,z,None,810,595.0,215.0,48,1,2445.9000000059605,622807.6999999881,7735,hate,AF,A,618972,618972,617127,618240,617127,619573,618757,618757,619573,105
98,test,1,inc,1,z,Wed Mar 04 2026 14:47:54 GMT-0600 (Central Standard Time),628219.3999999911,remote,1000,O,z,z,None,1420,1221.0,199.0,31,1,2959.7000000029802,625259.6999999881,7735,friend,AF,A,621306,621306,619579,620590,619579,622538,621106,621106,622538,106
99,test,1,inc,1,z,Wed Mar 04 2026 14:47:54 GMT-0600 (Central Standard Time),630619.1999999881,bell,1000,O,z,z,None,855,654.0,201.0,55,1,2396.699999988079,628222.5,7735,rage,AF,A,624273,624273,622541,623555,622542,624938,624071,624071,624938,107
100,test,1,con,1,m,Wed Mar 04 2026 14:47:54 GMT-0600 (Central Standard Time),632919.299999997,napkin,800,O,m,m,None,951,736.0,215.0,105,1,2295.7000000029802,630623.599999994,7735,napkin,AF,A,626487,626487,624943,625755,624943,627238,626271,626272,627238,108
101,test,1,con,1,z,Wed Mar 04 2026 14:47:54 GMT-0600 (Central Standard Time),635467.099999994,rage,900,O,z,z,None,1121,921.0,200.0,50,1,2543.0,632924.099999994,7735,rage,AF,A,628854,628854,627243,628153,627244,629786,628654,628654,629786,109
102,test,1,con,1,m,Wed Mar 04 2026 14:47:54 GMT-0600 (Central Standard Time),637599.3999999911,napkin,900,O,m,m,None,684,484.0,200.0,106,1,2127.2000000029802,635472.1999999881,7735,napkin,AF,A,631420,631420,629791,630703,629792,631919,631220,631220,631918,110
103,test,1,con,1,z,Wed Mar 04 2026 14:47:54 GMT-0600 (Central Standard Time),639865.599999994,hate,1000,O,z,z,None,722,520.0,202.0,43,1,2259.5999999940395,637606.0,7735,hate,AF,A,633654,633655,631925,632935,631925,634185,633452,633452,634185,111
104,test,1,con,1,m,Wed Mar 04 2026 14:47:54 GMT-0600 (Central Standard Time),642131.799999997,napkin,1100,O,m,m,None,621,421.0,200.0,108,1,2260.7999999970198,639871.0,7735,napkin,AF,A,636019,636019,634190,635303,634190,636451,635818,635818,636451,112
105,test,1,con,1,m,Wed Mar 04 2026 14:47:54 GMT-0600 (Central Standard Time),644248.0,remote,800,O,m,m,None,781,582.0,199.0,113,1,2110.7000000029802,642137.299999997,7735,remote,AF,A,637984,637985,636456,637268,636457,638567,637785,637785,638567,113
106,test,1,inc,1,z,Wed Mar 04 2026 14:47:54 GMT-0600 (Central Standard Time),647011.299999997,napkin,900,O,z,z,None,1325,1125.0,200.0,30,1,2759.0,644252.299999997,7735,friend,AF,A,640201,640201,638571,639486,638572,641330,640000,640000,641330,114
107,test,1,inc,1,z,Wed Mar 04 2026 14:47:54 GMT-0600 (Central Standard Time),649630.1999999881,rock,900,O,z,z,None,1175,961.0,214.0,54,1,2616.199999988079,647014.0,7735,rage,AF,A,642982,642982,641333,642250,641333,643949,642768,642768,643949,115
108,test,1,con,1,z,Wed Mar 04 2026 14:47:54 GMT-0600 (Central Standard Time),651594.5,friend,800,O,z,z,None,644,439.0,205.0,25,1,1960.6000000089407,649633.8999999911,7735,friend,AF,A,645472,645472,643953,644765,643953,645914,645267,645267,645914,116
109,test,1,inc,1,m,Wed Mar 04 2026 14:47:54 GMT-0600 (Central Standard Time),653811.8999999911,temper,1000,O,m,m,None,673,472.0,201.0,127,1,2214.0,651597.8999999911,7735,window,AF,A,647647,647647,645917,646931,645917,648131,647446,647446,648131,117
110,test,1,inc,1,z,Wed Mar 04 2026 14:47:54 GMT-0600 (Central Standard Time),655928.1999999881,napkin,900,O,z,z,None,666,452.0,214.0,38,1,2112.8999999910593,653815.299999997,7735,brutal,AF,A,649780,649780,648134,649047,648135,650247,649565,649565,650247,118
111,test,1,inc,1,m,Wed Mar 04 2026 14:47:54 GMT-0600 (Central Standard Time),658225.599999994,love,1000,O,m,m,None,780,580.0,200.0,87,1,2294.4000000059605,655931.1999999881,7735,bell,AF,A,651962,651962,650250,651261,650250,652545,651762,651762,652545,119
112,test,1,inc,1,z,Wed Mar 04 2026 14:47:54 GMT-0600 (Central Standard Time),660442.299999997,rock,900,O,z,z,None,772,573.0,199.0,22,1,2213.6000000089407,658228.6999999881,7735,love,AF,A,654178,654178,652548,653463,652548,654761,653979,653979,654761,120
113,test,1,inc,1,z,Wed Mar 04 2026 14:47:54 GMT-0600 (Central Standard Time),662507.6999999881,step,800,O,z,z,None,734,519.0,215.0,13,1,2061.3999999910593,660446.299999997,7735,kind,AF,A,656295,656295,654765,655577,654766,656827,656080,656080,656827,121
114,test,1,con,1,z,Wed Mar 04 2026 14:47:54 GMT-0600 (Central Standard Time),664875.099999994,hate,1100,O,z,z,None,730,530.0,200.0,44,1,2362.5,662512.599999994,7735,hate,AF,A,658661,658661,656832,657946,656832,659194,658461,658461,659194,122
115,test,1,con,1,z,Wed Mar 04 2026 14:47:54 GMT-0600 (Central Standard Time),666923.8999999911,rage,1000,O,z,z,None,520,320.0,200.0,51,1,2043.0999999940395,664880.799999997,7735,rage,AF,A,660911,660911,659200,660210,659200,661243,660711,660711,661243,123
116,test,1,con,1,m,Wed Mar 04 2026 14:47:54 GMT-0600 (Central Standard Time),669073.599999994,film,1100,O,m,m,None,507,308.0,199.0,92,1,2145.4000000059605,666928.1999999881,7735,film,AF,A,663076,663076,661247,662359,661247,663393,662877,662877,663393,124
117,test,1,con,1,z,Wed Mar 04 2026 14:47:54 GMT-0600 (Central Standard Time),671172.299999997,temper,800,O,z,z,None,768,551.0,217.0,57,1,2095.2999999970198,669077.0,7735,temper,AF,A,664928,664928,663396,664208,663396,665491,664710,664710,665491,125
118,test,1,inc,1,m,Wed Mar 04 2026 14:47:54 GMT-0600 (Central Standard Time),673305.299999997,love,1000,O,m,m,None,605,389.0,216.0,79,1,2128.2999999970198,671177.0,7735,rock,AF,A,667226,667226,665496,666506,665496,667624,667009,667009,667624,126
119,test,1,con,1,m,Wed Mar 04 2026 14:47:54 GMT-0600 (Central Standard Time),675421.1999999881,step,900,O,m,m,None,681,469.0,212.0,66,1,2110.199999988079,673311.0,7735,step,AF,A,669258,669258,667630,668542,667630,669740,669046,669046,669740,127
120,test,1,con,1,m,Wed Mar 04 2026 14:47:54 GMT-0600 (Central Standard Time),677621.799999997,window,1000,O,m,m,None,653,454.0,199.0,123,1,2194.0,675427.799999997,7735,window,AF,A,671473,671473,669747,670757,669747,671941,671274,671274,671941,128
