Q,Q1,Q2,Q3,Q4,acc_sum,block,block_c,correct,correct_response,datetime,endtime,project,response,response_time,row_sel,session_number,squiggle1,squiggle1x,squiggle1y,squiggle2,squiggle2x,squiggle2y,squiggle3,squiggle3x,squiggle3y,squiggle4,squiggle4x,squiggle4y,start_end,starttime,subject_id,target_congruent,task,task_vers,testsquiggle,testsquigglex,testsquiggley,time_practice_delay,time_practice_fixation,time_practice_stimuli,time_practice_study,time_test_delay,time_test_fixation,time_test_stimuli,time_test_study,trial
1,1,0,0,0,0,prac,1,0,z,Mon Sep 22 2025 16:41:54 GMT-0500 (Central Daylight Time),191713.79999995232,O,None,2015,1,1,116.bmp,-120,-120,117.bmp,120,-120,118.bmp,-120,120,119.bmp,120,120,10823.799999952316,180890.0,7700,yes,SM,A,116.bmp,-120,-120,176177,170152,178193,172163,,,,,1
3,0,0,1,0,1,prac,1,1,m,Mon Sep 22 2025 16:41:54 GMT-0500 (Central Daylight Time),202260.09999990463,O,m,1742,2,1,120.bmp,-120,-120,121.bmp,120,-120,122.bmp,-120,120,123.bmp,120,120,10543.399999856949,191716.70000004768,7700,no,SM,A,123.bmp,-120,120,187006,180979,189008,182993,,,,,2
4,0,0,0,1,2,prac,1,1,m,Mon Sep 22 2025 16:41:54 GMT-0500 (Central Daylight Time),212808.20000004768,O,m,1756,3,1,124.bmp,-120,-120,125.bmp,120,-120,126.bmp,-120,120,127.bmp,120,120,10542.299999952316,202265.90000009537,7700,no,SM,A,124.bmp,120,120,197553,191528,199554,193538,,,,,3
2,0,1,0,0,2,prac,1,0,z,Mon Sep 22 2025 16:41:54 GMT-0500 (Central Daylight Time),223638.29999995232,O,None,2015,4,1,128.bmp,-120,-120,129.bmp,120,-120,130.bmp,-120,120,131.bmp,120,120,10825.899999856949,212812.40000009537,7700,yes,SM,A,129.bmp,120,-120,208102,202075,210118,204087,,,,,4
3,0,0,1,0,2,prac,1,0,z,Mon Sep 22 2025 16:41:54 GMT-0500 (Central Daylight Time),234268.09999990463,O,m,1804,5,1,132.bmp,-120,-120,133.bmp,120,-120,134.bmp,-120,120,135.bmp,120,120,10624.199999809265,223643.90000009537,7700,yes,SM,A,134.bmp,-120,120,218931,212906,220948,214917,,,,,5
1,1,0,0,0,3,prac,1,1,m,Mon Sep 22 2025 16:41:54 GMT-0500 (Central Daylight Time),244698.59999990463,O,m,1631,6,1,136.bmp,-120,-120,137.bmp,120,-120,138.bmp,-120,120,139.bmp,120,120,10425.399999856949,234273.20000004768,7700,no,SM,A,139.bmp,-120,-120,229560,223535,231562,225546,,,,,6
2,0,1,0,0,4,prac,1,1,m,Mon Sep 22 2025 16:41:54 GMT-0500 (Central Daylight Time),255094.09999990463,O,m,1577,7,1,140.bmp,-120,-120,141.bmp,120,-120,142.bmp,-120,120,143.bmp,120,120,10391.199999809265,244702.90000009537,7700,no,SM,A,140.bmp,120,-120,239990,233965,242006,235975,,,,,7
4,0,0,0,1,4,prac,1,0,z,Mon Sep 22 2025 16:41:54 GMT-0500 (Central Daylight Time),265905.7999999523,O,None,2001,8,1,144.bmp,-120,-120,145.bmp,120,-120,146.bmp,-120,120,147.bmp,120,120,10803.299999952316,255102.5,7700,yes,SM,A,147.bmp,120,120,250387,244365,252404,246372,,,,,8
4,0,0,0,1,1,test,1,1,m,Mon Sep 22 2025 16:41:54 GMT-0500 (Central Daylight Time),300996.40000009537,O,m,1366,1,1,148.bmp,-120,-120,149.bmp,120,-120,150.bmp,-120,120,143.bmp,120,120,9407.900000095367,291588.5,7700,no,SM,A,150.bmp,120,120,250387,244365,252404,246372,286877.0,280851.0,288892.0,282862.0,1
2,0,1,0,0,2,test,1,1,m,Mon Sep 22 2025 16:41:54 GMT-0500 (Central Daylight Time),310227.90000009537,O,m,1199,2,1,101.bmp,-120,-120,102.bmp,120,-120,103.bmp,-120,120,104.bmp,120,120,9227.700000047684,301000.2000000477,7700,no,SM,A,103.bmp,120,-120,250387,244365,252404,246372,296289.0,290262.0,298290.0,292274.0,2
1,1,0,0,0,3,test,1,1,z,Mon Sep 22 2025 16:41:54 GMT-0500 (Central Daylight Time),320240.2000000477,O,z,1950,3,1,105.bmp,-120,-120,106.bmp,120,-120,107.bmp,-120,120,108.bmp,120,120,10008.0,310232.2000000477,7700,yes,SM,A,105.bmp,-120,-120,250387,244365,252404,246372,305521.0,299494.0,307536.0,301510.0,3
3,0,0,1,0,3,test,1,0,m,Mon Sep 22 2025 16:41:54 GMT-0500 (Central Daylight Time),330303.0,O,None,2015,4,1,109.bmp,-120,-120,110.bmp,120,-120,111.bmp,-120,120,112.bmp,120,120,10057.900000095367,320245.09999990463,7700,no,SM,A,109.bmp,-120,120,250387,244365,252404,246372,315534.0,309507.0,317550.0,311519.0,4
2,0,1,0,0,3,test,1,0,z,Mon Sep 22 2025 16:41:54 GMT-0500 (Central Daylight Time),339549.7999999523,O,m,1186,5,1,113.bmp,-120,-120,114.bmp,120,-120,115.bmp,-120,120,116.bmp,120,120,9240.700000047684,330309.09999990463,7700,yes,SM,A,114.bmp,120,-120,250387,244365,252404,246372,325598.0,319571.0,327614.0,321582.0,5
3,0,0,1,0,4,test,1,1,z,Mon Sep 22 2025 16:41:54 GMT-0500 (Central Daylight Time),349014.0,O,z,1403,6,1,117.bmp,-120,-120,118.bmp,120,-120,119.bmp,-120,120,120.bmp,120,120,9460.599999904633,339553.40000009537,7700,yes,SM,A,119.bmp,-120,120,250387,244365,252404,246372,334845.0,328816.0,336860.0,330829.0,6
4,0,0,0,1,5,test,1,1,z,Mon Sep 22 2025 16:41:54 GMT-0500 (Central Daylight Time),358545.2000000477,O,z,1483,7,1,121.bmp,-120,-120,122.bmp,120,-120,123.bmp,-120,120,124.bmp,120,120,9527.0,349018.2000000477,7700,yes,SM,A,124.bmp,120,120,250387,244365,252404,246372,344308.0,338281.0,346324.0,340293.0,7
2,0,1,0,0,6,test,1,1,m,Mon Sep 22 2025 16:41:54 GMT-0500 (Central Daylight Time),368007.0,O,m,1400,8,1,125.bmp,-120,-120,126.bmp,120,-120,127.bmp,-120,120,128.bmp,120,120,9458.200000047684,358548.7999999523,7700,no,SM,A,125.bmp,120,-120,250387,244365,252404,246372,353839.0,347811.0,355855.0,349823.0,8
3,0,0,1,0,7,test,1,1,m,Mon Sep 22 2025 16:41:54 GMT-0500 (Central Daylight Time),378004.7999999523,O,m,1946,9,1,129.bmp,-120,-120,130.bmp,120,-120,131.bmp,-120,120,132.bmp,120,120,9991.599999904633,368013.2000000477,7700,no,SM,A,130.bmp,-120,120,250387,244365,252404,246372,363301.0,357275.0,365317.0,359286.0,9
4,0,0,0,1,8,test,1,1,z,Mon Sep 22 2025 16:41:54 GMT-0500 (Central Daylight Time),387850.5,O,z,1789,10,1,137.bmp,-120,-120,138.bmp,120,-120,139.bmp,-120,120,140.bmp,120,120,9843.099999904633,378007.40000009537,7700,yes,SM,A,140.bmp,120,120,250387,244365,252404,246372,373298.0,367270.0,375314.0,369283.0,10
3,0,0,1,0,8,test,1,0,z,Mon Sep 22 2025 16:41:54 GMT-0500 (Central Daylight Time),397914.7999999523,O,None,2015,11,1,133.bmp,-120,-120,134.bmp,120,-120,135.bmp,-120,120,136.bmp,120,120,10057.299999952316,387857.5,7700,yes,SM,A,135.bmp,-120,120,250387,244365,252404,246372,383147.0,377120.0,385162.0,379131.0,11
2,0,1,0,0,9,test,1,1,m,Mon Sep 22 2025 16:41:54 GMT-0500 (Central Daylight Time),407277.0,O,m,1311,12,1,141.bmp,-120,-120,142.bmp,120,-120,143.bmp,-120,120,144.bmp,120,120,9357.400000095367,397919.59999990463,7700,no,SM,A,141.bmp,120,-120,250387,244365,252404,246372,393209.0,387182.0,395224.0,389194.0,12
3,0,0,1,0,10,test,1,1,m,Mon Sep 22 2025 16:41:54 GMT-0500 (Central Daylight Time),416509.5,O,m,1170,13,1,145.bmp,-120,-120,146.bmp,120,-120,147.bmp,-120,120,148.bmp,120,120,9228.700000047684,407280.7999999523,7700,no,SM,A,146.bmp,-120,120,250387,244365,252404,246372,402573.0,396543.0,404590.0,398559.0,13
1,1,0,0,0,11,test,1,1,z,Mon Sep 22 2025 16:41:54 GMT-0500 (Central Daylight Time),426123.09999990463,O,z,1557,14,1,149.bmp,-120,-120,150.bmp,120,-120,104.bmp,-120,120,101.bmp,120,120,9609.399999856949,416513.7000000477,7700,yes,SM,A,149.bmp,-120,-120,250387,244365,252404,246372,411802.0,405776.0,413819.0,407786.0,14
4,0,0,0,1,11,test,1,0,m,Mon Sep 22 2025 16:41:54 GMT-0500 (Central Daylight Time),436186.2999999523,O,None,2015,15,1,110.bmp,-120,-120,111.bmp,120,-120,112.bmp,-120,120,113.bmp,120,120,10059.0,426127.2999999523,7700,no,SM,A,111.bmp,120,120,250387,244365,252404,246372,421417.0,415390.0,423433.0,417401.0,15
1,1,0,0,0,12,test,1,1,m,Mon Sep 22 2025 16:41:54 GMT-0500 (Central Daylight Time),445516.2000000477,O,m,1270,16,1,102.bmp,-120,-120,103.bmp,120,-120,104.bmp,-120,120,105.bmp,120,120,9326.0,436190.2000000477,7700,no,SM,A,105.bmp,-120,-120,250387,244365,252404,246372,431481.0,425452.0,433497.0,427466.0,16
3,0,0,1,0,12,test,1,0,m,Mon Sep 22 2025 16:41:54 GMT-0500 (Central Daylight Time),455080.0,O,z,1509,17,1,122.bmp,-120,-120,123.bmp,120,-120,124.bmp,-120,120,125.bmp,120,120,9553.900000095367,445526.09999990463,7700,no,SM,A,122.bmp,-120,120,250387,244365,252404,246372,440810.0,434788.0,442828.0,436795.0,17
1,1,0,0,0,12,test,1,0,z,Mon Sep 22 2025 16:41:54 GMT-0500 (Central Daylight Time),465127.7999999523,O,None,2001,18,1,106.bmp,-120,-120,107.bmp,120,-120,108.bmp,-120,120,109.bmp,120,120,10043.899999856949,455083.90000009537,7700,yes,SM,A,106.bmp,-120,-120,250387,244365,252404,246372,450373.0,444346.0,452389.0,446358.0,18
2,0,1,0,0,13,test,1,1,z,Mon Sep 22 2025 16:41:54 GMT-0500 (Central Daylight Time),474857.5,O,z,1675,19,1,126.bmp,-120,-120,127.bmp,120,-120,128.bmp,-120,120,129.bmp,120,120,9724.200000047684,465133.2999999523,7700,yes,SM,A,127.bmp,120,-120,250387,244365,252404,246372,460420.0,454396.0,462437.0,456404.0,19
3,0,0,1,0,14,test,1,1,z,Mon Sep 22 2025 16:41:54 GMT-0500 (Central Daylight Time),484454.2999999523,O,z,1537,20,1,130.bmp,-120,-120,131.bmp,120,-120,132.bmp,-120,120,133.bmp,120,120,9592.899999856949,474861.40000009537,7700,yes,SM,A,132.bmp,-120,120,250387,244365,252404,246372,470151.0,464124.0,472166.0,466136.0,20
1,1,0,0,0,15,test,1,1,m,Mon Sep 22 2025 16:41:54 GMT-0500 (Central Daylight Time),494417.0,O,m,1914,21,1,114.bmp,-120,-120,115.bmp,120,-120,116.bmp,-120,120,117.bmp,120,120,9957.700000047684,484459.2999999523,7700,no,SM,A,116.bmp,-120,-120,250387,244365,252404,246372,479748.0,473722.0,481749.0,475734.0,21
4,0,0,0,1,16,test,1,1,z,Mon Sep 22 2025 16:41:54 GMT-0500 (Central Daylight Time),504048.2000000477,O,z,1585,22,1,118.bmp,-120,-120,119.bmp,120,-120,120.bmp,-120,120,121.bmp,120,120,9625.299999952316,494422.90000009537,7700,yes,SM,A,121.bmp,120,120,250387,244365,252404,246372,489696.0,483685.0,491710.0,485695.0,22
1,1,0,0,0,17,test,1,1,m,Mon Sep 22 2025 16:41:54 GMT-0500 (Central Daylight Time),513677.90000009537,O,m,1577,23,1,134.bmp,-120,-120,135.bmp,120,-120,136.bmp,-120,120,137.bmp,120,120,9625.400000095367,504052.5,7700,no,SM,A,137.bmp,-120,-120,250387,244365,252404,246372,499341.0,493315.0,501357.0,495326.0,23
2,0,1,0,0,18,test,1,1,z,Mon Sep 22 2025 16:41:54 GMT-0500 (Central Daylight Time),523424.5,O,z,1699,24,1,142.bmp,-120,-120,143.bmp,120,-120,144.bmp,-120,120,145.bmp,120,120,9743.5,513681.0,7700,yes,SM,A,143.bmp,120,-120,250387,244365,252404,246372,508972.0,502943.0,510987.0,504956.0,24
4,0,0,0,1,19,test,1,1,m,Mon Sep 22 2025 16:41:54 GMT-0500 (Central Daylight Time),533055.2999999523,O,m,1585,25,1,146.bmp,-120,-120,147.bmp,120,-120,148.bmp,-120,120,149.bmp,120,120,9628.700000047684,523426.59999990463,7700,no,SM,A,148.bmp,120,120,250387,244365,252404,246372,518717.0,512689.0,520718.0,514707.0,25
1,1,0,0,0,20,test,1,1,z,Mon Sep 22 2025 16:41:54 GMT-0500 (Central Daylight Time),542135.9000000954,O,z,1018,26,1,138.bmp,-120,-120,139.bmp,120,-120,140.bmp,-120,120,141.bmp,120,120,9075.200000047684,533060.7000000477,7700,yes,SM,A,138.bmp,-120,-120,250387,244365,252404,246372,528350.0,522323.0,530365.0,524336.0,26
4,0,0,0,1,20,test,1,0,z,Mon Sep 22 2025 16:41:54 GMT-0500 (Central Daylight Time),552033.4000000954,O,m,1849,27,1,150.bmp,-120,-120,111.bmp,120,-120,101.bmp,-120,120,102.bmp,120,120,9893.300000190735,542140.0999999046,7700,yes,SM,A,102.bmp,120,120,250387,244365,252404,246372,537418.0,531402.0,539430.0,533414.0,27
3,0,0,1,0,21,test,1,1,m,Mon Sep 22 2025 16:41:54 GMT-0500 (Central Daylight Time),561931.0,O,m,1849,28,1,103.bmp,-120,-120,104.bmp,120,-120,105.bmp,-120,120,106.bmp,120,120,9894.200000047684,552036.7999999523,7700,no,SM,A,103.bmp,-120,120,250387,244365,252404,246372,547325.0,541299.0,549327.0,543312.0,28
2,0,1,0,0,22,test,1,1,z,Mon Sep 22 2025 16:41:54 GMT-0500 (Central Daylight Time),571763.7000000477,O,z,1785,29,1,107.bmp,-120,-120,108.bmp,120,-120,109.bmp,-120,120,110.bmp,120,120,9828.400000095367,561935.2999999523,7700,yes,SM,A,108.bmp,120,-120,250387,244365,252404,246372,557224.0,551198.0,559241.0,553208.0,29
3,0,0,1,0,23,test,1,1,z,Mon Sep 22 2025 16:41:54 GMT-0500 (Central Daylight Time),581707.5,O,z,1901,30,1,111.bmp,-120,-120,112.bmp,120,-120,113.bmp,-120,120,114.bmp,120,120,9941.5,571766.0,7700,yes,SM,A,113.bmp,-120,120,250387,244365,252404,246372,567054.0,561028.0,569068.0,563040.0,30
1,1,0,0,0,24,test,1,1,z,Mon Sep 22 2025 16:41:54 GMT-0500 (Central Daylight Time),591719.7000000477,O,z,1958,31,1,115.bmp,-120,-120,116.bmp,120,-120,117.bmp,-120,120,118.bmp,120,120,10007.700000047684,581712.0,7700,yes,SM,A,115.bmp,-120,-120,250387,244365,252404,246372,577002.0,570974.0,579017.0,572985.0,31
2,0,1,0,0,25,test,1,1,m,Mon Sep 22 2025 16:41:54 GMT-0500 (Central Daylight Time),601083.2999999523,O,m,1304,32,1,119.bmp,-120,-120,120.bmp,120,-120,121.bmp,-120,120,122.bmp,120,120,9358.899999856949,591724.4000000954,7700,no,SM,A,119.bmp,120,-120,250387,244365,252404,246372,587014.0,580987.0,589031.0,582998.0,32
4,0,0,0,1,26,test,1,1,z,Mon Sep 22 2025 16:41:54 GMT-0500 (Central Daylight Time),610662.7000000477,O,z,1518,33,1,131.bmp,-120,-120,132.bmp,120,-120,133.bmp,-120,120,134.bmp,120,120,9576.200000047684,601086.5,7700,yes,SM,A,134.bmp,120,120,250387,244365,252404,246372,596377.0,590349.0,598392.0,592362.0,33
2,0,1,0,0,27,test,1,1,z,Mon Sep 22 2025 16:41:54 GMT-0500 (Central Daylight Time),620110.7999999523,O,z,1383,34,1,123.bmp,-120,-120,124.bmp,120,-120,125.bmp,-120,120,126.bmp,120,120,9441.899999856949,610668.9000000954,7700,yes,SM,A,124.bmp,120,-120,250387,244365,252404,246372,605957.0,599931.0,607976.0,601941.0,34
4,0,0,0,1,28,test,1,1,m,Mon Sep 22 2025 16:41:54 GMT-0500 (Central Daylight Time),629691.2999999523,O,m,1524,35,1,127.bmp,-120,-120,128.bmp,120,-120,129.bmp,-120,120,130.bmp,120,120,9575.200000047684,620116.0999999046,7700,no,SM,A,129.bmp,120,120,250387,244365,252404,246372,615404.0,609378.0,617420.0,611389.0,35
3,0,0,1,0,29,test,1,1,m,Mon Sep 22 2025 16:41:54 GMT-0500 (Central Daylight Time),639604.5,O,m,1863,36,1,135.bmp,-120,-120,136.bmp,120,-120,137.bmp,-120,120,138.bmp,120,120,9908.700000047684,629695.7999999523,7700,no,SM,A,135.bmp,-120,120,250387,244365,252404,246372,624984.0,618958.0,627000.0,620969.0,36
1,1,0,0,0,30,test,1,1,m,Mon Sep 22 2025 16:41:54 GMT-0500 (Central Daylight Time),649002.9000000954,O,m,1348,37,1,139.bmp,-120,-120,140.bmp,120,-120,141.bmp,-120,120,142.bmp,120,120,9392.900000095367,639610.0,7700,no,SM,A,140.bmp,-120,-120,250387,244365,252404,246372,634899.0,628872.0,636916.0,630884.0,37
2,0,1,0,0,31,test,1,1,m,Mon Sep 22 2025 16:41:54 GMT-0500 (Central Daylight Time),658733.0,O,m,1683,38,1,143.bmp,-120,-120,144.bmp,120,-120,145.bmp,-120,120,146.bmp,120,120,9725.799999952316,649007.2000000477,7700,no,SM,A,145.bmp,120,-120,250387,244365,252404,246372,644295.0,638270.0,646312.0,640279.0,38
4,0,0,0,1,32,test,1,1,z,Mon Sep 22 2025 16:41:54 GMT-0500 (Central Daylight Time),668380.0,O,z,1598,39,1,147.bmp,-120,-120,148.bmp,120,-120,149.bmp,-120,120,150.bmp,120,120,9642.400000095367,658737.5999999046,7700,yes,SM,A,150.bmp,120,120,250387,244365,252404,246372,654026.0,648000.0,656042.0,650011.0,39
3,0,0,1,0,33,test,1,1,m,Mon Sep 22 2025 16:41:54 GMT-0500 (Central Daylight Time),677859.4000000954,O,m,1432,40,1,104.bmp,-120,-120,105.bmp,120,-120,106.bmp,-120,120,107.bmp,120,120,9471.900000095367,668387.5,7700,no,SM,A,105.bmp,-120,120,250387,244365,252404,246372,663673.0,657650.0,665689.0,659658.0,40
1,1,0,0,0,33,test,1,0,z,Mon Sep 22 2025 16:41:54 GMT-0500 (Central Daylight Time),687923.2000000477,O,None,2015,41,1,108.bmp,-120,-120,109.bmp,120,-120,110.bmp,-120,120,111.bmp,120,120,10059.5,677863.7000000477,7700,yes,SM,A,108.bmp,-120,-120,250387,244365,252404,246372,673155.0,667126.0,675170.0,669139.0,41
4,0,0,0,1,33,test,1,0,z,Mon Sep 22 2025 16:41:54 GMT-0500 (Central Daylight Time),697985.9000000954,O,None,2015,42,1,112.bmp,-120,-120,113.bmp,120,-120,114.bmp,-120,120,115.bmp,120,120,10057.5,687928.4000000954,7700,yes,SM,A,115.bmp,120,120,250387,244365,252404,246372,683217.0,677191.0,685233.0,679202.0,42
1,1,0,0,0,34,test,1,1,z,Mon Sep 22 2025 16:41:54 GMT-0500 (Central Daylight Time),707365.5999999046,O,z,1318,43,1,116.bmp,-120,-120,117.bmp,120,-120,118.bmp,-120,120,119.bmp,120,120,9375.5,697990.0999999046,7700,yes,SM,A,116.bmp,-120,-120,250387,244365,252404,246372,693280.0,687252.0,695296.0,689265.0,43
4,0,0,0,1,35,test,1,1,m,Mon Sep 22 2025 16:41:54 GMT-0500 (Central Daylight Time),716795.7999999523,O,m,1378,44,1,104.bmp,-120,-120,101.bmp,120,-120,102.bmp,-120,120,103.bmp,120,120,9422.200000047684,707373.5999999046,7700,no,SM,A,104.bmp,120,120,250387,244365,252404,246372,702661.0,696636.0,704677.0,698646.0,44
1,1,0,0,0,35,test,1,0,m,Mon Sep 22 2025 16:41:54 GMT-0500 (Central Daylight Time),726859.2000000477,O,None,2014,45,1,128.bmp,-120,-120,129.bmp,120,-120,130.bmp,-120,120,131.bmp,120,120,10060.700000047684,716798.5,7700,no,SM,A,131.bmp,-120,-120,250387,244365,252404,246372,712091.0,706061.0,714107.0,708076.0,45
1,1,0,0,0,36,test,1,1,m,Mon Sep 22 2025 16:41:54 GMT-0500 (Central Daylight Time),736073.5,O,m,1166,46,1,120.bmp,-120,-120,121.bmp,120,-120,122.bmp,-120,120,123.bmp,120,120,9208.299999952316,726865.2000000477,7700,no,SM,A,121.bmp,-120,-120,250387,244365,252404,246372,722153.0,716128.0,724169.0,718139.0,46
3,0,0,1,0,37,test,1,1,z,Mon Sep 22 2025 16:41:54 GMT-0500 (Central Daylight Time),745953.7999999523,O,z,1825,47,1,124.bmp,-120,-120,125.bmp,120,-120,126.bmp,-120,120,127.bmp,120,120,9875.200000047684,736078.5999999046,7700,yes,SM,A,126.bmp,-120,120,250387,244365,252404,246372,731368.0,725341.0,733383.0,727352.0,47
3,0,0,1,0,38,test,1,1,z,Mon Sep 22 2025 16:41:54 GMT-0500 (Central Daylight Time),755183.5999999046,O,z,1166,48,1,140.bmp,-120,-120,141.bmp,120,-120,142.bmp,-120,120,143.bmp,120,120,9225.899999856949,745957.7000000477,7700,yes,SM,A,142.bmp,-120,120,250387,244365,252404,246372,741248.0,735220.0,743265.0,737232.0,48
2,0,1,0,0,38,test,1,0,z,Mon Sep 22 2025 16:41:54 GMT-0500 (Central Daylight Time),763915.7999999523,O,m,683,49,1,136.bmp,-120,-120,137.bmp,120,-120,138.bmp,-120,120,139.bmp,120,120,8724.799999952316,755191.0,7700,yes,SM,A,137.bmp,120,-120,250387,244365,252404,246372,750478.0,744453.0,752494.0,746463.0,49
3,0,0,1,0,38,test,1,0,m,Mon Sep 22 2025 16:41:54 GMT-0500 (Central Daylight Time),773661.7000000477,O,z,1695,50,1,132.bmp,-120,-120,133.bmp,120,-120,134.bmp,-120,120,135.bmp,120,120,9741.799999952316,763919.9000000954,7700,no,SM,A,132.bmp,-120,120,250387,244365,252404,246372,759208.0,753182.0,761224.0,755194.0,50
2,0,1,0,0,39,test,1,1,z,Mon Sep 22 2025 16:41:54 GMT-0500 (Central Daylight Time),783409.2000000477,O,z,1701,51,1,144.bmp,-120,-120,145.bmp,120,-120,146.bmp,-120,120,147.bmp,120,120,9742.700000047684,773666.5,7700,yes,SM,A,145.bmp,120,-120,250387,244365,252404,246372,768955.0,762929.0,770970.0,764942.0,51
4,0,0,0,1,40,test,1,1,m,Mon Sep 22 2025 16:41:54 GMT-0500 (Central Daylight Time),792872.5999999046,O,m,1408,52,1,148.bmp,-120,-120,149.bmp,120,-120,150.bmp,-120,120,131.bmp,120,120,9458.5,783414.0999999046,7700,no,SM,A,148.bmp,120,120,250387,244365,252404,246372,778704.0,772676.0,780720.0,774689.0,52
3,0,0,1,0,41,test,1,1,z,Mon Sep 22 2025 16:41:54 GMT-0500 (Central Daylight Time),802136.9000000954,O,z,1216,53,1,101.bmp,-120,-120,102.bmp,120,-120,103.bmp,-120,120,104.bmp,120,120,9260.300000190735,792876.5999999046,7700,yes,SM,A,103.bmp,-120,120,250387,244365,252404,246372,788167.0,782139.0,790183.0,784152.0,53
1,1,0,0,0,42,test,1,1,m,Mon Sep 22 2025 16:41:54 GMT-0500 (Central Daylight Time),811949.5999999046,O,m,1752,54,1,105.bmp,-120,-120,106.bmp,120,-120,107.bmp,-120,120,108.bmp,120,120,9809.199999809265,802140.4000000954,7700,no,SM,A,107.bmp,-120,-120,250387,244365,252404,246372,797429.0,791403.0,799447.0,793414.0,54
4,0,0,0,1,43,test,1,1,z,Mon Sep 22 2025 16:41:54 GMT-0500 (Central Daylight Time),821762.2999999523,O,z,1763,55,1,109.bmp,-120,-120,110.bmp,120,-120,111.bmp,-120,120,112.bmp,120,120,9808.799999952316,811953.5,7700,yes,SM,A,112.bmp,120,120,250387,244365,252404,246372,807244.0,801216.0,809260.0,803229.0,55
2,0,1,0,0,44,test,1,1,m,Mon Sep 22 2025 16:41:54 GMT-0500 (Central Daylight Time),831110.0,O,m,1293,56,1,113.bmp,-120,-120,114.bmp,120,-120,115.bmp,-120,120,116.bmp,120,120,9340.700000047684,821769.2999999523,7700,no,SM,A,113.bmp,120,-120,250387,244365,252404,246372,817056.0,811031.0,819074.0,813042.0,56
4,0,0,0,1,45,test,1,1,m,Mon Sep 22 2025 16:41:54 GMT-0500 (Central Daylight Time),841157.0999999046,O,m,1988,57,1,117.bmp,-120,-120,118.bmp,120,-120,119.bmp,-120,120,120.bmp,120,120,10043.899999856949,831113.2000000477,7700,no,SM,A,118.bmp,120,120,250387,244365,252404,246372,826405.0,820375.0,828421.0,822387.0,57
3,0,0,1,0,46,test,1,1,z,Mon Sep 22 2025 16:41:54 GMT-0500 (Central Daylight Time),850604.0,O,z,1410,58,1,121.bmp,-120,-120,122.bmp,120,-120,123.bmp,-120,120,124.bmp,120,120,9442.0,841162.0,7700,yes,SM,A,123.bmp,-120,120,250387,244365,252404,246372,836451.0,830424.0,838453.0,832436.0,58
2,0,1,0,0,46,test,1,0,m,Mon Sep 22 2025 16:41:54 GMT-0500 (Central Daylight Time),860667.9000000954,O,None,2015,59,1,125.bmp,-120,-120,126.bmp,120,-120,127.bmp,-120,120,128.bmp,120,120,10058.5,850609.4000000954,7700,no,SM,A,128.bmp,120,-120,250387,244365,252404,246372,845900.0,839872.0,847915.0,841882.0,59
1,1,0,0,0,46,test,1,0,z,Mon Sep 22 2025 16:41:54 GMT-0500 (Central Daylight Time),870431.5,O,m,1702,60,1,129.bmp,-120,-120,130.bmp,120,-120,131.bmp,-120,120,132.bmp,120,120,9757.599999904633,860673.9000000954,7700,yes,SM,A,129.bmp,-120,-120,250387,244365,252404,246372,855962.0,849936.0,857977.0,851946.0,60
2,0,1,0,0,47,test,1,1,z,Mon Sep 22 2025 16:41:54 GMT-0500 (Central Daylight Time),879762.4000000954,O,z,1284,61,1,133.bmp,-120,-120,134.bmp,120,-120,135.bmp,-120,120,136.bmp,120,120,9326.800000190735,870435.5999999046,7700,yes,SM,A,134.bmp,120,-120,250387,244365,252404,246372,865725.0,859698.0,867740.0,861713.0,61
4,0,0,0,1,48,test,1,1,z,Mon Sep 22 2025 16:41:54 GMT-0500 (Central Daylight Time),889525.2000000477,O,z,1703,62,1,141.bmp,-120,-120,142.bmp,120,-120,143.bmp,-120,120,144.bmp,120,120,9757.0,879768.2000000477,7700,yes,SM,A,144.bmp,120,120,250387,244365,252404,246372,875056.0,869030.0,877073.0,871040.0,62
1,1,0,0,0,48,test,1,0,m,Mon Sep 22 2025 16:41:54 GMT-0500 (Central Daylight Time),899572.5999999046,O,None,2002,63,1,145.bmp,-120,-120,146.bmp,120,-120,147.bmp,-120,120,148.bmp,120,120,10043.599999904633,889529.0,7700,no,SM,A,145.bmp,-120,120,250387,244365,252404,246372,884819.0,878791.0,886833.0,880807.0,63
2,0,1,0,0,48,test,1,0,z,Mon Sep 22 2025 16:41:54 GMT-0500 (Central Daylight Time),908600.7000000477,O,m,981,64,1,149.bmp,-120,-120,150.bmp,120,-120,112.bmp,-120,120,101.bmp,120,120,9022.400000095367,899578.2999999523,7700,yes,SM,A,150.bmp,120,-120,250387,244365,252404,246372,894865.0,888841.0,896882.0,890853.0,64
4,0,0,0,1,49,test,1,1,m,Mon Sep 22 2025 16:41:54 GMT-0500 (Central Daylight Time),918067.0999999046,O,m,1415,65,1,102.bmp,-120,-120,103.bmp,120,-120,104.bmp,-120,120,105.bmp,120,120,9464.399999856949,908602.7000000477,7700,no,SM,A,104.bmp,120,120,250387,244365,252404,246372,903895.0,897865.0,905897.0,899881.0,65
3,0,0,1,0,50,test,1,1,m,Mon Sep 22 2025 16:41:54 GMT-0500 (Central Daylight Time),927347.4000000954,O,m,1233,66,1,106.bmp,-120,-120,107.bmp,120,-120,108.bmp,-120,120,109.bmp,120,120,9277.700000047684,918069.7000000477,7700,no,SM,A,109.bmp,-120,120,250387,244365,252404,246372,913360.0,907332.0,915376.0,909345.0,66
2,0,1,0,0,51,test,1,1,m,Mon Sep 22 2025 16:41:54 GMT-0500 (Central Daylight Time),936726.4000000954,O,m,1342,67,1,137.bmp,-120,-120,138.bmp,120,-120,139.bmp,-120,120,140.bmp,120,120,9376.400000095367,927350.0,7700,no,SM,A,139.bmp,120,-120,250387,244365,252404,246372,922640.0,916612.0,924641.0,918626.0,67
3,0,0,1,0,52,test,1,1,z,Mon Sep 22 2025 16:41:54 GMT-0500 (Central Daylight Time),946723.7999999523,O,z,1938,68,1,110.bmp,-120,-120,111.bmp,120,-120,112.bmp,-120,120,113.bmp,120,120,9993.099999904633,936730.7000000477,7700,yes,SM,A,112.bmp,-120,120,250387,244365,252404,246372,932022.0,925993.0,934037.0,928005.0,68
1,1,0,0,0,53,test,1,1,m,Mon Sep 22 2025 16:41:54 GMT-0500 (Central Daylight Time),956171.7999999523,O,m,1405,69,1,114.bmp,-120,-120,115.bmp,120,-120,116.bmp,-120,120,117.bmp,120,120,9445.0,946726.7999999523,7700,no,SM,A,115.bmp,-120,-120,250387,244365,252404,246372,942001.0,935989.0,944017.0,938000.0,69
2,0,1,0,0,54,test,1,1,m,Mon Sep 22 2025 16:41:54 GMT-0500 (Central Daylight Time),965634.5,O,m,1408,70,1,118.bmp,-120,-120,119.bmp,120,-120,120.bmp,-120,120,121.bmp,120,120,9459.700000047684,956174.7999999523,7700,no,SM,A,120.bmp,120,-120,250387,244365,252404,246372,951465.0,945437.0,953481.0,947450.0,70
4,0,0,0,1,55,test,1,1,z,Mon Sep 22 2025 16:41:54 GMT-0500 (Central Daylight Time),975463.0999999046,O,z,1791,71,1,122.bmp,-120,-120,123.bmp,120,-120,124.bmp,-120,120,125.bmp,120,120,9825.0,965638.0999999046,7700,yes,SM,A,125.bmp,120,120,250387,244365,252404,246372,960927.0,954900.0,962928.0,956912.0,71
1,1,0,0,0,56,test,1,1,z,Mon Sep 22 2025 16:41:54 GMT-0500 (Central Daylight Time),985243.2999999523,O,z,1722,72,1,126.bmp,-120,-120,127.bmp,120,-120,128.bmp,-120,120,129.bmp,120,120,9770.799999952316,975472.5,7700,yes,SM,A,126.bmp,-120,-120,250387,244365,252404,246372,970757.0,964735.0,972773.0,966742.0,72
2,0,1,0,0,57,test,1,1,z,Mon Sep 22 2025 16:41:54 GMT-0500 (Central Daylight Time),994923.7000000477,O,z,1620,73,1,130.bmp,-120,-120,131.bmp,120,-120,132.bmp,-120,120,133.bmp,120,120,9673.900000095367,985249.7999999523,7700,yes,SM,A,131.bmp,120,-120,250387,244365,252404,246372,980538.0,974512.0,982555.0,976523.0,73
4,0,0,0,1,58,test,1,1,m,Mon Sep 22 2025 16:41:54 GMT-0500 (Central Daylight Time),1004322.4000000954,O,m,1349,74,1,134.bmp,-120,-120,135.bmp,120,-120,136.bmp,-120,120,137.bmp,120,120,9392.200000047684,994930.2000000477,7700,no,SM,A,136.bmp,120,120,250387,244365,252404,246372,990218.0,984192.0,992235.0,986204.0,74
2,0,1,0,0,59,test,1,1,m,Mon Sep 22 2025 16:41:54 GMT-0500 (Central Daylight Time),1014034.5999999046,O,m,1664,75,1,138.bmp,-120,-120,139.bmp,120,-120,140.bmp,-120,120,141.bmp,120,120,9706.899999856949,1004327.7000000477,7700,no,SM,A,141.bmp,120,-120,250387,244365,252404,246372,999616.0,993590.0,1001631.0,995602.0,75
1,1,0,0,0,60,test,1,1,z,Mon Sep 22 2025 16:41:54 GMT-0500 (Central Daylight Time),1023199.5999999046,O,z,1102,76,1,142.bmp,-120,-120,143.bmp,120,-120,144.bmp,-120,120,145.bmp,120,120,9162.599999904633,1014037.0,7700,yes,SM,A,142.bmp,-120,-120,250387,244365,252404,246372,1009330.0,1003299.0,1011345.0,1005313.0,76
3,0,0,1,0,61,test,1,1,z,Mon Sep 22 2025 16:41:54 GMT-0500 (Central Daylight Time),1033079.0,O,z,1826,77,1,150.bmp,-120,-120,111.bmp,120,-120,101.bmp,-120,120,102.bmp,120,120,9875.200000047684,1023203.7999999523,7700,yes,SM,A,101.bmp,-120,120,250387,244365,252404,246372,1018493.0,1012466.0,1020509.0,1014477.0,77
1,1,0,0,0,61,test,1,0,m,Mon Sep 22 2025 16:41:54 GMT-0500 (Central Daylight Time),1043143.7999999523,O,None,2017,78,1,146.bmp,-120,-120,147.bmp,120,-120,148.bmp,-120,120,149.bmp,120,120,10060.899999856949,1033082.9000000954,7700,no,SM,A,147.bmp,-120,-120,250387,244365,252404,246372,1028373.0,1022345.0,1030389.0,1024358.0,78
4,0,0,0,1,62,test,1,1,m,Mon Sep 22 2025 16:41:54 GMT-0500 (Central Daylight Time),1052457.0,O,m,1249,79,1,107.bmp,-120,-120,108.bmp,120,-120,109.bmp,-120,120,110.bmp,120,120,9307.5,1043149.5,7700,no,SM,A,107.bmp,120,120,250387,244365,252404,246372,1038437.0,1032412.0,1040453.0,1034422.0,79
3,0,0,1,0,62,test,1,0,m,Mon Sep 22 2025 16:41:54 GMT-0500 (Central Daylight Time),1062520.2999999523,O,None,2017,80,1,103.bmp,-120,-120,104.bmp,120,-120,105.bmp,-120,120,106.bmp,120,120,10057.0,1052463.2999999523,7700,no,SM,A,106.bmp,-120,120,250387,244365,252404,246372,1047751.0,1041726.0,1049765.0,1043736.0,80
