block_c,block_dur,condition,countdown,datetime,endtime,list,multichar_response,project,response,response_time,session_number,start_end,starttime,subject_id,task,task_vers,trial
,,,,Tue Sep 02 2025 09:16:43 GMT-0500 (Central Daylight Time),,,,I,space,551,1,,,8058,WL,C,
prac,,0,,Tue Sep 02 2025 09:16:43 GMT-0500 (Central Daylight Time),,NA,b,I,b,8256,1,,,8058,WL,C,1.0
prac,,0,,Tue Sep 02 2025 09:16:43 GMT-0500 (Central Daylight Time),,NA,bo,I,o,314,1,,,8058,WL,C,1.0
prac,,0,,Tue Sep 02 2025 09:16:43 GMT-0500 (Central Daylight Time),,NA,boo,I,o,174,1,,,8058,WL,C,1.0
prac,,0,,Tue Sep 02 2025 09:16:43 GMT-0500 (Central Daylight Time),,NA,boos,I,s,191,1,,,8058,WL,C,1.0
prac,,0,,Tue Sep 02 2025 09:16:43 GMT-0500 (Central Daylight Time),,NA,boost,I,t,127,1,,,8058,WL,C,1.0
prac,,0,,Tue Sep 02 2025 09:16:43 GMT-0500 (Central Daylight Time),,NA,boostenter,I,enter,3842,1,,,8058,WL,C,1.0
1,3.9659998416900635,learn,56034.00015830994,Tue Sep 02 2025 09:16:43 GMT-0500 (Central Daylight Time),153854.60000002384,A,t,I,t,3948,1,3965.100000023842,149889.5,8058,WL,C,1.0
1,4.332000017166138,learn,55667.99998283386,Tue Sep 02 2025 09:16:43 GMT-0500 (Central Daylight Time),154221.29999995232,A,to,I,o,357,1,4331.799999952316,149889.5,8058,WL,C,1.0
1,4.56499981880188,learn,55435.00018119812,Tue Sep 02 2025 09:16:43 GMT-0500 (Central Daylight Time),154454.10000002384,A,tow,I,w,215,1,4564.600000023842,149889.5,8058,WL,C,1.0
1,4.882999897003174,learn,55117.000102996826,Tue Sep 02 2025 09:16:43 GMT-0500 (Central Daylight Time),154771.89999997616,A,towe,I,e,310,1,4882.399999976158,149889.5,8058,WL,C,1.0
1,5.164999961853027,learn,54835.00003814697,Tue Sep 02 2025 09:16:43 GMT-0500 (Central Daylight Time),155054.10000002384,A,tower,I,r,265,1,5164.600000023842,149889.5,8058,WL,C,1.0
1,9.563999891281128,learn,50436.00010871887,Tue Sep 02 2025 09:16:43 GMT-0500 (Central Daylight Time),159452.79999995232,A,towerenter,I,enter,4390,1,9563.299999952316,149889.5,8058,WL,C,1.0
1,10.77999997138977,learn,49220.00002861023,Tue Sep 02 2025 09:16:43 GMT-0500 (Central Daylight Time),160669.10000002384,A,q,I,q,1199,1,1215.7000000476837,159453.39999997616,8058,WL,C,2.0
1,11.046000003814697,learn,48953.9999961853,Tue Sep 02 2025 09:16:43 GMT-0500 (Central Daylight Time),160935.39999997616,A,qu,I,u,256,1,1482.0,159453.39999997616,8058,WL,C,2.0
1,11.19700002670288,learn,48802.99997329712,Tue Sep 02 2025 09:16:43 GMT-0500 (Central Daylight Time),161085.69999992847,A,que,I,e,141,1,1632.2999999523163,159453.39999997616,8058,WL,C,2.0
1,11.556999921798706,learn,48443.000078201294,Tue Sep 02 2025 09:16:43 GMT-0500 (Central Daylight Time),161446.0,A,quee,I,e,208,1,1992.6000000238419,159453.39999997616,8058,WL,C,2.0
1,11.712999820709229,learn,48287.00017929077,Tue Sep 02 2025 09:16:43 GMT-0500 (Central Daylight Time),161602.19999992847,A,queen,I,n,134,1,2148.7999999523163,159453.39999997616,8058,WL,C,2.0
1,12.145999908447266,learn,47854.000091552734,Tue Sep 02 2025 09:16:43 GMT-0500 (Central Daylight Time),162035.19999992847,A,queenenter,I,enter,427,1,2581.7999999523163,159453.39999997616,8058,WL,C,2.0
1,12.728999853134155,learn,47271.000146865845,Tue Sep 02 2025 09:16:43 GMT-0500 (Central Daylight Time),162618.39999997616,A,s,I,s,578,1,582.8999999761581,162035.5,8058,WL,C,3.0
1,12.912999868392944,learn,47087.000131607056,Tue Sep 02 2025 09:16:43 GMT-0500 (Central Daylight Time),162801.79999995232,A,su,I,u,163,1,766.2999999523163,162035.5,8058,WL,C,3.0
1,13.046000003814697,learn,46953.9999961853,Tue Sep 02 2025 09:16:43 GMT-0500 (Central Daylight Time),162935.10000002384,A,sur,I,r,123,1,899.6000000238419,162035.5,8058,WL,C,3.0
1,13.312999963760376,learn,46687.000036239624,Tue Sep 02 2025 09:16:43 GMT-0500 (Central Daylight Time),163201.60000002384,A,surg,I,g,254,1,1166.1000000238419,162035.5,8058,WL,C,3.0
1,13.496000051498413,learn,46503.99994850159,Tue Sep 02 2025 09:16:43 GMT-0500 (Central Daylight Time),163384.79999995232,A,surga,I,a,162,1,1349.2999999523163,162035.5,8058,WL,C,3.0
1,13.746000051498413,learn,46253.99994850159,Tue Sep 02 2025 09:16:43 GMT-0500 (Central Daylight Time),163634.89999997616,A,surg,I,backspace,228,1,1599.3999999761581,162035.5,8058,WL,C,3.0
1,13.878999948501587,learn,46121.00005149841,Tue Sep 02 2025 09:16:43 GMT-0500 (Central Daylight Time),163768.10000002384,A,sur,I,backspace,122,1,1732.6000000238419,162035.5,8058,WL,C,3.0
1,14.01199984550476,learn,45988.00015449524,Tue Sep 02 2025 09:16:43 GMT-0500 (Central Daylight Time),163901.29999995232,A,su,I,backspace,125,1,1865.7999999523163,162035.5,8058,WL,C,3.0
1,14.111999988555908,learn,45888.00001144409,Tue Sep 02 2025 09:16:43 GMT-0500 (Central Daylight Time),164001.39999997616,A,sug,I,g,87,1,1965.8999999761581,162035.5,8058,WL,C,3.0
1,14.279000043869019,learn,45720.99995613098,Tue Sep 02 2025 09:16:43 GMT-0500 (Central Daylight Time),164168.19999992847,A,suga,I,a,156,1,2132.6999999284744,162035.5,8058,WL,C,3.0
1,14.394999980926514,learn,45605.000019073486,Tue Sep 02 2025 09:16:43 GMT-0500 (Central Daylight Time),164284.60000002384,A,sugar,I,r,101,1,2249.100000023842,162035.5,8058,WL,C,3.0
1,14.728999853134155,learn,45271.000146865845,Tue Sep 02 2025 09:16:43 GMT-0500 (Central Daylight Time),164617.60000002384,A,sugarenter,I,enter,321,1,2582.100000023842,162035.5,8058,WL,C,3.0
1,15.244999885559082,learn,44755.00011444092,Tue Sep 02 2025 09:16:43 GMT-0500 (Central Daylight Time),165134.29999995232,A,b,I,b,507,1,516.2999999523163,164618.0,8058,WL,C,4.0
1,15.777999877929688,learn,44222.00012207031,Tue Sep 02 2025 09:16:43 GMT-0500 (Central Daylight Time),165667.5,A,bo,I,o,519,1,1049.5,164618.0,8058,WL,C,4.0
1,15.960999965667725,learn,44039.000034332275,Tue Sep 02 2025 09:16:43 GMT-0500 (Central Daylight Time),165850.5,A,boo,I,o,176,1,1232.5,164618.0,8058,WL,C,4.0
1,16.01199984550476,learn,43988.00015449524,Tue Sep 02 2025 09:16:43 GMT-0500 (Central Daylight Time),165900.79999995232,A,booy,I,y,34,1,1282.7999999523163,164618.0,8058,WL,C,4.0
1,16.628000020980835,learn,43371.999979019165,Tue Sep 02 2025 09:16:43 GMT-0500 (Central Daylight Time),166517.19999992847,A,boo,I,backspace,608,1,1899.1999999284744,164618.0,8058,WL,C,4.0
1,16.777999877929688,learn,43222.00012207031,Tue Sep 02 2025 09:16:43 GMT-0500 (Central Daylight Time),166667.19999992847,A,bo,I,backspace,136,1,2049.1999999284744,164618.0,8058,WL,C,4.0
1,17.07799983024597,learn,42922.00016975403,Tue Sep 02 2025 09:16:43 GMT-0500 (Central Daylight Time),166967.29999995232,A,boy,I,y,290,1,2349.2999999523163,164618.0,8058,WL,C,4.0
1,17.42799997329712,learn,42572.00002670288,Tue Sep 02 2025 09:16:43 GMT-0500 (Central Daylight Time),167316.89999997616,A,boyenter,I,enter,341,1,2698.899999976158,164618.0,8058,WL,C,4.0
1,17.91100001335144,learn,42088.99998664856,Tue Sep 02 2025 09:16:43 GMT-0500 (Central Daylight Time),167800.10000002384,A,d,I,d,472,1,482.5,167317.60000002384,8058,WL,C,5.0
1,18.17799997329712,learn,41822.00002670288,Tue Sep 02 2025 09:16:43 GMT-0500 (Central Daylight Time),168066.60000002384,A,do,I,o,260,1,749.0,167317.60000002384,8058,WL,C,5.0
1,18.360999822616577,learn,41639.00017738342,Tue Sep 02 2025 09:16:43 GMT-0500 (Central Daylight Time),168250.0,A,doc,I,c,171,1,932.3999999761581,167317.60000002384,8058,WL,C,5.0
1,18.560999870300293,learn,41439.00012969971,Tue Sep 02 2025 09:16:43 GMT-0500 (Central Daylight Time),168449.89999997616,A,doct,I,t,187,1,1132.2999999523163,167317.60000002384,8058,WL,C,5.0
1,18.74399995803833,learn,41256.00004196167,Tue Sep 02 2025 09:16:43 GMT-0500 (Central Daylight Time),168633.29999995232,A,docto,I,o,172,1,1315.6999999284744,167317.60000002384,8058,WL,C,5.0
1,18.876999855041504,learn,41123.000144958496,Tue Sep 02 2025 09:16:43 GMT-0500 (Central Daylight Time),168766.60000002384,A,doctor,I,r,124,1,1449.0,167317.60000002384,8058,WL,C,5.0
1,19.26099991798401,learn,40739.00008201599,Tue Sep 02 2025 09:16:43 GMT-0500 (Central Daylight Time),169149.69999992847,A,doctorenter,I,enter,366,1,1832.0999999046326,167317.60000002384,8058,WL,C,5.0
1,19.610999822616577,learn,40389.00017738342,Tue Sep 02 2025 09:16:43 GMT-0500 (Central Daylight Time),169499.69999992847,A,w,I,w,342,1,349.5,169150.19999992847,8058,WL,C,6.0
1,19.776999950408936,learn,40223.000049591064,Tue Sep 02 2025 09:16:43 GMT-0500 (Central Daylight Time),169666.19999992847,A,wh,I,h,154,1,516.0,169150.19999992847,8058,WL,C,6.0
1,19.90999984741211,learn,40090.00015258789,Tue Sep 02 2025 09:16:43 GMT-0500 (Central Daylight Time),169799.5,A,whe,I,e,115,1,649.3000000715256,169150.19999992847,8058,WL,C,6.0
1,20.32699990272522,learn,39673.00009727478,Tue Sep 02 2025 09:16:43 GMT-0500 (Central Daylight Time),170216.0,A,whea,I,a,398,1,1065.8000000715256,169150.19999992847,8058,WL,C,6.0
1,20.57699990272522,learn,39423.00009727478,Tue Sep 02 2025 09:16:43 GMT-0500 (Central Daylight Time),170466.0,A,wheat,I,t,229,1,1315.8000000715256,169150.19999992847,8058,WL,C,6.0
1,21.01099991798401,learn,38989.00008201599,Tue Sep 02 2025 09:16:43 GMT-0500 (Central Daylight Time),170900.10000002384,A,wheatenter,I,enter,428,1,1749.9000000953674,169150.19999992847,8058,WL,C,6.0
1,21.792999982833862,learn,38207.00001716614,Tue Sep 02 2025 09:16:43 GMT-0500 (Central Daylight Time),171681.89999997616,A,s,I,s,761,1,781.2999999523163,170900.60000002384,8058,WL,C,7.0
1,21.942999839782715,learn,38057.000160217285,Tue Sep 02 2025 09:16:43 GMT-0500 (Central Daylight Time),171832.10000002384,A,sh,I,h,131,1,931.5,170900.60000002384,8058,WL,C,7.0
1,22.042999982833862,learn,37957.00001716614,Tue Sep 02 2025 09:16:43 GMT-0500 (Central Daylight Time),171932.19999992847,A,sho,I,o,85,1,1031.5999999046326,170900.60000002384,8058,WL,C,7.0
1,22.22599983215332,learn,37774.00016784668,Tue Sep 02 2025 09:16:43 GMT-0500 (Central Daylight Time),172115.5,A,shor,I,r,177,1,1214.8999999761581,170900.60000002384,8058,WL,C,7.0
1,22.342999935150146,learn,37657.00006484985,Tue Sep 02 2025 09:16:43 GMT-0500 (Central Daylight Time),172232.0,A,shore,I,e,107,1,1331.3999999761581,170900.60000002384,8058,WL,C,7.0
1,22.908999919891357,learn,37091.00008010864,Tue Sep 02 2025 09:16:43 GMT-0500 (Central Daylight Time),172798.5,A,shoreenter,I,enter,550,1,1897.8999999761581,170900.60000002384,8058,WL,C,7.0
1,23.342999935150146,learn,36657.00006484985,Tue Sep 02 2025 09:16:43 GMT-0500 (Central Daylight Time),173231.89999997616,A,c,I,c,423,1,433.0,172798.89999997616,8058,WL,C,8.0
1,23.45899987220764,learn,36541.00012779236,Tue Sep 02 2025 09:16:43 GMT-0500 (Central Daylight Time),173348.39999997616,A,co,I,o,110,1,549.5,172798.89999997616,8058,WL,C,8.0
1,23.592999935150146,learn,36407.00006484985,Tue Sep 02 2025 09:16:43 GMT-0500 (Central Daylight Time),173481.69999992847,A,cor,I,r,128,1,682.7999999523163,172798.89999997616,8058,WL,C,8.0
1,23.692999839782715,learn,36307.000160217285,Tue Sep 02 2025 09:16:43 GMT-0500 (Central Daylight Time),173582.0,A,core,I,e,92,1,783.1000000238419,172798.89999997616,8058,WL,C,8.0
1,24.30900001525879,learn,35690.99998474121,Tue Sep 02 2025 09:16:43 GMT-0500 (Central Daylight Time),174198.19999992847,A,cor,I,backspace,607,1,1399.2999999523163,172798.89999997616,8058,WL,C,8.0
1,24.625999927520752,learn,35374.00007247925,Tue Sep 02 2025 09:16:43 GMT-0500 (Central Daylight Time),174514.69999992847,A,corn,I,n,296,1,1715.7999999523163,172798.89999997616,8058,WL,C,8.0
1,24.95899987220764,learn,35041.00012779236,Tue Sep 02 2025 09:16:43 GMT-0500 (Central Daylight Time),174847.79999995232,A,cornenter,I,enter,323,1,2048.899999976158,172798.89999997616,8058,WL,C,8.0
1,25.608999967575073,learn,34391.00003242493,Tue Sep 02 2025 09:16:43 GMT-0500 (Central Daylight Time),175497.89999997616,A,c,I,c,645,1,649.7000000476837,174848.19999992847,8058,WL,C,9.0
1,25.79200005531311,learn,34207.99994468689,Tue Sep 02 2025 09:16:43 GMT-0500 (Central Daylight Time),175681.0,A,ca,I,a,171,1,832.8000000715256,174848.19999992847,8058,WL,C,9.0
1,25.941999912261963,learn,34058.00008773804,Tue Sep 02 2025 09:16:43 GMT-0500 (Central Daylight Time),175831.0,A,cat,I,t,131,1,982.8000000715256,174848.19999992847,8058,WL,C,9.0
1,26.092000007629395,learn,33907.999992370605,Tue Sep 02 2025 09:16:43 GMT-0500 (Central Daylight Time),175980.69999992847,A,catt,I,t,143,1,1132.5,174848.19999992847,8058,WL,C,9.0
1,26.258999824523926,learn,33741.000175476074,Tue Sep 02 2025 09:16:43 GMT-0500 (Central Daylight Time),176147.79999995232,A,cattl,I,l,153,1,1299.6000000238419,174848.19999992847,8058,WL,C,9.0
1,26.358999967575073,learn,33641.00003242493,Tue Sep 02 2025 09:16:43 GMT-0500 (Central Daylight Time),176247.69999992847,A,cattle,I,e,90,1,1399.5,174848.19999992847,8058,WL,C,9.0
1,26.79200005531311,learn,33207.99994468689,Tue Sep 02 2025 09:16:43 GMT-0500 (Central Daylight Time),176680.69999992847,A,cattleenter,I,enter,413,1,1832.5,174848.19999992847,8058,WL,C,9.0
1,27.35800004005432,learn,32641.99995994568,Tue Sep 02 2025 09:16:43 GMT-0500 (Central Daylight Time),177247.39999997616,A,f,I,f,548,1,566.2999999523163,176681.10000002384,8058,WL,C,10.0
1,27.47499990463257,learn,32525.00009536743,Tue Sep 02 2025 09:16:43 GMT-0500 (Central Daylight Time),177363.69999992847,A,fl,I,l,102,1,682.5999999046326,176681.10000002384,8058,WL,C,10.0
1,27.60800004005432,learn,32391.99995994568,Tue Sep 02 2025 09:16:43 GMT-0500 (Central Daylight Time),177497.60000002384,A,fla,I,a,129,1,816.5,176681.10000002384,8058,WL,C,10.0
1,27.94099998474121,learn,32059.00001525879,Tue Sep 02 2025 09:16:43 GMT-0500 (Central Daylight Time),177830.19999992847,A,flag,I,g,316,1,1149.0999999046326,176681.10000002384,8058,WL,C,10.0
1,28.307999849319458,learn,31692.000150680542,Tue Sep 02 2025 09:16:43 GMT-0500 (Central Daylight Time),178196.89999997616,A,flagenter,I,enter,351,1,1515.7999999523163,176681.10000002384,8058,WL,C,10.0
1,28.641000032424927,learn,31358.999967575073,Tue Sep 02 2025 09:16:43 GMT-0500 (Central Daylight Time),178530.29999995232,A,c,I,c,329,1,333.0,178197.29999995232,8058,WL,C,11.0
1,28.756999969482422,learn,31243.000030517578,Tue Sep 02 2025 09:16:43 GMT-0500 (Central Daylight Time),178646.69999992847,A,ca,I,a,106,1,449.39999997615814,178197.29999995232,8058,WL,C,11.0
1,28.906999826431274,learn,31093.000173568726,Tue Sep 02 2025 09:16:43 GMT-0500 (Central Daylight Time),178796.60000002384,A,cam,I,m,136,1,599.3000000715256,178197.29999995232,8058,WL,C,11.0
1,29.08999991416931,learn,30910.00008583069,Tue Sep 02 2025 09:16:43 GMT-0500 (Central Daylight Time),178979.79999995232,A,camp,I,p,177,1,782.5,178197.29999995232,8058,WL,C,11.0
1,29.573999881744385,learn,30426.000118255615,Tue Sep 02 2025 09:16:43 GMT-0500 (Central Daylight Time),179463.10000002384,A,campenter,I,enter,474,1,1265.8000000715256,178197.29999995232,8058,WL,C,11.0
1,36.07200002670288,learn,23927.99997329712,Tue Sep 02 2025 09:16:43 GMT-0500 (Central Daylight Time),185961.10000002384,A,f,I,f,6477,1,6497.600000023842,179463.5,8058,WL,C,12.0
1,36.204999923706055,learn,23795.000076293945,Tue Sep 02 2025 09:16:43 GMT-0500 (Central Daylight Time),186094.39999997616,A,fl,I,l,124,1,6630.899999976158,179463.5,8058,WL,C,12.0
1,36.388999938964844,learn,23611.000061035156,Tue Sep 02 2025 09:16:43 GMT-0500 (Central Daylight Time),186277.79999995232,A,fla,I,a,167,1,6814.299999952316,179463.5,8058,WL,C,12.0
1,36.954999923706055,learn,23045.000076293945,Tue Sep 02 2025 09:16:43 GMT-0500 (Central Daylight Time),186844.19999992847,A,flag,I,g,552,1,7380.699999928474,179463.5,8058,WL,C,12.0
1,41.25399994850159,learn,18746.000051498413,Tue Sep 02 2025 09:16:43 GMT-0500 (Central Daylight Time),191142.89999997616,A,flagenter,I,enter,4282,1,11679.399999976158,179463.5,8058,WL,C,12.0
1,51.43400001525879,learn,8565.999984741211,Tue Sep 02 2025 09:16:43 GMT-0500 (Central Daylight Time),201322.79999995232,A,enter,I,enter,10167,1,10179.5,191143.29999995232,8058,WL,C,13.0
1,52.34999990463257,learn,7650.000095367432,Tue Sep 02 2025 09:16:43 GMT-0500 (Central Daylight Time),202239.5,A,enter,I,enter,898,1,916.3000000715256,201323.19999992847,8058,WL,C,14.0
1,53.83299994468689,learn,6167.00005531311,Tue Sep 02 2025 09:16:43 GMT-0500 (Central Daylight Time),203722.0,A,enter,I,enter,1478,1,1482.2000000476837,202239.79999995232,8058,WL,C,15.0
2,1.1500000953674316,learn,58849.99990463257,Tue Sep 02 2025 09:16:43 GMT-0500 (Central Daylight Time),281181.1999999285,A,t,I,t,1143,1,1149.5,280031.6999999285,8058,WL,C,1.0
2,1.315999984741211,learn,58684.00001525879,Tue Sep 02 2025 09:16:43 GMT-0500 (Central Daylight Time),281347.7999999523,A,to,I,o,159,1,1316.1000000238419,280031.6999999285,8058,WL,C,1.0
2,1.4830000400543213,learn,58516.99995994568,Tue Sep 02 2025 09:16:43 GMT-0500 (Central Daylight Time),281514.39999997616,A,tow,I,w,154,1,1482.7000000476837,280031.6999999285,8058,WL,C,1.0
2,1.6159999370574951,learn,58384.000062942505,Tue Sep 02 2025 09:16:43 GMT-0500 (Central Daylight Time),281647.7999999523,A,towe,I,e,115,1,1616.1000000238419,280031.6999999285,8058,WL,C,1.0
2,1.7999999523162842,learn,58200.000047683716,Tue Sep 02 2025 09:16:43 GMT-0500 (Central Daylight Time),281831.10000002384,A,tower,I,r,173,1,1799.4000000953674,280031.6999999285,8058,WL,C,1.0
2,2.999000072479248,learn,57000.99992752075,Tue Sep 02 2025 09:16:43 GMT-0500 (Central Daylight Time),283030.6999999285,A,towerenter,I,enter,1182,1,2999.0,280031.6999999285,8058,WL,C,1.0
2,4.148999929428101,learn,55851.0000705719,Tue Sep 02 2025 09:16:43 GMT-0500 (Central Daylight Time),284180.39999997616,A,w,I,w,1135,1,1149.5,283030.89999997616,8058,WL,C,2.0
2,4.414999961853027,learn,55585.00003814697,Tue Sep 02 2025 09:16:43 GMT-0500 (Central Daylight Time),284446.89999997616,A,wh,I,h,256,1,1416.0,283030.89999997616,8058,WL,C,2.0
2,4.582000017166138,learn,55417.99998283386,Tue Sep 02 2025 09:16:43 GMT-0500 (Central Daylight Time),284613.60000002384,A,whe,I,e,151,1,1582.7000000476837,283030.89999997616,8058,WL,C,2.0
2,4.698999881744385,learn,55301.000118255615,Tue Sep 02 2025 09:16:43 GMT-0500 (Central Daylight Time),284730.1999999285,A,whea,I,a,104,1,1699.2999999523163,283030.89999997616,8058,WL,C,2.0
2,5.065000057220459,learn,54934.99994277954,Tue Sep 02 2025 09:16:43 GMT-0500 (Central Daylight Time),285096.89999997616,A,wheat,I,t,355,1,2066.0,283030.89999997616,8058,WL,C,2.0
2,5.747999906539917,learn,54252.00009346008,Tue Sep 02 2025 09:16:43 GMT-0500 (Central Daylight Time),285779.89999997616,A,wheatenter,I,enter,669,1,2749.0,283030.89999997616,8058,WL,C,2.0
2,6.430999994277954,learn,53569.000005722046,Tue Sep 02 2025 09:16:43 GMT-0500 (Central Daylight Time),286463.0,A,q,I,q,666,1,682.8000000715256,285780.1999999285,8058,WL,C,3.0
2,6.648000001907349,learn,53351.99999809265,Tue Sep 02 2025 09:16:43 GMT-0500 (Central Daylight Time),286679.5,A,qu,I,u,199,1,899.3000000715256,285780.1999999285,8058,WL,C,3.0
2,6.797999858856201,learn,53202.0001411438,Tue Sep 02 2025 09:16:43 GMT-0500 (Central Daylight Time),286829.5,A,que,I,e,134,1,1049.3000000715256,285780.1999999285,8058,WL,C,3.0
2,6.997999906539917,learn,53002.00009346008,Tue Sep 02 2025 09:16:43 GMT-0500 (Central Daylight Time),287029.39999997616,A,quee,I,e,192,1,1249.2000000476837,285780.1999999285,8058,WL,C,3.0
2,7.414000034332275,learn,52585.999965667725,Tue Sep 02 2025 09:16:43 GMT-0500 (Central Daylight Time),287445.7999999523,A,queen,I,n,408,1,1665.6000000238419,285780.1999999285,8058,WL,C,3.0
2,8.680999994277954,learn,51319.000005722046,Tue Sep 02 2025 09:16:43 GMT-0500 (Central Daylight Time),288712.10000002384,A,queenenter,I,enter,1256,1,2931.9000000953674,285780.1999999285,8058,WL,C,3.0
2,10.829999923706055,learn,49170.000076293945,Tue Sep 02 2025 09:16:43 GMT-0500 (Central Daylight Time),290861.5,A,b,I,b,2133,1,2149.100000023842,288712.39999997616,8058,WL,C,4.0
2,11.02999997138977,learn,48970.00002861023,Tue Sep 02 2025 09:16:43 GMT-0500 (Central Daylight Time),291061.5,A,bo,I,o,184,1,2349.100000023842,288712.39999997616,8058,WL,C,4.0
2,11.148000001907349,learn,48851.99999809265,Tue Sep 02 2025 09:16:43 GMT-0500 (Central Daylight Time),291179.2999999523,A,bod,I,d,104,1,2466.899999976158,288712.39999997616,8058,WL,C,4.0
2,11.52999997138977,learn,48470.00002861023,Tue Sep 02 2025 09:16:43 GMT-0500 (Central Daylight Time),291561.5,A,body,I,y,362,1,2849.100000023842,288712.39999997616,8058,WL,C,4.0
2,12.079999923706055,learn,47920.000076293945,Tue Sep 02 2025 09:16:43 GMT-0500 (Central Daylight Time),292111.10000002384,A,bodyenter,I,enter,532,1,3398.7000000476837,288712.39999997616,8058,WL,C,4.0
2,12.529000043869019,learn,47470.99995613098,Tue Sep 02 2025 09:16:43 GMT-0500 (Central Daylight Time),292560.89999997616,A,n,I,n,430,1,449.5,292111.39999997616,8058,WL,C,5.0
2,12.69599986076355,learn,47304.00013923645,Tue Sep 02 2025 09:16:43 GMT-0500 (Central Daylight Time),292727.60000002384,A,na,I,a,149,1,616.2000000476837,292111.39999997616,8058,WL,C,5.0
2,12.94599986076355,learn,47054.00013923645,Tue Sep 02 2025 09:16:43 GMT-0500 (Central Daylight Time),292977.89999997616,A,nai,I,i,239,1,866.5,292111.39999997616,8058,WL,C,5.0
2,13.345999956130981,learn,46654.00004386902,Tue Sep 02 2025 09:16:43 GMT-0500 (Central Daylight Time),293377.60000002384,A,nail,I,l,388,1,1266.2000000476837,292111.39999997616,8058,WL,C,5.0
2,13.928999900817871,learn,46071.00009918213,Tue Sep 02 2025 09:16:43 GMT-0500 (Central Daylight Time),293960.39999997616,A,nailenter,I,enter,572,1,1849.0,292111.39999997616,8058,WL,C,5.0
2,15.046000003814697,learn,44953.9999961853,Tue Sep 02 2025 09:16:43 GMT-0500 (Central Daylight Time),295077.10000002384,A,l,I,l,1101,1,1116.3000000715256,293960.7999999523,8058,WL,C,6.0
2,15.229000091552734,learn,44770.999908447266,Tue Sep 02 2025 09:16:43 GMT-0500 (Central Daylight Time),295260.5,A,le,I,e,167,1,1299.7000000476837,293960.7999999523,8058,WL,C,6.0
2,15.378000020980835,learn,44621.999979019165,Tue Sep 02 2025 09:16:43 GMT-0500 (Central Daylight Time),295409.7999999523,A,let,I,t,145,1,1449.0,293960.7999999523,8058,WL,C,6.0
2,15.57800006866455,learn,44421.99993133545,Tue Sep 02 2025 09:16:43 GMT-0500 (Central Daylight Time),295610.0,A,lett,I,t,196,1,1649.2000000476837,293960.7999999523,8058,WL,C,6.0
2,15.795000076293945,learn,44204.999923706055,Tue Sep 02 2025 09:16:43 GMT-0500 (Central Daylight Time),295826.60000002384,A,lette,I,e,204,1,1865.8000000715256,293960.7999999523,8058,WL,C,6.0
2,15.961999893188477,learn,44038.00010681152,Tue Sep 02 2025 09:16:43 GMT-0500 (Central Daylight Time),295993.5,A,letter,I,r,146,1,2032.7000000476837,293960.7999999523,8058,WL,C,6.0
2,16.461999893188477,learn,43538.00010681152,Tue Sep 02 2025 09:16:43 GMT-0500 (Central Daylight Time),296493.39999997616,A,letterenter,I,enter,484,1,2532.600000023842,293960.7999999523,8058,WL,C,6.0
2,16.977999925613403,learn,43022.0000743866,Tue Sep 02 2025 09:16:43 GMT-0500 (Central Daylight Time),297009.7999999523,A,b,I,b,496,1,516.0,296493.7999999523,8058,WL,C,7.0
2,17.26099991798401,learn,42739.00008201599,Tue Sep 02 2025 09:16:43 GMT-0500 (Central Daylight Time),297292.89999997616,A,bo,I,o,267,1,799.1000000238419,296493.7999999523,8058,WL,C,7.0
2,17.545000076293945,learn,42454.999923706055,Tue Sep 02 2025 09:16:43 GMT-0500 (Central Daylight Time),297576.1999999285,A,boy,I,y,265,1,1082.3999999761581,296493.7999999523,8058,WL,C,7.0
2,18.111000061035156,learn,41888.999938964844,Tue Sep 02 2025 09:16:43 GMT-0500 (Central Daylight Time),298142.6999999285,A,boyenter,I,enter,549,1,1648.8999999761581,296493.7999999523,8058,WL,C,7.0
2,18.64400005340576,learn,41355.99994659424,Tue Sep 02 2025 09:16:43 GMT-0500 (Central Daylight Time),298675.60000002384,A,h,I,h,526,1,532.6000000238419,298143.0,8058,WL,C,8.0
2,18.776999950408936,learn,41223.000049591064,Tue Sep 02 2025 09:16:43 GMT-0500 (Central Daylight Time),298809.0,A,ho,I,o,122,1,666.0,298143.0,8058,WL,C,8.0
2,18.977999925613403,learn,41022.0000743866,Tue Sep 02 2025 09:16:43 GMT-0500 (Central Daylight Time),299009.5,A,hom,I,m,180,1,866.5,298143.0,8058,WL,C,8.0
2,19.24399995803833,learn,40756.00004196167,Tue Sep 02 2025 09:16:43 GMT-0500 (Central Daylight Time),299275.5,A,home,I,e,252,1,1132.5,298143.0,8058,WL,C,8.0
2,19.927000045776367,learn,40072.99995422363,Tue Sep 02 2025 09:16:43 GMT-0500 (Central Daylight Time),299958.89999997616,A,homeenter,I,enter,674,1,1815.8999999761581,298143.0,8058,WL,C,8.0
2,20.526999950408936,learn,39473.000049591064,Tue Sep 02 2025 09:16:43 GMT-0500 (Central Daylight Time),300558.5,A,d,I,d,591,1,599.3000000715256,299959.1999999285,8058,WL,C,9.0
2,20.710000038146973,learn,39289.99996185303,Tue Sep 02 2025 09:16:43 GMT-0500 (Central Daylight Time),300741.6999999285,A,do,I,o,175,1,782.5,299959.1999999285,8058,WL,C,9.0
2,20.927000045776367,learn,39072.99995422363,Tue Sep 02 2025 09:16:43 GMT-0500 (Central Daylight Time),300958.39999997616,A,doc,I,c,208,1,999.2000000476837,299959.1999999285,8058,WL,C,9.0
2,21.193000078201294,learn,38806.999921798706,Tue Sep 02 2025 09:16:43 GMT-0500 (Central Daylight Time),301224.89999997616,A,doct,I,t,255,1,1265.7000000476837,299959.1999999285,8058,WL,C,9.0
2,21.39299988746643,learn,38607.00011253357,Tue Sep 02 2025 09:16:43 GMT-0500 (Central Daylight Time),301424.89999997616,A,docto,I,o,189,1,1465.7000000476837,299959.1999999285,8058,WL,C,9.0
2,21.575999975204468,learn,38424.00002479553,Tue Sep 02 2025 09:16:43 GMT-0500 (Central Daylight Time),301608.0,A,doctor,I,r,165,1,1648.8000000715256,299959.1999999285,8058,WL,C,9.0
2,22.009999990463257,learn,37990.00000953674,Tue Sep 02 2025 09:16:43 GMT-0500 (Central Daylight Time),302041.2999999523,A,doctorenter,I,enter,412,1,2082.100000023842,299959.1999999285,8058,WL,C,9.0
2,22.542999982833862,learn,37457.00001716614,Tue Sep 02 2025 09:16:43 GMT-0500 (Central Daylight Time),302574.5,A,c,I,c,516,1,532.8000000715256,302041.6999999285,8058,WL,C,10.0
2,22.69000005722046,learn,37309.99994277954,Tue Sep 02 2025 09:16:43 GMT-0500 (Central Daylight Time),302721.89999997616,A,ca,I,a,143,1,680.2000000476837,302041.6999999285,8058,WL,C,10.0
2,22.836999893188477,learn,37163.00010681152,Tue Sep 02 2025 09:16:43 GMT-0500 (Central Daylight Time),302869.1999999285,A,cam,I,m,143,1,827.5,302041.6999999285,8058,WL,C,10.0
2,23.026000022888184,learn,36973.99997711182,Tue Sep 02 2025 09:16:43 GMT-0500 (Central Daylight Time),303057.89999997616,A,camp,I,p,176,1,1016.2000000476837,302041.6999999285,8058,WL,C,10.0
2,23.55900001525879,learn,36440.99998474121,Tue Sep 02 2025 09:16:43 GMT-0500 (Central Daylight Time),303590.7999999523,A,campenter,I,enter,524,1,1549.1000000238419,302041.6999999285,8058,WL,C,10.0
2,24.092000007629395,learn,35907.999992370605,Tue Sep 02 2025 09:16:43 GMT-0500 (Central Daylight Time),304123.89999997616,A,c,I,c,519,1,532.7000000476837,303591.1999999285,8058,WL,C,11.0
2,24.241999864578247,learn,35758.00013542175,Tue Sep 02 2025 09:16:43 GMT-0500 (Central Daylight Time),304273.7999999523,A,co,I,o,129,1,682.6000000238419,303591.1999999285,8058,WL,C,11.0
2,24.39199995994568,learn,35608.00004005432,Tue Sep 02 2025 09:16:43 GMT-0500 (Central Daylight Time),304424.0,A,cor,I,r,132,1,832.8000000715256,303591.1999999285,8058,WL,C,11.0
2,24.526000022888184,learn,35473.99997711182,Tue Sep 02 2025 09:16:43 GMT-0500 (Central Daylight Time),304557.5,A,core,I,e,126,1,966.3000000715256,303591.1999999285,8058,WL,C,11.0
2,25.092000007629395,learn,34907.999992370605,Tue Sep 02 2025 09:16:43 GMT-0500 (Central Daylight Time),305123.6999999285,A,cor,I,backspace,560,1,1532.5,303591.1999999285,8058,WL,C,11.0
2,25.424999952316284,learn,34575.000047683716,Tue Sep 02 2025 09:16:43 GMT-0500 (Central Daylight Time),305457.0,A,corn,I,n,314,1,1865.8000000715256,303591.1999999285,8058,WL,C,11.0
2,25.825000047683716,learn,34174.999952316284,Tue Sep 02 2025 09:16:43 GMT-0500 (Central Daylight Time),305856.60000002384,A,cornenter,I,enter,389,1,2265.4000000953674,303591.1999999285,8058,WL,C,11.0
2,26.674999952316284,learn,33325.000047683716,Tue Sep 02 2025 09:16:43 GMT-0500 (Central Daylight Time),306706.39999997616,A,s,I,s,846,1,849.7000000476837,305856.6999999285,8058,WL,C,12.0
2,26.825000047683716,learn,33174.999952316284,Tue Sep 02 2025 09:16:43 GMT-0500 (Central Daylight Time),306856.5,A,sh,I,h,139,1,999.8000000715256,305856.6999999285,8058,WL,C,12.0
2,26.924999952316284,learn,33075.000047683716,Tue Sep 02 2025 09:16:43 GMT-0500 (Central Daylight Time),306956.39999997616,A,sho,I,o,93,1,1099.7000000476837,305856.6999999285,8058,WL,C,12.0
2,27.157999992370605,learn,32842.000007629395,Tue Sep 02 2025 09:16:43 GMT-0500 (Central Daylight Time),307189.7999999523,A,shoe,I,e,217,1,1333.1000000238419,305856.6999999285,8058,WL,C,12.0
2,28.007999897003174,learn,31992.000102996826,Tue Sep 02 2025 09:16:43 GMT-0500 (Central Daylight Time),308039.5,A,sho,I,backspace,832,1,2182.8000000715256,305856.6999999285,8058,WL,C,12.0
2,28.19099998474121,learn,31809.00001525879,Tue Sep 02 2025 09:16:43 GMT-0500 (Central Daylight Time),308222.7999999523,A,sh,I,backspace,174,1,2366.100000023842,305856.6999999285,8058,WL,C,12.0
2,28.823999881744385,learn,31176.000118255615,Tue Sep 02 2025 09:16:43 GMT-0500 (Central Daylight Time),308855.89999997616,A,sho,I,o,623,1,2999.2000000476837,305856.6999999285,8058,WL,C,12.0
2,29.04099988937378,learn,30959.00011062622,Tue Sep 02 2025 09:16:43 GMT-0500 (Central Daylight Time),309072.89999997616,A,shor,I,r,198,1,3216.2000000476837,305856.6999999285,8058,WL,C,12.0
2,29.124000072479248,learn,30875.999927520752,Tue Sep 02 2025 09:16:43 GMT-0500 (Central Daylight Time),309155.7999999523,A,shore,I,e,69,1,3299.100000023842,305856.6999999285,8058,WL,C,12.0
2,29.907000064849854,learn,30092.999935150146,Tue Sep 02 2025 09:16:43 GMT-0500 (Central Daylight Time),309939.0,A,shoreenter,I,enter,769,1,4082.3000000715256,305856.6999999285,8058,WL,C,12.0
2,32.50600004196167,learn,27493.99995803833,Tue Sep 02 2025 09:16:43 GMT-0500 (Central Daylight Time),312538.1999999285,A,n,I,n,2588,1,2598.899999976158,309939.2999999523,8058,WL,C,13.0
2,33.40599989891052,learn,26594.000101089478,Tue Sep 02 2025 09:16:43 GMT-0500 (Central Daylight Time),313437.6999999285,A,,I,backspace,891,1,3498.399999976158,309939.2999999523,8058,WL,C,13.0
2,34.956000089645386,learn,25043.999910354614,Tue Sep 02 2025 09:16:43 GMT-0500 (Central Daylight Time),314987.2999999523,A,f,I,f,1536,1,5048.0,309939.2999999523,8058,WL,C,13.0
2,35.08899998664856,learn,24911.00001335144,Tue Sep 02 2025 09:16:43 GMT-0500 (Central Daylight Time),315120.7999999523,A,fl,I,l,122,1,5181.5,309939.2999999523,8058,WL,C,13.0
2,35.18899989128113,learn,24811.000108718872,Tue Sep 02 2025 09:16:43 GMT-0500 (Central Daylight Time),315220.5,A,fla,I,a,93,1,5281.200000047684,309939.2999999523,8058,WL,C,13.0
2,35.48900008201599,learn,24510.99991798401,Tue Sep 02 2025 09:16:43 GMT-0500 (Central Daylight Time),315520.60000002384,A,flag,I,g,281,1,5581.300000071526,309939.2999999523,8058,WL,C,13.0
2,35.954999923706055,learn,24045.000076293945,Tue Sep 02 2025 09:16:43 GMT-0500 (Central Daylight Time),315987.0,A,flagenter,I,enter,453,1,6047.700000047684,309939.2999999523,8058,WL,C,13.0
2,36.787999868392944,learn,23212.000131607056,Tue Sep 02 2025 09:16:43 GMT-0500 (Central Daylight Time),316820.0,A,c,I,c,819,1,832.7000000476837,315987.2999999523,8058,WL,C,14.0
2,36.88800001144409,learn,23111.99998855591,Tue Sep 02 2025 09:16:43 GMT-0500 (Central Daylight Time),316920.1999999285,A,ca,I,a,90,1,932.8999999761581,315987.2999999523,8058,WL,C,14.0
2,36.98799991607666,learn,23012.00008392334,Tue Sep 02 2025 09:16:43 GMT-0500 (Central Daylight Time),317020.0,A,cam,I,m,93,1,1032.7000000476837,315987.2999999523,8058,WL,C,14.0
2,37.13800001144409,learn,22861.99998855591,Tue Sep 02 2025 09:16:43 GMT-0500 (Central Daylight Time),317169.7999999523,A,camp,I,p,146,1,1182.5,315987.2999999523,8058,WL,C,14.0
2,37.537999868392944,learn,22462.000131607056,Tue Sep 02 2025 09:16:43 GMT-0500 (Central Daylight Time),317569.6999999285,A,campenter,I,enter,388,1,1582.3999999761581,315987.2999999523,8058,WL,C,14.0
2,45.10199999809265,learn,14898.000001907349,Tue Sep 02 2025 09:16:43 GMT-0500 (Central Daylight Time),325134.10000002384,A,enter,I,enter,7556,1,7564.100000023842,317570.0,8058,WL,C,15.0
3,1.4660000801086426,learn,58533.99991989136,Tue Sep 02 2025 09:16:43 GMT-0500 (Central Daylight Time),395795.1999999285,A,t,I,t,1453,1,1465.8999999761581,394329.2999999523,8058,WL,C,1.0
3,1.6159999370574951,learn,58384.000062942505,Tue Sep 02 2025 09:16:43 GMT-0500 (Central Daylight Time),395945.2999999523,A,to,I,o,138,1,1616.0,394329.2999999523,8058,WL,C,1.0
3,1.75,learn,58250.0,Tue Sep 02 2025 09:16:43 GMT-0500 (Central Daylight Time),396078.7999999523,A,tow,I,w,116,1,1749.5,394329.2999999523,8058,WL,C,1.0
3,1.8659999370574951,learn,58134.000062942505,Tue Sep 02 2025 09:16:43 GMT-0500 (Central Daylight Time),396195.1999999285,A,towe,I,e,102,1,1865.8999999761581,394329.2999999523,8058,WL,C,1.0
3,2.0829999446868896,learn,57917.00005531311,Tue Sep 02 2025 09:16:43 GMT-0500 (Central Daylight Time),396411.6999999285,A,tower,I,r,202,1,2082.399999976158,394329.2999999523,8058,WL,C,1.0
3,3.131999969482422,learn,56868.00003051758,Tue Sep 02 2025 09:16:43 GMT-0500 (Central Daylight Time),397461.10000002384,A,towerenter,I,enter,1042,1,3131.8000000715256,394329.2999999523,8058,WL,C,1.0
3,4.232000112533569,learn,55767.99988746643,Tue Sep 02 2025 09:16:43 GMT-0500 (Central Daylight Time),398561.0,A,w,I,w,1079,1,1099.5,397461.5,8058,WL,C,2.0
3,4.398999929428101,learn,55601.0000705719,Tue Sep 02 2025 09:16:43 GMT-0500 (Central Daylight Time),398727.7999999523,A,wh,I,h,149,1,1266.2999999523163,397461.5,8058,WL,C,2.0
3,4.715000152587891,learn,55284.99984741211,Tue Sep 02 2025 09:16:43 GMT-0500 (Central Daylight Time),399044.39999997616,A,whe,I,e,302,1,1582.8999999761581,397461.5,8058,WL,C,2.0
3,4.881999969482422,learn,55118.00003051758,Tue Sep 02 2025 09:16:43 GMT-0500 (Central Daylight Time),399210.6999999285,A,whea,I,a,160,1,1749.1999999284744,397461.5,8058,WL,C,2.0
3,5.115000009536743,learn,54884.99999046326,Tue Sep 02 2025 09:16:43 GMT-0500 (Central Daylight Time),399444.2999999523,A,wheat,I,t,220,1,1982.7999999523163,397461.5,8058,WL,C,2.0
3,6.365000009536743,learn,53634.99999046326,Tue Sep 02 2025 09:16:43 GMT-0500 (Central Daylight Time),400693.60000002384,A,wheatenter,I,enter,1233,1,3232.100000023842,397461.5,8058,WL,C,2.0
3,6.765000104904175,learn,53234.999895095825,Tue Sep 02 2025 09:16:43 GMT-0500 (Central Daylight Time),401093.39999997616,A,q,I,q,392,1,399.5,400693.89999997616,8058,WL,C,3.0
3,6.980999946594238,learn,53019.00005340576,Tue Sep 02 2025 09:16:43 GMT-0500 (Central Daylight Time),401310.1999999285,A,qu,I,u,200,1,616.2999999523163,400693.89999997616,8058,WL,C,3.0
3,7.180999994277954,learn,52819.000005722046,Tue Sep 02 2025 09:16:43 GMT-0500 (Central Daylight Time),401510.10000002384,A,que,I,e,183,1,816.2000000476837,400693.89999997616,8058,WL,C,3.0
3,7.398000001907349,learn,52601.99999809265,Tue Sep 02 2025 09:16:43 GMT-0500 (Central Daylight Time),401727.0,A,quee,I,e,199,1,1033.1000000238419,400693.89999997616,8058,WL,C,3.0
3,7.664999961853027,learn,52335.00003814697,Tue Sep 02 2025 09:16:43 GMT-0500 (Central Daylight Time),401993.5,A,queen,I,n,247,1,1299.6000000238419,400693.89999997616,8058,WL,C,3.0
3,8.496999979019165,learn,51503.000020980835,Tue Sep 02 2025 09:16:43 GMT-0500 (Central Daylight Time),402826.2999999523,A,queenenter,I,enter,828,1,2132.399999976158,400693.89999997616,8058,WL,C,3.0
3,9.397000074386597,learn,50602.9999256134,Tue Sep 02 2025 09:16:43 GMT-0500 (Central Daylight Time),403726.10000002384,A,s,I,s,883,1,899.5,402826.60000002384,8058,WL,C,4.0
3,9.580000162124634,learn,50419.999837875366,Tue Sep 02 2025 09:16:43 GMT-0500 (Central Daylight Time),403909.1999999285,A,su,I,u,167,1,1082.5999999046326,402826.60000002384,8058,WL,C,4.0
3,9.814000129699707,learn,50185.99987030029,Tue Sep 02 2025 09:16:43 GMT-0500 (Central Daylight Time),404142.6999999285,A,sug,I,g,216,1,1316.0999999046326,402826.60000002384,8058,WL,C,4.0
3,9.996999979019165,learn,50003.000020980835,Tue Sep 02 2025 09:16:43 GMT-0500 (Central Daylight Time),404326.10000002384,A,suga,I,a,175,1,1499.5,402826.60000002384,8058,WL,C,4.0
3,10.19700002670288,learn,49802.99997329712,Tue Sep 02 2025 09:16:43 GMT-0500 (Central Daylight Time),404525.7999999523,A,sugar,I,r,191,1,1699.1999999284744,402826.60000002384,8058,WL,C,4.0
3,11.27999997138977,learn,48720.00002861023,Tue Sep 02 2025 09:16:43 GMT-0500 (Central Daylight Time),405609.0,A,sugarenter,I,enter,1072,1,2782.399999976158,402826.60000002384,8058,WL,C,4.0
3,12.446000099182129,learn,47553.99990081787,Tue Sep 02 2025 09:16:43 GMT-0500 (Central Daylight Time),406775.1999999285,A,b,I,b,1149,1,1165.8999999761581,405609.2999999523,8058,WL,C,5.0
3,12.646000146865845,learn,47353.999853134155,Tue Sep 02 2025 09:16:43 GMT-0500 (Central Daylight Time),406975.1999999285,A,bo,I,o,182,1,1365.8999999761581,405609.2999999523,8058,WL,C,5.0
3,12.92900013923645,learn,47070.99986076355,Tue Sep 02 2025 09:16:43 GMT-0500 (Central Daylight Time),407258.39999997616,A,boy,I,y,271,1,1649.1000000238419,405609.2999999523,8058,WL,C,5.0
3,13.396000146865845,learn,46603.999853134155,Tue Sep 02 2025 09:16:43 GMT-0500 (Central Daylight Time),407724.7999999523,A,boyenter,I,enter,452,1,2115.5,405609.2999999523,8058,WL,C,5.0
3,18.794000148773193,learn,41205.99985122681,Tue Sep 02 2025 09:16:43 GMT-0500 (Central Daylight Time),413123.1999999285,A,c,I,c,5385,1,5398.0,407725.1999999285,8058,WL,C,6.0
3,18.97699999809265,learn,41023.00000190735,Tue Sep 02 2025 09:16:43 GMT-0500 (Central Daylight Time),413306.2999999523,A,co,I,o,162,1,5581.100000023842,407725.1999999285,8058,WL,C,6.0
3,19.17799997329712,learn,40822.00002670288,Tue Sep 02 2025 09:16:43 GMT-0500 (Central Daylight Time),413506.39999997616,A,cor,I,r,195,1,5781.200000047684,407725.1999999285,8058,WL,C,6.0
3,19.444000005722046,learn,40555.999994277954,Tue Sep 02 2025 09:16:43 GMT-0500 (Central Daylight Time),413773.0,A,corn,I,n,260,1,6047.800000071526,407725.1999999285,8058,WL,C,6.0
3,20.094000101089478,learn,39905.99989891052,Tue Sep 02 2025 09:16:43 GMT-0500 (Central Daylight Time),414422.89999997616,A,cornenter,I,enter,640,1,6697.700000047684,407725.1999999285,8058,WL,C,6.0
3,21.127000093460083,learn,38872.99990653992,Tue Sep 02 2025 09:16:43 GMT-0500 (Central Daylight Time),415455.60000002384,A,d,I,d,1015,1,1032.3000000715256,414423.2999999523,8058,WL,C,7.0
3,21.24399995803833,learn,38756.00004196167,Tue Sep 02 2025 09:16:43 GMT-0500 (Central Daylight Time),415572.2999999523,A,do,I,o,110,1,1149.0,414423.2999999523,8058,WL,C,7.0
3,21.41000008583069,learn,38589.99991416931,Tue Sep 02 2025 09:16:43 GMT-0500 (Central Daylight Time),415738.6999999285,A,doc,I,c,161,1,1315.3999999761581,414423.2999999523,8058,WL,C,7.0
3,21.64400005340576,learn,38355.99994659424,Tue Sep 02 2025 09:16:43 GMT-0500 (Central Daylight Time),415972.39999997616,A,doct,I,t,227,1,1549.1000000238419,414423.2999999523,8058,WL,C,7.0
3,21.792999982833862,learn,38207.00001716614,Tue Sep 02 2025 09:16:43 GMT-0500 (Central Daylight Time),416122.10000002384,A,docto,I,o,137,1,1698.8000000715256,414423.2999999523,8058,WL,C,7.0
3,21.97699999809265,learn,38023.00000190735,Tue Sep 02 2025 09:16:43 GMT-0500 (Central Daylight Time),416305.6999999285,A,doctor,I,r,164,1,1882.3999999761581,414423.2999999523,8058,WL,C,7.0
3,22.427000045776367,learn,37572.99995422363,Tue Sep 02 2025 09:16:43 GMT-0500 (Central Daylight Time),416755.60000002384,A,doctorenter,I,enter,436,1,2332.3000000715256,414423.2999999523,8058,WL,C,7.0
3,23.693000078201294,learn,36306.999921798706,Tue Sep 02 2025 09:16:43 GMT-0500 (Central Daylight Time),418021.6999999285,A,l,I,l,1258,1,1265.7999999523163,416755.89999997616,8058,WL,C,8.0
3,23.875999927520752,learn,36124.00007247925,Tue Sep 02 2025 09:16:43 GMT-0500 (Central Daylight Time),418205.10000002384,A,le,I,e,168,1,1449.2000000476837,416755.89999997616,8058,WL,C,8.0
3,24.026000022888184,learn,35973.99997711182,Tue Sep 02 2025 09:16:43 GMT-0500 (Central Daylight Time),418354.7999999523,A,let,I,t,136,1,1598.8999999761581,416755.89999997616,8058,WL,C,8.0
3,24.242000102996826,learn,35757.999897003174,Tue Sep 02 2025 09:16:43 GMT-0500 (Central Daylight Time),418571.1999999285,A,lett,I,t,211,1,1815.2999999523163,416755.89999997616,8058,WL,C,8.0
3,24.492000102996826,learn,35507.999897003174,Tue Sep 02 2025 09:16:43 GMT-0500 (Central Daylight Time),418821.39999997616,A,lette,I,e,235,1,2065.5,416755.89999997616,8058,WL,C,8.0
3,24.692000150680542,learn,35307.99984931946,Tue Sep 02 2025 09:16:43 GMT-0500 (Central Daylight Time),419021.39999997616,A,letter,I,r,184,1,2265.5,416755.89999997616,8058,WL,C,8.0
3,25.575000047683716,learn,34424.999952316284,Tue Sep 02 2025 09:16:43 GMT-0500 (Central Daylight Time),419904.60000002384,A,letterenter,I,enter,872,1,3148.7000000476837,416755.89999997616,8058,WL,C,8.0
3,26.432000160217285,learn,33567.999839782715,Tue Sep 02 2025 09:16:43 GMT-0500 (Central Daylight Time),420761.1999999285,A,s,I,s,852,1,856.3999999761581,419904.7999999523,8058,WL,C,9.0
3,26.54100012779236,learn,33458.99987220764,Tue Sep 02 2025 09:16:43 GMT-0500 (Central Daylight Time),420870.5,A,su,I,u,100,1,965.7000000476837,419904.7999999523,8058,WL,C,9.0
3,26.77500009536743,learn,33224.99990463257,Tue Sep 02 2025 09:16:43 GMT-0500 (Central Daylight Time),421103.89999997616,A,sug,I,g,223,1,1199.1000000238419,419904.7999999523,8058,WL,C,9.0
3,26.924999952316284,learn,33075.000047683716,Tue Sep 02 2025 09:16:43 GMT-0500 (Central Daylight Time),421253.89999997616,A,suga,I,a,134,1,1349.1000000238419,419904.7999999523,8058,WL,C,9.0
3,27.157999992370605,learn,32842.000007629395,Tue Sep 02 2025 09:16:43 GMT-0500 (Central Daylight Time),421487.2999999523,A,sugar,I,r,216,1,1582.5,419904.7999999523,8058,WL,C,9.0
3,27.924000024795532,learn,32075.999975204468,Tue Sep 02 2025 09:16:43 GMT-0500 (Central Daylight Time),422253.5,A,sugarenter,I,enter,750,1,2348.7000000476837,419904.7999999523,8058,WL,C,9.0
3,29.457000017166138,learn,30542.999982833862,Tue Sep 02 2025 09:16:43 GMT-0500 (Central Daylight Time),423786.5,A,f,I,f,1528,1,1532.6000000238419,422253.89999997616,8058,WL,C,10.0
3,29.624000072479248,learn,30375.999927520752,Tue Sep 02 2025 09:16:43 GMT-0500 (Central Daylight Time),423953.1999999285,A,fl,I,l,155,1,1699.2999999523163,422253.89999997616,8058,WL,C,10.0
3,29.723999977111816,learn,30276.000022888184,Tue Sep 02 2025 09:16:43 GMT-0500 (Central Daylight Time),424052.89999997616,A,fla,I,a,92,1,1799.0,422253.89999997616,8058,WL,C,10.0
3,29.990999937057495,learn,30009.000062942505,Tue Sep 02 2025 09:16:43 GMT-0500 (Central Daylight Time),424319.89999997616,A,flag,I,g,257,1,2066.0,422253.89999997616,8058,WL,C,10.0
3,30.34000015258789,learn,29659.99984741211,Tue Sep 02 2025 09:16:43 GMT-0500 (Central Daylight Time),424669.60000002384,A,flagenter,I,enter,334,1,2415.7000000476837,422253.89999997616,8058,WL,C,10.0
3,31.057000160217285,learn,28942.999839782715,Tue Sep 02 2025 09:16:43 GMT-0500 (Central Daylight Time),425386.10000002384,A,c,I,c,696,1,716.2000000476837,424669.89999997616,8058,WL,C,11.0
3,31.19000005722046,learn,28809.99994277954,Tue Sep 02 2025 09:16:43 GMT-0500 (Central Daylight Time),425519.10000002384,A,ca,I,a,124,1,849.2000000476837,424669.89999997616,8058,WL,C,11.0
3,31.341000080108643,learn,28658.999919891357,Tue Sep 02 2025 09:16:43 GMT-0500 (Central Daylight Time),425670.10000002384,A,cam,I,m,143,1,1000.2000000476837,424669.89999997616,8058,WL,C,11.0
3,31.557000160217285,learn,28442.999839782715,Tue Sep 02 2025 09:16:43 GMT-0500 (Central Daylight Time),425885.89999997616,A,camp,I,p,208,1,1216.0,424669.89999997616,8058,WL,C,11.0
3,32.00699996948242,learn,27993.000030517578,Tue Sep 02 2025 09:16:43 GMT-0500 (Central Daylight Time),426335.89999997616,A,campenter,I,enter,440,1,1666.0,424669.89999997616,8058,WL,C,11.0
3,33.25600004196167,learn,26743.99995803833,Tue Sep 02 2025 09:16:43 GMT-0500 (Central Daylight Time),427585.1999999285,A,c,I,c,1238,1,1249.0,426336.1999999285,8058,WL,C,12.0
3,33.43900012969971,learn,26560.999870300293,Tue Sep 02 2025 09:16:43 GMT-0500 (Central Daylight Time),427768.6999999285,A,co,I,o,164,1,1432.5,426336.1999999285,8058,WL,C,12.0
3,33.57299995422363,learn,26427.000045776367,Tue Sep 02 2025 09:16:43 GMT-0500 (Central Daylight Time),427901.7999999523,A,cor,I,r,125,1,1565.6000000238419,426336.1999999285,8058,WL,C,12.0
3,33.789000034332275,learn,26210.999965667725,Tue Sep 02 2025 09:16:43 GMT-0500 (Central Daylight Time),428118.5,A,corn,I,n,208,1,1782.3000000715256,426336.1999999285,8058,WL,C,12.0
3,34.33899998664856,learn,25661.00001335144,Tue Sep 02 2025 09:16:43 GMT-0500 (Central Daylight Time),428668.10000002384,A,cornenter,I,enter,543,1,2331.9000000953674,426336.1999999285,8058,WL,C,12.0
3,38.73800015449524,learn,21261.99984550476,Tue Sep 02 2025 09:16:43 GMT-0500 (Central Daylight Time),433066.89999997616,A,c,I,c,4386,1,4398.600000023842,428668.2999999523,8058,WL,C,13.0
3,38.88800001144409,learn,21111.99998855591,Tue Sep 02 2025 09:16:43 GMT-0500 (Central Daylight Time),433216.89999997616,A,ca,I,a,138,1,4548.600000023842,428668.2999999523,8058,WL,C,13.0
3,39.0550000667572,learn,20944.999933242798,Tue Sep 02 2025 09:16:43 GMT-0500 (Central Daylight Time),433383.6999999285,A,cat,I,t,149,1,4715.399999976158,428668.2999999523,8058,WL,C,13.0
3,39.23800015449524,learn,20761.99984550476,Tue Sep 02 2025 09:16:43 GMT-0500 (Central Daylight Time),433566.6999999285,A,catt,I,t,166,1,4898.399999976158,428668.2999999523,8058,WL,C,13.0
3,39.40400004386902,learn,20595.99995613098,Tue Sep 02 2025 09:16:43 GMT-0500 (Central Daylight Time),433733.2999999523,A,cattl,I,l,151,1,5065.0,428668.2999999523,8058,WL,C,13.0
3,39.47099995613098,learn,20529.00004386902,Tue Sep 02 2025 09:16:43 GMT-0500 (Central Daylight Time),433800.2999999523,A,cattle,I,e,47,1,5132.0,428668.2999999523,8058,WL,C,13.0
3,40.28699994087219,learn,19713.000059127808,Tue Sep 02 2025 09:16:43 GMT-0500 (Central Daylight Time),434616.39999997616,A,cattleenter,I,enter,796,1,5948.100000023842,428668.2999999523,8058,WL,C,13.0
3,41.2039999961853,learn,18796.000003814697,Tue Sep 02 2025 09:16:43 GMT-0500 (Central Daylight Time),435532.6999999285,A,s,I,s,910,1,915.8999999761581,434616.7999999523,8058,WL,C,14.0
3,41.3199999332428,learn,18680.000066757202,Tue Sep 02 2025 09:16:43 GMT-0500 (Central Daylight Time),435649.6999999285,A,sh,I,h,96,1,1032.8999999761581,434616.7999999523,8058,WL,C,14.0
3,41.40400004386902,learn,18595.99995613098,Tue Sep 02 2025 09:16:43 GMT-0500 (Central Daylight Time),435732.89999997616,A,sho,I,o,68,1,1116.1000000238419,434616.7999999523,8058,WL,C,14.0
3,41.53699994087219,learn,18463.000059127808,Tue Sep 02 2025 09:16:43 GMT-0500 (Central Daylight Time),435866.2999999523,A,shor,I,r,113,1,1249.5,434616.7999999523,8058,WL,C,14.0
3,41.60300016403198,learn,18396.999835968018,Tue Sep 02 2025 09:16:43 GMT-0500 (Central Daylight Time),435932.5,A,shore,I,e,59,1,1315.7000000476837,434616.7999999523,8058,WL,C,14.0
3,42.22000002861023,learn,17779.99997138977,Tue Sep 02 2025 09:16:43 GMT-0500 (Central Daylight Time),436549.60000002384,A,shoreenter,I,enter,601,1,1932.8000000715256,434616.7999999523,8058,WL,C,14.0
3,43.10300016403198,learn,16896.999835968018,Tue Sep 02 2025 09:16:43 GMT-0500 (Central Daylight Time),437432.39999997616,A,b,I,b,872,1,882.5,436549.89999997616,8058,WL,C,15.0
3,43.28600001335144,learn,16713.99998664856,Tue Sep 02 2025 09:16:43 GMT-0500 (Central Daylight Time),437615.60000002384,A,bo,I,o,165,1,1065.7000000476837,436549.89999997616,8058,WL,C,15.0
3,43.503000020980835,learn,16496.999979019165,Tue Sep 02 2025 09:16:43 GMT-0500 (Central Daylight Time),437832.10000002384,A,bod,I,d,198,1,1282.2000000476837,436549.89999997616,8058,WL,C,15.0
3,43.70300006866455,learn,16296.99993133545,Tue Sep 02 2025 09:16:43 GMT-0500 (Central Daylight Time),438031.89999997616,A,body,I,y,190,1,1482.0,436549.89999997616,8058,WL,C,15.0
3,44.16900014877319,learn,15830.999851226807,Tue Sep 02 2025 09:16:43 GMT-0500 (Central Daylight Time),438498.39999997616,A,bodyenter,I,enter,462,1,1948.5,436549.89999997616,8058,WL,C,15.0
4,2.5160000324249268,learn,57483.99996757507,Tue Sep 02 2025 09:16:43 GMT-0500 (Central Daylight Time),512458.7999999523,A,t,I,t,2503,1,2515.6999999284744,509943.10000002384,8058,WL,C,1.0
4,3.065999984741211,learn,56934.00001525879,Tue Sep 02 2025 09:16:43 GMT-0500 (Central Daylight Time),513008.5,A,to,I,o,530,1,3065.399999976158,509943.10000002384,8058,WL,C,1.0
4,3.865000009536743,learn,56134.99999046326,Tue Sep 02 2025 09:16:43 GMT-0500 (Central Daylight Time),513808.1999999285,A,tow,I,w,781,1,3865.0999999046326,509943.10000002384,8058,WL,C,1.0
4,3.999000072479248,learn,56000.99992752075,Tue Sep 02 2025 09:16:43 GMT-0500 (Central Daylight Time),513941.5,A,towe,I,e,125,1,3998.399999976158,509943.10000002384,8058,WL,C,1.0
4,4.182000160217285,learn,55817.999839782715,Tue Sep 02 2025 09:16:43 GMT-0500 (Central Daylight Time),514124.7999999523,A,tower,I,r,176,1,4181.699999928474,509943.10000002384,8058,WL,C,1.0
4,5.582000017166138,learn,54417.99998283386,Tue Sep 02 2025 09:16:43 GMT-0500 (Central Daylight Time),515524.60000002384,A,towerenter,I,enter,1393,1,5581.5,509943.10000002384,8058,WL,C,1.0
4,6.197999954223633,learn,53802.00004577637,Tue Sep 02 2025 09:16:43 GMT-0500 (Central Daylight Time),516140.39999997616,A,w,I,w,600,1,615.5,515524.89999997616,8058,WL,C,2.0
4,6.3480000495910645,learn,53651.999950408936,Tue Sep 02 2025 09:16:43 GMT-0500 (Central Daylight Time),516290.60000002384,A,wh,I,h,144,1,765.7000000476837,515524.89999997616,8058,WL,C,2.0
4,6.581000089645386,learn,53418.999910354614,Tue Sep 02 2025 09:16:43 GMT-0500 (Central Daylight Time),516524.10000002384,A,whe,I,e,219,1,999.2000000476837,515524.89999997616,8058,WL,C,2.0
4,6.697999954223633,learn,53302.00004577637,Tue Sep 02 2025 09:16:43 GMT-0500 (Central Daylight Time),516640.6999999285,A,whea,I,a,98,1,1115.7999999523163,515524.89999997616,8058,WL,C,2.0
4,6.914999961853027,learn,53085.00003814697,Tue Sep 02 2025 09:16:43 GMT-0500 (Central Daylight Time),516857.39999997616,A,wheat,I,t,195,1,1332.5,515524.89999997616,8058,WL,C,2.0
4,7.465000152587891,learn,52534.99984741211,Tue Sep 02 2025 09:16:43 GMT-0500 (Central Daylight Time),517407.2999999523,A,wheatenter,I,enter,541,1,1882.3999999761581,515524.89999997616,8058,WL,C,2.0
4,7.980999946594238,learn,52019.00005340576,Tue Sep 02 2025 09:16:43 GMT-0500 (Central Daylight Time),517923.6999999285,A,q,I,q,510,1,516.0999999046326,517407.60000002384,8058,WL,C,3.0
4,8.180999994277954,learn,51819.000005722046,Tue Sep 02 2025 09:16:43 GMT-0500 (Central Daylight Time),518123.60000002384,A,qu,I,u,186,1,716.0,517407.60000002384,8058,WL,C,3.0
4,8.364000082015991,learn,51635.99991798401,Tue Sep 02 2025 09:16:43 GMT-0500 (Central Daylight Time),518307.0,A,que,I,e,170,1,899.3999999761581,517407.60000002384,8058,WL,C,3.0
4,8.564000129699707,learn,51435.99987030029,Tue Sep 02 2025 09:16:43 GMT-0500 (Central Daylight Time),518507.0,A,quee,I,e,187,1,1099.3999999761581,517407.60000002384,8058,WL,C,3.0
4,9.21399998664856,learn,50786.00001335144,Tue Sep 02 2025 09:16:43 GMT-0500 (Central Daylight Time),519156.60000002384,A,queen,I,n,635,1,1749.0,517407.60000002384,8058,WL,C,3.0
4,10.44700002670288,learn,49552.99997329712,Tue Sep 02 2025 09:16:43 GMT-0500 (Central Daylight Time),520389.39999997616,A,queenenter,I,enter,1217,1,2981.7999999523163,517407.60000002384,8058,WL,C,3.0
4,11.213000059127808,learn,48786.99994087219,Tue Sep 02 2025 09:16:43 GMT-0500 (Central Daylight Time),521156.0,A,s,I,s,760,1,766.2000000476837,520389.7999999523,8058,WL,C,4.0
4,11.396000146865845,learn,48603.999853134155,Tue Sep 02 2025 09:16:43 GMT-0500 (Central Daylight Time),521339.0,A,su,I,u,178,1,949.2000000476837,520389.7999999523,8058,WL,C,4.0
4,11.77999997138977,learn,48220.00002861023,Tue Sep 02 2025 09:16:43 GMT-0500 (Central Daylight Time),521722.5,A,sug,I,g,379,1,1332.7000000476837,520389.7999999523,8058,WL,C,4.0
4,12.013000011444092,learn,47986.99998855591,Tue Sep 02 2025 09:16:43 GMT-0500 (Central Daylight Time),521955.6999999285,A,suga,I,a,219,1,1565.8999999761581,520389.7999999523,8058,WL,C,4.0
4,12.180000066757202,learn,47819.9999332428,Tue Sep 02 2025 09:16:43 GMT-0500 (Central Daylight Time),522122.5,A,sugar,I,r,154,1,1732.7000000476837,520389.7999999523,8058,WL,C,4.0
4,12.578999996185303,learn,47421.0000038147,Tue Sep 02 2025 09:16:43 GMT-0500 (Central Daylight Time),522522.1999999285,A,sugarenter,I,enter,395,1,2132.399999976158,520389.7999999523,8058,WL,C,4.0
4,13.279000043869019,learn,46720.99995613098,Tue Sep 02 2025 09:16:43 GMT-0500 (Central Daylight Time),523222.0,A,b,I,b,683,1,699.6000000238419,522522.39999997616,8058,WL,C,5.0
4,13.496000051498413,learn,46503.99994850159,Tue Sep 02 2025 09:16:43 GMT-0500 (Central Daylight Time),523438.6999999285,A,bo,I,o,208,1,916.2999999523163,522522.39999997616,8058,WL,C,5.0
4,13.878999948501587,learn,46121.00005149841,Tue Sep 02 2025 09:16:43 GMT-0500 (Central Daylight Time),523822.0,A,boy,I,y,367,1,1299.6000000238419,522522.39999997616,8058,WL,C,5.0
4,14.462000131607056,learn,45537.999868392944,Tue Sep 02 2025 09:16:43 GMT-0500 (Central Daylight Time),524404.7999999523,A,boyenter,I,enter,568,1,1882.3999999761581,522522.39999997616,8058,WL,C,5.0
4,14.911999940872192,learn,45088.00005912781,Tue Sep 02 2025 09:16:43 GMT-0500 (Central Daylight Time),524855.0,A,h,I,h,441,1,449.89999997615814,524405.1000000238,8058,WL,C,6.0
4,15.078999996185303,learn,44921.0000038147,Tue Sep 02 2025 09:16:43 GMT-0500 (Central Daylight Time),525021.6000000238,A,ho,I,o,151,1,616.5,524405.1000000238,8058,WL,C,6.0
4,15.295000076293945,learn,44704.999923706055,Tue Sep 02 2025 09:16:43 GMT-0500 (Central Daylight Time),525237.8999999762,A,hom,I,m,200,1,832.7999999523163,524405.1000000238,8058,WL,C,6.0
4,15.562000036239624,learn,44437.999963760376,Tue Sep 02 2025 09:16:43 GMT-0500 (Central Daylight Time),525504.3999999762,A,home,I,e,256,1,1099.2999999523163,524405.1000000238,8058,WL,C,6.0
4,16.92799997329712,learn,43072.00002670288,Tue Sep 02 2025 09:16:43 GMT-0500 (Central Daylight Time),526871.1000000238,A,homeenter,I,enter,1358,1,2466.0,524405.1000000238,8058,WL,C,6.0
4,18.49399995803833,learn,41506.00004196167,Tue Sep 02 2025 09:16:43 GMT-0500 (Central Daylight Time),528437.0,A,d,I,d,1558,1,1565.6000000238419,526871.3999999762,8058,WL,C,7.0
4,18.66100001335144,learn,41338.99998664856,Tue Sep 02 2025 09:16:43 GMT-0500 (Central Daylight Time),528603.7999999523,A,do,I,o,153,1,1732.3999999761581,526871.3999999762,8058,WL,C,7.0
4,18.761000156402588,learn,41238.99984359741,Tue Sep 02 2025 09:16:43 GMT-0500 (Central Daylight Time),528703.6999999285,A,doc,I,c,91,1,1832.2999999523163,526871.3999999762,8058,WL,C,7.0
4,19.011000156402588,learn,40988.99984359741,Tue Sep 02 2025 09:16:43 GMT-0500 (Central Daylight Time),528953.6999999285,A,doct,I,t,230,1,2082.2999999523163,526871.3999999762,8058,WL,C,7.0
4,19.24399995803833,learn,40756.00004196167,Tue Sep 02 2025 09:16:43 GMT-0500 (Central Daylight Time),529186.5,A,docto,I,o,228,1,2315.100000023842,526871.3999999762,8058,WL,C,7.0
4,19.444000005722046,learn,40555.999994277954,Tue Sep 02 2025 09:16:43 GMT-0500 (Central Daylight Time),529386.2999999523,A,doctor,I,r,195,1,2514.899999976158,526871.3999999762,8058,WL,C,7.0
4,19.72699999809265,learn,40273.00000190735,Tue Sep 02 2025 09:16:43 GMT-0500 (Central Daylight Time),529670.0,A,doctorenter,I,enter,275,1,2798.600000023842,526871.3999999762,8058,WL,C,7.0
4,20.259999990463257,learn,39740.00000953674,Tue Sep 02 2025 09:16:43 GMT-0500 (Central Daylight Time),530202.7999999523,A,c,I,c,529,1,532.6000000238419,529670.1999999285,8058,WL,C,8.0
4,20.427000045776367,learn,39572.99995422363,Tue Sep 02 2025 09:16:43 GMT-0500 (Central Daylight Time),530369.8999999762,A,ca,I,a,147,1,699.7000000476837,529670.1999999285,8058,WL,C,8.0
4,21.009999990463257,learn,38990.00000953674,Tue Sep 02 2025 09:16:43 GMT-0500 (Central Daylight Time),530953.1999999285,A,cam,I,m,564,1,1283.0,529670.1999999285,8058,WL,C,8.0
4,21.360000133514404,learn,38639.999866485596,Tue Sep 02 2025 09:16:43 GMT-0500 (Central Daylight Time),531302.8999999762,A,camp,I,p,341,1,1632.7000000476837,529670.1999999285,8058,WL,C,8.0
4,21.943000078201294,learn,38056.999921798706,Tue Sep 02 2025 09:16:43 GMT-0500 (Central Daylight Time),531885.7999999523,A,campenter,I,enter,567,1,2215.600000023842,529670.1999999285,8058,WL,C,8.0
4,22.509999990463257,learn,37490.00000953674,Tue Sep 02 2025 09:16:43 GMT-0500 (Central Daylight Time),532452.5,A,f,I,f,552,1,566.3000000715256,531886.1999999285,8058,WL,C,9.0
4,22.66000008583069,learn,37339.99991416931,Tue Sep 02 2025 09:16:43 GMT-0500 (Central Daylight Time),532602.1999999285,A,fl,I,l,137,1,716.0,531886.1999999285,8058,WL,C,9.0
4,22.80999994277954,learn,37190.00005722046,Tue Sep 02 2025 09:16:43 GMT-0500 (Central Daylight Time),532752.3999999762,A,fla,I,a,139,1,866.2000000476837,531886.1999999285,8058,WL,C,9.0
4,23.042999982833862,learn,36957.00001716614,Tue Sep 02 2025 09:16:43 GMT-0500 (Central Daylight Time),532985.8999999762,A,flag,I,g,221,1,1099.7000000476837,531886.1999999285,8058,WL,C,9.0
4,23.509000062942505,learn,36490.999937057495,Tue Sep 02 2025 09:16:43 GMT-0500 (Central Daylight Time),533452.1000000238,A,flagenter,I,enter,460,1,1565.9000000953674,531886.1999999285,8058,WL,C,9.0
4,24.325999975204468,learn,35674.00002479553,Tue Sep 02 2025 09:16:43 GMT-0500 (Central Daylight Time),534268.6999999285,A,c,I,c,811,1,816.2999999523163,533452.3999999762,8058,WL,C,10.0
4,24.575999975204468,learn,35424.00002479553,Tue Sep 02 2025 09:16:43 GMT-0500 (Central Daylight Time),534518.6000000238,A,co,I,o,241,1,1066.2000000476837,533452.3999999762,8058,WL,C,10.0
4,24.79200005531311,learn,35207.99994468689,Tue Sep 02 2025 09:16:43 GMT-0500 (Central Daylight Time),534734.8999999762,A,cor,I,r,199,1,1282.5,533452.3999999762,8058,WL,C,10.0
4,25.276000022888184,learn,34723.99997711182,Tue Sep 02 2025 09:16:43 GMT-0500 (Central Daylight Time),535218.2999999523,A,corn,I,n,463,1,1765.8999999761581,533452.3999999762,8058,WL,C,10.0
4,25.942000150680542,learn,34057.99984931946,Tue Sep 02 2025 09:16:43 GMT-0500 (Central Daylight Time),535884.7999999523,A,cornenter,I,enter,659,1,2432.399999976158,533452.3999999762,8058,WL,C,10.0
4,26.89199995994568,learn,33108.00004005432,Tue Sep 02 2025 09:16:43 GMT-0500 (Central Daylight Time),536834.3999999762,A,c,I,c,945,1,949.2999999523163,535885.1000000238,8058,WL,C,11.0
4,27.10800004005432,learn,32891.99995994568,Tue Sep 02 2025 09:16:43 GMT-0500 (Central Daylight Time),537050.7999999523,A,ca,I,a,211,1,1165.6999999284744,535885.1000000238,8058,WL,C,11.0
4,27.308000087738037,learn,32691.999912261963,Tue Sep 02 2025 09:16:43 GMT-0500 (Central Daylight Time),537250.7999999523,A,cat,I,t,196,1,1365.6999999284744,535885.1000000238,8058,WL,C,11.0
4,27.52500009536743,learn,32474.99990463257,Tue Sep 02 2025 09:16:43 GMT-0500 (Central Daylight Time),537467.8999999762,A,catt,I,t,203,1,1582.7999999523163,535885.1000000238,8058,WL,C,11.0
4,27.742000102996826,learn,32257.999897003174,Tue Sep 02 2025 09:16:43 GMT-0500 (Central Daylight Time),537684.2999999523,A,cattl,I,l,202,1,1799.1999999284744,535885.1000000238,8058,WL,C,11.0
4,27.907999992370605,learn,32092.000007629395,Tue Sep 02 2025 09:16:43 GMT-0500 (Central Daylight Time),537850.6000000238,A,cattle,I,e,162,1,1965.5,535885.1000000238,8058,WL,C,11.0
4,28.7020001411438,learn,31297.9998588562,Tue Sep 02 2025 09:16:43 GMT-0500 (Central Daylight Time),538645.7999999523,A,cattleenter,I,enter,644,1,2760.6999999284744,535885.1000000238,8058,WL,C,11.0
4,29.256999969482422,learn,30743.000030517578,Tue Sep 02 2025 09:16:43 GMT-0500 (Central Daylight Time),539200.7999999523,A,s,I,s,534,1,554.6000000238419,538646.1999999285,8058,WL,C,12.0
4,29.388999938964844,learn,30611.000061035156,Tue Sep 02 2025 09:16:43 GMT-0500 (Central Daylight Time),539333.3999999762,A,sh,I,h,116,1,687.2000000476837,538646.1999999285,8058,WL,C,12.0
4,29.52300000190735,learn,30476.99999809265,Tue Sep 02 2025 09:16:43 GMT-0500 (Central Daylight Time),539466.8999999762,A,sho,I,o,120,1,820.7000000476837,538646.1999999285,8058,WL,C,12.0
4,29.689000129699707,learn,30310.999870300293,Tue Sep 02 2025 09:16:43 GMT-0500 (Central Daylight Time),539633.6000000238,A,shor,I,r,155,1,987.4000000953674,538646.1999999285,8058,WL,C,12.0
4,29.822999954223633,learn,30177.000045776367,Tue Sep 02 2025 09:16:43 GMT-0500 (Central Daylight Time),539766.8999999762,A,shore,I,e,124,1,1120.7000000476837,538646.1999999285,8058,WL,C,12.0
4,30.388999938964844,learn,29611.000061035156,Tue Sep 02 2025 09:16:43 GMT-0500 (Central Daylight Time),540333.6000000238,A,shoreenter,I,enter,551,1,1687.4000000953674,538646.1999999285,8058,WL,C,12.0
4,32.555999994277954,learn,27444.000005722046,Tue Sep 02 2025 09:16:43 GMT-0500 (Central Daylight Time),542500.1999999285,A,b,I,b,2160,1,2166.399999976158,540333.7999999523,8058,WL,C,13.0
4,32.705000162124634,learn,27294.999837875366,Tue Sep 02 2025 09:16:43 GMT-0500 (Central Daylight Time),542649.3999999762,A,bo,I,o,129,1,2315.600000023842,540333.7999999523,8058,WL,C,13.0
4,32.937999963760376,learn,27062.000036239624,Tue Sep 02 2025 09:16:43 GMT-0500 (Central Daylight Time),542882.5,A,bod,I,d,213,1,2548.7000000476837,540333.7999999523,8058,WL,C,13.0
4,33.15499997138977,learn,26845.00002861023,Tue Sep 02 2025 09:16:43 GMT-0500 (Central Daylight Time),543098.8999999762,A,body,I,y,196,1,2765.100000023842,540333.7999999523,8058,WL,C,13.0
4,33.62100005149841,learn,26378.999948501587,Tue Sep 02 2025 09:16:43 GMT-0500 (Central Daylight Time),543565.6000000238,A,bodyenter,I,enter,451,1,3231.8000000715256,540333.7999999523,8058,WL,C,13.0
4,34.13800001144409,learn,25861.99998855591,Tue Sep 02 2025 09:16:43 GMT-0500 (Central Daylight Time),544082.2999999523,A,n,I,n,496,1,516.5,543565.7999999523,8058,WL,C,14.0
4,34.32100009918213,learn,25678.99990081787,Tue Sep 02 2025 09:16:43 GMT-0500 (Central Daylight Time),544265.6000000238,A,na,I,a,163,1,699.8000000715256,543565.7999999523,8058,WL,C,14.0
4,34.55400013923645,learn,25445.99986076355,Tue Sep 02 2025 09:16:43 GMT-0500 (Central Daylight Time),544498.6999999285,A,nai,I,i,220,1,932.8999999761581,543565.7999999523,8058,WL,C,14.0
4,34.7720000743866,learn,25227.999925613403,Tue Sep 02 2025 09:16:43 GMT-0500 (Central Daylight Time),544716.0,A,nail,I,l,211,1,1150.2000000476837,543565.7999999523,8058,WL,C,14.0
4,35.37100005149841,learn,24628.999948501587,Tue Sep 02 2025 09:16:43 GMT-0500 (Central Daylight Time),545314.7999999523,A,nailenter,I,enter,586,1,1749.0,543565.7999999523,8058,WL,C,14.0
4,42.985000133514404,learn,17014.999866485596,Tue Sep 02 2025 09:16:43 GMT-0500 (Central Daylight Time),552929.1000000238,A,l,I,l,7603,1,7613.900000095367,545315.1999999285,8058,WL,C,15.0
4,43.20099997520447,learn,16799.000024795532,Tue Sep 02 2025 09:16:43 GMT-0500 (Central Daylight Time),553145.6999999285,A,le,I,e,194,1,7830.5,545315.1999999285,8058,WL,C,15.0
4,43.401000022888184,learn,16598.999977111816,Tue Sep 02 2025 09:16:43 GMT-0500 (Central Daylight Time),553345.6999999285,A,let,I,t,179,1,8030.5,545315.1999999285,8058,WL,C,15.0
4,43.93499994277954,learn,16065.000057220459,Tue Sep 02 2025 09:16:43 GMT-0500 (Central Daylight Time),553878.7999999523,A,lett,I,t,515,1,8563.600000023842,545315.1999999285,8058,WL,C,15.0
4,44.151000022888184,learn,15848.999977111816,Tue Sep 02 2025 09:16:43 GMT-0500 (Central Daylight Time),554095.3999999762,A,lette,I,e,197,1,8780.200000047684,545315.1999999285,8058,WL,C,15.0
4,44.25100016593933,learn,15748.999834060669,Tue Sep 02 2025 09:16:43 GMT-0500 (Central Daylight Time),554195.1999999285,A,letter,I,r,93,1,8880.0,545315.1999999285,8058,WL,C,15.0
4,44.551000118255615,learn,15448.999881744385,Tue Sep 02 2025 09:16:43 GMT-0500 (Central Daylight Time),554495.2999999523,A,letterenter,I,enter,281,1,9180.100000023842,545315.1999999285,8058,WL,C,15.0
5,2.683000087738037,learn,60000.0,Tue Sep 02 2025 09:16:43 GMT-0500 (Central Daylight Time),628305.8999999762,A,t,I,t,2663,1,2682.600000023842,625623.2999999523,8058,WL,C,1.0
5,2.799999952316284,learn,60000.0,Tue Sep 02 2025 09:16:43 GMT-0500 (Central Daylight Time),628422.3999999762,A,to,I,o,99,1,2799.100000023842,625623.2999999523,8058,WL,C,1.0
5,2.950000047683716,learn,60000.0,Tue Sep 02 2025 09:16:43 GMT-0500 (Central Daylight Time),628572.5,A,tow,I,w,135,1,2949.2000000476837,625623.2999999523,8058,WL,C,1.0
5,3.0490000247955322,learn,60000.0,Tue Sep 02 2025 09:16:43 GMT-0500 (Central Daylight Time),628672.2999999523,A,towe,I,e,81,1,3049.0,625623.2999999523,8058,WL,C,1.0
5,3.183000087738037,learn,60000.0,Tue Sep 02 2025 09:16:43 GMT-0500 (Central Daylight Time),628805.6000000238,A,tower,I,r,117,1,3182.3000000715256,625623.2999999523,8058,WL,C,1.0
5,3.7660000324249268,learn,60000.0,Tue Sep 02 2025 09:16:43 GMT-0500 (Central Daylight Time),629388.6999999285,A,towerenter,I,enter,576,1,3765.399999976158,625623.2999999523,8058,WL,C,1.0
5,4.7149999141693115,learn,60000.0,Tue Sep 02 2025 09:16:43 GMT-0500 (Central Daylight Time),630338.2999999523,A,w,I,w,945,1,949.3999999761581,629388.8999999762,8058,WL,C,2.0
5,5.016000032424927,learn,60000.0,Tue Sep 02 2025 09:16:43 GMT-0500 (Central Daylight Time),630638.3999999762,A,wh,I,h,291,1,1249.5,629388.8999999762,8058,WL,C,2.0
5,5.199000120162964,learn,60000.0,Tue Sep 02 2025 09:16:43 GMT-0500 (Central Daylight Time),630821.6999999285,A,whe,I,e,168,1,1432.7999999523163,629388.8999999762,8058,WL,C,2.0
5,5.299000024795532,learn,60000.0,Tue Sep 02 2025 09:16:43 GMT-0500 (Central Daylight Time),630921.6999999285,A,whea,I,a,80,1,1532.7999999523163,629388.8999999762,8058,WL,C,2.0
5,5.4649999141693115,learn,60000.0,Tue Sep 02 2025 09:16:43 GMT-0500 (Central Daylight Time),631088.2999999523,A,wheat,I,t,156,1,1699.3999999761581,629388.8999999762,8058,WL,C,2.0
5,6.0320000648498535,learn,60000.0,Tue Sep 02 2025 09:16:43 GMT-0500 (Central Daylight Time),631654.6000000238,A,wheatenter,I,enter,558,1,2265.7000000476837,629388.8999999762,8058,WL,C,2.0
5,6.832000017166138,learn,60000.0,Tue Sep 02 2025 09:16:43 GMT-0500 (Central Daylight Time),632454.3999999762,A,q,I,q,783,1,799.6000000238419,631654.7999999523,8058,WL,C,3.0
5,6.997999906539917,learn,60000.0,Tue Sep 02 2025 09:16:43 GMT-0500 (Central Daylight Time),632621.1000000238,A,qu,I,u,151,1,966.3000000715256,631654.7999999523,8058,WL,C,3.0
5,7.213000059127808,learn,60000.0,Tue Sep 02 2025 09:16:43 GMT-0500 (Central Daylight Time),632835.5,A,que,I,e,209,1,1180.7000000476837,631654.7999999523,8058,WL,C,3.0
5,7.359999895095825,learn,60000.0,Tue Sep 02 2025 09:16:43 GMT-0500 (Central Daylight Time),632982.3999999762,A,quee,I,e,142,1,1327.6000000238419,631654.7999999523,8058,WL,C,3.0
5,7.565000057220459,learn,60000.0,Tue Sep 02 2025 09:16:43 GMT-0500 (Central Daylight Time),633187.3999999762,A,queen,I,n,191,1,1532.6000000238419,631654.7999999523,8058,WL,C,3.0
5,7.997999906539917,learn,60000.0,Tue Sep 02 2025 09:16:43 GMT-0500 (Central Daylight Time),633620.6999999285,A,queenenter,I,enter,426,1,1965.8999999761581,631654.7999999523,8058,WL,C,3.0
5,8.79800009727478,learn,60000.0,Tue Sep 02 2025 09:16:43 GMT-0500 (Central Daylight Time),634420.5,A,s,I,s,793,1,799.3999999761581,633621.1000000238,8058,WL,C,4.0
5,8.947999954223633,learn,60000.0,Tue Sep 02 2025 09:16:43 GMT-0500 (Central Daylight Time),634570.5,A,su,I,u,130,1,949.3999999761581,633621.1000000238,8058,WL,C,4.0
5,9.164000034332275,learn,60000.0,Tue Sep 02 2025 09:16:43 GMT-0500 (Central Daylight Time),634786.6999999285,A,sug,I,g,211,1,1165.5999999046326,633621.1000000238,8058,WL,C,4.0
5,9.398000001907349,learn,60000.0,Tue Sep 02 2025 09:16:43 GMT-0500 (Central Daylight Time),635020.6000000238,A,suga,I,a,219,1,1399.5,633621.1000000238,8058,WL,C,4.0
5,9.564000129699707,learn,60000.0,Tue Sep 02 2025 09:16:43 GMT-0500 (Central Daylight Time),635186.6000000238,A,sugar,I,r,161,1,1565.5,633621.1000000238,8058,WL,C,4.0
5,10.064000129699707,learn,60000.0,Tue Sep 02 2025 09:16:43 GMT-0500 (Central Daylight Time),635686.6000000238,A,sugarenter,I,enter,483,1,2065.5,633621.1000000238,8058,WL,C,4.0
5,10.69700002670288,learn,60000.0,Tue Sep 02 2025 09:16:43 GMT-0500 (Central Daylight Time),636319.7999999523,A,b,I,b,623,1,632.6000000238419,635687.1999999285,8058,WL,C,5.0
5,10.913000106811523,learn,60000.0,Tue Sep 02 2025 09:16:43 GMT-0500 (Central Daylight Time),636536.1000000238,A,bo,I,o,206,1,848.9000000953674,635687.1999999285,8058,WL,C,5.0
5,11.263999938964844,learn,60000.0,Tue Sep 02 2025 09:16:43 GMT-0500 (Central Daylight Time),636886.6000000238,A,boy,I,y,335,1,1199.4000000953674,635687.1999999285,8058,WL,C,5.0
5,11.69700002670288,learn,60000.0,Tue Sep 02 2025 09:16:43 GMT-0500 (Central Daylight Time),637319.3999999762,A,boyenter,I,enter,423,1,1632.2000000476837,635687.1999999285,8058,WL,C,5.0
5,12.36299991607666,learn,60000.0,Tue Sep 02 2025 09:16:43 GMT-0500 (Central Daylight Time),637986.1000000238,A,h,I,h,646,1,666.3000000715256,637319.7999999523,8058,WL,C,6.0
5,12.480000019073486,learn,60000.0,Tue Sep 02 2025 09:16:43 GMT-0500 (Central Daylight Time),638102.5,A,ho,I,o,100,1,782.7000000476837,637319.7999999523,8058,WL,C,6.0
5,12.680000066757202,learn,60000.0,Tue Sep 02 2025 09:16:43 GMT-0500 (Central Daylight Time),638302.7999999523,A,hom,I,m,183,1,983.0,637319.7999999523,8058,WL,C,6.0
5,12.946000099182129,learn,60000.0,Tue Sep 02 2025 09:16:43 GMT-0500 (Central Daylight Time),638569.1000000238,A,home,I,e,247,1,1249.3000000715256,637319.7999999523,8058,WL,C,6.0
5,13.663000106811523,learn,60000.0,Tue Sep 02 2025 09:16:43 GMT-0500 (Central Daylight Time),639285.6000000238,A,homeenter,I,enter,708,1,1965.8000000715256,637319.7999999523,8058,WL,C,6.0
5,14.529000043869019,learn,60000.0,Tue Sep 02 2025 09:16:43 GMT-0500 (Central Daylight Time),640152.0,A,c,I,c,848,1,866.2000000476837,639285.7999999523,8058,WL,C,7.0
5,14.729000091552734,learn,60000.0,Tue Sep 02 2025 09:16:43 GMT-0500 (Central Daylight Time),640352.0,A,ca,I,a,182,1,1066.2000000476837,639285.7999999523,8058,WL,C,7.0
5,15.128999948501587,learn,60000.0,Tue Sep 02 2025 09:16:43 GMT-0500 (Central Daylight Time),640751.6000000238,A,cam,I,m,382,1,1465.8000000715256,639285.7999999523,8058,WL,C,7.0
5,15.446000099182129,learn,60000.0,Tue Sep 02 2025 09:16:43 GMT-0500 (Central Daylight Time),641068.5,A,camp,I,p,302,1,1782.7000000476837,639285.7999999523,8058,WL,C,7.0
5,15.961999893188477,learn,60000.0,Tue Sep 02 2025 09:16:43 GMT-0500 (Central Daylight Time),641585.0,A,campenter,I,enter,497,1,2299.2000000476837,639285.7999999523,8058,WL,C,7.0
5,16.42899990081787,learn,60000.0,Tue Sep 02 2025 09:16:43 GMT-0500 (Central Daylight Time),642051.3999999762,A,d,I,d,461,1,466.10000002384186,641585.2999999523,8058,WL,C,8.0
5,16.628999948501587,learn,60000.0,Tue Sep 02 2025 09:16:43 GMT-0500 (Central Daylight Time),642251.2999999523,A,do,I,o,186,1,666.0,641585.2999999523,8058,WL,C,8.0
5,16.795000076293945,learn,60000.0,Tue Sep 02 2025 09:16:43 GMT-0500 (Central Daylight Time),642417.8999999762,A,doc,I,c,162,1,832.6000000238419,641585.2999999523,8058,WL,C,8.0
5,17.045000076293945,learn,60000.0,Tue Sep 02 2025 09:16:43 GMT-0500 (Central Daylight Time),642667.6999999285,A,doct,I,t,236,1,1082.3999999761581,641585.2999999523,8058,WL,C,8.0
5,17.211999893188477,learn,60000.0,Tue Sep 02 2025 09:16:43 GMT-0500 (Central Daylight Time),642834.2999999523,A,docto,I,o,162,1,1249.0,641585.2999999523,8058,WL,C,8.0
5,17.32800006866455,learn,60000.0,Tue Sep 02 2025 09:16:43 GMT-0500 (Central Daylight Time),642951.1000000238,A,doctor,I,r,107,1,1365.8000000715256,641585.2999999523,8058,WL,C,8.0
5,17.711999893188477,learn,60000.0,Tue Sep 02 2025 09:16:43 GMT-0500 (Central Daylight Time),643334.2999999523,A,doctorenter,I,enter,367,1,1749.0,641585.2999999523,8058,WL,C,8.0
5,18.194999933242798,learn,60000.0,Tue Sep 02 2025 09:16:43 GMT-0500 (Central Daylight Time),643817.6000000238,A,f,I,f,463,1,482.90000009536743,643334.6999999285,8058,WL,C,9.0
5,18.32800006866455,learn,60000.0,Tue Sep 02 2025 09:16:43 GMT-0500 (Central Daylight Time),643950.8999999762,A,fl,I,l,124,1,616.2000000476837,643334.6999999285,8058,WL,C,9.0
5,18.460999965667725,learn,60000.0,Tue Sep 02 2025 09:16:43 GMT-0500 (Central Daylight Time),644084.1000000238,A,fla,I,a,127,1,749.4000000953674,643334.6999999285,8058,WL,C,9.0
5,18.66100001335144,learn,60000.0,Tue Sep 02 2025 09:16:43 GMT-0500 (Central Daylight Time),644284.0,A,flag,I,g,186,1,949.3000000715256,643334.6999999285,8058,WL,C,9.0
5,19.128000020980835,learn,60000.0,Tue Sep 02 2025 09:16:43 GMT-0500 (Central Daylight Time),644750.5,A,flagenter,I,enter,450,1,1415.8000000715256,643334.6999999285,8058,WL,C,9.0
5,21.792999982833862,learn,60000.0,Tue Sep 02 2025 09:16:43 GMT-0500 (Central Daylight Time),647416.1999999285,A,c,I,c,2647,1,2665.399999976158,644750.7999999523,8058,WL,C,10.0
5,21.927000045776367,learn,60000.0,Tue Sep 02 2025 09:16:43 GMT-0500 (Central Daylight Time),647549.6999999285,A,co,I,o,127,1,2798.899999976158,644750.7999999523,8058,WL,C,10.0
5,22.14300012588501,learn,60000.0,Tue Sep 02 2025 09:16:43 GMT-0500 (Central Daylight Time),647766.2999999523,A,cor,I,r,200,1,3015.5,644750.7999999523,8058,WL,C,10.0
5,22.49399995803833,learn,60000.0,Tue Sep 02 2025 09:16:43 GMT-0500 (Central Daylight Time),648116.3999999762,A,corn,I,n,336,1,3365.600000023842,644750.7999999523,8058,WL,C,10.0
5,22.927000045776367,learn,60000.0,Tue Sep 02 2025 09:16:43 GMT-0500 (Central Daylight Time),648549.5,A,cornenter,I,enter,417,1,3798.7000000476837,644750.7999999523,8058,WL,C,10.0
5,24.375999927520752,learn,60000.0,Tue Sep 02 2025 09:16:43 GMT-0500 (Central Daylight Time),649999.0,A,c,I,c,1440,1,1449.1000000238419,648549.8999999762,8058,WL,C,11.0
5,24.542999982833862,learn,60000.0,Tue Sep 02 2025 09:16:43 GMT-0500 (Central Daylight Time),650165.6000000238,A,ca,I,a,158,1,1615.7000000476837,648549.8999999762,8058,WL,C,11.0
5,24.676000118255615,learn,60000.0,Tue Sep 02 2025 09:16:43 GMT-0500 (Central Daylight Time),650298.6999999285,A,cat,I,t,128,1,1748.7999999523163,648549.8999999762,8058,WL,C,11.0
5,24.858999967575073,learn,60000.0,Tue Sep 02 2025 09:16:43 GMT-0500 (Central Daylight Time),650482.1000000238,A,catt,I,t,171,1,1932.2000000476837,648549.8999999762,8058,WL,C,11.0
5,24.9760000705719,learn,60000.0,Tue Sep 02 2025 09:16:43 GMT-0500 (Central Daylight Time),650598.6999999285,A,cattl,I,l,107,1,2048.7999999523163,648549.8999999762,8058,WL,C,11.0
5,25.05900001525879,learn,60000.0,Tue Sep 02 2025 09:16:43 GMT-0500 (Central Daylight Time),650682.0,A,cattle,I,e,79,1,2132.100000023842,648549.8999999762,8058,WL,C,11.0
5,25.342999935150146,learn,60000.0,Tue Sep 02 2025 09:16:43 GMT-0500 (Central Daylight Time),650965.3999999762,A,cattleenter,I,enter,268,1,2415.5,648549.8999999762,8058,WL,C,11.0
5,26.908999919891357,learn,60000.0,Tue Sep 02 2025 09:16:43 GMT-0500 (Central Daylight Time),652531.3999999762,A,s,I,s,1552,1,1565.7000000476837,650965.6999999285,8058,WL,C,12.0
5,27.02500009536743,learn,60000.0,Tue Sep 02 2025 09:16:43 GMT-0500 (Central Daylight Time),652647.8999999762,A,sh,I,h,106,1,1682.2000000476837,650965.6999999285,8058,WL,C,12.0
5,27.125,learn,60000.0,Tue Sep 02 2025 09:16:43 GMT-0500 (Central Daylight Time),652748.1000000238,A,sho,I,o,86,1,1782.4000000953674,650965.6999999285,8058,WL,C,12.0
5,27.20900011062622,learn,60000.0,Tue Sep 02 2025 09:16:43 GMT-0500 (Central Daylight Time),652831.6000000238,A,shor,I,r,74,1,1865.9000000953674,650965.6999999285,8058,WL,C,12.0
5,27.325000047683716,learn,60000.0,Tue Sep 02 2025 09:16:43 GMT-0500 (Central Daylight Time),652948.0,A,shore,I,e,102,1,1982.3000000715256,650965.6999999285,8058,WL,C,12.0
5,27.89199995994568,learn,60000.0,Tue Sep 02 2025 09:16:43 GMT-0500 (Central Daylight Time),653514.3999999762,A,shoreenter,I,enter,555,1,2548.7000000476837,650965.6999999285,8058,WL,C,12.0
5,28.591000080108643,learn,60000.0,Tue Sep 02 2025 09:16:43 GMT-0500 (Central Daylight Time),654214.0,A,b,I,b,683,1,699.2000000476837,653514.7999999523,8058,WL,C,13.0
5,28.740999937057495,learn,60000.0,Tue Sep 02 2025 09:16:43 GMT-0500 (Central Daylight Time),654364.1999999285,A,bo,I,o,136,1,849.3999999761581,653514.7999999523,8058,WL,C,13.0
5,29.007999897003174,learn,60000.0,Tue Sep 02 2025 09:16:43 GMT-0500 (Central Daylight Time),654630.7999999523,A,bod,I,d,258,1,1116.0,653514.7999999523,8058,WL,C,13.0
5,29.20799994468689,learn,60000.0,Tue Sep 02 2025 09:16:43 GMT-0500 (Central Daylight Time),654830.7999999523,A,body,I,y,183,1,1316.0,653514.7999999523,8058,WL,C,13.0
5,29.641000032424927,learn,60000.0,Tue Sep 02 2025 09:16:43 GMT-0500 (Central Daylight Time),655264.1000000238,A,bodyenter,I,enter,415,1,1749.3000000715256,653514.7999999523,8058,WL,C,13.0
5,30.29100012779236,learn,60000.0,Tue Sep 02 2025 09:16:43 GMT-0500 (Central Daylight Time),655913.6999999285,A,n,I,n,630,1,649.1999999284744,655264.5,8058,WL,C,14.0
5,30.424000024795532,learn,60000.0,Tue Sep 02 2025 09:16:43 GMT-0500 (Central Daylight Time),656047.0,A,na,I,a,124,1,782.5,655264.5,8058,WL,C,14.0
5,30.624000072479248,learn,60000.0,Tue Sep 02 2025 09:16:43 GMT-0500 (Central Daylight Time),656247.0,A,nai,I,i,190,1,982.5,655264.5,8058,WL,C,14.0
5,30.776999950408936,learn,60000.0,Tue Sep 02 2025 09:16:43 GMT-0500 (Central Daylight Time),656399.6000000238,A,nail,I,l,148,1,1135.1000000238419,655264.5,8058,WL,C,14.0
5,31.140000104904175,learn,60000.0,Tue Sep 02 2025 09:16:43 GMT-0500 (Central Daylight Time),656763.1999999285,A,nailenter,I,enter,358,1,1498.6999999284744,655264.5,8058,WL,C,14.0
5,31.907000064849854,learn,60000.0,Tue Sep 02 2025 09:16:43 GMT-0500 (Central Daylight Time),657530.0,A,l,I,l,754,1,766.6000000238419,656763.3999999762,8058,WL,C,15.0
5,32.056999921798706,learn,60000.0,Tue Sep 02 2025 09:16:43 GMT-0500 (Central Daylight Time),657679.6999999285,A,le,I,e,132,1,916.2999999523163,656763.3999999762,8058,WL,C,15.0
5,32.223999977111816,learn,60000.0,Tue Sep 02 2025 09:16:43 GMT-0500 (Central Daylight Time),657846.5,A,let,I,t,150,1,1083.1000000238419,656763.3999999762,8058,WL,C,15.0
5,32.390000104904175,learn,60000.0,Tue Sep 02 2025 09:16:43 GMT-0500 (Central Daylight Time),658013.0,A,lett,I,t,151,1,1249.6000000238419,656763.3999999762,8058,WL,C,15.0
5,32.58999991416931,learn,60000.0,Tue Sep 02 2025 09:16:43 GMT-0500 (Central Daylight Time),658213.1000000238,A,lette,I,e,193,1,1449.7000000476837,656763.3999999762,8058,WL,C,15.0
5,32.75600004196167,learn,60000.0,Tue Sep 02 2025 09:16:43 GMT-0500 (Central Daylight Time),658379.2999999523,A,letter,I,r,161,1,1615.8999999761581,656763.3999999762,8058,WL,C,15.0
5,33.15499997138977,learn,60000.0,Tue Sep 02 2025 09:16:43 GMT-0500 (Central Daylight Time),658779.5,A,letterenter,I,enter,386,1,2016.1000000238419,656763.3999999762,8058,WL,C,15.0
6,1.1150000095367432,distr,58884.99999046326,Tue Sep 02 2025 09:16:43 GMT-0500 (Central Daylight Time),741470.1999999285,B,s,I,s,1107,1,1114.8999999761581,740355.2999999523,8058,WL,C,1.0
6,1.3320000171661377,distr,58667.99998283386,Tue Sep 02 2025 09:16:43 GMT-0500 (Central Daylight Time),741686.8999999762,B,sk,I,k,207,1,1331.6000000238419,740355.2999999523,8058,WL,C,1.0
6,1.5989999771118164,distr,58401.00002288818,Tue Sep 02 2025 09:16:43 GMT-0500 (Central Daylight Time),741953.3999999762,B,sky,I,y,256,1,1598.1000000238419,740355.2999999523,8058,WL,C,1.0
6,2.0490000247955322,distr,57950.99997520447,Tue Sep 02 2025 09:16:43 GMT-0500 (Central Daylight Time),742403.3999999762,B,skyenter,I,enter,436,1,2048.100000023842,740355.2999999523,8058,WL,C,1.0
6,2.880999803543091,distr,57119.00019645691,Tue Sep 02 2025 09:16:43 GMT-0500 (Central Daylight Time),743236.0,B,d,I,d,827,1,832.3000000715256,742403.6999999285,8058,WL,C,2.0
6,3.065999984741211,distr,56934.00001525879,Tue Sep 02 2025 09:16:43 GMT-0500 (Central Daylight Time),743420.6000000238,B,do,I,o,178,1,1016.9000000953674,742403.6999999285,8058,WL,C,2.0
6,3.4149999618530273,distr,56585.00003814697,Tue Sep 02 2025 09:16:43 GMT-0500 (Central Daylight Time),743769.5,B,dol,I,l,329,1,1365.8000000715256,742403.6999999285,8058,WL,C,2.0
6,3.5820000171661377,distr,56417.99998283386,Tue Sep 02 2025 09:16:43 GMT-0500 (Central Daylight Time),743936.3999999762,B,doll,I,l,157,1,1532.7000000476837,742403.6999999285,8058,WL,C,2.0
6,3.697999954223633,distr,56302.00004577637,Tue Sep 02 2025 09:16:43 GMT-0500 (Central Daylight Time),744052.6000000238,B,dolla,I,a,109,1,1648.9000000953674,742403.6999999285,8058,WL,C,2.0
6,3.8980000019073486,distr,56101.99999809265,Tue Sep 02 2025 09:16:43 GMT-0500 (Central Daylight Time),744252.7999999523,B,dollar,I,r,193,1,1849.1000000238419,742403.6999999285,8058,WL,C,2.0
6,4.630999803543091,distr,55369.00019645691,Tue Sep 02 2025 09:16:43 GMT-0500 (Central Daylight Time),744986.0,B,dollarenter,I,enter,713,1,2582.3000000715256,742403.6999999285,8058,WL,C,2.0
6,6.130999803543091,distr,53869.00019645691,Tue Sep 02 2025 09:16:43 GMT-0500 (Central Daylight Time),746485.5,B,h,I,h,1483,1,1499.2000000476837,744986.2999999523,8058,WL,C,3.0
6,6.263999938964844,distr,53736.000061035156,Tue Sep 02 2025 09:16:43 GMT-0500 (Central Daylight Time),746618.7999999523,B,ha,I,a,120,1,1632.5,744986.2999999523,8058,WL,C,3.0
6,6.480000019073486,distr,53519.999980926514,Tue Sep 02 2025 09:16:43 GMT-0500 (Central Daylight Time),746834.8999999762,B,hal,I,l,211,1,1848.6000000238419,744986.2999999523,8058,WL,C,3.0
6,6.664000034332275,distr,53335.999965667725,Tue Sep 02 2025 09:16:43 GMT-0500 (Central Daylight Time),747018.2999999523,B,hall,I,l,163,1,2032.0,744986.2999999523,8058,WL,C,3.0
6,7.113999843597412,distr,52886.00015640259,Tue Sep 02 2025 09:16:43 GMT-0500 (Central Daylight Time),747468.3999999762,B,hallenter,I,enter,435,1,2482.100000023842,744986.2999999523,8058,WL,C,3.0
6,8.013000011444092,distr,51986.99998855591,Tue Sep 02 2025 09:16:43 GMT-0500 (Central Daylight Time),748368.1000000238,B,d,I,d,881,1,899.4000000953674,747468.6999999285,8058,WL,C,4.0
6,8.129999876022339,distr,51870.00012397766,Tue Sep 02 2025 09:16:43 GMT-0500 (Central Daylight Time),748484.5,B,di,I,i,111,1,1015.8000000715256,747468.6999999285,8058,WL,C,4.0
6,8.27999997138977,distr,51720.00002861023,Tue Sep 02 2025 09:16:43 GMT-0500 (Central Daylight Time),748634.5,B,dia,I,a,145,1,1165.8000000715256,747468.6999999285,8058,WL,C,4.0
6,8.462999820709229,distr,51537.00017929077,Tue Sep 02 2025 09:16:43 GMT-0500 (Central Daylight Time),748817.8999999762,B,diam,I,m,171,1,1349.2000000476837,747468.6999999285,8058,WL,C,4.0
6,8.645999908447266,distr,51354.000091552734,Tue Sep 02 2025 09:16:43 GMT-0500 (Central Daylight Time),749001.1000000238,B,diamo,I,o,164,1,1532.4000000953674,747468.6999999285,8058,WL,C,4.0
6,8.86299991607666,distr,51137.00008392334,Tue Sep 02 2025 09:16:43 GMT-0500 (Central Daylight Time),749217.6999999285,B,diamon,I,n,206,1,1749.0,747468.6999999285,8058,WL,C,4.0
6,9.129999876022339,distr,50870.00012397766,Tue Sep 02 2025 09:16:43 GMT-0500 (Central Daylight Time),749484.5,B,diamond,I,d,259,1,2015.8000000715256,747468.6999999285,8058,WL,C,4.0
6,9.995999813079834,distr,50004.000186920166,Tue Sep 02 2025 09:16:43 GMT-0500 (Central Daylight Time),750351.1000000238,B,diamondenter,I,enter,857,1,2882.4000000953674,747468.6999999285,8058,WL,C,4.0
6,10.563999891281128,distr,49436.00010871887,Tue Sep 02 2025 09:16:43 GMT-0500 (Central Daylight Time),750918.5,B,v,I,v,559,1,567.2000000476837,750351.2999999523,8058,WL,C,5.0
6,10.661999940872192,distr,49338.00005912781,Tue Sep 02 2025 09:16:43 GMT-0500 (Central Daylight Time),751016.8999999762,B,va,I,a,87,1,665.6000000238419,750351.2999999523,8058,WL,C,5.0
6,10.845999956130981,distr,49154.00004386902,Tue Sep 02 2025 09:16:43 GMT-0500 (Central Daylight Time),751200.6999999285,B,val,I,l,173,1,849.3999999761581,750351.2999999523,8058,WL,C,5.0
6,10.978999853134155,distr,49021.000146865845,Tue Sep 02 2025 09:16:43 GMT-0500 (Central Daylight Time),751333.6999999285,B,vall,I,l,126,1,982.3999999761581,750351.2999999523,8058,WL,C,5.0
6,11.145999908447266,distr,48854.000091552734,Tue Sep 02 2025 09:16:43 GMT-0500 (Central Daylight Time),751500.2999999523,B,valle,I,e,160,1,1149.0,750351.2999999523,8058,WL,C,5.0
6,11.328999996185303,distr,48671.0000038147,Tue Sep 02 2025 09:16:43 GMT-0500 (Central Daylight Time),751683.6000000238,B,valley,I,y,169,1,1332.3000000715256,750351.2999999523,8058,WL,C,5.0
6,12.228999853134155,distr,47771.000146865845,Tue Sep 02 2025 09:16:43 GMT-0500 (Central Daylight Time),752583.3999999762,B,valleyenter,I,enter,890,1,2232.100000023842,750351.2999999523,8058,WL,C,5.0
6,13.01199984550476,distr,46988.00015449524,Tue Sep 02 2025 09:16:43 GMT-0500 (Central Daylight Time),753366.6000000238,B,m,I,m,766,1,782.8000000715256,752583.7999999523,8058,WL,C,6.0
6,13.161999940872192,distr,46838.00005912781,Tue Sep 02 2025 09:16:43 GMT-0500 (Central Daylight Time),753516.2999999523,B,mo,I,o,143,1,932.5,752583.7999999523,8058,WL,C,6.0
6,13.378000020980835,distr,46621.999979019165,Tue Sep 02 2025 09:16:43 GMT-0500 (Central Daylight Time),753732.8999999762,B,mot,I,t,203,1,1149.1000000238419,752583.7999999523,8058,WL,C,6.0
6,13.51199984550476,distr,46488.00015449524,Tue Sep 02 2025 09:16:43 GMT-0500 (Central Daylight Time),753866.3999999762,B,moth,I,h,113,1,1282.6000000238419,752583.7999999523,8058,WL,C,6.0
6,13.628000020980835,distr,46371.999979019165,Tue Sep 02 2025 09:16:43 GMT-0500 (Central Daylight Time),753982.8999999762,B,mothe,I,e,107,1,1399.1000000238419,752583.7999999523,8058,WL,C,6.0
6,13.777999877929688,distr,46222.00012207031,Tue Sep 02 2025 09:16:43 GMT-0500 (Central Daylight Time),754133.0,B,mother,I,r,143,1,1549.2000000476837,752583.7999999523,8058,WL,C,6.0
6,14.060999870300293,distr,45939.00012969971,Tue Sep 02 2025 09:16:43 GMT-0500 (Central Daylight Time),754416.1999999285,B,motherenter,I,enter,273,1,1832.3999999761581,752583.7999999523,8058,WL,C,6.0
6,14.544999837875366,distr,45455.000162124634,Tue Sep 02 2025 09:16:43 GMT-0500 (Central Daylight Time),754899.5,B,b,I,b,469,1,482.89999997615814,754416.6000000238,8058,WL,C,7.0
6,14.793999910354614,distr,45206.000089645386,Tue Sep 02 2025 09:16:43 GMT-0500 (Central Daylight Time),755149.1000000238,B,bu,I,u,243,1,732.5,754416.6000000238,8058,WL,C,7.0
6,14.960999965667725,distr,45039.000034332275,Tue Sep 02 2025 09:16:43 GMT-0500 (Central Daylight Time),755315.5,B,but,I,t,161,1,898.8999999761581,754416.6000000238,8058,WL,C,7.0
6,15.144999980926514,distr,44855.000019073486,Tue Sep 02 2025 09:16:43 GMT-0500 (Central Daylight Time),755500.0,B,butt,I,t,178,1,1083.3999999761581,754416.6000000238,8058,WL,C,7.0
6,15.343999862670898,distr,44656.0001373291,Tue Sep 02 2025 09:16:43 GMT-0500 (Central Daylight Time),755698.7999999523,B,butte,I,e,194,1,1282.1999999284744,754416.6000000238,8058,WL,C,7.0
6,15.527999877929688,distr,44472.00012207031,Tue Sep 02 2025 09:16:43 GMT-0500 (Central Daylight Time),755882.3999999762,B,butter,I,r,164,1,1465.7999999523163,754416.6000000238,8058,WL,C,7.0
6,16.310999870300293,distr,43689.00012969971,Tue Sep 02 2025 09:16:43 GMT-0500 (Central Daylight Time),756665.2999999523,B,butterenter,I,enter,771,1,2248.6999999284744,754416.6000000238,8058,WL,C,7.0
6,17.22699999809265,distr,42773.00000190735,Tue Sep 02 2025 09:16:43 GMT-0500 (Central Daylight Time),757581.7999999523,B,c,I,c,910,1,916.2999999523163,756665.5,8058,WL,C,8.0
6,17.359999895095825,distr,42640.000104904175,Tue Sep 02 2025 09:16:43 GMT-0500 (Central Daylight Time),757715.1999999285,B,co,I,o,121,1,1049.6999999284744,756665.5,8058,WL,C,8.0
6,17.460000038146973,distr,42539.99996185303,Tue Sep 02 2025 09:16:43 GMT-0500 (Central Daylight Time),757815.0,B,coi,I,i,90,1,1149.5,756665.5,8058,WL,C,8.0
6,17.65999984741211,distr,42340.00015258789,Tue Sep 02 2025 09:16:43 GMT-0500 (Central Daylight Time),758014.7999999523,B,coin,I,n,191,1,1349.2999999523163,756665.5,8058,WL,C,8.0
6,18.292999982833862,distr,41707.00001716614,Tue Sep 02 2025 09:16:43 GMT-0500 (Central Daylight Time),758648.2999999523,B,coinenter,I,enter,615,1,1982.7999999523163,756665.5,8058,WL,C,8.0
6,19.925999879837036,distr,40074.000120162964,Tue Sep 02 2025 09:16:43 GMT-0500 (Central Daylight Time),760280.8999999762,B,w,I,w,1622,1,1632.2999999523163,758648.6000000238,8058,WL,C,9.0
6,20.14299988746643,distr,39857.00011253357,Tue Sep 02 2025 09:16:43 GMT-0500 (Central Daylight Time),760497.6999999285,B,wi,I,i,205,1,1849.0999999046326,758648.6000000238,8058,WL,C,9.0
6,20.276000022888184,distr,39723.99997711182,Tue Sep 02 2025 09:16:43 GMT-0500 (Central Daylight Time),760631.0,B,win,I,n,116,1,1982.3999999761581,758648.6000000238,8058,WL,C,9.0
6,20.375999927520752,distr,39624.00007247925,Tue Sep 02 2025 09:16:43 GMT-0500 (Central Daylight Time),760730.6999999285,B,wint,I,t,95,1,2082.0999999046326,758648.6000000238,8058,WL,C,9.0
6,20.575999975204468,distr,39424.00002479553,Tue Sep 02 2025 09:16:43 GMT-0500 (Central Daylight Time),760930.7999999523,B,winte,I,e,187,1,2282.1999999284744,758648.6000000238,8058,WL,C,9.0
6,20.776000022888184,distr,39223.99997711182,Tue Sep 02 2025 09:16:43 GMT-0500 (Central Daylight Time),761130.7999999523,B,winter,I,r,180,1,2482.1999999284744,758648.6000000238,8058,WL,C,9.0
6,21.691999912261963,distr,38308.00008773804,Tue Sep 02 2025 09:16:43 GMT-0500 (Central Daylight Time),762047.1000000238,B,winterenter,I,enter,907,1,3398.5,758648.6000000238,8058,WL,C,9.0
6,22.158999919891357,distr,37841.00008010864,Tue Sep 02 2025 09:16:43 GMT-0500 (Central Daylight Time),762513.8999999762,B,c,I,c,446,1,466.5,762047.3999999762,8058,WL,C,10.0
6,22.258999824523926,distr,37741.000175476074,Tue Sep 02 2025 09:16:43 GMT-0500 (Central Daylight Time),762613.7999999523,B,ch,I,h,92,1,566.3999999761581,762047.3999999762,8058,WL,C,10.0
6,22.358999967575073,distr,37641.00003242493,Tue Sep 02 2025 09:16:43 GMT-0500 (Central Daylight Time),762713.5,B,chr,I,r,88,1,666.1000000238419,762047.3999999762,8058,WL,C,10.0
6,22.491999864578247,distr,37508.00013542175,Tue Sep 02 2025 09:16:43 GMT-0500 (Central Daylight Time),762846.8999999762,B,chri,I,i,124,1,799.5,762047.3999999762,8058,WL,C,10.0
6,22.70899987220764,distr,37291.00012779236,Tue Sep 02 2025 09:16:43 GMT-0500 (Central Daylight Time),763063.5,B,chris,I,s,208,1,1016.1000000238419,762047.3999999762,8058,WL,C,10.0
6,22.89199995994568,distr,37108.00004005432,Tue Sep 02 2025 09:16:43 GMT-0500 (Central Daylight Time),763246.6999999285,B,christ,I,t,174,1,1199.2999999523163,762047.3999999762,8058,WL,C,10.0
6,23.108999967575073,distr,36891.00003242493,Tue Sep 02 2025 09:16:43 GMT-0500 (Central Daylight Time),763463.3999999762,B,christm,I,m,199,1,1416.0,762047.3999999762,8058,WL,C,10.0
6,23.241999864578247,distr,36758.00013542175,Tue Sep 02 2025 09:16:43 GMT-0500 (Central Daylight Time),763596.6999999285,B,christma,I,a,118,1,1549.2999999523163,762047.3999999762,8058,WL,C,10.0
6,23.625,distr,36375.0,Tue Sep 02 2025 09:16:43 GMT-0500 (Central Daylight Time),763979.7999999523,B,christmas,I,s,370,1,1932.3999999761581,762047.3999999762,8058,WL,C,10.0
6,24.424999952316284,distr,35575.000047683716,Tue Sep 02 2025 09:16:43 GMT-0500 (Central Daylight Time),764779.7999999523,B,christmasenter,I,enter,786,1,2732.399999976158,762047.3999999762,8058,WL,C,10.0
6,25.507999897003174,distr,34492.000102996826,Tue Sep 02 2025 09:16:43 GMT-0500 (Central Daylight Time),765862.6000000238,B,f,I,f,1074,1,1082.4000000953674,764780.1999999285,8058,WL,C,11.0
6,25.674999952316284,distr,34325.000047683716,Tue Sep 02 2025 09:16:43 GMT-0500 (Central Daylight Time),766029.1999999285,B,fo,I,o,159,1,1249.0,764780.1999999285,8058,WL,C,11.0
6,25.857999801635742,distr,34142.00019836426,Tue Sep 02 2025 09:16:43 GMT-0500 (Central Daylight Time),766212.3999999762,B,for,I,r,176,1,1432.2000000476837,764780.1999999285,8058,WL,C,11.0
6,25.973999977111816,distr,34026.00002288818,Tue Sep 02 2025 09:16:43 GMT-0500 (Central Daylight Time),766329.1000000238,B,fore,I,e,97,1,1548.9000000953674,764780.1999999285,8058,WL,C,11.0
6,26.973999977111816,distr,33026.00002288818,Tue Sep 02 2025 09:16:43 GMT-0500 (Central Daylight Time),767329.0,B,fores,I,s,981,1,2548.8000000715256,764780.1999999285,8058,WL,C,11.0
6,27.223999977111816,distr,32776.00002288818,Tue Sep 02 2025 09:16:43 GMT-0500 (Central Daylight Time),767578.5,B,forest,I,t,245,1,2798.3000000715256,764780.1999999285,8058,WL,C,11.0
6,28.62399983406067,distr,31376.00016593933,Tue Sep 02 2025 09:16:43 GMT-0500 (Central Daylight Time),768978.3999999762,B,fores,I,backspace,1388,1,4198.200000047684,764780.1999999285,8058,WL,C,11.0
6,28.906999826431274,distr,31093.000173568726,Tue Sep 02 2025 09:16:43 GMT-0500 (Central Daylight Time),769261.6000000238,B,fore,I,backspace,275,1,4481.400000095367,764780.1999999285,8058,WL,C,11.0
6,29.072999954223633,distr,30927.000045776367,Tue Sep 02 2025 09:16:43 GMT-0500 (Central Daylight Time),769428.0,B,for,I,backspace,152,1,4647.800000071526,764780.1999999285,8058,WL,C,11.0
6,29.240000009536743,distr,30759.999990463257,Tue Sep 02 2025 09:16:43 GMT-0500 (Central Daylight Time),769594.6000000238,B,forr,I,r,147,1,4814.400000095367,764780.1999999285,8058,WL,C,11.0
6,29.33999991416931,distr,30660.00008583069,Tue Sep 02 2025 09:16:43 GMT-0500 (Central Daylight Time),769694.7999999523,B,forre,I,e,91,1,4914.600000023842,764780.1999999285,8058,WL,C,11.0
6,29.539999961853027,distr,30460.000038146973,Tue Sep 02 2025 09:16:43 GMT-0500 (Central Daylight Time),769894.6000000238,B,forres,I,s,183,1,5114.400000095367,764780.1999999285,8058,WL,C,11.0
6,29.872999906539917,distr,30127.000093460083,Tue Sep 02 2025 09:16:43 GMT-0500 (Central Daylight Time),770227.8999999762,B,forre,I,backspace,319,1,5447.700000047684,764780.1999999285,8058,WL,C,11.0
6,30.02300000190735,distr,29976.99999809265,Tue Sep 02 2025 09:16:43 GMT-0500 (Central Daylight Time),770377.7999999523,B,forr,I,backspace,138,1,5597.600000023842,764780.1999999285,8058,WL,C,11.0
6,30.1729998588562,distr,29827.0001411438,Tue Sep 02 2025 09:16:43 GMT-0500 (Central Daylight Time),770527.7999999523,B,for,I,backspace,132,1,5747.600000023842,764780.1999999285,8058,WL,C,11.0
6,30.33899998664856,distr,29661.00001335144,Tue Sep 02 2025 09:16:43 GMT-0500 (Central Daylight Time),770694.1999999285,B,fore,I,e,150,1,5914.0,764780.1999999285,8058,WL,C,11.0
6,30.406999826431274,distr,29593.000173568726,Tue Sep 02 2025 09:16:43 GMT-0500 (Central Daylight Time),770761.2999999523,B,fores,I,s,48,1,5981.100000023842,764780.1999999285,8058,WL,C,11.0
6,30.555999994277954,distr,29444.000005722046,Tue Sep 02 2025 09:16:43 GMT-0500 (Central Daylight Time),770911.0,B,forest,I,t,132,1,6130.800000071526,764780.1999999285,8058,WL,C,11.0
6,30.92199993133545,distr,29078.00006866455,Tue Sep 02 2025 09:16:43 GMT-0500 (Central Daylight Time),771277.1999999285,B,forestenter,I,enter,360,1,6497.0,764780.1999999285,8058,WL,C,11.0
6,31.52300000190735,distr,28476.99999809265,Tue Sep 02 2025 09:16:43 GMT-0500 (Central Daylight Time),771877.5,B,p,I,p,585,1,600.1000000238419,771277.3999999762,8058,WL,C,12.0
6,31.638999938964844,distr,28361.000061035156,Tue Sep 02 2025 09:16:43 GMT-0500 (Central Daylight Time),771994.0,B,pl,I,l,112,1,716.6000000238419,771277.3999999762,8058,WL,C,12.0
6,31.805999994277954,distr,28194.000005722046,Tue Sep 02 2025 09:16:43 GMT-0500 (Central Daylight Time),772160.6999999285,B,pla,I,a,157,1,883.2999999523163,771277.3999999762,8058,WL,C,12.0
6,32.08899998664856,distr,27911.00001335144,Tue Sep 02 2025 09:16:43 GMT-0500 (Central Daylight Time),772443.7999999523,B,plan,I,n,277,1,1166.3999999761581,771277.3999999762,8058,WL,C,12.0
6,32.32200002670288,distr,27677.99997329712,Tue Sep 02 2025 09:16:43 GMT-0500 (Central Daylight Time),772677.0,B,plant,I,t,218,1,1399.6000000238419,771277.3999999762,8058,WL,C,12.0
6,32.621999979019165,distr,27378.000020980835,Tue Sep 02 2025 09:16:43 GMT-0500 (Central Daylight Time),772976.8999999762,B,plantenter,I,enter,281,1,1699.5,771277.3999999762,8058,WL,C,12.0
6,33.08899998664856,distr,26911.00001335144,Tue Sep 02 2025 09:16:43 GMT-0500 (Central Daylight Time),773443.5,B,m,I,m,453,1,466.39999997615814,772977.1000000238,8058,WL,C,13.0
6,33.25499987602234,distr,26745.00012397766,Tue Sep 02 2025 09:16:43 GMT-0500 (Central Daylight Time),773610.0,B,me,I,e,146,1,632.8999999761581,772977.1000000238,8058,WL,C,13.0
6,33.33899998664856,distr,26661.00001335144,Tue Sep 02 2025 09:16:43 GMT-0500 (Central Daylight Time),773693.3999999762,B,mea,I,a,76,1,716.2999999523163,772977.1000000238,8058,WL,C,13.0
6,33.55499982833862,distr,26445.000171661377,Tue Sep 02 2025 09:16:43 GMT-0500 (Central Daylight Time),773910.1000000238,B,meat,I,t,208,1,933.0,772977.1000000238,8058,WL,C,13.0
6,34.27199983596802,distr,25728.000164031982,Tue Sep 02 2025 09:16:43 GMT-0500 (Central Daylight Time),774626.6000000238,B,meatenter,I,enter,712,1,1649.5,772977.1000000238,8058,WL,C,13.0
6,35.38800001144409,distr,24611.99998855591,Tue Sep 02 2025 09:16:43 GMT-0500 (Central Daylight Time),775742.6999999285,B,m,I,m,1107,1,1115.8999999761581,774626.7999999523,8058,WL,C,14.0
6,35.537999868392944,distr,24462.000131607056,Tue Sep 02 2025 09:16:43 GMT-0500 (Central Daylight Time),775892.6000000238,B,mo,I,o,135,1,1265.8000000715256,774626.7999999523,8058,WL,C,14.0
6,35.65499997138977,distr,24345.00002861023,Tue Sep 02 2025 09:16:43 GMT-0500 (Central Daylight Time),776009.3999999762,B,mon,I,n,105,1,1382.6000000238419,774626.7999999523,8058,WL,C,14.0
6,35.75499987602234,distr,24245.00012397766,Tue Sep 02 2025 09:16:43 GMT-0500 (Central Daylight Time),776109.3999999762,B,mone,I,e,92,1,1482.6000000238419,774626.7999999523,8058,WL,C,14.0
6,35.98799991607666,distr,24012.00008392334,Tue Sep 02 2025 09:16:43 GMT-0500 (Central Daylight Time),776342.5,B,money,I,y,216,1,1715.7000000476837,774626.7999999523,8058,WL,C,14.0
6,36.4539999961853,distr,23546.000003814697,Tue Sep 02 2025 09:16:43 GMT-0500 (Central Daylight Time),776809.0,B,moneyenter,I,enter,455,1,2182.2000000476837,774626.7999999523,8058,WL,C,14.0
6,37.03699994087219,distr,22963.000059127808,Tue Sep 02 2025 09:16:43 GMT-0500 (Central Daylight Time),777392.1000000238,B,h,I,h,574,1,582.8000000715256,776809.2999999523,8058,WL,C,15.0
6,37.23699998855591,distr,22763.00001144409,Tue Sep 02 2025 09:16:43 GMT-0500 (Central Daylight Time),777592.0,B,ho,I,o,181,1,782.7000000476837,776809.2999999523,8058,WL,C,15.0
6,37.520999908447266,distr,22479.000091552734,Tue Sep 02 2025 09:16:43 GMT-0500 (Central Daylight Time),777875.6000000238,B,hot,I,t,271,1,1066.3000000715256,776809.2999999523,8058,WL,C,15.0
6,37.687000036239624,distr,22312.999963760376,Tue Sep 02 2025 09:16:43 GMT-0500 (Central Daylight Time),778042.0,B,hote,I,e,146,1,1232.7000000476837,776809.2999999523,8058,WL,C,15.0
6,38.019999980926514,distr,21980.000019073486,Tue Sep 02 2025 09:16:43 GMT-0500 (Central Daylight Time),778375.1000000238,B,hotel,I,l,324,1,1565.8000000715256,776809.2999999523,8058,WL,C,15.0
6,38.503000020980835,distr,21496.999979019165,Tue Sep 02 2025 09:16:43 GMT-0500 (Central Daylight Time),778858.3999999762,B,hotelenter,I,enter,463,1,2049.100000023842,776809.2999999523,8058,WL,C,15.0
7,4.948000192642212,immed,55051.99980735779,Tue Sep 02 2025 09:16:43 GMT-0500 (Central Daylight Time),786255.8999999762,A,s,I,s,4937,1,4946.799999952316,781309.1000000238,8058,WL,C,1.0
7,5.164000034332275,immed,54835.999965667725,Tue Sep 02 2025 09:16:43 GMT-0500 (Central Daylight Time),786472.8999999762,A,sk,I,k,205,1,5163.799999952316,781309.1000000238,8058,WL,C,1.0
7,5.46399998664856,immed,54536.00001335144,Tue Sep 02 2025 09:16:43 GMT-0500 (Central Daylight Time),786772.7999999523,A,sky,I,y,293,1,5463.699999928474,781309.1000000238,8058,WL,C,1.0
7,6.064000129699707,immed,53935.99987030029,Tue Sep 02 2025 09:16:43 GMT-0500 (Central Daylight Time),787372.6000000238,A,skyenter,I,enter,585,1,6063.5,781309.1000000238,8058,WL,C,1.0
7,7.580000162124634,immed,52419.999837875366,Tue Sep 02 2025 09:16:43 GMT-0500 (Central Daylight Time),788888.6000000238,A,c,I,c,1497,1,1515.7000000476837,787372.8999999762,8058,WL,C,2.0
7,7.746999979019165,immed,52253.000020980835,Tue Sep 02 2025 09:16:43 GMT-0500 (Central Daylight Time),789055.1000000238,A,co,I,o,149,1,1682.2000000476837,787372.8999999762,8058,WL,C,2.0
