block_c,block_dur,condition,countdown,datetime,endtime,list,multichar_response,project,response,response_time,session_number,start_end,starttime,subject_id,task,task_vers,trial
,,,,Fri Dec 19 2025 15:57:11 GMT-0600 (Central Standard Time),,,,I,space,903,2,,,8068,WL,C,
prac,,0,,Fri Dec 19 2025 15:57:11 GMT-0600 (Central Standard Time),,NA,b,I,b,3871,2,,,8068,WL,C,1.0
prac,,0,,Fri Dec 19 2025 15:57:11 GMT-0600 (Central Standard Time),,NA,bo,I,o,993,2,,,8068,WL,C,1.0
prac,,0,,Fri Dec 19 2025 15:57:11 GMT-0600 (Central Standard Time),,NA,boo,I,o,242,2,,,8068,WL,C,1.0
prac,,0,,Fri Dec 19 2025 15:57:11 GMT-0600 (Central Standard Time),,NA,boos,I,s,185,2,,,8068,WL,C,1.0
prac,,0,,Fri Dec 19 2025 15:57:11 GMT-0600 (Central Standard Time),,NA,boost,I,t,256,2,,,8068,WL,C,1.0
prac,,0,,Fri Dec 19 2025 15:57:11 GMT-0600 (Central Standard Time),,NA,boostenter,I,enter,1101,2,,,8068,WL,C,1.0
1,2.2660000324249268,learn,57733.99996757507,Fri Dec 19 2025 15:57:11 GMT-0600 (Central Standard Time),104575.0,A,b,I,b,2255,2,2265.7999999523163,102309.20000004768,8068,WL,C,1.0
1,2.999000072479248,learn,57000.99992752075,Fri Dec 19 2025 15:57:11 GMT-0600 (Central Standard Time),105307.90000009537,A,bo,I,o,715,2,2998.7000000476837,102309.20000004768,8068,WL,C,1.0
1,3.1659998893737793,learn,56834.00011062622,Fri Dec 19 2025 15:57:11 GMT-0600 (Central Standard Time),105474.60000002384,A,bod,I,d,152,2,3165.399999976158,102309.20000004768,8068,WL,C,1.0
1,3.6659998893737793,learn,56334.00011062622,Fri Dec 19 2025 15:57:11 GMT-0600 (Central Standard Time),105974.5,A,body,I,y,490,2,3665.2999999523163,102309.20000004768,8068,WL,C,1.0
1,4.365000009536743,learn,55634.99999046326,Fri Dec 19 2025 15:57:11 GMT-0600 (Central Standard Time),106674.30000007153,A,bodyenter,I,enter,684,2,4365.100000023842,102309.20000004768,8068,WL,C,1.0
1,5.7149999141693115,learn,54285.00008583069,Fri Dec 19 2025 15:57:11 GMT-0600 (Central Standard Time),108023.80000007153,A,q,I,q,1329,2,1349.0,106674.80000007153,8068,WL,C,2.0
1,5.99399995803833,learn,54006.00004196167,Fri Dec 19 2025 15:57:11 GMT-0600 (Central Standard Time),108302.90000009537,A,qu,I,u,273,2,1628.1000000238419,106674.80000007153,8068,WL,C,2.0
1,6.141999959945679,learn,53858.00004005432,Fri Dec 19 2025 15:57:11 GMT-0600 (Central Standard Time),108450.70000004768,A,que,I,e,141,2,1775.8999999761581,106674.80000007153,8068,WL,C,2.0
1,6.297999858856201,learn,53702.0001411438,Fri Dec 19 2025 15:57:11 GMT-0600 (Central Standard Time),108606.60000002384,A,quee,I,e,144,2,1931.7999999523163,106674.80000007153,8068,WL,C,2.0
1,6.547999858856201,learn,53452.0001411438,Fri Dec 19 2025 15:57:11 GMT-0600 (Central Standard Time),108856.70000004768,A,queen,I,n,229,2,2181.899999976158,106674.80000007153,8068,WL,C,2.0
1,6.997999906539917,learn,53002.00009346008,Fri Dec 19 2025 15:57:11 GMT-0600 (Central Standard Time),109306.70000004768,A,queenenter,I,enter,434,2,2631.899999976158,106674.80000007153,8068,WL,C,2.0
1,7.563999891281128,learn,52436.00010871887,Fri Dec 19 2025 15:57:11 GMT-0600 (Central Standard Time),109873.30000007153,A,b,I,b,545,2,566.2000000476837,109307.10000002384,8068,WL,C,3.0
1,7.796999931335449,learn,52203.00006866455,Fri Dec 19 2025 15:57:11 GMT-0600 (Central Standard Time),110106.20000004768,A,bo,I,o,218,2,799.1000000238419,109307.10000002384,8068,WL,C,3.0
1,8.164000034332275,learn,51835.999965667725,Fri Dec 19 2025 15:57:11 GMT-0600 (Central Standard Time),110473.20000004768,A,boy,I,y,346,2,1166.1000000238419,109307.10000002384,8068,WL,C,3.0
1,8.813999891281128,learn,51186.00010871887,Fri Dec 19 2025 15:57:11 GMT-0600 (Central Standard Time),111122.90000009537,A,boyenter,I,enter,635,2,1815.8000000715256,109307.10000002384,8068,WL,C,3.0
1,9.364000082015991,learn,50635.99991798401,Fri Dec 19 2025 15:57:11 GMT-0600 (Central Standard Time),111672.40000009537,A,d,I,d,537,2,549.1000000238419,111123.30000007153,8068,WL,C,4.0
1,9.579999923706055,learn,50420.000076293945,Fri Dec 19 2025 15:57:11 GMT-0600 (Central Standard Time),111889.10000002384,A,do,I,o,195,2,765.7999999523163,111123.30000007153,8068,WL,C,4.0
1,9.71399998664856,learn,50286.00001335144,Fri Dec 19 2025 15:57:11 GMT-0600 (Central Standard Time),112022.70000004768,A,doc,I,c,115,2,899.3999999761581,111123.30000007153,8068,WL,C,4.0
1,9.94700002670288,learn,50052.99997329712,Fri Dec 19 2025 15:57:11 GMT-0600 (Central Standard Time),112255.90000009537,A,doct,I,t,222,2,1132.6000000238419,111123.30000007153,8068,WL,C,4.0
1,10.096999883651733,learn,49903.00011634827,Fri Dec 19 2025 15:57:11 GMT-0600 (Central Standard Time),112405.70000004768,A,docto,I,o,132,2,1282.3999999761581,111123.30000007153,8068,WL,C,4.0
1,10.213000059127808,learn,49786.99994087219,Fri Dec 19 2025 15:57:11 GMT-0600 (Central Standard Time),112522.30000007153,A,doctor,I,r,103,2,1399.0,111123.30000007153,8068,WL,C,4.0
1,10.664000034332275,learn,49335.999965667725,Fri Dec 19 2025 15:57:11 GMT-0600 (Central Standard Time),112972.40000009537,A,doctorenter,I,enter,434,2,1849.1000000238419,111123.30000007153,8068,WL,C,4.0
1,12.013000011444092,learn,47986.99998855591,Fri Dec 19 2025 15:57:11 GMT-0600 (Central Standard Time),114321.70000004768,A,w,I,w,1337,2,1348.7999999523163,112972.90000009537,8068,WL,C,5.0
1,12.578999996185303,learn,47421.0000038147,Fri Dec 19 2025 15:57:11 GMT-0600 (Central Standard Time),114888.30000007153,A,wh,I,h,555,2,1915.3999999761581,112972.90000009537,8068,WL,C,5.0
1,13.145999908447266,learn,46854.000091552734,Fri Dec 19 2025 15:57:11 GMT-0600 (Central Standard Time),115454.70000004768,A,whe,I,e,548,2,2481.7999999523163,112972.90000009537,8068,WL,C,5.0
1,13.345999956130981,learn,46654.00004386902,Fri Dec 19 2025 15:57:11 GMT-0600 (Central Standard Time),115654.80000007153,A,whea,I,a,189,2,2681.899999976158,112972.90000009537,8068,WL,C,5.0
1,13.496000051498413,learn,46503.99994850159,Fri Dec 19 2025 15:57:11 GMT-0600 (Central Standard Time),115804.70000004768,A,wheat,I,t,134,2,2831.7999999523163,112972.90000009537,8068,WL,C,5.0
1,14.546000003814697,learn,45453.9999961853,Fri Dec 19 2025 15:57:11 GMT-0600 (Central Standard Time),116854.60000002384,A,wheatenter,I,enter,1032,2,3881.6999999284744,112972.90000009537,8068,WL,C,5.0
1,14.795000076293945,learn,45204.999923706055,Fri Dec 19 2025 15:57:11 GMT-0600 (Central Standard Time),117104.0,A,s,I,s,238,2,249.0,116855.0,8068,WL,C,6.0
1,15.045000076293945,learn,44954.999923706055,Fri Dec 19 2025 15:57:11 GMT-0600 (Central Standard Time),117354.40000009537,A,su,I,u,237,2,499.40000009536743,116855.0,8068,WL,C,6.0
1,15.295000076293945,learn,44704.999923706055,Fri Dec 19 2025 15:57:11 GMT-0600 (Central Standard Time),117604.10000002384,A,sug,I,g,235,2,749.1000000238419,116855.0,8068,WL,C,6.0
1,15.527999877929688,learn,44472.00012207031,Fri Dec 19 2025 15:57:11 GMT-0600 (Central Standard Time),117837.30000007153,A,suga,I,a,223,2,982.3000000715256,116855.0,8068,WL,C,6.0
1,15.82800006866455,learn,44171.99993133545,Fri Dec 19 2025 15:57:11 GMT-0600 (Central Standard Time),118137.10000002384,A,sugar,I,r,278,2,1282.1000000238419,116855.0,8068,WL,C,6.0
1,16.543999910354614,learn,43456.000089645386,Fri Dec 19 2025 15:57:11 GMT-0600 (Central Standard Time),118853.60000002384,A,sugarenter,I,enter,708,2,1998.6000000238419,116855.0,8068,WL,C,6.0
1,16.960999965667725,learn,43039.000034332275,Fri Dec 19 2025 15:57:11 GMT-0600 (Central Standard Time),119270.20000004768,A,c,I,c,407,2,416.2000000476837,118854.0,8068,WL,C,7.0
1,17.0939998626709,learn,42906.0001373291,Fri Dec 19 2025 15:57:11 GMT-0600 (Central Standard Time),119403.5,A,ca,I,a,126,2,549.5,118854.0,8068,WL,C,7.0
1,17.460000038146973,learn,42539.99996185303,Fri Dec 19 2025 15:57:11 GMT-0600 (Central Standard Time),119769.90000009537,A,can,I,n,361,2,915.9000000953674,118854.0,8068,WL,C,7.0
1,18.359999895095825,learn,41640.000104904175,Fri Dec 19 2025 15:57:11 GMT-0600 (Central Standard Time),120669.80000007153,A,ca,I,backspace,891,2,1815.8000000715256,118854.0,8068,WL,C,7.0
1,18.90999984741211,learn,41090.00015258789,Fri Dec 19 2025 15:57:11 GMT-0600 (Central Standard Time),121219.70000004768,A,can,I,n,544,2,2365.7000000476837,118854.0,8068,WL,C,7.0
1,19.443000078201294,learn,40556.999921798706,Fri Dec 19 2025 15:57:11 GMT-0600 (Central Standard Time),121752.80000007153,A,canp,I,p,513,2,2898.8000000715256,118854.0,8068,WL,C,7.0
1,20.7260000705719,learn,39273.9999294281,Fri Dec 19 2025 15:57:11 GMT-0600 (Central Standard Time),123035.5,A,can,I,backspace,1267,2,4181.5,118854.0,8068,WL,C,7.0
1,20.960000038146973,learn,39039.99996185303,Fri Dec 19 2025 15:57:11 GMT-0600 (Central Standard Time),123269.10000002384,A,ca,I,backspace,218,2,4415.100000023842,118854.0,8068,WL,C,7.0
1,21.743000030517578,learn,38256.99996948242,Fri Dec 19 2025 15:57:11 GMT-0600 (Central Standard Time),124052.10000002384,A,can,I,n,776,2,5198.100000023842,118854.0,8068,WL,C,7.0
1,22.259000062942505,learn,37740.999937057495,Fri Dec 19 2025 15:57:11 GMT-0600 (Central Standard Time),124568.30000007153,A,ca,I,backspace,496,2,5714.300000071526,118854.0,8068,WL,C,7.0
1,22.72499990463257,learn,37275.00009536743,Fri Dec 19 2025 15:57:11 GMT-0600 (Central Standard Time),125034.80000007153,A,cam,I,m,461,2,6180.800000071526,118854.0,8068,WL,C,7.0
1,23.191999912261963,learn,36808.00008773804,Fri Dec 19 2025 15:57:11 GMT-0600 (Central Standard Time),125501.70000004768,A,camp,I,p,459,2,6647.700000047684,118854.0,8068,WL,C,7.0
1,23.72499990463257,learn,36275.00009536743,Fri Dec 19 2025 15:57:11 GMT-0600 (Central Standard Time),126034.60000002384,A,campenter,I,enter,519,2,7180.600000023842,118854.0,8068,WL,C,7.0
1,24.807999849319458,learn,35192.00015068054,Fri Dec 19 2025 15:57:11 GMT-0600 (Central Standard Time),127117.80000007153,A,n,I,n,1075,2,1082.7000000476837,126035.10000002384,8068,WL,C,8.0
1,24.924999952316284,learn,35075.000047683716,Fri Dec 19 2025 15:57:11 GMT-0600 (Central Standard Time),127234.10000002384,A,na,I,a,111,2,1199.0,126035.10000002384,8068,WL,C,8.0
1,25.141000032424927,learn,34858.99996757507,Fri Dec 19 2025 15:57:11 GMT-0600 (Central Standard Time),127450.80000007153,A,nai,I,i,211,2,1415.7000000476837,126035.10000002384,8068,WL,C,8.0
1,25.5239999294281,learn,34476.0000705719,Fri Dec 19 2025 15:57:11 GMT-0600 (Central Standard Time),127833.90000009537,A,naio,I,o,378,2,1798.8000000715256,126035.10000002384,8068,WL,C,8.0
1,25.591000080108643,learn,34408.99991989136,Fri Dec 19 2025 15:57:11 GMT-0600 (Central Standard Time),127901.0,A,naiol,I,l,59,2,1865.8999999761581,126035.10000002384,8068,WL,C,8.0
1,27.056999921798706,learn,32943.000078201294,Fri Dec 19 2025 15:57:11 GMT-0600 (Central Standard Time),129366.90000009537,A,naio,I,backspace,1456,2,3331.8000000715256,126035.10000002384,8068,WL,C,8.0
1,27.341000080108643,learn,32658.999919891357,Fri Dec 19 2025 15:57:11 GMT-0600 (Central Standard Time),129650.20000004768,A,nai,I,backspace,270,2,3615.100000023842,126035.10000002384,8068,WL,C,8.0
1,28.407000064849854,learn,31592.999935150146,Fri Dec 19 2025 15:57:11 GMT-0600 (Central Standard Time),130716.80000007153,A,nail,I,l,1059,2,4681.700000047684,126035.10000002384,8068,WL,C,8.0
1,29.0239999294281,learn,30976.0000705719,Fri Dec 19 2025 15:57:11 GMT-0600 (Central Standard Time),131333.20000004768,A,nailenter,I,enter,609,2,5298.100000023842,126035.10000002384,8068,WL,C,8.0
1,31.905999898910522,learn,28094.000101089478,Fri Dec 19 2025 15:57:11 GMT-0600 (Central Standard Time),134215.30000007153,A,c,I,c,2872,2,2881.7000000476837,131333.60000002384,8068,WL,C,9.0
1,32.12299990653992,learn,27877.000093460083,Fri Dec 19 2025 15:57:11 GMT-0600 (Central Standard Time),134432.5,A,co,I,o,205,2,3098.899999976158,131333.60000002384,8068,WL,C,9.0
1,32.27300000190735,learn,27726.99999809265,Fri Dec 19 2025 15:57:11 GMT-0600 (Central Standard Time),134582.10000002384,A,cor,I,r,141,2,3248.5,131333.60000002384,8068,WL,C,9.0
1,32.50600004196167,learn,27493.99995803833,Fri Dec 19 2025 15:57:11 GMT-0600 (Central Standard Time),134815.5,A,corn,I,n,222,2,3481.899999976158,131333.60000002384,8068,WL,C,9.0
1,33.42199993133545,learn,26578.00006866455,Fri Dec 19 2025 15:57:11 GMT-0600 (Central Standard Time),135731.70000004768,A,cornenter,I,enter,909,2,4398.100000023842,131333.60000002384,8068,WL,C,9.0
1,35.454999923706055,learn,24545.000076293945,Fri Dec 19 2025 15:57:11 GMT-0600 (Central Standard Time),137764.40000009537,A,t,I,t,2017,2,2032.2000000476837,135732.20000004768,8068,WL,C,10.0
1,35.63800001144409,learn,24361.99998855591,Fri Dec 19 2025 15:57:11 GMT-0600 (Central Standard Time),137947.80000007153,A,to,I,o,168,2,2215.600000023842,135732.20000004768,8068,WL,C,10.0
1,35.7720000743866,learn,24227.999925613403,Fri Dec 19 2025 15:57:11 GMT-0600 (Central Standard Time),138081.20000004768,A,tow,I,w,112,2,2349.0,135732.20000004768,8068,WL,C,10.0
1,36.12100005149841,learn,23878.999948501587,Fri Dec 19 2025 15:57:11 GMT-0600 (Central Standard Time),138430.80000007153,A,towe,I,e,331,2,2698.600000023842,135732.20000004768,8068,WL,C,10.0
1,36.305999994277954,learn,23694.000005722046,Fri Dec 19 2025 15:57:11 GMT-0600 (Central Standard Time),138615.5,A,tower,I,r,166,2,2883.2999999523163,135732.20000004768,8068,WL,C,10.0
1,36.73799991607666,learn,23262.00008392334,Fri Dec 19 2025 15:57:11 GMT-0600 (Central Standard Time),139047.40000009537,A,towerenter,I,enter,421,2,3315.2000000476837,135732.20000004768,8068,WL,C,10.0
1,37.57099986076355,learn,22429.00013923645,Fri Dec 19 2025 15:57:11 GMT-0600 (Central Standard Time),139880.70000004768,A,h,I,h,813,2,832.8999999761581,139047.80000007153,8068,WL,C,11.0
1,37.87100005149841,learn,22128.999948501587,Fri Dec 19 2025 15:57:11 GMT-0600 (Central Standard Time),140180.30000007153,A,ho,I,o,284,2,1132.5,139047.80000007153,8068,WL,C,11.0
1,38.48799991607666,learn,21512.00008392334,Fri Dec 19 2025 15:57:11 GMT-0600 (Central Standard Time),140797.20000004768,A,hom,I,m,600,2,1749.3999999761581,139047.80000007153,8068,WL,C,11.0
1,38.7039999961853,learn,21296.000003814697,Fri Dec 19 2025 15:57:11 GMT-0600 (Central Standard Time),141013.30000007153,A,home,I,e,209,2,1965.5,139047.80000007153,8068,WL,C,11.0
1,39.63699984550476,learn,20363.00015449524,Fri Dec 19 2025 15:57:11 GMT-0600 (Central Standard Time),141946.60000002384,A,homeenter,I,enter,919,2,2898.7999999523163,139047.80000007153,8068,WL,C,11.0
1,60.013999938964844,learn,-13.99993896484375,Fri Dec 19 2025 15:57:11 GMT-0600 (Central Standard Time),162323.40000009537,A,None,I,None,20372,2,20376.400000095367,141947.0,8068,WL,C,12.0
2,0.6000001430511475,learn,59399.99985694885,Fri Dec 19 2025 15:57:11 GMT-0600 (Central Standard Time),259059.90000009537,A,f,I,f,586,2,599.7000000476837,258460.20000004768,8068,WL,C,1.0
2,1.2000000476837158,learn,58799.999952316284,Fri Dec 19 2025 15:57:11 GMT-0600 (Central Standard Time),259659.70000004768,A,fl,I,l,592,2,1199.5,258460.20000004768,8068,WL,C,1.0
2,1.3500001430511475,learn,58649.99985694885,Fri Dec 19 2025 15:57:11 GMT-0600 (Central Standard Time),259809.60000002384,A,fla,I,a,129,2,1349.3999999761581,258460.20000004768,8068,WL,C,1.0
2,1.633000135421753,learn,58366.99986457825,Fri Dec 19 2025 15:57:11 GMT-0600 (Central Standard Time),260093.0,A,flag,I,g,268,2,1632.7999999523163,258460.20000004768,8068,WL,C,1.0
2,2.5160000324249268,learn,57483.99996757507,Fri Dec 19 2025 15:57:11 GMT-0600 (Central Standard Time),260976.0,A,flagenter,I,enter,863,2,2515.7999999523163,258460.20000004768,8068,WL,C,1.0
2,3.115999937057495,learn,56884.000062942505,Fri Dec 19 2025 15:57:11 GMT-0600 (Central Standard Time),261575.70000004768,A,l,I,l,581,2,599.3999999761581,260976.30000007153,8068,WL,C,2.0
2,3.2660000324249268,learn,56733.99996757507,Fri Dec 19 2025 15:57:11 GMT-0600 (Central Standard Time),261725.5,A,le,I,e,133,2,749.1999999284744,260976.30000007153,8068,WL,C,2.0
2,3.5320000648498535,learn,56467.99993515015,Fri Dec 19 2025 15:57:11 GMT-0600 (Central Standard Time),261992.10000002384,A,let,I,t,247,2,1015.7999999523163,260976.30000007153,8068,WL,C,2.0
2,3.749000072479248,learn,56250.99992752075,Fri Dec 19 2025 15:57:11 GMT-0600 (Central Standard Time),262209.0,A,lett,I,t,204,2,1232.6999999284744,260976.30000007153,8068,WL,C,2.0
2,3.815999984741211,learn,56184.00001525879,Fri Dec 19 2025 15:57:11 GMT-0600 (Central Standard Time),262275.60000002384,A,lette,I,e,51,2,1299.2999999523163,260976.30000007153,8068,WL,C,2.0
2,4.365999937057495,learn,55634.000062942505,Fri Dec 19 2025 15:57:11 GMT-0600 (Central Standard Time),262825.3000000715,A,letter,I,r,538,2,1849.0,260976.30000007153,8068,WL,C,2.0
2,4.966000080108643,learn,55033.99991989136,Fri Dec 19 2025 15:57:11 GMT-0600 (Central Standard Time),263425.2000000477,A,letterenter,I,enter,579,2,2448.899999976158,260976.30000007153,8068,WL,C,2.0
2,5.398999929428101,learn,54601.0000705719,Fri Dec 19 2025 15:57:11 GMT-0600 (Central Standard Time),263858.3000000715,A,c,I,c,419,2,432.7000000476837,263425.60000002384,8068,WL,C,3.0
2,5.582000017166138,learn,54417.99998283386,Fri Dec 19 2025 15:57:11 GMT-0600 (Central Standard Time),264041.60000002384,A,co,I,o,163,2,616.0,263425.60000002384,8068,WL,C,3.0
2,5.681999921798706,learn,54318.000078201294,Fri Dec 19 2025 15:57:11 GMT-0600 (Central Standard Time),264141.7000000477,A,cor,I,r,92,2,716.1000000238419,263425.60000002384,8068,WL,C,3.0
2,5.998000144958496,learn,54001.999855041504,Fri Dec 19 2025 15:57:11 GMT-0600 (Central Standard Time),264458.0,A,corn,I,n,311,2,1032.3999999761581,263425.60000002384,8068,WL,C,3.0
2,6.697999954223633,learn,53302.00004577637,Fri Dec 19 2025 15:57:11 GMT-0600 (Central Standard Time),265157.8000000715,A,cornenter,I,enter,691,2,1732.2000000476837,263425.60000002384,8068,WL,C,3.0
2,7.197999954223633,learn,52802.00004577637,Fri Dec 19 2025 15:57:11 GMT-0600 (Central Standard Time),265657.7000000477,A,s,I,s,495,2,499.60000002384186,265158.10000002384,8068,WL,C,4.0
2,7.565000057220459,learn,52434.99994277954,Fri Dec 19 2025 15:57:11 GMT-0600 (Central Standard Time),266024.3000000715,A,sh,I,h,355,2,866.2000000476837,265158.10000002384,8068,WL,C,4.0
2,7.79800009727478,learn,52201.99990272522,Fri Dec 19 2025 15:57:11 GMT-0600 (Central Standard Time),266257.7000000477,A,sho,I,o,220,2,1099.6000000238419,265158.10000002384,8068,WL,C,4.0
2,7.914999961853027,learn,52085.00003814697,Fri Dec 19 2025 15:57:11 GMT-0600 (Central Standard Time),266374.3000000715,A,shor,I,r,108,2,1216.2000000476837,265158.10000002384,8068,WL,C,4.0
2,8.081000089645386,learn,51918.999910354614,Fri Dec 19 2025 15:57:11 GMT-0600 (Central Standard Time),266540.8000000715,A,shore,I,e,159,2,1382.7000000476837,265158.10000002384,8068,WL,C,4.0
2,8.513999938964844,learn,51486.000061035156,Fri Dec 19 2025 15:57:11 GMT-0600 (Central Standard Time),266974.0,A,shoreenter,I,enter,424,2,1815.8999999761581,265158.10000002384,8068,WL,C,4.0
2,9.04800009727478,learn,50951.99990272522,Fri Dec 19 2025 15:57:11 GMT-0600 (Central Standard Time),267507.3000000715,A,t,I,t,519,2,532.8999999761581,266974.40000009537,8068,WL,C,5.0
2,9.248000144958496,learn,50751.999855041504,Fri Dec 19 2025 15:57:11 GMT-0600 (Central Standard Time),267707.2000000477,A,to,I,o,193,2,732.7999999523163,266974.40000009537,8068,WL,C,5.0
2,9.347000122070312,learn,50652.99987792969,Fri Dec 19 2025 15:57:11 GMT-0600 (Central Standard Time),267807.10000002384,A,tow,I,w,89,2,832.6999999284744,266974.40000009537,8068,WL,C,5.0
2,9.581000089645386,learn,50418.999910354614,Fri Dec 19 2025 15:57:11 GMT-0600 (Central Standard Time),268041.0,A,towe,I,e,213,2,1066.5999999046326,266974.40000009537,8068,WL,C,5.0
2,9.69700002670288,learn,50302.99997329712,Fri Dec 19 2025 15:57:11 GMT-0600 (Central Standard Time),268157.10000002384,A,tower,I,r,100,2,1182.6999999284744,266974.40000009537,8068,WL,C,5.0
2,10.13100004196167,learn,49868.99995803833,Fri Dec 19 2025 15:57:11 GMT-0600 (Central Standard Time),268590.5,A,towerenter,I,enter,416,2,1616.0999999046326,266974.40000009537,8068,WL,C,5.0
2,10.46399998664856,learn,49536.00001335144,Fri Dec 19 2025 15:57:11 GMT-0600 (Central Standard Time),268923.40000009537,A,q,I,q,319,2,332.60000002384186,268590.8000000715,8068,WL,C,6.0
2,10.69700002670288,learn,49302.99997329712,Fri Dec 19 2025 15:57:11 GMT-0600 (Central Standard Time),269156.60000002384,A,qu,I,u,226,2,565.7999999523163,268590.8000000715,8068,WL,C,6.0
2,10.781000137329102,learn,49218.9998626709,Fri Dec 19 2025 15:57:11 GMT-0600 (Central Standard Time),269241.2000000477,A,que,I,e,73,2,650.3999999761581,268590.8000000715,8068,WL,C,6.0
2,11.097000122070312,learn,48902.99987792969,Fri Dec 19 2025 15:57:11 GMT-0600 (Central Standard Time),269556.40000009537,A,quee,I,e,307,2,965.6000000238419,268590.8000000715,8068,WL,C,6.0
2,11.413000106811523,learn,48586.99989318848,Fri Dec 19 2025 15:57:11 GMT-0600 (Central Standard Time),269873.10000002384,A,queen,I,n,312,2,1282.2999999523163,268590.8000000715,8068,WL,C,6.0
2,11.86299991607666,learn,48137.00008392334,Fri Dec 19 2025 15:57:11 GMT-0600 (Central Standard Time),270323.10000002384,A,queenenter,I,enter,435,2,1732.2999999523163,268590.8000000715,8068,WL,C,6.0
2,12.246000051498413,learn,47753.99994850159,Fri Dec 19 2025 15:57:11 GMT-0600 (Central Standard Time),270706.0,A,b,I,b,369,2,382.59999990463257,270323.40000009537,8068,WL,C,7.0
2,12.430000066757202,learn,47569.9999332428,Fri Dec 19 2025 15:57:11 GMT-0600 (Central Standard Time),270889.5,A,bo,I,o,178,2,566.0999999046326,270323.40000009537,8068,WL,C,7.0
2,12.79699993133545,learn,47203.00006866455,Fri Dec 19 2025 15:57:11 GMT-0600 (Central Standard Time),271256.2000000477,A,boy,I,y,347,2,932.7999999523163,270323.40000009537,8068,WL,C,7.0
2,14.328999996185303,learn,45671.0000038147,Fri Dec 19 2025 15:57:11 GMT-0600 (Central Standard Time),272789.0,A,boyenter,I,enter,1524,2,2465.5999999046326,270323.40000009537,8068,WL,C,7.0
2,14.875999927520752,learn,45124.00007247925,Fri Dec 19 2025 15:57:11 GMT-0600 (Central Standard Time),273335.40000009537,A,d,I,d,542,2,546.1000000238419,272789.3000000715,8068,WL,C,8.0
2,15.023000001907349,learn,44976.99999809265,Fri Dec 19 2025 15:57:11 GMT-0600 (Central Standard Time),273482.60000002384,A,do,I,o,142,2,693.2999999523163,272789.3000000715,8068,WL,C,8.0
2,15.046000003814697,learn,44953.9999961853,Fri Dec 19 2025 15:57:11 GMT-0600 (Central Standard Time),273505.2000000477,A,doc,I,c,17,2,715.8999999761581,272789.3000000715,8068,WL,C,8.0
2,15.279000043869019,learn,44720.99995613098,Fri Dec 19 2025 15:57:11 GMT-0600 (Central Standard Time),273738.5,A,doct,I,t,216,2,949.1999999284744,272789.3000000715,8068,WL,C,8.0
2,15.42900013923645,learn,44570.99986076355,Fri Dec 19 2025 15:57:11 GMT-0600 (Central Standard Time),273888.5,A,docto,I,o,130,2,1099.1999999284744,272789.3000000715,8068,WL,C,8.0
2,15.529000043869019,learn,44470.99995613098,Fri Dec 19 2025 15:57:11 GMT-0600 (Central Standard Time),273988.2000000477,A,doctor,I,r,93,2,1198.8999999761581,272789.3000000715,8068,WL,C,8.0
2,16.295000076293945,learn,43704.999923706055,Fri Dec 19 2025 15:57:11 GMT-0600 (Central Standard Time),274754.90000009537,A,doctorenter,I,enter,753,2,1965.6000000238419,272789.3000000715,8068,WL,C,8.0
2,18.92799997329712,learn,41072.00002670288,Fri Dec 19 2025 15:57:11 GMT-0600 (Central Standard Time),277387.40000009537,A,w,I,w,2627,2,2632.2000000476837,274755.2000000477,8068,WL,C,9.0
2,19.14400005340576,learn,40855.99994659424,Fri Dec 19 2025 15:57:11 GMT-0600 (Central Standard Time),277603.7000000477,A,wh,I,h,209,2,2848.5,274755.2000000477,8068,WL,C,9.0
2,19.227999925613403,learn,40772.0000743866,Fri Dec 19 2025 15:57:11 GMT-0600 (Central Standard Time),277687.5,A,whe,I,e,73,2,2932.2999999523163,274755.2000000477,8068,WL,C,9.0
2,19.344000101089478,learn,40655.99989891052,Fri Dec 19 2025 15:57:11 GMT-0600 (Central Standard Time),277804.0,A,wher,I,r,109,2,3048.7999999523163,274755.2000000477,8068,WL,C,9.0
2,20.044000148773193,learn,39955.99985122681,Fri Dec 19 2025 15:57:11 GMT-0600 (Central Standard Time),278503.8000000715,A,whe,I,backspace,689,2,3748.600000023842,274755.2000000477,8068,WL,C,9.0
2,20.22699999809265,learn,39773.00000190735,Fri Dec 19 2025 15:57:11 GMT-0600 (Central Standard Time),278687.10000002384,A,whea,I,a,165,2,3931.899999976158,274755.2000000477,8068,WL,C,9.0
2,20.41100001335144,learn,39588.99998664856,Fri Dec 19 2025 15:57:11 GMT-0600 (Central Standard Time),278870.3000000715,A,wheat,I,t,167,2,4115.100000023842,274755.2000000477,8068,WL,C,9.0
2,21.30999994277954,learn,38690.00005722046,Fri Dec 19 2025 15:57:11 GMT-0600 (Central Standard Time),279769.90000009537,A,wheatenter,I,enter,887,2,5014.700000047684,274755.2000000477,8068,WL,C,9.0
2,21.91000008583069,learn,38089.99991416931,Fri Dec 19 2025 15:57:11 GMT-0600 (Central Standard Time),280369.60000002384,A,c,I,c,594,2,599.2999999523163,279770.3000000715,8068,WL,C,10.0
2,22.177000045776367,learn,37822.99995422363,Fri Dec 19 2025 15:57:11 GMT-0600 (Central Standard Time),280636.3000000715,A,co,I,o,259,2,866.0,279770.3000000715,8068,WL,C,10.0
2,22.311000108718872,learn,37688.99989128113,Fri Dec 19 2025 15:57:11 GMT-0600 (Central Standard Time),280770.7000000477,A,cor,I,r,114,2,1000.3999999761581,279770.3000000715,8068,WL,C,10.0
2,22.509999990463257,learn,37490.00000953674,Fri Dec 19 2025 15:57:11 GMT-0600 (Central Standard Time),280969.40000009537,A,corn,I,n,194,2,1199.1000000238419,279770.3000000715,8068,WL,C,10.0
2,23.39300012588501,learn,36606.99987411499,Fri Dec 19 2025 15:57:11 GMT-0600 (Central Standard Time),281852.60000002384,A,cornenter,I,enter,867,2,2082.2999999523163,279770.3000000715,8068,WL,C,10.0
2,24.125999927520752,learn,35874.00007247925,Fri Dec 19 2025 15:57:11 GMT-0600 (Central Standard Time),282585.5,A,t,I,t,728,2,732.5,281853.0,8068,WL,C,11.0
2,24.325999975204468,learn,35674.00002479553,Fri Dec 19 2025 15:57:11 GMT-0600 (Central Standard Time),282785.5,A,to,I,o,195,2,932.5,281853.0,8068,WL,C,11.0
2,24.426000118255615,learn,35573.999881744385,Fri Dec 19 2025 15:57:11 GMT-0600 (Central Standard Time),282885.7000000477,A,tow,I,w,92,2,1032.7000000476837,281853.0,8068,WL,C,11.0
2,24.776000022888184,learn,35223.99997711182,Fri Dec 19 2025 15:57:11 GMT-0600 (Central Standard Time),283235.8000000715,A,towe,I,e,343,2,1382.8000000715256,281853.0,8068,WL,C,11.0
2,24.908999919891357,learn,35091.00008010864,Fri Dec 19 2025 15:57:11 GMT-0600 (Central Standard Time),283368.90000009537,A,tower,I,r,113,2,1515.9000000953674,281853.0,8068,WL,C,11.0
2,25.29200005531311,learn,34707.99994468689,Fri Dec 19 2025 15:57:11 GMT-0600 (Central Standard Time),283752.10000002384,A,towerenter,I,enter,364,2,1899.1000000238419,281853.0,8068,WL,C,11.0
2,26.05900001525879,learn,33940.99998474121,Fri Dec 19 2025 15:57:11 GMT-0600 (Central Standard Time),284518.5,A,h,I,h,756,2,766.0,283752.5,8068,WL,C,12.0
2,26.358999967575073,learn,33641.00003242493,Fri Dec 19 2025 15:57:11 GMT-0600 (Central Standard Time),284818.40000009537,A,ho,I,o,287,2,1065.9000000953674,283752.5,8068,WL,C,12.0
2,26.924999952316284,learn,33075.000047683716,Fri Dec 19 2025 15:57:11 GMT-0600 (Central Standard Time),285385.0,A,hom,I,m,546,2,1632.5,283752.5,8068,WL,C,12.0
2,27.157999992370605,learn,32842.000007629395,Fri Dec 19 2025 15:57:11 GMT-0600 (Central Standard Time),285618.2000000477,A,home,I,e,220,2,1865.7000000476837,283752.5,8068,WL,C,12.0
2,27.89199995994568,learn,32108.00004005432,Fri Dec 19 2025 15:57:11 GMT-0600 (Central Standard Time),286351.60000002384,A,homeenter,I,enter,714,2,2599.100000023842,283752.5,8068,WL,C,12.0
2,28.358999967575073,learn,31641.000032424927,Fri Dec 19 2025 15:57:11 GMT-0600 (Central Standard Time),286818.7000000477,A,n,I,n,461,2,466.7999999523163,286351.90000009537,8068,WL,C,13.0
2,28.475000143051147,learn,31524.999856948853,Fri Dec 19 2025 15:57:11 GMT-0600 (Central Standard Time),286934.60000002384,A,na,I,a,99,2,582.6999999284744,286351.90000009537,8068,WL,C,13.0
2,28.692000150680542,learn,31307.999849319458,Fri Dec 19 2025 15:57:11 GMT-0600 (Central Standard Time),287151.2000000477,A,nai,I,i,199,2,799.2999999523163,286351.90000009537,8068,WL,C,13.0
2,29.02500009536743,learn,30974.99990463257,Fri Dec 19 2025 15:57:11 GMT-0600 (Central Standard Time),287484.2000000477,A,nail,I,l,318,2,1132.2999999523163,286351.90000009537,8068,WL,C,13.0
2,29.891000032424927,learn,30108.999967575073,Fri Dec 19 2025 15:57:11 GMT-0600 (Central Standard Time),288350.7000000477,A,nailenter,I,enter,856,2,1998.7999999523163,286351.90000009537,8068,WL,C,13.0
2,30.657000064849854,learn,29342.999935150146,Fri Dec 19 2025 15:57:11 GMT-0600 (Central Standard Time),289117.10000002384,A,b,I,b,758,2,766.1000000238419,288351.0,8068,WL,C,14.0
2,30.85700011253357,learn,29142.99988746643,Fri Dec 19 2025 15:57:11 GMT-0600 (Central Standard Time),289317.0,A,bo,I,o,192,2,966.0,288351.0,8068,WL,C,14.0
2,31.074000120162964,learn,28925.999879837036,Fri Dec 19 2025 15:57:11 GMT-0600 (Central Standard Time),289533.7000000477,A,bod,I,d,201,2,1182.7000000476837,288351.0,8068,WL,C,14.0
2,31.306999921798706,learn,28693.000078201294,Fri Dec 19 2025 15:57:11 GMT-0600 (Central Standard Time),289766.8000000715,A,body,I,y,224,2,1415.8000000715256,288351.0,8068,WL,C,14.0
2,32.19000005722046,learn,27809.99994277954,Fri Dec 19 2025 15:57:11 GMT-0600 (Central Standard Time),290649.8000000715,A,bodyenter,I,enter,878,2,2298.8000000715256,288351.0,8068,WL,C,14.0
2,32.77300000190735,learn,27226.99999809265,Fri Dec 19 2025 15:57:11 GMT-0600 (Central Standard Time),291233.2000000477,A,b,I,b,563,2,583.2000000476837,290650.0,8068,WL,C,15.0
2,32.99000000953674,learn,27009.999990463257,Fri Dec 19 2025 15:57:11 GMT-0600 (Central Standard Time),291449.8000000715,A,bo,I,o,195,2,799.8000000715256,290650.0,8068,WL,C,15.0
2,33.306999921798706,learn,26693.000078201294,Fri Dec 19 2025 15:57:11 GMT-0600 (Central Standard Time),291766.2000000477,A,boy,I,y,307,2,1116.2000000476837,290650.0,8068,WL,C,15.0
2,33.95700001716614,learn,26042.999982833862,Fri Dec 19 2025 15:57:11 GMT-0600 (Central Standard Time),292416.40000009537,A,boyenter,I,enter,639,2,1766.4000000953674,290650.0,8068,WL,C,15.0
3,1.433000087738037,learn,58566.99991226196,Fri Dec 19 2025 15:57:11 GMT-0600 (Central Standard Time),361294.5,A,c,I,c,1415,2,1432.6999999284744,359861.8000000715,8068,WL,C,1.0
3,1.7160000801086426,learn,58283.99991989136,Fri Dec 19 2025 15:57:11 GMT-0600 (Central Standard Time),361577.8000000715,A,ca,I,a,279,2,1716.0,359861.8000000715,8068,WL,C,1.0
3,2.4660000801086426,learn,57533.99991989136,Fri Dec 19 2025 15:57:11 GMT-0600 (Central Standard Time),362327.60000002384,A,caa,I,a,740,2,2465.7999999523163,359861.8000000715,8068,WL,C,1.0
3,3.4160001277923584,learn,56583.99987220764,Fri Dec 19 2025 15:57:11 GMT-0600 (Central Standard Time),363277.40000009537,A,ca,I,backspace,942,2,3415.600000023842,359861.8000000715,8068,WL,C,1.0
3,3.8320000171661377,learn,56167.99998283386,Fri Dec 19 2025 15:57:11 GMT-0600 (Central Standard Time),363693.7000000477,A,cat,I,t,407,2,3831.899999976158,359861.8000000715,8068,WL,C,1.0
3,4.015000104904175,learn,55984.999895095825,Fri Dec 19 2025 15:57:11 GMT-0600 (Central Standard Time),363876.90000009537,A,catt,I,t,176,2,4015.100000023842,359861.8000000715,8068,WL,C,1.0
3,4.815000057220459,learn,55184.99994277954,Fri Dec 19 2025 15:57:11 GMT-0600 (Central Standard Time),364676.60000002384,A,cattl,I,l,785,2,4814.799999952316,359861.8000000715,8068,WL,C,1.0
3,5.015000104904175,learn,54984.999895095825,Fri Dec 19 2025 15:57:11 GMT-0600 (Central Standard Time),364876.60000002384,A,cattle,I,e,192,2,5014.799999952316,359861.8000000715,8068,WL,C,1.0
3,5.315000057220459,learn,54684.99994277954,Fri Dec 19 2025 15:57:11 GMT-0600 (Central Standard Time),365176.60000002384,A,cattleenter,I,enter,288,2,5314.799999952316,359861.8000000715,8068,WL,C,1.0
3,5.997999906539917,learn,54002.00009346008,Fri Dec 19 2025 15:57:11 GMT-0600 (Central Standard Time),365859.7000000477,A,s,I,s,676,2,682.7000000476837,365177.0,8068,WL,C,2.0
3,6.331000089645386,learn,53668.999910354614,Fri Dec 19 2025 15:57:11 GMT-0600 (Central Standard Time),366192.90000009537,A,sh,I,h,313,2,1015.9000000953674,365177.0,8068,WL,C,2.0
3,6.565000057220459,learn,53434.99994277954,Fri Dec 19 2025 15:57:11 GMT-0600 (Central Standard Time),366426.2000000477,A,sho,I,o,220,2,1249.2000000476837,365177.0,8068,WL,C,2.0
3,6.697999954223633,learn,53302.00004577637,Fri Dec 19 2025 15:57:11 GMT-0600 (Central Standard Time),366559.60000002384,A,shor,I,r,114,2,1382.6000000238419,365177.0,8068,WL,C,2.0
3,6.814000129699707,learn,53185.99987030029,Fri Dec 19 2025 15:57:11 GMT-0600 (Central Standard Time),366676.10000002384,A,shore,I,e,101,2,1499.1000000238419,365177.0,8068,WL,C,2.0
3,7.398000001907349,learn,52601.99999809265,Fri Dec 19 2025 15:57:11 GMT-0600 (Central Standard Time),367259.2000000477,A,shoreenter,I,enter,577,2,2082.2000000476837,365177.0,8068,WL,C,2.0
3,9.147000074386597,learn,50852.9999256134,Fri Dec 19 2025 15:57:11 GMT-0600 (Central Standard Time),369009.0,A,n,I,n,1738,2,1749.5,367259.5,8068,WL,C,3.0
3,9.27999997138977,learn,50720.00002861023,Fri Dec 19 2025 15:57:11 GMT-0600 (Central Standard Time),369141.90000009537,A,na,I,a,116,2,1882.4000000953674,367259.5,8068,WL,C,3.0
3,9.44700002670288,learn,50552.99997329712,Fri Dec 19 2025 15:57:11 GMT-0600 (Central Standard Time),369308.60000002384,A,nai,I,i,159,2,2049.100000023842,367259.5,8068,WL,C,3.0
3,9.79699993133545,learn,50203.00006866455,Fri Dec 19 2025 15:57:11 GMT-0600 (Central Standard Time),369658.5,A,naio,I,o,337,2,2399.0,367259.5,8068,WL,C,3.0
3,10.213000059127808,learn,49786.99994087219,Fri Dec 19 2025 15:57:11 GMT-0600 (Central Standard Time),370074.90000009537,A,naioenter,I,enter,402,2,2815.4000000953674,367259.5,8068,WL,C,3.0
3,11.062999963760376,learn,48937.000036239624,Fri Dec 19 2025 15:57:11 GMT-0600 (Central Standard Time),370924.90000009537,A,l,I,l,834,2,849.6000000238419,370075.3000000715,8068,WL,C,4.0
3,11.163000106811523,learn,48836.99989318848,Fri Dec 19 2025 15:57:11 GMT-0600 (Central Standard Time),371024.90000009537,A,le,I,e,88,2,949.6000000238419,370075.3000000715,8068,WL,C,4.0
3,11.413000106811523,learn,48586.99989318848,Fri Dec 19 2025 15:57:11 GMT-0600 (Central Standard Time),371274.7000000477,A,let,I,t,237,2,1199.3999999761581,370075.3000000715,8068,WL,C,4.0
3,11.595999956130981,learn,48404.00004386902,Fri Dec 19 2025 15:57:11 GMT-0600 (Central Standard Time),371458.0,A,lett,I,t,162,2,1382.6999999284744,370075.3000000715,8068,WL,C,4.0
3,11.746999979019165,learn,48253.000020980835,Fri Dec 19 2025 15:57:11 GMT-0600 (Central Standard Time),371609.0,A,lette,I,e,131,2,1533.6999999284744,370075.3000000715,8068,WL,C,4.0
3,11.845999956130981,learn,48154.00004386902,Fri Dec 19 2025 15:57:11 GMT-0600 (Central Standard Time),371707.90000009537,A,letter,I,r,83,2,1632.6000000238419,370075.3000000715,8068,WL,C,4.0
3,12.446000099182129,learn,47553.99990081787,Fri Dec 19 2025 15:57:11 GMT-0600 (Central Standard Time),372307.3000000715,A,letterenter,I,enter,585,2,2232.0,370075.3000000715,8068,WL,C,4.0
3,13.01200008392334,learn,46987.99991607666,Fri Dec 19 2025 15:57:11 GMT-0600 (Central Standard Time),372874.0,A,s,I,s,553,2,566.3999999761581,372307.60000002384,8068,WL,C,5.0
3,13.279000043869019,learn,46720.99995613098,Fri Dec 19 2025 15:57:11 GMT-0600 (Central Standard Time),373140.90000009537,A,sh,I,h,251,2,833.3000000715256,372307.60000002384,8068,WL,C,5.0
3,13.51200008392334,learn,46487.99991607666,Fri Dec 19 2025 15:57:11 GMT-0600 (Central Standard Time),373373.90000009537,A,sho,I,o,223,2,1066.3000000715256,372307.60000002384,8068,WL,C,5.0
3,13.611999988555908,learn,46388.00001144409,Fri Dec 19 2025 15:57:11 GMT-0600 (Central Standard Time),373473.60000002384,A,shor,I,r,94,2,1166.0,372307.60000002384,8068,WL,C,5.0
3,13.729000091552734,learn,46270.999908447266,Fri Dec 19 2025 15:57:11 GMT-0600 (Central Standard Time),373590.40000009537,A,shore,I,e,98,2,1282.8000000715256,372307.60000002384,8068,WL,C,5.0
3,14.461999893188477,learn,45538.00010681152,Fri Dec 19 2025 15:57:11 GMT-0600 (Central Standard Time),374323.8000000715,A,shoreenter,I,enter,718,2,2016.2000000476837,372307.60000002384,8068,WL,C,5.0
3,15.279000043869019,learn,44720.99995613098,Fri Dec 19 2025 15:57:11 GMT-0600 (Central Standard Time),375140.40000009537,A,d,I,d,810,2,816.2000000476837,374324.2000000477,8068,WL,C,6.0
3,15.444999933242798,learn,44555.0000667572,Fri Dec 19 2025 15:57:11 GMT-0600 (Central Standard Time),375306.8000000715,A,do,I,o,160,2,982.6000000238419,374324.2000000477,8068,WL,C,6.0
3,15.57800006866455,learn,44421.99993133545,Fri Dec 19 2025 15:57:11 GMT-0600 (Central Standard Time),375439.90000009537,A,doc,I,c,114,2,1115.7000000476837,374324.2000000477,8068,WL,C,6.0
3,15.795000076293945,learn,44204.999923706055,Fri Dec 19 2025 15:57:11 GMT-0600 (Central Standard Time),375656.8000000715,A,doct,I,t,196,2,1332.6000000238419,374324.2000000477,8068,WL,C,6.0
3,15.878999948501587,learn,44121.00005149841,Fri Dec 19 2025 15:57:11 GMT-0600 (Central Standard Time),375741.0,A,docto,I,o,76,2,1416.7999999523163,374324.2000000477,8068,WL,C,6.0
3,16.02900004386902,learn,43970.99995613098,Fri Dec 19 2025 15:57:11 GMT-0600 (Central Standard Time),375890.2000000477,A,doctor,I,r,128,2,1566.0,374324.2000000477,8068,WL,C,6.0
3,16.34500002861023,learn,43654.99997138977,Fri Dec 19 2025 15:57:11 GMT-0600 (Central Standard Time),376206.5,A,doctorenter,I,enter,306,2,1882.2999999523163,374324.2000000477,8068,WL,C,6.0
3,17.111000061035156,learn,42888.999938964844,Fri Dec 19 2025 15:57:11 GMT-0600 (Central Standard Time),376973.0,A,q,I,q,750,2,766.1999999284744,376206.8000000715,8068,WL,C,7.0
3,17.311000108718872,learn,42688.99989128113,Fri Dec 19 2025 15:57:11 GMT-0600 (Central Standard Time),377172.90000009537,A,qu,I,u,192,2,966.1000000238419,376206.8000000715,8068,WL,C,7.0
3,17.66100001335144,learn,42338.99998664856,Fri Dec 19 2025 15:57:11 GMT-0600 (Central Standard Time),377522.5,A,que,I,e,345,2,1315.6999999284744,376206.8000000715,8068,WL,C,7.0
3,17.82800006866455,learn,42171.99993133545,Fri Dec 19 2025 15:57:11 GMT-0600 (Central Standard Time),377689.3000000715,A,quee,I,e,146,2,1482.5,376206.8000000715,8068,WL,C,7.0
3,18.028000116348267,learn,41971.99988365173,Fri Dec 19 2025 15:57:11 GMT-0600 (Central Standard Time),377889.3000000715,A,queen,I,n,179,2,1682.5,376206.8000000715,8068,WL,C,7.0
3,18.444999933242798,learn,41555.0000667572,Fri Dec 19 2025 15:57:11 GMT-0600 (Central Standard Time),378307.10000002384,A,queenenter,I,enter,396,2,2100.2999999523163,376206.8000000715,8068,WL,C,7.0
3,19.210999965667725,learn,40789.000034332275,Fri Dec 19 2025 15:57:11 GMT-0600 (Central Standard Time),379072.3000000715,A,b,I,b,754,2,764.8999999761581,378307.40000009537,8068,WL,C,8.0
3,19.378000020980835,learn,40621.999979019165,Fri Dec 19 2025 15:57:11 GMT-0600 (Central Standard Time),379239.2000000477,A,bo,I,o,148,2,931.7999999523163,378307.40000009537,8068,WL,C,8.0
3,19.64400005340576,learn,40355.99994659424,Fri Dec 19 2025 15:57:11 GMT-0600 (Central Standard Time),379505.5,A,boy,I,y,261,2,1198.0999999046326,378307.40000009537,8068,WL,C,8.0
3,20.427000045776367,learn,39572.99995422363,Fri Dec 19 2025 15:57:11 GMT-0600 (Central Standard Time),380288.40000009537,A,boyenter,I,enter,763,2,1981.0,378307.40000009537,8068,WL,C,8.0
3,21.259999990463257,learn,38740.00000953674,Fri Dec 19 2025 15:57:11 GMT-0600 (Central Standard Time),381121.3000000715,A,n,I,n,820,2,832.6000000238419,380288.7000000477,8068,WL,C,9.0
3,21.39300012588501,learn,38606.99987411499,Fri Dec 19 2025 15:57:11 GMT-0600 (Central Standard Time),381254.60000002384,A,na,I,a,115,2,965.8999999761581,380288.7000000477,8068,WL,C,9.0
3,21.55999994277954,learn,38440.00005722046,Fri Dec 19 2025 15:57:11 GMT-0600 (Central Standard Time),381421.2000000477,A,nai,I,i,158,2,1132.5,380288.7000000477,8068,WL,C,9.0
3,21.859999895095825,learn,38140.000104904175,Fri Dec 19 2025 15:57:11 GMT-0600 (Central Standard Time),381721.2000000477,A,nail,I,l,295,2,1432.5,380288.7000000477,8068,WL,C,9.0
3,22.259000062942505,learn,37740.999937057495,Fri Dec 19 2025 15:57:11 GMT-0600 (Central Standard Time),382121.2000000477,A,nailenter,I,enter,395,2,1832.5,380288.7000000477,8068,WL,C,9.0
3,22.80900001525879,learn,37190.99998474121,Fri Dec 19 2025 15:57:11 GMT-0600 (Central Standard Time),382671.10000002384,A,t,I,t,532,2,549.6999999284744,382121.40000009537,8068,WL,C,10.0
3,22.9760000705719,learn,37023.9999294281,Fri Dec 19 2025 15:57:11 GMT-0600 (Central Standard Time),382838.0,A,to,I,o,149,2,716.5999999046326,382121.40000009537,8068,WL,C,10.0
3,23.094000101089478,learn,36905.99989891052,Fri Dec 19 2025 15:57:11 GMT-0600 (Central Standard Time),382955.3000000715,A,tow,I,w,111,2,833.8999999761581,382121.40000009537,8068,WL,C,10.0
3,23.342999935150146,learn,36657.00006484985,Fri Dec 19 2025 15:57:11 GMT-0600 (Central Standard Time),383204.40000009537,A,towe,I,e,234,2,1083.0,382121.40000009537,8068,WL,C,10.0
3,23.493000030517578,learn,36506.99996948242,Fri Dec 19 2025 15:57:11 GMT-0600 (Central Standard Time),383354.40000009537,A,tower,I,r,129,2,1233.0,382121.40000009537,8068,WL,C,10.0
3,23.79200005531311,learn,36207.99994468689,Fri Dec 19 2025 15:57:11 GMT-0600 (Central Standard Time),383654.10000002384,A,towerenter,I,enter,283,2,1532.6999999284744,382121.40000009537,8068,WL,C,10.0
3,24.342000007629395,learn,35657.999992370605,Fri Dec 19 2025 15:57:11 GMT-0600 (Central Standard Time),384204.0,A,h,I,h,535,2,549.5999999046326,383654.40000009537,8068,WL,C,11.0
3,24.676000118255615,learn,35323.999881744385,Fri Dec 19 2025 15:57:11 GMT-0600 (Central Standard Time),384537.2000000477,A,ho,I,o,312,2,882.7999999523163,383654.40000009537,8068,WL,C,11.0
3,25.325000047683716,learn,34674.999952316284,Fri Dec 19 2025 15:57:11 GMT-0600 (Central Standard Time),385186.7000000477,A,hom,I,m,644,2,1532.2999999523163,383654.40000009537,8068,WL,C,11.0
3,25.55900001525879,learn,34440.99998474121,Fri Dec 19 2025 15:57:11 GMT-0600 (Central Standard Time),385420.2000000477,A,home,I,e,227,2,1765.7999999523163,383654.40000009537,8068,WL,C,11.0
3,26.125,learn,33875.0,Fri Dec 19 2025 15:57:11 GMT-0600 (Central Standard Time),385986.90000009537,A,homeenter,I,enter,560,2,2332.5,383654.40000009537,8068,WL,C,11.0
3,27.841000080108643,learn,32158.999919891357,Fri Dec 19 2025 15:57:11 GMT-0600 (Central Standard Time),387702.8000000715,A,c,I,c,1707,2,1715.6000000238419,385987.2000000477,8068,WL,C,12.0
3,27.992000102996826,learn,32007.999897003174,Fri Dec 19 2025 15:57:11 GMT-0600 (Central Standard Time),387853.40000009537,A,co,I,o,141,2,1866.2000000476837,385987.2000000477,8068,WL,C,12.0
3,28.124000072479248,learn,31875.999927520752,Fri Dec 19 2025 15:57:11 GMT-0600 (Central Standard Time),387985.90000009537,A,cor,I,r,127,2,1998.7000000476837,385987.2000000477,8068,WL,C,12.0
3,28.358999967575073,learn,31641.000032424927,Fri Dec 19 2025 15:57:11 GMT-0600 (Central Standard Time),388220.60000002384,A,corn,I,n,227,2,2233.399999976158,385987.2000000477,8068,WL,C,12.0
3,29.157000064849854,learn,30842.999935150146,Fri Dec 19 2025 15:57:11 GMT-0600 (Central Standard Time),389019.0,A,cornenter,I,enter,793,2,3031.7999999523163,385987.2000000477,8068,WL,C,12.0
3,29.874000072479248,learn,30125.999927520752,Fri Dec 19 2025 15:57:11 GMT-0600 (Central Standard Time),389735.60000002384,A,c,I,c,706,2,716.5,389019.10000002384,8068,WL,C,13.0
3,30.04100012779236,learn,29958.99987220764,Fri Dec 19 2025 15:57:11 GMT-0600 (Central Standard Time),389902.3000000715,A,ca,I,a,149,2,883.2000000476837,389019.10000002384,8068,WL,C,13.0
3,30.223999977111816,learn,29776.000022888184,Fri Dec 19 2025 15:57:11 GMT-0600 (Central Standard Time),390085.60000002384,A,cat,I,t,166,2,1066.5,389019.10000002384,8068,WL,C,13.0
3,30.390000104904175,learn,29609.999895095825,Fri Dec 19 2025 15:57:11 GMT-0600 (Central Standard Time),390252.10000002384,A,catt,I,t,151,2,1233.0,389019.10000002384,8068,WL,C,13.0
3,30.556999921798706,learn,29443.000078201294,Fri Dec 19 2025 15:57:11 GMT-0600 (Central Standard Time),390418.7000000477,A,cattl,I,l,160,2,1399.6000000238419,389019.10000002384,8068,WL,C,13.0
3,30.674000024795532,learn,29325.999975204468,Fri Dec 19 2025 15:57:11 GMT-0600 (Central Standard Time),390535.3000000715,A,cattle,I,e,106,2,1516.2000000476837,389019.10000002384,8068,WL,C,13.0
3,31.22499990463257,learn,28775.00009536743,Fri Dec 19 2025 15:57:11 GMT-0600 (Central Standard Time),391086.60000002384,A,cattleenter,I,enter,533,2,2067.5,389019.10000002384,8068,WL,C,13.0
3,37.454999923706055,learn,22545.000076293945,Fri Dec 19 2025 15:57:11 GMT-0600 (Central Standard Time),397316.3000000715,A,enter,I,enter,6214,2,6229.399999976158,391086.90000009537,8068,WL,C,14.0
3,37.85599994659424,learn,22144.00005340576,Fri Dec 19 2025 15:57:11 GMT-0600 (Central Standard Time),397717.2000000477,A,enter,I,enter,392,2,400.60000002384186,397316.60000002384,8068,WL,C,15.0
4,1.5160000324249268,learn,58483.99996757507,Fri Dec 19 2025 15:57:11 GMT-0600 (Central Standard Time),465045.2000000477,A,f,I,f,1500,2,1515.7000000476837,463529.5,8068,WL,C,1.0
4,1.7660000324249268,learn,58233.99996757507,Fri Dec 19 2025 15:57:11 GMT-0600 (Central Standard Time),465295.2000000477,A,fa,I,a,239,2,1765.7000000476837,463529.5,8068,WL,C,1.0
4,2.115999937057495,learn,57884.000062942505,Fri Dec 19 2025 15:57:11 GMT-0600 (Central Standard Time),465645.10000002384,A,fal,I,l,333,2,2115.600000023842,463529.5,8068,WL,C,1.0
4,2.615999937057495,learn,57384.000062942505,Fri Dec 19 2025 15:57:11 GMT-0600 (Central Standard Time),466145.0,A,falg,I,g,488,2,2615.5,463529.5,8068,WL,C,1.0
4,4.014999866485596,learn,55985.000133514404,Fri Dec 19 2025 15:57:11 GMT-0600 (Central Standard Time),467544.60000002384,A,fal,I,backspace,1388,2,4015.100000023842,463529.5,8068,WL,C,1.0
4,4.249000072479248,learn,55750.99992752075,Fri Dec 19 2025 15:57:11 GMT-0600 (Central Standard Time),467777.7000000477,A,fa,I,backspace,213,2,4248.200000047684,463529.5,8068,WL,C,1.0
4,4.4649999141693115,learn,55535.00008583069,Fri Dec 19 2025 15:57:11 GMT-0600 (Central Standard Time),467994.40000009537,A,f,I,backspace,212,2,4464.900000095367,463529.5,8068,WL,C,1.0
4,5.264999866485596,learn,54735.000133514404,Fri Dec 19 2025 15:57:11 GMT-0600 (Central Standard Time),468794.0,A,fl,I,l,794,2,5264.5,463529.5,8068,WL,C,1.0
4,5.730999946594238,learn,54269.00005340576,Fri Dec 19 2025 15:57:11 GMT-0600 (Central Standard Time),469260.60000002384,A,fla,I,a,459,2,5731.100000023842,463529.5,8068,WL,C,1.0
4,5.98199987411499,learn,54018.00012588501,Fri Dec 19 2025 15:57:11 GMT-0600 (Central Standard Time),469510.90000009537,A,flag,I,g,233,2,5981.400000095367,463529.5,8068,WL,C,1.0
4,6.580999851226807,learn,53419.00014877319,Fri Dec 19 2025 15:57:11 GMT-0600 (Central Standard Time),470110.60000002384,A,flagenter,I,enter,591,2,6581.100000023842,463529.5,8068,WL,C,1.0
4,7.3480000495910645,learn,52651.999950408936,Fri Dec 19 2025 15:57:11 GMT-0600 (Central Standard Time),470876.90000009537,A,n,I,n,759,2,766.1000000238419,470110.8000000715,8068,WL,C,2.0
4,7.447999954223633,learn,52552.00004577637,Fri Dec 19 2025 15:57:11 GMT-0600 (Central Standard Time),470976.90000009537,A,na,I,a,88,2,866.1000000238419,470110.8000000715,8068,WL,C,2.0
4,7.664999961853027,learn,52335.00003814697,Fri Dec 19 2025 15:57:11 GMT-0600 (Central Standard Time),471193.60000002384,A,nai,I,i,197,2,1082.7999999523163,470110.8000000715,8068,WL,C,2.0
4,8.280999898910522,learn,51719.00010108948,Fri Dec 19 2025 15:57:11 GMT-0600 (Central Standard Time),471809.90000009537,A,nail,I,l,612,2,1699.1000000238419,470110.8000000715,8068,WL,C,2.0
4,8.980000019073486,learn,51019.999980926514,Fri Dec 19 2025 15:57:11 GMT-0600 (Central Standard Time),472509.5,A,nailenter,I,enter,691,2,2398.6999999284744,470110.8000000715,8068,WL,C,2.0
4,9.397000074386597,learn,50602.9999256134,Fri Dec 19 2025 15:57:11 GMT-0600 (Central Standard Time),472926.2000000477,A,c,I,c,407,2,416.39999997615814,472509.8000000715,8068,WL,C,3.0
4,9.579999923706055,learn,50420.000076293945,Fri Dec 19 2025 15:57:11 GMT-0600 (Central Standard Time),473109.40000009537,A,ca,I,a,174,2,599.6000000238419,472509.8000000715,8068,WL,C,3.0
4,9.763999938964844,learn,50236.000061035156,Fri Dec 19 2025 15:57:11 GMT-0600 (Central Standard Time),473292.90000009537,A,cat,I,t,175,2,783.1000000238419,472509.8000000715,8068,WL,C,3.0
4,9.94700002670288,learn,50052.99997329712,Fri Dec 19 2025 15:57:11 GMT-0600 (Central Standard Time),473476.0,A,catt,I,t,176,2,966.1999999284744,472509.8000000715,8068,WL,C,3.0
4,10.21399998664856,learn,49786.00001335144,Fri Dec 19 2025 15:57:11 GMT-0600 (Central Standard Time),473742.90000009537,A,cattl,I,l,257,2,1233.1000000238419,472509.8000000715,8068,WL,C,3.0
4,10.69700002670288,learn,49302.99997329712,Fri Dec 19 2025 15:57:11 GMT-0600 (Central Standard Time),474225.8000000715,A,cattle,I,e,470,2,1716.0,472509.8000000715,8068,WL,C,3.0
4,11.329999923706055,learn,48670.000076293945,Fri Dec 19 2025 15:57:11 GMT-0600 (Central Standard Time),474858.7000000477,A,cattleenter,I,enter,628,2,2348.899999976158,472509.8000000715,8068,WL,C,3.0
4,12.895999908447266,learn,47104.000091552734,Fri Dec 19 2025 15:57:11 GMT-0600 (Central Standard Time),476425.3000000715,A,c,I,c,1562,2,1566.3999999761581,474858.90000009537,8068,WL,C,4.0
4,13.095999956130981,learn,46904.00004386902,Fri Dec 19 2025 15:57:11 GMT-0600 (Central Standard Time),476625.10000002384,A,co,I,o,188,2,1766.1999999284744,474858.90000009537,8068,WL,C,4.0
4,13.263000011444092,learn,46736.99998855591,Fri Dec 19 2025 15:57:11 GMT-0600 (Central Standard Time),476791.7000000477,A,cor,I,r,147,2,1932.7999999523163,474858.90000009537,8068,WL,C,4.0
4,13.478999853134155,learn,46521.000146865845,Fri Dec 19 2025 15:57:11 GMT-0600 (Central Standard Time),477008.2000000477,A,corn,I,n,205,2,2149.2999999523163,474858.90000009537,8068,WL,C,4.0
4,13.895999908447266,learn,46104.000091552734,Fri Dec 19 2025 15:57:11 GMT-0600 (Central Standard Time),477424.90000009537,A,cornenter,I,enter,397,2,2566.0,474858.90000009537,8068,WL,C,4.0
4,14.161999940872192,learn,45838.00005912781,Fri Dec 19 2025 15:57:11 GMT-0600 (Central Standard Time),477691.40000009537,A,w,I,w,252,2,266.3000000715256,477425.10000002384,8068,WL,C,5.0
4,14.361999988555908,learn,45638.00001144409,Fri Dec 19 2025 15:57:11 GMT-0600 (Central Standard Time),477891.5,A,wh,I,h,193,2,466.39999997615814,477425.10000002384,8068,WL,C,5.0
4,14.478999853134155,learn,45521.000146865845,Fri Dec 19 2025 15:57:11 GMT-0600 (Central Standard Time),478008.10000002384,A,whe,I,e,106,2,583.0,477425.10000002384,8068,WL,C,5.0
4,15.277999877929688,learn,44722.00012207031,Fri Dec 19 2025 15:57:11 GMT-0600 (Central Standard Time),478807.8000000715,A,whea,I,a,780,2,1382.7000000476837,477425.10000002384,8068,WL,C,5.0
4,15.544999837875366,learn,44455.000162124634,Fri Dec 19 2025 15:57:11 GMT-0600 (Central Standard Time),479074.40000009537,A,wheat,I,t,254,2,1649.3000000715256,477425.10000002384,8068,WL,C,5.0
4,16.027999877929688,learn,43972.00012207031,Fri Dec 19 2025 15:57:11 GMT-0600 (Central Standard Time),479557.5,A,wheatenter,I,enter,474,2,2132.399999976158,477425.10000002384,8068,WL,C,5.0
4,16.394999980926514,learn,43605.000019073486,Fri Dec 19 2025 15:57:11 GMT-0600 (Central Standard Time),479924.2000000477,A,b,I,b,351,2,366.39999997615814,479557.8000000715,8068,WL,C,6.0
4,16.560999870300293,learn,43439.00012969971,Fri Dec 19 2025 15:57:11 GMT-0600 (Central Standard Time),480091.0,A,bo,I,o,152,2,533.1999999284744,479557.8000000715,8068,WL,C,6.0
4,16.8439998626709,learn,43156.0001373291,Fri Dec 19 2025 15:57:11 GMT-0600 (Central Standard Time),480374.10000002384,A,boy,I,y,274,2,816.2999999523163,479557.8000000715,8068,WL,C,6.0
4,17.293999910354614,learn,42706.000089645386,Fri Dec 19 2025 15:57:11 GMT-0600 (Central Standard Time),480823.7000000477,A,boyenter,I,enter,439,2,1265.8999999761581,479557.8000000715,8068,WL,C,6.0
4,18.22699999809265,learn,41773.00000190735,Fri Dec 19 2025 15:57:11 GMT-0600 (Central Standard Time),481756.8000000715,A,d,I,d,925,2,932.7000000476837,480824.10000002384,8068,WL,C,7.0
4,18.41100001335144,learn,41588.99998664856,Fri Dec 19 2025 15:57:11 GMT-0600 (Central Standard Time),481940.2000000477,A,do,I,o,176,2,1116.1000000238419,480824.10000002384,8068,WL,C,7.0
4,18.543999910354614,learn,41456.000089645386,Fri Dec 19 2025 15:57:11 GMT-0600 (Central Standard Time),482073.2000000477,A,doc,I,c,112,2,1249.1000000238419,480824.10000002384,8068,WL,C,7.0
4,18.759999990463257,learn,41240.00000953674,Fri Dec 19 2025 15:57:11 GMT-0600 (Central Standard Time),482290.0,A,doco,I,o,213,2,1465.8999999761581,480824.10000002384,8068,WL,C,7.0
4,19.177000045776367,learn,40822.99995422363,Fri Dec 19 2025 15:57:11 GMT-0600 (Central Standard Time),482706.5,A,docot,I,t,403,2,1882.3999999761581,480824.10000002384,8068,WL,C,7.0
4,19.40999984741211,learn,40590.00015258789,Fri Dec 19 2025 15:57:11 GMT-0600 (Central Standard Time),482939.90000009537,A,docotr,I,r,226,2,2115.8000000715256,480824.10000002384,8068,WL,C,7.0
4,20.05999994277954,learn,39940.00005722046,Fri Dec 19 2025 15:57:11 GMT-0600 (Central Standard Time),483589.60000002384,A,docot,I,backspace,641,2,2765.5,480824.10000002384,8068,WL,C,7.0
4,20.7260000705719,learn,39273.9999294281,Fri Dec 19 2025 15:57:11 GMT-0600 (Central Standard Time),484256.10000002384,A,doco,I,backspace,647,2,3432.0,480824.10000002384,8068,WL,C,7.0
4,20.960000038146973,learn,39039.99996185303,Fri Dec 19 2025 15:57:11 GMT-0600 (Central Standard Time),484489.5,A,doc,I,backspace,220,2,3665.399999976158,480824.10000002384,8068,WL,C,7.0
4,21.658999919891357,learn,38341.00008010864,Fri Dec 19 2025 15:57:11 GMT-0600 (Central Standard Time),485189.10000002384,A,doct,I,t,691,2,4365.0,480824.10000002384,8068,WL,C,7.0
4,22.085999965667725,learn,37914.000034332275,Fri Dec 19 2025 15:57:11 GMT-0600 (Central Standard Time),485615.40000009537,A,docto,I,o,422,2,4791.300000071526,480824.10000002384,8068,WL,C,7.0
4,22.108999967575073,learn,37891.00003242493,Fri Dec 19 2025 15:57:11 GMT-0600 (Central Standard Time),485638.60000002384,A,doctor,I,r,4,2,4814.5,480824.10000002384,8068,WL,C,7.0
4,22.55900001525879,learn,37440.99998474121,Fri Dec 19 2025 15:57:11 GMT-0600 (Central Standard Time),486088.90000009537,A,doctorenter,I,enter,436,2,5264.800000071526,480824.10000002384,8068,WL,C,7.0
4,22.842999935150146,learn,37157.00006484985,Fri Dec 19 2025 15:57:11 GMT-0600 (Central Standard Time),486372.2000000477,A,q,I,q,276,2,283.0,486089.2000000477,8068,WL,C,8.0
4,23.05900001525879,learn,36940.99998474121,Fri Dec 19 2025 15:57:11 GMT-0600 (Central Standard Time),486588.5,A,qu,I,u,200,2,499.2999999523163,486089.2000000477,8068,WL,C,8.0
4,23.2260000705719,learn,36773.9999294281,Fri Dec 19 2025 15:57:11 GMT-0600 (Central Standard Time),486755.2000000477,A,que,I,e,153,2,666.0,486089.2000000477,8068,WL,C,8.0
4,24.741999864578247,learn,35258.00013542175,Fri Dec 19 2025 15:57:11 GMT-0600 (Central Standard Time),488271.5,A,quee,I,e,1497,2,2182.2999999523163,486089.2000000477,8068,WL,C,8.0
4,25.007999897003174,learn,34992.000102996826,Fri Dec 19 2025 15:57:11 GMT-0600 (Central Standard Time),488537.90000009537,A,queen,I,n,261,2,2448.7000000476837,486089.2000000477,8068,WL,C,8.0
4,25.592000007629395,learn,34407.999992370605,Fri Dec 19 2025 15:57:11 GMT-0600 (Central Standard Time),489121.3000000715,A,queenenter,I,enter,571,2,3032.100000023842,486089.2000000477,8068,WL,C,8.0
4,26.04099988937378,learn,33959.00011062622,Fri Dec 19 2025 15:57:11 GMT-0600 (Central Standard Time),489571.10000002384,A,c,I,c,443,2,449.39999997615814,489121.7000000477,8068,WL,C,9.0
4,26.22499990463257,learn,33775.00009536743,Fri Dec 19 2025 15:57:11 GMT-0600 (Central Standard Time),489754.10000002384,A,ca,I,a,178,2,632.3999999761581,489121.7000000477,8068,WL,C,9.0
4,26.424000024795532,learn,33575.99997520447,Fri Dec 19 2025 15:57:11 GMT-0600 (Central Standard Time),489954.10000002384,A,cat,I,t,195,2,832.3999999761581,489121.7000000477,8068,WL,C,9.0
4,26.60800004005432,learn,33391.99995994568,Fri Dec 19 2025 15:57:11 GMT-0600 (Central Standard Time),490137.5,A,catt,I,t,179,2,1015.7999999523163,489121.7000000477,8068,WL,C,9.0
4,26.95799994468689,learn,33042.00005531311,Fri Dec 19 2025 15:57:11 GMT-0600 (Central Standard Time),490487.40000009537,A,cattl,I,l,332,2,1365.7000000476837,489121.7000000477,8068,WL,C,9.0
4,27.257999897003174,learn,32742.000102996826,Fri Dec 19 2025 15:57:11 GMT-0600 (Central Standard Time),490787.60000002384,A,cattle,I,e,286,2,1665.8999999761581,489121.7000000477,8068,WL,C,9.0
4,27.7739999294281,learn,32226.0000705719,Fri Dec 19 2025 15:57:11 GMT-0600 (Central Standard Time),491303.8000000715,A,cattleenter,I,enter,506,2,2182.100000023842,489121.7000000477,8068,WL,C,9.0
4,27.94099998474121,learn,32059.00001525879,Fri Dec 19 2025 15:57:11 GMT-0600 (Central Standard Time),491470.7000000477,A,c,I,c,157,2,166.5,491304.2000000477,8068,WL,C,10.0
4,28.207000017166138,learn,31792.999982833862,Fri Dec 19 2025 15:57:11 GMT-0600 (Central Standard Time),491737.10000002384,A,co,I,o,254,2,432.89999997615814,491304.2000000477,8068,WL,C,10.0
4,28.340999841690063,learn,31659.000158309937,Fri Dec 19 2025 15:57:11 GMT-0600 (Central Standard Time),491870.2000000477,A,cor,I,r,116,2,566.0,491304.2000000477,8068,WL,C,10.0
4,29.573999881744385,learn,30426.000118255615,Fri Dec 19 2025 15:57:11 GMT-0600 (Central Standard Time),493103.2000000477,A,corn,I,n,1222,2,1799.0,491304.2000000477,8068,WL,C,10.0
4,30.122999906539917,learn,29877.000093460083,Fri Dec 19 2025 15:57:11 GMT-0600 (Central Standard Time),493652.90000009537,A,cornenter,I,enter,533,2,2348.7000000476837,491304.2000000477,8068,WL,C,10.0
4,31.1729998588562,learn,28827.0001411438,Fri Dec 19 2025 15:57:11 GMT-0600 (Central Standard Time),494702.7000000477,A,w,I,w,1040,2,1049.6000000238419,493653.10000002384,8068,WL,C,11.0
4,31.372999906539917,learn,28627.000093460083,Fri Dec 19 2025 15:57:11 GMT-0600 (Central Standard Time),494902.7000000477,A,wh,I,h,183,2,1249.6000000238419,493653.10000002384,8068,WL,C,11.0
4,31.85599994659424,learn,28144.00005340576,Fri Dec 19 2025 15:57:11 GMT-0600 (Central Standard Time),495385.60000002384,A,whe,I,e,478,2,1732.5,493653.10000002384,8068,WL,C,11.0
4,32.08899998664856,learn,27911.00001335144,Fri Dec 19 2025 15:57:11 GMT-0600 (Central Standard Time),495619.0,A,whea,I,a,227,2,1965.8999999761581,493653.10000002384,8068,WL,C,11.0
4,32.289000034332275,learn,27710.999965667725,Fri Dec 19 2025 15:57:11 GMT-0600 (Central Standard Time),495818.90000009537,A,wheat,I,t,186,2,2165.8000000715256,493653.10000002384,8068,WL,C,11.0
4,32.723000049591064,learn,27276.999950408936,Fri Dec 19 2025 15:57:11 GMT-0600 (Central Standard Time),496252.10000002384,A,wheatenter,I,enter,427,2,2599.0,493653.10000002384,8068,WL,C,11.0
4,33.138999938964844,learn,26861.000061035156,Fri Dec 19 2025 15:57:11 GMT-0600 (Central Standard Time),496668.90000009537,A,s,I,s,410,2,416.40000009536743,496252.5,8068,WL,C,12.0
4,33.48899984359741,learn,26511.000156402588,Fri Dec 19 2025 15:57:11 GMT-0600 (Central Standard Time),497018.7000000477,A,sh,I,h,337,2,766.2000000476837,496252.5,8068,WL,C,12.0
4,33.82200002670288,learn,26177.99997329712,Fri Dec 19 2025 15:57:11 GMT-0600 (Central Standard Time),497351.7000000477,A,sho,I,o,315,2,1099.2000000476837,496252.5,8068,WL,C,12.0
4,33.92199993133545,learn,26078.00006866455,Fri Dec 19 2025 15:57:11 GMT-0600 (Central Standard Time),497452.0,A,shor,I,r,93,2,1199.5,496252.5,8068,WL,C,12.0
4,34.08899998664856,learn,25911.00001335144,Fri Dec 19 2025 15:57:11 GMT-0600 (Central Standard Time),497618.60000002384,A,shore,I,e,154,2,1366.1000000238419,496252.5,8068,WL,C,12.0
4,34.48799991607666,learn,25512.00008392334,Fri Dec 19 2025 15:57:11 GMT-0600 (Central Standard Time),498018.0,A,shoreenter,I,enter,394,2,1765.5,496252.5,8068,WL,C,12.0
4,35.204999923706055,learn,24795.000076293945,Fri Dec 19 2025 15:57:11 GMT-0600 (Central Standard Time),498734.60000002384,A,n,I,n,699,2,716.3999999761581,498018.2000000477,8068,WL,C,13.0
4,35.3050000667572,learn,24694.999933242798,Fri Dec 19 2025 15:57:11 GMT-0600 (Central Standard Time),498834.8000000715,A,na,I,a,86,2,816.6000000238419,498018.2000000477,8068,WL,C,13.0
4,35.48799991607666,learn,24512.00008392334,Fri Dec 19 2025 15:57:11 GMT-0600 (Central Standard Time),499017.90000009537,A,nai,I,i,179,2,999.7000000476837,498018.2000000477,8068,WL,C,13.0
4,35.8050000667572,learn,24194.999933242798,Fri Dec 19 2025 15:57:11 GMT-0600 (Central Standard Time),499334.5,A,nail,I,l,299,2,1316.2999999523163,498018.2000000477,8068,WL,C,13.0
4,36.15499997138977,learn,23845.00002861023,Fri Dec 19 2025 15:57:11 GMT-0600 (Central Standard Time),499684.40000009537,A,nailenter,I,enter,335,2,1666.2000000476837,498018.2000000477,8068,WL,C,13.0
4,36.5550000667572,learn,23444.999933242798,Fri Dec 19 2025 15:57:11 GMT-0600 (Central Standard Time),500084.40000009537,A,t,I,t,392,2,399.7000000476837,499684.7000000477,8068,WL,C,14.0
4,36.770999908447266,learn,23229.000091552734,Fri Dec 19 2025 15:57:11 GMT-0600 (Central Standard Time),500301.10000002384,A,tw,I,w,208,2,616.3999999761581,499684.7000000477,8068,WL,C,14.0
4,36.97099995613098,learn,23029.00004386902,Fri Dec 19 2025 15:57:11 GMT-0600 (Central Standard Time),500501.0,A,two,I,o,193,2,816.2999999523163,499684.7000000477,8068,WL,C,14.0
4,37.13800001144409,learn,22861.99998855591,Fri Dec 19 2025 15:57:11 GMT-0600 (Central Standard Time),500667.8000000715,A,twoe,I,e,152,2,983.1000000238419,499684.7000000477,8068,WL,C,14.0
4,37.287999868392944,learn,22712.000131607056,Fri Dec 19 2025 15:57:11 GMT-0600 (Central Standard Time),500817.60000002384,A,twoer,I,r,137,2,1132.8999999761581,499684.7000000477,8068,WL,C,14.0
4,37.88800001144409,learn,22111.99998855591,Fri Dec 19 2025 15:57:11 GMT-0600 (Central Standard Time),501417.2000000477,A,twoerenter,I,enter,588,2,1732.5,499684.7000000477,8068,WL,C,14.0
4,38.87100005149841,learn,21128.999948501587,Fri Dec 19 2025 15:57:11 GMT-0600 (Central Standard Time),502400.2000000477,A,h,I,h,972,2,982.7000000476837,501417.5,8068,WL,C,15.0
4,39.0699999332428,learn,20930.000066757202,Fri Dec 19 2025 15:57:11 GMT-0600 (Central Standard Time),502600.0,A,ho,I,o,180,2,1182.5,501417.5,8068,WL,C,15.0
4,39.30399990081787,learn,20696.00009918213,Fri Dec 19 2025 15:57:11 GMT-0600 (Central Standard Time),502833.60000002384,A,hom,I,m,220,2,1416.1000000238419,501417.5,8068,WL,C,15.0
4,39.55399990081787,learn,20446.00009918213,Fri Dec 19 2025 15:57:11 GMT-0600 (Central Standard Time),503083.40000009537,A,home,I,e,235,2,1665.9000000953674,501417.5,8068,WL,C,15.0
4,40.08699989318848,learn,19913.000106811523,Fri Dec 19 2025 15:57:11 GMT-0600 (Central Standard Time),503616.60000002384,A,homeenter,I,enter,514,2,2199.100000023842,501417.5,8068,WL,C,15.0
5,1.0169999599456787,learn,60000.0,Fri Dec 19 2025 15:57:11 GMT-0600 (Central Standard Time),572078.7000000477,A,f,I,f,999,2,1016.2000000476837,571062.5,8068,WL,C,1.0
5,1.2999999523162842,learn,60000.0,Fri Dec 19 2025 15:57:11 GMT-0600 (Central Standard Time),572361.7000000477,A,fa,I,a,277,2,1299.2000000476837,571062.5,8068,WL,C,1.0
5,1.565999984741211,learn,60000.0,Fri Dec 19 2025 15:57:11 GMT-0600 (Central Standard Time),572628.4000000954,A,fal,I,l,260,2,1565.9000000953674,571062.5,8068,WL,C,1.0
5,1.9829998016357422,learn,60000.0,Fri Dec 19 2025 15:57:11 GMT-0600 (Central Standard Time),573044.9000000954,A,falg,I,g,409,2,1982.4000000953674,571062.5,8068,WL,C,1.0
5,2.4159998893737793,learn,60000.0,Fri Dec 19 2025 15:57:11 GMT-0600 (Central Standard Time),573478.2000000477,A,falgenter,I,enter,415,2,2415.7000000476837,571062.5,8068,WL,C,1.0
5,3.0159997940063477,learn,60000.0,Fri Dec 19 2025 15:57:11 GMT-0600 (Central Standard Time),574078.2000000477,A,n,I,n,591,2,599.7000000476837,573478.5,8068,WL,C,2.0
5,3.1489999294281006,learn,60000.0,Fri Dec 19 2025 15:57:11 GMT-0600 (Central Standard Time),574211.2000000477,A,na,I,a,126,2,732.7000000476837,573478.5,8068,WL,C,2.0
5,3.315999984741211,learn,60000.0,Fri Dec 19 2025 15:57:11 GMT-0600 (Central Standard Time),574378.1000000238,A,nai,I,i,146,2,899.6000000238419,573478.5,8068,WL,C,2.0
5,3.632999897003174,learn,60000.0,Fri Dec 19 2025 15:57:11 GMT-0600 (Central Standard Time),574694.6000000238,A,nail,I,l,307,2,1216.1000000238419,573478.5,8068,WL,C,2.0
5,4.248999834060669,learn,60000.0,Fri Dec 19 2025 15:57:11 GMT-0600 (Central Standard Time),575311.0,A,nailenter,I,enter,599,2,1832.5,573478.5,8068,WL,C,2.0
5,4.98199987411499,learn,60000.0,Fri Dec 19 2025 15:57:11 GMT-0600 (Central Standard Time),576044.0,A,l,I,l,719,2,732.5999999046326,575311.4000000954,8068,WL,C,3.0
5,5.115999937057495,learn,60000.0,Fri Dec 19 2025 15:57:11 GMT-0600 (Central Standard Time),576177.6000000238,A,le,I,e,121,2,866.1999999284744,575311.4000000954,8068,WL,C,3.0
5,5.348999977111816,learn,60000.0,Fri Dec 19 2025 15:57:11 GMT-0600 (Central Standard Time),576410.5,A,let,I,t,219,2,1099.0999999046326,575311.4000000954,8068,WL,C,3.0
5,5.531999826431274,learn,60000.0,Fri Dec 19 2025 15:57:11 GMT-0600 (Central Standard Time),576593.8000000715,A,lett,I,t,170,2,1282.3999999761581,575311.4000000954,8068,WL,C,3.0
5,5.697999954223633,learn,60000.0,Fri Dec 19 2025 15:57:11 GMT-0600 (Central Standard Time),576760.3000000715,A,lette,I,e,146,2,1448.8999999761581,575311.4000000954,8068,WL,C,3.0
5,5.781999826431274,learn,60000.0,Fri Dec 19 2025 15:57:11 GMT-0600 (Central Standard Time),576843.8000000715,A,letter,I,r,77,2,1532.3999999761581,575311.4000000954,8068,WL,C,3.0
5,6.881999969482422,learn,60000.0,Fri Dec 19 2025 15:57:11 GMT-0600 (Central Standard Time),577943.6000000238,A,letterenter,I,enter,1089,2,2632.1999999284744,575311.4000000954,8068,WL,C,3.0
5,7.447999954223633,learn,60000.0,Fri Dec 19 2025 15:57:11 GMT-0600 (Central Standard Time),578509.9000000954,A,s,I,s,557,2,565.9000000953674,577944.0,8068,WL,C,4.0
5,7.648000001907349,learn,60000.0,Fri Dec 19 2025 15:57:11 GMT-0600 (Central Standard Time),578709.7000000477,A,sh,I,h,190,2,765.7000000476837,577944.0,8068,WL,C,4.0
5,7.863999843597412,learn,60000.0,Fri Dec 19 2025 15:57:11 GMT-0600 (Central Standard Time),578926.5,A,sho,I,o,200,2,982.5,577944.0,8068,WL,C,4.0
5,7.96399998664856,learn,60000.0,Fri Dec 19 2025 15:57:11 GMT-0600 (Central Standard Time),579026.2000000477,A,shor,I,r,87,2,1082.2000000476837,577944.0,8068,WL,C,4.0
5,8.080999851226807,learn,60000.0,Fri Dec 19 2025 15:57:11 GMT-0600 (Central Standard Time),579142.9000000954,A,shore,I,e,106,2,1198.9000000953674,577944.0,8068,WL,C,4.0
5,8.726999998092651,learn,60000.0,Fri Dec 19 2025 15:57:11 GMT-0600 (Central Standard Time),579788.9000000954,A,shoreenter,I,enter,642,2,1844.9000000953674,577944.0,8068,WL,C,4.0
5,9.063999891281128,learn,60000.0,Fri Dec 19 2025 15:57:11 GMT-0600 (Central Standard Time),580125.8000000715,A,b,I,b,328,2,336.60000002384186,579789.2000000477,8068,WL,C,5.0
5,9.196999788284302,learn,60000.0,Fri Dec 19 2025 15:57:11 GMT-0600 (Central Standard Time),580259.2000000477,A,bo,I,o,128,2,470.0,579789.2000000477,8068,WL,C,5.0
5,9.363999843597412,learn,60000.0,Fri Dec 19 2025 15:57:11 GMT-0600 (Central Standard Time),580425.7000000477,A,bod,I,d,161,2,636.5,579789.2000000477,8068,WL,C,5.0
5,9.596999883651733,learn,60000.0,Fri Dec 19 2025 15:57:11 GMT-0600 (Central Standard Time),580659.2000000477,A,body,I,y,220,2,870.0,579789.2000000477,8068,WL,C,5.0
5,10.196999788284302,learn,60000.0,Fri Dec 19 2025 15:57:11 GMT-0600 (Central Standard Time),581258.9000000954,A,bodyenter,I,enter,593,2,1469.7000000476837,579789.2000000477,8068,WL,C,5.0
5,10.563999891281128,learn,60000.0,Fri Dec 19 2025 15:57:11 GMT-0600 (Central Standard Time),581625.8000000715,A,t,I,t,346,2,366.7000000476837,581259.1000000238,8068,WL,C,6.0
5,11.162999868392944,learn,60000.0,Fri Dec 19 2025 15:57:11 GMT-0600 (Central Standard Time),582225.4000000954,A,to,I,o,587,2,966.3000000715256,581259.1000000238,8068,WL,C,6.0
5,11.579999923706055,learn,60000.0,Fri Dec 19 2025 15:57:11 GMT-0600 (Central Standard Time),582641.8000000715,A,tow,I,w,404,2,1382.7000000476837,581259.1000000238,8068,WL,C,6.0
5,11.829999923706055,learn,60000.0,Fri Dec 19 2025 15:57:11 GMT-0600 (Central Standard Time),582892.0,A,towe,I,e,235,2,1632.8999999761581,581259.1000000238,8068,WL,C,6.0
5,11.979999780654907,learn,60000.0,Fri Dec 19 2025 15:57:11 GMT-0600 (Central Standard Time),583041.9000000954,A,tower,I,r,129,2,1782.8000000715256,581259.1000000238,8068,WL,C,6.0
5,12.579999923706055,learn,60000.0,Fri Dec 19 2025 15:57:11 GMT-0600 (Central Standard Time),583641.6000000238,A,towerenter,I,enter,587,2,2382.5,581259.1000000238,8068,WL,C,6.0
5,12.978999853134155,learn,60000.0,Fri Dec 19 2025 15:57:11 GMT-0600 (Central Standard Time),584041.5,A,c,I,c,380,2,399.5,583642.0,8068,WL,C,7.0
5,13.129999876022339,learn,60000.0,Fri Dec 19 2025 15:57:11 GMT-0600 (Central Standard Time),584191.6000000238,A,co,I,o,132,2,549.6000000238419,583642.0,8068,WL,C,7.0
5,13.228999853134155,learn,60000.0,Fri Dec 19 2025 15:57:11 GMT-0600 (Central Standard Time),584291.5,A,cor,I,r,94,2,649.5,583642.0,8068,WL,C,7.0
5,13.428999900817871,learn,60000.0,Fri Dec 19 2025 15:57:11 GMT-0600 (Central Standard Time),584491.5,A,corn,I,n,186,2,849.5,583642.0,8068,WL,C,7.0
5,13.928999900817871,learn,60000.0,Fri Dec 19 2025 15:57:11 GMT-0600 (Central Standard Time),584991.2000000477,A,cornenter,I,enter,490,2,1349.2000000476837,583642.0,8068,WL,C,7.0
5,14.51199984550476,learn,60000.0,Fri Dec 19 2025 15:57:11 GMT-0600 (Central Standard Time),585574.3000000715,A,w,I,w,565,2,582.8000000715256,584991.5,8068,WL,C,8.0
5,14.744999885559082,learn,60000.0,Fri Dec 19 2025 15:57:11 GMT-0600 (Central Standard Time),585807.4000000954,A,wh,I,h,214,2,815.9000000953674,584991.5,8068,WL,C,8.0
5,14.794999837875366,learn,60000.0,Fri Dec 19 2025 15:57:11 GMT-0600 (Central Standard Time),585857.4000000954,A,whe,I,e,45,2,865.9000000953674,584991.5,8068,WL,C,8.0
5,14.928999900817871,learn,60000.0,Fri Dec 19 2025 15:57:11 GMT-0600 (Central Standard Time),585990.8000000715,A,wher,I,r,124,2,999.3000000715256,584991.5,8068,WL,C,8.0
5,15.078999996185303,learn,60000.0,Fri Dec 19 2025 15:57:11 GMT-0600 (Central Standard Time),586141.1000000238,A,where,I,e,134,2,1149.6000000238419,584991.5,8068,WL,C,8.0
5,15.311999797821045,learn,60000.0,Fri Dec 19 2025 15:57:11 GMT-0600 (Central Standard Time),586374.2000000477,A,wherea,I,a,224,2,1382.7000000476837,584991.5,8068,WL,C,8.0
5,15.494999885559082,learn,60000.0,Fri Dec 19 2025 15:57:11 GMT-0600 (Central Standard Time),586557.4000000954,A,whereat,I,t,166,2,1565.9000000953674,584991.5,8068,WL,C,8.0
5,16.078999996185303,learn,60000.0,Fri Dec 19 2025 15:57:11 GMT-0600 (Central Standard Time),587140.5,A,wherea,I,backspace,576,2,2149.0,584991.5,8068,WL,C,8.0
5,16.294999837875366,learn,60000.0,Fri Dec 19 2025 15:57:11 GMT-0600 (Central Standard Time),587357.1000000238,A,where,I,backspace,209,2,2365.600000023842,584991.5,8068,WL,C,8.0
5,16.527999877929688,learn,60000.0,Fri Dec 19 2025 15:57:11 GMT-0600 (Central Standard Time),587590.4000000954,A,wher,I,backspace,224,2,2598.9000000953674,584991.5,8068,WL,C,8.0
5,16.777999877929688,learn,60000.0,Fri Dec 19 2025 15:57:11 GMT-0600 (Central Standard Time),587840.1000000238,A,whe,I,backspace,229,2,2848.600000023842,584991.5,8068,WL,C,8.0
5,17.144999980926514,learn,60000.0,Fri Dec 19 2025 15:57:11 GMT-0600 (Central Standard Time),588206.9000000954,A,whee,I,e,350,2,3215.4000000953674,584991.5,8068,WL,C,8.0
5,17.32799983024597,learn,60000.0,Fri Dec 19 2025 15:57:11 GMT-0600 (Central Standard Time),588390.0,A,wheea,I,a,165,2,3398.5,584991.5,8068,WL,C,8.0
5,17.494999885559082,learn,60000.0,Fri Dec 19 2025 15:57:11 GMT-0600 (Central Standard Time),588556.7000000477,A,wheeat,I,t,159,2,3565.2000000476837,584991.5,8068,WL,C,8.0
5,18.17799997329712,learn,60000.0,Fri Dec 19 2025 15:57:11 GMT-0600 (Central Standard Time),589240.1000000238,A,wheeatenter,I,enter,665,2,4248.600000023842,584991.5,8068,WL,C,8.0
5,19.444000005722046,learn,60000.0,Fri Dec 19 2025 15:57:11 GMT-0600 (Central Standard Time),590506.1000000238,A,c,I,c,1245,2,1265.7999999523163,589240.3000000715,8068,WL,C,9.0
5,19.5939998626709,learn,60000.0,Fri Dec 19 2025 15:57:11 GMT-0600 (Central Standard Time),590656.1000000238,A,ca,I,a,130,2,1415.7999999523163,589240.3000000715,8068,WL,C,9.0
5,19.710999965667725,learn,60000.0,Fri Dec 19 2025 15:57:11 GMT-0600 (Central Standard Time),590772.6000000238,A,cat,I,t,109,2,1532.2999999523163,589240.3000000715,8068,WL,C,9.0
5,19.99399995803833,learn,60000.0,Fri Dec 19 2025 15:57:11 GMT-0600 (Central Standard Time),591055.9000000954,A,catt,I,t,264,2,1815.6000000238419,589240.3000000715,8068,WL,C,9.0
5,20.74399995803833,learn,60000.0,Fri Dec 19 2025 15:57:11 GMT-0600 (Central Standard Time),591805.7000000477,A,cattl,I,l,742,2,2565.399999976158,589240.3000000715,8068,WL,C,9.0
5,20.89299988746643,learn,60000.0,Fri Dec 19 2025 15:57:11 GMT-0600 (Central Standard Time),591955.5,A,cattle,I,e,135,2,2715.1999999284744,589240.3000000715,8068,WL,C,9.0
5,21.359999895095825,learn,60000.0,Fri Dec 19 2025 15:57:11 GMT-0600 (Central Standard Time),592422.3000000715,A,cattleenter,I,enter,458,2,3182.0,589240.3000000715,8068,WL,C,9.0
5,21.526999950408936,learn,60000.0,Fri Dec 19 2025 15:57:11 GMT-0600 (Central Standard Time),592588.8000000715,A,s,I,s,158,2,166.20000004768372,592422.6000000238,8068,WL,C,10.0
5,21.80999994277954,learn,60000.0,Fri Dec 19 2025 15:57:11 GMT-0600 (Central Standard Time),592871.9000000954,A,su,I,u,272,2,449.3000000715256,592422.6000000238,8068,WL,C,10.0
5,22.009999990463257,learn,60000.0,Fri Dec 19 2025 15:57:11 GMT-0600 (Central Standard Time),593072.1000000238,A,sug,I,g,181,2,649.5,592422.6000000238,8068,WL,C,10.0
5,22.492999792099,learn,60000.0,Fri Dec 19 2025 15:57:11 GMT-0600 (Central Standard Time),593555.3000000715,A,suga,I,a,469,2,1132.7000000476837,592422.6000000238,8068,WL,C,10.0
5,22.72599983215332,learn,60000.0,Fri Dec 19 2025 15:57:11 GMT-0600 (Central Standard Time),593788.4000000954,A,sugar,I,r,225,2,1365.8000000715256,592422.6000000238,8068,WL,C,10.0
5,23.442999839782715,learn,60000.0,Fri Dec 19 2025 15:57:11 GMT-0600 (Central Standard Time),594505.0,A,sugarenter,I,enter,696,2,2082.399999976158,592422.6000000238,8068,WL,C,10.0
5,24.425999879837036,learn,60000.0,Fri Dec 19 2025 15:57:11 GMT-0600 (Central Standard Time),595488.0,A,l,I,l,964,2,982.6999999284744,594505.3000000715,8068,WL,C,11.0
5,24.54199981689453,learn,60000.0,Fri Dec 19 2025 15:57:11 GMT-0600 (Central Standard Time),595604.5,A,le,I,e,109,2,1099.1999999284744,594505.3000000715,8068,WL,C,11.0
5,24.775999784469604,learn,60000.0,Fri Dec 19 2025 15:57:11 GMT-0600 (Central Standard Time),595837.7000000477,A,let,I,t,217,2,1332.3999999761581,594505.3000000715,8068,WL,C,11.0
5,24.941999912261963,learn,60000.0,Fri Dec 19 2025 15:57:11 GMT-0600 (Central Standard Time),596004.4000000954,A,lett,I,t,158,2,1499.1000000238419,594505.3000000715,8068,WL,C,11.0
5,25.008999824523926,learn,60000.0,Fri Dec 19 2025 15:57:11 GMT-0600 (Central Standard Time),596071.1000000238,A,lette,I,e,48,2,1565.7999999523163,594505.3000000715,8068,WL,C,11.0
5,25.158999919891357,learn,60000.0,Fri Dec 19 2025 15:57:11 GMT-0600 (Central Standard Time),596221.1000000238,A,letter,I,r,134,2,1715.7999999523163,594505.3000000715,8068,WL,C,11.0
5,25.674999952316284,learn,60000.0,Fri Dec 19 2025 15:57:11 GMT-0600 (Central Standard Time),596737.4000000954,A,letterenter,I,enter,504,2,2232.100000023842,594505.3000000715,8068,WL,C,11.0
5,26.424999952316284,learn,60000.0,Fri Dec 19 2025 15:57:11 GMT-0600 (Central Standard Time),597487.3000000715,A,d,I,d,739,2,749.6000000238419,596737.7000000477,8068,WL,C,12.0
5,26.64199995994568,learn,60000.0,Fri Dec 19 2025 15:57:11 GMT-0600 (Central Standard Time),597704.0,A,do,I,o,197,2,966.2999999523163,596737.7000000477,8068,WL,C,12.0
5,26.741999864578247,learn,60000.0,Fri Dec 19 2025 15:57:11 GMT-0600 (Central Standard Time),597803.7000000477,A,doc,I,c,92,2,1066.0,596737.7000000477,8068,WL,C,12.0
5,27.324999809265137,learn,60000.0,Fri Dec 19 2025 15:57:11 GMT-0600 (Central Standard Time),598386.9000000954,A,doco,I,o,569,2,1649.2000000476837,596737.7000000477,8068,WL,C,12.0
5,27.45799994468689,learn,60000.0,Fri Dec 19 2025 15:57:11 GMT-0600 (Central Standard Time),598520.5,A,docot,I,t,114,2,1782.7999999523163,596737.7000000477,8068,WL,C,12.0
5,28.29099988937378,learn,60000.0,Fri Dec 19 2025 15:57:11 GMT-0600 (Central Standard Time),599353.3000000715,A,doco,I,backspace,821,2,2615.600000023842,596737.7000000477,8068,WL,C,12.0
5,28.490999937057495,learn,60000.0,Fri Dec 19 2025 15:57:11 GMT-0600 (Central Standard Time),599553.2000000477,A,doc,I,backspace,188,2,2815.5,596737.7000000477,8068,WL,C,12.0
5,28.740999937057495,learn,60000.0,Fri Dec 19 2025 15:57:11 GMT-0600 (Central Standard Time),599803.1000000238,A,doct,I,t,236,2,3065.399999976158,596737.7000000477,8068,WL,C,12.0
5,28.906999826431274,learn,60000.0,Fri Dec 19 2025 15:57:11 GMT-0600 (Central Standard Time),599969.7000000477,A,docto,I,o,146,2,3232.0,596737.7000000477,8068,WL,C,12.0
5,29.0239999294281,learn,60000.0,Fri Dec 19 2025 15:57:11 GMT-0600 (Central Standard Time),600086.3000000715,A,doctor,I,r,99,2,3348.600000023842,596737.7000000477,8068,WL,C,12.0
5,29.342000007629395,learn,60000.0,Fri Dec 19 2025 15:57:11 GMT-0600 (Central Standard Time),600404.0,A,doctorenter,I,enter,311,2,3666.2999999523163,596737.7000000477,8068,WL,C,12.0
5,30.039999961853027,learn,60000.0,Fri Dec 19 2025 15:57:11 GMT-0600 (Central Standard Time),601102.8000000715,A,b,I,b,689,2,698.5,600404.3000000715,8068,WL,C,13.0
5,30.223999977111816,learn,60000.0,Fri Dec 19 2025 15:57:11 GMT-0600 (Central Standard Time),601286.1000000238,A,bo,I,o,166,2,881.7999999523163,600404.3000000715,8068,WL,C,13.0
5,30.490000009536743,learn,60000.0,Fri Dec 19 2025 15:57:11 GMT-0600 (Central Standard Time),601552.7000000477,A,boy,I,y,247,2,1148.3999999761581,600404.3000000715,8068,WL,C,13.0
5,30.923999786376953,learn,60000.0,Fri Dec 19 2025 15:57:11 GMT-0600 (Central Standard Time),601985.9000000954,A,boyenter,I,enter,421,2,1581.6000000238419,600404.3000000715,8068,WL,C,13.0
5,31.256999969482422,learn,60000.0,Fri Dec 19 2025 15:57:11 GMT-0600 (Central Standard Time),602319.3000000715,A,q,I,q,315,2,333.0,601986.3000000715,8068,WL,C,14.0
5,31.43999981880188,learn,60000.0,Fri Dec 19 2025 15:57:11 GMT-0600 (Central Standard Time),602502.5,A,qu,I,u,174,2,516.1999999284744,601986.3000000715,8068,WL,C,14.0
5,31.572999954223633,learn,60000.0,Fri Dec 19 2025 15:57:11 GMT-0600 (Central Standard Time),602635.6000000238,A,que,I,e,126,2,649.2999999523163,601986.3000000715,8068,WL,C,14.0
5,31.83999991416931,learn,60000.0,Fri Dec 19 2025 15:57:11 GMT-0600 (Central Standard Time),602902.3000000715,A,quee,I,e,257,2,916.0,601986.3000000715,8068,WL,C,14.0
5,32.139999866485596,learn,60000.0,Fri Dec 19 2025 15:57:11 GMT-0600 (Central Standard Time),603201.9000000954,A,queen,I,n,279,2,1215.6000000238419,601986.3000000715,8068,WL,C,14.0
5,32.75599980354309,learn,60000.0,Fri Dec 19 2025 15:57:11 GMT-0600 (Central Standard Time),603818.5,A,queenenter,I,enter,611,2,1832.1999999284744,601986.3000000715,8068,WL,C,14.0
5,34.00599980354309,learn,60000.0,Fri Dec 19 2025 15:57:11 GMT-0600 (Central Standard Time),605068.3000000715,A,c,I,c,1235,2,1249.3999999761581,603818.9000000954,8068,WL,C,15.0
5,34.17199993133545,learn,60000.0,Fri Dec 19 2025 15:57:11 GMT-0600 (Central Standard Time),605234.6000000238,A,ca,I,a,161,2,1415.6999999284744,603818.9000000954,8068,WL,C,15.0
5,34.35599994659424,learn,60000.0,Fri Dec 19 2025 15:57:11 GMT-0600 (Central Standard Time),605418.4000000954,A,cam,I,m,171,2,1599.5,603818.9000000954,8068,WL,C,15.0
5,34.90599989891052,learn,60000.0,Fri Dec 19 2025 15:57:11 GMT-0600 (Central Standard Time),605967.9000000954,A,camp,I,p,530,2,2149.0,603818.9000000954,8068,WL,C,15.0
5,35.40599989891052,learn,60000.0,Fri Dec 19 2025 15:57:11 GMT-0600 (Central Standard Time),606467.9000000954,A,campenter,I,enter,493,2,2649.0,603818.9000000954,8068,WL,C,15.0
6,1.2000000476837158,distr,58799.999952316284,Fri Dec 19 2025 15:57:11 GMT-0600 (Central Standard Time),674346.4000000954,B,s,I,s,1186,2,1199.4000000953674,673147.0,8068,WL,C,1.0
6,1.5989999771118164,distr,58401.00002288818,Fri Dec 19 2025 15:57:11 GMT-0600 (Central Standard Time),674746.2000000477,B,sk,I,k,392,2,1599.2000000476837,673147.0,8068,WL,C,1.0
6,2.0169999599456787,distr,57983.00004005432,Fri Dec 19 2025 15:57:11 GMT-0600 (Central Standard Time),675164.0,B,sky,I,y,411,2,2017.0,673147.0,8068,WL,C,1.0
6,3.0829999446868896,distr,56917.00005531311,Fri Dec 19 2025 15:57:11 GMT-0600 (Central Standard Time),676229.4000000954,B,skyenter,I,enter,1048,2,3082.4000000953674,673147.0,8068,WL,C,1.0
6,3.681999921798706,distr,56318.000078201294,Fri Dec 19 2025 15:57:11 GMT-0600 (Central Standard Time),676829.0,B,v,I,v,584,2,599.2999999523163,676229.7000000477,8068,WL,C,2.0
6,3.8320000171661377,distr,56167.99998283386,Fri Dec 19 2025 15:57:11 GMT-0600 (Central Standard Time),676978.8000000715,B,va,I,a,145,2,749.1000000238419,676229.7000000477,8068,WL,C,2.0
6,4.131999969482422,distr,55868.00003051758,Fri Dec 19 2025 15:57:11 GMT-0600 (Central Standard Time),677279.1000000238,B,val,I,l,282,2,1049.3999999761581,676229.7000000477,8068,WL,C,2.0
6,4.348999977111816,distr,55651.00002288818,Fri Dec 19 2025 15:57:11 GMT-0600 (Central Standard Time),677495.4000000954,B,vall,I,l,198,2,1265.7000000476837,676229.7000000477,8068,WL,C,2.0
6,4.648999929428101,distr,55351.0000705719,Fri Dec 19 2025 15:57:11 GMT-0600 (Central Standard Time),677795.5,B,vally,I,y,294,2,1565.7999999523163,676229.7000000477,8068,WL,C,2.0
6,5.2149999141693115,distr,54785.00008583069,Fri Dec 19 2025 15:57:11 GMT-0600 (Central Standard Time),678362.2000000477,B,vallyenter,I,enter,554,2,2132.5,676229.7000000477,8068,WL,C,2.0
6,6.0980000495910645,distr,53901.999950408936,Fri Dec 19 2025 15:57:11 GMT-0600 (Central Standard Time),679245.1000000238,B,m,I,m,868,2,882.6000000238419,678362.5,8068,WL,C,3.0
6,6.398000001907349,distr,53601.99999809265,Fri Dec 19 2025 15:57:11 GMT-0600 (Central Standard Time),679544.9000000954,B,mo,I,o,279,2,1182.4000000953674,678362.5,8068,WL,C,3.0
6,6.615000009536743,distr,53384.99999046326,Fri Dec 19 2025 15:57:11 GMT-0600 (Central Standard Time),679761.8000000715,B,mon,I,n,203,2,1399.3000000715256,678362.5,8068,WL,C,3.0
6,6.747999906539917,distr,53252.00009346008,Fri Dec 19 2025 15:57:11 GMT-0600 (Central Standard Time),679895.1000000238,B,mone,I,e,116,2,1532.6000000238419,678362.5,8068,WL,C,3.0
6,6.980999946594238,distr,53019.00005340576,Fri Dec 19 2025 15:57:11 GMT-0600 (Central Standard Time),680128.2000000477,B,money,I,y,214,2,1765.7000000476837,678362.5,8068,WL,C,3.0
6,7.614000082015991,distr,52385.99991798401,Fri Dec 19 2025 15:57:11 GMT-0600 (Central Standard Time),680761.3000000715,B,moneyenter,I,enter,612,2,2398.8000000715256,678362.5,8068,WL,C,3.0
6,9.013999938964844,distr,50986.000061035156,Fri Dec 19 2025 15:57:11 GMT-0600 (Central Standard Time),682160.8000000715,B,p,I,p,1379,2,1399.1000000238419,680761.7000000477,8068,WL,C,4.0
6,10.579999923706055,distr,49420.000076293945,Fri Dec 19 2025 15:57:11 GMT-0600 (Central Standard Time),683726.9000000954,B,pl,I,l,1557,2,2965.2000000476837,680761.7000000477,8068,WL,C,4.0
6,10.77999997138977,distr,49220.00002861023,Fri Dec 19 2025 15:57:11 GMT-0600 (Central Standard Time),683926.9000000954,B,pla,I,a,189,2,3165.2000000476837,680761.7000000477,8068,WL,C,4.0
6,10.963000059127808,distr,49036.99994087219,Fri Dec 19 2025 15:57:11 GMT-0600 (Central Standard Time),684110.1000000238,B,plan,I,n,175,2,3348.399999976158,680761.7000000477,8068,WL,C,4.0
6,11.11299991607666,distr,48887.00008392334,Fri Dec 19 2025 15:57:11 GMT-0600 (Central Standard Time),684260.1000000238,B,plant,I,t,143,2,3498.399999976158,680761.7000000477,8068,WL,C,4.0
6,11.54699993133545,distr,48453.00006866455,Fri Dec 19 2025 15:57:11 GMT-0600 (Central Standard Time),684693.3000000715,B,plantenter,I,enter,416,2,3931.600000023842,680761.7000000477,8068,WL,C,4.0
6,12.246000051498413,distr,47753.99994850159,Fri Dec 19 2025 15:57:11 GMT-0600 (Central Standard Time),685393.0,B,e,I,e,679,2,699.2999999523163,684693.7000000477,8068,WL,C,5.0
6,12.36299991607666,distr,47637.00008392334,Fri Dec 19 2025 15:57:11 GMT-0600 (Central Standard Time),685509.9000000954,B,ea,I,a,108,2,816.2000000476837,684693.7000000477,8068,WL,C,5.0
6,12.579999923706055,distr,47420.000076293945,Fri Dec 19 2025 15:57:11 GMT-0600 (Central Standard Time),685726.4000000954,B,eat,I,t,207,2,1032.7000000476837,684693.7000000477,8068,WL,C,5.0
6,12.796000003814697,distr,47203.9999961853,Fri Dec 19 2025 15:57:11 GMT-0600 (Central Standard Time),685942.7000000477,B,eath,I,h,207,2,1249.0,684693.7000000477,8068,WL,C,5.0
6,14.496000051498413,distr,45503.99994850159,Fri Dec 19 2025 15:57:11 GMT-0600 (Central Standard Time),687642.3000000715,B,eat,I,backspace,1687,2,2948.600000023842,684693.7000000477,8068,WL,C,5.0
6,15.09500002861023,distr,44904.99997138977,Fri Dec 19 2025 15:57:11 GMT-0600 (Central Standard Time),688241.9000000954,B,ea,I,backspace,594,2,3548.2000000476837,684693.7000000477,8068,WL,C,5.0
6,15.361999988555908,distr,44638.00001144409,Fri Dec 19 2025 15:57:11 GMT-0600 (Central Standard Time),688508.8000000715,B,ear,I,r,251,2,3815.100000023842,684693.7000000477,8068,WL,C,5.0
6,15.578999996185303,distr,44421.0000038147,Fri Dec 19 2025 15:57:11 GMT-0600 (Central Standard Time),688725.4000000954,B,eart,I,t,208,2,4031.7000000476837,684693.7000000477,8068,WL,C,5.0
6,15.712000131607056,distr,44287.999868392944,Fri Dec 19 2025 15:57:11 GMT-0600 (Central Standard Time),688858.3000000715,B,earth,I,h,128,2,4164.600000023842,684693.7000000477,8068,WL,C,5.0
6,16.34500002861023,distr,43654.99997138977,Fri Dec 19 2025 15:57:11 GMT-0600 (Central Standard Time),689492.0,B,earthenter,I,enter,627,2,4798.299999952316,684693.7000000477,8068,WL,C,5.0
6,17.460999965667725,distr,42539.000034332275,Fri Dec 19 2025 15:57:11 GMT-0600 (Central Standard Time),690608.1000000238,B,m,I,m,1105,2,1115.7999999523163,689492.3000000715,8068,WL,C,6.0
6,17.710999965667725,distr,42289.000034332275,Fri Dec 19 2025 15:57:11 GMT-0600 (Central Standard Time),690857.9000000954,B,mo,I,o,245,2,1365.6000000238419,689492.3000000715,8068,WL,C,6.0
6,17.91100001335144,distr,42088.99998664856,Fri Dec 19 2025 15:57:11 GMT-0600 (Central Standard Time),691058.1000000238,B,mot,I,t,187,2,1565.7999999523163,689492.3000000715,8068,WL,C,6.0
6,18.045000076293945,distr,41954.999923706055,Fri Dec 19 2025 15:57:11 GMT-0600 (Central Standard Time),691191.3000000715,B,moth,I,h,122,2,1699.0,689492.3000000715,8068,WL,C,6.0
6,18.111000061035156,distr,41888.999938964844,Fri Dec 19 2025 15:57:11 GMT-0600 (Central Standard Time),691258.1000000238,B,mothe,I,e,53,2,1765.7999999523163,689492.3000000715,8068,WL,C,6.0
6,18.210999965667725,distr,41789.000034332275,Fri Dec 19 2025 15:57:11 GMT-0600 (Central Standard Time),691357.9000000954,B,mother,I,r,90,2,1865.6000000238419,689492.3000000715,8068,WL,C,6.0
6,18.694000005722046,distr,41305.999994277954,Fri Dec 19 2025 15:57:11 GMT-0600 (Central Standard Time),691841.0,B,motherenter,I,enter,472,2,2348.6999999284744,689492.3000000715,8068,WL,C,6.0
6,22.276999950408936,distr,37723.000049591064,Fri Dec 19 2025 15:57:11 GMT-0600 (Central Standard Time),695423.3000000715,B,d,I,d,3571,2,3581.899999976158,691841.4000000954,8068,WL,C,7.0
6,22.55999994277954,distr,37440.00005722046,Fri Dec 19 2025 15:57:11 GMT-0600 (Central Standard Time),695706.4000000954,B,do,I,o,269,2,3865.0,691841.4000000954,8068,WL,C,7.0
6,23.210000038146973,distr,36789.99996185303,Fri Dec 19 2025 15:57:11 GMT-0600 (Central Standard Time),696356.4000000954,B,dol,I,l,635,2,4515.0,691841.4000000954,8068,WL,C,7.0
6,23.426000118255615,distr,36573.999881744385,Fri Dec 19 2025 15:57:11 GMT-0600 (Central Standard Time),696572.9000000954,B,doll,I,l,200,2,4731.5,691841.4000000954,8068,WL,C,7.0
6,23.960000038146973,distr,36039.99996185303,Fri Dec 19 2025 15:57:11 GMT-0600 (Central Standard Time),697106.8000000715,B,dolla,I,a,528,2,5265.399999976158,691841.4000000954,8068,WL,C,7.0
6,24.193000078201294,distr,35806.999921798706,Fri Dec 19 2025 15:57:11 GMT-0600 (Central Standard Time),697339.4000000954,B,dollar,I,r,218,2,5498.0,691841.4000000954,8068,WL,C,7.0
6,24.70199990272522,distr,35298.00009727478,Fri Dec 19 2025 15:57:11 GMT-0600 (Central Standard Time),697848.9000000954,B,dollarenter,I,enter,505,2,6007.5,691841.4000000954,8068,WL,C,7.0
6,29.891000032424927,distr,30108.999967575073,Fri Dec 19 2025 15:57:11 GMT-0600 (Central Standard Time),703037.7000000477,B,s,I,s,5180,2,5188.5,697849.2000000477,8068,WL,C,8.0
6,30.258000135421753,distr,29741.999864578247,Fri Dec 19 2025 15:57:11 GMT-0600 (Central Standard Time),703404.3000000715,B,sk,I,k,359,2,5555.100000023842,697849.2000000477,8068,WL,C,8.0
6,30.657000064849854,distr,29342.999935150146,Fri Dec 19 2025 15:57:11 GMT-0600 (Central Standard Time),703804.0,B,sky,I,y,384,2,5954.799999952316,697849.2000000477,8068,WL,C,8.0
6,31.256999969482422,distr,28743.000030517578,Fri Dec 19 2025 15:57:11 GMT-0600 (Central Standard Time),704403.9000000954,B,skyenter,I,enter,593,2,6554.700000047684,697849.2000000477,8068,WL,C,8.0
6,37.0550000667572,distr,22944.999933242798,Fri Dec 19 2025 15:57:11 GMT-0600 (Central Standard Time),710202.0,B,enter,I,enter,5785,2,5797.899999976158,704404.1000000238,8068,WL,C,9.0
6,39.4539999961853,distr,20546.000003814697,Fri Dec 19 2025 15:57:11 GMT-0600 (Central Standard Time),712601.3000000715,B,enter,I,enter,2394,2,2399.0,710202.3000000715,8068,WL,C,10.0
6,39.73799991607666,distr,20262.00008392334,Fri Dec 19 2025 15:57:11 GMT-0600 (Central Standard Time),712884.8000000715,B,enter,I,enter,268,2,283.3000000715256,712601.5,8068,WL,C,11.0
6,40.00399994850159,distr,19996.000051498413,Fri Dec 19 2025 15:57:11 GMT-0600 (Central Standard Time),713151.2000000477,B,enter,I,enter,257,2,266.0,712885.2000000477,8068,WL,C,12.0
6,40.25399994850159,distr,19746.000051498413,Fri Dec 19 2025 15:57:11 GMT-0600 (Central Standard Time),713401.1000000238,B,enter,I,enter,237,2,249.5,713151.6000000238,8068,WL,C,13.0
6,40.50399994850159,distr,19496.000051498413,Fri Dec 19 2025 15:57:11 GMT-0600 (Central Standard Time),713650.6000000238,B,enter,I,enter,244,2,249.10000002384186,713401.5,8068,WL,C,14.0
6,40.770999908447266,distr,19229.000091552734,Fri Dec 19 2025 15:57:11 GMT-0600 (Central Standard Time),713917.4000000954,B,enter,I,enter,251,2,266.5,713650.9000000954,8068,WL,C,15.0
7,1.56600022315979,immed,58433.99977684021,Fri Dec 19 2025 15:57:11 GMT-0600 (Central Standard Time),734211.0,A,q,I,q,1560,2,1565.7999999523163,732645.2000000477,8068,WL,C,1.0
7,2.0160000324249268,immed,57983.99996757507,Fri Dec 19 2025 15:57:11 GMT-0600 (Central Standard Time),734660.8000000715,A,qu,I,u,433,2,2015.6000000238419,732645.2000000477,8068,WL,C,1.0
7,2.2160000801086426,immed,57783.99991989136,Fri Dec 19 2025 15:57:11 GMT-0600 (Central Standard Time),734861.0,A,que,I,e,183,2,2215.7999999523163,732645.2000000477,8068,WL,C,1.0
7,2.383000135421753,immed,57616.99986457825,Fri Dec 19 2025 15:57:11 GMT-0600 (Central Standard Time),735027.7000000477,A,quee,I,e,160,2,2382.5,732645.2000000477,8068,WL,C,1.0
7,2.6490001678466797,immed,57350.99983215332,Fri Dec 19 2025 15:57:11 GMT-0600 (Central Standard Time),735294.2000000477,A,queen,I,n,258,2,2649.0,732645.2000000477,8068,WL,C,1.0
7,3.5160000324249268,immed,56483.99996757507,Fri Dec 19 2025 15:57:11 GMT-0600 (Central Standard Time),736160.7000000477,A,queenenter,I,enter,854,2,3515.5,732645.2000000477,8068,WL,C,1.0
7,4.2820000648498535,immed,55717.99993515015,Fri Dec 19 2025 15:57:11 GMT-0600 (Central Standard Time),736927.0,A,d,I,d,757,2,765.8999999761581,736161.1000000238,8068,WL,C,2.0
7,4.5320000648498535,immed,55467.99993515015,Fri Dec 19 2025 15:57:11 GMT-0600 (Central Standard Time),737176.8000000715,A,do,I,o,238,2,1015.7000000476837,736161.1000000238,8068,WL,C,2.0
7,4.615000009536743,immed,55384.99999046326,Fri Dec 19 2025 15:57:11 GMT-0600 (Central Standard Time),737260.2000000477,A,doc,I,c,69,2,1099.1000000238419,736161.1000000238,8068,WL,C,2.0
7,4.981000185012817,immed,55018.99981498718,Fri Dec 19 2025 15:57:11 GMT-0600 (Central Standard Time),737626.5,A,doco,I,o,361,2,1465.3999999761581,736161.1000000238,8068,WL,C,2.0
7,5.232000112533569,immed,54767.99988746643,Fri Dec 19 2025 15:57:11 GMT-0600 (Central Standard Time),737876.7000000477,A,docor,I,r,243,2,1715.6000000238419,736161.1000000238,8068,WL,C,2.0
7,6.231000185012817,immed,53768.99981498718,Fri Dec 19 2025 15:57:11 GMT-0600 (Central Standard Time),738876.3000000715,A,doco,I,backspace,985,2,2715.2000000476837,736161.1000000238,8068,WL,C,2.0
7,6.448000192642212,immed,53551.99980735779,Fri Dec 19 2025 15:57:11 GMT-0600 (Central Standard Time),739092.9000000954,A,doc,I,backspace,209,2,2931.8000000715256,736161.1000000238,8068,WL,C,2.0
7,6.5980000495910645,immed,53401.999950408936,Fri Dec 19 2025 15:57:11 GMT-0600 (Central Standard Time),739243.1000000238,A,doct,I,t,136,2,3082.0,736161.1000000238,8068,WL,C,2.0
7,6.864000082015991,immed,53135.99991798401,Fri Dec 19 2025 15:57:11 GMT-0600 (Central Standard Time),739509.4000000954,A,docto,I,o,251,2,3348.3000000715256,736161.1000000238,8068,WL,C,2.0
7,6.930999994277954,immed,53069.000005722046,Fri Dec 19 2025 15:57:11 GMT-0600 (Central Standard Time),739576.2000000477,A,doctor,I,r,55,2,3415.100000023842,736161.1000000238,8068,WL,C,2.0
7,8.047000169754028,immed,51952.99983024597,Fri Dec 19 2025 15:57:11 GMT-0600 (Central Standard Time),740692.5,A,doctorenter,I,enter,1108,2,4531.399999976158,736161.1000000238,8068,WL,C,2.0
7,8.864000082015991,immed,51135.99991798401,Fri Dec 19 2025 15:57:11 GMT-0600 (Central Standard Time),741509.0,A,b,I,b,809,2,816.0,740693.0,8068,WL,C,3.0
7,9.130000114440918,immed,50869.99988555908,Fri Dec 19 2025 15:57:11 GMT-0600 (Central Standard Time),741775.4000000954,A,bo,I,o,256,2,1082.4000000953674,740693.0,8068,WL,C,3.0
7,9.880000114440918,immed,50119.99988555908,Fri Dec 19 2025 15:57:11 GMT-0600 (Central Standard Time),742525.4000000954,A,boy,I,y,734,2,1832.4000000953674,740693.0,8068,WL,C,3.0
7,10.813000202178955,immed,49186.999797821045,Fri Dec 19 2025 15:57:11 GMT-0600 (Central Standard Time),743458.2000000477,A,boyenter,I,enter,919,2,2765.2000000476837,740693.0,8068,WL,C,3.0
7,11.11300015449524,immed,48886.99984550476,Fri Dec 19 2025 15:57:11 GMT-0600 (Central Standard Time),743758.4000000954,A,c,I,c,291,2,300.0,743458.4000000954,8068,WL,C,4.0
7,11.246000051498413,immed,48753.99994850159,Fri Dec 19 2025 15:57:11 GMT-0600 (Central Standard Time),743891.4000000954,A,ca,I,a,127,2,433.0,743458.4000000954,8068,WL,C,4.0
7,11.496000051498413,immed,48503.99994850159,Fri Dec 19 2025 15:57:11 GMT-0600 (Central Standard Time),744141.6000000238,A,cat,I,t,234,2,683.1999999284744,743458.4000000954,8068,WL,C,4.0
7,11.680000066757202,immed,48319.9999332428,Fri Dec 19 2025 15:57:11 GMT-0600 (Central Standard Time),744324.7000000477,A,catt,I,t,176,2,866.2999999523163,743458.4000000954,8068,WL,C,4.0
7,11.896000146865845,immed,48103.999853134155,Fri Dec 19 2025 15:57:11 GMT-0600 (Central Standard Time),744541.3000000715,A,cattl,I,l,209,2,1082.8999999761581,743458.4000000954,8068,WL,C,4.0
7,12.046000003814697,immed,47953.9999961853,Fri Dec 19 2025 15:57:11 GMT-0600 (Central Standard Time),744691.2000000477,A,cattle,I,e,144,2,1232.7999999523163,743458.4000000954,8068,WL,C,4.0
7,12.729000091552734,immed,47270.999908447266,Fri Dec 19 2025 15:57:11 GMT-0600 (Central Standard Time),745374.5,A,cattleenter,I,enter,674,2,1916.0999999046326,743458.4000000954,8068,WL,C,4.0
7,13.796000003814697,immed,46203.9999961853,Fri Dec 19 2025 15:57:11 GMT-0600 (Central Standard Time),746440.8000000715,A,w,I,w,1054,2,1066.0,745374.8000000715,8068,WL,C,5.0
7,13.996000051498413,immed,46003.99994850159,Fri Dec 19 2025 15:57:11 GMT-0600 (Central Standard Time),746640.6000000238,A,wh,I,h,188,2,1265.7999999523163,745374.8000000715,8068,WL,C,5.0
7,14.078999996185303,immed,45921.0000038147,Fri Dec 19 2025 15:57:11 GMT-0600 (Central Standard Time),746723.9000000954,A,whe,I,e,69,2,1349.1000000238419,745374.8000000715,8068,WL,C,5.0
7,14.212000131607056,immed,45787.999868392944,Fri Dec 19 2025 15:57:11 GMT-0600 (Central Standard Time),746857.2000000477,A,wher,I,r,113,2,1482.3999999761581,745374.8000000715,8068,WL,C,5.0
7,15.162000179290771,immed,44837.99982070923,Fri Dec 19 2025 15:57:11 GMT-0600 (Central Standard Time),747807.0,A,whe,I,backspace,940,2,2432.1999999284744,745374.8000000715,8068,WL,C,5.0
7,15.295000076293945,immed,44704.999923706055,Fri Dec 19 2025 15:57:11 GMT-0600 (Central Standard Time),747940.2000000477,A,whea,I,a,125,2,2565.399999976158,745374.8000000715,8068,WL,C,5.0
7,15.995000123977661,immed,44004.99987602234,Fri Dec 19 2025 15:57:11 GMT-0600 (Central Standard Time),748639.9000000954,A,wheat,I,t,680,2,3265.100000023842,745374.8000000715,8068,WL,C,5.0
7,16.4280002117157,immed,43571.9997882843,Fri Dec 19 2025 15:57:11 GMT-0600 (Central Standard Time),749073.1000000238,A,wheatenter,I,enter,422,2,3698.2999999523163,745374.8000000715,8068,WL,C,5.0
7,16.9280002117157,immed,43071.9997882843,Fri Dec 19 2025 15:57:11 GMT-0600 (Central Standard Time),749573.0,A,c,I,c,484,2,499.6999999284744,749073.3000000715,8068,WL,C,6.0
7,17.41100001335144,immed,42588.99998664856,Fri Dec 19 2025 15:57:11 GMT-0600 (Central Standard Time),750056.2000000477,A,co,I,o,473,2,982.8999999761581,749073.3000000715,8068,WL,C,6.0
7,17.57800006866455,immed,42421.99993133545,Fri Dec 19 2025 15:57:11 GMT-0600 (Central Standard Time),750222.9000000954,A,cor,I,r,156,2,1149.6000000238419,749073.3000000715,8068,WL,C,6.0
7,17.778000116348267,immed,42221.99988365173,Fri Dec 19 2025 15:57:11 GMT-0600 (Central Standard Time),750423.0,A,corn,I,n,190,2,1349.6999999284744,749073.3000000715,8068,WL,C,6.0
7,18.261000156402588,immed,41738.99984359741,Fri Dec 19 2025 15:57:11 GMT-0600 (Central Standard Time),750905.7000000477,A,cornenter,I,enter,463,2,1832.3999999761581,749073.3000000715,8068,WL,C,6.0
7,19.6780002117157,immed,40321.9997882843,Fri Dec 19 2025 15:57:11 GMT-0600 (Central Standard Time),752323.2000000477,A,l,I,l,1397,2,1417.2000000476837,750906.0,8068,WL,C,7.0
7,19.777000188827515,immed,40222.999811172485,Fri Dec 19 2025 15:57:11 GMT-0600 (Central Standard Time),752422.3000000715,A,le,I,e,82,2,1516.3000000715256,750906.0,8068,WL,C,7.0
7,20.027000188827515,immed,39972.999811172485,Fri Dec 19 2025 15:57:11 GMT-0600 (Central Standard Time),752672.1000000238,A,let,I,t,230,2,1766.1000000238419,750906.0,8068,WL,C,7.0
7,20.210000038146973,immed,39789.99996185303,Fri Dec 19 2025 15:57:11 GMT-0600 (Central Standard Time),752855.5,A,lett,I,t,166,2,1949.5,750906.0,8068,WL,C,7.0
7,20.360000133514404,immed,39639.999866485596,Fri Dec 19 2025 15:57:11 GMT-0600 (Central Standard Time),753005.4000000954,A,lette,I,e,141,2,2099.4000000953674,750906.0,8068,WL,C,7.0
7,20.47699999809265,immed,39523.00000190735,Fri Dec 19 2025 15:57:11 GMT-0600 (Central Standard Time),753122.0,A,letter,I,r,104,2,2216.0,750906.0,8068,WL,C,7.0
7,20.89400005340576,immed,39105.99994659424,Fri Dec 19 2025 15:57:11 GMT-0600 (Central Standard Time),753538.7000000477,A,letterenter,I,enter,404,2,2632.7000000476837,750906.0,8068,WL,C,7.0
7,21.260000228881836,immed,38739.999771118164,Fri Dec 19 2025 15:57:11 GMT-0600 (Central Standard Time),753905.0,A,f,I,f,346,2,366.0,753539.0,8068,WL,C,8.0
7,21.39300012588501,immed,38606.99987411499,Fri Dec 19 2025 15:57:11 GMT-0600 (Central Standard Time),754038.3000000715,A,fa,I,a,123,2,499.3000000715256,753539.0,8068,WL,C,8.0
7,21.66000008583069,immed,38339.99991416931,Fri Dec 19 2025 15:57:11 GMT-0600 (Central Standard Time),754304.9000000954,A,fal,I,l,246,2,765.9000000953674,753539.0,8068,WL,C,8.0
7,21.960000038146973,immed,38039.99996185303,Fri Dec 19 2025 15:57:11 GMT-0600 (Central Standard Time),754604.6000000238,A,falg,I,g,285,2,1065.6000000238419,753539.0,8068,WL,C,8.0
7,22.30900001525879,immed,37690.99998474121,Fri Dec 19 2025 15:57:11 GMT-0600 (Central Standard Time),754954.5,A,falgenter,I,enter,345,2,1415.5,753539.0,8068,WL,C,8.0
