acc_sum,block,block_c,change,condition,correct,correct_response,datetime,endtime,face,project,response,response_time,row_sel,session_number,start_end,starttime,subject_id,task,task_vers,trial
0,prac,1,,1-Back,,,Thu Sep 18 2025 20:04:38 GMT-0500 (Central Daylight Time),,012_o_f_d_a.png,O,space,11452,1,1,,,9999,VNB,C,0
1,prac,1,0.0,1-Back,1,m,Thu Sep 18 2025 20:04:38 GMT-0500 (Central Daylight Time),171455.19999998808,022_y_f_n_a.png,O,m,565,2,1,1444.5,170010.69999998808,9999,VNB,C,1
2,prac,1,0.0,1-Back,1,m,Thu Sep 18 2025 20:04:38 GMT-0500 (Central Daylight Time),172705.29999995232,014_m_m_h_a.png,O,m,388,3,1,1247.199999988079,171458.09999996424,9999,VNB,C,2
2,prac,1,0.0,1-Back,0,m,Thu Sep 18 2025 20:04:38 GMT-0500 (Central Daylight Time),173855.29999995232,025_y_m_d_a.png,O,z,294,4,1,1145.8999999761581,172709.39999997616,9999,VNB,C,3
3,prac,1,0.0,1-Back,1,m,Thu Sep 18 2025 20:04:38 GMT-0500 (Central Daylight Time),175222.59999996424,012_o_f_n_a.png,O,m,484,5,1,1363.5,173859.09999996424,9999,VNB,C,4
4,prac,1,1.0,1-Back,1,z,Thu Sep 18 2025 20:04:38 GMT-0500 (Central Daylight Time),176822.0,025_y_m_n_a.png,O,z,725,6,1,1596.6000000238419,175225.39999997616,9999,VNB,C,5
5,prac,1,0.0,1-Back,1,m,Thu Sep 18 2025 20:04:38 GMT-0500 (Central Daylight Time),178489.5,015_o_m_h_a.png,O,m,779,7,1,1664.6000000238419,176824.89999997616,9999,VNB,C,6
6,prac,1,0.0,1-Back,1,m,Thu Sep 18 2025 20:04:38 GMT-0500 (Central Daylight Time),179972.89999997616,019_m_f_d_a.png,O,m,566,8,1,1466.5,178506.39999997616,9999,VNB,C,7
7,prac,1,1.0,1-Back,1,z,Thu Sep 18 2025 20:04:38 GMT-0500 (Central Daylight Time),181422.89999997616,022_y_f_d_a.png,O,z,538,9,1,1435.800000011921,179987.09999996424,9999,VNB,C,8
8,prac,1,0.0,1-Back,1,m,Thu Sep 18 2025 20:04:38 GMT-0500 (Central Daylight Time),182723.0,014_m_m_n_a.png,O,m,414,10,1,1281.7000000476837,181441.29999995232,9999,VNB,C,9
9,prac,1,0.0,1-Back,1,m,Thu Sep 18 2025 20:04:38 GMT-0500 (Central Daylight Time),184189.79999995232,012_o_f_h_a.png,O,m,556,11,1,1446.2999999523163,182743.5,9999,VNB,C,10
10,prac,1,0.0,1-Back,1,m,Thu Sep 18 2025 20:04:38 GMT-0500 (Central Daylight Time),185721.69999998808,025_y_m_d_a.png,O,m,645,12,1,1516.199999988079,184205.5,9999,VNB,C,11
0,test,1,0.0,1-Back,,,Thu Sep 18 2025 20:04:38 GMT-0500 (Central Daylight Time),185721.69999998808,022_y_f_d_a.png,O,space,1266,1,1,1516.199999988079,184205.5,9999,VNB,C,0
0,test,1,0.0,1-Back,0,m,Thu Sep 18 2025 20:04:38 GMT-0500 (Central Daylight Time),194907.19999998808,019_m_f_n_a.png,O,None,2017,2,1,3032.900000035763,191874.29999995232,9999,VNB,C,1
0,test,1,0.0,1-Back,0,m,Thu Sep 18 2025 20:04:38 GMT-0500 (Central Daylight Time),197939.59999996424,015_o_m_h_a.png,O,None,2015,3,1,3019.899999976158,194919.69999998808,9999,VNB,C,2
0,test,1,1.0,1-Back,0,z,Thu Sep 18 2025 20:04:38 GMT-0500 (Central Daylight Time),200972.79999995232,014_m_m_h_a.png,O,None,2016,4,1,3020.399999976158,197952.39999997616,9999,VNB,C,3
0,test,1,0.0,1-Back,0,m,Thu Sep 18 2025 20:04:38 GMT-0500 (Central Daylight Time),204006.5,012_o_f_n_a.png,O,None,2016,5,1,3020.600000023842,200985.89999997616,9999,VNB,C,4
0,test,1,0.0,1-Back,0,m,Thu Sep 18 2025 20:04:38 GMT-0500 (Central Daylight Time),207039.89999997616,025_y_m_d_a.png,O,None,2016,6,1,3022.399999976158,204017.5,9999,VNB,C,5
0,test,1,1.0,1-Back,0,z,Thu Sep 18 2025 20:04:38 GMT-0500 (Central Daylight Time),210073.19999998808,019_m_f_d_a.png,O,None,2015,7,1,3017.900000035763,207055.29999995232,9999,VNB,C,6
0,test,1,0.0,1-Back,0,m,Thu Sep 18 2025 20:04:38 GMT-0500 (Central Daylight Time),213106.79999995232,022_y_f_h_a.png,O,None,2015,8,1,3021.399999976158,210085.39999997616,9999,VNB,C,7
0,test,1,0.0,1-Back,0,m,Thu Sep 18 2025 20:04:38 GMT-0500 (Central Daylight Time),216140.19999998808,015_o_m_n_a.png,O,None,2017,9,1,3021.5,213118.69999998808,9999,VNB,C,8
0,test,1,0.0,1-Back,0,m,Thu Sep 18 2025 20:04:38 GMT-0500 (Central Daylight Time),219173.59999996424,025_y_m_h_a.png,O,None,2016,10,1,3022.099999964237,216151.5,9999,VNB,C,9
0,test,1,0.0,1-Back,0,m,Thu Sep 18 2025 20:04:38 GMT-0500 (Central Daylight Time),222206.79999995232,015_o_m_d_a.png,O,None,2016,11,1,3022.099999964237,219184.69999998808,9999,VNB,C,10
0,test,1,1.0,1-Back,0,z,Thu Sep 18 2025 20:04:38 GMT-0500 (Central Daylight Time),225240.09999996424,012_o_f_d_a.png,O,None,2016,12,1,3025.5,222214.59999996424,9999,VNB,C,11
0,test,1,0.0,1-Back,0,m,Thu Sep 18 2025 20:04:38 GMT-0500 (Central Daylight Time),228273.69999998808,014_m_m_n_a.png,O,None,2016,13,1,3026.199999988079,225247.5,9999,VNB,C,12
0,test,1,1.0,1-Back,0,z,Thu Sep 18 2025 20:04:38 GMT-0500 (Central Daylight Time),231306.59999996424,022_y_f_n_a.png,O,None,2017,14,1,3025.399999976158,228281.19999998808,9999,VNB,C,13
0,test,1,0.0,1-Back,0,m,Thu Sep 18 2025 20:04:38 GMT-0500 (Central Daylight Time),234340.5,019_m_f_h_a.png,O,None,2016,15,1,3029.800000011921,231310.69999998808,9999,VNB,C,14
0,test,1,0.0,1-Back,0,m,Thu Sep 18 2025 20:04:38 GMT-0500 (Central Daylight Time),237373.69999998808,014_m_m_d_a.png,O,None,2016,16,1,3022.800000011921,234350.89999997616,9999,VNB,C,15
0,test,1,0.0,1-Back,0,m,Thu Sep 18 2025 20:04:38 GMT-0500 (Central Daylight Time),240407.09999996424,025_y_m_n_a.png,O,None,2017,17,1,3022.899999976158,237384.19999998808,9999,VNB,C,16
0,test,1,0.0,1-Back,0,m,Thu Sep 18 2025 20:04:38 GMT-0500 (Central Daylight Time),243440.19999998808,012_o_f_h_a.png,O,None,2015,18,1,3025.600000023842,240414.59999996424,9999,VNB,C,17
0,test,2,0.0,1-Back,,,Thu Sep 18 2025 20:04:38 GMT-0500 (Central Daylight Time),243440.19999998808,025_y_m_n_a.png,O,space,5718,1,1,3025.600000023842,240414.59999996424,9999,VNB,C,0
0,test,2,0.0,1-Back,0,m,Thu Sep 18 2025 20:04:38 GMT-0500 (Central Daylight Time),254224.0,022_y_f_h_a.png,O,None,2016,2,1,3021.100000023842,251202.89999997616,9999,VNB,C,1
0,test,2,1.0,1-Back,0,m,Thu Sep 18 2025 20:04:38 GMT-0500 (Central Daylight Time),257257.69999998808,015_o_m_n_a.png,O,None,2016,3,1,3023.600000023842,254234.09999996424,9999,VNB,C,2
0,test,2,0.0,1-Back,0,m,Thu Sep 18 2025 20:04:38 GMT-0500 (Central Daylight Time),260291.09999996424,019_m_f_d_a.png,O,None,2017,4,1,3021.199999988079,257269.89999997616,9999,VNB,C,3
0,test,2,0.0,1-Back,0,z,Thu Sep 18 2025 20:04:38 GMT-0500 (Central Daylight Time),263324.5,014_m_m_d_a.png,O,None,2015,5,1,3022.2000000476837,260302.29999995232,9999,VNB,C,4
0,test,2,0.0,1-Back,0,m,Thu Sep 18 2025 20:04:38 GMT-0500 (Central Daylight Time),266357.7999999523,025_y_m_h_a.png,O,None,2016,6,1,3024.099999964237,263333.6999999881,9999,VNB,C,5
0,test,2,1.0,1-Back,0,z,Thu Sep 18 2025 20:04:38 GMT-0500 (Central Daylight Time),269392.0,012_o_f_h_a.png,O,None,2017,7,1,3022.300000011921,266369.6999999881,9999,VNB,C,6
0,test,2,0.0,1-Back,0,m,Thu Sep 18 2025 20:04:38 GMT-0500 (Central Daylight Time),272424.59999996424,019_m_f_n_a.png,O,None,2016,8,1,3019.399999976158,269405.1999999881,9999,VNB,C,7
0,test,2,0.0,1-Back,0,m,Thu Sep 18 2025 20:04:38 GMT-0500 (Central Daylight Time),275458.1999999881,022_y_f_d_a.png,O,None,2017,9,1,3021.0,272437.1999999881,9999,VNB,C,8
0,test,2,0.0,1-Back,0,m,Thu Sep 18 2025 20:04:38 GMT-0500 (Central Daylight Time),278491.59999996424,014_m_m_n_a.png,O,None,2016,10,1,3021.300000011921,275470.2999999523,9999,VNB,C,9
0,test,2,1.0,1-Back,0,m,Thu Sep 18 2025 20:04:38 GMT-0500 (Central Daylight Time),281524.6999999881,019_m_f_h_a.png,O,None,2015,11,1,3020.5,278504.1999999881,9999,VNB,C,10
0,test,2,0.0,1-Back,0,z,Thu Sep 18 2025 20:04:38 GMT-0500 (Central Daylight Time),284558.39999997616,015_o_m_h_a.png,O,None,2016,12,1,3022.0,281536.39999997616,9999,VNB,C,11
0,test,2,0.0,1-Back,0,m,Thu Sep 18 2025 20:04:38 GMT-0500 (Central Daylight Time),287591.6999999881,025_y_m_d_a.png,O,None,2016,13,1,3020.300000011921,284571.39999997616,9999,VNB,C,12
0,test,2,0.0,1-Back,0,m,Thu Sep 18 2025 20:04:38 GMT-0500 (Central Daylight Time),290624.6999999881,012_o_f_n_a.png,O,None,2016,14,1,3020.300000011921,287604.39999997616,9999,VNB,C,13
0,test,2,0.0,1-Back,0,z,Thu Sep 18 2025 20:04:38 GMT-0500 (Central Daylight Time),293658.1999999881,022_y_f_n_a.png,O,None,2016,15,1,3024.300000011921,290633.89999997616,9999,VNB,C,14
0,test,2,1.0,1-Back,0,m,Thu Sep 18 2025 20:04:38 GMT-0500 (Central Daylight Time),296692.2999999523,014_m_m_h_a.png,O,None,2016,16,1,3022.7999999523163,293669.5,9999,VNB,C,15
0,test,2,0.0,1-Back,0,m,Thu Sep 18 2025 20:04:38 GMT-0500 (Central Daylight Time),299724.89999997616,012_o_f_d_a.png,O,None,2016,17,1,3020.800000011921,296704.09999996424,9999,VNB,C,16
0,test,2,1.0,1-Back,0,z,Thu Sep 18 2025 20:04:38 GMT-0500 (Central Daylight Time),302758.2999999523,015_o_m_d_a.png,O,None,2016,18,1,3020.5,299737.7999999523,9999,VNB,C,17
0,test,3,1.0,1-Back,,,Thu Sep 18 2025 20:04:38 GMT-0500 (Central Daylight Time),302758.2999999523,012_o_f_h_a.png,O,space,7099,1,1,3020.5,299737.7999999523,9999,VNB,C,0
0,test,3,0.0,1-Back,0,m,Thu Sep 18 2025 20:04:38 GMT-0500 (Central Daylight Time),315043.0,019_m_f_d_a.png,O,None,2017,2,1,3035.7000000476837,312007.2999999523,9999,VNB,C,1
0,test,3,1.0,1-Back,0,m,Thu Sep 18 2025 20:04:38 GMT-0500 (Central Daylight Time),318075.2999999523,014_m_m_n_a.png,O,None,2016,3,1,3019.199999988079,315056.09999996424,9999,VNB,C,2
0,test,3,0.0,1-Back,0,z,Thu Sep 18 2025 20:04:38 GMT-0500 (Central Daylight Time),321109.09999996424,012_o_f_n_a.png,O,None,2017,4,1,3023.300000011921,318085.7999999523,9999,VNB,C,3
0,test,3,1.0,1-Back,0,m,Thu Sep 18 2025 20:04:38 GMT-0500 (Central Daylight Time),324142.2999999523,015_o_m_d_a.png,O,None,2015,5,1,3019.2999999523163,321123.0,9999,VNB,C,4
0,test,3,0.0,1-Back,0,m,Thu Sep 18 2025 20:04:38 GMT-0500 (Central Daylight Time),327175.7999999523,022_y_f_h_a.png,O,None,2015,6,1,3020.5,324155.2999999523,9999,VNB,C,5
0,test,3,0.0,1-Back,0,z,Thu Sep 18 2025 20:04:38 GMT-0500 (Central Daylight Time),330208.89999997616,025_y_m_h_a.png,O,None,2017,7,1,3020.600000023842,327188.2999999523,9999,VNB,C,6
0,test,3,0.0,1-Back,0,m,Thu Sep 18 2025 20:04:38 GMT-0500 (Central Daylight Time),333242.39999997616,019_m_f_n_a.png,O,None,2016,8,1,3027.600000023842,330214.7999999523,9999,VNB,C,7
0,test,3,0.0,1-Back,0,m,Thu Sep 18 2025 20:04:38 GMT-0500 (Central Daylight Time),336276.6999999881,022_y_f_d_a.png,O,None,2001,9,1,3017.699999988079,333259.0,9999,VNB,C,8
0,test,3,1.0,1-Back,0,m,Thu Sep 18 2025 20:04:38 GMT-0500 (Central Daylight Time),339293.5,015_o_m_n_a.png,O,None,2001,10,1,3005.900000035763,336287.59999996424,9999,VNB,C,9
0,test,3,0.0,1-Back,0,m,Thu Sep 18 2025 20:04:38 GMT-0500 (Central Daylight Time),342325.89999997616,014_m_m_h_a.png,O,None,2017,11,1,3018.199999988079,339307.6999999881,9999,VNB,C,10
0,test,3,0.0,1-Back,0,z,Thu Sep 18 2025 20:04:38 GMT-0500 (Central Daylight Time),345359.39999997616,019_m_f_h_a.png,O,None,2016,12,1,3021.899999976158,342337.5,9999,VNB,C,11
0,test,3,1.0,1-Back,0,m,Thu Sep 18 2025 20:04:38 GMT-0500 (Central Daylight Time),348393.6999999881,012_o_f_d_a.png,O,None,2016,13,1,3021.600000023842,345372.09999996424,9999,VNB,C,12
0,test,3,0.0,1-Back,0,z,Thu Sep 18 2025 20:04:38 GMT-0500 (Central Daylight Time),351425.89999997616,014_m_m_d_a.png,O,None,2016,14,1,3018.800000011921,348407.09999996424,9999,VNB,C,13
0,test,3,0.0,1-Back,0,m,Thu Sep 18 2025 20:04:38 GMT-0500 (Central Daylight Time),354459.6999999881,025_y_m_n_a.png,O,None,2016,15,1,3026.100000023842,351433.59999996424,9999,VNB,C,14
0,test,3,1.0,1-Back,0,m,Thu Sep 18 2025 20:04:38 GMT-0500 (Central Daylight Time),357493.0,015_o_m_h_a.png,O,None,2017,16,1,3020.900000035763,354472.09999996424,9999,VNB,C,15
0,test,3,0.0,1-Back,0,m,Thu Sep 18 2025 20:04:38 GMT-0500 (Central Daylight Time),360526.1999999881,025_y_m_d_a.png,O,None,2016,17,1,3024.699999988079,357501.5,9999,VNB,C,16
0,test,3,1.0,1-Back,0,m,Thu Sep 18 2025 20:04:38 GMT-0500 (Central Daylight Time),363559.7999999523,022_y_f_n_a.png,O,None,2015,18,1,3022.7999999523163,360537.0,9999,VNB,C,17
0,test,4,1.0,1-Back,,,Thu Sep 18 2025 20:04:38 GMT-0500 (Central Daylight Time),363559.7999999523,014_m_m_d_a.png,O,space,9296,1,1,3022.7999999523163,360537.0,9999,VNB,C,0
0,test,4,0.0,1-Back,0,z,Thu Sep 18 2025 20:04:38 GMT-0500 (Central Daylight Time),378010.09999996424,015_o_m_d_a.png,O,None,2016,2,1,3023.0,374987.09999996424,9999,VNB,C,1
0,test,4,0.0,1-Back,0,m,Thu Sep 18 2025 20:04:38 GMT-0500 (Central Daylight Time),381027.7999999523,025_y_m_h_a.png,O,None,2001,3,1,3004.7999999523163,378023.0,9999,VNB,C,2
0,test,4,0.0,1-Back,0,m,Thu Sep 18 2025 20:04:38 GMT-0500 (Central Daylight Time),384060.1999999881,019_m_f_n_a.png,O,None,2016,4,1,3019.400000035763,381040.7999999523,9999,VNB,C,3
0,test,4,1.0,1-Back,0,m,Thu Sep 18 2025 20:04:38 GMT-0500 (Central Daylight Time),387093.6999999881,012_o_f_h_a.png,O,None,2016,5,1,3018.0,384075.6999999881,9999,VNB,C,4
0,test,4,0.0,1-Back,0,m,Thu Sep 18 2025 20:04:38 GMT-0500 (Central Daylight Time),390126.6999999881,014_m_m_n_a.png,O,None,2017,6,1,3023.900000035763,387102.7999999523,9999,VNB,C,5
0,test,4,0.0,1-Back,0,m,Thu Sep 18 2025 20:04:38 GMT-0500 (Central Daylight Time),393160.5,025_y_m_d_a.png,O,None,2016,7,1,3026.7000000476837,390133.7999999523,9999,VNB,C,6
0,test,4,1.0,1-Back,0,z,Thu Sep 18 2025 20:04:38 GMT-0500 (Central Daylight Time),396193.89999997616,022_y_f_d_a.png,O,None,2017,8,1,3019.800000011921,393174.09999996424,9999,VNB,C,7
0,test,4,0.0,1-Back,0,m,Thu Sep 18 2025 20:04:38 GMT-0500 (Central Daylight Time),399227.09999996424,019_m_f_h_a.png,O,None,2016,9,1,3018.800000011921,396208.2999999523,9999,VNB,C,8
0,test,4,0.0,1-Back,0,z,Thu Sep 18 2025 20:04:38 GMT-0500 (Central Daylight Time),402260.59999996424,015_o_m_h_a.png,O,None,2015,10,1,3021.800000011921,399238.7999999523,9999,VNB,C,9
0,test,4,1.0,1-Back,0,m,Thu Sep 18 2025 20:04:38 GMT-0500 (Central Daylight Time),405294.0,012_o_f_n_a.png,O,None,2017,11,1,3019.400000035763,402274.59999996424,9999,VNB,C,10
0,test,4,0.0,1-Back,0,m,Thu Sep 18 2025 20:04:38 GMT-0500 (Central Daylight Time),408327.39999997616,019_m_f_d_a.png,O,None,2016,12,1,3024.399999976158,405303.0,9999,VNB,C,11
0,test,4,0.0,1-Back,0,m,Thu Sep 18 2025 20:04:38 GMT-0500 (Central Daylight Time),411361.7999999523,022_y_f_n_a.png,O,None,2017,13,1,3019.599999964237,408342.1999999881,9999,VNB,C,12
0,test,4,0.0,1-Back,0,m,Thu Sep 18 2025 20:04:38 GMT-0500 (Central Daylight Time),414394.2999999523,012_o_f_d_a.png,O,None,2016,14,1,3018.399999976158,411375.89999997616,9999,VNB,C,13
0,test,4,0.0,1-Back,0,m,Thu Sep 18 2025 20:04:38 GMT-0500 (Central Daylight Time),417427.59999996424,022_y_f_h_a.png,O,None,2016,15,1,3019.099999964237,414408.5,9999,VNB,C,14
0,test,4,1.0,1-Back,0,z,Thu Sep 18 2025 20:04:38 GMT-0500 (Central Daylight Time),420460.89999997616,014_m_m_h_a.png,O,None,2017,16,1,3023.0,417437.89999997616,9999,VNB,C,15
0,test,4,0.0,1-Back,0,m,Thu Sep 18 2025 20:04:38 GMT-0500 (Central Daylight Time),423494.5,015_o_m_n_a.png,O,None,2016,17,1,3019.900000035763,420474.59999996424,9999,VNB,C,16
0,test,4,1.0,1-Back,0,z,Thu Sep 18 2025 20:04:38 GMT-0500 (Central Daylight Time),426544.5,025_y_m_n_a.png,O,None,2016,18,1,3017.7000000476837,423526.7999999523,9999,VNB,C,17
0,test,5,1.0,1-Back,,,Thu Sep 18 2025 20:04:38 GMT-0500 (Central Daylight Time),426544.5,015_o_m_n_a.png,O,space,3218,1,1,3017.7000000476837,423526.7999999523,9999,VNB,C,0
0,test,5,1.0,1-Back,0,m,Thu Sep 18 2025 20:04:38 GMT-0500 (Central Daylight Time),434945.0,012_o_f_h_a.png,O,None,2016,2,1,3019.100000023842,431925.89999997616,9999,VNB,C,1
0,test,5,0.0,1-Back,0,m,Thu Sep 18 2025 20:04:38 GMT-0500 (Central Daylight Time),437979.0,025_y_m_d_a.png,O,None,2017,3,1,3019.0,434960.0,9999,VNB,C,2
0,test,5,0.0,1-Back,0,z,Thu Sep 18 2025 20:04:38 GMT-0500 (Central Daylight Time),441011.1999999881,015_o_m_d_a.png,O,None,2016,4,1,3018.600000023842,437992.59999996424,9999,VNB,C,3
0,test,5,0.0,1-Back,0,m,Thu Sep 18 2025 20:04:38 GMT-0500 (Central Daylight Time),444045.0,019_m_f_h_a.png,O,None,2017,5,1,3024.2000000476837,441020.7999999523,9999,VNB,C,4
0,test,5,0.0,1-Back,0,m,Thu Sep 18 2025 20:04:38 GMT-0500 (Central Daylight Time),447078.39999997616,022_y_f_n_a.png,O,None,2016,6,1,3022.399999976158,444056.0,9999,VNB,C,5
0,test,5,1.0,1-Back,0,z,Thu Sep 18 2025 20:04:38 GMT-0500 (Central Daylight Time),450111.6999999881,012_o_f_n_a.png,O,None,2016,7,1,3018.600000023842,447093.09999996424,9999,VNB,C,6
0,test,5,0.0,1-Back,0,m,Thu Sep 18 2025 20:04:38 GMT-0500 (Central Daylight Time),453145.09999996424,019_m_f_d_a.png,O,None,2017,8,1,3020.800000011921,450124.2999999523,9999,VNB,C,7
0,test,5,0.0,1-Back,0,m,Thu Sep 18 2025 20:04:38 GMT-0500 (Central Daylight Time),456178.59999996424,025_y_m_h_a.png,O,None,2015,9,1,3021.599999964237,453157.0,9999,VNB,C,8
0,test,5,0.0,1-Back,0,m,Thu Sep 18 2025 20:04:38 GMT-0500 (Central Daylight Time),459211.89999997616,022_y_f_d_a.png,O,None,2017,10,1,3019.899999976158,456192.0,9999,VNB,C,9
0,test,5,0.0,1-Back,0,m,Thu Sep 18 2025 20:04:38 GMT-0500 (Central Daylight Time),462245.39999997616,014_m_m_n_a.png,O,None,2016,11,1,3021.100000023842,459224.2999999523,9999,VNB,C,10
0,test,5,1.0,1-Back,0,z,Thu Sep 18 2025 20:04:38 GMT-0500 (Central Daylight Time),465278.6999999881,019_m_f_n_a.png,O,None,2016,12,1,3020.800000011921,462257.89999997616,9999,VNB,C,11
0,test,5,0.0,1-Back,0,m,Thu Sep 18 2025 20:04:38 GMT-0500 (Central Daylight Time),468312.09999996424,015_o_m_h_a.png,O,None,2016,13,1,3021.800000011921,465290.2999999523,9999,VNB,C,12
0,test,5,0.0,1-Back,0,z,Thu Sep 18 2025 20:04:38 GMT-0500 (Central Daylight Time),471345.39999997616,014_m_m_h_a.png,O,None,2015,14,1,3019.0,468326.39999997616,9999,VNB,C,13
0,test,5,1.0,1-Back,0,m,Thu Sep 18 2025 20:04:38 GMT-0500 (Central Daylight Time),474378.7999999523,012_o_f_d_a.png,O,None,2017,15,1,3022.7999999523163,471356.0,9999,VNB,C,14
0,test,5,0.0,1-Back,0,m,Thu Sep 18 2025 20:04:38 GMT-0500 (Central Daylight Time),477412.2999999523,025_y_m_n_a.png,O,None,2015,16,1,3022.599999964237,474389.6999999881,9999,VNB,C,15
0,test,5,0.0,1-Back,0,m,Thu Sep 18 2025 20:04:38 GMT-0500 (Central Daylight Time),480445.7999999523,022_y_f_h_a.png,O,None,2015,17,1,3022.099999964237,477423.6999999881,9999,VNB,C,16
0,test,5,0.0,1-Back,0,m,Thu Sep 18 2025 20:04:38 GMT-0500 (Central Daylight Time),483479.09999996424,014_m_m_d_a.png,O,None,2017,18,1,3020.5,480458.59999996424,9999,VNB,C,17
0,prac,1,0.0,2-Back,,,Thu Sep 18 2025 20:04:38 GMT-0500 (Central Daylight Time),483479.09999996424,019_m_f_n_a.png,O,space,639,1,1,3020.5,480458.59999996424,9999,VNB,C,0
0,prac,1,0.0,2-Back,,,Thu Sep 18 2025 20:04:38 GMT-0500 (Central Daylight Time),483479.09999996424,012_o_f_h_a.png,O,space,639,2,1,3020.5,480458.59999996424,9999,VNB,C,0
1,prac,1,0.0,2-Back,1,m,Thu Sep 18 2025 20:04:38 GMT-0500 (Central Daylight Time),541130.5999999642,015_o_m_d_a.png,O,m,822,3,1,1717.8999999761581,539412.6999999881,9999,VNB,C,1
2,prac,1,1.0,2-Back,1,z,Thu Sep 18 2025 20:04:38 GMT-0500 (Central Daylight Time),542430.1999999881,014_m_m_h_a.png,O,z,398,4,1,1286.5,541143.6999999881,9999,VNB,C,2
3,prac,1,0.0,2-Back,1,m,Thu Sep 18 2025 20:04:38 GMT-0500 (Central Daylight Time),543647.0999999642,022_y_f_n_a.png,O,m,313,5,1,1201.199999988079,542445.8999999762,9999,VNB,C,3
4,prac,1,1.0,2-Back,1,z,Thu Sep 18 2025 20:04:38 GMT-0500 (Central Daylight Time),544813.6999999881,015_o_m_h_a.png,O,z,259,6,1,1151.800000011921,543661.8999999762,9999,VNB,C,4
5,prac,1,1.0,2-Back,1,z,Thu Sep 18 2025 20:04:38 GMT-0500 (Central Daylight Time),546031.3999999762,025_y_m_n_a.png,O,z,321,7,1,1202.800000011921,544828.5999999642,9999,VNB,C,5
6,prac,1,0.0,2-Back,1,m,Thu Sep 18 2025 20:04:38 GMT-0500 (Central Daylight Time),547230.5999999642,019_m_f_d_a.png,O,m,279,8,1,1181.699999988079,546048.8999999762,9999,VNB,C,6
7,prac,1,0.0,2-Back,1,m,Thu Sep 18 2025 20:04:38 GMT-0500 (Central Daylight Time),548530.5999999642,012_o_f_d_a.png,O,m,402,9,1,1285.5999999642372,547245.0,9999,VNB,C,7
7,prac,1,0.0,2-Back,0,m,Thu Sep 18 2025 20:04:38 GMT-0500 (Central Daylight Time),549847.0999999642,014_m_m_h_a.png,O,z,420,10,1,1301.0,548546.0999999642,9999,VNB,C,8
8,prac,1,1.0,2-Back,1,z,Thu Sep 18 2025 20:04:38 GMT-0500 (Central Daylight Time),551197.3999999762,022_y_f_d_a.png,O,z,440,11,1,1335.699999988079,549861.6999999881,9999,VNB,C,9
9,prac,1,0.0,2-Back,1,m,Thu Sep 18 2025 20:04:38 GMT-0500 (Central Daylight Time),552381.5999999642,015_o_m_n_a.png,O,m,282,12,1,1168.5999999642372,551213.0,9999,VNB,C,10
0,test,1,0.0,2-Back,,,Thu Sep 18 2025 20:04:38 GMT-0500 (Central Daylight Time),552381.5999999642,025_y_m_h_a.png,O,space,470,1,1,1168.5999999642372,551213.0,9999,VNB,C,0
0,test,1,0.0,2-Back,,,Thu Sep 18 2025 20:04:38 GMT-0500 (Central Daylight Time),552381.5999999642,012_o_f_n_a.png,O,space,470,2,1,1168.5999999642372,551213.0,9999,VNB,C,0
0,test,1,0.0,2-Back,0,z,Thu Sep 18 2025 20:04:38 GMT-0500 (Central Daylight Time),563264.6999999881,015_o_m_h_a.png,O,None,2016,3,1,3020.300000011921,560244.3999999762,9999,VNB,C,1
0,test,1,0.0,2-Back,0,m,Thu Sep 18 2025 20:04:38 GMT-0500 (Central Daylight Time),566315.0,019_m_f_d_a.png,O,None,2017,4,1,3034.2000000476837,563280.7999999523,9999,VNB,C,2
0,test,1,1.0,2-Back,0,m,Thu Sep 18 2025 20:04:38 GMT-0500 (Central Daylight Time),569364.3999999762,025_y_m_n_a.png,O,None,2016,5,1,3034.800000011921,566329.5999999642,9999,VNB,C,3
0,test,1,0.0,2-Back,0,z,Thu Sep 18 2025 20:04:38 GMT-0500 (Central Daylight Time),572398.0,022_y_f_d_a.png,O,None,2017,6,1,3021.5,569376.5,9999,VNB,C,4
0,test,1,0.0,2-Back,0,m,Thu Sep 18 2025 20:04:38 GMT-0500 (Central Daylight Time),575431.1999999881,014_m_m_h_a.png,O,None,2016,7,1,3019.800000011921,572411.3999999762,9999,VNB,C,5
0,test,1,1.0,2-Back,0,m,Thu Sep 18 2025 20:04:38 GMT-0500 (Central Daylight Time),578464.3999999762,022_y_f_n_a.png,O,None,2016,8,1,3021.199999988079,575443.1999999881,9999,VNB,C,6
0,test,1,0.0,2-Back,0,z,Thu Sep 18 2025 20:04:38 GMT-0500 (Central Daylight Time),581497.6999999881,012_o_f_h_a.png,O,None,2017,9,1,3020.300000011921,578477.3999999762,9999,VNB,C,7
0,test,1,0.0,2-Back,0,m,Thu Sep 18 2025 20:04:38 GMT-0500 (Central Daylight Time),584531.2999999523,015_o_m_d_a.png,O,None,2016,10,1,3024.7999999523163,581506.5,9999,VNB,C,8
0,test,1,1.0,2-Back,0,m,Thu Sep 18 2025 20:04:38 GMT-0500 (Central Daylight Time),587564.6999999881,014_m_m_d_a.png,O,None,2016,11,1,3019.800000011921,584544.8999999762,9999,VNB,C,9
0,test,1,0.0,2-Back,0,m,Thu Sep 18 2025 20:04:38 GMT-0500 (Central Daylight Time),590615.5999999642,019_m_f_n_a.png,O,None,2017,12,1,3034.599999964237,587581.0,9999,VNB,C,10
0,test,1,0.0,2-Back,0,m,Thu Sep 18 2025 20:04:38 GMT-0500 (Central Daylight Time),593648.1999999881,022_y_f_h_a.png,O,None,2016,13,1,3019.900000035763,590628.2999999523,9999,VNB,C,11
0,test,1,0.0,2-Back,0,z,Thu Sep 18 2025 20:04:38 GMT-0500 (Central Daylight Time),596681.2999999523,014_m_m_n_a.png,O,None,2016,14,1,3019.399999976158,593661.8999999762,9999,VNB,C,12
0,test,1,0.0,2-Back,0,m,Thu Sep 18 2025 20:04:38 GMT-0500 (Central Daylight Time),599714.8999999762,025_y_m_d_a.png,O,None,2017,15,1,3026.300000011921,596688.5999999642,9999,VNB,C,13
0,test,1,1.0,2-Back,0,m,Thu Sep 18 2025 20:04:38 GMT-0500 (Central Daylight Time),602765.0999999642,019_m_f_h_a.png,O,None,2016,16,1,3034.699999988079,599730.3999999762,9999,VNB,C,14
0,test,1,0.0,2-Back,0,z,Thu Sep 18 2025 20:04:38 GMT-0500 (Central Daylight Time),605798.5,012_o_f_d_a.png,O,None,2016,17,1,3020.900000035763,602777.5999999642,9999,VNB,C,15
0,test,1,0.0,2-Back,0,m,Thu Sep 18 2025 20:04:38 GMT-0500 (Central Daylight Time),608831.5,015_o_m_n_a.png,O,None,2015,18,1,3017.800000011921,605813.6999999881,9999,VNB,C,16
0,test,2,0.0,2-Back,,,Thu Sep 18 2025 20:04:38 GMT-0500 (Central Daylight Time),608831.5,014_m_m_h_a.png,O,space,45322,1,1,3017.800000011921,605813.6999999881,9999,VNB,C,0
0,test,2,0.0,2-Back,,,Thu Sep 18 2025 20:04:38 GMT-0500 (Central Daylight Time),608831.5,022_y_f_n_a.png,O,space,45322,2,1,3017.800000011921,605813.6999999881,9999,VNB,C,0
0,test,2,1.0,2-Back,0,z,Thu Sep 18 2025 20:04:38 GMT-0500 (Central Daylight Time),662466.3999999762,012_o_f_h_a.png,O,None,2016,3,1,3019.899999976158,659446.5,9999,VNB,C,1
0,test,2,0.0,2-Back,0,m,Thu Sep 18 2025 20:04:38 GMT-0500 (Central Daylight Time),665499.6999999881,015_o_m_d_a.png,O,None,2016,4,1,3019.100000023842,662480.5999999642,9999,VNB,C,2
0,test,2,0.0,2-Back,0,m,Thu Sep 18 2025 20:04:38 GMT-0500 (Central Daylight Time),668533.1999999881,019_m_f_d_a.png,O,None,2017,5,1,3019.199999988079,665514.0,9999,VNB,C,3
0,test,2,0.0,2-Back,0,m,Thu Sep 18 2025 20:04:38 GMT-0500 (Central Daylight Time),671566.5999999642,025_y_m_h_a.png,O,None,2015,6,1,3019.199999988079,668547.3999999762,9999,VNB,C,4
0,test,2,0.0,2-Back,0,m,Thu Sep 18 2025 20:04:38 GMT-0500 (Central Daylight Time),674600.0,012_o_f_n_a.png,O,None,2016,7,1,3019.600000023842,671580.3999999762,9999,VNB,C,5
0,test,2,1.0,2-Back,0,z,Thu Sep 18 2025 20:04:38 GMT-0500 (Central Daylight Time),677633.5,015_o_m_h_a.png,O,None,2016,8,1,3023.900000035763,674609.5999999642,9999,VNB,C,6
0,test,2,0.0,2-Back,0,m,Thu Sep 18 2025 20:04:38 GMT-0500 (Central Daylight Time),680666.5,022_y_f_d_a.png,O,None,2016,9,1,3019.100000023842,677647.3999999762,9999,VNB,C,7
0,test,2,0.0,2-Back,0,m,Thu Sep 18 2025 20:04:38 GMT-0500 (Central Daylight Time),683700.1999999881,025_y_m_d_a.png,O,None,2016,10,1,3024.600000023842,680675.5999999642,9999,VNB,C,8
0,test,2,0.0,2-Back,0,m,Thu Sep 18 2025 20:04:38 GMT-0500 (Central Daylight Time),686733.5,014_m_m_n_a.png,O,None,2016,11,1,3019.600000023842,683713.8999999762,9999,VNB,C,9
0,test,2,0.0,2-Back,0,m,Thu Sep 18 2025 20:04:38 GMT-0500 (Central Daylight Time),689767.0,019_m_f_h_a.png,O,None,2017,12,1,3026.800000011921,686740.1999999881,9999,VNB,C,10
0,test,2,1.0,2-Back,0,z,Thu Sep 18 2025 20:04:38 GMT-0500 (Central Daylight Time),692800.2999999523,015_o_m_n_a.png,O,None,2016,13,1,3020.199999988079,689780.0999999642,9999,VNB,C,11
0,test,2,0.0,2-Back,0,m,Thu Sep 18 2025 20:04:38 GMT-0500 (Central Daylight Time),695833.6999999881,012_o_f_d_a.png,O,None,2016,14,1,3018.5,692815.1999999881,9999,VNB,C,12
0,test,2,0.0,2-Back,0,m,Thu Sep 18 2025 20:04:38 GMT-0500 (Central Daylight Time),698867.0999999642,022_y_f_h_a.png,O,None,2017,15,1,3021.899999976158,695845.1999999881,9999,VNB,C,13
0,test,2,0.0,2-Back,0,z,Thu Sep 18 2025 20:04:38 GMT-0500 (Central Daylight Time),701900.3999999762,014_m_m_d_a.png,O,None,2016,16,1,3019.199999988079,698881.1999999881,9999,VNB,C,14
0,test,2,0.0,2-Back,0,m,Thu Sep 18 2025 20:04:38 GMT-0500 (Central Daylight Time),704933.8999999762,025_y_m_n_a.png,O,None,2017,17,1,3025.699999988079,701908.1999999881,9999,VNB,C,15
0,test,2,1.0,2-Back,0,m,Thu Sep 18 2025 20:04:38 GMT-0500 (Central Daylight Time),707968.1999999881,019_m_f_n_a.png,O,None,2017,18,1,3022.199999988079,704946.0,9999,VNB,C,16
0,test,3,1.0,2-Back,,,Thu Sep 18 2025 20:04:38 GMT-0500 (Central Daylight Time),707968.1999999881,015_o_m_n_a.png,O,space,6191,1,1,3022.199999988079,704946.0,9999,VNB,C,0
0,test,3,1.0,2-Back,,,Thu Sep 18 2025 20:04:38 GMT-0500 (Central Daylight Time),707968.1999999881,012_o_f_d_a.png,O,space,6191,2,1,3022.199999988079,704946.0,9999,VNB,C,0
0,test,3,0.0,2-Back,0,m,Thu Sep 18 2025 20:04:38 GMT-0500 (Central Daylight Time),722484.1999999881,022_y_f_h_a.png,O,None,2016,3,1,3020.699999988079,719463.5,9999,VNB,C,1
0,test,3,0.0,2-Back,0,z,Thu Sep 18 2025 20:04:38 GMT-0500 (Central Daylight Time),725517.6999999881,019_m_f_d_a.png,O,None,2015,4,1,3021.300000011921,722496.3999999762,9999,VNB,C,2
0,test,3,1.0,2-Back,0,m,Thu Sep 18 2025 20:04:38 GMT-0500 (Central Daylight Time),728551.0999999642,025_y_m_n_a.png,O,None,2017,5,1,3023.099999964237,725528.0,9999,VNB,C,3
0,test,3,0.0,2-Back,0,m,Thu Sep 18 2025 20:04:38 GMT-0500 (Central Daylight Time),731584.3999999762,015_o_m_h_a.png,O,None,2016,6,1,3024.0,728560.3999999762,9999,VNB,C,4
0,test,3,0.0,2-Back,0,z,Thu Sep 18 2025 20:04:38 GMT-0500 (Central Daylight Time),734618.8999999762,022_y_f_n_a.png,O,None,2018,7,1,3025.699999988079,731593.1999999881,9999,VNB,C,5
0,test,3,1.0,2-Back,0,m,Thu Sep 18 2025 20:04:38 GMT-0500 (Central Daylight Time),737651.2999999523,014_m_m_d_a.png,O,None,2016,8,1,3023.5,734627.7999999523,9999,VNB,C,6
0,test,3,0.0,2-Back,0,m,Thu Sep 18 2025 20:04:38 GMT-0500 (Central Daylight Time),740701.2999999523,025_y_m_d_a.png,O,None,2015,9,1,3033.599999964237,737667.6999999881,9999,VNB,C,7
0,test,3,0.0,2-Back,0,m,Thu Sep 18 2025 20:04:38 GMT-0500 (Central Daylight Time),743734.7999999523,012_o_f_h_a.png,O,None,2017,10,1,3022.0,740712.7999999523,9999,VNB,C,8
0,test,3,1.0,2-Back,0,m,Thu Sep 18 2025 20:04:38 GMT-0500 (Central Daylight Time),746768.0999999642,019_m_f_n_a.png,O,None,2016,11,1,3018.699999988079,743749.3999999762,9999,VNB,C,9
0,test,3,1.0,2-Back,0,z,Thu Sep 18 2025 20:04:38 GMT-0500 (Central Daylight Time),749801.5999999642,014_m_m_h_a.png,O,None,2016,12,1,3027.099999964237,746774.5,9999,VNB,C,10
0,test,3,0.0,2-Back,0,m,Thu Sep 18 2025 20:04:38 GMT-0500 (Central Daylight Time),752819.1999999881,022_y_f_d_a.png,O,None,2001,13,1,3002.100000023842,749817.0999999642,9999,VNB,C,11
0,test,3,0.0,2-Back,0,m,Thu Sep 18 2025 20:04:38 GMT-0500 (Central Daylight Time),755851.5999999642,012_o_f_n_a.png,O,None,2015,14,1,3017.699999988079,752833.8999999762,9999,VNB,C,12
0,test,3,0.0,2-Back,0,z,Thu Sep 18 2025 20:04:38 GMT-0500 (Central Daylight Time),758885.0,015_o_m_d_a.png,O,None,2016,15,1,3021.7000000476837,755863.2999999523,9999,VNB,C,13
0,test,3,1.0,2-Back,0,m,Thu Sep 18 2025 20:04:38 GMT-0500 (Central Daylight Time),761918.2999999523,019_m_f_h_a.png,O,None,2016,16,1,3023.199999988079,758895.0999999642,9999,VNB,C,14
0,test,3,0.0,2-Back,0,m,Thu Sep 18 2025 20:04:38 GMT-0500 (Central Daylight Time),764951.8999999762,014_m_m_n_a.png,O,None,2016,17,1,3027.100000023842,761924.7999999523,9999,VNB,C,15
0,test,3,0.0,2-Back,0,z,Thu Sep 18 2025 20:04:38 GMT-0500 (Central Daylight Time),767985.0999999642,025_y_m_h_a.png,O,None,2016,18,1,3019.5,764965.5999999642,9999,VNB,C,16
0,test,4,0.0,2-Back,,,Thu Sep 18 2025 20:04:38 GMT-0500 (Central Daylight Time),767985.0999999642,019_m_f_n_a.png,O,space,30371,1,1,3019.5,764965.5999999642,9999,VNB,C,0
0,test,4,0.0,2-Back,,,Thu Sep 18 2025 20:04:38 GMT-0500 (Central Daylight Time),767985.0999999642,015_o_m_n_a.png,O,space,30371,2,1,3019.5,764965.5999999642,9999,VNB,C,0
0,test,4,1.0,2-Back,0,m,Thu Sep 18 2025 20:04:38 GMT-0500 (Central Daylight Time),806686.1999999881,025_y_m_h_a.png,O,None,2016,3,1,3021.5,803664.6999999881,9999,VNB,C,1
0,test,4,1.0,2-Back,0,m,Thu Sep 18 2025 20:04:38 GMT-0500 (Central Daylight Time),809719.2999999523,012_o_f_d_a.png,O,None,2016,4,1,3020.199999988079,806699.0999999642,9999,VNB,C,2
0,test,4,0.0,2-Back,0,z,Thu Sep 18 2025 20:04:38 GMT-0500 (Central Daylight Time),812752.8999999762,015_o_m_h_a.png,O,None,2017,5,1,3024.399999976158,809728.5,9999,VNB,C,3
0,test,4,0.0,2-Back,0,m,Thu Sep 18 2025 20:04:38 GMT-0500 (Central Daylight Time),815787.2999999523,014_m_m_n_a.png,O,None,2017,6,1,3020.399999976158,812766.8999999762,9999,VNB,C,4
0,test,4,0.0,2-Back,0,m,Thu Sep 18 2025 20:04:38 GMT-0500 (Central Daylight Time),818804.0,019_m_f_d_a.png,O,None,2001,7,1,3009.7000000476837,815794.2999999523,9999,VNB,C,5
0,test,4,0.0,2-Back,0,z,Thu Sep 18 2025 20:04:38 GMT-0500 (Central Daylight Time),821836.8999999762,022_y_f_n_a.png,O,None,2001,8,1,3016.199999988079,818820.6999999881,9999,VNB,C,6
0,test,4,1.0,2-Back,0,m,Thu Sep 18 2025 20:04:38 GMT-0500 (Central Daylight Time),824869.6999999881,012_o_f_h_a.png,O,None,2015,9,1,3024.800000011921,821844.8999999762,9999,VNB,C,7
0,test,4,0.0,2-Back,0,m,Thu Sep 18 2025 20:04:38 GMT-0500 (Central Daylight Time),827903.3999999762,014_m_m_h_a.png,O,None,2016,10,1,3023.0,824880.3999999762,9999,VNB,C,8
0,test,4,0.0,2-Back,0,m,Thu Sep 18 2025 20:04:38 GMT-0500 (Central Daylight Time),830937.5999999642,022_y_f_d_a.png,O,None,2017,11,1,3021.399999976158,827916.1999999881,9999,VNB,C,9
0,test,4,0.0,2-Back,0,m,Thu Sep 18 2025 20:04:38 GMT-0500 (Central Daylight Time),833970.0999999642,025_y_m_n_a.png,O,None,2016,12,1,3021.699999988079,830948.3999999762,9999,VNB,C,10
0,test,4,0.0,2-Back,0,z,Thu Sep 18 2025 20:04:38 GMT-0500 (Central Daylight Time),836987.6999999881,015_o_m_d_a.png,O,None,2001,13,1,3008.100000023842,833979.5999999642,9999,VNB,C,11
0,test,4,1.0,2-Back,0,m,Thu Sep 18 2025 20:04:38 GMT-0500 (Central Daylight Time),840020.0,019_m_f_h_a.png,O,None,2016,14,1,3023.300000011921,836996.6999999881,9999,VNB,C,12
0,test,4,1.0,2-Back,0,m,Thu Sep 18 2025 20:04:38 GMT-0500 (Central Daylight Time),843053.5999999642,022_y_f_h_a.png,O,None,2016,15,1,3026.199999988079,840027.3999999762,9999,VNB,C,13
0,test,4,0.0,2-Back,0,m,Thu Sep 18 2025 20:04:38 GMT-0500 (Central Daylight Time),846087.0999999642,012_o_f_n_a.png,O,None,2017,16,1,3019.199999988079,843067.8999999762,9999,VNB,C,14
0,test,4,0.0,2-Back,0,m,Thu Sep 18 2025 20:04:38 GMT-0500 (Central Daylight Time),849120.5,025_y_m_d_a.png,O,None,2016,17,1,3023.400000035763,846097.0999999642,9999,VNB,C,15
0,test,4,1.0,2-Back,0,m,Thu Sep 18 2025 20:04:38 GMT-0500 (Central Daylight Time),852153.8999999762,014_m_m_d_a.png,O,None,2015,18,1,3018.100000023842,849135.7999999523,9999,VNB,C,16
0,test,5,1.0,2-Back,,,Thu Sep 18 2025 20:04:38 GMT-0500 (Central Daylight Time),852153.8999999762,022_y_f_d_a.png,O,space,1063,1,1,3018.100000023842,849135.7999999523,9999,VNB,C,0
0,test,5,1.0,2-Back,,,Thu Sep 18 2025 20:04:38 GMT-0500 (Central Daylight Time),852153.8999999762,012_o_f_h_a.png,O,space,1063,2,1,3018.100000023842,849135.7999999523,9999,VNB,C,0
0,test,5,1.0,2-Back,0,z,Thu Sep 18 2025 20:04:38 GMT-0500 (Central Daylight Time),861537.1999999881,015_o_m_d_a.png,O,None,2016,3,1,3020.100000023842,858517.0999999642,9999,VNB,C,1
0,test,5,1.0,2-Back,0,m,Thu Sep 18 2025 20:04:38 GMT-0500 (Central Daylight Time),864570.6999999881,019_m_f_n_a.png,O,None,2016,4,1,3026.300000011921,861544.3999999762,9999,VNB,C,2
0,test,5,0.0,2-Back,0,m,Thu Sep 18 2025 20:04:38 GMT-0500 (Central Daylight Time),867604.0,014_m_m_h_a.png,O,None,2017,5,1,3020.400000035763,864583.5999999642,9999,VNB,C,3
0,test,5,0.0,2-Back,0,z,Thu Sep 18 2025 20:04:38 GMT-0500 (Central Daylight Time),870621.6999999881,022_y_f_n_a.png,O,None,2001,6,1,3004.900000035763,867616.7999999523,9999,VNB,C,4
0,test,5,0.0,2-Back,0,m,Thu Sep 18 2025 20:04:38 GMT-0500 (Central Daylight Time),873654.2999999523,012_o_f_d_a.png,O,None,2016,7,1,3022.599999964237,870631.6999999881,9999,VNB,C,5
0,test,5,0.0,2-Back,0,m,Thu Sep 18 2025 20:04:38 GMT-0500 (Central Daylight Time),876688.5999999642,015_o_m_h_a.png,O,None,2017,8,1,3025.599999964237,873663.0,9999,VNB,C,6
0,test,5,1.0,2-Back,0,z,Thu Sep 18 2025 20:04:38 GMT-0500 (Central Daylight Time),879720.7999999523,019_m_f_d_a.png,O,None,2017,9,1,3017.899999976158,876702.8999999762,9999,VNB,C,7
0,test,5,0.0,2-Back,0,m,Thu Sep 18 2025 20:04:38 GMT-0500 (Central Daylight Time),882754.5999999642,025_y_m_n_a.png,O,None,2016,10,1,3028.5,879726.0999999642,9999,VNB,C,8
0,test,5,0.0,2-Back,0,m,Thu Sep 18 2025 20:04:38 GMT-0500 (Central Daylight Time),885787.6999999881,014_m_m_n_a.png,O,None,2017,11,1,3019.800000011921,882767.8999999762,9999,VNB,C,9
0,test,5,0.0,2-Back,0,m,Thu Sep 18 2025 20:04:38 GMT-0500 (Central Daylight Time),888821.1999999881,022_y_f_h_a.png,O,None,2016,12,1,3023.800000011921,885797.3999999762,9999,VNB,C,10
0,test,5,0.0,2-Back,0,m,Thu Sep 18 2025 20:04:38 GMT-0500 (Central Daylight Time),891854.3999999762,025_y_m_d_a.png,O,None,2016,13,1,3018.0,888836.3999999762,9999,VNB,C,11
0,test,5,1.0,2-Back,0,z,Thu Sep 18 2025 20:04:38 GMT-0500 (Central Daylight Time),894888.0999999642,019_m_f_h_a.png,O,None,2016,14,1,3023.899999976158,891864.1999999881,9999,VNB,C,12
0,test,5,0.0,2-Back,0,m,Thu Sep 18 2025 20:04:38 GMT-0500 (Central Daylight Time),897921.1999999881,015_o_m_n_a.png,O,None,2016,15,1,3020.0,894901.1999999881,9999,VNB,C,13
0,test,5,0.0,2-Back,0,m,Thu Sep 18 2025 20:04:38 GMT-0500 (Central Daylight Time),900954.7999999523,014_m_m_d_a.png,O,None,2017,16,1,3026.199999988079,897928.5999999642,9999,VNB,C,14
0,test,5,0.0,2-Back,0,z,Thu Sep 18 2025 20:04:38 GMT-0500 (Central Daylight Time),903989.1999999881,012_o_f_n_a.png,O,None,2017,17,1,3021.300000011921,900967.8999999762,9999,VNB,C,15
0,test,5,1.0,2-Back,0,m,Thu Sep 18 2025 20:04:38 GMT-0500 (Central Daylight Time),907005.8999999762,025_y_m_h_a.png,O,None,2001,18,1,3008.300000011921,903997.5999999642,9999,VNB,C,16
