block_c,block_dur,condition,countdown,datetime,endtime,list,multichar_response,project,response,response_time,session_number,start_end,starttime,subject_id,task,task_vers,trial
,,,,Wed Jun 04 2025 10:52:43 GMT-0500 (Central Daylight Time),,,,O,space,420,1,,,7159,WL,A,
prac,,0,,Wed Jun 04 2025 10:52:43 GMT-0500 (Central Daylight Time),,NA,b,O,b,2029,1,,,7159,WL,A,1.0
prac,,0,,Wed Jun 04 2025 10:52:43 GMT-0500 (Central Daylight Time),,NA,bo,O,o,537,1,,,7159,WL,A,1.0
prac,,0,,Wed Jun 04 2025 10:52:43 GMT-0500 (Central Daylight Time),,NA,boo,O,o,186,1,,,7159,WL,A,1.0
prac,,0,,Wed Jun 04 2025 10:52:43 GMT-0500 (Central Daylight Time),,NA,boos,O,s,243,1,,,7159,WL,A,1.0
prac,,0,,Wed Jun 04 2025 10:52:43 GMT-0500 (Central Daylight Time),,NA,boost,O,t,396,1,,,7159,WL,A,1.0
prac,,0,,Wed Jun 04 2025 10:52:43 GMT-0500 (Central Daylight Time),,NA,boostenter,O,enter,1262,1,,,7159,WL,A,1.0
1,1.5350000858306885,learn,58464.99991416931,Wed Jun 04 2025 10:52:43 GMT-0500 (Central Daylight Time),146339.6000000001,A,r,O,r,1528,1,1534.2999999998137,144805.30000000028,7159,WL,A,1.0
1,1.815999984741211,learn,58184.00001525879,Wed Jun 04 2025 10:52:43 GMT-0500 (Central Daylight Time),146620.49999999953,A,ru,O,u,273,1,1815.199999999255,144805.30000000028,7159,WL,A,1.0
1,2.367000102996826,learn,57632.999897003174,Wed Jun 04 2025 10:52:43 GMT-0500 (Central Daylight Time),147171.49999999953,A,rug,O,g,533,1,2366.199999999255,144805.30000000028,7159,WL,A,1.0
1,3.265000104904175,learn,56734.999895095825,Wed Jun 04 2025 10:52:43 GMT-0500 (Central Daylight Time),148069.49999999953,A,rugenter,O,enter,886,1,3264.199999999255,144805.30000000028,7159,WL,A,1.0
1,4.8480000495910645,learn,55151.999950408936,Wed Jun 04 2025 10:52:43 GMT-0500 (Central Daylight Time),149652.49999999953,A,b,O,b,1562,1,1582.5999999996275,148069.8999999999,7159,WL,A,2.0
1,5.299000024795532,learn,54700.99997520447,Wed Jun 04 2025 10:52:43 GMT-0500 (Central Daylight Time),150103.49999999953,A,bo,O,o,431,1,2033.5999999996275,148069.8999999999,7159,WL,A,2.0
1,5.549000024795532,learn,54450.99997520447,Wed Jun 04 2025 10:52:43 GMT-0500 (Central Daylight Time),150354.19999999972,A,boo,O,o,235,1,2284.2999999998137,148069.8999999999,7159,WL,A,2.0
1,5.815000057220459,learn,54184.99994277954,Wed Jun 04 2025 10:52:43 GMT-0500 (Central Daylight Time),150619.99999999953,A,book,O,k,250,1,2550.0999999996275,148069.8999999999,7159,WL,A,2.0
1,6.249000072479248,learn,53750.99992752075,Wed Jun 04 2025 10:52:43 GMT-0500 (Central Daylight Time),151053.49999999953,A,bookenter,O,enter,426,1,2983.5999999996275,148069.8999999999,7159,WL,A,2.0
1,9.347000122070312,learn,50652.99987792969,Wed Jun 04 2025 10:52:43 GMT-0500 (Central Daylight Time),154151.99999999953,A,n,O,n,3087,1,3098.0999999996275,151053.8999999999,7159,WL,A,3.0
1,10.446000099182129,learn,49553.99990081787,Wed Jun 04 2025 10:52:43 GMT-0500 (Central Daylight Time),155251.30000000028,A,,O,backspace,1085,1,4197.4000000003725,151053.8999999999,7159,WL,A,3.0
1,10.946000099182129,learn,49053.99990081787,Wed Jun 04 2025 10:52:43 GMT-0500 (Central Daylight Time),155751.19999999972,A,m,O,m,487,1,4697.299999999814,151053.8999999999,7159,WL,A,3.0
1,11.213000059127808,learn,48786.99994087219,Wed Jun 04 2025 10:52:43 GMT-0500 (Central Daylight Time),156017.80000000028,A,me,O,e,246,1,4963.9000000003725,151053.8999999999,7159,WL,A,3.0
1,11.413000106811523,learn,48586.99989318848,Wed Jun 04 2025 10:52:43 GMT-0500 (Central Daylight Time),156217.3999999999,A,mea,O,a,179,1,5163.5,151053.8999999999,7159,WL,A,3.0
1,11.680000066757202,learn,48319.9999332428,Wed Jun 04 2025 10:52:43 GMT-0500 (Central Daylight Time),156484.6000000001,A,mead,O,d,246,1,5430.700000000186,151053.8999999999,7159,WL,A,3.0
1,11.979000091552734,learn,48020.999908447266,Wed Jun 04 2025 10:52:43 GMT-0500 (Central Daylight Time),156783.80000000028,A,meado,O,o,285,1,5729.9000000003725,151053.8999999999,7159,WL,A,3.0
1,12.246999979019165,learn,47753.000020980835,Wed Jun 04 2025 10:52:43 GMT-0500 (Central Daylight Time),157051.80000000028,A,meadow,O,w,253,1,5997.9000000003725,151053.8999999999,7159,WL,A,3.0
1,13.377000093460083,learn,46622.99990653992,Wed Jun 04 2025 10:52:43 GMT-0500 (Central Daylight Time),158182.30000000028,A,meadowenter,O,enter,1109,1,7128.4000000003725,151053.8999999999,7159,WL,A,3.0
1,15.028000116348267,learn,44971.99988365173,Wed Jun 04 2025 10:52:43 GMT-0500 (Central Daylight Time),159832.80000000028,A,g,O,g,1637,1,1650.2000000001863,158182.6000000001,7159,WL,A,4.0
1,15.278000116348267,learn,44721.99988365173,Wed Jun 04 2025 10:52:43 GMT-0500 (Central Daylight Time),160083.30000000028,A,go,O,o,242,1,1900.7000000001863,158182.6000000001,7159,WL,A,4.0
1,15.545000076293945,learn,44454.999923706055,Wed Jun 04 2025 10:52:43 GMT-0500 (Central Daylight Time),160350.19999999972,A,gol,O,l,246,1,2167.5999999996275,158182.6000000001,7159,WL,A,4.0
1,16.42900013923645,learn,43570.99986076355,Wed Jun 04 2025 10:52:43 GMT-0500 (Central Daylight Time),161234.30000000028,A,gold,O,d,861,1,3051.7000000001863,158182.6000000001,7159,WL,A,4.0
1,16.944000005722046,learn,43055.999994277954,Wed Jun 04 2025 10:52:43 GMT-0500 (Central Daylight Time),161749.19999999972,A,goldenter,O,enter,493,1,3566.5999999996275,158182.6000000001,7159,WL,A,4.0
1,17.38100004196167,learn,42618.99995803833,Wed Jun 04 2025 10:52:43 GMT-0500 (Central Daylight Time),162185.80000000028,A,r,O,r,414,1,436.30000000074506,161749.49999999953,7159,WL,A,5.0
1,17.67900013923645,learn,42320.99986076355,Wed Jun 04 2025 10:52:43 GMT-0500 (Central Daylight Time),162483.69999999972,A,ra,O,a,293,1,734.2000000001863,161749.49999999953,7159,WL,A,5.0
1,18.045000076293945,learn,41954.999923706055,Wed Jun 04 2025 10:52:43 GMT-0500 (Central Daylight Time),162849.49999999953,A,rat,O,t,351,1,1100.0,161749.49999999953,7159,WL,A,5.0
1,18.2260000705719,learn,41773.9999294281,Wed Jun 04 2025 10:52:43 GMT-0500 (Central Daylight Time),163031.30000000028,A,ratt,O,t,162,1,1281.800000000745,161749.49999999953,7159,WL,A,5.0
1,18.42900013923645,learn,41570.99986076355,Wed Jun 04 2025 10:52:43 GMT-0500 (Central Daylight Time),163233.8999999999,A,rattl,O,l,198,1,1484.4000000003725,161749.49999999953,7159,WL,A,5.0
1,18.646000146865845,learn,41353.999853134155,Wed Jun 04 2025 10:52:43 GMT-0500 (Central Daylight Time),163450.30000000028,A,rattle,O,e,210,1,1700.800000000745,161749.49999999953,7159,WL,A,5.0
1,19.694000005722046,learn,40305.999994277954,Wed Jun 04 2025 10:52:43 GMT-0500 (Central Daylight Time),164499.1000000001,A,rattleenter,O,enter,1042,1,2749.600000000559,161749.49999999953,7159,WL,A,5.0
1,21.593000173568726,learn,38406.999826431274,Wed Jun 04 2025 10:52:43 GMT-0500 (Central Daylight Time),166397.6000000001,A,f,O,f,1877,1,1898.1000000005588,164499.49999999953,7159,WL,A,6.0
1,21.794000148773193,learn,38205.99985122681,Wed Jun 04 2025 10:52:43 GMT-0500 (Central Daylight Time),166598.49999999953,A,fl,O,l,180,1,2099.0,164499.49999999953,7159,WL,A,6.0
1,22.026000022888184,learn,37973.99997711182,Wed Jun 04 2025 10:52:43 GMT-0500 (Central Daylight Time),166831.30000000028,A,flo,O,o,223,1,2331.800000000745,164499.49999999953,7159,WL,A,6.0
1,22.30900001525879,learn,37690.99998474121,Wed Jun 04 2025 10:52:43 GMT-0500 (Central Daylight Time),167113.69999999972,A,flow,O,w,269,1,2614.2000000001863,164499.49999999953,7159,WL,A,6.0
1,22.561000108718872,learn,37438.99989128113,Wed Jun 04 2025 10:52:43 GMT-0500 (Central Daylight Time),167365.80000000028,A,flowe,O,e,244,1,2866.300000000745,164499.49999999953,7159,WL,A,6.0
1,22.77900004386902,learn,37220.99995613098,Wed Jun 04 2025 10:52:43 GMT-0500 (Central Daylight Time),167583.49999999953,A,flower,O,r,208,1,3084.0,164499.49999999953,7159,WL,A,6.0
1,23.841000080108643,learn,36158.99991989136,Wed Jun 04 2025 10:52:43 GMT-0500 (Central Daylight Time),168646.30000000028,A,flowerenter,O,enter,1043,1,4146.800000000745,164499.49999999953,7159,WL,A,6.0
1,32.00800013542175,learn,27991.999864578247,Wed Jun 04 2025 10:52:43 GMT-0500 (Central Daylight Time),176813.30000000028,A,h,O,h,8146,1,8166.700000000186,168646.6000000001,7159,WL,A,7.0
1,32.20700001716614,learn,27792.999982833862,Wed Jun 04 2025 10:52:43 GMT-0500 (Central Daylight Time),177011.6000000001,A,ha,O,a,183,1,8365.0,168646.6000000001,7159,WL,A,7.0
1,32.557000160217285,learn,27442.999839782715,Wed Jun 04 2025 10:52:43 GMT-0500 (Central Daylight Time),177361.6000000001,A,har,O,r,336,1,8715.0,168646.6000000001,7159,WL,A,7.0
1,32.825000047683716,learn,27174.999952316284,Wed Jun 04 2025 10:52:43 GMT-0500 (Central Daylight Time),177629.6000000001,A,harp,O,p,262,1,8983.0,168646.6000000001,7159,WL,A,7.0
1,33.438000202178955,learn,26561.999797821045,Wed Jun 04 2025 10:52:43 GMT-0500 (Central Daylight Time),178244.19999999972,A,harpenter,O,enter,606,1,9597.599999999627,168646.6000000001,7159,WL,A,7.0
1,40.71900010108948,learn,19280.999898910522,Wed Jun 04 2025 10:52:43 GMT-0500 (Central Daylight Time),185524.99999999953,A,a,O,a,7272,1,7280.5,178244.49999999953,7159,WL,A,8.0
1,41.0550000667572,learn,18944.999933242798,Wed Jun 04 2025 10:52:43 GMT-0500 (Central Daylight Time),185860.49999999953,A,ap,O,p,326,1,7616.0,178244.49999999953,7159,WL,A,8.0
1,41.22000002861023,learn,18779.99997138977,Wed Jun 04 2025 10:52:43 GMT-0500 (Central Daylight Time),186026.1000000001,A,app,O,p,162,1,7781.600000000559,178244.49999999953,7159,WL,A,8.0
1,41.46900010108948,learn,18530.999898910522,Wed Jun 04 2025 10:52:43 GMT-0500 (Central Daylight Time),186274.99999999953,A,appl,O,l,242,1,8030.5,178244.49999999953,7159,WL,A,8.0
1,41.68600010871887,learn,18313.999891281128,Wed Jun 04 2025 10:52:43 GMT-0500 (Central Daylight Time),186491.49999999953,A,apple,O,e,200,1,8247.0,178244.49999999953,7159,WL,A,8.0
1,42.10199999809265,learn,17898.00000190735,Wed Jun 04 2025 10:52:43 GMT-0500 (Central Daylight Time),186908.1000000001,A,appleenter,O,enter,410,1,8663.600000000559,178244.49999999953,7159,WL,A,8.0
1,52.18300008773804,learn,7816.999912261963,Wed Jun 04 2025 10:52:43 GMT-0500 (Central Daylight Time),196989.3999999999,A,f,O,f,10065,1,10081.0,186908.3999999999,7159,WL,A,9.0
1,52.450000047683716,learn,7549.999952316284,Wed Jun 04 2025 10:52:43 GMT-0500 (Central Daylight Time),197256.1000000001,A,fl,O,l,254,1,10347.700000000186,186908.3999999999,7159,WL,A,9.0
1,52.68300008773804,learn,7316.999912261963,Wed Jun 04 2025 10:52:43 GMT-0500 (Central Daylight Time),197488.69999999972,A,flo,O,o,212,1,10580.299999999814,186908.3999999999,7159,WL,A,9.0
1,52.93400001525879,learn,7065.999984741211,Wed Jun 04 2025 10:52:43 GMT-0500 (Central Daylight Time),197740.30000000028,A,flow,O,w,227,1,10831.900000000373,186908.3999999999,7159,WL,A,9.0
1,53.13300013542175,learn,6866.999864578247,Wed Jun 04 2025 10:52:43 GMT-0500 (Central Daylight Time),197939.30000000028,A,flowe,O,e,184,1,11030.900000000373,186908.3999999999,7159,WL,A,9.0
1,53.33200001716614,learn,6667.999982833862,Wed Jun 04 2025 10:52:43 GMT-0500 (Central Daylight Time),198137.80000000028,A,flower,O,r,185,1,11229.400000000373,186908.3999999999,7159,WL,A,9.0
1,53.680999994277954,learn,6319.000005722046,Wed Jun 04 2025 10:52:43 GMT-0500 (Central Daylight Time),198486.80000000028,A,flowerenter,O,enter,329,1,11578.400000000373,186908.3999999999,7159,WL,A,9.0
1,56.29800009727478,learn,3701.9999027252197,Wed Jun 04 2025 10:52:43 GMT-0500 (Central Daylight Time),201103.6000000001,A,enter,O,enter,2605,1,2616.600000000559,198486.99999999953,7159,WL,A,10.0
1,57.01400017738342,learn,2985.999822616577,Wed Jun 04 2025 10:52:43 GMT-0500 (Central Daylight Time),201819.80000000028,A,enter,O,enter,709,1,715.9000000003725,201103.8999999999,7159,WL,A,11.0
1,57.44700002670288,learn,2552.999973297119,Wed Jun 04 2025 10:52:43 GMT-0500 (Central Daylight Time),202252.69999999972,A,enter,O,enter,411,1,432.59999999962747,201820.1000000001,7159,WL,A,12.0
1,57.94700002670288,learn,2052.999973297119,Wed Jun 04 2025 10:52:43 GMT-0500 (Central Daylight Time),202752.69999999972,A,enter,O,enter,481,1,499.59999999962747,202253.1000000001,7159,WL,A,13.0
1,58.379000186920166,learn,1620.999813079834,Wed Jun 04 2025 10:52:43 GMT-0500 (Central Daylight Time),203185.19999999972,A,enter,O,enter,420,1,432.09999999962747,202753.1000000001,7159,WL,A,14.0
1,58.91300010681152,learn,1086.9998931884766,Wed Jun 04 2025 10:52:43 GMT-0500 (Central Daylight Time),203718.69999999972,A,enter,O,enter,515,1,533.2000000001863,203185.49999999953,7159,WL,A,15.0
2,1.5490000247955322,learn,58450.99997520447,Wed Jun 04 2025 10:52:43 GMT-0500 (Central Daylight Time),273213.99999999953,A,g,O,g,1526,1,1548.0999999996275,271665.8999999999,7159,WL,A,1.0
2,1.7810001373291016,learn,58218.9998626709,Wed Jun 04 2025 10:52:43 GMT-0500 (Central Daylight Time),273446.49999999953,A,go,O,o,209,1,1780.5999999996275,271665.8999999999,7159,WL,A,1.0
2,2.0160000324249268,learn,57983.99996757507,Wed Jun 04 2025 10:52:43 GMT-0500 (Central Daylight Time),273681.3000000003,A,gol,O,l,221,1,2015.4000000003725,271665.8999999999,7159,WL,A,1.0
2,2.3500001430511475,learn,57649.99985694885,Wed Jun 04 2025 10:52:43 GMT-0500 (Central Daylight Time),274015.1999999997,A,gold,O,d,316,1,2349.2999999998137,271665.8999999999,7159,WL,A,1.0
2,2.949000120162964,learn,57050.999879837036,Wed Jun 04 2025 10:52:43 GMT-0500 (Central Daylight Time),274614.1999999997,A,goldk,O,k,578,1,2948.2999999998137,271665.8999999999,7159,WL,A,1.0
2,3.183000087738037,learn,56816.99991226196,Wed Jun 04 2025 10:52:43 GMT-0500 (Central Daylight Time),274847.8999999999,A,goldke,O,e,211,1,3182.0,271665.8999999999,7159,WL,A,1.0
2,3.515000104904175,learn,56484.999895095825,Wed Jun 04 2025 10:52:43 GMT-0500 (Central Daylight Time),275179.8000000003,A,goldkey,O,y,319,1,3513.9000000003725,271665.8999999999,7159,WL,A,1.0
2,4.049000024795532,learn,55950.99997520447,Wed Jun 04 2025 10:52:43 GMT-0500 (Central Daylight Time),275714.1000000001,A,goldkeyr,O,r,518,1,4048.2000000001863,271665.8999999999,7159,WL,A,1.0
2,4.450999975204468,learn,55549.00002479553,Wed Jun 04 2025 10:52:43 GMT-0500 (Central Daylight Time),276115.8000000003,A,goldkeyra,O,a,395,1,4449.9000000003725,271665.8999999999,7159,WL,A,1.0
2,5.233999967575073,learn,54766.00003242493,Wed Jun 04 2025 10:52:43 GMT-0500 (Central Daylight Time),276898.99999999953,A,goldkeyrat,O,t,772,1,5233.0999999996275,271665.8999999999,7159,WL,A,1.0
2,5.41700005531311,learn,54582.99994468689,Wed Jun 04 2025 10:52:43 GMT-0500 (Central Daylight Time),277081.8000000003,A,goldkeyratt,O,t,168,1,5415.9000000003725,271665.8999999999,7159,WL,A,1.0
2,5.582000017166138,learn,54417.99998283386,Wed Jun 04 2025 10:52:43 GMT-0500 (Central Daylight Time),277247.3000000003,A,goldkeyrattl,O,l,152,1,5581.4000000003725,271665.8999999999,7159,WL,A,1.0
2,5.7170000076293945,learn,54282.999992370605,Wed Jun 04 2025 10:52:43 GMT-0500 (Central Daylight Time),277382.1000000001,A,goldkeyrattle,O,e,124,1,5716.200000000186,271665.8999999999,7159,WL,A,1.0
2,6.449000120162964,learn,53550.999879837036,Wed Jun 04 2025 10:52:43 GMT-0500 (Central Daylight Time),278113.6999999997,A,goldkeyrattl,O,backspace,707,1,6447.799999999814,271665.8999999999,7159,WL,A,1.0
2,6.732000112533569,learn,53267.99988746643,Wed Jun 04 2025 10:52:43 GMT-0500 (Central Daylight Time),278396.8999999999,A,goldkeyratt,O,backspace,261,1,6731.0,271665.8999999999,7159,WL,A,1.0
2,7.564000129699707,learn,52435.99987030029,Wed Jun 04 2025 10:52:43 GMT-0500 (Central Daylight Time),279229.3000000003,A,goldkeyrat,O,backspace,809,1,7563.4000000003725,271665.8999999999,7159,WL,A,1.0
2,7.715000152587891,learn,52284.99984741211,Wed Jun 04 2025 10:52:43 GMT-0500 (Central Daylight Time),279380.3000000003,A,goldkeyra,O,backspace,133,1,7714.4000000003725,271665.8999999999,7159,WL,A,1.0
2,7.830000162124634,learn,52169.999837875366,Wed Jun 04 2025 10:52:43 GMT-0500 (Central Daylight Time),279495.3000000003,A,goldkeyr,O,backspace,92,1,7829.4000000003725,271665.8999999999,7159,WL,A,1.0
2,7.933000087738037,learn,52066.99991226196,Wed Jun 04 2025 10:52:43 GMT-0500 (Central Daylight Time),279598.3999999999,A,goldkey,O,backspace,85,1,7932.5,271665.8999999999,7159,WL,A,1.0
2,8.062999963760376,learn,51937.000036239624,Wed Jun 04 2025 10:52:43 GMT-0500 (Central Daylight Time),279728.3000000003,A,goldke,O,backspace,110,1,8062.4000000003725,271665.8999999999,7159,WL,A,1.0
2,8.21399998664856,learn,51786.00001335144,Wed Jun 04 2025 10:52:43 GMT-0500 (Central Daylight Time),279879.1999999997,A,goldk,O,backspace,138,1,8213.299999999814,271665.8999999999,7159,WL,A,1.0
2,8.46399998664856,learn,51536.00001335144,Wed Jun 04 2025 10:52:43 GMT-0500 (Central Daylight Time),280128.99999999953,A,gold,O,backspace,227,1,8463.099999999627,271665.8999999999,7159,WL,A,1.0
2,9.729000091552734,learn,50270.999908447266,Wed Jun 04 2025 10:52:43 GMT-0500 (Central Daylight Time),281394.3999999999,A,goldenter,O,enter,1258,1,9728.5,271665.8999999999,7159,WL,A,1.0
2,10.661999940872192,learn,49338.00005912781,Wed Jun 04 2025 10:52:43 GMT-0500 (Central Daylight Time),282327.1000000001,A,k,O,k,913,1,932.4000000003725,281394.6999999997,7159,WL,A,2.0
2,11.312000036239624,learn,48687.999963760376,Wed Jun 04 2025 10:52:43 GMT-0500 (Central Daylight Time),282977.1000000001,A,ke,O,e,639,1,1582.4000000003725,281394.6999999997,7159,WL,A,2.0
2,11.515000104904175,learn,48484.999895095825,Wed Jun 04 2025 10:52:43 GMT-0500 (Central Daylight Time),283179.8999999999,A,key,O,y,196,1,1785.2000000001863,281394.6999999997,7159,WL,A,2.0
2,12.194999933242798,learn,47805.0000667572,Wed Jun 04 2025 10:52:43 GMT-0500 (Central Daylight Time),283859.99999999953,A,keyenter,O,enter,664,1,2465.2999999998137,281394.6999999997,7159,WL,A,2.0
2,13.196000099182129,learn,46803.99990081787,Wed Jun 04 2025 10:52:43 GMT-0500 (Central Daylight Time),284861.3000000003,A,r,O,r,985,1,1001.2000000001863,283860.1000000001,7159,WL,A,3.0
2,13.694999933242798,learn,46305.0000667572,Wed Jun 04 2025 10:52:43 GMT-0500 (Central Daylight Time),285360.3000000003,A,ra,O,a,478,1,1500.2000000001863,283860.1000000001,7159,WL,A,3.0
2,14.045000076293945,learn,45954.999923706055,Wed Jun 04 2025 10:52:43 GMT-0500 (Central Daylight Time),285710.49999999953,A,rat,O,t,331,1,1850.3999999994412,283860.1000000001,7159,WL,A,3.0
2,14.196000099182129,learn,45803.99990081787,Wed Jun 04 2025 10:52:43 GMT-0500 (Central Daylight Time),285860.6000000001,A,ratt,O,t,134,1,2000.5,283860.1000000001,7159,WL,A,3.0
2,14.378000020980835,learn,45621.999979019165,Wed Jun 04 2025 10:52:43 GMT-0500 (Central Daylight Time),286043.49999999953,A,rattl,O,l,165,1,2183.399999999441,283860.1000000001,7159,WL,A,3.0
2,14.51200008392334,learn,45487.99991607666,Wed Jun 04 2025 10:52:43 GMT-0500 (Central Daylight Time),286176.6999999997,A,rattle,O,e,112,1,2316.5999999996275,283860.1000000001,7159,WL,A,3.0
2,15.16100001335144,learn,44838.99998664856,Wed Jun 04 2025 10:52:43 GMT-0500 (Central Daylight Time),286826.3999999999,A,rattleenter,O,enter,628,1,2966.2999999998137,283860.1000000001,7159,WL,A,3.0
2,15.946000099182129,learn,44053.99990081787,Wed Jun 04 2025 10:52:43 GMT-0500 (Central Daylight Time),287610.8999999999,A,t,O,t,778,1,784.2000000001863,286826.6999999997,7159,WL,A,4.0
2,16.127000093460083,learn,43872.99990653992,Wed Jun 04 2025 10:52:43 GMT-0500 (Central Daylight Time),287792.3999999999,A,tr,O,r,167,1,965.7000000001863,286826.6999999997,7159,WL,A,4.0
2,16.378000020980835,learn,43621.999979019165,Wed Jun 04 2025 10:52:43 GMT-0500 (Central Daylight Time),288042.8000000003,A,tra,O,a,235,1,1216.1000000005588,286826.6999999997,7159,WL,A,4.0
2,16.611000061035156,learn,43388.999938964844,Wed Jun 04 2025 10:52:43 GMT-0500 (Central Daylight Time),288276.3999999999,A,trai,O,i,217,1,1449.7000000001863,286826.6999999997,7159,WL,A,4.0
2,16.812000036239624,learn,43187.999963760376,Wed Jun 04 2025 10:52:43 GMT-0500 (Central Daylight Time),288477.1999999997,A,train,O,n,184,1,1650.5,286826.6999999997,7159,WL,A,4.0
2,17.74399995803833,learn,42256.00004196167,Wed Jun 04 2025 10:52:43 GMT-0500 (Central Daylight Time),289409.1000000001,A,trainl,O,l,920,1,2582.4000000003725,286826.6999999997,7159,WL,A,4.0
2,17.944999933242798,learn,42055.0000667572,Wed Jun 04 2025 10:52:43 GMT-0500 (Central Daylight Time),289610.49999999953,A,trainlo,O,o,196,1,2783.7999999998137,286826.6999999997,7159,WL,A,4.0
2,18.627000093460083,learn,41372.99990653992,Wed Jun 04 2025 10:52:43 GMT-0500 (Central Daylight Time),290292.3999999999,A,trainlog,O,g,665,1,3465.7000000001863,286826.6999999997,7159,WL,A,4.0
2,19.30999994277954,learn,40690.00005722046,Wed Jun 04 2025 10:52:43 GMT-0500 (Central Daylight Time),290975.3999999999,A,trainlo,O,backspace,665,1,4148.700000000186,286826.6999999997,7159,WL,A,4.0
2,19.49399995803833,learn,40506.00004196167,Wed Jun 04 2025 10:52:43 GMT-0500 (Central Daylight Time),291159.1999999997,A,trainl,O,backspace,165,1,4332.5,286826.6999999997,7159,WL,A,4.0
2,19.64400005340576,learn,40355.99994659424,Wed Jun 04 2025 10:52:43 GMT-0500 (Central Daylight Time),291308.49999999953,A,train,O,backspace,142,1,4481.799999999814,286826.6999999997,7159,WL,A,4.0
2,21.493000030517578,learn,38506.99996948242,Wed Jun 04 2025 10:52:43 GMT-0500 (Central Daylight Time),293157.6999999997,A,trainenter,O,enter,1832,1,6331.0,286826.6999999997,7159,WL,A,4.0
2,22.509000062942505,learn,37490.999937057495,Wed Jun 04 2025 10:52:43 GMT-0500 (Central Daylight Time),294174.1000000001,A,l,O,l,995,1,1016.2000000001863,293157.8999999999,7159,WL,A,5.0
2,22.674999952316284,learn,37325.000047683716,Wed Jun 04 2025 10:52:43 GMT-0500 (Central Daylight Time),294339.8000000003,A,lo,O,o,148,1,1181.9000000003725,293157.8999999999,7159,WL,A,5.0
2,23.009000062942505,learn,36990.999937057495,Wed Jun 04 2025 10:52:43 GMT-0500 (Central Daylight Time),294673.8999999999,A,log,O,g,320,1,1516.0,293157.8999999999,7159,WL,A,5.0
2,23.490999937057495,learn,36509.000062942505,Wed Jun 04 2025 10:52:43 GMT-0500 (Central Daylight Time),295156.1999999997,A,logenter,O,enter,475,1,1998.2999999998137,293157.8999999999,7159,WL,A,5.0
2,24.676000118255615,learn,35323.999881744385,Wed Jun 04 2025 10:52:43 GMT-0500 (Central Daylight Time),296341.1000000001,A,a,O,a,1180,1,1184.6000000005588,295156.49999999953,7159,WL,A,6.0
2,25.207000017166138,learn,34792.99998283386,Wed Jun 04 2025 10:52:43 GMT-0500 (Central Daylight Time),296871.6000000001,A,ap,O,p,517,1,1715.1000000005588,295156.49999999953,7159,WL,A,6.0
2,25.375,learn,34625.0,Wed Jun 04 2025 10:52:43 GMT-0500 (Central Daylight Time),297039.8999999999,A,app,O,p,159,1,1883.4000000003725,295156.49999999953,7159,WL,A,6.0
2,25.592000007629395,learn,34407.999992370605,Wed Jun 04 2025 10:52:43 GMT-0500 (Central Daylight Time),297257.1999999997,A,appl,O,l,205,1,2100.7000000001863,295156.49999999953,7159,WL,A,6.0
2,25.725000143051147,learn,34274.99985694885,Wed Jun 04 2025 10:52:43 GMT-0500 (Central Daylight Time),297389.8000000003,A,apple,O,e,111,1,2233.300000000745,295156.49999999953,7159,WL,A,6.0
2,26.45799994468689,learn,33542.00005531311,Wed Jun 04 2025 10:52:43 GMT-0500 (Central Daylight Time),298123.1999999997,A,appleenter,O,enter,727,1,2966.7000000001863,295156.49999999953,7159,WL,A,6.0
2,27.207000017166138,learn,32792.99998283386,Wed Jun 04 2025 10:52:43 GMT-0500 (Central Daylight Time),298873.1000000001,A,f,O,f,730,1,749.7000000001863,298123.3999999999,7159,WL,A,7.0
2,27.34000015258789,learn,32659.99984741211,Wed Jun 04 2025 10:52:43 GMT-0500 (Central Daylight Time),299006.3000000003,A,fi,O,i,115,1,882.9000000003725,298123.3999999999,7159,WL,A,7.0
2,27.555999994277954,learn,32444.000005722046,Wed Jun 04 2025 10:52:43 GMT-0500 (Central Daylight Time),299222.1999999997,A,fin,O,n,198,1,1098.7999999998137,298123.3999999999,7159,WL,A,7.0
2,28.121999979019165,learn,31878.000020980835,Wed Jun 04 2025 10:52:43 GMT-0500 (Central Daylight Time),299788.3000000003,A,fing,O,g,559,1,1664.9000000003725,298123.3999999999,7159,WL,A,7.0
2,28.34000015258789,learn,31659.99984741211,Wed Jun 04 2025 10:52:43 GMT-0500 (Central Daylight Time),300006.1000000001,A,finge,O,e,211,1,1882.7000000001863,298123.3999999999,7159,WL,A,7.0
2,28.555999994277954,learn,31444.000005722046,Wed Jun 04 2025 10:52:43 GMT-0500 (Central Daylight Time),300221.49999999953,A,finger,O,r,198,1,2098.0999999996275,298123.3999999999,7159,WL,A,7.0
2,29.50600004196167,learn,30493.99995803833,Wed Jun 04 2025 10:52:43 GMT-0500 (Central Daylight Time),301171.6000000001,A,fingerenter,O,enter,943,1,3048.2000000001863,298123.3999999999,7159,WL,A,7.0
2,32.48800015449524,learn,27511.99984550476,Wed Jun 04 2025 10:52:43 GMT-0500 (Central Daylight Time),304154.1999999997,A,b,O,b,2971,1,2982.399999999441,301171.8000000003,7159,WL,A,8.0
2,33.00600004196167,learn,26993.99995803833,Wed Jun 04 2025 10:52:43 GMT-0500 (Central Daylight Time),304671.6999999997,A,bo,O,o,498,1,3499.899999999441,301171.8000000003,7159,WL,A,8.0
2,33.187999963760376,learn,26812.000036239624,Wed Jun 04 2025 10:52:43 GMT-0500 (Central Daylight Time),304854.1000000001,A,boo,O,o,160,1,3682.2999999998137,301171.8000000003,7159,WL,A,8.0
2,33.4060001373291,learn,26593.9998626709,Wed Jun 04 2025 10:52:43 GMT-0500 (Central Daylight Time),305072.1000000001,A,book,O,k,206,1,3900.2999999998137,301171.8000000003,7159,WL,A,8.0
2,34.12100005149841,learn,25878.999948501587,Wed Jun 04 2025 10:52:43 GMT-0500 (Central Daylight Time),305787.1999999997,A,bookenter,O,enter,700,1,4615.399999999441,301171.8000000003,7159,WL,A,8.0
2,34.6710000038147,learn,25328.999996185303,Wed Jun 04 2025 10:52:43 GMT-0500 (Central Daylight Time),306337.3999999999,A,f,O,f,530,1,550.0,305787.3999999999,7159,WL,A,9.0
2,34.92199993133545,learn,25078.00006866455,Wed Jun 04 2025 10:52:43 GMT-0500 (Central Daylight Time),306588.3000000003,A,fl,O,l,243,1,800.9000000003725,305787.3999999999,7159,WL,A,9.0
2,35.1710000038147,learn,24828.999996185303,Wed Jun 04 2025 10:52:43 GMT-0500 (Central Daylight Time),306837.1999999997,A,flo,O,o,231,1,1049.7999999998137,305787.3999999999,7159,WL,A,9.0
2,35.50500011444092,learn,24494.999885559082,Wed Jun 04 2025 10:52:43 GMT-0500 (Central Daylight Time),307170.8000000003,A,flow,O,w,320,1,1383.4000000003725,305787.3999999999,7159,WL,A,9.0
2,35.75500011444092,learn,24244.999885559082,Wed Jun 04 2025 10:52:43 GMT-0500 (Central Daylight Time),307421.49999999953,A,flowe,O,e,243,1,1634.0999999996275,305787.3999999999,7159,WL,A,9.0
2,35.97200012207031,learn,24027.999877929688,Wed Jun 04 2025 10:52:43 GMT-0500 (Central Daylight Time),307637.49999999953,A,flower,O,r,209,1,1850.0999999996275,305787.3999999999,7159,WL,A,9.0
2,36.53800010681152,learn,23461.999893188477,Wed Jun 04 2025 10:52:43 GMT-0500 (Central Daylight Time),308203.3999999999,A,flowerenter,O,enter,550,1,2416.0,305787.3999999999,7159,WL,A,9.0
2,37.854000091552734,learn,22145.999908447266,Wed Jun 04 2025 10:52:43 GMT-0500 (Central Daylight Time),309519.6000000001,A,m,O,m,1297,1,1315.9000000003725,308203.6999999997,7159,WL,A,10.0
2,38.12100005149841,learn,21878.999948501587,Wed Jun 04 2025 10:52:43 GMT-0500 (Central Daylight Time),309787.1999999997,A,me,O,e,252,1,1583.5,308203.6999999997,7159,WL,A,10.0
2,38.33800005912781,learn,21661.999940872192,Wed Jun 04 2025 10:52:43 GMT-0500 (Central Daylight Time),310003.6999999997,A,mea,O,a,209,1,1800.0,308203.6999999997,7159,WL,A,10.0
2,38.687000036239624,learn,21312.999963760376,Wed Jun 04 2025 10:52:43 GMT-0500 (Central Daylight Time),310352.6000000001,A,mead,O,d,336,1,2148.9000000003725,308203.6999999997,7159,WL,A,10.0
2,39.13800001144409,learn,20861.99998855591,Wed Jun 04 2025 10:52:43 GMT-0500 (Central Daylight Time),310803.6999999997,A,meado,O,o,445,1,2600.0,308203.6999999997,7159,WL,A,10.0
2,39.41900014877319,learn,20580.999851226807,Wed Jun 04 2025 10:52:43 GMT-0500 (Central Daylight Time),311085.1999999997,A,meadow,O,w,276,1,2881.5,308203.6999999997,7159,WL,A,10.0
2,40.68600010871887,learn,19313.999891281128,Wed Jun 04 2025 10:52:43 GMT-0500 (Central Daylight Time),312352.1000000001,A,meadowenter,O,enter,1247,1,4148.4000000003725,308203.6999999997,7159,WL,A,10.0
2,45.50100016593933,learn,14498.999834060669,Wed Jun 04 2025 10:52:43 GMT-0500 (Central Daylight Time),317166.6000000001,A,c,O,c,4796,1,4814.299999999814,312352.3000000003,7159,WL,A,11.0
2,45.867000102996826,learn,14132.999897003174,Wed Jun 04 2025 10:52:43 GMT-0500 (Central Daylight Time),317533.3999999999,A,ch,O,h,361,1,5181.0999999996275,312352.3000000003,7159,WL,A,11.0
2,46.33500003814697,learn,13664.999961853027,Wed Jun 04 2025 10:52:43 GMT-0500 (Central Daylight Time),318000.49999999953,A,chi,O,i,446,1,5648.199999999255,312352.3000000003,7159,WL,A,11.0
2,47.50100016593933,learn,12498.999834060669,Wed Jun 04 2025 10:52:43 GMT-0500 (Central Daylight Time),319166.49999999953,A,chim,O,m,1156,1,6814.199999999255,312352.3000000003,7159,WL,A,11.0
2,47.81700015068054,learn,12182.999849319458,Wed Jun 04 2025 10:52:43 GMT-0500 (Central Daylight Time),319483.1999999997,A,chimn,O,n,302,1,7130.899999999441,312352.3000000003,7159,WL,A,11.0
2,48.117000102996826,learn,11882.999897003174,Wed Jun 04 2025 10:52:43 GMT-0500 (Central Daylight Time),319782.8000000003,A,chimne,O,e,289,1,7430.5,312352.3000000003,7159,WL,A,11.0
2,48.37000012397766,learn,11629.999876022339,Wed Jun 04 2025 10:52:43 GMT-0500 (Central Daylight Time),320035.8000000003,A,chimney,O,y,230,1,7683.5,312352.3000000003,7159,WL,A,11.0
2,49.16600012779236,learn,10833.999872207642,Wed Jun 04 2025 10:52:43 GMT-0500 (Central Daylight Time),320832.1000000001,A,chimneyenter,O,enter,785,1,8479.799999999814,312352.3000000003,7159,WL,A,11.0
2,59.63100004196167,learn,368.9999580383301,Wed Jun 04 2025 10:52:43 GMT-0500 (Central Daylight Time),331296.99999999953,A,t,O,t,10454,1,10464.599999999627,320832.3999999999,7159,WL,A,12.0
2,59.96300005912781,learn,36.99994087219238,Wed Jun 04 2025 10:52:43 GMT-0500 (Central Daylight Time),331629.49999999953,A,tr,O,r,326,1,10797.099999999627,320832.3999999999,7159,WL,A,12.0
2,60.01300001144409,learn,-13.000011444091797,Wed Jun 04 2025 10:52:43 GMT-0500 (Central Daylight Time),331678.8999999999,A,trNone,O,None,43,1,10846.5,320832.3999999999,7159,WL,A,12.0
3,1.180999994277954,learn,58819.000005722046,Wed Jun 04 2025 10:52:43 GMT-0500 (Central Daylight Time),400555.8000000003,A,g,O,g,1163,1,1181.4000000003725,399374.3999999999,7159,WL,A,1.0
3,1.4830000400543213,learn,58516.99995994568,Wed Jun 04 2025 10:52:43 GMT-0500 (Central Daylight Time),400857.3000000003,A,go,O,o,290,1,1482.9000000003725,399374.3999999999,7159,WL,A,1.0
3,1.7170000076293945,learn,58282.999992370605,Wed Jun 04 2025 10:52:43 GMT-0500 (Central Daylight Time),401091.6999999997,A,gol,O,l,228,1,1717.2999999998137,399374.3999999999,7159,WL,A,1.0
3,2.116000175476074,learn,57883.999824523926,Wed Jun 04 2025 10:52:43 GMT-0500 (Central Daylight Time),401489.99999999953,A,gold,O,d,379,1,2115.5999999996275,399374.3999999999,7159,WL,A,1.0
3,2.8320000171661377,learn,57167.99998283386,Wed Jun 04 2025 10:52:43 GMT-0500 (Central Daylight Time),402206.1000000001,A,goldenter,O,enter,698,1,2831.7000000001863,399374.3999999999,7159,WL,A,1.0
3,3.7320001125335693,learn,56267.99988746643,Wed Jun 04 2025 10:52:43 GMT-0500 (Central Daylight Time),403106.1999999997,A,k,O,k,887,1,899.7999999998137,402206.3999999999,7159,WL,A,2.0
3,4.231000185012817,learn,55768.99981498718,Wed Jun 04 2025 10:52:43 GMT-0500 (Central Daylight Time),403605.3999999999,A,ke,O,e,490,1,1399.0,402206.3999999999,7159,WL,A,2.0
3,4.581000089645386,learn,55418.999910354614,Wed Jun 04 2025 10:52:43 GMT-0500 (Central Daylight Time),403955.49999999953,A,key,O,y,335,1,1749.0999999996275,402206.3999999999,7159,WL,A,2.0
3,5.265000104904175,learn,54734.999895095825,Wed Jun 04 2025 10:52:43 GMT-0500 (Central Daylight Time),404639.1000000001,A,keyenter,O,enter,667,1,2432.7000000001863,402206.3999999999,7159,WL,A,2.0
3,6.398000001907349,learn,53601.99999809265,Wed Jun 04 2025 10:52:43 GMT-0500 (Central Daylight Time),405771.99999999953,A,r,O,r,1118,1,1132.5999999996275,404639.3999999999,7159,WL,A,3.0
3,6.749000072479248,learn,53250.99992752075,Wed Jun 04 2025 10:52:43 GMT-0500 (Central Daylight Time),406123.3000000003,A,ra,O,a,346,1,1483.9000000003725,404639.3999999999,7159,WL,A,3.0
3,7.247000217437744,learn,52752.999782562256,Wed Jun 04 2025 10:52:43 GMT-0500 (Central Daylight Time),406621.49999999953,A,rat,O,t,481,1,1982.0999999996275,404639.3999999999,7159,WL,A,3.0
3,7.447000026702881,learn,52552.99997329712,Wed Jun 04 2025 10:52:43 GMT-0500 (Central Daylight Time),406821.49999999953,A,ratt,O,t,179,1,2182.0999999996275,404639.3999999999,7159,WL,A,3.0
3,7.8470001220703125,learn,52152.99987792969,Wed Jun 04 2025 10:52:43 GMT-0500 (Central Daylight Time),407221.49999999953,A,rattl,O,l,394,1,2582.0999999996275,404639.3999999999,7159,WL,A,3.0
3,8.064000129699707,learn,51935.99987030029,Wed Jun 04 2025 10:52:43 GMT-0500 (Central Daylight Time),407438.6000000001,A,rattle,O,e,200,1,2799.2000000001863,404639.3999999999,7159,WL,A,3.0
3,8.747000217437744,learn,51252.999782562256,Wed Jun 04 2025 10:52:43 GMT-0500 (Central Daylight Time),408121.1000000001,A,rattleenter,O,enter,663,1,3481.7000000001863,404639.3999999999,7159,WL,A,3.0
3,9.430000066757202,learn,50569.9999332428,Wed Jun 04 2025 10:52:43 GMT-0500 (Central Daylight Time),408804.1000000001,A,b,O,b,668,1,682.7999999998137,408121.3000000003,7159,WL,A,4.0
3,9.713000059127808,learn,50286.99994087219,Wed Jun 04 2025 10:52:43 GMT-0500 (Central Daylight Time),409087.8999999999,A,bu,O,u,266,1,966.5999999996275,408121.3000000003,7159,WL,A,4.0
3,10.563000202178955,learn,49436.999797821045,Wed Jun 04 2025 10:52:43 GMT-0500 (Central Daylight Time),409937.6000000001,A,but,O,t,829,1,1816.2999999998137,408121.3000000003,7159,WL,A,4.0
3,10.713000059127808,learn,49286.99994087219,Wed Jun 04 2025 10:52:43 GMT-0500 (Central Daylight Time),410087.8000000003,A,butt,O,t,140,1,1966.5,408121.3000000003,7159,WL,A,4.0
3,10.930000066757202,learn,49069.9999332428,Wed Jun 04 2025 10:52:43 GMT-0500 (Central Daylight Time),410303.99999999953,A,butto,O,o,199,1,2182.699999999255,408121.3000000003,7159,WL,A,4.0
3,11.229000091552734,learn,48770.999908447266,Wed Jun 04 2025 10:52:43 GMT-0500 (Central Daylight Time),410603.3999999999,A,button,O,n,285,1,2482.0999999996275,408121.3000000003,7159,WL,A,4.0
3,12.078999996185303,learn,47921.0000038147,Wed Jun 04 2025 10:52:43 GMT-0500 (Central Daylight Time),411453.3999999999,A,buttonenter,O,enter,843,1,3332.0999999996275,408121.3000000003,7159,WL,A,4.0
3,14.111000061035156,learn,45888.999938964844,Wed Jun 04 2025 10:52:43 GMT-0500 (Central Daylight Time),413485.1999999997,A,c,O,c,2024,1,2031.3999999994412,411453.8000000003,7159,WL,A,5.0
3,14.446000099182129,learn,45553.99990081787,Wed Jun 04 2025 10:52:43 GMT-0500 (Central Daylight Time),413820.1999999997,A,ch,O,h,328,1,2366.399999999441,411453.8000000003,7159,WL,A,5.0
3,14.778000116348267,learn,45221.99988365173,Wed Jun 04 2025 10:52:43 GMT-0500 (Central Daylight Time),414152.6000000001,A,chi,O,i,321,1,2698.7999999998137,411453.8000000003,7159,WL,A,5.0
3,15.111999988555908,learn,44888.00001144409,Wed Jun 04 2025 10:52:43 GMT-0500 (Central Daylight Time),414486.1000000001,A,chim,O,m,317,1,3032.2999999998137,411453.8000000003,7159,WL,A,5.0
3,16.777000188827515,learn,43222.999811172485,Wed Jun 04 2025 10:52:43 GMT-0500 (Central Daylight Time),416151.8000000003,A,chimn,O,n,1654,1,4698.0,411453.8000000003,7159,WL,A,5.0
3,17.4280002117157,learn,42571.9997882843,Wed Jun 04 2025 10:52:43 GMT-0500 (Central Daylight Time),416801.8999999999,A,chimne,O,e,638,1,5348.0999999996275,411453.8000000003,7159,WL,A,5.0
3,17.811000108718872,learn,42188.99989128113,Wed Jun 04 2025 10:52:43 GMT-0500 (Central Daylight Time),417185.3999999999,A,chimney,O,y,364,1,5731.5999999996275,411453.8000000003,7159,WL,A,5.0
3,19.159000158309937,learn,40840.99984169006,Wed Jun 04 2025 10:52:43 GMT-0500 (Central Daylight Time),418533.8000000003,A,chimneyenter,O,enter,1332,1,7080.0,411453.8000000003,7159,WL,A,5.0
3,19.943000078201294,learn,40056.999921798706,Wed Jun 04 2025 10:52:43 GMT-0500 (Central Daylight Time),419318.1000000001,A,l,O,l,778,1,784.1000000005588,418533.99999999953,7159,WL,A,6.0
3,20.20900011062622,learn,39790.99988937378,Wed Jun 04 2025 10:52:43 GMT-0500 (Central Daylight Time),419583.8000000003,A,lo,O,o,247,1,1049.800000000745,418533.99999999953,7159,WL,A,6.0
3,20.576000213623047,learn,39423.99978637695,Wed Jun 04 2025 10:52:43 GMT-0500 (Central Daylight Time),419950.8000000003,A,log,O,g,357,1,1416.800000000745,418533.99999999953,7159,WL,A,6.0
3,21.27900004386902,learn,38720.99995613098,Wed Jun 04 2025 10:52:43 GMT-0500 (Central Daylight Time),420653.99999999953,A,logenter,O,enter,685,1,2120.0,418533.99999999953,7159,WL,A,6.0
3,22.277000188827515,learn,37722.999811172485,Wed Jun 04 2025 10:52:43 GMT-0500 (Central Daylight Time),421651.8999999999,A,b,O,b,976,1,997.0,420654.8999999999,7159,WL,A,7.0
3,22.641000032424927,learn,37358.99996757507,Wed Jun 04 2025 10:52:43 GMT-0500 (Central Daylight Time),422015.3999999999,A,bo,O,o,353,1,1360.5,420654.8999999999,7159,WL,A,7.0
3,22.909000158309937,learn,37090.99984169006,Wed Jun 04 2025 10:52:43 GMT-0500 (Central Daylight Time),422284.3000000003,A,boo,O,o,248,1,1629.4000000003725,420654.8999999999,7159,WL,A,7.0
3,23.12600016593933,learn,36873.99983406067,Wed Jun 04 2025 10:52:43 GMT-0500 (Central Daylight Time),422501.3000000003,A,book,O,k,210,1,1846.4000000003725,420654.8999999999,7159,WL,A,7.0
3,23.975000143051147,learn,36024.99985694885,Wed Jun 04 2025 10:52:43 GMT-0500 (Central Daylight Time),423349.99999999953,A,bookenter,O,enter,832,1,2695.0999999996275,420654.8999999999,7159,WL,A,7.0
3,25.374000072479248,learn,34625.99992752075,Wed Jun 04 2025 10:52:43 GMT-0500 (Central Daylight Time),424749.3999999999,A,f,O,f,1378,1,1399.2000000001863,423350.1999999997,7159,WL,A,8.0
3,25.757000207901,learn,34242.999792099,Wed Jun 04 2025 10:52:43 GMT-0500 (Central Daylight Time),425131.6000000001,A,fl,O,l,367,1,1781.4000000003725,423350.1999999997,7159,WL,A,8.0
3,26.007000207901,learn,33992.999792099,Wed Jun 04 2025 10:52:43 GMT-0500 (Central Daylight Time),425382.6000000001,A,flo,O,o,239,1,2032.4000000003725,423350.1999999997,7159,WL,A,8.0
3,26.409000158309937,learn,33590.99984169006,Wed Jun 04 2025 10:52:43 GMT-0500 (Central Daylight Time),425783.8999999999,A,flow,O,w,381,1,2433.7000000001863,423350.1999999997,7159,WL,A,8.0
3,26.66000008583069,learn,33339.99991416931,Wed Jun 04 2025 10:52:43 GMT-0500 (Central Daylight Time),426035.1000000001,A,flowe,O,e,236,1,2684.9000000003725,423350.1999999997,7159,WL,A,8.0
3,26.892000198364258,learn,33107.99980163574,Wed Jun 04 2025 10:52:43 GMT-0500 (Central Daylight Time),426266.99999999953,A,flower,O,r,226,1,2916.7999999998137,423350.1999999997,7159,WL,A,8.0
3,28.02300000190735,learn,31976.99999809265,Wed Jun 04 2025 10:52:43 GMT-0500 (Central Daylight Time),427397.6999999997,A,flowerenter,O,enter,1114,1,4047.5,423350.1999999997,7159,WL,A,8.0
3,29.70900011062622,learn,30290.99988937378,Wed Jun 04 2025 10:52:43 GMT-0500 (Central Daylight Time),429084.1999999997,A,t,O,t,1681,1,1686.0999999996275,427398.1000000001,7159,WL,A,9.0
3,29.907999992370605,learn,30092.000007629395,Wed Jun 04 2025 10:52:43 GMT-0500 (Central Daylight Time),429282.8999999999,A,tr,O,r,193,1,1884.7999999998137,427398.1000000001,7159,WL,A,9.0
3,30.305000066757202,learn,29694.999933242798,Wed Jun 04 2025 10:52:43 GMT-0500 (Central Daylight Time),429680.1000000001,A,tra,O,a,378,1,2282.0,427398.1000000001,7159,WL,A,9.0
3,30.574000120162964,learn,29425.999879837036,Wed Jun 04 2025 10:52:43 GMT-0500 (Central Daylight Time),429948.8999999999,A,trai,O,i,262,1,2550.7999999998137,427398.1000000001,7159,WL,A,9.0
3,30.789000034332275,learn,29210.999965667725,Wed Jun 04 2025 10:52:43 GMT-0500 (Central Daylight Time),430163.6999999997,A,train,O,n,193,1,2765.5999999996275,427398.1000000001,7159,WL,A,9.0
3,32.039000034332275,learn,27960.999965667725,Wed Jun 04 2025 10:52:43 GMT-0500 (Central Daylight Time),431413.99999999953,A,trainenter,O,enter,1238,1,4015.899999999441,427398.1000000001,7159,WL,A,9.0
3,33.28800010681152,learn,26711.999893188477,Wed Jun 04 2025 10:52:43 GMT-0500 (Central Daylight Time),432663.1999999997,A,r,O,r,1231,1,1248.8999999994412,431414.3000000003,7159,WL,A,10.0
3,33.47100019454956,learn,26528.99980545044,Wed Jun 04 2025 10:52:43 GMT-0500 (Central Daylight Time),432845.99999999953,A,ru,O,u,174,1,1431.699999999255,431414.3000000003,7159,WL,A,10.0
3,33.97100019454956,learn,26028.99980545044,Wed Jun 04 2025 10:52:43 GMT-0500 (Central Daylight Time),433346.1999999997,A,rug,O,g,487,1,1931.8999999994412,431414.3000000003,7159,WL,A,10.0
3,35.105000019073486,learn,24894.999980926514,Wed Jun 04 2025 10:52:43 GMT-0500 (Central Daylight Time),434479.8000000003,A,rugenter,O,enter,1117,1,3065.5,431414.3000000003,7159,WL,A,10.0
3,36.47100019454956,learn,23528.99980545044,Wed Jun 04 2025 10:52:43 GMT-0500 (Central Daylight Time),435845.8000000003,A,m,O,m,1349,1,1365.7000000001863,434480.1000000001,7159,WL,A,11.0
3,36.67200016975403,learn,23327.99983024597,Wed Jun 04 2025 10:52:43 GMT-0500 (Central Daylight Time),436046.3999999999,A,me,O,e,195,1,1566.2999999998137,434480.1000000001,7159,WL,A,11.0
3,36.9210000038147,learn,23078.999996185303,Wed Jun 04 2025 10:52:43 GMT-0500 (Central Daylight Time),436295.49999999953,A,mea,O,a,229,1,1815.3999999994412,434480.1000000001,7159,WL,A,11.0
3,37.13800001144409,learn,22861.99998855591,Wed Jun 04 2025 10:52:43 GMT-0500 (Central Daylight Time),436512.6999999997,A,mead,O,d,197,1,2032.5999999996275,434480.1000000001,7159,WL,A,11.0
3,37.48800015449524,learn,22511.99984550476,Wed Jun 04 2025 10:52:43 GMT-0500 (Central Daylight Time),436862.3999999999,A,meado,O,o,332,1,2382.2999999998137,434480.1000000001,7159,WL,A,11.0
3,37.73699998855591,learn,22263.00001144409,Wed Jun 04 2025 10:52:43 GMT-0500 (Central Daylight Time),437111.8999999999,A,meadow,O,w,239,1,2631.7999999998137,434480.1000000001,7159,WL,A,11.0
3,39.45300006866455,learn,20546.99993133545,Wed Jun 04 2025 10:52:43 GMT-0500 (Central Daylight Time),438827.6999999997,A,meadowenter,O,enter,1701,1,4347.5999999996275,434480.1000000001,7159,WL,A,11.0
3,40.38600015640259,learn,19613.999843597412,Wed Jun 04 2025 10:52:43 GMT-0500 (Central Daylight Time),439761.1000000001,A,s,O,s,913,1,933.1000000005588,438827.99999999953,7159,WL,A,12.0
3,40.55200004577637,learn,19447.999954223633,Wed Jun 04 2025 10:52:43 GMT-0500 (Central Daylight Time),439926.3999999999,A,sa,O,a,155,1,1098.4000000003725,438827.99999999953,7159,WL,A,12.0
3,41.10199999809265,learn,18898.00000190735,Wed Jun 04 2025 10:52:43 GMT-0500 (Central Daylight Time),440476.6000000001,A,sal,O,l,544,1,1648.6000000005588,438827.99999999953,7159,WL,A,12.0
3,41.40300011634827,learn,18596.999883651733,Wed Jun 04 2025 10:52:43 GMT-0500 (Central Daylight Time),440777.99999999953,A,salt,O,t,281,1,1950.0,438827.99999999953,7159,WL,A,12.0
3,42.35300016403198,learn,17646.999835968018,Wed Jun 04 2025 10:52:43 GMT-0500 (Central Daylight Time),441727.3999999999,A,saltenter,O,enter,930,1,2899.4000000003725,438827.99999999953,7159,WL,A,12.0
3,46.735000133514404,learn,13264.999866485596,Wed Jun 04 2025 10:52:43 GMT-0500 (Central Daylight Time),446109.6999999997,A,h,O,h,4366,1,4382.0,441727.6999999997,7159,WL,A,13.0
3,47.01700019836426,learn,12982.999801635742,Wed Jun 04 2025 10:52:43 GMT-0500 (Central Daylight Time),446392.1000000001,A,ha,O,a,272,1,4664.4000000003725,441727.6999999997,7159,WL,A,13.0
3,47.367000102996826,learn,12632.999897003174,Wed Jun 04 2025 10:52:43 GMT-0500 (Central Daylight Time),446741.6999999997,A,har,O,r,344,1,5014.0,441727.6999999997,7159,WL,A,13.0
3,47.68500018119812,learn,12314.99981880188,Wed Jun 04 2025 10:52:43 GMT-0500 (Central Daylight Time),447059.49999999953,A,harp,O,p,311,1,5331.799999999814,441727.6999999997,7159,WL,A,13.0
3,48.40000009536743,learn,11599.999904632568,Wed Jun 04 2025 10:52:43 GMT-0500 (Central Daylight Time),447774.8999999999,A,harpenter,O,enter,697,1,6047.200000000186,441727.6999999997,7159,WL,A,13.0
3,49.76700019836426,learn,10232.999801635742,Wed Jun 04 2025 10:52:43 GMT-0500 (Central Daylight Time),449141.6999999997,A,f,O,f,1361,1,1366.5999999996275,447775.1000000001,7159,WL,A,14.0
3,49.99900007247925,learn,10000.999927520752,Wed Jun 04 2025 10:52:43 GMT-0500 (Central Daylight Time),449373.6000000001,A,fi,O,i,215,1,1598.5,447775.1000000001,7159,WL,A,14.0
3,50.21600008010864,learn,9783.999919891357,Wed Jun 04 2025 10:52:43 GMT-0500 (Central Daylight Time),449590.99999999953,A,fin,O,n,206,1,1815.8999999994412,447775.1000000001,7159,WL,A,14.0
3,50.48200011253357,learn,9517.99988746643,Wed Jun 04 2025 10:52:43 GMT-0500 (Central Daylight Time),449857.3000000003,A,fing,O,g,254,1,2082.2000000001863,447775.1000000001,7159,WL,A,14.0
3,50.75,learn,9250.0,Wed Jun 04 2025 10:52:43 GMT-0500 (Central Daylight Time),450124.6999999997,A,finge,O,e,252,1,2349.5999999996275,447775.1000000001,7159,WL,A,14.0
3,51.0,learn,9000.0,Wed Jun 04 2025 10:52:43 GMT-0500 (Central Daylight Time),450374.3000000003,A,finger,O,r,230,1,2599.2000000001863,447775.1000000001,7159,WL,A,14.0
3,51.71500015258789,learn,8284.99984741211,Wed Jun 04 2025 10:52:43 GMT-0500 (Central Daylight Time),451089.8999999999,A,fingerenter,O,enter,702,1,3314.7999999998137,447775.1000000001,7159,WL,A,14.0
3,54.497000217437744,learn,5502.999782562256,Wed Jun 04 2025 10:52:43 GMT-0500 (Central Daylight Time),453871.3999999999,A,b,O,b,2770,1,2781.4000000003725,451089.99999999953,7159,WL,A,15.0
3,54.69700002670288,learn,5302.999973297119,Wed Jun 04 2025 10:52:43 GMT-0500 (Central Daylight Time),454071.8999999999,A,bu,O,u,190,1,2981.9000000003725,451089.99999999953,7159,WL,A,15.0
3,55.05000019073486,learn,4949.999809265137,Wed Jun 04 2025 10:52:43 GMT-0500 (Central Daylight Time),454424.99999999953,A,but,O,t,342,1,3335.0,451089.99999999953,7159,WL,A,15.0
3,55.19600009918213,learn,4803.999900817871,Wed Jun 04 2025 10:52:43 GMT-0500 (Central Daylight Time),454570.49999999953,A,butt,O,t,140,1,3480.5,451089.99999999953,7159,WL,A,15.0
3,55.38100004196167,learn,4618.99995803833,Wed Jun 04 2025 10:52:43 GMT-0500 (Central Daylight Time),454755.99999999953,A,butto,O,o,172,1,3666.0,451089.99999999953,7159,WL,A,15.0
3,55.581000089645386,learn,4418.999910354614,Wed Jun 04 2025 10:52:43 GMT-0500 (Central Daylight Time),454955.6999999997,A,button,O,n,184,1,3865.7000000001863,451089.99999999953,7159,WL,A,15.0
3,56.23200011253357,learn,3767.9998874664307,Wed Jun 04 2025 10:52:43 GMT-0500 (Central Daylight Time),455606.8999999999,A,buttonenter,O,enter,632,1,4516.9000000003725,451089.99999999953,7159,WL,A,15.0
4,1.2320001125335693,learn,58767.99988746643,Wed Jun 04 2025 10:52:43 GMT-0500 (Central Daylight Time),526682.6999999997,A,a,O,a,1218,1,1232.2000000001863,525450.4999999995,7159,WL,A,1.0
4,1.5989999771118164,learn,58401.00002288818,Wed Jun 04 2025 10:52:43 GMT-0500 (Central Daylight Time),527049.8999999999,A,ap,O,p,355,1,1599.4000000003725,525450.4999999995,7159,WL,A,1.0
4,1.7660000324249268,learn,58233.99996757507,Wed Jun 04 2025 10:52:43 GMT-0500 (Central Daylight Time),527216.6000000001,A,app,O,p,145,1,1766.1000000005588,525450.4999999995,7159,WL,A,1.0
4,1.9660000801086426,learn,58033.99991989136,Wed Jun 04 2025 10:52:43 GMT-0500 (Central Daylight Time),527416.4999999995,A,appl,O,l,187,1,1966.0,525450.4999999995,7159,WL,A,1.0
4,2.1490001678466797,learn,57850.99983215332,Wed Jun 04 2025 10:52:43 GMT-0500 (Central Daylight Time),527599.3000000003,A,apple,O,e,172,1,2148.800000000745,525450.4999999995,7159,WL,A,1.0
4,3.8489999771118164,learn,56151.00002288818,Wed Jun 04 2025 10:52:43 GMT-0500 (Central Daylight Time),529299.8000000003,A,appleenter,O,enter,1694,1,3849.300000000745,525450.4999999995,7159,WL,A,1.0
4,7.900000095367432,learn,52099.99990463257,Wed Jun 04 2025 10:52:43 GMT-0500 (Central Daylight Time),533349.9999999995,A,g,O,g,4044,1,4050.0,529299.9999999995,7159,WL,A,2.0
4,8.163000106811523,learn,51836.99989318848,Wed Jun 04 2025 10:52:43 GMT-0500 (Central Daylight Time),533613.3000000003,A,go,O,o,243,1,4313.300000000745,529299.9999999995,7159,WL,A,2.0
4,8.397000074386597,learn,51602.9999256134,Wed Jun 04 2025 10:52:43 GMT-0500 (Central Daylight Time),533846.8999999999,A,gol,O,l,216,1,4546.9000000003725,529299.9999999995,7159,WL,A,2.0
4,8.848000049591064,learn,51151.999950408936,Wed Jun 04 2025 10:52:43 GMT-0500 (Central Daylight Time),534298.6000000001,A,gold,O,d,446,1,4998.600000000559,529299.9999999995,7159,WL,A,2.0
4,9.314000129699707,learn,50685.99987030029,Wed Jun 04 2025 10:52:43 GMT-0500 (Central Daylight Time),534763.9999999995,A,goldenter,O,enter,443,1,5464.0,529299.9999999995,7159,WL,A,2.0
4,11.047000169754028,learn,48952.99983024597,Wed Jun 04 2025 10:52:43 GMT-0500 (Central Daylight Time),536497.3000000003,A,k,O,k,1722,1,1733.0,534764.3000000003,7159,WL,A,3.0
4,11.263000011444092,learn,48736.99998855591,Wed Jun 04 2025 10:52:43 GMT-0500 (Central Daylight Time),536713.6999999997,A,ke,O,e,196,1,1949.3999999994412,534764.3000000003,7159,WL,A,3.0
4,11.680999994277954,learn,48319.000005722046,Wed Jun 04 2025 10:52:43 GMT-0500 (Central Daylight Time),537131.8999999999,A,key,O,y,411,1,2367.5999999996275,534764.3000000003,7159,WL,A,3.0
4,12.396000146865845,learn,47603.999853134155,Wed Jun 04 2025 10:52:43 GMT-0500 (Central Daylight Time),537846.1000000001,A,keyenter,O,enter,703,1,3081.7999999998137,534764.3000000003,7159,WL,A,3.0
4,13.080000162124634,learn,46919.999837875366,Wed Jun 04 2025 10:52:43 GMT-0500 (Central Daylight Time),538530.9999999995,A,r,O,r,680,1,684.6999999992549,537846.3000000003,7159,WL,A,4.0
4,13.479000091552734,learn,46520.999908447266,Wed Jun 04 2025 10:52:43 GMT-0500 (Central Daylight Time),538929.6999999997,A,ra,O,a,374,1,1083.3999999994412,537846.3000000003,7159,WL,A,4.0
4,13.878999948501587,learn,46121.00005149841,Wed Jun 04 2025 10:52:43 GMT-0500 (Central Daylight Time),539329.9999999995,A,rat,O,t,378,1,1483.699999999255,537846.3000000003,7159,WL,A,4.0
4,14.046000003814697,learn,45953.9999961853,Wed Jun 04 2025 10:52:43 GMT-0500 (Central Daylight Time),539496.9999999995,A,ratt,O,t,146,1,1650.699999999255,537846.3000000003,7159,WL,A,4.0
4,14.279000043869019,learn,45720.99995613098,Wed Jun 04 2025 10:52:43 GMT-0500 (Central Daylight Time),539729.6999999997,A,rattl,O,l,210,1,1883.3999999994412,537846.3000000003,7159,WL,A,4.0
4,14.462000131607056,learn,45537.999868392944,Wed Jun 04 2025 10:52:43 GMT-0500 (Central Daylight Time),539912.6000000001,A,rattle,O,e,161,1,2066.2999999998137,537846.3000000003,7159,WL,A,4.0
4,15.594000101089478,learn,44405.99989891052,Wed Jun 04 2025 10:52:43 GMT-0500 (Central Daylight Time),541044.3000000003,A,rattleenter,O,enter,1122,1,3198.0,537846.3000000003,7159,WL,A,4.0
4,16.296000003814697,learn,43703.9999961853,Wed Jun 04 2025 10:52:43 GMT-0500 (Central Daylight Time),541746.6000000001,A,b,O,b,697,1,702.0,541044.6000000001,7159,WL,A,5.0
4,16.594000101089478,learn,43405.99989891052,Wed Jun 04 2025 10:52:43 GMT-0500 (Central Daylight Time),542044.8000000003,A,bu,O,u,281,1,1000.2000000001863,541044.6000000001,7159,WL,A,5.0
4,16.913000106811523,learn,43086.99989318848,Wed Jun 04 2025 10:52:43 GMT-0500 (Central Daylight Time),542363.6000000001,A,but,O,t,312,1,1319.0,541044.6000000001,7159,WL,A,5.0
4,17.0770001411438,learn,42922.9998588562,Wed Jun 04 2025 10:52:43 GMT-0500 (Central Daylight Time),542528.1000000001,A,butt,O,t,143,1,1483.5,541044.6000000001,7159,WL,A,5.0
4,17.243000030517578,learn,42756.99996948242,Wed Jun 04 2025 10:52:43 GMT-0500 (Central Daylight Time),542693.8000000003,A,butto,O,o,146,1,1649.2000000001863,541044.6000000001,7159,WL,A,5.0
4,18.009999990463257,learn,41990.00000953674,Wed Jun 04 2025 10:52:43 GMT-0500 (Central Daylight Time),543460.8000000003,A,button,O,n,753,1,2416.2000000001863,541044.6000000001,7159,WL,A,5.0
4,18.66000008583069,learn,41339.99991416931,Wed Jun 04 2025 10:52:43 GMT-0500 (Central Daylight Time),544110.6000000001,A,buttonenter,O,enter,639,1,3066.0,541044.6000000001,7159,WL,A,5.0
4,19.34500002861023,learn,40654.99997138977,Wed Jun 04 2025 10:52:43 GMT-0500 (Central Daylight Time),544795.9999999995,A,h,O,h,679,1,685.0999999996275,544110.8999999999,7159,WL,A,6.0
4,19.542999982833862,learn,40457.00001716614,Wed Jun 04 2025 10:52:43 GMT-0500 (Central Daylight Time),544993.6999999997,A,ha,O,a,184,1,882.7999999998137,544110.8999999999,7159,WL,A,6.0
4,19.89300012588501,learn,40106.99987411499,Wed Jun 04 2025 10:52:43 GMT-0500 (Central Daylight Time),545343.4999999995,A,har,O,r,331,1,1232.5999999996275,544110.8999999999,7159,WL,A,6.0
4,20.176000118255615,learn,39823.999881744385,Wed Jun 04 2025 10:52:43 GMT-0500 (Central Daylight Time),545627.3000000003,A,harp,O,p,268,1,1516.4000000003725,544110.8999999999,7159,WL,A,6.0
4,20.843000173568726,learn,39156.999826431274,Wed Jun 04 2025 10:52:43 GMT-0500 (Central Daylight Time),546293.8000000003,A,harpenter,O,enter,645,1,2182.9000000003725,544110.8999999999,7159,WL,A,6.0
4,21.325999975204468,learn,38674.00002479553,Wed Jun 04 2025 10:52:43 GMT-0500 (Central Daylight Time),546777.1000000001,A,f,O,f,464,1,483.0,546294.1000000001,7159,WL,A,7.0
4,21.545000076293945,learn,38454.999923706055,Wed Jun 04 2025 10:52:43 GMT-0500 (Central Daylight Time),546995.4999999995,A,fi,O,i,211,1,701.3999999994412,546294.1000000001,7159,WL,A,7.0
4,21.76200008392334,learn,38237.99991607666,Wed Jun 04 2025 10:52:43 GMT-0500 (Central Daylight Time),547212.4999999995,A,fin,O,n,210,1,918.3999999994412,546294.1000000001,7159,WL,A,7.0
4,22.242000102996826,learn,37757.999897003174,Wed Jun 04 2025 10:52:43 GMT-0500 (Central Daylight Time),547693.3000000003,A,fing,O,g,471,1,1399.2000000001863,546294.1000000001,7159,WL,A,7.0
4,22.427000045776367,learn,37572.99995422363,Wed Jun 04 2025 10:52:43 GMT-0500 (Central Daylight Time),547877.6000000001,A,finge,O,e,178,1,1583.5,546294.1000000001,7159,WL,A,7.0
4,22.62600016593933,learn,37373.99983406067,Wed Jun 04 2025 10:52:43 GMT-0500 (Central Daylight Time),548076.3999999999,A,finger,O,r,191,1,1782.2999999998137,546294.1000000001,7159,WL,A,7.0
4,23.4760000705719,learn,36523.9999294281,Wed Jun 04 2025 10:52:43 GMT-0500 (Central Daylight Time),548926.6000000001,A,fingerenter,O,enter,837,1,2632.5,546294.1000000001,7159,WL,A,7.0
4,24.825000047683716,learn,35174.999952316284,Wed Jun 04 2025 10:52:43 GMT-0500 (Central Daylight Time),550276.1999999997,A,s,O,s,1335,1,1349.3999999994412,548926.8000000003,7159,WL,A,8.0
4,24.993000030517578,learn,35006.99996948242,Wed Jun 04 2025 10:52:43 GMT-0500 (Central Daylight Time),550443.6000000001,A,sa,O,a,162,1,1516.7999999998137,548926.8000000003,7159,WL,A,8.0
4,25.30900001525879,learn,34690.99998474121,Wed Jun 04 2025 10:52:43 GMT-0500 (Central Daylight Time),550759.3000000003,A,sal,O,l,295,1,1832.5,548926.8000000003,7159,WL,A,8.0
4,25.674000024795532,learn,34325.99997520447,Wed Jun 04 2025 10:52:43 GMT-0500 (Central Daylight Time),551124.9999999995,A,salt,O,t,343,1,2198.199999999255,548926.8000000003,7159,WL,A,8.0
4,26.325000047683716,learn,33674.999952316284,Wed Jun 04 2025 10:52:43 GMT-0500 (Central Daylight Time),551775.6999999997,A,saltenter,O,enter,639,1,2848.899999999441,548926.8000000003,7159,WL,A,8.0
4,27.85700011253357,learn,32142.99988746643,Wed Jun 04 2025 10:52:43 GMT-0500 (Central Daylight Time),553307.6000000001,A,l,O,l,1518,1,1531.7000000001863,551775.8999999999,7159,WL,A,9.0
4,28.09000015258789,learn,31909.99984741211,Wed Jun 04 2025 10:52:43 GMT-0500 (Central Daylight Time),553540.6999999997,A,lo,O,o,217,1,1764.7999999998137,551775.8999999999,7159,WL,A,9.0
4,28.35700011253357,learn,31642.99988746643,Wed Jun 04 2025 10:52:43 GMT-0500 (Central Daylight Time),553808.3000000003,A,log,O,g,257,1,2032.4000000003725,551775.8999999999,7159,WL,A,9.0
4,28.890000104904175,learn,31109.999895095825,Wed Jun 04 2025 10:52:43 GMT-0500 (Central Daylight Time),554340.8000000003,A,logenter,O,enter,517,1,2564.9000000003725,551775.8999999999,7159,WL,A,9.0
4,30.623000144958496,learn,29376.999855041504,Wed Jun 04 2025 10:52:43 GMT-0500 (Central Daylight Time),556074.1999999997,A,c,O,c,1720,1,1733.0,554341.1999999997,7159,WL,A,10.0
4,30.841000080108643,learn,29158.999919891357,Wed Jun 04 2025 10:52:43 GMT-0500 (Central Daylight Time),556291.4999999995,A,ch,O,h,212,1,1950.2999999998137,554341.1999999997,7159,WL,A,10.0
4,31.138999938964844,learn,28861.000061035156,Wed Jun 04 2025 10:52:43 GMT-0500 (Central Daylight Time),556589.6000000001,A,chi,O,i,281,1,2248.4000000003725,554341.1999999997,7159,WL,A,10.0
4,31.491000175476074,learn,28508.999824523926,Wed Jun 04 2025 10:52:43 GMT-0500 (Central Daylight Time),556941.4999999995,A,chim,O,m,345,1,2600.2999999998137,554341.1999999997,7159,WL,A,10.0
4,31.98900008201599,learn,28010.99991798401,Wed Jun 04 2025 10:52:43 GMT-0500 (Central Daylight Time),557439.4999999995,A,chimn,O,n,479,1,3098.2999999998137,554341.1999999997,7159,WL,A,10.0
4,32.241000175476074,learn,27758.999824523926,Wed Jun 04 2025 10:52:43 GMT-0500 (Central Daylight Time),557691.6000000001,A,chimne,O,e,229,1,3350.4000000003725,554341.1999999997,7159,WL,A,10.0
4,32.49000000953674,learn,27509.999990463257,Wed Jun 04 2025 10:52:43 GMT-0500 (Central Daylight Time),557940.8000000003,A,chimney,O,y,233,1,3599.600000000559,554341.1999999997,7159,WL,A,10.0
4,33.25600004196167,learn,26743.99995803833,Wed Jun 04 2025 10:52:43 GMT-0500 (Central Daylight Time),558706.6999999997,A,chimneyenter,O,enter,760,1,4365.5,554341.1999999997,7159,WL,A,10.0
4,37.40499997138977,learn,22595.00002861023,Wed Jun 04 2025 10:52:43 GMT-0500 (Central Daylight Time),562855.4999999995,A,r,O,r,4130,1,4148.399999999441,558707.1000000001,7159,WL,A,11.0
4,37.65499997138977,learn,22345.00002861023,Wed Jun 04 2025 10:52:43 GMT-0500 (Central Daylight Time),563105.6000000001,A,ru,O,u,228,1,4398.5,558707.1000000001,7159,WL,A,11.0
4,38.05400013923645,learn,21945.99986076355,Wed Jun 04 2025 10:52:43 GMT-0500 (Central Daylight Time),563504.6999999997,A,rug,O,g,387,1,4797.5999999996275,558707.1000000001,7159,WL,A,11.0
4,38.60300016403198,learn,21396.999835968018,Wed Jun 04 2025 10:52:43 GMT-0500 (Central Daylight Time),564054.1999999997,A,rugenter,O,enter,540,1,5347.0999999996275,558707.1000000001,7159,WL,A,11.0
4,40.30400013923645,learn,19695.99986076355,Wed Jun 04 2025 10:52:43 GMT-0500 (Central Daylight Time),565754.8000000003,A,t,O,t,1695,1,1700.4000000003725,564054.3999999999,7159,WL,A,12.0
4,40.50500011444092,learn,19494.999885559082,Wed Jun 04 2025 10:52:43 GMT-0500 (Central Daylight Time),565955.8999999999,A,tr,O,r,196,1,1901.5,564054.3999999999,7159,WL,A,12.0
4,40.819000005722046,learn,19180.999994277954,Wed Jun 04 2025 10:52:43 GMT-0500 (Central Daylight Time),566270.3000000003,A,tra,O,a,298,1,2215.9000000003725,564054.3999999999,7159,WL,A,12.0
4,41.10599994659424,learn,18894.00005340576,Wed Jun 04 2025 10:52:43 GMT-0500 (Central Daylight Time),566556.8999999999,A,trai,O,i,264,1,2502.5,564054.3999999999,7159,WL,A,12.0
4,41.28699994087219,learn,18713.000059127808,Wed Jun 04 2025 10:52:43 GMT-0500 (Central Daylight Time),566737.6999999997,A,train,O,n,167,1,2683.2999999998137,564054.3999999999,7159,WL,A,12.0
4,42.019999980926514,learn,17980.000019073486,Wed Jun 04 2025 10:52:43 GMT-0500 (Central Daylight Time),567470.9999999995,A,trainenter,O,enter,722,1,3416.5999999996275,564054.3999999999,7159,WL,A,12.0
4,43.03699994087219,learn,16963.000059127808,Wed Jun 04 2025 10:52:43 GMT-0500 (Central Daylight Time),568487.8000000003,A,b,O,b,998,1,1016.5,567471.3000000003,7159,WL,A,13.0
4,43.519999980926514,learn,16480.000019073486,Wed Jun 04 2025 10:52:43 GMT-0500 (Central Daylight Time),568971.1999999997,A,bo,O,o,477,1,1499.8999999994412,567471.3000000003,7159,WL,A,13.0
4,43.72099995613098,learn,16279.000043869019,Wed Jun 04 2025 10:52:43 GMT-0500 (Central Daylight Time),569171.4999999995,A,boo,O,o,179,1,1700.199999999255,567471.3000000003,7159,WL,A,13.0
4,43.91799998283386,learn,16082.000017166138,Wed Jun 04 2025 10:52:43 GMT-0500 (Central Daylight Time),569368.8000000003,A,book,O,k,179,1,1897.5,567471.3000000003,7159,WL,A,13.0
4,44.801000118255615,learn,15198.999881744385,Wed Jun 04 2025 10:52:43 GMT-0500 (Central Daylight Time),570251.4999999995,A,bookenter,O,enter,875,1,2780.199999999255,567471.3000000003,7159,WL,A,13.0
4,46.134000062942505,learn,13865.999937057495,Wed Jun 04 2025 10:52:43 GMT-0500 (Central Daylight Time),571585.3999999999,A,f,O,f,1322,1,1333.7000000001863,570251.6999999997,7159,WL,A,14.0
4,46.468000173568726,learn,13531.999826431274,Wed Jun 04 2025 10:52:43 GMT-0500 (Central Daylight Time),571918.4999999995,A,fl,O,l,315,1,1666.7999999998137,570251.6999999997,7159,WL,A,14.0
4,46.66799998283386,learn,13332.000017166138,Wed Jun 04 2025 10:52:43 GMT-0500 (Central Daylight Time),572118.8000000003,A,flo,O,o,190,1,1867.1000000005588,570251.6999999997,7159,WL,A,14.0
4,47.01800012588501,learn,12981.99987411499,Wed Jun 04 2025 10:52:43 GMT-0500 (Central Daylight Time),572468.8999999999,A,flow,O,w,334,1,2217.2000000001863,570251.6999999997,7159,WL,A,14.0
4,47.25100016593933,learn,12748.999834060669,Wed Jun 04 2025 10:52:43 GMT-0500 (Central Daylight Time),572702.3000000003,A,flowe,O,e,215,1,2450.600000000559,570251.6999999997,7159,WL,A,14.0
4,47.468000173568726,learn,12531.999826431274,Wed Jun 04 2025 10:52:43 GMT-0500 (Central Daylight Time),572918.6999999997,A,flower,O,r,199,1,2667.0,570251.6999999997,7159,WL,A,14.0
4,48.28400015830994,learn,11715.999841690063,Wed Jun 04 2025 10:52:43 GMT-0500 (Central Daylight Time),573734.3999999999,A,flowerenter,O,enter,796,1,3482.7000000001863,570251.6999999997,7159,WL,A,14.0
4,50.819000005722046,learn,9180.999994277954,Wed Jun 04 2025 10:52:43 GMT-0500 (Central Daylight Time),576270.3000000003,A,m,O,m,2531,1,2535.600000000559,573734.6999999997,7159,WL,A,15.0
4,51.58500003814697,learn,8414.999961853027,Wed Jun 04 2025 10:52:43 GMT-0500 (Central Daylight Time),577035.8999999999,A,me,O,e,759,1,3301.2000000001863,573734.6999999997,7159,WL,A,15.0
4,51.799999952316284,learn,8200.000047683716,Wed Jun 04 2025 10:52:43 GMT-0500 (Central Daylight Time),577251.1999999997,A,mea,O,a,193,1,3516.5,573734.6999999997,7159,WL,A,15.0
4,52.66499996185303,learn,7335.000038146973,Wed Jun 04 2025 10:52:43 GMT-0500 (Central Daylight Time),578116.3000000003,A,mead,O,d,859,1,4381.600000000559,573734.6999999997,7159,WL,A,15.0
4,52.89900016784668,learn,7100.99983215332,Wed Jun 04 2025 10:52:43 GMT-0500 (Central Daylight Time),578349.6999999997,A,meado,O,o,223,1,4615.0,573734.6999999997,7159,WL,A,15.0
4,53.134000062942505,learn,6865.999937057495,Wed Jun 04 2025 10:52:43 GMT-0500 (Central Daylight Time),578584.4999999995,A,meadow,O,w,214,1,4849.799999999814,573734.6999999997,7159,WL,A,15.0
4,53.88300013542175,learn,6116.999864578247,Wed Jun 04 2025 10:52:43 GMT-0500 (Central Daylight Time),579333.9999999995,A,meadowenter,O,enter,732,1,5599.299999999814,573734.6999999997,7159,WL,A,15.0
5,2.682000160217285,learn,60000.0,Wed Jun 04 2025 10:52:43 GMT-0500 (Central Daylight Time),651377.6999999997,A,g,O,g,2661,1,2682.5999999996275,648695.1000000001,7159,WL,A,1.0
5,2.932000160217285,learn,60000.0,Wed Jun 04 2025 10:52:43 GMT-0500 (Central Daylight Time),651627.6000000001,A,go,O,o,234,1,2932.5,648695.1000000001,7159,WL,A,1.0
5,3.1480000019073486,learn,60000.0,Wed Jun 04 2025 10:52:43 GMT-0500 (Central Daylight Time),651843.6000000001,A,gol,O,l,209,1,3148.5,648695.1000000001,7159,WL,A,1.0
5,3.615000009536743,learn,60000.0,Wed Jun 04 2025 10:52:43 GMT-0500 (Central Daylight Time),652310.4999999995,A,gold,O,d,450,1,3615.399999999441,648695.1000000001,7159,WL,A,1.0
5,4.965000152587891,learn,60000.0,Wed Jun 04 2025 10:52:43 GMT-0500 (Central Daylight Time),653660.4999999995,A,goldenter,O,enter,1333,1,4965.399999999441,648695.1000000001,7159,WL,A,1.0
5,6.04800009727478,learn,60000.0,Wed Jun 04 2025 10:52:43 GMT-0500 (Central Daylight Time),654743.1999999997,A,k,O,k,1066,1,1082.3999999994412,653660.8000000003,7159,WL,A,2.0
5,6.314000129699707,learn,60000.0,Wed Jun 04 2025 10:52:43 GMT-0500 (Central Daylight Time),655008.8000000003,A,ke,O,e,252,1,1348.0,653660.8000000003,7159,WL,A,2.0
5,6.781000137329102,learn,60000.0,Wed Jun 04 2025 10:52:43 GMT-0500 (Central Daylight Time),655476.3000000003,A,key,O,y,451,1,1815.5,653660.8000000003,7159,WL,A,2.0
5,7.531000137329102,learn,60000.0,Wed Jun 04 2025 10:52:43 GMT-0500 (Central Daylight Time),656226.1000000001,A,keyenter,O,enter,737,1,2565.2999999998137,653660.8000000003,7159,WL,A,2.0
5,7.9150002002716064,learn,60000.0,Wed Jun 04 2025 10:52:43 GMT-0500 (Central Daylight Time),656609.6999999997,A,r,O,r,371,1,383.20000000018626,656226.4999999995,7159,WL,A,3.0
5,8.182000160217285,learn,60000.0,Wed Jun 04 2025 10:52:43 GMT-0500 (Central Daylight Time),656876.9999999995,A,ra,O,a,263,1,650.5,656226.4999999995,7159,WL,A,3.0
5,8.547000169754028,learn,60000.0,Wed Jun 04 2025 10:52:43 GMT-0500 (Central Daylight Time),657242.6999999997,A,rat,O,t,343,1,1016.2000000001863,656226.4999999995,7159,WL,A,3.0
5,8.748000144958496,learn,60000.0,Wed Jun 04 2025 10:52:43 GMT-0500 (Central Daylight Time),657442.9999999995,A,ratt,O,t,193,1,1216.5,656226.4999999995,7159,WL,A,3.0
5,9.03000020980835,learn,60000.0,Wed Jun 04 2025 10:52:43 GMT-0500 (Central Daylight Time),657725.3000000003,A,rattl,O,l,275,1,1498.800000000745,656226.4999999995,7159,WL,A,3.0
5,9.180999994277954,learn,60000.0,Wed Jun 04 2025 10:52:43 GMT-0500 (Central Daylight Time),657876.1000000001,A,rattle,O,e,134,1,1649.6000000005588,656226.4999999995,7159,WL,A,3.0
5,9.99400019645691,learn,60000.0,Wed Jun 04 2025 10:52:43 GMT-0500 (Central Daylight Time),658689.3999999999,A,rattleenter,O,enter,807,1,2462.9000000003725,656226.4999999995,7159,WL,A,3.0
5,11.34600019454956,learn,60000.0,Wed Jun 04 2025 10:52:43 GMT-0500 (Central Daylight Time),660041.1999999997,A,l,O,l,1332,1,1351.7000000001863,658689.4999999995,7159,WL,A,4.0
5,11.57800006866455,learn,60000.0,Wed Jun 04 2025 10:52:43 GMT-0500 (Central Daylight Time),660273.8000000003,A,lo,O,o,211,1,1584.300000000745,658689.4999999995,7159,WL,A,4.0
5,11.894999980926514,learn,60000.0,Wed Jun 04 2025 10:52:43 GMT-0500 (Central Daylight Time),660590.6000000001,A,log,O,g,302,1,1901.1000000005588,658689.4999999995,7159,WL,A,4.0
5,12.147000074386597,learn,60000.0,Wed Jun 04 2025 10:52:43 GMT-0500 (Central Daylight Time),660842.6999999997,A,logenter,O,enter,246,1,2153.2000000001863,658689.4999999995,7159,WL,A,4.0
5,12.878000020980835,learn,60000.0,Wed Jun 04 2025 10:52:43 GMT-0500 (Central Daylight Time),661573.1999999997,A,c,O,c,723,1,730.2999999998137,660842.8999999999,7159,WL,A,5.0
5,13.07800006866455,learn,60000.0,Wed Jun 04 2025 10:52:43 GMT-0500 (Central Daylight Time),661773.8999999999,A,ch,O,h,192,1,931.0,660842.8999999999,7159,WL,A,5.0
5,13.278000116348267,learn,60000.0,Wed Jun 04 2025 10:52:43 GMT-0500 (Central Daylight Time),661973.1000000001,A,chi,O,i,180,1,1130.2000000001863,660842.8999999999,7159,WL,A,5.0
5,14.046000003814697,learn,60000.0,Wed Jun 04 2025 10:52:43 GMT-0500 (Central Daylight Time),662740.9999999995,A,chim,O,m,762,1,1898.0999999996275,660842.8999999999,7159,WL,A,5.0
5,14.361999988555908,learn,60000.0,Wed Jun 04 2025 10:52:43 GMT-0500 (Central Daylight Time),663057.6000000001,A,chimn,O,n,294,1,2214.7000000001863,660842.8999999999,7159,WL,A,5.0
5,14.528000116348267,learn,60000.0,Wed Jun 04 2025 10:52:43 GMT-0500 (Central Daylight Time),663223.6000000001,A,chimne,O,e,146,1,2380.7000000001863,660842.8999999999,7159,WL,A,5.0
5,14.792999982833862,learn,60000.0,Wed Jun 04 2025 10:52:43 GMT-0500 (Central Daylight Time),663488.4999999995,A,chimney,O,y,254,1,2645.5999999996275,660842.8999999999,7159,WL,A,5.0
5,15.428000211715698,learn,60000.0,Wed Jun 04 2025 10:52:43 GMT-0500 (Central Daylight Time),664123.3999999999,A,chimneyenter,O,enter,631,1,3280.5,660842.8999999999,7159,WL,A,5.0
5,16.243000030517578,learn,60000.0,Wed Jun 04 2025 10:52:43 GMT-0500 (Central Daylight Time),664938.6000000001,A,b,O,b,793,1,815.0,664123.6000000001,7159,WL,A,6.0
5,16.77500009536743,learn,60000.0,Wed Jun 04 2025 10:52:43 GMT-0500 (Central Daylight Time),665470.8999999999,A,bu,O,u,523,1,1347.2999999998137,664123.6000000001,7159,WL,A,6.0
5,17.14300012588501,learn,60000.0,Wed Jun 04 2025 10:52:43 GMT-0500 (Central Daylight Time),665837.8999999999,A,but,O,t,358,1,1714.2999999998137,664123.6000000001,7159,WL,A,6.0
5,17.30900001525879,learn,60000.0,Wed Jun 04 2025 10:52:43 GMT-0500 (Central Daylight Time),666003.9999999995,A,butt,O,t,151,1,1880.3999999994412,664123.6000000001,7159,WL,A,6.0
5,17.493000030517578,learn,60000.0,Wed Jun 04 2025 10:52:43 GMT-0500 (Central Daylight Time),666187.8999999999,A,butto,O,o,168,1,2064.2999999998137,664123.6000000001,7159,WL,A,6.0
5,17.72699999809265,learn,60000.0,Wed Jun 04 2025 10:52:43 GMT-0500 (Central Daylight Time),666422.3999999999,A,button,O,n,218,1,2298.7999999998137,664123.6000000001,7159,WL,A,6.0
5,18.460000038146973,learn,60000.0,Wed Jun 04 2025 10:52:43 GMT-0500 (Central Daylight Time),667155.6000000001,A,buttonenter,O,enter,716,1,3032.0,664123.6000000001,7159,WL,A,6.0
5,22.31000018119812,learn,60000.0,Wed Jun 04 2025 10:52:43 GMT-0500 (Central Daylight Time),671005.1999999997,A,h,O,h,3845,1,3849.2999999998137,667155.8999999999,7159,WL,A,7.0
5,22.508000135421753,learn,60000.0,Wed Jun 04 2025 10:52:43 GMT-0500 (Central Daylight Time),671203.8999999999,A,ha,O,a,183,1,4048.0,667155.8999999999,7159,WL,A,7.0
5,23.109000205993652,learn,60000.0,Wed Jun 04 2025 10:52:43 GMT-0500 (Central Daylight Time),671804.1999999997,A,har,O,r,584,1,4648.299999999814,667155.8999999999,7159,WL,A,7.0
5,23.375,learn,60000.0,Wed Jun 04 2025 10:52:43 GMT-0500 (Central Daylight Time),672070.4999999995,A,harp,O,p,260,1,4914.5999999996275,667155.8999999999,7159,WL,A,7.0
5,24.008000135421753,learn,60000.0,Wed Jun 04 2025 10:52:43 GMT-0500 (Central Daylight Time),672703.3000000003,A,harpenter,O,enter,621,1,5547.4000000003725,667155.8999999999,7159,WL,A,7.0
5,24.407999992370605,learn,60000.0,Wed Jun 04 2025 10:52:43 GMT-0500 (Central Daylight Time),673103.3999999999,A,s,O,s,392,1,400.0,672703.3999999999,7159,WL,A,8.0
5,24.64300012588501,learn,60000.0,Wed Jun 04 2025 10:52:43 GMT-0500 (Central Daylight Time),673338.1999999997,A,sa,O,a,222,1,634.7999999998137,672703.3999999999,7159,WL,A,8.0
5,25.192000150680542,learn,60000.0,Wed Jun 04 2025 10:52:43 GMT-0500 (Central Daylight Time),673887.4999999995,A,sal,O,l,539,1,1184.0999999996275,672703.3999999999,7159,WL,A,8.0
5,25.45800018310547,learn,60000.0,Wed Jun 04 2025 10:52:43 GMT-0500 (Central Daylight Time),674153.4999999995,A,salt,O,t,254,1,1450.0999999996275,672703.3999999999,7159,WL,A,8.0
5,25.907999992370605,learn,60000.0,Wed Jun 04 2025 10:52:43 GMT-0500 (Central Daylight Time),674603.1999999997,A,saltenter,O,enter,446,1,1899.7999999998137,672703.3999999999,7159,WL,A,8.0
5,27.807000160217285,learn,60000.0,Wed Jun 04 2025 10:52:43 GMT-0500 (Central Daylight Time),676502.4999999995,A,b,O,b,1882,1,1899.0999999996275,674603.3999999999,7159,WL,A,9.0
5,28.29100012779236,learn,60000.0,Wed Jun 04 2025 10:52:43 GMT-0500 (Central Daylight Time),676986.6999999997,A,bo,O,o,461,1,2383.2999999998137,674603.3999999999,7159,WL,A,9.0
5,28.474000215530396,learn,60000.0,Wed Jun 04 2025 10:52:43 GMT-0500 (Central Daylight Time),677169.3999999999,A,boo,O,o,161,1,2566.0,674603.3999999999,7159,WL,A,9.0
5,28.674000024795532,learn,60000.0,Wed Jun 04 2025 10:52:43 GMT-0500 (Central Daylight Time),677369.3000000003,A,book,O,k,187,1,2765.9000000003725,674603.3999999999,7159,WL,A,9.0
5,29.424000024795532,learn,60000.0,Wed Jun 04 2025 10:52:43 GMT-0500 (Central Daylight Time),678119.6999999997,A,bookenter,O,enter,740,1,3516.2999999998137,674603.3999999999,7159,WL,A,9.0
5,30.19000005722046,learn,60000.0,Wed Jun 04 2025 10:52:43 GMT-0500 (Central Daylight Time),678885.3000000003,A,f,O,f,749,1,765.4000000003725,678119.8999999999,7159,WL,A,10.0
5,30.44000005722046,learn,60000.0,Wed Jun 04 2025 10:52:43 GMT-0500 (Central Daylight Time),679135.1000000001,A,fl,O,l,240,1,1015.2000000001863,678119.8999999999,7159,WL,A,10.0
5,30.689000129699707,learn,60000.0,Wed Jun 04 2025 10:52:43 GMT-0500 (Central Daylight Time),679384.3999999999,A,flo,O,o,232,1,1264.5,678119.8999999999,7159,WL,A,10.0
5,30.889000177383423,learn,60000.0,Wed Jun 04 2025 10:52:43 GMT-0500 (Central Daylight Time),679584.8999999999,A,flow,O,w,186,1,1465.0,678119.8999999999,7159,WL,A,10.0
5,31.124000072479248,learn,60000.0,Wed Jun 04 2025 10:52:43 GMT-0500 (Central Daylight Time),679819.8999999999,A,flowe,O,e,228,1,1700.0,678119.8999999999,7159,WL,A,10.0
5,31.324000120162964,learn,60000.0,Wed Jun 04 2025 10:52:43 GMT-0500 (Central Daylight Time),680019.3000000003,A,flower,O,r,192,1,1899.4000000003725,678119.8999999999,7159,WL,A,10.0
5,31.92200016975403,learn,60000.0,Wed Jun 04 2025 10:52:43 GMT-0500 (Central Daylight Time),680617.8999999999,A,flowerenter,O,enter,593,1,2498.0,678119.8999999999,7159,WL,A,10.0
5,34.27300000190735,learn,60000.0,Wed Jun 04 2025 10:52:43 GMT-0500 (Central Daylight Time),682967.9999999995,A,r,O,r,2331,1,2349.899999999441,680618.1000000001,7159,WL,A,11.0
5,34.72200012207031,learn,60000.0,Wed Jun 04 2025 10:52:43 GMT-0500 (Central Daylight Time),683417.8000000003,A,,O,backspace,436,1,2799.7000000001863,680618.1000000001,7159,WL,A,11.0
5,34.98800015449524,learn,60000.0,Wed Jun 04 2025 10:52:43 GMT-0500 (Central Daylight Time),683683.4999999995,A,t,O,t,252,1,3065.399999999441,680618.1000000001,7159,WL,A,11.0
5,35.15400004386902,learn,60000.0,Wed Jun 04 2025 10:52:43 GMT-0500 (Central Daylight Time),683849.4999999995,A,tr,O,r,154,1,3231.399999999441,680618.1000000001,7159,WL,A,11.0
5,35.4060001373291,learn,60000.0,Wed Jun 04 2025 10:52:43 GMT-0500 (Central Daylight Time),684100.9999999995,A,tra,O,a,245,1,3482.899999999441,680618.1000000001,7159,WL,A,11.0
5,35.705000162124634,learn,60000.0,Wed Jun 04 2025 10:52:43 GMT-0500 (Central Daylight Time),684400.1000000001,A,trai,O,i,279,1,3782.0,680618.1000000001,7159,WL,A,11.0
5,35.88800001144409,learn,60000.0,Wed Jun 04 2025 10:52:43 GMT-0500 (Central Daylight Time),684582.9999999995,A,train,O,n,163,1,3964.899999999441,680618.1000000001,7159,WL,A,11.0
5,36.687000036239624,learn,60000.0,Wed Jun 04 2025 10:52:43 GMT-0500 (Central Daylight Time),685382.8999999999,A,trainenter,O,enter,780,1,4764.799999999814,680618.1000000001,7159,WL,A,11.0
5,37.51900005340576,learn,60000.0,Wed Jun 04 2025 10:52:43 GMT-0500 (Central Daylight Time),686214.6000000001,A,r,O,r,813,1,831.5,685383.1000000001,7159,WL,A,12.0
5,37.78800010681152,learn,60000.0,Wed Jun 04 2025 10:52:43 GMT-0500 (Central Daylight Time),686483.1999999997,A,ru,O,u,247,1,1100.0999999996275,685383.1000000001,7159,WL,A,12.0
5,38.187000036239624,learn,60000.0,Wed Jun 04 2025 10:52:43 GMT-0500 (Central Daylight Time),686882.4999999995,A,rug,O,g,376,1,1499.3999999994412,685383.1000000001,7159,WL,A,12.0
5,39.503000020980835,learn,60000.0,Wed Jun 04 2025 10:52:43 GMT-0500 (Central Daylight Time),688198.1999999997,A,rugenter,O,enter,1296,1,2815.0999999996275,685383.1000000001,7159,WL,A,12.0
5,41.38600015640259,learn,60000.0,Wed Jun 04 2025 10:52:43 GMT-0500 (Central Daylight Time),690081.6999999997,A,m,O,m,1871,1,1883.3999999994412,688198.3000000003,7159,WL,A,13.0
5,41.91900014877319,learn,60000.0,Wed Jun 04 2025 10:52:43 GMT-0500 (Central Daylight Time),690614.3000000003,A,me,O,e,514,1,2416.0,688198.3000000003,7159,WL,A,13.0
5,42.13600015640259,learn,60000.0,Wed Jun 04 2025 10:52:43 GMT-0500 (Central Daylight Time),690831.1000000001,A,mea,O,a,199,1,2632.7999999998137,688198.3000000003,7159,WL,A,13.0
5,43.43600010871887,learn,60000.0,Wed Jun 04 2025 10:52:43 GMT-0500 (Central Daylight Time),692131.3000000003,A,mead,O,d,1287,1,3933.0,688198.3000000003,7159,WL,A,13.0
5,43.735000133514404,learn,60000.0,Wed Jun 04 2025 10:52:43 GMT-0500 (Central Daylight Time),692430.6999999997,A,meado,O,o,290,1,4232.399999999441,688198.3000000003,7159,WL,A,13.0
5,43.902000188827515,learn,60000.0,Wed Jun 04 2025 10:52:43 GMT-0500 (Central Daylight Time),692597.6000000001,A,meadow,O,w,160,1,4399.299999999814,688198.3000000003,7159,WL,A,13.0
5,46.36800003051758,learn,60000.0,Wed Jun 04 2025 10:52:43 GMT-0500 (Central Daylight Time),695063.4999999995,A,meadowenter,O,enter,2453,1,6865.199999999255,688198.3000000003,7159,WL,A,13.0
5,51.849000215530396,learn,60000.0,Wed Jun 04 2025 10:52:43 GMT-0500 (Central Daylight Time),700544.1000000001,A,b,O,b,5470,1,5480.4000000003725,695063.6999999997,7159,WL,A,14.0
5,52.06500005722046,learn,60000.0,Wed Jun 04 2025 10:52:43 GMT-0500 (Central Daylight Time),700759.9999999995,A,bu,O,u,205,1,5696.299999999814,695063.6999999997,7159,WL,A,14.0
5,52.41600012779236,learn,60000.0,Wed Jun 04 2025 10:52:43 GMT-0500 (Central Daylight Time),701111.3000000003,A,but,O,t,334,1,6047.600000000559,695063.6999999997,7159,WL,A,14.0
5,52.56500005722046,learn,60000.0,Wed Jun 04 2025 10:52:43 GMT-0500 (Central Daylight Time),701260.3999999999,A,butt,O,t,140,1,6196.700000000186,695063.6999999997,7159,WL,A,14.0
5,52.78200006484985,learn,60000.0,Wed Jun 04 2025 10:52:43 GMT-0500 (Central Daylight Time),701477.1999999997,A,butto,O,o,199,1,6413.5,695063.6999999997,7159,WL,A,14.0
5,53.01600003242493,learn,60000.0,Wed Jun 04 2025 10:52:43 GMT-0500 (Central Daylight Time),701711.1999999997,A,button,O,n,214,1,6647.5,695063.6999999997,7159,WL,A,14.0
5,54.56500005722046,learn,60000.0,Wed Jun 04 2025 10:52:43 GMT-0500 (Central Daylight Time),703260.1000000001,A,buttonenter,O,enter,1532,1,8196.400000000373,695063.6999999997,7159,WL,A,14.0
5,59.382000207901,learn,60000.0,Wed Jun 04 2025 10:52:43 GMT-0500 (Central Daylight Time),708076.8999999999,A,f,O,f,4811,1,4816.5,703260.3999999999,7159,WL,A,15.0
5,59.646000146865845,learn,60000.0,Wed Jun 04 2025 10:52:43 GMT-0500 (Central Daylight Time),708341.6999999997,A,fi,O,i,256,1,5081.299999999814,703260.3999999999,7159,WL,A,15.0
5,59.88000011444092,learn,60000.0,Wed Jun 04 2025 10:52:43 GMT-0500 (Central Daylight Time),708575.1999999997,A,fin,O,n,222,1,5314.799999999814,703260.3999999999,7159,WL,A,15.0
5,60.164000034332275,learn,60000.0,Wed Jun 04 2025 10:52:43 GMT-0500 (Central Daylight Time),708859.3000000003,A,fing,O,g,278,1,5598.9000000003725,703260.3999999999,7159,WL,A,15.0
6,1.0329999923706055,distr,58967.000007629395,Wed Jun 04 2025 10:52:43 GMT-0500 (Central Daylight Time),780302.9999999995,B,p,O,p,1016,1,1033.2999999998137,779269.6999999997,7159,WL,A,1.0
6,1.315999984741211,distr,58684.00001525879,Wed Jun 04 2025 10:52:43 GMT-0500 (Central Daylight Time),780586.3000000003,B,pe,O,e,262,1,1316.6000000005588,779269.6999999997,7159,WL,A,1.0
6,1.5499999523162842,distr,58450.000047683716,Wed Jun 04 2025 10:52:43 GMT-0500 (Central Daylight Time),780819.4999999995,B,pea,O,a,219,1,1549.7999999998137,779269.6999999997,7159,WL,A,1.0
6,1.8659999370574951,distr,58134.000062942505,Wed Jun 04 2025 10:52:43 GMT-0500 (Central Daylight Time),781135.4999999995,B,peac,O,c,296,1,1865.7999999998137,779269.6999999997,7159,WL,A,1.0
6,2.249000072479248,distr,57750.99992752075,Wed Jun 04 2025 10:52:43 GMT-0500 (Central Daylight Time),781518.8000000003,B,peach,O,h,375,1,2249.100000000559,779269.6999999997,7159,WL,A,1.0
6,3.430999994277954,distr,56569.000005722046,Wed Jun 04 2025 10:52:43 GMT-0500 (Central Daylight Time),782700.6999999997,B,peachenter,O,enter,1174,1,3431.0,779269.6999999997,7159,WL,A,1.0
6,4.082000017166138,distr,55917.99998283386,Wed Jun 04 2025 10:52:43 GMT-0500 (Central Daylight Time),783351.3999999999,B,c,O,c,641,1,650.4000000003725,782700.9999999995,7159,WL,A,2.0
6,4.365999937057495,distr,55634.000062942505,Wed Jun 04 2025 10:52:43 GMT-0500 (Central Daylight Time),783635.6999999997,B,ch,O,h,279,1,934.7000000001863,782700.9999999995,7159,WL,A,2.0
6,4.5320000648498535,distr,55467.99993515015,Wed Jun 04 2025 10:52:43 GMT-0500 (Central Daylight Time),783801.9999999995,B,cha,O,a,143,1,1101.0,782700.9999999995,7159,WL,A,2.0
6,4.914000034332275,distr,55085.999965667725,Wed Jun 04 2025 10:52:43 GMT-0500 (Central Daylight Time),784183.6000000001,B,chai,O,i,371,1,1482.6000000005588,782700.9999999995,7159,WL,A,2.0
6,5.181999921798706,distr,54818.000078201294,Wed Jun 04 2025 10:52:43 GMT-0500 (Central Daylight Time),784451.6000000001,B,chair,O,r,256,1,1750.6000000005588,782700.9999999995,7159,WL,A,2.0
6,5.749000072479248,distr,54250.99992752075,Wed Jun 04 2025 10:52:43 GMT-0500 (Central Daylight Time),785018.9999999995,B,chairenter,O,enter,563,1,2318.0,782700.9999999995,7159,WL,A,2.0
6,7.0320000648498535,distr,52967.99993515015,Wed Jun 04 2025 10:52:43 GMT-0500 (Central Daylight Time),786301.3000000003,B,b,O,b,1266,1,1282.0,785019.3000000003,7159,WL,A,3.0
6,7.815000057220459,distr,52184.99994277954,Wed Jun 04 2025 10:52:43 GMT-0500 (Central Daylight Time),787084.8000000003,B,bo,O,o,767,1,2065.5,785019.3000000003,7159,WL,A,3.0
6,8.197999954223633,distr,51802.00004577637,Wed Jun 04 2025 10:52:43 GMT-0500 (Central Daylight Time),787467.3999999999,B,bot,O,t,370,1,2448.0999999996275,785019.3000000003,7159,WL,A,3.0
6,8.365000009536743,distr,51634.99999046326,Wed Jun 04 2025 10:52:43 GMT-0500 (Central Daylight Time),787634.6999999997,B,bott,O,t,154,1,2615.399999999441,785019.3000000003,7159,WL,A,3.0
6,8.598000049591064,distr,51401.999950408936,Wed Jun 04 2025 10:52:43 GMT-0500 (Central Daylight Time),787867.8999999999,B,bottl,O,l,217,1,2848.5999999996275,785019.3000000003,7159,WL,A,3.0
6,8.831000089645386,distr,51168.999910354614,Wed Jun 04 2025 10:52:43 GMT-0500 (Central Daylight Time),788101.1999999997,B,bottle,O,e,229,1,3081.899999999441,785019.3000000003,7159,WL,A,3.0
6,9.19599986076355,distr,50804.00013923645,Wed Jun 04 2025 10:52:43 GMT-0500 (Central Daylight Time),788466.1999999997,B,bottleenter,O,enter,351,1,3446.899999999441,785019.3000000003,7159,WL,A,3.0
6,10.997999906539917,distr,49002.00009346008,Wed Jun 04 2025 10:52:43 GMT-0500 (Central Daylight Time),790267.6999999997,B,s,O,s,1795,1,1801.2000000001863,788466.4999999995,7159,WL,A,4.0
6,11.21399998664856,distr,48786.00001335144,Wed Jun 04 2025 10:52:43 GMT-0500 (Central Daylight Time),790483.3999999999,B,sh,O,h,210,1,2016.9000000003725,788466.4999999995,7159,WL,A,4.0
6,11.629999876022339,distr,48370.00012397766,Wed Jun 04 2025 10:52:43 GMT-0500 (Central Daylight Time),790899.8000000003,B,she,O,e,400,1,2433.300000000745,788466.4999999995,7159,WL,A,4.0
6,11.79699993133545,distr,48203.00006866455,Wed Jun 04 2025 10:52:43 GMT-0500 (Central Daylight Time),791066.4999999995,B,shee,O,e,146,1,2600.0,788466.4999999995,7159,WL,A,4.0
6,12.04800009727478,distr,47951.99990272522,Wed Jun 04 2025 10:52:43 GMT-0500 (Central Daylight Time),791317.3999999999,B,sheep,O,p,246,1,2850.9000000003725,788466.4999999995,7159,WL,A,4.0
6,12.744999885559082,distr,47255.00011444092,Wed Jun 04 2025 10:52:43 GMT-0500 (Central Daylight Time),792015.1999999997,B,sheepenter,O,enter,680,1,3548.7000000001863,788466.4999999995,7159,WL,A,4.0
6,16.479000091552734,distr,43520.999908447266,Wed Jun 04 2025 10:52:43 GMT-0500 (Central Daylight Time),795748.6000000001,B,b,O,b,3719,1,3733.2000000001863,792015.3999999999,7159,WL,A,5.0
6,16.795000076293945,distr,43204.999923706055,Wed Jun 04 2025 10:52:43 GMT-0500 (Central Daylight Time),796064.4999999995,B,bo,O,o,304,1,4049.0999999996275,792015.3999999999,7159,WL,A,5.0
6,17.12999987602234,distr,42870.00012397766,Wed Jun 04 2025 10:52:43 GMT-0500 (Central Daylight Time),796399.9999999995,B,bow,O,w,316,1,4384.5999999996275,792015.3999999999,7159,WL,A,5.0
6,17.477999925613403,distr,42522.0000743866,Wed Jun 04 2025 10:52:43 GMT-0500 (Central Daylight Time),796747.6999999997,B,bowl,O,l,335,1,4732.299999999814,792015.3999999999,7159,WL,A,5.0
6,18.229000091552734,distr,41770.999908447266,Wed Jun 04 2025 10:52:43 GMT-0500 (Central Daylight Time),797498.8000000003,B,bowlenter,O,enter,744,1,5483.4000000003725,792015.3999999999,7159,WL,A,5.0
6,34.33800005912781,distr,25661.999940872192,Wed Jun 04 2025 10:52:43 GMT-0500 (Central Daylight Time),813608.3000000003,B,p,O,p,16090,1,16109.300000000745,797498.9999999995,7159,WL,A,6.0
6,34.60599994659424,distr,25394.00005340576,Wed Jun 04 2025 10:52:43 GMT-0500 (Central Daylight Time),813876.1000000001,B,pl,O,l,263,1,16377.100000000559,797498.9999999995,7159,WL,A,6.0
6,34.82299995422363,distr,25177.000045776367,Wed Jun 04 2025 10:52:43 GMT-0500 (Central Daylight Time),814092.4999999995,B,pla,O,a,201,1,16593.5,797498.9999999995,7159,WL,A,6.0
6,35.0550000667572,distr,24944.999933242798,Wed Jun 04 2025 10:52:43 GMT-0500 (Central Daylight Time),814325.1999999997,B,plan,O,n,227,1,16826.200000000186,797498.9999999995,7159,WL,A,6.0
6,36.187999963760376,distr,23812.000036239624,Wed Jun 04 2025 10:52:43 GMT-0500 (Central Daylight Time),815458.1000000001,B,plane,O,e,1112,1,17959.10000000056,797498.9999999995,7159,WL,A,6.0
6,39.4539999961853,distr,20546.000003814697,Wed Jun 04 2025 10:52:43 GMT-0500 (Central Daylight Time),818723.3999999999,B,planeenter,O,enter,3259,1,21224.400000000373,797498.9999999995,7159,WL,A,6.0
6,51.58200001716614,distr,8417.999982833862,Wed Jun 04 2025 10:52:43 GMT-0500 (Central Daylight Time),830851.8999999999,B,enter,O,enter,12113,1,12128.200000000186,818723.6999999997,7159,WL,A,7.0
6,52.00099992752075,distr,7999.000072479248,Wed Jun 04 2025 10:52:43 GMT-0500 (Central Daylight Time),831270.6000000001,B,enter,O,enter,409,1,418.5,830852.1000000001,7159,WL,A,8.0
6,52.384000062942505,distr,7615.999937057495,Wed Jun 04 2025 10:52:43 GMT-0500 (Central Daylight Time),831653.6000000001,B,enter,O,enter,374,1,382.6000000005588,831270.9999999995,7159,WL,A,9.0
6,52.700000047683716,distr,7299.999952316284,Wed Jun 04 2025 10:52:43 GMT-0500 (Central Daylight Time),831969.6000000001,B,enter,O,enter,304,1,315.70000000018626,831653.8999999999,7159,WL,A,10.0
6,53.049999952316284,distr,6950.000047683716,Wed Jun 04 2025 10:52:43 GMT-0500 (Central Daylight Time),832319.4999999995,B,enter,O,enter,332,1,349.59999999962747,831969.8999999999,7159,WL,A,11.0
6,53.41599988937378,distr,6584.000110626221,Wed Jun 04 2025 10:52:43 GMT-0500 (Central Daylight Time),832685.3999999999,B,enter,O,enter,350,1,365.59999999962747,832319.8000000003,7159,WL,A,12.0
6,53.75,distr,6250.0,Wed Jun 04 2025 10:52:43 GMT-0500 (Central Daylight Time),833019.4999999995,B,enter,O,enter,329,1,333.8999999994412,832685.6000000001,7159,WL,A,13.0
6,54.1010000705719,distr,5898.999929428101,Wed Jun 04 2025 10:52:43 GMT-0500 (Central Daylight Time),833370.8999999999,B,enter,O,enter,347,1,351.0,833019.8999999999,7159,WL,A,14.0
6,54.56500005722046,distr,5434.999942779541,Wed Jun 04 2025 10:52:43 GMT-0500 (Central Daylight Time),833835.1000000001,B,enter,O,enter,450,1,463.90000000037253,833371.1999999997,7159,WL,A,15.0
7,3.7679998874664307,immed,56232.00011253357,Wed Jun 04 2025 10:52:43 GMT-0500 (Central Daylight Time),844931.6000000001,A,b,O,b,3754,1,3767.100000000559,841164.4999999995,7159,WL,A,1.0
7,4.116999864578247,immed,55883.00013542175,Wed Jun 04 2025 10:52:43 GMT-0500 (Central Daylight Time),845281.4999999995,A,bo,O,o,338,1,4117.0,841164.4999999995,7159,WL,A,1.0
7,4.317999839782715,immed,55682.000160217285,Wed Jun 04 2025 10:52:43 GMT-0500 (Central Daylight Time),845482.3999999999,A,boo,O,o,179,1,4317.9000000003725,841164.4999999995,7159,WL,A,1.0
7,4.549999952316284,immed,55450.000047683716,Wed Jun 04 2025 10:52:43 GMT-0500 (Central Daylight Time),845714.3999999999,A,book,O,k,217,1,4549.9000000003725,841164.4999999995,7159,WL,A,1.0
7,5.416999816894531,immed,54583.00018310547,Wed Jun 04 2025 10:52:43 GMT-0500 (Central Daylight Time),846581.1999999997,A,bookenter,O,enter,856,1,5416.700000000186,841164.4999999995,7159,WL,A,1.0
7,6.4679999351501465,immed,53532.00006484985,Wed Jun 04 2025 10:52:43 GMT-0500 (Central Daylight Time),847631.6000000001,A,f,O,f,1041,1,1050.2000000001863,846581.3999999999,7159,WL,A,2.0
7,6.7170000076293945,immed,53282.999992370605,Wed Jun 04 2025 10:52:43 GMT-0500 (Central Daylight Time),847881.1999999997,A,fl,O,l,229,1,1299.7999999998137,846581.3999999999,7159,WL,A,2.0
7,6.950999975204468,immed,53049.00002479553,Wed Jun 04 2025 10:52:43 GMT-0500 (Central Daylight Time),848115.1999999997,A,flo,O,o,219,1,1533.7999999998137,846581.3999999999,7159,WL,A,2.0
7,7.182999849319458,immed,52817.00015068054,Wed Jun 04 2025 10:52:43 GMT-0500 (Central Daylight Time),848347.1999999997,A,flow,O,w,217,1,1765.7999999998137,846581.3999999999,7159,WL,A,2.0
7,7.418999910354614,immed,52581.000089645386,Wed Jun 04 2025 10:52:43 GMT-0500 (Central Daylight Time),848583.1000000001,A,flowe,O,e,230,1,2001.7000000001863,846581.3999999999,7159,WL,A,2.0
7,7.632999897003174,immed,52367.000102996826,Wed Jun 04 2025 10:52:43 GMT-0500 (Central Daylight Time),848797.1000000001,A,flower,O,r,206,1,2215.7000000001863,846581.3999999999,7159,WL,A,2.0
7,8.566999912261963,immed,51433.00008773804,Wed Jun 04 2025 10:52:43 GMT-0500 (Central Daylight Time),849730.8000000003,A,flowerenter,O,enter,916,1,3149.4000000003725,846581.3999999999,7159,WL,A,2.0
7,9.266999959945679,immed,50733.00004005432,Wed Jun 04 2025 10:52:43 GMT-0500 (Central Daylight Time),850430.4999999995,A,t,O,t,682,1,699.5,849730.9999999995,7159,WL,A,3.0
7,9.465999841690063,immed,50534.00015830994,Wed Jun 04 2025 10:52:43 GMT-0500 (Central Daylight Time),850629.9999999995,A,tr,O,r,193,1,899.0,849730.9999999995,7159,WL,A,3.0
7,9.715999841690063,immed,50284.00015830994,Wed Jun 04 2025 10:52:43 GMT-0500 (Central Daylight Time),850880.3999999999,A,tra,O,a,231,1,1149.4000000003725,849730.9999999995,7159,WL,A,3.0
7,9.950999975204468,immed,50049.00002479553,Wed Jun 04 2025 10:52:43 GMT-0500 (Central Daylight Time),851114.6999999997,A,trai,O,i,227,1,1383.7000000001863,849730.9999999995,7159,WL,A,3.0
7,10.166999816894531,immed,49833.00018310547,Wed Jun 04 2025 10:52:43 GMT-0500 (Central Daylight Time),851330.8999999999,A,train,O,n,200,1,1599.9000000003725,849730.9999999995,7159,WL,A,3.0
7,10.483000040054321,immed,49516.99995994568,Wed Jun 04 2025 10:52:43 GMT-0500 (Central Daylight Time),851647.4999999995,A,trainenter,O,enter,307,1,1916.5,849730.9999999995,7159,WL,A,3.0
7,11.133999824523926,immed,48866.000175476074,Wed Jun 04 2025 10:52:43 GMT-0500 (Central Daylight Time),852297.6000000001,A,r,O,r,638,1,649.9000000003725,851647.6999999997,7159,WL,A,4.0
7,11.348999977111816,immed,48651.00002288818,Wed Jun 04 2025 10:52:43 GMT-0500 (Central Daylight Time),852513.4999999995,A,ru,O,u,195,1,865.7999999998137,851647.6999999997,7159,WL,A,4.0
7,11.948999881744385,immed,48051.000118255615,Wed Jun 04 2025 10:52:43 GMT-0500 (Central Daylight Time),853113.3000000003,A,rug,O,g,577,1,1465.6000000005588,851647.6999999997,7159,WL,A,4.0
7,13.180999994277954,immed,46819.000005722046,Wed Jun 04 2025 10:52:43 GMT-0500 (Central Daylight Time),854345.3999999999,A,rugenter,O,enter,1207,1,2697.7000000001863,851647.6999999997,7159,WL,A,4.0
7,18.645999908447266,immed,41354.000091552734,Wed Jun 04 2025 10:52:43 GMT-0500 (Central Daylight Time),859809.8999999999,A,h,O,h,5452,1,5464.200000000186,854345.6999999997,7159,WL,A,5.0
7,18.896999835968018,immed,41103.00016403198,Wed Jun 04 2025 10:52:43 GMT-0500 (Central Daylight Time),860060.6000000001,A,ha,O,a,235,1,5714.9000000003725,854345.6999999997,7159,WL,A,5.0
7,19.513000011444092,immed,40486.99998855591,Wed Jun 04 2025 10:52:43 GMT-0500 (Central Daylight Time),860676.8000000003,A,har,O,r,598,1,6331.100000000559,854345.6999999997,7159,WL,A,5.0
7,19.829999923706055,immed,40170.000076293945,Wed Jun 04 2025 10:52:43 GMT-0500 (Central Daylight Time),860994.6000000001,A,harp,O,p,304,1,6648.9000000003725,854345.6999999997,7159,WL,A,5.0
7,20.31499981880188,immed,39685.00018119812,Wed Jun 04 2025 10:52:43 GMT-0500 (Central Daylight Time),861478.6999999997,A,harpenter,O,enter,467,1,7133.0,854345.6999999997,7159,WL,A,5.0
7,20.829999923706055,immed,39170.000076293945,Wed Jun 04 2025 10:52:43 GMT-0500 (Central Daylight Time),861993.6999999997,A,s,O,s,503,1,514.7000000001863,861478.9999999995,7159,WL,A,6.0
7,21.046000003814697,immed,38953.9999961853,Wed Jun 04 2025 10:52:43 GMT-0500 (Central Daylight Time),862210.1000000001,A,sa,O,a,201,1,731.1000000005588,861478.9999999995,7159,WL,A,6.0
7,21.328999996185303,immed,38671.0000038147,Wed Jun 04 2025 10:52:43 GMT-0500 (Central Daylight Time),862493.3000000003,A,sal,O,l,263,1,1014.3000000007451,861478.9999999995,7159,WL,A,6.0
7,21.62999987602234,immed,38370.00012397766,Wed Jun 04 2025 10:52:43 GMT-0500 (Central Daylight Time),862794.1000000001,A,salt,O,t,285,1,1315.1000000005588,861478.9999999995,7159,WL,A,6.0
7,22.07799983024597,immed,37922.00016975403,Wed Jun 04 2025 10:52:43 GMT-0500 (Central Daylight Time),863242.3999999999,A,saltenter,O,enter,434,1,1763.4000000003725,861478.9999999995,7159,WL,A,6.0
7,22.710999965667725,immed,37289.000034332275,Wed Jun 04 2025 10:52:43 GMT-0500 (Central Daylight Time),863875.3000000003,A,b,O,b,619,1,632.7000000001863,863242.6000000001,7159,WL,A,7.0
7,22.961999893188477,immed,37038.00010681152,Wed Jun 04 2025 10:52:43 GMT-0500 (Central Daylight Time),864126.3999999999,A,bu,O,u,234,1,883.7999999998137,863242.6000000001,7159,WL,A,7.0
7,23.26199984550476,immed,36738.00015449524,Wed Jun 04 2025 10:52:43 GMT-0500 (Central Daylight Time),864425.8999999999,A,but,O,t,281,1,1183.2999999998137,863242.6000000001,7159,WL,A,7.0
7,23.42899990081787,immed,36571.00009918213,Wed Jun 04 2025 10:52:43 GMT-0500 (Central Daylight Time),864593.1999999997,A,butt,O,t,153,1,1350.5999999996275,863242.6000000001,7159,WL,A,7.0
7,23.59500002861023,immed,36404.99997138977,Wed Jun 04 2025 10:52:43 GMT-0500 (Central Daylight Time),864759.1000000001,A,butto,O,o,156,1,1516.5,863242.6000000001,7159,WL,A,7.0
7,23.846999883651733,immed,36153.00011634827,Wed Jun 04 2025 10:52:43 GMT-0500 (Central Daylight Time),865010.6000000001,A,button,O,n,236,1,1768.0,863242.6000000001,7159,WL,A,7.0
7,24.30999994277954,immed,35690.00005722046,Wed Jun 04 2025 10:52:43 GMT-0500 (Central Daylight Time),865474.4999999995,A,buttonenter,O,enter,448,1,2231.899999999441,863242.6000000001,7159,WL,A,7.0
7,25.912999868392944,immed,34087.000131607056,Wed Jun 04 2025 10:52:43 GMT-0500 (Central Daylight Time),867076.8000000003,A,l,O,l,1586,1,1602.1000000005588,865474.6999999997,7159,WL,A,8.0
7,26.144999980926514,immed,33855.000019073486,Wed Jun 04 2025 10:52:43 GMT-0500 (Central Daylight Time),867309.4999999995,A,lo,O,o,217,1,1834.7999999998137,865474.6999999997,7159,WL,A,8.0
7,26.5939998626709,immed,33406.0001373291,Wed Jun 04 2025 10:52:43 GMT-0500 (Central Daylight Time),867757.9999999995,A,log,O,g,431,1,2283.2999999998137,865474.6999999997,7159,WL,A,8.0
7,27.176999807357788,immed,32823.00019264221,Wed Jun 04 2025 10:52:43 GMT-0500 (Central Daylight Time),868341.3999999999,A,logenter,O,enter,576,1,2866.7000000001863,865474.6999999997,7159,WL,A,8.0
7,27.57699990272522,immed,32423.00009727478,Wed Jun 04 2025 10:52:43 GMT-0500 (Central Daylight Time),868741.3999999999,A,c,O,c,395,1,399.70000000018626,868341.6999999997,7159,WL,A,9.0
7,27.810999870300293,immed,32189.000129699707,Wed Jun 04 2025 10:52:43 GMT-0500 (Central Daylight Time),868974.6000000001,A,ch,O,h,222,1,632.9000000003725,868341.6999999997,7159,WL,A,9.0
7,28.09599995613098,immed,31904.00004386902,Wed Jun 04 2025 10:52:43 GMT-0500 (Central Daylight Time),869259.6000000001,A,chi,O,i,280,1,917.9000000003725,868341.6999999997,7159,WL,A,9.0
7,28.41100001335144,immed,31588.99998664856,Wed Jun 04 2025 10:52:43 GMT-0500 (Central Daylight Time),869575.1999999997,A,chim,O,m,297,1,1233.5,868341.6999999997,7159,WL,A,9.0
7,28.76099991798401,immed,31239.00008201599,Wed Jun 04 2025 10:52:43 GMT-0500 (Central Daylight Time),869924.6999999997,A,chimn,O,n,333,1,1583.0,868341.6999999997,7159,WL,A,9.0
7,28.926999807357788,immed,31073.000192642212,Wed Jun 04 2025 10:52:43 GMT-0500 (Central Daylight Time),870090.9999999995,A,chimne,O,e,149,1,1749.2999999998137,868341.6999999997,7159,WL,A,9.0
7,29.259999990463257,immed,30740.000009536743,Wed Jun 04 2025 10:52:43 GMT-0500 (Central Daylight Time),870424.4999999995,A,chimney,O,y,314,1,2082.7999999998137,868341.6999999997,7159,WL,A,9.0
7,30.158999919891357,immed,29841.000080108643,Wed Jun 04 2025 10:52:43 GMT-0500 (Central Daylight Time),871323.4999999995,A,chimneyenter,O,enter,880,1,2981.7999999998137,868341.6999999997,7159,WL,A,9.0
7,32.55900001525879,immed,27440.99998474121,Wed Jun 04 2025 10:52:43 GMT-0500 (Central Daylight Time),873723.3999999999,A,g,O,g,2387,1,2399.5999999996275,871323.8000000003,7159,WL,A,10.0
7,32.776000022888184,immed,27223.999977111816,Wed Jun 04 2025 10:52:43 GMT-0500 (Central Daylight Time),873939.6000000001,A,go,O,o,201,1,2615.7999999998137,871323.8000000003,7159,WL,A,10.0
7,32.99300003051758,immed,27006.999969482422,Wed Jun 04 2025 10:52:43 GMT-0500 (Central Daylight Time),874156.9999999995,A,gol,O,l,211,1,2833.199999999255,871323.8000000003,7159,WL,A,10.0
7,33.424999952316284,immed,26575.000047683716,Wed Jun 04 2025 10:52:43 GMT-0500 (Central Daylight Time),874589.3000000003,A,gold,O,d,414,1,3265.5,871323.8000000003,7159,WL,A,10.0
7,33.72699999809265,immed,26273.00000190735,Wed Jun 04 2025 10:52:43 GMT-0500 (Central Daylight Time),874890.9999999995,A,goldenter,O,enter,295,1,3567.199999999255,871323.8000000003,7159,WL,A,10.0
7,34.192999839782715,immed,25807.000160217285,Wed Jun 04 2025 10:52:43 GMT-0500 (Central Daylight Time),875356.8999999999,A,k,O,k,450,1,465.59999999962747,874891.3000000003,7159,WL,A,11.0
7,34.47599983215332,immed,25524.00016784668,Wed Jun 04 2025 10:52:43 GMT-0500 (Central Daylight Time),875639.9999999995,A,ke,O,e,274,1,748.6999999992549,874891.3000000003,7159,WL,A,11.0
7,34.74300003051758,immed,25256.999969482422,Wed Jun 04 2025 10:52:43 GMT-0500 (Central Daylight Time),875906.8999999999,A,key,O,y,254,1,1015.5999999996275,874891.3000000003,7159,WL,A,11.0
7,35.50699996948242,immed,24493.000030517578,Wed Jun 04 2025 10:52:43 GMT-0500 (Central Daylight Time),876671.3000000003,A,keyenter,O,enter,754,1,1780.0,874891.3000000003,7159,WL,A,11.0
7,36.35899996757507,immed,23641.000032424927,Wed Jun 04 2025 10:52:43 GMT-0500 (Central Daylight Time),877522.6999999997,A,r,O,r,831,1,851.2000000001863,876671.4999999995,7159,WL,A,12.0
7,36.77499985694885,immed,23225.000143051147,Wed Jun 04 2025 10:52:43 GMT-0500 (Central Daylight Time),877938.6999999997,A,ra,O,a,397,1,1267.2000000001863,876671.4999999995,7159,WL,A,12.0
7,37.14199995994568,immed,22858.00004005432,Wed Jun 04 2025 10:52:43 GMT-0500 (Central Daylight Time),878305.6000000001,A,rat,O,t,354,1,1634.1000000005588,876671.4999999995,7159,WL,A,12.0
7,37.306999921798706,immed,22693.000078201294,Wed Jun 04 2025 10:52:43 GMT-0500 (Central Daylight Time),878470.8000000003,A,ratt,O,t,155,1,1799.300000000745,876671.4999999995,7159,WL,A,12.0
7,37.55900001525879,immed,22440.99998474121,Wed Jun 04 2025 10:52:43 GMT-0500 (Central Daylight Time),878723.3999999999,A,rattl,O,l,239,1,2051.9000000003725,876671.4999999995,7159,WL,A,12.0
7,37.74199986457825,immed,22258.000135421753,Wed Jun 04 2025 10:52:43 GMT-0500 (Central Daylight Time),878906.1999999997,A,rattle,O,e,159,1,2234.7000000001863,876671.4999999995,7159,WL,A,12.0
7,38.156999826431274,immed,21843.000173568726,Wed Jun 04 2025 10:52:43 GMT-0500 (Central Daylight Time),879320.9999999995,A,rattleenter,O,enter,400,1,2649.5,876671.4999999995,7159,WL,A,12.0
7,38.85699987411499,immed,21143.00012588501,Wed Jun 04 2025 10:52:43 GMT-0500 (Central Daylight Time),880021.3999999999,A,a,O,a,685,1,700.0999999996275,879321.3000000003,7159,WL,A,13.0
7,39.22499990463257,immed,20775.00009536743,Wed Jun 04 2025 10:52:43 GMT-0500 (Central Daylight Time),880388.6999999997,A,ap,O,p,351,1,1067.3999999994412,879321.3000000003,7159,WL,A,13.0
7,39.39100003242493,immed,20608.999967575073,Wed Jun 04 2025 10:52:43 GMT-0500 (Central Daylight Time),880554.8000000003,A,app,O,p,160,1,1233.5,879321.3000000003,7159,WL,A,13.0
7,39.64199995994568,immed,20358.00004005432,Wed Jun 04 2025 10:52:43 GMT-0500 (Central Daylight Time),880806.4999999995,A,appl,O,l,233,1,1485.199999999255,879321.3000000003,7159,WL,A,13.0
