block_c,block_dur,condition,countdown,datetime,endtime,list,multichar_response,project,response,response_time,session_number,start_end,starttime,subject_id,task,task_vers,trial
,,,,Mon Dec 15 2025 18:27:32 GMT-0600 (Central Standard Time),,,,O,space,631,1,,,7241,WL,A,
prac,,0,,Mon Dec 15 2025 18:27:32 GMT-0600 (Central Standard Time),,NA,b,O,b,5391,1,,,7241,WL,A,1.0
prac,,0,,Mon Dec 15 2025 18:27:32 GMT-0600 (Central Standard Time),,NA,bp,O,p,1082,1,,,7241,WL,A,1.0
prac,,0,,Mon Dec 15 2025 18:27:32 GMT-0600 (Central Standard Time),,NA,bpp,O,p,141,1,,,7241,WL,A,1.0
prac,,0,,Mon Dec 15 2025 18:27:32 GMT-0600 (Central Standard Time),,NA,bp,O,backspace,1033,1,,,7241,WL,A,1.0
prac,,0,,Mon Dec 15 2025 18:27:32 GMT-0600 (Central Standard Time),,NA,b,O,backspace,182,1,,,7241,WL,A,1.0
prac,,0,,Mon Dec 15 2025 18:27:32 GMT-0600 (Central Standard Time),,NA,bo,O,o,903,1,,,7241,WL,A,1.0
prac,,0,,Mon Dec 15 2025 18:27:32 GMT-0600 (Central Standard Time),,NA,bos,O,s,164,1,,,7241,WL,A,1.0
prac,,0,,Mon Dec 15 2025 18:27:32 GMT-0600 (Central Standard Time),,NA,bo,O,backspace,928,1,,,7241,WL,A,1.0
prac,,0,,Mon Dec 15 2025 18:27:32 GMT-0600 (Central Standard Time),,NA,boo,O,o,559,1,,,7241,WL,A,1.0
prac,,0,,Mon Dec 15 2025 18:27:32 GMT-0600 (Central Standard Time),,NA,boos,O,s,106,1,,,7241,WL,A,1.0
prac,,0,,Mon Dec 15 2025 18:27:32 GMT-0600 (Central Standard Time),,NA,boost,O,t,266,1,,,7241,WL,A,1.0
prac,,0,,Mon Dec 15 2025 18:27:32 GMT-0600 (Central Standard Time),,NA,boostenter,O,enter,1960,1,,,7241,WL,A,1.0
1,6.597999811172485,learn,53402.000188827515,Mon Dec 15 2025 18:27:32 GMT-0600 (Central Standard Time),168737.89999997616,A,b,O,b,6582,1,6597.0,162140.89999997616,7241,WL,A,1.0
1,7.613999843597412,learn,52386.00015640259,Mon Dec 15 2025 18:27:32 GMT-0600 (Central Standard Time),169754.0,A,bo,O,o,1001,1,7613.100000023842,162140.89999997616,7241,WL,A,1.0
1,7.763999938964844,learn,52236.000061035156,Mon Dec 15 2025 18:27:32 GMT-0600 (Central Standard Time),169904.20000004768,A,boo,O,o,138,1,7763.300000071526,162140.89999997616,7241,WL,A,1.0
1,8.063999891281128,learn,51936.00010871887,Mon Dec 15 2025 18:27:32 GMT-0600 (Central Standard Time),170203.5,A,book,O,k,292,1,8062.600000023842,162140.89999997616,7241,WL,A,1.0
1,9.832000017166138,learn,50167.99998283386,Mon Dec 15 2025 18:27:32 GMT-0600 (Central Standard Time),171971.70000004768,A,bookenter,O,enter,1763,1,9830.800000071526,162140.89999997616,7241,WL,A,1.0
1,10.580999851226807,learn,49419.00014877319,Mon Dec 15 2025 18:27:32 GMT-0600 (Central Standard Time),172720.89999997616,A,f,O,f,727,1,748.8999999761581,171972.0,7241,WL,A,2.0
1,10.730999946594238,learn,49269.00005340576,Mon Dec 15 2025 18:27:32 GMT-0600 (Central Standard Time),172871.10000002384,A,fl,O,l,131,1,899.1000000238419,171972.0,7241,WL,A,2.0
1,10.962999820709229,learn,49037.00017929077,Mon Dec 15 2025 18:27:32 GMT-0600 (Central Standard Time),173103.0,A,flo,O,o,220,1,1131.0,171972.0,7241,WL,A,2.0
1,11.327999830245972,learn,48672.00016975403,Mon Dec 15 2025 18:27:32 GMT-0600 (Central Standard Time),173467.89999997616,A,flow,O,w,349,1,1495.8999999761581,171972.0,7241,WL,A,2.0
1,11.544999837875366,learn,48455.000162124634,Mon Dec 15 2025 18:27:32 GMT-0600 (Central Standard Time),173685.20000004768,A,flowe,O,e,208,1,1713.2000000476837,171972.0,7241,WL,A,2.0
1,11.744999885559082,learn,48255.00011444092,Mon Dec 15 2025 18:27:32 GMT-0600 (Central Standard Time),173884.60000002384,A,flower,O,r,183,1,1912.6000000238419,171972.0,7241,WL,A,2.0
1,12.26199984550476,learn,47738.00015449524,Mon Dec 15 2025 18:27:32 GMT-0600 (Central Standard Time),174402.39999997616,A,flowerenter,O,enter,502,1,2430.399999976158,171972.0,7241,WL,A,2.0
1,14.115000009536743,learn,45884.99999046326,Mon Dec 15 2025 18:27:32 GMT-0600 (Central Standard Time),176254.79999995232,A,r,O,r,1844,1,1852.0999999046326,174402.70000004768,7241,WL,A,3.0
1,14.460999965667725,learn,45539.000034332275,Mon Dec 15 2025 18:27:32 GMT-0600 (Central Standard Time),176601.60000002384,A,ru,O,u,333,1,2198.899999976158,174402.70000004768,7241,WL,A,3.0
1,14.644999980926514,learn,45355.000019073486,Mon Dec 15 2025 18:27:32 GMT-0600 (Central Standard Time),176785.29999995232,A,rug,O,g,161,1,2382.5999999046326,174402.70000004768,7241,WL,A,3.0
1,15.060999870300293,learn,44939.00012969971,Mon Dec 15 2025 18:27:32 GMT-0600 (Central Standard Time),177201.10000002384,A,rugenter,O,enter,409,1,2798.399999976158,174402.70000004768,7241,WL,A,3.0
1,15.592000007629395,learn,44407.999992370605,Mon Dec 15 2025 18:27:32 GMT-0600 (Central Standard Time),177732.70000004768,A,m,O,m,521,1,531.3000000715256,177201.39999997616,7241,WL,A,4.0
1,15.809999942779541,learn,44190.00005722046,Mon Dec 15 2025 18:27:32 GMT-0600 (Central Standard Time),177950.70000004768,A,me,O,e,208,1,749.3000000715256,177201.39999997616,7241,WL,A,4.0
1,16.125999927520752,learn,43874.00007247925,Mon Dec 15 2025 18:27:32 GMT-0600 (Central Standard Time),178267.5,A,mea,O,a,308,1,1066.1000000238419,177201.39999997616,7241,WL,A,4.0
1,16.609999895095825,learn,43390.000104904175,Mon Dec 15 2025 18:27:32 GMT-0600 (Central Standard Time),178751.10000002384,A,mead,O,d,463,1,1549.7000000476837,177201.39999997616,7241,WL,A,4.0
1,17.02999997138977,learn,42970.00002861023,Mon Dec 15 2025 18:27:32 GMT-0600 (Central Standard Time),179171.29999995232,A,meado,O,o,396,1,1969.8999999761581,177201.39999997616,7241,WL,A,4.0
1,17.242999792099,learn,42757.000207901,Mon Dec 15 2025 18:27:32 GMT-0600 (Central Standard Time),179383.79999995232,A,meadow,O,w,194,1,2182.399999976158,177201.39999997616,7241,WL,A,4.0
1,17.66100001335144,learn,42338.99998664856,Mon Dec 15 2025 18:27:32 GMT-0600 (Central Standard Time),179801.70000004768,A,meadowenter,O,enter,401,1,2600.3000000715256,177201.39999997616,7241,WL,A,4.0
1,18.22699999809265,learn,41773.00000190735,Mon Dec 15 2025 18:27:32 GMT-0600 (Central Standard Time),180367.79999995232,A,t,O,t,547,1,565.6999999284744,179802.10000002384,7241,WL,A,5.0
1,18.425999879837036,learn,41574.000120162964,Mon Dec 15 2025 18:27:32 GMT-0600 (Central Standard Time),180566.89999997616,A,tr,O,r,178,1,764.7999999523163,179802.10000002384,7241,WL,A,5.0
1,18.575999975204468,learn,41424.00002479553,Mon Dec 15 2025 18:27:32 GMT-0600 (Central Standard Time),180716.89999997616,A,tra,O,a,130,1,914.7999999523163,179802.10000002384,7241,WL,A,5.0
1,18.70899987220764,learn,41291.00012779236,Mon Dec 15 2025 18:27:32 GMT-0600 (Central Standard Time),180849.79999995232,A,trai,O,i,126,1,1047.6999999284744,179802.10000002384,7241,WL,A,5.0
1,18.893999814987183,learn,41106.00018501282,Mon Dec 15 2025 18:27:32 GMT-0600 (Central Standard Time),181035.29999995232,A,train,O,n,180,1,1233.1999999284744,179802.10000002384,7241,WL,A,5.0
1,19.408999919891357,learn,40591.00008010864,Mon Dec 15 2025 18:27:32 GMT-0600 (Central Standard Time),181549.79999995232,A,trainenter,O,enter,505,1,1747.6999999284744,179802.10000002384,7241,WL,A,5.0
1,22.457000017166138,learn,37542.99998283386,Mon Dec 15 2025 18:27:32 GMT-0600 (Central Standard Time),184598.20000004768,A,g,O,g,3030,1,3048.2000000476837,181550.0,7241,WL,A,6.0
1,22.58999991416931,learn,37410.00008583069,Mon Dec 15 2025 18:27:32 GMT-0600 (Central Standard Time),184731.0,A,go,O,o,115,1,3181.0,181550.0,7241,WL,A,6.0
1,22.825999975204468,learn,37174.00002479553,Mon Dec 15 2025 18:27:32 GMT-0600 (Central Standard Time),184967.20000004768,A,gol,O,l,227,1,3417.2000000476837,181550.0,7241,WL,A,6.0
1,22.93999981880188,learn,37060.00018119812,Mon Dec 15 2025 18:27:32 GMT-0600 (Central Standard Time),185080.89999997616,A,gold,O,d,99,1,3530.899999976158,181550.0,7241,WL,A,6.0
1,23.207000017166138,learn,36792.99998283386,Mon Dec 15 2025 18:27:32 GMT-0600 (Central Standard Time),185347.70000004768,A,goldenter,O,enter,253,1,3797.7000000476837,181550.0,7241,WL,A,6.0
1,36.186999797821045,learn,23813.000202178955,Mon Dec 15 2025 18:27:32 GMT-0600 (Central Standard Time),198327.79999995232,A,m,O,m,12971,1,12979.899999976158,185347.89999997616,7241,WL,A,7.0
1,36.686999797821045,learn,23313.000202178955,Mon Dec 15 2025 18:27:32 GMT-0600 (Central Standard Time),198827.89999997616,A,me,O,e,493,1,13480.0,185347.89999997616,7241,WL,A,7.0
1,36.88599991798401,learn,23114.00008201599,Mon Dec 15 2025 18:27:32 GMT-0600 (Central Standard Time),199027.5,A,mea,O,a,182,1,13679.600000023842,185347.89999997616,7241,WL,A,7.0
1,37.58699989318848,learn,22413.000106811523,Mon Dec 15 2025 18:27:32 GMT-0600 (Central Standard Time),199728.29999995232,A,mead,O,d,688,1,14380.399999976158,185347.89999997616,7241,WL,A,7.0
1,37.835999965667725,learn,22164.000034332275,Mon Dec 15 2025 18:27:32 GMT-0600 (Central Standard Time),199977.39999997616,A,meado,O,o,243,1,14629.5,185347.89999997616,7241,WL,A,7.0
1,37.97099995613098,learn,22029.00004386902,Mon Dec 15 2025 18:27:32 GMT-0600 (Central Standard Time),200111.79999995232,A,meadow,O,w,115,1,14763.899999976158,185347.89999997616,7241,WL,A,7.0
1,38.30499982833862,learn,21695.000171661377,Mon Dec 15 2025 18:27:32 GMT-0600 (Central Standard Time),200446.29999995232,A,meadowenter,O,enter,326,1,15098.399999976158,185347.89999997616,7241,WL,A,7.0
1,41.68499994277954,learn,18315.00005722046,Mon Dec 15 2025 18:27:32 GMT-0600 (Central Standard Time),203825.89999997616,A,b,O,b,3375,1,3379.2999999523163,200446.60000002384,7241,WL,A,8.0
1,41.93499994277954,learn,18065.00005722046,Mon Dec 15 2025 18:27:32 GMT-0600 (Central Standard Time),204075.60000002384,A,bu,O,u,244,1,3629.0,200446.60000002384,7241,WL,A,8.0
1,42.300999879837036,learn,17699.000120162964,Mon Dec 15 2025 18:27:32 GMT-0600 (Central Standard Time),204441.89999997616,A,but,O,t,363,1,3995.2999999523163,200446.60000002384,7241,WL,A,8.0
1,42.76699995994568,learn,17233.00004005432,Mon Dec 15 2025 18:27:32 GMT-0600 (Central Standard Time),204908.29999995232,A,butt,O,t,460,1,4461.699999928474,200446.60000002384,7241,WL,A,8.0
1,42.94999980926514,learn,17050.000190734863,Mon Dec 15 2025 18:27:32 GMT-0600 (Central Standard Time),205091.5,A,butto,O,o,167,1,4644.899999976158,200446.60000002384,7241,WL,A,8.0
1,43.050999879837036,learn,16949.000120162964,Mon Dec 15 2025 18:27:32 GMT-0600 (Central Standard Time),205192.39999997616,A,button,O,n,90,1,4745.799999952316,200446.60000002384,7241,WL,A,8.0
1,43.382999897003174,learn,16617.000102996826,Mon Dec 15 2025 18:27:32 GMT-0600 (Central Standard Time),205524.5,A,buttonenter,O,enter,325,1,5077.899999976158,200446.60000002384,7241,WL,A,8.0
1,43.78399991989136,learn,16216.000080108643,Mon Dec 15 2025 18:27:32 GMT-0600 (Central Standard Time),205925.29999995232,A,k,O,k,392,1,400.5,205524.79999995232,7241,WL,A,9.0
1,43.93400001525879,learn,16065.999984741211,Mon Dec 15 2025 18:27:32 GMT-0600 (Central Standard Time),206075.39999997616,A,ke,O,e,145,1,550.6000000238419,205524.79999995232,7241,WL,A,9.0
1,44.68599987030029,learn,15314.000129699707,Mon Dec 15 2025 18:27:32 GMT-0600 (Central Standard Time),206827.10000002384,A,key,O,y,745,1,1302.3000000715256,205524.79999995232,7241,WL,A,9.0
1,45.31599998474121,learn,14684.000015258789,Mon Dec 15 2025 18:27:32 GMT-0600 (Central Standard Time),207456.70000004768,A,keyenter,O,enter,624,1,1931.9000000953674,205524.79999995232,7241,WL,A,9.0
1,60.01300001144409,learn,-13.000011444091797,Mon Dec 15 2025 18:27:32 GMT-0600 (Central Standard Time),222154.39999997616,A,None,O,None,14694,1,14697.5,207456.89999997616,7241,WL,A,10.0
2,1.5989999771118164,learn,58401.00002288818,Mon Dec 15 2025 18:27:32 GMT-0600 (Central Standard Time),296446.2999999523,A,c,O,c,1578,1,1599.0,294847.2999999523,7241,WL,A,1.0
2,1.815999984741211,learn,58184.00001525879,Mon Dec 15 2025 18:27:32 GMT-0600 (Central Standard Time),296663.60000002384,A,ch,O,h,206,1,1816.3000000715256,294847.2999999523,7241,WL,A,1.0
2,1.8989999294281006,learn,58101.0000705719,Mon Dec 15 2025 18:27:32 GMT-0600 (Central Standard Time),296746.2000000477,A,chi,O,i,68,1,1898.9000000953674,294847.2999999523,7241,WL,A,1.0
2,3.2319998741149902,learn,56768.00012588501,Mon Dec 15 2025 18:27:32 GMT-0600 (Central Standard Time),298080.2000000477,A,chim,O,m,1322,1,3232.9000000953674,294847.2999999523,7241,WL,A,1.0
2,3.6649999618530273,learn,56335.00003814697,Mon Dec 15 2025 18:27:32 GMT-0600 (Central Standard Time),298512.7999999523,A,chimn,O,n,407,1,3665.5,294847.2999999523,7241,WL,A,1.0
2,3.7649998664855957,learn,56235.000133514404,Mon Dec 15 2025 18:27:32 GMT-0600 (Central Standard Time),298612.89999997616,A,chimne,O,e,88,1,3765.600000023842,294847.2999999523,7241,WL,A,1.0
2,3.9809999465942383,learn,56019.00005340576,Mon Dec 15 2025 18:27:32 GMT-0600 (Central Standard Time),298829.2000000477,A,chimney,O,y,205,1,3981.9000000953674,294847.2999999523,7241,WL,A,1.0
2,5.115000009536743,learn,54884.99999046326,Mon Dec 15 2025 18:27:32 GMT-0600 (Central Standard Time),299963.0,A,chimneyenter,O,enter,1122,1,5115.700000047684,294847.2999999523,7241,WL,A,1.0
2,5.73199987411499,learn,54268.00012588501,Mon Dec 15 2025 18:27:32 GMT-0600 (Central Standard Time),300580.60000002384,A,l,O,l,601,1,617.3000000715256,299963.2999999523,7241,WL,A,2.0
2,5.912999868392944,learn,54087.000131607056,Mon Dec 15 2025 18:27:32 GMT-0600 (Central Standard Time),300761.2999999523,A,lo,O,o,166,1,798.0,299963.2999999523,7241,WL,A,2.0
2,6.129999876022339,learn,53870.00012397766,Mon Dec 15 2025 18:27:32 GMT-0600 (Central Standard Time),300978.2000000477,A,log,O,g,209,1,1014.9000000953674,299963.2999999523,7241,WL,A,2.0
2,6.496999979019165,learn,53503.000020980835,Mon Dec 15 2025 18:27:32 GMT-0600 (Central Standard Time),301345.2999999523,A,logenter,O,enter,345,1,1382.0,299963.2999999523,7241,WL,A,2.0
2,6.879999876022339,learn,53120.00012397766,Mon Dec 15 2025 18:27:32 GMT-0600 (Central Standard Time),301728.0,A,k,O,k,370,1,382.39999997615814,301345.60000002384,7241,WL,A,3.0
2,7.04800009727478,learn,52951.99990272522,Mon Dec 15 2025 18:27:32 GMT-0600 (Central Standard Time),301896.60000002384,A,ke,O,e,165,1,551.0,301345.60000002384,7241,WL,A,3.0
2,7.364000082015991,learn,52635.99991798401,Mon Dec 15 2025 18:27:32 GMT-0600 (Central Standard Time),302212.39999997616,A,key,O,y,297,1,866.7999999523163,301345.60000002384,7241,WL,A,3.0
2,8.21399998664856,learn,51786.00001335144,Mon Dec 15 2025 18:27:32 GMT-0600 (Central Standard Time),303062.10000002384,A,keyenter,O,enter,831,1,1716.5,301345.60000002384,7241,WL,A,3.0
2,8.71399998664856,learn,51286.00001335144,Mon Dec 15 2025 18:27:32 GMT-0600 (Central Standard Time),303562.0,A,r,O,r,486,1,499.60000002384186,303062.39999997616,7241,WL,A,4.0
2,8.895999908447266,learn,51104.000091552734,Mon Dec 15 2025 18:27:32 GMT-0600 (Central Standard Time),303744.2999999523,A,ra,O,a,170,1,681.8999999761581,303062.39999997616,7241,WL,A,4.0
2,9.178999900817871,learn,50821.00009918213,Mon Dec 15 2025 18:27:32 GMT-0600 (Central Standard Time),304027.2999999523,A,rat,O,t,266,1,964.8999999761581,303062.39999997616,7241,WL,A,4.0
2,9.3989999294281,learn,50601.0000705719,Mon Dec 15 2025 18:27:32 GMT-0600 (Central Standard Time),304247.10000002384,A,ratt,O,t,205,1,1184.7000000476837,303062.39999997616,7241,WL,A,4.0
2,9.661999940872192,learn,50338.00005912781,Mon Dec 15 2025 18:27:32 GMT-0600 (Central Standard Time),304510.60000002384,A,rattl,O,l,241,1,1448.2000000476837,303062.39999997616,7241,WL,A,4.0
2,9.763000011444092,learn,50236.99998855591,Mon Dec 15 2025 18:27:32 GMT-0600 (Central Standard Time),304610.89999997616,A,rattle,O,e,76,1,1548.5,303062.39999997616,7241,WL,A,4.0
2,10.229000091552734,learn,49770.999908447266,Mon Dec 15 2025 18:27:32 GMT-0600 (Central Standard Time),305077.5,A,rattleenter,O,enter,455,1,2015.1000000238419,303062.39999997616,7241,WL,A,4.0
2,10.912999868392944,learn,49087.000131607056,Mon Dec 15 2025 18:27:32 GMT-0600 (Central Standard Time),305761.2999999523,A,g,O,g,671,1,683.5999999046326,305077.7000000477,7241,WL,A,5.0
2,11.09500002861023,learn,48904.99997138977,Mon Dec 15 2025 18:27:32 GMT-0600 (Central Standard Time),305943.39999997616,A,go,O,o,158,1,865.6999999284744,305077.7000000477,7241,WL,A,5.0
2,11.328999996185303,learn,48671.0000038147,Mon Dec 15 2025 18:27:32 GMT-0600 (Central Standard Time),306176.89999997616,A,gol,O,l,217,1,1099.1999999284744,305077.7000000477,7241,WL,A,5.0
2,11.477999925613403,learn,48522.0000743866,Mon Dec 15 2025 18:27:32 GMT-0600 (Central Standard Time),306326.60000002384,A,gold,O,d,130,1,1248.8999999761581,305077.7000000477,7241,WL,A,5.0
2,11.795000076293945,learn,48204.999923706055,Mon Dec 15 2025 18:27:32 GMT-0600 (Central Standard Time),306643.39999997616,A,goldenter,O,enter,303,1,1565.6999999284744,305077.7000000477,7241,WL,A,5.0
2,13.810999870300293,learn,46189.00012969971,Mon Dec 15 2025 18:27:32 GMT-0600 (Central Standard Time),308659.60000002384,A,b,O,b,2001,1,2015.8999999761581,306643.7000000477,7241,WL,A,6.0
2,13.977999925613403,learn,46022.0000743866,Mon Dec 15 2025 18:27:32 GMT-0600 (Central Standard Time),308826.2000000477,A,bo,O,o,155,1,2182.5,306643.7000000477,7241,WL,A,6.0
2,14.145999908447266,learn,45854.000091552734,Mon Dec 15 2025 18:27:32 GMT-0600 (Central Standard Time),308994.39999997616,A,boo,O,o,144,1,2350.6999999284744,306643.7000000477,7241,WL,A,6.0
2,14.32699990272522,learn,45673.00009727478,Mon Dec 15 2025 18:27:32 GMT-0600 (Central Standard Time),309175.60000002384,A,book,O,k,166,1,2531.899999976158,306643.7000000477,7241,WL,A,6.0
2,14.92799997329712,learn,45072.00002670288,Mon Dec 15 2025 18:27:32 GMT-0600 (Central Standard Time),309776.0,A,bookenter,O,enter,585,1,3132.2999999523163,306643.7000000477,7241,WL,A,6.0
2,15.394999980926514,learn,44605.000019073486,Mon Dec 15 2025 18:27:32 GMT-0600 (Central Standard Time),310243.5,A,f,O,f,462,1,467.2000000476837,309776.2999999523,7241,WL,A,7.0
2,15.543999910354614,learn,44456.000089645386,Mon Dec 15 2025 18:27:32 GMT-0600 (Central Standard Time),310392.0,A,fl,O,l,128,1,615.7000000476837,309776.2999999523,7241,WL,A,7.0
2,15.744999885559082,learn,44255.00011444092,Mon Dec 15 2025 18:27:32 GMT-0600 (Central Standard Time),310593.2000000477,A,flo,O,o,185,1,816.9000000953674,309776.2999999523,7241,WL,A,7.0
2,15.859999895095825,learn,44140.000104904175,Mon Dec 15 2025 18:27:32 GMT-0600 (Central Standard Time),310708.2999999523,A,flow,O,w,103,1,932.0,309776.2999999523,7241,WL,A,7.0
2,15.960000038146973,learn,44039.99996185303,Mon Dec 15 2025 18:27:32 GMT-0600 (Central Standard Time),310808.60000002384,A,flowe,O,e,86,1,1032.3000000715256,309776.2999999523,7241,WL,A,7.0
2,16.0939998626709,learn,43906.0001373291,Mon Dec 15 2025 18:27:32 GMT-0600 (Central Standard Time),310942.0,A,flower,O,r,113,1,1165.7000000476837,309776.2999999523,7241,WL,A,7.0
2,16.693000078201294,learn,43306.999921798706,Mon Dec 15 2025 18:27:32 GMT-0600 (Central Standard Time),311540.89999997616,A,flowerenter,O,enter,587,1,1764.6000000238419,309776.2999999523,7241,WL,A,7.0
2,17.043999910354614,learn,42956.000089645386,Mon Dec 15 2025 18:27:32 GMT-0600 (Central Standard Time),311892.10000002384,A,t,O,t,336,1,351.0,311541.10000002384,7241,WL,A,8.0
2,17.277999877929688,learn,42722.00012207031,Mon Dec 15 2025 18:27:32 GMT-0600 (Central Standard Time),312125.7000000477,A,tr,O,r,221,1,584.6000000238419,311541.10000002384,7241,WL,A,8.0
2,17.39400005340576,learn,42605.99994659424,Mon Dec 15 2025 18:27:32 GMT-0600 (Central Standard Time),312241.89999997616,A,tra,O,a,112,1,700.7999999523163,311541.10000002384,7241,WL,A,8.0
2,17.55999994277954,learn,42440.00005722046,Mon Dec 15 2025 18:27:32 GMT-0600 (Central Standard Time),312408.2000000477,A,trai,O,i,152,1,867.1000000238419,311541.10000002384,7241,WL,A,8.0
2,17.72699999809265,learn,42273.00000190735,Mon Dec 15 2025 18:27:32 GMT-0600 (Central Standard Time),312574.7999999523,A,train,O,n,143,1,1033.6999999284744,311541.10000002384,7241,WL,A,8.0
2,18.0939998626709,learn,41906.0001373291,Mon Dec 15 2025 18:27:32 GMT-0600 (Central Standard Time),312942.5,A,trainenter,O,enter,346,1,1401.3999999761581,311541.10000002384,7241,WL,A,8.0
2,18.39299988746643,learn,41607.00011253357,Mon Dec 15 2025 18:27:32 GMT-0600 (Central Standard Time),313241.0,A,r,O,r,279,1,298.2000000476837,312942.7999999523,7241,WL,A,9.0
2,18.5939998626709,learn,41406.0001373291,Mon Dec 15 2025 18:27:32 GMT-0600 (Central Standard Time),313441.89999997616,A,ru,O,u,183,1,499.10000002384186,312942.7999999523,7241,WL,A,9.0
2,18.759999990463257,learn,41240.00000953674,Mon Dec 15 2025 18:27:32 GMT-0600 (Central Standard Time),313608.5,A,rug,O,g,149,1,665.7000000476837,312942.7999999523,7241,WL,A,9.0
2,19.575999975204468,learn,40424.00002479553,Mon Dec 15 2025 18:27:32 GMT-0600 (Central Standard Time),314424.39999997616,A,rugenter,O,enter,794,1,1481.6000000238419,312942.7999999523,7241,WL,A,9.0
2,19.941999912261963,learn,40058.00008773804,Mon Dec 15 2025 18:27:32 GMT-0600 (Central Standard Time),314790.60000002384,A,m,O,m,348,1,365.89999997615814,314424.7000000477,7241,WL,A,10.0
2,20.04200005531311,learn,39957.99994468689,Mon Dec 15 2025 18:27:32 GMT-0600 (Central Standard Time),314890.7000000477,A,me,O,e,78,1,466.0,314424.7000000477,7241,WL,A,10.0
2,20.927000045776367,learn,39072.99995422363,Mon Dec 15 2025 18:27:32 GMT-0600 (Central Standard Time),315774.89999997616,A,mea,O,a,870,1,1350.1999999284744,314424.7000000477,7241,WL,A,10.0
2,21.55900001525879,learn,38440.99998474121,Mon Dec 15 2025 18:27:32 GMT-0600 (Central Standard Time),316406.7000000477,A,mead,O,d,611,1,1982.0,314424.7000000477,7241,WL,A,10.0
2,21.908999919891357,learn,38091.00008010864,Mon Dec 15 2025 18:27:32 GMT-0600 (Central Standard Time),316756.7999999523,A,meado,O,o,332,1,2332.0999999046326,314424.7000000477,7241,WL,A,10.0
2,22.05999994277954,learn,37940.00005722046,Mon Dec 15 2025 18:27:32 GMT-0600 (Central Standard Time),316908.39999997616,A,meadow,O,w,132,1,2483.6999999284744,314424.7000000477,7241,WL,A,10.0
2,22.575000047683716,learn,37424.999952316284,Mon Dec 15 2025 18:27:32 GMT-0600 (Central Standard Time),317423.60000002384,A,meadowenter,O,enter,491,1,2998.899999976158,314424.7000000477,7241,WL,A,10.0
2,23.424999952316284,learn,36575.000047683716,Mon Dec 15 2025 18:27:32 GMT-0600 (Central Standard Time),318273.0,A,h,O,h,828,1,849.2000000476837,317423.7999999523,7241,WL,A,11.0
2,23.54099988937378,learn,36459.00011062622,Mon Dec 15 2025 18:27:32 GMT-0600 (Central Standard Time),318389.60000002384,A,ha,O,a,97,1,965.8000000715256,317423.7999999523,7241,WL,A,11.0
2,23.69099998474121,learn,36309.00001525879,Mon Dec 15 2025 18:27:32 GMT-0600 (Central Standard Time),318539.39999997616,A,har,O,r,129,1,1115.6000000238419,317423.7999999523,7241,WL,A,11.0
2,24.85800004005432,learn,35141.99995994568,Mon Dec 15 2025 18:27:32 GMT-0600 (Central Standard Time),319706.10000002384,A,harp,O,p,1144,1,2282.3000000715256,317423.7999999523,7241,WL,A,11.0
2,26.323999881744385,learn,33676.000118255615,Mon Dec 15 2025 18:27:32 GMT-0600 (Central Standard Time),321172.10000002384,A,harpenter,O,enter,1456,1,3748.3000000715256,317423.7999999523,7241,WL,A,11.0
2,26.806999921798706,learn,33193.000078201294,Mon Dec 15 2025 18:27:32 GMT-0600 (Central Standard Time),321655.2999999523,A,d,O,d,464,1,483.0,321172.2999999523,7241,WL,A,12.0
2,26.973999977111816,learn,33026.00002288818,Mon Dec 15 2025 18:27:32 GMT-0600 (Central Standard Time),321822.0,A,da,O,a,146,1,649.7000000476837,321172.2999999523,7241,WL,A,12.0
2,27.67300009727478,learn,32326.99990272522,Mon Dec 15 2025 18:27:32 GMT-0600 (Central Standard Time),322521.39999997616,A,d,O,backspace,686,1,1349.1000000238419,321172.2999999523,7241,WL,A,12.0
2,27.907999992370605,learn,32092.000007629395,Mon Dec 15 2025 18:27:32 GMT-0600 (Central Standard Time),322755.89999997616,A,,O,backspace,225,1,1583.6000000238419,321172.2999999523,7241,WL,A,12.0
2,28.19000005722046,learn,31809.99994277954,Mon Dec 15 2025 18:27:32 GMT-0600 (Central Standard Time),323038.2000000477,A,s,O,s,273,1,1865.9000000953674,321172.2999999523,7241,WL,A,12.0
2,28.33999991416931,learn,31660.00008583069,Mon Dec 15 2025 18:27:32 GMT-0600 (Central Standard Time),323188.10000002384,A,sl,O,l,139,1,2015.8000000715256,321172.2999999523,7241,WL,A,12.0
2,28.457000017166138,learn,31542.999982833862,Mon Dec 15 2025 18:27:32 GMT-0600 (Central Standard Time),323304.89999997616,A,sla,O,a,103,1,2132.600000023842,321172.2999999523,7241,WL,A,12.0
2,28.622999906539917,learn,31377.000093460083,Mon Dec 15 2025 18:27:32 GMT-0600 (Central Standard Time),323470.89999997616,A,slat,O,t,153,1,2298.600000023842,321172.2999999523,7241,WL,A,12.0
2,29.08999991416931,learn,30910.00008583069,Mon Dec 15 2025 18:27:32 GMT-0600 (Central Standard Time),323938.2999999523,A,sla,O,backspace,452,1,2766.0,321172.2999999523,7241,WL,A,12.0
2,29.25600004196167,learn,30743.99995803833,Mon Dec 15 2025 18:27:32 GMT-0600 (Central Standard Time),324104.0,A,sl,O,backspace,156,1,2931.7000000476837,321172.2999999523,7241,WL,A,12.0
2,29.48900008201599,learn,30510.99991798401,Mon Dec 15 2025 18:27:32 GMT-0600 (Central Standard Time),324336.7999999523,A,s,O,backspace,228,1,3164.5,321172.2999999523,7241,WL,A,12.0
2,29.94000005722046,learn,30059.99994277954,Mon Dec 15 2025 18:27:32 GMT-0600 (Central Standard Time),324787.89999997616,A,sa,O,a,447,1,3615.600000023842,321172.2999999523,7241,WL,A,12.0
2,30.122999906539917,learn,29877.000093460083,Mon Dec 15 2025 18:27:32 GMT-0600 (Central Standard Time),324971.7000000477,A,sal,O,l,176,1,3799.4000000953674,321172.2999999523,7241,WL,A,12.0
2,30.35599994659424,learn,29644.00005340576,Mon Dec 15 2025 18:27:32 GMT-0600 (Central Standard Time),325204.5,A,salt,O,t,215,1,4032.2000000476837,321172.2999999523,7241,WL,A,12.0
2,30.625,learn,29375.0,Mon Dec 15 2025 18:27:32 GMT-0600 (Central Standard Time),325473.39999997616,A,saltenter,O,enter,246,1,4301.100000023842,321172.2999999523,7241,WL,A,12.0
2,31.00600004196167,learn,28993.99995803833,Mon Dec 15 2025 18:27:32 GMT-0600 (Central Standard Time),325854.2999999523,A,c,O,c,364,1,380.59999990463257,325473.7000000477,7241,WL,A,13.0
2,31.155999898910522,learn,28844.000101089478,Mon Dec 15 2025 18:27:32 GMT-0600 (Central Standard Time),326004.10000002384,A,ch,O,h,134,1,530.3999999761581,325473.7000000477,7241,WL,A,13.0
2,31.305999994277954,learn,28694.000005722046,Mon Dec 15 2025 18:27:32 GMT-0600 (Central Standard Time),326154.10000002384,A,chi,O,i,145,1,680.3999999761581,325473.7000000477,7241,WL,A,13.0
2,31.60599994659424,learn,28394.00005340576,Mon Dec 15 2025 18:27:32 GMT-0600 (Central Standard Time),326454.5,A,chim,O,m,280,1,980.7999999523163,325473.7000000477,7241,WL,A,13.0
2,32.60599994659424,learn,27394.00005340576,Mon Dec 15 2025 18:27:32 GMT-0600 (Central Standard Time),327454.2999999523,A,chimn,O,n,981,1,1980.5999999046326,325473.7000000477,7241,WL,A,13.0
2,32.73900008201599,learn,27260.99991798401,Mon Dec 15 2025 18:27:32 GMT-0600 (Central Standard Time),327586.7999999523,A,chimne,O,e,117,1,2113.0999999046326,325473.7000000477,7241,WL,A,13.0
2,34.67199993133545,learn,25328.00006866455,Mon Dec 15 2025 18:27:32 GMT-0600 (Central Standard Time),329520.5,A,chimney,O,y,1913,1,4046.7999999523163,325473.7000000477,7241,WL,A,13.0
2,34.97099995613098,learn,25029.00004386902,Mon Dec 15 2025 18:27:32 GMT-0600 (Central Standard Time),329819.2000000477,A,chimneyenter,O,enter,282,1,4345.5,325473.7000000477,7241,WL,A,13.0
2,35.40400004386902,learn,24595.99995613098,Mon Dec 15 2025 18:27:32 GMT-0600 (Central Standard Time),330252.60000002384,A,f,O,f,425,1,433.10000002384186,329819.5,7241,WL,A,14.0
2,35.537999868392944,learn,24462.000131607056,Mon Dec 15 2025 18:27:32 GMT-0600 (Central Standard Time),330386.2999999523,A,fi,O,i,126,1,566.7999999523163,329819.5,7241,WL,A,14.0
2,35.73900008201599,learn,24260.99991798401,Mon Dec 15 2025 18:27:32 GMT-0600 (Central Standard Time),330587.2000000477,A,fin,O,n,195,1,767.7000000476837,329819.5,7241,WL,A,14.0
2,35.80299997329712,learn,24197.00002670288,Mon Dec 15 2025 18:27:32 GMT-0600 (Central Standard Time),330651.10000002384,A,fing,O,g,56,1,831.6000000238419,329819.5,7241,WL,A,14.0
2,35.97099995613098,learn,24029.00004386902,Mon Dec 15 2025 18:27:32 GMT-0600 (Central Standard Time),330818.7999999523,A,finge,O,e,162,1,999.2999999523163,329819.5,7241,WL,A,14.0
2,36.05299997329712,learn,23947.00002670288,Mon Dec 15 2025 18:27:32 GMT-0600 (Central Standard Time),330901.2999999523,A,finger,O,r,73,1,1081.7999999523163,329819.5,7241,WL,A,14.0
2,36.63700008392334,learn,23362.99991607666,Mon Dec 15 2025 18:27:32 GMT-0600 (Central Standard Time),331485.60000002384,A,fingerenter,O,enter,566,1,1666.1000000238419,329819.5,7241,WL,A,14.0
2,37.104000091552734,learn,22895.999908447266,Mon Dec 15 2025 18:27:32 GMT-0600 (Central Standard Time),331952.0,A,a,O,a,454,1,466.2000000476837,331485.7999999523,7241,WL,A,15.0
2,37.3199999332428,learn,22680.000066757202,Mon Dec 15 2025 18:27:32 GMT-0600 (Central Standard Time),332168.60000002384,A,ap,O,p,205,1,682.8000000715256,331485.7999999523,7241,WL,A,15.0
2,37.537999868392944,learn,22462.000131607056,Mon Dec 15 2025 18:27:32 GMT-0600 (Central Standard Time),332386.2000000477,A,app,O,p,197,1,900.4000000953674,331485.7999999523,7241,WL,A,15.0
2,38.30399990081787,learn,21696.00009918213,Mon Dec 15 2025 18:27:32 GMT-0600 (Central Standard Time),333152.5,A,appl,O,l,754,1,1666.7000000476837,331485.7999999523,7241,WL,A,15.0
2,38.437999963760376,learn,21562.000036239624,Mon Dec 15 2025 18:27:32 GMT-0600 (Central Standard Time),333285.7999999523,A,apple,O,e,125,1,1800.0,331485.7999999523,7241,WL,A,15.0
2,38.63700008392334,learn,21362.99991607666,Mon Dec 15 2025 18:27:32 GMT-0600 (Central Standard Time),333485.2999999523,A,appleenter,O,enter,190,1,1999.5,331485.7999999523,7241,WL,A,15.0
3,1.2829999923706055,learn,58717.000007629395,Mon Dec 15 2025 18:27:32 GMT-0600 (Central Standard Time),404179.0,A,b,O,b,1270,1,1282.6000000238419,402896.39999997616,7241,WL,A,1.0
3,1.5160000324249268,learn,58483.99996757507,Mon Dec 15 2025 18:27:32 GMT-0600 (Central Standard Time),404412.7000000477,A,bu,O,u,219,1,1516.3000000715256,402896.39999997616,7241,WL,A,1.0
3,1.7170000076293945,learn,58282.999992370605,Mon Dec 15 2025 18:27:32 GMT-0600 (Central Standard Time),404613.2000000477,A,but,O,t,192,1,1716.8000000715256,402896.39999997616,7241,WL,A,1.0
3,1.8489999771118164,learn,58151.00002288818,Mon Dec 15 2025 18:27:32 GMT-0600 (Central Standard Time),404745.7000000477,A,butt,O,t,126,1,1849.3000000715256,402896.39999997616,7241,WL,A,1.0
3,2.0,learn,58000.0,Mon Dec 15 2025 18:27:32 GMT-0600 (Central Standard Time),404896.2999999523,A,butto,O,o,138,1,1999.8999999761581,402896.39999997616,7241,WL,A,1.0
3,2.134999990463257,learn,57865.00000953674,Mon Dec 15 2025 18:27:32 GMT-0600 (Central Standard Time),405030.89999997616,A,button,O,n,117,1,2134.5,402896.39999997616,7241,WL,A,1.0
3,2.949000120162964,learn,57050.999879837036,Mon Dec 15 2025 18:27:32 GMT-0600 (Central Standard Time),405845.39999997616,A,buttonenter,O,enter,798,1,2949.0,402896.39999997616,7241,WL,A,1.0
3,3.3489999771118164,learn,56651.00002288818,Mon Dec 15 2025 18:27:32 GMT-0600 (Central Standard Time),406245.39999997616,A,l,O,l,384,1,399.7999999523163,405845.60000002384,7241,WL,A,2.0
3,3.565000057220459,learn,56434.99994277954,Mon Dec 15 2025 18:27:32 GMT-0600 (Central Standard Time),406461.10000002384,A,lo,O,o,198,1,615.5,405845.60000002384,7241,WL,A,2.0
3,3.7330000400543213,learn,56266.99995994568,Mon Dec 15 2025 18:27:32 GMT-0600 (Central Standard Time),406628.7999999523,A,log,O,g,159,1,783.1999999284744,405845.60000002384,7241,WL,A,2.0
3,4.098999977111816,learn,55901.00002288818,Mon Dec 15 2025 18:27:32 GMT-0600 (Central Standard Time),406994.7999999523,A,logenter,O,enter,352,1,1149.1999999284744,405845.60000002384,7241,WL,A,2.0
3,4.466000080108643,learn,55533.99991989136,Mon Dec 15 2025 18:27:32 GMT-0600 (Central Standard Time),407361.7999999523,A,k,O,k,362,1,366.59999990463257,406995.2000000477,7241,WL,A,3.0
3,4.648999929428101,learn,55351.0000705719,Mon Dec 15 2025 18:27:32 GMT-0600 (Central Standard Time),407545.2000000477,A,ke,O,e,170,1,550.0,406995.2000000477,7241,WL,A,3.0
3,4.848999977111816,learn,55151.00002288818,Mon Dec 15 2025 18:27:32 GMT-0600 (Central Standard Time),407745.0,A,key,O,y,178,1,749.7999999523163,406995.2000000477,7241,WL,A,3.0
3,5.148999929428101,learn,54851.0000705719,Mon Dec 15 2025 18:27:32 GMT-0600 (Central Standard Time),408044.89999997616,A,keyenter,O,enter,292,1,1049.6999999284744,406995.2000000477,7241,WL,A,3.0
3,5.531000137329102,learn,54468.9998626709,Mon Dec 15 2025 18:27:32 GMT-0600 (Central Standard Time),408427.2000000477,A,r,O,r,376,1,382.10000002384186,408045.10000002384,7241,WL,A,4.0
3,5.699000120162964,learn,54300.999879837036,Mon Dec 15 2025 18:27:32 GMT-0600 (Central Standard Time),408595.10000002384,A,ra,O,a,162,1,550.0,408045.10000002384,7241,WL,A,4.0
3,6.281000137329102,learn,53718.9998626709,Mon Dec 15 2025 18:27:32 GMT-0600 (Central Standard Time),409177.2999999523,A,rat,O,t,562,1,1132.1999999284744,408045.10000002384,7241,WL,A,4.0
3,6.432000160217285,learn,53567.999839782715,Mon Dec 15 2025 18:27:32 GMT-0600 (Central Standard Time),409327.89999997616,A,ratt,O,t,137,1,1282.7999999523163,408045.10000002384,7241,WL,A,4.0
3,6.648000001907349,learn,53351.99999809265,Mon Dec 15 2025 18:27:32 GMT-0600 (Central Standard Time),409543.7999999523,A,rattl,O,l,203,1,1498.6999999284744,408045.10000002384,7241,WL,A,4.0
3,6.7799999713897705,learn,53220.00002861023,Mon Dec 15 2025 18:27:32 GMT-0600 (Central Standard Time),409676.2999999523,A,rattle,O,e,125,1,1631.1999999284744,408045.10000002384,7241,WL,A,4.0
3,7.364000082015991,learn,52635.99991798401,Mon Dec 15 2025 18:27:32 GMT-0600 (Central Standard Time),410260.10000002384,A,rattleenter,O,enter,580,1,2215.0,408045.10000002384,7241,WL,A,4.0
3,8.02999997138977,learn,51970.00002861023,Mon Dec 15 2025 18:27:32 GMT-0600 (Central Standard Time),410926.10000002384,A,g,O,g,657,1,665.7000000476837,410260.39999997616,7241,WL,A,5.0
3,8.199000120162964,learn,51800.999879837036,Mon Dec 15 2025 18:27:32 GMT-0600 (Central Standard Time),411095.2999999523,A,go,O,o,149,1,834.8999999761581,410260.39999997616,7241,WL,A,5.0
3,8.414000034332275,learn,51585.999965667725,Mon Dec 15 2025 18:27:32 GMT-0600 (Central Standard Time),411310.10000002384,A,gol,O,l,196,1,1049.7000000476837,410260.39999997616,7241,WL,A,5.0
3,8.549000024795532,learn,51450.99997520447,Mon Dec 15 2025 18:27:32 GMT-0600 (Central Standard Time),411445.2999999523,A,gold,O,d,127,1,1184.8999999761581,410260.39999997616,7241,WL,A,5.0
3,8.847000122070312,learn,51152.99987792969,Mon Dec 15 2025 18:27:32 GMT-0600 (Central Standard Time),411743.10000002384,A,goldenter,O,enter,280,1,1482.7000000476837,410260.39999997616,7241,WL,A,5.0
3,9.414000034332275,learn,50585.999965667725,Mon Dec 15 2025 18:27:32 GMT-0600 (Central Standard Time),412309.7999999523,A,b,O,b,550,1,566.5,411743.2999999523,7241,WL,A,6.0
3,9.54800009727478,learn,50451.99990272522,Mon Dec 15 2025 18:27:32 GMT-0600 (Central Standard Time),412444.7000000477,A,bo,O,o,131,1,701.4000000953674,411743.2999999523,7241,WL,A,6.0
3,9.94700002670288,learn,50052.99997329712,Mon Dec 15 2025 18:27:32 GMT-0600 (Central Standard Time),412843.60000002384,A,boo,O,o,382,1,1100.3000000715256,411743.2999999523,7241,WL,A,6.0
3,10.27999997138977,learn,49720.00002861023,Mon Dec 15 2025 18:27:32 GMT-0600 (Central Standard Time),413176.39999997616,A,book,O,k,313,1,1433.1000000238419,411743.2999999523,7241,WL,A,6.0
3,10.647000074386597,learn,49352.9999256134,Mon Dec 15 2025 18:27:32 GMT-0600 (Central Standard Time),413543.0,A,bookenter,O,enter,350,1,1799.7000000476837,411743.2999999523,7241,WL,A,6.0
3,10.980000019073486,learn,49019.999980926514,Mon Dec 15 2025 18:27:32 GMT-0600 (Central Standard Time),413876.2999999523,A,f,O,f,317,1,333.09999990463257,413543.2000000477,7241,WL,A,7.0
3,11.095999956130981,learn,48904.00004386902,Mon Dec 15 2025 18:27:32 GMT-0600 (Central Standard Time),413992.5,A,fl,O,l,104,1,449.2999999523163,413543.2000000477,7241,WL,A,7.0
3,11.330000162124634,learn,48669.999837875366,Mon Dec 15 2025 18:27:32 GMT-0600 (Central Standard Time),414226.10000002384,A,flo,O,o,211,1,682.8999999761581,413543.2000000477,7241,WL,A,7.0
3,11.463000059127808,learn,48536.99994087219,Mon Dec 15 2025 18:27:32 GMT-0600 (Central Standard Time),414359.10000002384,A,flow,O,w,112,1,815.8999999761581,413543.2000000477,7241,WL,A,7.0
3,11.580000162124634,learn,48419.999837875366,Mon Dec 15 2025 18:27:32 GMT-0600 (Central Standard Time),414476.5,A,flowe,O,e,108,1,933.2999999523163,413543.2000000477,7241,WL,A,7.0
3,11.730000019073486,learn,48269.999980926514,Mon Dec 15 2025 18:27:32 GMT-0600 (Central Standard Time),414626.10000002384,A,flower,O,r,141,1,1082.8999999761581,413543.2000000477,7241,WL,A,7.0
3,12.213000059127808,learn,47786.99994087219,Mon Dec 15 2025 18:27:32 GMT-0600 (Central Standard Time),415109.2000000477,A,flowerenter,O,enter,472,1,1566.0,413543.2000000477,7241,WL,A,7.0
3,12.597000122070312,learn,47402.99987792969,Mon Dec 15 2025 18:27:32 GMT-0600 (Central Standard Time),415493.10000002384,A,t,O,t,368,1,383.7000000476837,415109.39999997616,7241,WL,A,8.0
3,12.796000003814697,learn,47203.9999961853,Mon Dec 15 2025 18:27:32 GMT-0600 (Central Standard Time),415691.89999997616,A,tr,O,r,187,1,582.5,415109.39999997616,7241,WL,A,8.0
3,12.92900013923645,learn,47070.99986076355,Mon Dec 15 2025 18:27:32 GMT-0600 (Central Standard Time),415825.60000002384,A,tra,O,a,116,1,716.2000000476837,415109.39999997616,7241,WL,A,8.0
3,13.11300015449524,learn,46886.99984550476,Mon Dec 15 2025 18:27:32 GMT-0600 (Central Standard Time),416009.2999999523,A,trai,O,i,169,1,899.8999999761581,415109.39999997616,7241,WL,A,8.0
3,13.279000043869019,learn,46720.99995613098,Mon Dec 15 2025 18:27:32 GMT-0600 (Central Standard Time),416175.0,A,train,O,n,146,1,1065.6000000238419,415109.39999997616,7241,WL,A,8.0
3,13.712000131607056,learn,46287.999868392944,Mon Dec 15 2025 18:27:32 GMT-0600 (Central Standard Time),416608.7000000477,A,trainenter,O,enter,411,1,1499.3000000715256,415109.39999997616,7241,WL,A,8.0
3,14.146000146865845,learn,45853.999853134155,Mon Dec 15 2025 18:27:32 GMT-0600 (Central Standard Time),417041.7999999523,A,r,O,r,428,1,432.89999997615814,416608.89999997616,7241,WL,A,9.0
3,14.51200008392334,learn,45487.99991607666,Mon Dec 15 2025 18:27:32 GMT-0600 (Central Standard Time),417408.7999999523,A,ru,O,u,354,1,799.8999999761581,416608.89999997616,7241,WL,A,9.0
3,14.74399995803833,learn,45256.00004196167,Mon Dec 15 2025 18:27:32 GMT-0600 (Central Standard Time),417641.0,A,rug,O,g,217,1,1032.1000000238419,416608.89999997616,7241,WL,A,9.0
3,15.011000156402588,learn,44988.99984359741,Mon Dec 15 2025 18:27:32 GMT-0600 (Central Standard Time),417908.0,A,rugenter,O,enter,259,1,1299.1000000238419,416608.89999997616,7241,WL,A,9.0
3,15.361000061035156,learn,44638.999938964844,Mon Dec 15 2025 18:27:32 GMT-0600 (Central Standard Time),418258.10000002384,A,m,O,m,336,1,349.89999997615814,417908.2000000477,7241,WL,A,10.0
3,15.444000005722046,learn,44555.999994277954,Mon Dec 15 2025 18:27:32 GMT-0600 (Central Standard Time),418341.5,A,me,O,e,73,1,433.2999999523163,417908.2000000477,7241,WL,A,10.0
3,15.59500002861023,learn,44404.99997138977,Mon Dec 15 2025 18:27:32 GMT-0600 (Central Standard Time),418492.5,A,mea,O,a,133,1,584.2999999523163,417908.2000000477,7241,WL,A,10.0
3,15.776999950408936,learn,44223.000049591064,Mon Dec 15 2025 18:27:32 GMT-0600 (Central Standard Time),418674.2000000477,A,meas,O,s,168,1,766.0,417908.2000000477,7241,WL,A,10.0
3,16.5770001411438,learn,43422.9998588562,Mon Dec 15 2025 18:27:32 GMT-0600 (Central Standard Time),419474.60000002384,A,mea,O,backspace,790,1,1566.3999999761581,417908.2000000477,7241,WL,A,10.0
3,16.728000164031982,learn,43271.99983596802,Mon Dec 15 2025 18:27:32 GMT-0600 (Central Standard Time),419624.89999997616,A,mead,O,d,131,1,1716.6999999284744,417908.2000000477,7241,WL,A,10.0
3,17.210000038146973,learn,42789.99996185303,Mon Dec 15 2025 18:27:32 GMT-0600 (Central Standard Time),420107.2999999523,A,meado,O,o,466,1,2199.0999999046326,417908.2000000477,7241,WL,A,10.0
3,17.342999935150146,learn,42657.00006484985,Mon Dec 15 2025 18:27:32 GMT-0600 (Central Standard Time),420240.60000002384,A,meadow,O,w,110,1,2332.399999976158,417908.2000000477,7241,WL,A,10.0
3,18.177000045776367,learn,41822.99995422363,Mon Dec 15 2025 18:27:32 GMT-0600 (Central Standard Time),421073.7999999523,A,meadowenter,O,enter,817,1,3165.5999999046326,417908.2000000477,7241,WL,A,10.0
3,18.70900011062622,learn,41290.99988937378,Mon Dec 15 2025 18:27:32 GMT-0600 (Central Standard Time),421606.2000000477,A,h,O,h,514,1,532.2000000476837,421074.0,7241,WL,A,11.0
3,18.909000158309937,learn,41090.99984169006,Mon Dec 15 2025 18:27:32 GMT-0600 (Central Standard Time),421806.7000000477,A,ha,O,a,181,1,732.7000000476837,421074.0,7241,WL,A,11.0
3,19.042999982833862,learn,40957.00001716614,Mon Dec 15 2025 18:27:32 GMT-0600 (Central Standard Time),421940.0,A,har,O,r,123,1,866.0,421074.0,7241,WL,A,11.0
3,19.193000078201294,learn,40806.999921798706,Mon Dec 15 2025 18:27:32 GMT-0600 (Central Standard Time),422089.7999999523,A,harp,O,p,131,1,1015.7999999523163,421074.0,7241,WL,A,11.0
3,19.89300012588501,learn,40106.99987411499,Mon Dec 15 2025 18:27:32 GMT-0600 (Central Standard Time),422789.89999997616,A,harpenter,O,enter,678,1,1715.8999999761581,421074.0,7241,WL,A,11.0
3,20.526000022888184,learn,39473.99997711182,Mon Dec 15 2025 18:27:32 GMT-0600 (Central Standard Time),423422.7999999523,A,s,O,s,623,1,632.5999999046326,422790.2000000477,7241,WL,A,12.0
3,20.70900011062622,learn,39290.99988937378,Mon Dec 15 2025 18:27:32 GMT-0600 (Central Standard Time),423606.2999999523,A,sa,O,a,171,1,816.0999999046326,422790.2000000477,7241,WL,A,12.0
3,20.891000032424927,learn,39108.99996757507,Mon Dec 15 2025 18:27:32 GMT-0600 (Central Standard Time),423788.5,A,sal,O,l,164,1,998.2999999523163,422790.2000000477,7241,WL,A,12.0
3,21.20900011062622,learn,38790.99988937378,Mon Dec 15 2025 18:27:32 GMT-0600 (Central Standard Time),424105.89999997616,A,salt,O,t,313,1,1315.6999999284744,422790.2000000477,7241,WL,A,12.0
3,21.625,learn,38375.0,Mon Dec 15 2025 18:27:32 GMT-0600 (Central Standard Time),424522.39999997616,A,saltenter,O,enter,410,1,1732.1999999284744,422790.2000000477,7241,WL,A,12.0
3,22.009000062942505,learn,37990.999937057495,Mon Dec 15 2025 18:27:32 GMT-0600 (Central Standard Time),424906.2000000477,A,f,O,f,362,1,383.60000002384186,424522.60000002384,7241,WL,A,13.0
3,22.308000087738037,learn,37691.99991226196,Mon Dec 15 2025 18:27:32 GMT-0600 (Central Standard Time),425205.5,A,fn,O,n,288,1,682.8999999761581,424522.60000002384,7241,WL,A,13.0
3,22.77500009536743,learn,37224.99990463257,Mon Dec 15 2025 18:27:32 GMT-0600 (Central Standard Time),425672.2999999523,A,f,O,backspace,454,1,1149.6999999284744,424522.60000002384,7241,WL,A,13.0
3,23.058000087738037,learn,36941.99991226196,Mon Dec 15 2025 18:27:32 GMT-0600 (Central Standard Time),425955.10000002384,A,fi,O,i,265,1,1432.5,424522.60000002384,7241,WL,A,13.0
3,23.391000032424927,learn,36608.99996757507,Mon Dec 15 2025 18:27:32 GMT-0600 (Central Standard Time),426288.7000000477,A,fig,O,g,318,1,1766.1000000238419,424522.60000002384,7241,WL,A,13.0
3,23.85800004005432,learn,36141.99995994568,Mon Dec 15 2025 18:27:32 GMT-0600 (Central Standard Time),426754.89999997616,A,fi,O,backspace,450,1,2232.2999999523163,424522.60000002384,7241,WL,A,13.0
3,24.159000158309937,learn,35840.99984169006,Mon Dec 15 2025 18:27:32 GMT-0600 (Central Standard Time),427056.5,A,fin,O,n,278,1,2533.899999976158,424522.60000002384,7241,WL,A,13.0
3,24.256999969482422,learn,35743.00003051758,Mon Dec 15 2025 18:27:32 GMT-0600 (Central Standard Time),427154.7999999523,A,fing,O,g,81,1,2632.1999999284744,424522.60000002384,7241,WL,A,13.0
3,24.45900011062622,learn,35540.99988937378,Mon Dec 15 2025 18:27:32 GMT-0600 (Central Standard Time),427356.10000002384,A,finge,O,e,192,1,2833.5,424522.60000002384,7241,WL,A,13.0
3,24.54100012779236,learn,35458.99987220764,Mon Dec 15 2025 18:27:32 GMT-0600 (Central Standard Time),427438.2999999523,A,finger,O,r,71,1,2915.6999999284744,424522.60000002384,7241,WL,A,13.0
3,24.674000024795532,learn,35325.99997520447,Mon Dec 15 2025 18:27:32 GMT-0600 (Central Standard Time),427571.7999999523,A,fingerenter,O,enter,125,1,3049.1999999284744,424522.60000002384,7241,WL,A,13.0
3,24.924000024795532,learn,35075.99997520447,Mon Dec 15 2025 18:27:32 GMT-0600 (Central Standard Time),427821.2000000477,A,a,O,a,242,1,249.20000004768372,427572.0,7241,WL,A,14.0
3,25.092000007629395,learn,34907.999992370605,Mon Dec 15 2025 18:27:32 GMT-0600 (Central Standard Time),427989.10000002384,A,ap,O,p,150,1,417.10000002384186,427572.0,7241,WL,A,14.0
3,25.2739999294281,learn,34726.0000705719,Mon Dec 15 2025 18:27:32 GMT-0600 (Central Standard Time),428171.39999997616,A,app,O,p,165,1,599.3999999761581,427572.0,7241,WL,A,14.0
3,25.506999969482422,learn,34493.00003051758,Mon Dec 15 2025 18:27:32 GMT-0600 (Central Standard Time),428404.2999999523,A,appl,O,l,224,1,832.2999999523163,427572.0,7241,WL,A,14.0
3,25.625,learn,34375.0,Mon Dec 15 2025 18:27:32 GMT-0600 (Central Standard Time),428521.7999999523,A,apple,O,e,95,1,949.7999999523163,427572.0,7241,WL,A,14.0
3,25.891000032424927,learn,34108.99996757507,Mon Dec 15 2025 18:27:32 GMT-0600 (Central Standard Time),428788.10000002384,A,appleenter,O,enter,259,1,1216.1000000238419,427572.0,7241,WL,A,14.0
3,26.29100012779236,learn,33708.99987220764,Mon Dec 15 2025 18:27:32 GMT-0600 (Central Standard Time),429187.89999997616,A,c,O,c,394,1,399.60000002384186,428788.2999999523,7241,WL,A,15.0
3,26.424999952316284,learn,33575.000047683716,Mon Dec 15 2025 18:27:32 GMT-0600 (Central Standard Time),429321.7999999523,A,ch,O,h,122,1,533.5,428788.2999999523,7241,WL,A,15.0
3,26.54200005531311,learn,33457.99994468689,Mon Dec 15 2025 18:27:32 GMT-0600 (Central Standard Time),429439.0,A,chi,O,i,100,1,650.7000000476837,428788.2999999523,7241,WL,A,15.0
3,26.874000072479248,learn,33125.99992752075,Mon Dec 15 2025 18:27:32 GMT-0600 (Central Standard Time),429771.39999997616,A,chim,O,m,314,1,983.1000000238419,428788.2999999523,7241,WL,A,15.0
3,27.157000064849854,learn,32842.99993515015,Mon Dec 15 2025 18:27:32 GMT-0600 (Central Standard Time),430053.89999997616,A,chimn,O,n,273,1,1265.6000000238419,428788.2999999523,7241,WL,A,15.0
3,27.289999961853027,learn,32710.000038146973,Mon Dec 15 2025 18:27:32 GMT-0600 (Central Standard Time),430187.2000000477,A,chimne,O,e,124,1,1398.9000000953674,428788.2999999523,7241,WL,A,15.0
3,27.506999969482422,learn,32493.000030517578,Mon Dec 15 2025 18:27:32 GMT-0600 (Central Standard Time),430403.89999997616,A,chimney,O,y,209,1,1615.6000000238419,428788.2999999523,7241,WL,A,15.0
3,27.907000064849854,learn,32092.999935150146,Mon Dec 15 2025 18:27:32 GMT-0600 (Central Standard Time),430804.5,A,chimneyenter,O,enter,391,1,2016.2000000476837,428788.2999999523,7241,WL,A,15.0
4,1.9149999618530273,learn,58085.00003814697,Mon Dec 15 2025 18:27:32 GMT-0600 (Central Standard Time),499882.5,A,b,O,b,1902,1,1915.1000000238419,497967.39999997616,7241,WL,A,1.0
4,2.1660001277923584,learn,57833.99987220764,Mon Dec 15 2025 18:27:32 GMT-0600 (Central Standard Time),500133.2000000477,A,bu,O,u,234,1,2165.8000000715256,497967.39999997616,7241,WL,A,1.0
4,2.381999969482422,learn,57618.00003051758,Mon Dec 15 2025 18:27:32 GMT-0600 (Central Standard Time),500349.10000002384,A,but,O,t,211,1,2381.7000000476837,497967.39999997616,7241,WL,A,1.0
4,2.5490000247955322,learn,57450.99997520447,Mon Dec 15 2025 18:27:32 GMT-0600 (Central Standard Time),500516.0,A,butt,O,t,162,1,2548.600000023842,497967.39999997616,7241,WL,A,1.0
4,2.680999994277954,learn,57319.000005722046,Mon Dec 15 2025 18:27:32 GMT-0600 (Central Standard Time),500648.2999999523,A,butto,O,o,120,1,2680.899999976158,497967.39999997616,7241,WL,A,1.0
4,2.865999937057495,learn,57134.000062942505,Mon Dec 15 2025 18:27:32 GMT-0600 (Central Standard Time),500832.89999997616,A,button,O,n,174,1,2865.5,497967.39999997616,7241,WL,A,1.0
4,3.364000082015991,learn,56635.99991798401,Mon Dec 15 2025 18:27:32 GMT-0600 (Central Standard Time),501331.2999999523,A,buttonenter,O,enter,493,1,3363.899999976158,497967.39999997616,7241,WL,A,1.0
4,3.763000011444092,learn,56236.99998855591,Mon Dec 15 2025 18:27:32 GMT-0600 (Central Standard Time),501730.60000002384,A,l,O,l,385,1,399.10000002384186,501331.5,7241,WL,A,2.0
4,4.065000057220459,learn,55934.99994277954,Mon Dec 15 2025 18:27:32 GMT-0600 (Central Standard Time),502031.89999997616,A,lo,O,o,282,1,700.3999999761581,501331.5,7241,WL,A,2.0
4,4.21399998664856,learn,55786.00001335144,Mon Dec 15 2025 18:27:32 GMT-0600 (Central Standard Time),502181.5,A,log,O,g,132,1,850.0,501331.5,7241,WL,A,2.0
4,4.581000089645386,learn,55418.999910354614,Mon Dec 15 2025 18:27:32 GMT-0600 (Central Standard Time),502548.39999997616,A,logenter,O,enter,359,1,1216.8999999761581,501331.5,7241,WL,A,2.0
4,4.963000059127808,learn,55036.99994087219,Mon Dec 15 2025 18:27:32 GMT-0600 (Central Standard Time),502930.5,A,k,O,k,368,1,381.7999999523163,502548.7000000477,7241,WL,A,3.0
4,5.197000026702881,learn,54802.99997329712,Mon Dec 15 2025 18:27:32 GMT-0600 (Central Standard Time),503164.7999999523,A,ke,O,e,217,1,616.0999999046326,502548.7000000477,7241,WL,A,3.0
4,5.398000001907349,learn,54601.99999809265,Mon Dec 15 2025 18:27:32 GMT-0600 (Central Standard Time),503364.89999997616,A,key,O,y,184,1,816.1999999284744,502548.7000000477,7241,WL,A,3.0
4,5.700000047683716,learn,54299.999952316284,Mon Dec 15 2025 18:27:32 GMT-0600 (Central Standard Time),503667.0,A,keyenter,O,enter,296,1,1118.2999999523163,502548.7000000477,7241,WL,A,3.0
4,5.963000059127808,learn,54036.99994087219,Mon Dec 15 2025 18:27:32 GMT-0600 (Central Standard Time),503930.60000002384,A,r,O,r,257,1,263.2000000476837,503667.39999997616,7241,WL,A,4.0
4,6.114000082015991,learn,53885.99991798401,Mon Dec 15 2025 18:27:32 GMT-0600 (Central Standard Time),504081.0,A,ra,O,a,136,1,413.60000002384186,503667.39999997616,7241,WL,A,4.0
4,6.296999931335449,learn,53703.00006866455,Mon Dec 15 2025 18:27:32 GMT-0600 (Central Standard Time),504264.10000002384,A,rat,O,t,162,1,596.7000000476837,503667.39999997616,7241,WL,A,4.0
4,6.446000099182129,learn,53553.99990081787,Mon Dec 15 2025 18:27:32 GMT-0600 (Central Standard Time),504413.5,A,ratt,O,t,139,1,746.1000000238419,503667.39999997616,7241,WL,A,4.0
4,6.733000040054321,learn,53266.99995994568,Mon Dec 15 2025 18:27:32 GMT-0600 (Central Standard Time),504700.10000002384,A,ratte,O,e,269,1,1032.7000000476837,503667.39999997616,7241,WL,A,4.0
4,8.878999948501587,learn,51121.00005149841,Mon Dec 15 2025 18:27:32 GMT-0600 (Central Standard Time),506846.39999997616,A,ratt,O,backspace,2138,1,3179.0,503667.39999997616,7241,WL,A,4.0
4,9.411999940872192,learn,50588.00005912781,Mon Dec 15 2025 18:27:32 GMT-0600 (Central Standard Time),507379.5,A,rattl,O,l,517,1,3712.100000023842,503667.39999997616,7241,WL,A,4.0
4,9.578999996185303,learn,50421.0000038147,Mon Dec 15 2025 18:27:32 GMT-0600 (Central Standard Time),507546.60000002384,A,rattle,O,e,152,1,3879.2000000476837,503667.39999997616,7241,WL,A,4.0
4,9.996000051498413,learn,50003.99994850159,Mon Dec 15 2025 18:27:32 GMT-0600 (Central Standard Time),507963.60000002384,A,rattleenter,O,enter,409,1,4296.200000047684,503667.39999997616,7241,WL,A,4.0
4,10.578999996185303,learn,49421.0000038147,Mon Dec 15 2025 18:27:32 GMT-0600 (Central Standard Time),508546.2999999523,A,g,O,g,569,1,582.3999999761581,507963.89999997616,7241,WL,A,5.0
4,10.71399998664856,learn,49286.00001335144,Mon Dec 15 2025 18:27:32 GMT-0600 (Central Standard Time),508681.2000000477,A,go,O,o,121,1,717.3000000715256,507963.89999997616,7241,WL,A,5.0
4,10.92799997329712,learn,49072.00002670288,Mon Dec 15 2025 18:27:32 GMT-0600 (Central Standard Time),508895.5,A,gol,O,l,195,1,931.6000000238419,507963.89999997616,7241,WL,A,5.0
4,11.01200008392334,learn,48987.99991607666,Mon Dec 15 2025 18:27:32 GMT-0600 (Central Standard Time),508979.2000000477,A,gold,O,d,74,1,1015.3000000715256,507963.89999997616,7241,WL,A,5.0
4,11.279000043869019,learn,48720.99995613098,Mon Dec 15 2025 18:27:32 GMT-0600 (Central Standard Time),509246.60000002384,A,goldenter,O,enter,249,1,1282.7000000476837,507963.89999997616,7241,WL,A,5.0
4,11.746000051498413,learn,48253.99994850159,Mon Dec 15 2025 18:27:32 GMT-0600 (Central Standard Time),509713.10000002384,A,b,O,b,453,1,466.3000000715256,509246.7999999523,7241,WL,A,6.0
4,11.861999988555908,learn,48138.00001144409,Mon Dec 15 2025 18:27:32 GMT-0600 (Central Standard Time),509829.7999999523,A,bo,O,o,107,1,583.0,509246.7999999523,7241,WL,A,6.0
4,12.07800006866455,learn,47921.99993133545,Mon Dec 15 2025 18:27:32 GMT-0600 (Central Standard Time),510045.60000002384,A,boo,O,o,197,1,798.8000000715256,509246.7999999523,7241,WL,A,6.0
4,12.17799997329712,learn,47822.00002670288,Mon Dec 15 2025 18:27:32 GMT-0600 (Central Standard Time),510145.39999997616,A,booo,O,o,85,1,898.6000000238419,509246.7999999523,7241,WL,A,6.0
4,12.54699993133545,learn,47453.00006866455,Mon Dec 15 2025 18:27:32 GMT-0600 (Central Standard Time),510514.5,A,boook,O,k,361,1,1267.7000000476837,509246.7999999523,7241,WL,A,6.0
4,13.09500002861023,learn,46904.99997138977,Mon Dec 15 2025 18:27:32 GMT-0600 (Central Standard Time),511061.7999999523,A,booo,O,backspace,528,1,1815.0,509246.7999999523,7241,WL,A,6.0
4,13.24399995803833,learn,46756.00004196167,Mon Dec 15 2025 18:27:32 GMT-0600 (Central Standard Time),511210.89999997616,A,boo,O,backspace,142,1,1964.1000000238419,509246.7999999523,7241,WL,A,6.0
4,13.710999965667725,learn,46289.000034332275,Mon Dec 15 2025 18:27:32 GMT-0600 (Central Standard Time),511678.2000000477,A,book,O,k,459,1,2431.4000000953674,509246.7999999523,7241,WL,A,6.0
4,14.127000093460083,learn,45872.99990653992,Mon Dec 15 2025 18:27:32 GMT-0600 (Central Standard Time),512094.2000000477,A,bookenter,O,enter,406,1,2847.4000000953674,509246.7999999523,7241,WL,A,6.0
4,14.526999950408936,learn,45473.000049591064,Mon Dec 15 2025 18:27:32 GMT-0600 (Central Standard Time),512494.7999999523,A,f,O,f,382,1,400.1999999284744,512094.60000002384,7241,WL,A,7.0
4,14.592999935150146,learn,45407.00006484985,Mon Dec 15 2025 18:27:32 GMT-0600 (Central Standard Time),512560.2999999523,A,fl,O,l,44,1,465.6999999284744,512094.60000002384,7241,WL,A,7.0
4,14.795000076293945,learn,45204.999923706055,Mon Dec 15 2025 18:27:32 GMT-0600 (Central Standard Time),512761.7999999523,A,flo,O,o,190,1,667.1999999284744,512094.60000002384,7241,WL,A,7.0
4,14.877000093460083,learn,45122.99990653992,Mon Dec 15 2025 18:27:32 GMT-0600 (Central Standard Time),512843.7999999523,A,flow,O,w,65,1,749.1999999284744,512094.60000002384,7241,WL,A,7.0
4,14.996000051498413,learn,45003.99994850159,Mon Dec 15 2025 18:27:32 GMT-0600 (Central Standard Time),512963.0,A,flowe,O,e,112,1,868.3999999761581,512094.60000002384,7241,WL,A,7.0
4,15.110000133514404,learn,44889.999866485596,Mon Dec 15 2025 18:27:32 GMT-0600 (Central Standard Time),513077.60000002384,A,flower,O,r,93,1,983.0,512094.60000002384,7241,WL,A,7.0
4,15.561000108718872,learn,44438.99989128113,Mon Dec 15 2025 18:27:32 GMT-0600 (Central Standard Time),513528.0,A,flowerenter,O,enter,427,1,1433.3999999761581,512094.60000002384,7241,WL,A,7.0
4,15.89300012588501,learn,44106.99987411499,Mon Dec 15 2025 18:27:32 GMT-0600 (Central Standard Time),513860.7000000477,A,t,O,t,317,1,332.5,513528.2000000477,7241,WL,A,8.0
4,16.07800006866455,learn,43921.99993133545,Mon Dec 15 2025 18:27:32 GMT-0600 (Central Standard Time),514045.2999999523,A,tr,O,r,175,1,517.0999999046326,513528.2000000477,7241,WL,A,8.0
4,16.194000005722046,learn,43805.999994277954,Mon Dec 15 2025 18:27:32 GMT-0600 (Central Standard Time),514161.7999999523,A,tra,O,a,109,1,633.5999999046326,513528.2000000477,7241,WL,A,8.0
4,16.311000108718872,learn,43688.99989128113,Mon Dec 15 2025 18:27:32 GMT-0600 (Central Standard Time),514278.39999997616,A,trai,O,i,95,1,750.1999999284744,513528.2000000477,7241,WL,A,8.0
4,16.49399995803833,learn,43506.00004196167,Mon Dec 15 2025 18:27:32 GMT-0600 (Central Standard Time),514461.5,A,train,O,n,165,1,933.2999999523163,513528.2000000477,7241,WL,A,8.0
4,17.009999990463257,learn,42990.00000953674,Mon Dec 15 2025 18:27:32 GMT-0600 (Central Standard Time),514976.89999997616,A,trainenter,O,enter,500,1,1448.6999999284744,513528.2000000477,7241,WL,A,8.0
4,17.325999975204468,learn,42674.00002479553,Mon Dec 15 2025 18:27:32 GMT-0600 (Central Standard Time),515293.7000000477,A,r,O,r,299,1,316.60000002384186,514977.10000002384,7241,WL,A,9.0
4,17.542999982833862,learn,42457.00001716614,Mon Dec 15 2025 18:27:32 GMT-0600 (Central Standard Time),515510.2999999523,A,ru,O,u,205,1,533.1999999284744,514977.10000002384,7241,WL,A,9.0
4,17.743000030517578,learn,42256.99996948242,Mon Dec 15 2025 18:27:32 GMT-0600 (Central Standard Time),515709.89999997616,A,rug,O,g,182,1,732.7999999523163,514977.10000002384,7241,WL,A,9.0
4,18.16000008583069,learn,41839.99991416931,Mon Dec 15 2025 18:27:32 GMT-0600 (Central Standard Time),516127.0,A,rugenter,O,enter,396,1,1149.8999999761581,514977.10000002384,7241,WL,A,9.0
4,18.492000102996826,learn,41507.999897003174,Mon Dec 15 2025 18:27:32 GMT-0600 (Central Standard Time),516459.7999999523,A,m,O,m,325,1,332.59999990463257,516127.2000000477,7241,WL,A,10.0
4,18.7260000705719,learn,41273.9999294281,Mon Dec 15 2025 18:27:32 GMT-0600 (Central Standard Time),516692.89999997616,A,me,O,e,222,1,565.6999999284744,516127.2000000477,7241,WL,A,10.0
4,18.909000158309937,learn,41090.99984169006,Mon Dec 15 2025 18:27:32 GMT-0600 (Central Standard Time),516876.7999999523,A,mea,O,a,173,1,749.5999999046326,516127.2000000477,7241,WL,A,10.0
4,19.325999975204468,learn,40674.00002479553,Mon Dec 15 2025 18:27:32 GMT-0600 (Central Standard Time),517293.10000002384,A,mead,O,d,398,1,1165.8999999761581,516127.2000000477,7241,WL,A,10.0
4,19.64400005340576,learn,40355.99994659424,Mon Dec 15 2025 18:27:32 GMT-0600 (Central Standard Time),517611.0,A,meado,O,o,293,1,1483.7999999523163,516127.2000000477,7241,WL,A,10.0
4,19.842999935150146,learn,40157.00006484985,Mon Dec 15 2025 18:27:32 GMT-0600 (Central Standard Time),517809.7999999523,A,meadow,O,w,185,1,1682.5999999046326,516127.2000000477,7241,WL,A,10.0
4,20.243000030517578,learn,39756.99996948242,Mon Dec 15 2025 18:27:32 GMT-0600 (Central Standard Time),518209.89999997616,A,meadowenter,O,enter,386,1,2082.6999999284744,516127.2000000477,7241,WL,A,10.0
4,20.759000062942505,learn,39240.999937057495,Mon Dec 15 2025 18:27:32 GMT-0600 (Central Standard Time),518726.2000000477,A,h,O,h,507,1,516.0,518210.2000000477,7241,WL,A,11.0
4,20.909000158309937,learn,39090.99984169006,Mon Dec 15 2025 18:27:32 GMT-0600 (Central Standard Time),518875.89999997616,A,ha,O,a,142,1,665.6999999284744,518210.2000000477,7241,WL,A,11.0
4,21.05999994277954,learn,38940.00005722046,Mon Dec 15 2025 18:27:32 GMT-0600 (Central Standard Time),519027.2999999523,A,har,O,r,145,1,817.0999999046326,518210.2000000477,7241,WL,A,11.0
4,21.176000118255615,learn,38823.999881744385,Mon Dec 15 2025 18:27:32 GMT-0600 (Central Standard Time),519142.7999999523,A,harp,O,p,104,1,932.5999999046326,518210.2000000477,7241,WL,A,11.0
4,21.758000135421753,learn,38241.99986457825,Mon Dec 15 2025 18:27:32 GMT-0600 (Central Standard Time),519725.10000002384,A,harpenter,O,enter,565,1,1514.8999999761581,518210.2000000477,7241,WL,A,11.0
4,22.092000007629395,learn,37907.999992370605,Mon Dec 15 2025 18:27:32 GMT-0600 (Central Standard Time),520059.5,A,s,O,s,328,1,334.0,519725.5,7241,WL,A,12.0
4,22.35800004005432,learn,37641.99995994568,Mon Dec 15 2025 18:27:32 GMT-0600 (Central Standard Time),520325.7999999523,A,sa,O,a,247,1,600.2999999523163,519725.5,7241,WL,A,12.0
4,22.493000030517578,learn,37506.99996948242,Mon Dec 15 2025 18:27:32 GMT-0600 (Central Standard Time),520460.2999999523,A,sal,O,l,128,1,734.7999999523163,519725.5,7241,WL,A,12.0
4,22.7260000705719,learn,37273.9999294281,Mon Dec 15 2025 18:27:32 GMT-0600 (Central Standard Time),520693.0,A,salt,O,t,224,1,967.5,519725.5,7241,WL,A,12.0
4,23.04200005531311,learn,36957.99994468689,Mon Dec 15 2025 18:27:32 GMT-0600 (Central Standard Time),521009.0,A,saltenter,O,enter,303,1,1283.5,519725.5,7241,WL,A,12.0
4,23.292999982833862,learn,36707.00001716614,Mon Dec 15 2025 18:27:32 GMT-0600 (Central Standard Time),521260.0,A,f,O,f,235,1,250.70000004768372,521009.2999999523,7241,WL,A,13.0
4,23.427000045776367,learn,36572.99995422363,Mon Dec 15 2025 18:27:32 GMT-0600 (Central Standard Time),521394.5,A,fi,O,i,129,1,385.2000000476837,521009.2999999523,7241,WL,A,13.0
4,23.608999967575073,learn,36391.00003242493,Mon Dec 15 2025 18:27:32 GMT-0600 (Central Standard Time),521576.39999997616,A,fin,O,n,160,1,567.1000000238419,521009.2999999523,7241,WL,A,13.0
4,23.674000024795532,learn,36325.99997520447,Mon Dec 15 2025 18:27:32 GMT-0600 (Central Standard Time),521641.7999999523,A,fing,O,g,51,1,632.5,521009.2999999523,7241,WL,A,13.0
4,23.858999967575073,learn,36141.00003242493,Mon Dec 15 2025 18:27:32 GMT-0600 (Central Standard Time),521826.2000000477,A,finge,O,e,178,1,816.9000000953674,521009.2999999523,7241,WL,A,13.0
4,23.94000005722046,learn,36059.99994277954,Mon Dec 15 2025 18:27:32 GMT-0600 (Central Standard Time),521907.39999997616,A,finger,O,r,72,1,898.1000000238419,521009.2999999523,7241,WL,A,13.0
4,24.94099998474121,learn,35059.00001525879,Mon Dec 15 2025 18:27:32 GMT-0600 (Central Standard Time),522908.7000000477,A,fingerenter,O,enter,992,1,1899.4000000953674,521009.2999999523,7241,WL,A,13.0
4,25.35700011253357,learn,34642.99988746643,Mon Dec 15 2025 18:27:32 GMT-0600 (Central Standard Time),523324.10000002384,A,a,O,a,399,1,415.10000002384186,522909.0,7241,WL,A,14.0
4,25.60700011253357,learn,34392.99988746643,Mon Dec 15 2025 18:27:32 GMT-0600 (Central Standard Time),523574.7000000477,A,ap,O,p,239,1,665.7000000476837,522909.0,7241,WL,A,14.0
4,25.7739999294281,learn,34226.0000705719,Mon Dec 15 2025 18:27:32 GMT-0600 (Central Standard Time),523741.10000002384,A,app,O,p,157,1,832.1000000238419,522909.0,7241,WL,A,14.0
4,26.006999969482422,learn,33993.00003051758,Mon Dec 15 2025 18:27:32 GMT-0600 (Central Standard Time),523974.2000000477,A,appl,O,l,221,1,1065.2000000476837,522909.0,7241,WL,A,14.0
4,26.123000144958496,learn,33876.999855041504,Mon Dec 15 2025 18:27:32 GMT-0600 (Central Standard Time),524090.60000002384,A,apple,O,e,101,1,1181.6000000238419,522909.0,7241,WL,A,14.0
4,27.157000064849854,learn,32842.99993515015,Mon Dec 15 2025 18:27:32 GMT-0600 (Central Standard Time),525124.0,A,appleenter,O,enter,1015,1,2215.0,522909.0,7241,WL,A,14.0
4,27.59000015258789,learn,32409.99984741211,Mon Dec 15 2025 18:27:32 GMT-0600 (Central Standard Time),525556.8999999762,A,c,O,c,416,1,432.60000002384186,525124.2999999523,7241,WL,A,15.0
4,27.756999969482422,learn,32243.000030517578,Mon Dec 15 2025 18:27:32 GMT-0600 (Central Standard Time),525724.2000000477,A,ch,O,h,151,1,599.9000000953674,525124.2999999523,7241,WL,A,15.0
4,28.074000120162964,learn,31925.999879837036,Mon Dec 15 2025 18:27:32 GMT-0600 (Central Standard Time),526041.0,A,chi,O,i,302,1,916.7000000476837,525124.2999999523,7241,WL,A,15.0
4,28.34000015258789,learn,31659.99984741211,Mon Dec 15 2025 18:27:32 GMT-0600 (Central Standard Time),526307.2000000477,A,chim,O,m,258,1,1182.9000000953674,525124.2999999523,7241,WL,A,15.0
4,28.740000009536743,learn,31259.999990463257,Mon Dec 15 2025 18:27:32 GMT-0600 (Central Standard Time),526707.5,A,chimn,O,n,389,1,1583.2000000476837,525124.2999999523,7241,WL,A,15.0
4,28.957000017166138,learn,31042.999982833862,Mon Dec 15 2025 18:27:32 GMT-0600 (Central Standard Time),526924.3999999762,A,chimne,O,e,202,1,1800.1000000238419,525124.2999999523,7241,WL,A,15.0
4,29.40499997138977,learn,30595.00002861023,Mon Dec 15 2025 18:27:32 GMT-0600 (Central Standard Time),527372.0,A,chimney,O,y,429,1,2247.7000000476837,525124.2999999523,7241,WL,A,15.0
4,29.92199993133545,learn,30078.00006866455,Mon Dec 15 2025 18:27:32 GMT-0600 (Central Standard Time),527889.5,A,chimneyenter,O,enter,502,1,2765.2000000476837,525124.2999999523,7241,WL,A,15.0
5,1.2619998455047607,learn,60000.0,Mon Dec 15 2025 18:27:32 GMT-0600 (Central Standard Time),597716.0,A,b,O,b,1248,1,1262.7000000476837,596453.2999999523,7241,WL,A,1.0
5,1.4800000190734863,learn,60000.0,Mon Dec 15 2025 18:27:32 GMT-0600 (Central Standard Time),597934.2999999523,A,bu,O,u,202,1,1481.0,596453.2999999523,7241,WL,A,1.0
5,1.6629998683929443,learn,60000.0,Mon Dec 15 2025 18:27:32 GMT-0600 (Central Standard Time),598117.7000000477,A,but,O,t,175,1,1664.4000000953674,596453.2999999523,7241,WL,A,1.0
5,1.7969999313354492,learn,60000.0,Mon Dec 15 2025 18:27:32 GMT-0600 (Central Standard Time),598251.6000000238,A,butt,O,t,127,1,1798.3000000715256,596453.2999999523,7241,WL,A,1.0
5,1.929999828338623,learn,60000.0,Mon Dec 15 2025 18:27:32 GMT-0600 (Central Standard Time),598384.1000000238,A,butto,O,o,122,1,1930.8000000715256,596453.2999999523,7241,WL,A,1.0
5,2.0969998836517334,learn,60000.0,Mon Dec 15 2025 18:27:32 GMT-0600 (Central Standard Time),598551.2000000477,A,button,O,n,154,1,2097.9000000953674,596453.2999999523,7241,WL,A,1.0
5,2.7129998207092285,learn,60000.0,Mon Dec 15 2025 18:27:32 GMT-0600 (Central Standard Time),599166.8999999762,A,buttonenter,O,enter,596,1,2713.600000023842,596453.2999999523,7241,WL,A,1.0
5,3.061999797821045,learn,60000.0,Mon Dec 15 2025 18:27:32 GMT-0600 (Central Standard Time),599516.6000000238,A,l,O,l,343,1,349.5,599167.1000000238,7241,WL,A,2.0
5,3.312999963760376,learn,60000.0,Mon Dec 15 2025 18:27:32 GMT-0600 (Central Standard Time),599767.7000000477,A,lo,O,o,241,1,600.6000000238419,599167.1000000238,7241,WL,A,2.0
5,3.495999813079834,learn,60000.0,Mon Dec 15 2025 18:27:32 GMT-0600 (Central Standard Time),599950.1000000238,A,log,O,g,173,1,783.0,599167.1000000238,7241,WL,A,2.0
5,3.8959999084472656,learn,60000.0,Mon Dec 15 2025 18:27:32 GMT-0600 (Central Standard Time),600350.2999999523,A,logenter,O,enter,392,1,1183.1999999284744,599167.1000000238,7241,WL,A,2.0
5,4.328999996185303,learn,60000.0,Mon Dec 15 2025 18:27:32 GMT-0600 (Central Standard Time),600783.7000000477,A,k,O,k,414,1,433.10000002384186,600350.6000000238,7241,WL,A,3.0
5,4.5289998054504395,learn,60000.0,Mon Dec 15 2025 18:27:32 GMT-0600 (Central Standard Time),600983.2000000477,A,ke,O,e,190,1,632.6000000238419,600350.6000000238,7241,WL,A,3.0
5,4.763000011444092,learn,60000.0,Mon Dec 15 2025 18:27:32 GMT-0600 (Central Standard Time),601217.2999999523,A,key,O,y,213,1,866.6999999284744,600350.6000000238,7241,WL,A,3.0
5,5.077999830245972,learn,60000.0,Mon Dec 15 2025 18:27:32 GMT-0600 (Central Standard Time),601532.2999999523,A,keyenter,O,enter,307,1,1181.6999999284744,600350.6000000238,7241,WL,A,3.0
5,5.477999925613403,learn,60000.0,Mon Dec 15 2025 18:27:32 GMT-0600 (Central Standard Time),601932.0,A,r,O,r,393,1,399.2999999523163,601532.7000000477,7241,WL,A,4.0
5,5.829999923706055,learn,60000.0,Mon Dec 15 2025 18:27:32 GMT-0600 (Central Standard Time),602284.6000000238,A,rt,O,t,337,1,751.8999999761581,601532.7000000477,7241,WL,A,4.0
5,6.010999917984009,learn,60000.0,Mon Dec 15 2025 18:27:32 GMT-0600 (Central Standard Time),602465.6000000238,A,rtt,O,t,169,1,932.8999999761581,601532.7000000477,7241,WL,A,4.0
5,6.628000020980835,learn,60000.0,Mon Dec 15 2025 18:27:32 GMT-0600 (Central Standard Time),603082.6000000238,A,rt,O,backspace,613,1,1549.8999999761581,601532.7000000477,7241,WL,A,4.0
5,6.796000003814697,learn,60000.0,Mon Dec 15 2025 18:27:32 GMT-0600 (Central Standard Time),603250.1000000238,A,r,O,backspace,155,1,1717.3999999761581,601532.7000000477,7241,WL,A,4.0
5,7.043999910354614,learn,60000.0,Mon Dec 15 2025 18:27:32 GMT-0600 (Central Standard Time),603498.2999999523,A,ra,O,a,234,1,1965.5999999046326,601532.7000000477,7241,WL,A,4.0
5,7.227999925613403,learn,60000.0,Mon Dec 15 2025 18:27:32 GMT-0600 (Central Standard Time),603682.6000000238,A,rat,O,t,163,1,2149.899999976158,601532.7000000477,7241,WL,A,4.0
5,7.645999908447266,learn,60000.0,Mon Dec 15 2025 18:27:32 GMT-0600 (Central Standard Time),604100.1000000238,A,ratt,O,t,401,1,2567.399999976158,601532.7000000477,7241,WL,A,4.0
5,7.84499979019165,learn,60000.0,Mon Dec 15 2025 18:27:32 GMT-0600 (Central Standard Time),604299.7999999523,A,rattl,O,l,195,1,2767.0999999046326,601532.7000000477,7241,WL,A,4.0
5,8.077999830245972,learn,60000.0,Mon Dec 15 2025 18:27:32 GMT-0600 (Central Standard Time),604532.0,A,rattle,O,e,212,1,2999.2999999523163,601532.7000000477,7241,WL,A,4.0
5,8.34499979019165,learn,60000.0,Mon Dec 15 2025 18:27:32 GMT-0600 (Central Standard Time),604798.8999999762,A,rattleenter,O,enter,255,1,3266.1999999284744,601532.7000000477,7241,WL,A,4.0
5,8.678999900817871,learn,60000.0,Mon Dec 15 2025 18:27:32 GMT-0600 (Central Standard Time),605133.2999999523,A,g,O,g,318,1,334.1999999284744,604799.1000000238,7241,WL,A,5.0
5,8.776999950408936,learn,60000.0,Mon Dec 15 2025 18:27:32 GMT-0600 (Central Standard Time),605231.2000000477,A,go,O,o,87,1,432.10000002384186,604799.1000000238,7241,WL,A,5.0
5,9.044999837875366,learn,60000.0,Mon Dec 15 2025 18:27:32 GMT-0600 (Central Standard Time),605499.7999999523,A,gol,O,l,263,1,700.6999999284744,604799.1000000238,7241,WL,A,5.0
5,9.175999879837036,learn,60000.0,Mon Dec 15 2025 18:27:32 GMT-0600 (Central Standard Time),605630.6000000238,A,gold,O,d,121,1,831.5,604799.1000000238,7241,WL,A,5.0
5,9.492999792098999,learn,60000.0,Mon Dec 15 2025 18:27:32 GMT-0600 (Central Standard Time),605947.2999999523,A,goldenter,O,enter,302,1,1148.1999999284744,604799.1000000238,7241,WL,A,5.0
5,10.908999919891357,learn,60000.0,Mon Dec 15 2025 18:27:32 GMT-0600 (Central Standard Time),607363.3999999762,A,b,O,b,1401,1,1415.7999999523163,605947.6000000238,7241,WL,A,6.0
5,11.07699990272522,learn,60000.0,Mon Dec 15 2025 18:27:32 GMT-0600 (Central Standard Time),607531.3999999762,A,bo,O,o,154,1,1583.7999999523163,605947.6000000238,7241,WL,A,6.0
5,11.226999998092651,learn,60000.0,Mon Dec 15 2025 18:27:32 GMT-0600 (Central Standard Time),607681.5,A,boo,O,o,138,1,1733.8999999761581,605947.6000000238,7241,WL,A,6.0
5,11.442999839782715,learn,60000.0,Mon Dec 15 2025 18:27:32 GMT-0600 (Central Standard Time),607896.8999999762,A,book,O,k,212,1,1949.2999999523163,605947.6000000238,7241,WL,A,6.0
5,11.95799994468689,learn,60000.0,Mon Dec 15 2025 18:27:32 GMT-0600 (Central Standard Time),608412.8999999762,A,bookenter,O,enter,502,1,2465.2999999523163,605947.6000000238,7241,WL,A,6.0
5,12.276000022888184,learn,60000.0,Mon Dec 15 2025 18:27:32 GMT-0600 (Central Standard Time),608730.1000000238,A,f,O,f,305,1,317.10000002384186,608413.0,7241,WL,A,7.0
5,12.358999967575073,learn,60000.0,Mon Dec 15 2025 18:27:32 GMT-0600 (Central Standard Time),608813.8999999762,A,fl,O,l,76,1,400.89999997615814,608413.0,7241,WL,A,7.0
5,12.593999862670898,learn,60000.0,Mon Dec 15 2025 18:27:32 GMT-0600 (Central Standard Time),609048.6000000238,A,flo,O,o,223,1,635.6000000238419,608413.0,7241,WL,A,7.0
5,12.709999799728394,learn,60000.0,Mon Dec 15 2025 18:27:32 GMT-0600 (Central Standard Time),609164.3999999762,A,flow,O,w,100,1,751.3999999761581,608413.0,7241,WL,A,7.0
5,12.792999982833862,learn,60000.0,Mon Dec 15 2025 18:27:32 GMT-0600 (Central Standard Time),609247.2999999523,A,flowe,O,e,71,1,834.2999999523163,608413.0,7241,WL,A,7.0
5,12.959999799728394,learn,60000.0,Mon Dec 15 2025 18:27:32 GMT-0600 (Central Standard Time),609414.5,A,flower,O,r,149,1,1001.5,608413.0,7241,WL,A,7.0
5,13.241999864578247,learn,60000.0,Mon Dec 15 2025 18:27:32 GMT-0600 (Central Standard Time),609696.2000000477,A,flowerenter,O,enter,269,1,1283.2000000476837,608413.0,7241,WL,A,7.0
5,13.675999879837036,learn,60000.0,Mon Dec 15 2025 18:27:32 GMT-0600 (Central Standard Time),610130.7000000477,A,t,O,t,420,1,434.2000000476837,609696.5,7241,WL,A,8.0
5,13.891999959945679,learn,60000.0,Mon Dec 15 2025 18:27:32 GMT-0600 (Central Standard Time),610346.2000000477,A,tr,O,r,203,1,649.7000000476837,609696.5,7241,WL,A,8.0
5,14.009999990463257,learn,60000.0,Mon Dec 15 2025 18:27:32 GMT-0600 (Central Standard Time),610464.5,A,tra,O,a,107,1,768.0,609696.5,7241,WL,A,8.0
5,14.15999984741211,learn,60000.0,Mon Dec 15 2025 18:27:32 GMT-0600 (Central Standard Time),610614.1000000238,A,trai,O,i,139,1,917.6000000238419,609696.5,7241,WL,A,8.0
5,14.359999895095825,learn,60000.0,Mon Dec 15 2025 18:27:32 GMT-0600 (Central Standard Time),610814.3999999762,A,train,O,n,196,1,1117.8999999761581,609696.5,7241,WL,A,8.0
5,14.674999952316284,learn,60000.0,Mon Dec 15 2025 18:27:32 GMT-0600 (Central Standard Time),611129.5,A,trainenter,O,enter,296,1,1433.0,609696.5,7241,WL,A,8.0
5,14.958999872207642,learn,60000.0,Mon Dec 15 2025 18:27:32 GMT-0600 (Central Standard Time),611413.1000000238,A,r,O,r,266,1,283.39999997615814,611129.7000000477,7241,WL,A,9.0
5,15.126999855041504,learn,60000.0,Mon Dec 15 2025 18:27:32 GMT-0600 (Central Standard Time),611581.2000000477,A,ru,O,u,164,1,451.5,611129.7000000477,7241,WL,A,9.0
5,15.307999849319458,learn,60000.0,Mon Dec 15 2025 18:27:32 GMT-0600 (Central Standard Time),611762.7000000477,A,rug,O,g,166,1,633.0,611129.7000000477,7241,WL,A,9.0
5,15.640999794006348,learn,60000.0,Mon Dec 15 2025 18:27:32 GMT-0600 (Central Standard Time),612095.3999999762,A,rugenter,O,enter,314,1,965.6999999284744,611129.7000000477,7241,WL,A,9.0
5,15.959999799728394,learn,60000.0,Mon Dec 15 2025 18:27:32 GMT-0600 (Central Standard Time),612414.3999999762,A,m,O,m,301,1,318.6999999284744,612095.7000000477,7241,WL,A,10.0
5,16.07799983024597,learn,60000.0,Mon Dec 15 2025 18:27:32 GMT-0600 (Central Standard Time),612532.2000000477,A,me,O,e,111,1,436.5,612095.7000000477,7241,WL,A,10.0
5,16.22499990463257,learn,60000.0,Mon Dec 15 2025 18:27:32 GMT-0600 (Central Standard Time),612679.2999999523,A,mea,O,a,127,1,583.5999999046326,612095.7000000477,7241,WL,A,10.0
5,16.408999919891357,learn,60000.0,Mon Dec 15 2025 18:27:32 GMT-0600 (Central Standard Time),612863.1000000238,A,mead,O,d,176,1,767.3999999761581,612095.7000000477,7241,WL,A,10.0
5,17.125999927520752,learn,60000.0,Mon Dec 15 2025 18:27:32 GMT-0600 (Central Standard Time),613580.1000000238,A,meado,O,o,710,1,1484.3999999761581,612095.7000000477,7241,WL,A,10.0
5,17.241999864578247,learn,60000.0,Mon Dec 15 2025 18:27:32 GMT-0600 (Central Standard Time),613696.6000000238,A,meadow,O,w,105,1,1600.8999999761581,612095.7000000477,7241,WL,A,10.0
5,17.375,learn,60000.0,Mon Dec 15 2025 18:27:32 GMT-0600 (Central Standard Time),613829.1000000238,A,meadown,O,n,117,1,1733.3999999761581,612095.7000000477,7241,WL,A,10.0
5,17.691999912261963,learn,60000.0,Mon Dec 15 2025 18:27:32 GMT-0600 (Central Standard Time),614146.2000000477,A,meadownenter,O,enter,311,1,2050.5,612095.7000000477,7241,WL,A,10.0
5,18.092000007629395,learn,60000.0,Mon Dec 15 2025 18:27:32 GMT-0600 (Central Standard Time),614546.2000000477,A,h,O,h,396,1,399.8000000715256,614146.3999999762,7241,WL,A,11.0
5,18.22599983215332,learn,60000.0,Mon Dec 15 2025 18:27:32 GMT-0600 (Central Standard Time),614680.2999999523,A,ha,O,a,123,1,533.8999999761581,614146.3999999762,7241,WL,A,11.0
5,18.35699987411499,learn,60000.0,Mon Dec 15 2025 18:27:32 GMT-0600 (Central Standard Time),614811.7000000477,A,har,O,r,126,1,665.3000000715256,614146.3999999762,7241,WL,A,11.0
5,18.457000017166138,learn,60000.0,Mon Dec 15 2025 18:27:32 GMT-0600 (Central Standard Time),614911.8999999762,A,harp,O,p,89,1,765.5,614146.3999999762,7241,WL,A,11.0
5,18.85699987411499,learn,60000.0,Mon Dec 15 2025 18:27:32 GMT-0600 (Central Standard Time),615311.1000000238,A,harpenter,O,enter,388,1,1164.7000000476837,614146.3999999762,7241,WL,A,11.0
5,19.18999981880188,learn,60000.0,Mon Dec 15 2025 18:27:32 GMT-0600 (Central Standard Time),615644.5,A,s,O,s,317,1,333.10000002384186,615311.3999999762,7241,WL,A,12.0
5,19.44099998474121,learn,60000.0,Mon Dec 15 2025 18:27:32 GMT-0600 (Central Standard Time),615895.2999999523,A,sa,O,a,232,1,583.8999999761581,615311.3999999762,7241,WL,A,12.0
5,19.590999841690063,learn,60000.0,Mon Dec 15 2025 18:27:32 GMT-0600 (Central Standard Time),616045.2000000477,A,sal,O,l,134,1,733.8000000715256,615311.3999999762,7241,WL,A,12.0
5,19.807999849319458,learn,60000.0,Mon Dec 15 2025 18:27:32 GMT-0600 (Central Standard Time),616262.1000000238,A,salt,O,t,209,1,950.7000000476837,615311.3999999762,7241,WL,A,12.0
5,20.107999801635742,learn,60000.0,Mon Dec 15 2025 18:27:32 GMT-0600 (Central Standard Time),616562.1000000238,A,saltenter,O,enter,295,1,1250.7000000476837,615311.3999999762,7241,WL,A,12.0
5,20.490000009536743,learn,60000.0,Mon Dec 15 2025 18:27:32 GMT-0600 (Central Standard Time),616944.7000000477,A,f,O,f,362,1,382.40000009536743,616562.2999999523,7241,WL,A,13.0
5,20.656999826431274,learn,60000.0,Mon Dec 15 2025 18:27:32 GMT-0600 (Central Standard Time),617111.7999999523,A,fi,O,i,154,1,549.5,616562.2999999523,7241,WL,A,13.0
5,20.840999841690063,learn,60000.0,Mon Dec 15 2025 18:27:32 GMT-0600 (Central Standard Time),617295.6000000238,A,fin,O,n,164,1,733.3000000715256,616562.2999999523,7241,WL,A,13.0
5,20.906999826431274,learn,60000.0,Mon Dec 15 2025 18:27:32 GMT-0600 (Central Standard Time),617361.2000000477,A,fing,O,g,54,1,798.9000000953674,616562.2999999523,7241,WL,A,13.0
5,21.074999809265137,learn,60000.0,Mon Dec 15 2025 18:27:32 GMT-0600 (Central Standard Time),617529.2000000477,A,finge,O,e,149,1,966.9000000953674,616562.2999999523,7241,WL,A,13.0
5,21.18999981880188,learn,60000.0,Mon Dec 15 2025 18:27:32 GMT-0600 (Central Standard Time),617644.0,A,finger,O,r,99,1,1081.7000000476837,616562.2999999523,7241,WL,A,13.0
5,21.4229998588562,learn,60000.0,Mon Dec 15 2025 18:27:32 GMT-0600 (Central Standard Time),617877.2000000477,A,fingerenter,O,enter,224,1,1314.9000000953674,616562.2999999523,7241,WL,A,13.0
5,21.68999981880188,learn,60000.0,Mon Dec 15 2025 18:27:32 GMT-0600 (Central Standard Time),618144.0,A,a,O,a,247,1,266.60000002384186,617877.3999999762,7241,WL,A,14.0
5,21.890999794006348,learn,60000.0,Mon Dec 15 2025 18:27:32 GMT-0600 (Central Standard Time),618345.2999999523,A,ap,O,p,180,1,467.89999997615814,617877.3999999762,7241,WL,A,14.0
5,22.074999809265137,learn,60000.0,Mon Dec 15 2025 18:27:32 GMT-0600 (Central Standard Time),618529.0,A,app,O,p,171,1,651.6000000238419,617877.3999999762,7241,WL,A,14.0
5,22.372999906539917,learn,60000.0,Mon Dec 15 2025 18:27:32 GMT-0600 (Central Standard Time),618827.2999999523,A,appl,O,l,285,1,949.8999999761581,617877.3999999762,7241,WL,A,14.0
5,22.491999864578247,learn,60000.0,Mon Dec 15 2025 18:27:32 GMT-0600 (Central Standard Time),618945.8999999762,A,apple,O,e,96,1,1068.5,617877.3999999762,7241,WL,A,14.0
5,23.10599994659424,learn,60000.0,Mon Dec 15 2025 18:27:32 GMT-0600 (Central Standard Time),619560.7999999523,A,appleenter,O,enter,601,1,1683.3999999761581,617877.3999999762,7241,WL,A,14.0
5,23.52300000190735,learn,60000.0,Mon Dec 15 2025 18:27:32 GMT-0600 (Central Standard Time),619977.0,A,m,O,m,396,1,415.89999997615814,619561.1000000238,7241,WL,A,15.0
5,23.638999938964844,learn,60000.0,Mon Dec 15 2025 18:27:32 GMT-0600 (Central Standard Time),620093.6000000238,A,me,O,e,108,1,532.5,619561.1000000238,7241,WL,A,15.0
5,23.789999961853027,learn,60000.0,Mon Dec 15 2025 18:27:32 GMT-0600 (Central Standard Time),620244.0,A,mea,O,a,143,1,682.8999999761581,619561.1000000238,7241,WL,A,15.0
5,23.957000017166138,learn,60000.0,Mon Dec 15 2025 18:27:32 GMT-0600 (Central Standard Time),620411.7000000477,A,mead,O,d,151,1,850.6000000238419,619561.1000000238,7241,WL,A,15.0
5,24.156999826431274,learn,60000.0,Mon Dec 15 2025 18:27:32 GMT-0600 (Central Standard Time),620611.7999999523,A,meade,O,e,195,1,1050.6999999284744,619561.1000000238,7241,WL,A,15.0
5,24.805999994277954,learn,60000.0,Mon Dec 15 2025 18:27:32 GMT-0600 (Central Standard Time),621260.2999999523,A,mead,O,backspace,633,1,1699.1999999284744,619561.1000000238,7241,WL,A,15.0
5,25.271999835968018,learn,60000.0,Mon Dec 15 2025 18:27:32 GMT-0600 (Central Standard Time),621726.2999999523,A,meado,O,o,456,1,2165.1999999284744,619561.1000000238,7241,WL,A,15.0
5,25.454999923706055,learn,60000.0,Mon Dec 15 2025 18:27:32 GMT-0600 (Central Standard Time),621909.7999999523,A,meadow,O,w,174,1,2348.6999999284744,619561.1000000238,7241,WL,A,15.0
5,25.82200002670288,learn,60000.0,Mon Dec 15 2025 18:27:32 GMT-0600 (Central Standard Time),622276.3999999762,A,meadowenter,O,enter,350,1,2715.2999999523163,619561.1000000238,7241,WL,A,15.0
6,1.5490000247955322,distr,58450.99997520447,Mon Dec 15 2025 18:27:32 GMT-0600 (Central Standard Time),699235.6000000238,B,b,O,b,1544,1,1549.3000000715256,697686.2999999523,7241,WL,A,1.0
6,2.132999897003174,distr,57867.000102996826,Mon Dec 15 2025 18:27:32 GMT-0600 (Central Standard Time),699819.3999999762,B,bo,O,o,576,1,2133.100000023842,697686.2999999523,7241,WL,A,1.0
6,2.5160000324249268,distr,57483.99996757507,Mon Dec 15 2025 18:27:32 GMT-0600 (Central Standard Time),700202.5,B,bot,O,t,370,1,2516.2000000476837,697686.2999999523,7241,WL,A,1.0
6,2.6659998893737793,distr,57334.00011062622,Mon Dec 15 2025 18:27:32 GMT-0600 (Central Standard Time),700351.8999999762,B,bott,O,t,138,1,2665.600000023842,697686.2999999523,7241,WL,A,1.0
6,2.865000009536743,distr,57134.99999046326,Mon Dec 15 2025 18:27:32 GMT-0600 (Central Standard Time),700551.7000000477,B,bottl,O,l,187,1,2865.4000000953674,697686.2999999523,7241,WL,A,1.0
6,2.9489998817443848,distr,57051.000118255615,Mon Dec 15 2025 18:27:32 GMT-0600 (Central Standard Time),700635.2000000477,B,bottle,O,e,67,1,2948.9000000953674,697686.2999999523,7241,WL,A,1.0
6,3.4819998741149902,distr,56518.00012588501,Mon Dec 15 2025 18:27:32 GMT-0600 (Central Standard Time),701168.0,B,bottleenter,O,enter,513,1,3481.7000000476837,697686.2999999523,7241,WL,A,1.0
6,3.950000047683716,distr,56049.999952316284,Mon Dec 15 2025 18:27:32 GMT-0600 (Central Standard Time),701636.0,B,p,O,p,454,1,467.7999999523163,701168.2000000477,7241,WL,A,2.0
6,4.246999979019165,distr,55753.000020980835,Mon Dec 15 2025 18:27:32 GMT-0600 (Central Standard Time),701933.7999999523,B,pe,O,e,287,1,765.5999999046326,701168.2000000477,7241,WL,A,2.0
6,4.414999961853027,distr,55585.00003814697,Mon Dec 15 2025 18:27:32 GMT-0600 (Central Standard Time),702101.0,B,pea,O,a,158,1,932.7999999523163,701168.2000000477,7241,WL,A,2.0
6,4.730999946594238,distr,55269.00005340576,Mon Dec 15 2025 18:27:32 GMT-0600 (Central Standard Time),702417.7999999523,B,peac,O,c,298,1,1249.5999999046326,701168.2000000477,7241,WL,A,2.0
6,5.001999855041504,distr,54998.000144958496,Mon Dec 15 2025 18:27:32 GMT-0600 (Central Standard Time),702688.2999999523,B,peach,O,h,249,1,1520.0999999046326,701168.2000000477,7241,WL,A,2.0
6,5.348999977111816,distr,54651.00002288818,Mon Dec 15 2025 18:27:32 GMT-0600 (Central Standard Time),703035.2000000477,B,peachenter,O,enter,341,1,1867.0,701168.2000000477,7241,WL,A,2.0
6,5.813999891281128,distr,54186.00010871887,Mon Dec 15 2025 18:27:32 GMT-0600 (Central Standard Time),703500.7000000477,B,c,O,c,444,1,464.60000002384186,703036.1000000238,7241,WL,A,3.0
6,5.961999893188477,distr,54038.00010681152,Mon Dec 15 2025 18:27:32 GMT-0600 (Central Standard Time),703648.8999999762,B,ch,O,h,134,1,612.7999999523163,703036.1000000238,7241,WL,A,3.0
6,6.13100004196167,distr,53868.99995803833,Mon Dec 15 2025 18:27:32 GMT-0600 (Central Standard Time),703817.2000000477,B,cha,O,a,148,1,781.1000000238419,703036.1000000238,7241,WL,A,3.0
6,6.313999891281128,distr,53686.00010871887,Mon Dec 15 2025 18:27:32 GMT-0600 (Central Standard Time),704000.2999999523,B,chai,O,i,161,1,964.1999999284744,703036.1000000238,7241,WL,A,3.0
6,6.5329999923706055,distr,53467.000007629395,Mon Dec 15 2025 18:27:32 GMT-0600 (Central Standard Time),704219.3999999762,B,chair,O,r,212,1,1183.2999999523163,703036.1000000238,7241,WL,A,3.0
6,6.7809998989105225,distr,53219.00010108948,Mon Dec 15 2025 18:27:32 GMT-0600 (Central Standard Time),704467.3999999762,B,chairenter,O,enter,232,1,1431.2999999523163,703036.1000000238,7241,WL,A,3.0
6,8.496999979019165,distr,51503.000020980835,Mon Dec 15 2025 18:27:32 GMT-0600 (Central Standard Time),706183.2999999523,B,p,O,p,1705,1,1715.5999999046326,704467.7000000477,7241,WL,A,4.0
6,8.763999938964844,distr,51236.000061035156,Mon Dec 15 2025 18:27:32 GMT-0600 (Central Standard Time),706450.2000000477,B,pl,O,l,261,1,1982.5,704467.7000000477,7241,WL,A,4.0
6,8.912999868392944,distr,51087.000131607056,Mon Dec 15 2025 18:27:32 GMT-0600 (Central Standard Time),706599.3999999762,B,pla,O,a,135,1,2131.6999999284744,704467.7000000477,7241,WL,A,4.0
6,9.147000074386597,distr,50852.9999256134,Mon Dec 15 2025 18:27:32 GMT-0600 (Central Standard Time),706833.3999999762,B,plae,O,e,222,1,2365.6999999284744,704467.7000000477,7241,WL,A,4.0
6,9.829999923706055,distr,50170.000076293945,Mon Dec 15 2025 18:27:32 GMT-0600 (Central Standard Time),707516.2999999523,B,pla,O,backspace,678,1,3048.5999999046326,704467.7000000477,7241,WL,A,4.0
6,10.145999908447266,distr,49854.000091552734,Mon Dec 15 2025 18:27:32 GMT-0600 (Central Standard Time),707832.7000000477,B,plan,O,n,297,1,3365.0,704467.7000000477,7241,WL,A,4.0
6,10.29699993133545,distr,49703.00006866455,Mon Dec 15 2025 18:27:32 GMT-0600 (Central Standard Time),707983.5,B,plane,O,e,132,1,3515.7999999523163,704467.7000000477,7241,WL,A,4.0
6,11.412999868392944,distr,48587.000131607056,Mon Dec 15 2025 18:27:32 GMT-0600 (Central Standard Time),709099.1000000238,B,planeenter,O,enter,1102,1,4631.399999976158,704467.7000000477,7241,WL,A,4.0
6,11.780999898910522,distr,48219.00010108948,Mon Dec 15 2025 18:27:32 GMT-0600 (Central Standard Time),709467.1000000238,B,c,O,c,347,1,367.89999997615814,709099.2000000477,7241,WL,A,5.0
6,11.878999948501587,distr,48121.00005149841,Mon Dec 15 2025 18:27:32 GMT-0600 (Central Standard Time),709565.3999999762,B,co,O,o,87,1,466.1999999284744,709099.2000000477,7241,WL,A,5.0
6,11.978999853134155,distr,48021.000146865845,Mon Dec 15 2025 18:27:32 GMT-0600 (Central Standard Time),709665.0,B,cou,O,u,78,1,565.7999999523163,709099.2000000477,7241,WL,A,5.0
6,12.19700002670288,distr,47802.99997329712,Mon Dec 15 2025 18:27:32 GMT-0600 (Central Standard Time),709883.2000000477,B,coun,O,n,211,1,784.0,709099.2000000477,7241,WL,A,5.0
6,12.361000061035156,distr,47638.999938964844,Mon Dec 15 2025 18:27:32 GMT-0600 (Central Standard Time),710047.7000000477,B,count,O,t,143,1,948.5,709099.2000000477,7241,WL,A,5.0
6,12.579999923706055,distr,47420.000076293945,Mon Dec 15 2025 18:27:32 GMT-0600 (Central Standard Time),710266.2999999523,B,county,O,y,204,1,1167.0999999046326,709099.2000000477,7241,WL,A,5.0
6,12.963000059127808,distr,47036.99994087219,Mon Dec 15 2025 18:27:32 GMT-0600 (Central Standard Time),710649.2000000477,B,countyenter,O,enter,370,1,1550.0,709099.2000000477,7241,WL,A,5.0
6,13.295000076293945,distr,46704.999923706055,Mon Dec 15 2025 18:27:32 GMT-0600 (Central Standard Time),710981.7999999523,B,o,O,o,314,1,332.2999999523163,710649.5,7241,WL,A,6.0
6,13.861000061035156,distr,46138.999938964844,Mon Dec 15 2025 18:27:32 GMT-0600 (Central Standard Time),711547.7999999523,B,,O,backspace,552,1,898.2999999523163,710649.5,7241,WL,A,6.0
6,14.16100001335144,distr,45838.99998664856,Mon Dec 15 2025 18:27:32 GMT-0600 (Central Standard Time),711847.5,B,p,O,p,287,1,1198.0,710649.5,7241,WL,A,6.0
6,14.694999933242798,distr,45305.0000667572,Mon Dec 15 2025 18:27:32 GMT-0600 (Central Standard Time),712381.3999999762,B,po,O,o,525,1,1731.8999999761581,710649.5,7241,WL,A,6.0
6,14.84500002861023,distr,45154.99997138977,Mon Dec 15 2025 18:27:32 GMT-0600 (Central Standard Time),712531.2000000477,B,poo,O,o,134,1,1881.7000000476837,710649.5,7241,WL,A,6.0
6,15.111999988555908,distr,44888.00001144409,Mon Dec 15 2025 18:27:32 GMT-0600 (Central Standard Time),712798.7999999523,B,pool,O,l,250,1,2149.2999999523163,710649.5,7241,WL,A,6.0
6,15.593999862670898,distr,44406.0001373291,Mon Dec 15 2025 18:27:32 GMT-0600 (Central Standard Time),713280.7000000477,B,poolenter,O,enter,469,1,2631.2000000476837,710649.5,7241,WL,A,6.0
6,15.977999925613403,distr,44022.0000743866,Mon Dec 15 2025 18:27:32 GMT-0600 (Central Standard Time),713664.6000000238,B,s,O,s,365,1,383.7000000476837,713280.8999999762,7241,WL,A,7.0
6,16.17899990081787,distr,43821.00009918213,Mon Dec 15 2025 18:27:32 GMT-0600 (Central Standard Time),713865.5,B,se,O,e,194,1,584.6000000238419,713280.8999999762,7241,WL,A,7.0
6,16.32699990272522,distr,43673.00009727478,Mon Dec 15 2025 18:27:32 GMT-0600 (Central Standard Time),714013.2999999523,B,see,O,e,138,1,732.3999999761581,713280.8999999762,7241,WL,A,7.0
6,16.76099991798401,distr,43239.00008201599,Mon Dec 15 2025 18:27:32 GMT-0600 (Central Standard Time),714447.5,B,seed,O,d,423,1,1166.6000000238419,713280.8999999762,7241,WL,A,7.0
6,18.210999965667725,distr,41789.000034332275,Mon Dec 15 2025 18:27:32 GMT-0600 (Central Standard Time),715897.2000000477,B,seedenter,O,enter,1438,1,2616.3000000715256,713280.8999999762,7241,WL,A,7.0
6,18.64299988746643,distr,41357.00011253357,Mon Dec 15 2025 18:27:32 GMT-0600 (Central Standard Time),716329.3999999762,B,s,O,s,419,1,432.0,715897.3999999762,7241,WL,A,8.0
6,18.795000076293945,distr,41204.999923706055,Mon Dec 15 2025 18:27:32 GMT-0600 (Central Standard Time),716481.2000000477,B,sh,O,h,130,1,583.8000000715256,715897.3999999762,7241,WL,A,8.0
6,18.90999984741211,distr,41090.00015258789,Mon Dec 15 2025 18:27:32 GMT-0600 (Central Standard Time),716596.2000000477,B,she,O,e,98,1,698.8000000715256,715897.3999999762,7241,WL,A,8.0
6,19.042999982833862,distr,40957.00001716614,Mon Dec 15 2025 18:27:32 GMT-0600 (Central Standard Time),716729.7000000477,B,shee,O,e,129,1,832.3000000715256,715897.3999999762,7241,WL,A,8.0
6,19.26099991798401,distr,40739.00008201599,Mon Dec 15 2025 18:27:32 GMT-0600 (Central Standard Time),716946.8999999762,B,sheep,O,p,203,1,1049.5,715897.3999999762,7241,WL,A,8.0
6,19.592000007629395,distr,40407.999992370605,Mon Dec 15 2025 18:27:32 GMT-0600 (Central Standard Time),717278.8999999762,B,sheepenter,O,enter,320,1,1381.5,715897.3999999762,7241,WL,A,8.0
6,19.9760000705719,distr,40023.9999294281,Mon Dec 15 2025 18:27:32 GMT-0600 (Central Standard Time),717663.3999999762,B,b,O,b,373,1,384.2999999523163,717279.1000000238,7241,WL,A,9.0
6,20.14199995994568,distr,39858.00004005432,Mon Dec 15 2025 18:27:32 GMT-0600 (Central Standard Time),717829.2999999523,B,bo,O,o,150,1,550.1999999284744,717279.1000000238,7241,WL,A,9.0
6,20.325000047683716,distr,39674.999952316284,Mon Dec 15 2025 18:27:32 GMT-0600 (Central Standard Time),718012.2999999523,B,bow,O,w,166,1,733.1999999284744,717279.1000000238,7241,WL,A,9.0
6,20.509000062942505,distr,39490.999937057495,Mon Dec 15 2025 18:27:32 GMT-0600 (Central Standard Time),718196.2999999523,B,bowl,O,l,168,1,917.1999999284744,717279.1000000238,7241,WL,A,9.0
6,21.389999866485596,distr,38610.000133514404,Mon Dec 15 2025 18:27:32 GMT-0600 (Central Standard Time),719077.7000000477,B,bowlenter,O,enter,872,1,1798.6000000238419,717279.1000000238,7241,WL,A,9.0
6,22.55900001525879,distr,37440.99998474121,Mon Dec 15 2025 18:27:32 GMT-0600 (Central Standard Time),720246.7999999523,B,d,O,d,1154,1,1169.0,719077.7999999523,7241,WL,A,10.0
6,22.774999856948853,distr,37225.00014305115,Mon Dec 15 2025 18:27:32 GMT-0600 (Central Standard Time),720462.3999999762,B,da,O,a,205,1,1384.6000000238419,719077.7999999523,7241,WL,A,10.0
6,23.009000062942505,distr,36990.999937057495,Mon Dec 15 2025 18:27:32 GMT-0600 (Central Standard Time),720696.2000000477,B,daw,O,w,213,1,1618.4000000953674,719077.7999999523,7241,WL,A,10.0
6,23.19000005722046,distr,36809.99994277954,Mon Dec 15 2025 18:27:32 GMT-0600 (Central Standard Time),720877.7000000477,B,dawn,O,n,165,1,1799.9000000953674,719077.7999999523,7241,WL,A,10.0
6,24.639999866485596,distr,35360.000133514404,Mon Dec 15 2025 18:27:32 GMT-0600 (Central Standard Time),722327.8999999762,B,dawnenter,O,enter,1430,1,3250.100000023842,719077.7999999523,7241,WL,A,10.0
6,25.4229998588562,distr,34577.0001411438,Mon Dec 15 2025 18:27:32 GMT-0600 (Central Standard Time),723110.7999999523,B,j,O,j,766,1,782.6999999284744,722328.1000000238,7241,WL,A,11.0
6,25.723999977111816,distr,34276.00002288818,Mon Dec 15 2025 18:27:32 GMT-0600 (Central Standard Time),723411.2999999523,B,ju,O,u,295,1,1083.1999999284744,722328.1000000238,7241,WL,A,11.0
6,25.872999906539917,distr,34127.00009346008,Mon Dec 15 2025 18:27:32 GMT-0600 (Central Standard Time),723560.5,B,jud,O,d,143,1,1232.3999999761581,722328.1000000238,7241,WL,A,11.0
6,26.05900001525879,distr,33940.99998474121,Mon Dec 15 2025 18:27:32 GMT-0600 (Central Standard Time),723746.7999999523,B,judg,O,g,183,1,1418.6999999284744,722328.1000000238,7241,WL,A,11.0
6,26.207000017166138,distr,33792.99998283386,Mon Dec 15 2025 18:27:32 GMT-0600 (Central Standard Time),723894.0,B,judge,O,e,137,1,1565.8999999761581,722328.1000000238,7241,WL,A,11.0
6,26.4229998588562,distr,33577.0001411438,Mon Dec 15 2025 18:27:32 GMT-0600 (Central Standard Time),724110.0,B,judgeenter,O,enter,206,1,1781.8999999761581,722328.1000000238,7241,WL,A,11.0
6,26.823999881744385,distr,33176.000118255615,Mon Dec 15 2025 18:27:32 GMT-0600 (Central Standard Time),724511.0,B,g,O,g,382,1,400.7000000476837,724110.2999999523,7241,WL,A,12.0
6,27.02300000190735,distr,32976.99999809265,Mon Dec 15 2025 18:27:32 GMT-0600 (Central Standard Time),724710.6000000238,B,gr,O,r,189,1,600.3000000715256,724110.2999999523,7241,WL,A,12.0
6,27.139999866485596,distr,32860.000133514404,Mon Dec 15 2025 18:27:32 GMT-0600 (Central Standard Time),724827.3999999762,B,gra,O,a,102,1,717.1000000238419,724110.2999999523,7241,WL,A,12.0
6,27.305999994277954,distr,32694.000005722046,Mon Dec 15 2025 18:27:32 GMT-0600 (Central Standard Time),724993.6000000238,B,gran,O,n,160,1,883.3000000715256,724110.2999999523,7241,WL,A,12.0
6,27.407000064849854,distr,32592.999935150146,Mon Dec 15 2025 18:27:32 GMT-0600 (Central Standard Time),725094.2000000477,B,grant,O,t,90,1,983.9000000953674,724110.2999999523,7241,WL,A,12.0
6,28.787999868392944,distr,31212.000131607056,Mon Dec 15 2025 18:27:32 GMT-0600 (Central Standard Time),726475.6000000238,B,grantenter,O,enter,1367,1,2365.3000000715256,724110.2999999523,7241,WL,A,12.0
6,29.27300000190735,distr,30726.99999809265,Mon Dec 15 2025 18:27:32 GMT-0600 (Central Standard Time),726960.1000000238,B,i,O,i,466,1,484.2000000476837,726475.8999999762,7241,WL,A,13.0
6,29.490000009536743,distr,30509.999990463257,Mon Dec 15 2025 18:27:32 GMT-0600 (Central Standard Time),727177.2000000477,B,in,O,n,198,1,701.3000000715256,726475.8999999762,7241,WL,A,13.0
6,29.555000066757202,distr,30444.999933242798,Mon Dec 15 2025 18:27:32 GMT-0600 (Central Standard Time),727242.5,B,ins,O,s,58,1,766.6000000238419,726475.8999999762,7241,WL,A,13.0
6,29.756999969482422,distr,30243.000030517578,Mon Dec 15 2025 18:27:32 GMT-0600 (Central Standard Time),727444.0,B,inse,O,e,188,1,968.1000000238419,726475.8999999762,7241,WL,A,13.0
6,30.122999906539917,distr,29877.000093460083,Mon Dec 15 2025 18:27:32 GMT-0600 (Central Standard Time),727810.8999999762,B,insec,O,c,350,1,1335.0,726475.8999999762,7241,WL,A,13.0
6,30.455999851226807,distr,29544.000148773193,Mon Dec 15 2025 18:27:32 GMT-0600 (Central Standard Time),728143.0,B,insect,O,t,313,1,1667.1000000238419,726475.8999999762,7241,WL,A,13.0
6,30.688999891281128,distr,29311.000108718872,Mon Dec 15 2025 18:27:32 GMT-0600 (Central Standard Time),728376.1000000238,B,insectenter,O,enter,221,1,1900.2000000476837,726475.8999999762,7241,WL,A,13.0
6,60.014999866485596,distr,-14.999866485595703,Mon Dec 15 2025 18:27:32 GMT-0600 (Central Standard Time),757702.1000000238,B,None,O,None,29321,1,29325.700000047684,728376.3999999762,7241,WL,A,14.0
7,1.4830000400543213,immed,58516.99995994568,Mon Dec 15 2025 18:27:32 GMT-0600 (Central Standard Time),775277.3999999762,A,b,O,b,1463,1,1482.5,773794.8999999762,7241,WL,A,1.0
7,1.9160001277923584,immed,58083.99987220764,Mon Dec 15 2025 18:27:32 GMT-0600 (Central Standard Time),775710.6000000238,A,bo,O,o,419,1,1915.7000000476837,773794.8999999762,7241,WL,A,1.0
7,2.0500001907348633,immed,57949.99980926514,Mon Dec 15 2025 18:27:32 GMT-0600 (Central Standard Time),775844.6000000238,A,boo,O,o,124,1,2049.7000000476837,773794.8999999762,7241,WL,A,1.0
7,2.3000001907348633,immed,57699.99980926514,Mon Dec 15 2025 18:27:32 GMT-0600 (Central Standard Time),776094.1000000238,A,book,O,k,229,1,2299.2000000476837,773794.8999999762,7241,WL,A,1.0
7,2.7660000324249268,immed,57233.99996757507,Mon Dec 15 2025 18:27:32 GMT-0600 (Central Standard Time),776560.7000000477,A,bookf,O,f,453,1,2765.8000000715256,773794.8999999762,7241,WL,A,1.0
7,2.8519999980926514,immed,57148.00000190735,Mon Dec 15 2025 18:27:32 GMT-0600 (Central Standard Time),776646.1000000238,A,bookfl,O,l,74,1,2851.2000000476837,773794.8999999762,7241,WL,A,1.0
7,3.0989999771118164,immed,56901.00002288818,Mon Dec 15 2025 18:27:32 GMT-0600 (Central Standard Time),776893.7999999523,A,bookflo,O,o,229,1,3098.899999976158,773794.8999999762,7241,WL,A,1.0
7,3.434000015258789,immed,56565.99998474121,Mon Dec 15 2025 18:27:32 GMT-0600 (Central Standard Time),777228.2000000477,A,bookfl,O,backspace,325,1,3433.3000000715256,773794.8999999762,7241,WL,A,1.0
7,3.767000198364258,immed,56232.99980163574,Mon Dec 15 2025 18:27:32 GMT-0600 (Central Standard Time),777561.7999999523,A,bookf,O,backspace,327,1,3766.899999976158,773794.8999999762,7241,WL,A,1.0
7,4.265000104904175,immed,55734.999895095825,Mon Dec 15 2025 18:27:32 GMT-0600 (Central Standard Time),778060.2999999523,A,book,O,backspace,491,1,4265.399999976158,773794.8999999762,7241,WL,A,1.0
7,4.648000001907349,immed,55351.99999809265,Mon Dec 15 2025 18:27:32 GMT-0600 (Central Standard Time),778443.7000000477,A,bookenter,O,enter,367,1,4648.800000071526,773794.8999999762,7241,WL,A,1.0
7,5.448000192642212,immed,54551.99980735779,Mon Dec 15 2025 18:27:32 GMT-0600 (Central Standard Time),779243.1000000238,A,f,O,f,792,1,799.1000000238419,778444.0,7241,WL,A,2.0
7,5.565000057220459,immed,54434.99994277954,Mon Dec 15 2025 18:27:32 GMT-0600 (Central Standard Time),779360.7999999523,A,fl,O,l,97,1,916.7999999523163,778444.0,7241,WL,A,2.0
7,5.764000177383423,immed,54235.99982261658,Mon Dec 15 2025 18:27:32 GMT-0600 (Central Standard Time),779559.5,A,flo,O,o,185,1,1115.5,778444.0,7241,WL,A,2.0
7,5.898000001907349,immed,54101.99999809265,Mon Dec 15 2025 18:27:32 GMT-0600 (Central Standard Time),779693.3999999762,A,flow,O,w,123,1,1249.3999999761581,778444.0,7241,WL,A,2.0
7,5.963000059127808,immed,54036.99994087219,Mon Dec 15 2025 18:27:32 GMT-0600 (Central Standard Time),779758.6000000238,A,flowe,O,e,53,1,1314.6000000238419,778444.0,7241,WL,A,2.0
7,6.1650002002716064,immed,53834.99979972839,Mon Dec 15 2025 18:27:32 GMT-0600 (Central Standard Time),779960.2000000477,A,flower,O,r,184,1,1516.2000000476837,778444.0,7241,WL,A,2.0
7,6.581000089645386,immed,53418.999910354614,Mon Dec 15 2025 18:27:32 GMT-0600 (Central Standard Time),780376.5,A,flowerenter,O,enter,394,1,1932.5,778444.0,7241,WL,A,2.0
7,7.015000104904175,immed,52984.999895095825,Mon Dec 15 2025 18:27:32 GMT-0600 (Central Standard Time),780810.0,A,t,O,t,419,1,433.2999999523163,780376.7000000477,7241,WL,A,3.0
7,7.21399998664856,immed,52786.00001335144,Mon Dec 15 2025 18:27:32 GMT-0600 (Central Standard Time),781009.7999999523,A,tr,O,r,195,1,633.0999999046326,780376.7000000477,7241,WL,A,3.0
7,7.3470001220703125,immed,52652.99987792969,Mon Dec 15 2025 18:27:32 GMT-0600 (Central Standard Time),781142.2000000477,A,tra,O,a,113,1,765.5,780376.7000000477,7241,WL,A,3.0
7,7.430000066757202,immed,52569.9999332428,Mon Dec 15 2025 18:27:32 GMT-0600 (Central Standard Time),781225.2999999523,A,trai,O,i,59,1,848.5999999046326,780376.7000000477,7241,WL,A,3.0
7,7.564000129699707,immed,52435.99987030029,Mon Dec 15 2025 18:27:32 GMT-0600 (Central Standard Time),781359.8999999762,A,train,O,n,122,1,983.1999999284744,780376.7000000477,7241,WL,A,3.0
7,7.8470001220703125,immed,52152.99987792969,Mon Dec 15 2025 18:27:32 GMT-0600 (Central Standard Time),781642.7999999523,A,trainenter,O,enter,268,1,1266.0999999046326,780376.7000000477,7241,WL,A,3.0
