acc_sum,block,block_c,change,condition,correct,correct_response,datetime,endtime,face,project,response,response_time,row_sel,session_number,start_end,starttime,subject_id,task,task_vers,trial
0,prac,1,,1-Back,,,Wed May 13 2026 16:05:54 GMT-0400 (Eastern Daylight Time),,005_o_f_d_a.png,I,space,20210,1,1,,,9060,VNB,B,0
0,prac,1,0.0,1-Back,0.0,m,Wed May 13 2026 16:05:54 GMT-0400 (Eastern Daylight Time),211102.3999999985,020_y_f_n_a.png,I,z,1916,2,1,2815.099999997765,208287.30000000075,9060,VNB,B,1
1,prac,1,0.0,1-Back,1.0,m,Wed May 13 2026 16:05:54 GMT-0400 (Eastern Daylight Time),213818.8999999985,007_m_m_h_a.png,I,m,1791,3,1,2708.800000000745,211110.09999999776,9060,VNB,B,2
2,prac,1,0.0,1-Back,1.0,m,Wed May 13 2026 16:05:54 GMT-0400 (Eastern Daylight Time),216537.0,016_y_m_d_a.png,I,m,1771,4,1,2701.400000002235,213835.59999999776,9060,VNB,B,3
3,prac,1,0.0,1-Back,1.0,m,Wed May 13 2026 16:05:54 GMT-0400 (Eastern Daylight Time),218769.0,005_o_f_n_a.png,I,m,1324,5,1,2224.60000000149,216544.3999999985,9060,VNB,B,4
4,prac,1,1.0,1-Back,1.0,z,Wed May 13 2026 16:05:54 GMT-0400 (Eastern Daylight Time),220752.3999999985,016_y_m_n_a.png,I,z,1041,6,1,1967.5999999977648,218784.80000000075,9060,VNB,B,5
4,prac,1,0.0,1-Back,0.0,m,Wed May 13 2026 16:05:54 GMT-0400 (Eastern Daylight Time),223069.0,004_o_m_h_a.png,I,z,1421,7,1,2309.0,220760.0,9060,VNB,B,6
5,prac,1,0.0,1-Back,1.0,m,Wed May 13 2026 16:05:54 GMT-0400 (Eastern Daylight Time),225985.69999999925,011_m_f_d_a.png,I,m,1985,8,1,2901.199999999255,223084.5,9060,VNB,B,7
6,prac,1,1.0,1-Back,1.0,z,Wed May 13 2026 16:05:54 GMT-0400 (Eastern Daylight Time),228202.5,020_y_f_d_a.png,I,z,1309,9,1,2209.800000000745,225992.69999999925,9060,VNB,B,8
6,prac,1,0.0,1-Back,0.0,m,Wed May 13 2026 16:05:54 GMT-0400 (Eastern Daylight Time),230369.0,007_m_m_n_a.png,I,z,1221,10,1,2150.800000000745,228218.19999999925,9060,VNB,B,9
7,prac,1,0.0,1-Back,1.0,m,Wed May 13 2026 16:05:54 GMT-0400 (Eastern Daylight Time),232969.19999999925,005_o_f_h_a.png,I,m,1690,11,1,2591.89999999851,230377.30000000075,9060,VNB,B,10
7,prac,1,0.0,1-Back,0.0,m,Wed May 13 2026 16:05:54 GMT-0400 (Eastern Daylight Time),235085.8999999985,016_y_m_d_a.png,I,z,1174,12,1,2098.699999999255,232987.19999999925,9060,VNB,B,11
0,prac,2,0.0,1-Back,,,Wed May 13 2026 16:05:54 GMT-0400 (Eastern Daylight Time),235085.8999999985,005_o_f_d_a.png,I,a,8134,1,1,2098.699999999255,232987.19999999925,9060,VNB,B,0
0,prac,2,0.0,1-Back,0.0,m,Wed May 13 2026 16:05:54 GMT-0400 (Eastern Daylight Time),248952.3999999985,020_y_f_n_a.png,I,z,1762,2,1,2663.599999997765,246288.80000000075,9060,VNB,B,1
1,prac,2,0.0,1-Back,1.0,m,Wed May 13 2026 16:05:54 GMT-0400 (Eastern Daylight Time),251585.69999999925,007_m_m_h_a.png,I,m,1710,3,1,2619.300000000745,248966.3999999985,9060,VNB,B,2
1,prac,2,0.0,1-Back,0.0,m,Wed May 13 2026 16:05:54 GMT-0400 (Eastern Daylight Time),253602.5,016_y_m_d_a.png,I,z,1216,4,1,1997.300000000745,251605.19999999925,9060,VNB,B,3
1,prac,2,0.0,1-Back,0.0,m,Wed May 13 2026 16:05:54 GMT-0400 (Eastern Daylight Time),256435.69999999925,005_o_f_n_a.png,I,z,1910,5,1,2822.300000000745,253613.3999999985,9060,VNB,B,4
2,prac,2,1.0,1-Back,1.0,z,Wed May 13 2026 16:05:54 GMT-0400 (Eastern Daylight Time),258985.80000000075,016_y_m_n_a.png,I,z,1608,6,1,2531.10000000149,256454.69999999925,9060,VNB,B,5
3,prac,2,0.0,1-Back,1.0,m,Wed May 13 2026 16:05:54 GMT-0400 (Eastern Daylight Time),261535.69999999925,004_o_m_h_a.png,I,m,1650,7,1,2541.5,258994.19999999925,9060,VNB,B,6
4,prac,2,0.0,1-Back,1.0,m,Wed May 13 2026 16:05:54 GMT-0400 (Eastern Daylight Time),264019.09999999776,011_m_f_d_a.png,I,m,1544,8,1,2469.099999997765,261550.0,9060,VNB,B,7
4,prac,2,1.0,1-Back,0.0,z,Wed May 13 2026 16:05:54 GMT-0400 (Eastern Daylight Time),266002.3999999985,020_y_f_d_a.png,I,m,1083,9,1,1975.800000000745,264026.59999999776,9060,VNB,B,8
4,prac,2,0.0,1-Back,0.0,m,Wed May 13 2026 16:05:54 GMT-0400 (Eastern Daylight Time),268869.09999999776,007_m_m_n_a.png,I,z,1937,10,1,2851.39999999851,266017.69999999925,9060,VNB,B,9
4,prac,2,0.0,1-Back,0.0,m,Wed May 13 2026 16:05:54 GMT-0400 (Eastern Daylight Time),271785.59999999776,005_o_f_h_a.png,I,None,2011,11,1,2908.599999997765,268877.0,9060,VNB,B,10
4,prac,2,0.0,1-Back,0.0,m,Wed May 13 2026 16:05:54 GMT-0400 (Eastern Daylight Time),274302.3999999985,016_y_m_d_a.png,I,z,1584,12,1,2501.599999997765,271800.80000000075,9060,VNB,B,11
0,test,1,0.0,1-Back,,,Wed May 13 2026 16:05:54 GMT-0400 (Eastern Daylight Time),274302.3999999985,020_y_f_d_a.png,I,space,19373,1,1,2501.599999997765,271800.80000000075,9060,VNB,B,0
0,test,1,0.0,1-Back,0.0,m,Wed May 13 2026 16:05:54 GMT-0400 (Eastern Daylight Time),307585.8999999985,011_m_f_n_a.png,I,z,1204,2,1,2219.099999997765,305366.80000000075,9060,VNB,B,1
1,test,1,0.0,1-Back,1.0,m,Wed May 13 2026 16:05:54 GMT-0400 (Eastern Daylight Time),310102.30000000075,004_o_m_h_a.png,I,m,1499,3,1,2508.300000000745,307594.0,9060,VNB,B,2
2,test,1,1.0,1-Back,1.0,z,Wed May 13 2026 16:05:54 GMT-0400 (Eastern Daylight Time),312219.19999999925,007_m_m_h_a.png,I,z,1095,4,1,2104.300000000745,310114.8999999985,9060,VNB,B,3
3,test,1,0.0,1-Back,1.0,m,Wed May 13 2026 16:05:54 GMT-0400 (Eastern Daylight Time),314435.8999999985,005_o_f_n_a.png,I,m,1186,5,1,2211.199999999255,312224.69999999925,9060,VNB,B,4
4,test,1,0.0,1-Back,1.0,m,Wed May 13 2026 16:05:54 GMT-0400 (Eastern Daylight Time),317402.3999999985,016_y_m_d_a.png,I,m,1937,6,1,2955.300000000745,314447.09999999776,9060,VNB,B,5
5,test,1,1.0,1-Back,1.0,z,Wed May 13 2026 16:05:54 GMT-0400 (Eastern Daylight Time),320285.80000000075,011_m_f_d_a.png,I,z,1858,7,1,2875.5,317410.30000000075,9060,VNB,B,6
6,test,1,0.0,1-Back,1.0,m,Wed May 13 2026 16:05:54 GMT-0400 (Eastern Daylight Time),322318.8999999985,020_y_f_h_a.png,I,m,1014,8,1,2022.3999999985099,320296.5,9060,VNB,B,7
7,test,1,0.0,1-Back,1.0,m,Wed May 13 2026 16:05:54 GMT-0400 (Eastern Daylight Time),324502.59999999776,004_o_m_n_a.png,I,m,1166,9,1,2176.89999999851,322325.69999999925,9060,VNB,B,8
8,test,1,0.0,1-Back,1.0,m,Wed May 13 2026 16:05:54 GMT-0400 (Eastern Daylight Time),327135.3999999985,016_y_m_h_a.png,I,m,1613,10,1,2618.800000000745,324516.59999999776,9060,VNB,B,9
9,test,1,0.0,1-Back,1.0,m,Wed May 13 2026 16:05:54 GMT-0400 (Eastern Daylight Time),329285.8999999985,004_o_m_d_a.png,I,m,1125,11,1,2147.0,327138.8999999985,9060,VNB,B,10
10,test,1,1.0,1-Back,1.0,z,Wed May 13 2026 16:05:54 GMT-0400 (Eastern Daylight Time),331335.5,005_o_f_d_a.png,I,z,1022,12,1,2037.4000000022352,329298.09999999776,9060,VNB,B,11
10,test,1,0.0,1-Back,0.0,m,Wed May 13 2026 16:05:54 GMT-0400 (Eastern Daylight Time),333685.30000000075,007_m_m_n_a.png,I,z,1332,13,1,2346.2000000029802,331339.09999999776,9060,VNB,B,12
11,test,1,1.0,1-Back,1.0,z,Wed May 13 2026 16:05:54 GMT-0400 (Eastern Daylight Time),335852.3999999985,020_y_f_n_a.png,I,z,1134,14,1,2161.0,333691.3999999985,9060,VNB,B,13
12,test,1,0.0,1-Back,1.0,m,Wed May 13 2026 16:05:54 GMT-0400 (Eastern Daylight Time),338169.19999999925,011_m_f_h_a.png,I,m,1288,15,1,2310.89999999851,335858.30000000075,9060,VNB,B,14
13,test,1,0.0,1-Back,1.0,m,Wed May 13 2026 16:05:54 GMT-0400 (Eastern Daylight Time),340385.8999999985,007_m_m_d_a.png,I,m,1195,16,1,2202.89999999851,338183.0,9060,VNB,B,15
14,test,1,0.0,1-Back,1.0,m,Wed May 13 2026 16:05:54 GMT-0400 (Eastern Daylight Time),343035.5,016_y_m_n_a.png,I,m,1626,17,1,2642.800000000745,340392.69999999925,9060,VNB,B,16
15,test,1,0.0,1-Back,1.0,m,Wed May 13 2026 16:05:54 GMT-0400 (Eastern Daylight Time),345869.09999999776,005_o_f_h_a.png,I,m,1808,18,1,2826.099999997765,343043.0,9060,VNB,B,17
0,test,2,0.0,1-Back,,,Wed May 13 2026 16:05:54 GMT-0400 (Eastern Daylight Time),345869.09999999776,016_y_m_n_a.png,I,space,1311,1,1,2826.099999997765,343043.0,9060,VNB,B,0
1,test,2,0.0,1-Back,1.0,m,Wed May 13 2026 16:05:54 GMT-0400 (Eastern Daylight Time),351252.5,020_y_f_h_a.png,I,m,1026,2,1,2036.9000000022352,349215.59999999776,9060,VNB,B,1
2,test,2,1.0,1-Back,1.0,m,Wed May 13 2026 16:05:54 GMT-0400 (Eastern Daylight Time),353702.3999999985,004_o_m_n_a.png,I,m,1424,3,1,2443.199999999255,351259.19999999925,9060,VNB,B,2
2,test,2,0.0,1-Back,0.0,m,Wed May 13 2026 16:05:54 GMT-0400 (Eastern Daylight Time),356069.09999999776,011_m_f_d_a.png,I,z,1341,4,1,2351.89999999851,353717.19999999925,9060,VNB,B,3
2,test,2,0.0,1-Back,0.0,z,Wed May 13 2026 16:05:54 GMT-0400 (Eastern Daylight Time),359102.69999999925,007_m_m_d_a.png,I,None,2016,5,1,3027.60000000149,356075.09999999776,9060,VNB,B,4
3,test,2,0.0,1-Back,1.0,m,Wed May 13 2026 16:05:54 GMT-0400 (Eastern Daylight Time),361052.59999999776,016_y_m_h_a.png,I,m,918,6,1,1938.0,359114.59999999776,9060,VNB,B,5
4,test,2,1.0,1-Back,1.0,z,Wed May 13 2026 16:05:54 GMT-0400 (Eastern Daylight Time),363035.8999999985,005_o_f_h_a.png,I,z,960,7,1,1976.199999999255,361059.69999999925,9060,VNB,B,6
5,test,2,0.0,1-Back,1.0,m,Wed May 13 2026 16:05:54 GMT-0400 (Eastern Daylight Time),365169.09999999776,011_m_f_n_a.png,I,m,1113,8,1,2120.099999997765,363049.0,9060,VNB,B,7
6,test,2,0.0,1-Back,1.0,m,Wed May 13 2026 16:05:54 GMT-0400 (Eastern Daylight Time),368035.80000000075,020_y_f_d_a.png,I,m,1836,9,1,2861.60000000149,365174.19999999925,9060,VNB,B,8
7,test,2,0.0,1-Back,1.0,m,Wed May 13 2026 16:05:54 GMT-0400 (Eastern Daylight Time),370252.59999999776,007_m_m_n_a.png,I,m,1184,10,1,2206.099999997765,368046.5,9060,VNB,B,9
7,test,2,1.0,1-Back,0.0,m,Wed May 13 2026 16:05:54 GMT-0400 (Eastern Daylight Time),372385.80000000075,011_m_f_h_a.png,I,z,1103,11,1,2126.300000000745,370259.5,9060,VNB,B,10
8,test,2,0.0,1-Back,1.0,z,Wed May 13 2026 16:05:54 GMT-0400 (Eastern Daylight Time),374552.59999999776,004_o_m_h_a.png,I,z,1138,12,1,2157.699999999255,372394.8999999985,9060,VNB,B,11
9,test,2,0.0,1-Back,1.0,m,Wed May 13 2026 16:05:54 GMT-0400 (Eastern Daylight Time),376602.5,016_y_m_d_a.png,I,m,1028,13,1,2041.5,374561.0,9060,VNB,B,12
10,test,2,0.0,1-Back,1.0,m,Wed May 13 2026 16:05:54 GMT-0400 (Eastern Daylight Time),378769.30000000075,005_o_f_n_a.png,I,m,1138,14,1,2154.7000000029802,376614.59999999776,9060,VNB,B,13
11,test,2,0.0,1-Back,1.0,z,Wed May 13 2026 16:05:54 GMT-0400 (Eastern Daylight Time),381019.19999999925,020_y_f_n_a.png,I,z,1227,15,1,2243.5,378775.69999999925,9060,VNB,B,14
12,test,2,1.0,1-Back,1.0,m,Wed May 13 2026 16:05:54 GMT-0400 (Eastern Daylight Time),383186.0,007_m_m_h_a.png,I,m,1137,16,1,2157.199999999255,381028.80000000075,9060,VNB,B,15
13,test,2,0.0,1-Back,1.0,m,Wed May 13 2026 16:05:54 GMT-0400 (Eastern Daylight Time),385252.5,005_o_f_d_a.png,I,m,1043,17,1,2057.5,383195.0,9060,VNB,B,16
14,test,2,1.0,1-Back,1.0,z,Wed May 13 2026 16:05:54 GMT-0400 (Eastern Daylight Time),387352.69999999925,004_o_m_d_a.png,I,z,1071,18,1,2086.300000000745,385266.3999999985,9060,VNB,B,17
0,test,3,1.0,1-Back,,,Wed May 13 2026 16:05:54 GMT-0400 (Eastern Daylight Time),387352.69999999925,005_o_f_h_a.png,I,space,2868,1,1,2086.300000000745,385266.3999999985,9060,VNB,B,0
1,test,3,0.0,1-Back,1.0,m,Wed May 13 2026 16:05:54 GMT-0400 (Eastern Daylight Time),394404.0,011_m_f_d_a.png,I,m,987,2,1,2010.300000000745,392393.69999999925,9060,VNB,B,1
2,test,3,1.0,1-Back,1.0,m,Wed May 13 2026 16:05:54 GMT-0400 (Eastern Daylight Time),396686.0,007_m_m_n_a.png,I,m,1258,3,1,2277.0,394409.0,9060,VNB,B,2
3,test,3,0.0,1-Back,1.0,z,Wed May 13 2026 16:05:54 GMT-0400 (Eastern Daylight Time),398702.5,005_o_f_n_a.png,I,z,990,4,1,2000.9000000022352,396701.59999999776,9060,VNB,B,3
4,test,3,1.0,1-Back,1.0,m,Wed May 13 2026 16:05:54 GMT-0400 (Eastern Daylight Time),401086.0,004_o_m_d_a.png,I,m,1358,5,1,2377.800000000745,398708.19999999925,9060,VNB,B,4
5,test,3,0.0,1-Back,1.0,m,Wed May 13 2026 16:05:54 GMT-0400 (Eastern Daylight Time),403302.5,020_y_f_h_a.png,I,m,1190,6,1,2203.800000000745,401098.69999999925,9060,VNB,B,5
6,test,3,0.0,1-Back,1.0,z,Wed May 13 2026 16:05:54 GMT-0400 (Eastern Daylight Time),405552.59999999776,016_y_m_h_a.png,I,z,1230,7,1,2244.39999999851,403308.19999999925,9060,VNB,B,6
7,test,3,0.0,1-Back,1.0,m,Wed May 13 2026 16:05:54 GMT-0400 (Eastern Daylight Time),407452.59999999776,011_m_f_n_a.png,I,m,876,8,1,1888.0,405564.59999999776,9060,VNB,B,7
8,test,3,0.0,1-Back,1.0,m,Wed May 13 2026 16:05:54 GMT-0400 (Eastern Daylight Time),409719.09999999776,020_y_f_d_a.png,I,m,1248,9,1,2259.599999997765,407459.5,9060,VNB,B,8
9,test,3,1.0,1-Back,1.0,m,Wed May 13 2026 16:05:54 GMT-0400 (Eastern Daylight Time),412502.5,004_o_m_n_a.png,I,m,1749,10,1,2771.0,409731.5,9060,VNB,B,9
10,test,3,0.0,1-Back,1.0,m,Wed May 13 2026 16:05:54 GMT-0400 (Eastern Daylight Time),414919.19999999925,007_m_m_h_a.png,I,m,1390,11,1,2411.699999999255,412507.5,9060,VNB,B,10
11,test,3,0.0,1-Back,1.0,z,Wed May 13 2026 16:05:54 GMT-0400 (Eastern Daylight Time),417152.59999999776,011_m_f_h_a.png,I,z,1205,12,1,2223.39999999851,414929.19999999925,9060,VNB,B,11
12,test,3,1.0,1-Back,1.0,m,Wed May 13 2026 16:05:54 GMT-0400 (Eastern Daylight Time),419086.30000000075,005_o_f_d_a.png,I,m,916,13,1,1927.300000000745,417159.0,9060,VNB,B,12
13,test,3,0.0,1-Back,1.0,z,Wed May 13 2026 16:05:54 GMT-0400 (Eastern Daylight Time),421136.09999999776,007_m_m_d_a.png,I,z,1022,14,1,2040.699999999255,419095.3999999985,9060,VNB,B,13
14,test,3,0.0,1-Back,1.0,m,Wed May 13 2026 16:05:54 GMT-0400 (Eastern Daylight Time),423202.69999999925,016_y_m_n_a.png,I,m,1045,15,1,2060.0,421142.69999999925,9060,VNB,B,14
15,test,3,1.0,1-Back,1.0,m,Wed May 13 2026 16:05:54 GMT-0400 (Eastern Daylight Time),425436.09999999776,004_o_m_h_a.png,I,m,1201,16,1,2222.2999999970198,423213.80000000075,9060,VNB,B,15
16,test,3,0.0,1-Back,1.0,m,Wed May 13 2026 16:05:54 GMT-0400 (Eastern Daylight Time),427986.0,016_y_m_d_a.png,I,m,1521,17,1,2543.60000000149,425442.3999999985,9060,VNB,B,16
17,test,3,1.0,1-Back,1.0,m,Wed May 13 2026 16:05:54 GMT-0400 (Eastern Daylight Time),430052.80000000075,020_y_f_n_a.png,I,m,1035,18,1,2057.2000000029802,427995.59999999776,9060,VNB,B,17
0,test,4,1.0,1-Back,,,Wed May 13 2026 16:05:54 GMT-0400 (Eastern Daylight Time),430052.80000000075,007_m_m_d_a.png,I,space,1408,1,1,2057.2000000029802,427995.59999999776,9060,VNB,B,0
1,test,4,0.0,1-Back,1.0,z,Wed May 13 2026 16:05:54 GMT-0400 (Eastern Daylight Time),435486.09999999776,004_o_m_d_a.png,I,z,975,2,1,1988.8999999985099,433497.19999999925,9060,VNB,B,1
2,test,4,0.0,1-Back,1.0,m,Wed May 13 2026 16:05:54 GMT-0400 (Eastern Daylight Time),437636.0,016_y_m_h_a.png,I,m,1127,3,1,2144.0,435492.0,9060,VNB,B,2
3,test,4,0.0,1-Back,1.0,m,Wed May 13 2026 16:05:54 GMT-0400 (Eastern Daylight Time),439569.30000000075,011_m_f_n_a.png,I,m,905,4,1,1922.5,437646.80000000075,9060,VNB,B,3
4,test,4,1.0,1-Back,1.0,m,Wed May 13 2026 16:05:54 GMT-0400 (Eastern Daylight Time),441536.09999999776,005_o_f_h_a.png,I,m,939,5,1,1960.5999999977648,439575.5,9060,VNB,B,4
5,test,4,0.0,1-Back,1.0,m,Wed May 13 2026 16:05:54 GMT-0400 (Eastern Daylight Time),444036.0,007_m_m_n_a.png,I,m,1477,6,1,2488.900000002235,441547.09999999776,9060,VNB,B,5
6,test,4,0.0,1-Back,1.0,m,Wed May 13 2026 16:05:54 GMT-0400 (Eastern Daylight Time),446269.30000000075,016_y_m_d_a.png,I,m,1201,7,1,2227.300000000745,444042.0,9060,VNB,B,6
7,test,4,1.0,1-Back,1.0,z,Wed May 13 2026 16:05:54 GMT-0400 (Eastern Daylight Time),448536.09999999776,020_y_f_d_a.png,I,z,1239,8,1,2251.199999999255,446284.8999999985,9060,VNB,B,7
8,test,4,0.0,1-Back,1.0,m,Wed May 13 2026 16:05:54 GMT-0400 (Eastern Daylight Time),450586.19999999925,011_m_f_h_a.png,I,m,1029,9,1,2044.800000000745,448541.3999999985,9060,VNB,B,8
9,test,4,0.0,1-Back,1.0,z,Wed May 13 2026 16:05:54 GMT-0400 (Eastern Daylight Time),452502.80000000075,004_o_m_h_a.png,I,z,890,10,1,1906.300000000745,450596.5,9060,VNB,B,9
10,test,4,1.0,1-Back,1.0,m,Wed May 13 2026 16:05:54 GMT-0400 (Eastern Daylight Time),454486.09999999776,005_o_f_n_a.png,I,m,958,11,1,1977.0,452509.09999999776,9060,VNB,B,10
10,test,4,0.0,1-Back,0.0,m,Wed May 13 2026 16:05:54 GMT-0400 (Eastern Daylight Time),456719.19999999925,011_m_f_d_a.png,I,z,1215,12,1,2223.39999999851,454495.80000000075,9060,VNB,B,11
10,test,4,0.0,1-Back,0.0,m,Wed May 13 2026 16:05:54 GMT-0400 (Eastern Daylight Time),459686.5,020_y_f_n_a.png,I,z,1950,13,1,2960.900000002235,456725.59999999776,9060,VNB,B,12
11,test,4,0.0,1-Back,1.0,m,Wed May 13 2026 16:05:54 GMT-0400 (Eastern Daylight Time),461952.80000000075,005_o_f_d_a.png,I,m,1239,14,1,2255.0,459697.80000000075,9060,VNB,B,13
12,test,4,0.0,1-Back,1.0,m,Wed May 13 2026 16:05:54 GMT-0400 (Eastern Daylight Time),464402.69999999925,020_y_f_h_a.png,I,m,1428,15,1,2443.699999999255,461959.0,9060,VNB,B,14
13,test,4,1.0,1-Back,1.0,z,Wed May 13 2026 16:05:54 GMT-0400 (Eastern Daylight Time),466386.09999999776,007_m_m_h_a.png,I,z,962,16,1,1972.5,464413.59999999776,9060,VNB,B,15
14,test,4,0.0,1-Back,1.0,m,Wed May 13 2026 16:05:54 GMT-0400 (Eastern Daylight Time),468236.09999999776,004_o_m_n_a.png,I,m,827,17,1,1843.5,466392.59999999776,9060,VNB,B,16
15,test,4,1.0,1-Back,1.0,z,Wed May 13 2026 16:05:54 GMT-0400 (Eastern Daylight Time),470236.19999999925,016_y_m_n_a.png,I,z,976,18,1,1989.8999999985099,468246.30000000075,9060,VNB,B,17
0,test,5,1.0,1-Back,,,Wed May 13 2026 16:05:54 GMT-0400 (Eastern Daylight Time),470236.19999999925,004_o_m_n_a.png,I,space,1056,1,1,1989.8999999985099,468246.30000000075,9060,VNB,B,0
1,test,5,1.0,1-Back,1.0,m,Wed May 13 2026 16:05:54 GMT-0400 (Eastern Daylight Time),475369.3999999985,005_o_f_h_a.png,I,m,1029,2,1,2038.5,473330.8999999985,9060,VNB,B,1
2,test,5,0.0,1-Back,1.0,m,Wed May 13 2026 16:05:54 GMT-0400 (Eastern Daylight Time),478336.0,016_y_m_d_a.png,I,m,1947,3,1,2960.300000000745,475375.69999999925,9060,VNB,B,2
3,test,5,0.0,1-Back,1.0,z,Wed May 13 2026 16:05:54 GMT-0400 (Eastern Daylight Time),480669.3999999985,004_o_m_d_a.png,I,z,1308,4,1,2322.800000000745,478346.59999999776,9060,VNB,B,3
4,test,5,0.0,1-Back,1.0,m,Wed May 13 2026 16:05:54 GMT-0400 (Eastern Daylight Time),482652.80000000075,011_m_f_h_a.png,I,m,951,5,1,1977.1000000014901,480675.69999999925,9060,VNB,B,4
5,test,5,0.0,1-Back,1.0,m,Wed May 13 2026 16:05:54 GMT-0400 (Eastern Daylight Time),484735.8999999985,020_y_f_n_a.png,I,m,1063,6,1,2072.89999999851,482663.0,9060,VNB,B,5
6,test,5,1.0,1-Back,1.0,z,Wed May 13 2026 16:05:54 GMT-0400 (Eastern Daylight Time),486752.8999999985,005_o_f_n_a.png,I,z,989,7,1,2008.800000000745,484744.09999999776,9060,VNB,B,6
7,test,5,0.0,1-Back,1.0,m,Wed May 13 2026 16:05:54 GMT-0400 (Eastern Daylight Time),488886.19999999925,011_m_f_d_a.png,I,m,1100,8,1,2120.199999999255,486766.0,9060,VNB,B,7
8,test,5,0.0,1-Back,1.0,m,Wed May 13 2026 16:05:54 GMT-0400 (Eastern Daylight Time),491086.30000000075,016_y_m_h_a.png,I,m,1183,9,1,2194.400000002235,488891.8999999985,9060,VNB,B,8
9,test,5,0.0,1-Back,1.0,m,Wed May 13 2026 16:05:54 GMT-0400 (Eastern Daylight Time),493169.5,020_y_f_d_a.png,I,m,1054,10,1,2072.60000000149,491096.8999999985,9060,VNB,B,9
10,test,5,0.0,1-Back,1.0,m,Wed May 13 2026 16:05:54 GMT-0400 (Eastern Daylight Time),495286.30000000075,007_m_m_n_a.png,I,m,1091,11,1,2110.7000000029802,493175.59999999776,9060,VNB,B,10
10,test,5,1.0,1-Back,0.0,z,Wed May 13 2026 16:05:54 GMT-0400 (Eastern Daylight Time),497719.5,011_m_f_n_a.png,I,m,1406,12,1,2421.199999999255,495298.30000000075,9060,VNB,B,11
11,test,5,0.0,1-Back,1.0,m,Wed May 13 2026 16:05:54 GMT-0400 (Eastern Daylight Time),499852.8999999985,004_o_m_h_a.png,I,m,1101,13,1,2127.800000000745,497725.09999999776,9060,VNB,B,12
12,test,5,0.0,1-Back,1.0,z,Wed May 13 2026 16:05:54 GMT-0400 (Eastern Daylight Time),501802.80000000075,007_m_m_h_a.png,I,z,919,14,1,1938.0,499864.80000000075,9060,VNB,B,13
13,test,5,1.0,1-Back,1.0,m,Wed May 13 2026 16:05:54 GMT-0400 (Eastern Daylight Time),503702.8999999985,005_o_f_d_a.png,I,m,874,15,1,1892.0999999977648,501810.80000000075,9060,VNB,B,14
14,test,5,0.0,1-Back,1.0,m,Wed May 13 2026 16:05:54 GMT-0400 (Eastern Daylight Time),505752.8999999985,016_y_m_n_a.png,I,m,1022,16,1,2040.699999999255,503712.19999999925,9060,VNB,B,15
15,test,5,0.0,1-Back,1.0,m,Wed May 13 2026 16:05:54 GMT-0400 (Eastern Daylight Time),507852.80000000075,020_y_f_h_a.png,I,m,1068,17,1,2093.0,505759.80000000075,9060,VNB,B,16
16,test,5,0.0,1-Back,1.0,m,Wed May 13 2026 16:05:54 GMT-0400 (Eastern Daylight Time),509752.8999999985,007_m_m_d_a.png,I,m,871,18,1,1888.199999999255,507864.69999999925,9060,VNB,B,17
0,prac,1,0.0,2-Back,,,Wed May 13 2026 16:05:54 GMT-0400 (Eastern Daylight Time),509752.8999999985,011_m_f_n_a.png,I,space,14990,1,1,1888.199999999255,507864.69999999925,9060,VNB,B,0
0,prac,1,0.0,2-Back,,,Wed May 13 2026 16:05:54 GMT-0400 (Eastern Daylight Time),509752.8999999985,005_o_f_h_a.png,I,space,14990,2,1,1888.199999999255,507864.69999999925,9060,VNB,B,0
1,prac,1,0.0,2-Back,1.0,m,Wed May 13 2026 16:05:54 GMT-0400 (Eastern Daylight Time),677670.3000000007,004_o_m_d_a.png,I,m,1739,3,1,2621.5,675048.8000000007,9060,VNB,B,1
1,prac,1,1.0,2-Back,0.0,z,Wed May 13 2026 16:05:54 GMT-0400 (Eastern Daylight Time),680603.0,007_m_m_h_a.png,I,None,2013,4,1,2920.5,677682.5,9060,VNB,B,2
1,prac,1,0.0,2-Back,0.0,m,Wed May 13 2026 16:05:54 GMT-0400 (Eastern Daylight Time),683453.3999999985,020_y_f_n_a.png,I,z,1957,5,1,2842.099999997765,680611.3000000007,9060,VNB,B,3
2,prac,1,1.0,2-Back,1.0,z,Wed May 13 2026 16:05:54 GMT-0400 (Eastern Daylight Time),685953.3999999985,004_o_m_h_a.png,I,z,1585,6,1,2486.39999999851,683467.0,9060,VNB,B,4
3,prac,1,1.0,2-Back,1.0,z,Wed May 13 2026 16:05:54 GMT-0400 (Eastern Daylight Time),688636.6999999993,016_y_m_n_a.png,I,z,1758,7,1,2675.0,685961.6999999993,9060,VNB,B,5
3,prac,1,0.0,2-Back,0.0,m,Wed May 13 2026 16:05:54 GMT-0400 (Eastern Daylight Time),691053.3999999985,011_m_f_d_a.png,I,z,1491,8,1,2399.099999997765,688654.3000000007,9060,VNB,B,6
4,prac,1,0.0,2-Back,1.0,m,Wed May 13 2026 16:05:54 GMT-0400 (Eastern Daylight Time),693020.1999999993,005_o_f_d_a.png,I,m,1042,9,1,1955.800000000745,691064.3999999985,9060,VNB,B,7
4,prac,1,0.0,2-Back,0.0,m,Wed May 13 2026 16:05:54 GMT-0400 (Eastern Daylight Time),694870.0,007_m_m_h_a.png,I,z,1060,10,1,1836.0,693034.0,9060,VNB,B,8
5,prac,1,1.0,2-Back,1.0,z,Wed May 13 2026 16:05:54 GMT-0400 (Eastern Daylight Time),697720.0,020_y_f_d_a.png,I,z,1952,11,1,2840.900000002235,694879.0999999978,9060,VNB,B,9
6,prac,1,0.0,2-Back,1.0,m,Wed May 13 2026 16:05:54 GMT-0400 (Eastern Daylight Time),699970.0999999978,004_o_m_n_a.png,I,m,1346,12,1,2236.5,697733.5999999978,9060,VNB,B,10
0,prac,2,0.0,2-Back,,,Wed May 13 2026 16:05:54 GMT-0400 (Eastern Daylight Time),699970.0999999978,011_m_f_n_a.png,I,a,12438,1,1,2236.5,697733.5999999978,9060,VNB,B,0
0,prac,2,0.0,2-Back,,,Wed May 13 2026 16:05:54 GMT-0400 (Eastern Daylight Time),699970.0999999978,005_o_f_h_a.png,I,a,12438,2,1,2236.5,697733.5999999978,9060,VNB,B,0
1,prac,2,0.0,2-Back,1.0,m,Wed May 13 2026 16:05:54 GMT-0400 (Eastern Daylight Time),719786.8000000007,004_o_m_d_a.png,I,m,1162,3,1,2056.2000000029802,717730.5999999978,9060,VNB,B,1
1,prac,2,1.0,2-Back,0.0,z,Wed May 13 2026 16:05:54 GMT-0400 (Eastern Daylight Time),722570.0999999978,007_m_m_h_a.png,I,None,2001,4,1,2768.599999997765,719801.5,9060,VNB,B,2
2,prac,2,0.0,2-Back,1.0,m,Wed May 13 2026 16:05:54 GMT-0400 (Eastern Daylight Time),724920.1999999993,020_y_f_n_a.png,I,m,1448,5,1,2343.199999999255,722577.0,9060,VNB,B,3
3,prac,2,1.0,2-Back,1.0,z,Wed May 13 2026 16:05:54 GMT-0400 (Eastern Daylight Time),727053.5999999978,004_o_m_h_a.png,I,z,1233,6,1,2118.099999997765,724935.5,9060,VNB,B,4
4,prac,2,1.0,2-Back,1.0,z,Wed May 13 2026 16:05:54 GMT-0400 (Eastern Daylight Time),729403.3999999985,016_y_m_n_a.png,I,z,1427,7,1,2340.099999997765,727063.3000000007,9060,VNB,B,5
5,prac,2,0.0,2-Back,1.0,m,Wed May 13 2026 16:05:54 GMT-0400 (Eastern Daylight Time),731703.5,011_m_f_d_a.png,I,m,1383,8,1,2287.5,729416.0,9060,VNB,B,6
5,prac,2,0.0,2-Back,0.0,m,Wed May 13 2026 16:05:54 GMT-0400 (Eastern Daylight Time),733753.3999999985,005_o_f_d_a.png,I,z,1122,9,1,2040.0,731713.3999999985,9060,VNB,B,7
5,prac,2,0.0,2-Back,0.0,m,Wed May 13 2026 16:05:54 GMT-0400 (Eastern Daylight Time),736186.6999999993,007_m_m_h_a.png,I,z,1638,10,1,2418.60000000149,733768.0999999978,9060,VNB,B,8
5,prac,2,1.0,2-Back,0.0,z,Wed May 13 2026 16:05:54 GMT-0400 (Eastern Daylight Time),738086.8000000007,020_y_f_d_a.png,I,m,997,11,1,1891.6000000014901,736195.1999999993,9060,VNB,B,9
5,prac,2,0.0,2-Back,0.0,m,Wed May 13 2026 16:05:54 GMT-0400 (Eastern Daylight Time),740003.5,004_o_m_n_a.png,I,z,1009,12,1,1902.1000000014901,738101.3999999985,9060,VNB,B,10
0,test,1,0.0,2-Back,,,Wed May 13 2026 16:05:54 GMT-0400 (Eastern Daylight Time),740003.5,016_y_m_h_a.png,I,space,12930,1,1,1902.1000000014901,738101.3999999985,9060,VNB,B,0
0,test,1,0.0,2-Back,,,Wed May 13 2026 16:05:54 GMT-0400 (Eastern Daylight Time),740003.5,005_o_f_n_a.png,I,space,12930,2,1,1902.1000000014901,738101.3999999985,9060,VNB,B,0
1,test,1,0.0,2-Back,1.0,z,Wed May 13 2026 16:05:54 GMT-0400 (Eastern Daylight Time),768553.5999999978,004_o_m_h_a.png,I,z,1455,3,1,2478.099999997765,766075.5,9060,VNB,B,1
1,test,1,0.0,2-Back,0.0,m,Wed May 13 2026 16:05:54 GMT-0400 (Eastern Daylight Time),771003.5,011_m_f_d_a.png,I,z,1428,4,1,2436.60000000149,768566.8999999985,9060,VNB,B,2
1,test,1,1.0,2-Back,0.0,m,Wed May 13 2026 16:05:54 GMT-0400 (Eastern Daylight Time),773286.8000000007,016_y_m_n_a.png,I,z,1250,5,1,2276.7000000029802,771010.0999999978,9060,VNB,B,3
1,test,1,0.0,2-Back,0.0,z,Wed May 13 2026 16:05:54 GMT-0400 (Eastern Daylight Time),775770.1999999993,020_y_f_d_a.png,I,m,1461,6,1,2471.0,773299.1999999993,9060,VNB,B,4
2,test,1,0.0,2-Back,1.0,m,Wed May 13 2026 16:05:54 GMT-0400 (Eastern Daylight Time),778036.8000000007,007_m_m_h_a.png,I,m,1235,7,1,2260.5,775776.3000000007,9060,VNB,B,5
2,test,1,1.0,2-Back,0.0,m,Wed May 13 2026 16:05:54 GMT-0400 (Eastern Daylight Time),780904.3999999985,020_y_f_n_a.png,I,z,1848,8,1,2855.199999999255,778049.1999999993,9060,VNB,B,6
3,test,1,0.0,2-Back,1.0,z,Wed May 13 2026 16:05:54 GMT-0400 (Eastern Daylight Time),783003.6999999993,005_o_f_h_a.png,I,z,1070,9,1,2093.60000000149,780910.0999999978,9060,VNB,B,7
3,test,1,0.0,2-Back,0.0,m,Wed May 13 2026 16:05:54 GMT-0400 (Eastern Daylight Time),786037.0999999978,004_o_m_d_a.png,I,None,2016,10,1,3021.89999999851,783015.1999999993,9060,VNB,B,8
3,test,1,1.0,2-Back,0.0,m,Wed May 13 2026 16:05:54 GMT-0400 (Eastern Daylight Time),788370.1999999993,007_m_m_d_a.png,I,z,1304,11,1,2327.5,786042.6999999993,9060,VNB,B,9
4,test,1,0.0,2-Back,1.0,m,Wed May 13 2026 16:05:54 GMT-0400 (Eastern Daylight Time),790919.8999999985,011_m_f_n_a.png,I,m,1522,12,1,2538.39999999851,788381.5,9060,VNB,B,10
4,test,1,0.0,2-Back,0.0,m,Wed May 13 2026 16:05:54 GMT-0400 (Eastern Daylight Time),793336.8999999985,020_y_f_h_a.png,I,z,1398,13,1,2412.300000000745,790924.5999999978,9060,VNB,B,11
5,test,1,0.0,2-Back,1.0,z,Wed May 13 2026 16:05:54 GMT-0400 (Eastern Daylight Time),796186.8999999985,007_m_m_n_a.png,I,z,1827,14,1,2839.800000000745,793347.0999999978,9060,VNB,B,12
6,test,1,0.0,2-Back,1.0,m,Wed May 13 2026 16:05:54 GMT-0400 (Eastern Daylight Time),798686.5999999978,016_y_m_d_a.png,I,m,1482,15,1,2491.39999999851,796195.1999999993,9060,VNB,B,13
6,test,1,1.0,2-Back,0.0,m,Wed May 13 2026 16:05:54 GMT-0400 (Eastern Daylight Time),800786.8000000007,011_m_f_h_a.png,I,z,1078,16,1,2088.900000002235,798697.8999999985,9060,VNB,B,14
6,test,1,0.0,2-Back,0.0,z,Wed May 13 2026 16:05:54 GMT-0400 (Eastern Daylight Time),803820.1999999993,005_o_f_d_a.png,I,None,2016,17,1,3027.0,800793.1999999993,9060,VNB,B,15
6,test,1,0.0,2-Back,0.0,m,Wed May 13 2026 16:05:54 GMT-0400 (Eastern Daylight Time),806186.8999999985,004_o_m_n_a.png,I,z,1337,18,1,2354.39999999851,803832.5,9060,VNB,B,16
0,test,2,0.0,2-Back,,,Wed May 13 2026 16:05:54 GMT-0400 (Eastern Daylight Time),806186.8999999985,007_m_m_h_a.png,I,space,1338,1,1,2354.39999999851,803832.5,9060,VNB,B,0
0,test,2,0.0,2-Back,,,Wed May 13 2026 16:05:54 GMT-0400 (Eastern Daylight Time),806186.8999999985,020_y_f_n_a.png,I,space,1338,2,1,2354.39999999851,803832.5,9060,VNB,B,0
1,test,2,1.0,2-Back,1.0,z,Wed May 13 2026 16:05:54 GMT-0400 (Eastern Daylight Time),815053.5,005_o_f_h_a.png,I,z,1192,3,1,2211.0,812842.5,9060,VNB,B,1
2,test,2,0.0,2-Back,1.0,m,Wed May 13 2026 16:05:54 GMT-0400 (Eastern Daylight Time),817253.5999999978,004_o_m_d_a.png,I,m,1167,4,1,2188.89999999851,815064.6999999993,9060,VNB,B,2
3,test,2,0.0,2-Back,1.0,m,Wed May 13 2026 16:05:54 GMT-0400 (Eastern Daylight Time),819420.3000000007,011_m_f_d_a.png,I,m,1143,5,1,2160.400000002235,817259.8999999985,9060,VNB,B,3
3,test,2,0.0,2-Back,0.0,m,Wed May 13 2026 16:05:54 GMT-0400 (Eastern Daylight Time),821670.3999999985,016_y_m_h_a.png,I,z,1224,6,1,2238.300000000745,819432.0999999978,9060,VNB,B,4
3,test,2,0.0,2-Back,0.0,m,Wed May 13 2026 16:05:54 GMT-0400 (Eastern Daylight Time),824053.5,005_o_f_n_a.png,I,z,1359,7,1,2375.699999999255,821677.8000000007,9060,VNB,B,5
4,test,2,1.0,2-Back,1.0,z,Wed May 13 2026 16:05:54 GMT-0400 (Eastern Daylight Time),826937.0,004_o_m_h_a.png,I,z,1855,8,1,2871.60000000149,824065.3999999985,9060,VNB,B,6
5,test,2,0.0,2-Back,1.0,m,Wed May 13 2026 16:05:54 GMT-0400 (Eastern Daylight Time),829436.8999999985,020_y_f_d_a.png,I,m,1477,9,1,2494.199999999255,826942.6999999993,9060,VNB,B,7
5,test,2,0.0,2-Back,0.0,m,Wed May 13 2026 16:05:54 GMT-0400 (Eastern Daylight Time),832470.5,016_y_m_d_a.png,I,None,2015,10,1,3022.5,829448.0,9060,VNB,B,8
5,test,2,0.0,2-Back,0.0,m,Wed May 13 2026 16:05:54 GMT-0400 (Eastern Daylight Time),834420.1999999993,007_m_m_n_a.png,I,z,919,11,1,1942.0,832478.1999999993,9060,VNB,B,9
5,test,2,0.0,2-Back,0.0,m,Wed May 13 2026 16:05:54 GMT-0400 (Eastern Daylight Time),836670.3999999985,011_m_f_h_a.png,I,z,1224,12,1,2237.599999997765,834432.8000000007,9060,VNB,B,10
5,test,2,1.0,2-Back,0.0,z,Wed May 13 2026 16:05:54 GMT-0400 (Eastern Daylight Time),839220.3000000007,004_o_m_n_a.png,I,m,1519,13,1,2541.900000002235,836678.3999999985,9060,VNB,B,11
5,test,2,0.0,2-Back,0.0,m,Wed May 13 2026 16:05:54 GMT-0400 (Eastern Daylight Time),841403.8000000007,005_o_f_d_a.png,I,z,1103,14,1,2125.400000002235,839278.3999999985,9060,VNB,B,12
5,test,2,0.0,2-Back,0.0,m,Wed May 13 2026 16:05:54 GMT-0400 (Eastern Daylight Time),844236.8999999985,020_y_f_h_a.png,I,z,1809,15,1,2825.099999997765,841411.8000000007,9060,VNB,B,13
5,test,2,0.0,2-Back,0.0,z,Wed May 13 2026 16:05:54 GMT-0400 (Eastern Daylight Time),846287.0999999978,007_m_m_d_a.png,I,m,1033,16,1,2037.5999999977648,844249.5,9060,VNB,B,14
5,test,2,0.0,2-Back,0.0,m,Wed May 13 2026 16:05:54 GMT-0400 (Eastern Daylight Time),848353.5999999978,016_y_m_n_a.png,I,z,1038,17,1,2061.0,846292.5999999978,9060,VNB,B,15
5,test,2,1.0,2-Back,0.0,m,Wed May 13 2026 16:05:54 GMT-0400 (Eastern Daylight Time),850521.3999999985,011_m_f_n_a.png,I,z,1146,18,1,2155.699999999255,848365.6999999993,9060,VNB,B,16
0,test,3,1.0,2-Back,,,Wed May 13 2026 16:05:54 GMT-0400 (Eastern Daylight Time),850521.3999999985,004_o_m_n_a.png,I,space,859,1,1,2155.699999999255,848365.6999999993,9060,VNB,B,0
0,test,3,1.0,2-Back,,,Wed May 13 2026 16:05:54 GMT-0400 (Eastern Daylight Time),850521.3999999985,005_o_f_d_a.png,I,space,859,2,1,2155.699999999255,848365.6999999993,9060,VNB,B,0
1,test,3,0.0,2-Back,1.0,m,Wed May 13 2026 16:05:54 GMT-0400 (Eastern Daylight Time),858520.3000000007,020_y_f_h_a.png,I,m,1057,3,1,2077.7000000029802,856442.5999999978,9060,VNB,B,1
2,test,3,0.0,2-Back,1.0,z,Wed May 13 2026 16:05:54 GMT-0400 (Eastern Daylight Time),860970.3999999985,011_m_f_d_a.png,I,z,1428,4,1,2437.89999999851,858532.5,9060,VNB,B,2
3,test,3,1.0,2-Back,1.0,m,Wed May 13 2026 16:05:54 GMT-0400 (Eastern Daylight Time),863087.0,016_y_m_n_a.png,I,m,1099,5,1,2109.10000000149,860977.8999999985,9060,VNB,B,3
3,test,3,0.0,2-Back,0.0,m,Wed May 13 2026 16:05:54 GMT-0400 (Eastern Daylight Time),865203.6999999993,004_o_m_h_a.png,I,z,1086,6,1,2107.0,863096.6999999993,9060,VNB,B,4
4,test,3,0.0,2-Back,1.0,z,Wed May 13 2026 16:05:54 GMT-0400 (Eastern Daylight Time),868153.6999999993,020_y_f_n_a.png,I,z,1929,7,1,2943.60000000149,865210.0999999978,9060,VNB,B,5
4,test,3,1.0,2-Back,0.0,m,Wed May 13 2026 16:05:54 GMT-0400 (Eastern Daylight Time),871187.1999999993,007_m_m_d_a.png,I,None,2015,8,1,3020.89999999851,868166.3000000007,9060,VNB,B,6
4,test,3,0.0,2-Back,0.0,m,Wed May 13 2026 16:05:54 GMT-0400 (Eastern Daylight Time),873720.1999999993,016_y_m_d_a.png,I,z,1514,9,1,2527.5,871192.6999999993,9060,VNB,B,7
5,test,3,0.0,2-Back,1.0,m,Wed May 13 2026 16:05:54 GMT-0400 (Eastern Daylight Time),875820.3999999985,005_o_f_h_a.png,I,m,1068,10,1,2090.599999997765,873729.8000000007,9060,VNB,B,8
5,test,3,1.0,2-Back,0.0,m,Wed May 13 2026 16:05:54 GMT-0400 (Eastern Daylight Time),878470.0999999978,011_m_f_n_a.png,I,z,1624,11,1,2644.0,875826.0999999978,9060,VNB,B,9
6,test,3,1.0,2-Back,1.0,z,Wed May 13 2026 16:05:54 GMT-0400 (Eastern Daylight Time),881020.5,007_m_m_h_a.png,I,z,1293,12,1,2306.199999999255,878714.3000000007,9060,VNB,B,10
6,test,3,0.0,2-Back,0.0,m,Wed May 13 2026 16:05:54 GMT-0400 (Eastern Daylight Time),883853.5999999978,020_y_f_d_a.png,I,z,1801,13,1,2825.0,881028.5999999978,9060,VNB,B,11
7,test,3,0.0,2-Back,1.0,m,Wed May 13 2026 16:05:54 GMT-0400 (Eastern Daylight Time),885936.6999999993,005_o_f_n_a.png,I,m,1063,14,1,2071.0,883865.6999999993,9060,VNB,B,12
8,test,3,0.0,2-Back,1.0,z,Wed May 13 2026 16:05:54 GMT-0400 (Eastern Daylight Time),888203.6999999993,004_o_m_d_a.png,I,z,1244,15,1,2262.10000000149,885941.5999999978,9060,VNB,B,13
9,test,3,1.0,2-Back,1.0,m,Wed May 13 2026 16:05:54 GMT-0400 (Eastern Daylight Time),890337.0,011_m_f_h_a.png,I,m,1104,16,1,2122.800000000745,888214.1999999993,9060,VNB,B,14
10,test,3,0.0,2-Back,1.0,m,Wed May 13 2026 16:05:54 GMT-0400 (Eastern Daylight Time),892503.5999999978,007_m_m_n_a.png,I,m,1141,17,1,2161.0,890342.5999999978,9060,VNB,B,15
11,test,3,0.0,2-Back,1.0,z,Wed May 13 2026 16:05:54 GMT-0400 (Eastern Daylight Time),894370.3999999985,016_y_m_h_a.png,I,z,845,18,1,1855.3999999985099,892515.0,9060,VNB,B,16
0,test,4,0.0,2-Back,,,Wed May 13 2026 16:05:54 GMT-0400 (Eastern Daylight Time),894370.3999999985,011_m_f_n_a.png,I,space,1426,1,1,1855.3999999985099,892515.0,9060,VNB,B,0
0,test,4,0.0,2-Back,,,Wed May 13 2026 16:05:54 GMT-0400 (Eastern Daylight Time),894370.3999999985,004_o_m_n_a.png,I,space,1426,2,1,1855.3999999985099,892515.0,9060,VNB,B,0
1,test,4,1.0,2-Back,1.0,m,Wed May 13 2026 16:05:54 GMT-0400 (Eastern Daylight Time),902920.3000000007,016_y_m_h_a.png,I,m,814,3,1,1825.300000000745,901095.0,9060,VNB,B,1
1,test,4,1.0,2-Back,0.0,m,Wed May 13 2026 16:05:54 GMT-0400 (Eastern Daylight Time),904903.5999999978,005_o_f_d_a.png,I,z,965,4,1,1972.8999999985099,902930.6999999993,9060,VNB,B,2
2,test,4,0.0,2-Back,1.0,z,Wed May 13 2026 16:05:54 GMT-0400 (Eastern Daylight Time),907237.0,004_o_m_h_a.png,I,z,1310,5,1,2327.0,904910.0,9060,VNB,B,3
2,test,4,0.0,2-Back,0.0,m,Wed May 13 2026 16:05:54 GMT-0400 (Eastern Daylight Time),909637.0,007_m_m_n_a.png,I,z,1376,6,1,2388.0,907249.0,9060,VNB,B,4
3,test,4,0.0,2-Back,1.0,m,Wed May 13 2026 16:05:54 GMT-0400 (Eastern Daylight Time),911770.5,011_m_f_d_a.png,I,m,1112,7,1,2125.800000000745,909644.6999999993,9060,VNB,B,5
3,test,4,0.0,2-Back,0.0,z,Wed May 13 2026 16:05:54 GMT-0400 (Eastern Daylight Time),914820.6999999993,020_y_f_n_a.png,I,None,2016,8,1,3033.39999999851,911787.3000000007,9060,VNB,B,6
3,test,4,1.0,2-Back,0.0,m,Wed May 13 2026 16:05:54 GMT-0400 (Eastern Daylight Time),917070.3999999985,005_o_f_h_a.png,I,z,1224,9,1,2243.800000000745,914826.5999999978,9060,VNB,B,7
4,test,4,0.0,2-Back,1.0,m,Wed May 13 2026 16:05:54 GMT-0400 (Eastern Daylight Time),919387.0,007_m_m_h_a.png,I,m,1293,10,1,2307.5,917079.5,9060,VNB,B,8
5,test,4,0.0,2-Back,1.0,m,Wed May 13 2026 16:05:54 GMT-0400 (Eastern Daylight Time),921703.8000000007,020_y_f_d_a.png,I,m,1290,11,1,2310.2000000029802,919393.5999999978,9060,VNB,B,9
5,test,4,0.0,2-Back,0.0,m,Wed May 13 2026 16:05:54 GMT-0400 (Eastern Daylight Time),923820.5,016_y_m_n_a.png,I,z,1093,12,1,2105.0,921715.5,9060,VNB,B,10
6,test,4,0.0,2-Back,1.0,z,Wed May 13 2026 16:05:54 GMT-0400 (Eastern Daylight Time),926420.3999999985,004_o_m_d_a.png,I,z,1577,13,1,2593.300000000745,923827.0999999978,9060,VNB,B,11
6,test,4,1.0,2-Back,0.0,m,Wed May 13 2026 16:05:54 GMT-0400 (Eastern Daylight Time),928803.6999999993,011_m_f_h_a.png,I,z,1352,14,1,2372.199999999255,926431.5,9060,VNB,B,12
7,test,4,1.0,2-Back,1.0,m,Wed May 13 2026 16:05:54 GMT-0400 (Eastern Daylight Time),930970.3999999985,020_y_f_h_a.png,I,m,1146,15,1,2161.0,928809.3999999985,9060,VNB,B,13
7,test,4,0.0,2-Back,0.0,m,Wed May 13 2026 16:05:54 GMT-0400 (Eastern Daylight Time),933487.0999999978,005_o_f_n_a.png,I,z,1490,16,1,2505.599999997765,930981.5,9060,VNB,B,14
7,test,4,0.0,2-Back,0.0,m,Wed May 13 2026 16:05:54 GMT-0400 (Eastern Daylight Time),935720.1999999993,016_y_m_d_a.png,I,z,1214,17,1,2226.300000000745,933493.8999999985,9060,VNB,B,15
7,test,4,1.0,2-Back,0.0,m,Wed May 13 2026 16:05:54 GMT-0400 (Eastern Daylight Time),937753.6999999993,007_m_m_d_a.png,I,z,972,18,1,1992.0,935761.6999999993,9060,VNB,B,16
0,test,5,1.0,2-Back,,,Wed May 13 2026 16:05:54 GMT-0400 (Eastern Daylight Time),937753.6999999993,020_y_f_d_a.png,I,space,1635,1,1,1992.0,935761.6999999993,9060,VNB,B,0
0,test,5,1.0,2-Back,,,Wed May 13 2026 16:05:54 GMT-0400 (Eastern Daylight Time),937753.6999999993,005_o_f_h_a.png,I,space,1635,2,1,1992.0,935761.6999999993,9060,VNB,B,0
1,test,5,1.0,2-Back,1.0,z,Wed May 13 2026 16:05:54 GMT-0400 (Eastern Daylight Time),946837.3000000007,004_o_m_d_a.png,I,z,1101,3,1,2126.300000000745,944711.0,9060,VNB,B,1
2,test,5,1.0,2-Back,1.0,m,Wed May 13 2026 16:05:54 GMT-0400 (Eastern Daylight Time),949287.3000000007,011_m_f_n_a.png,I,m,1424,4,1,2438.0,946849.3000000007,9060,VNB,B,2
2,test,5,0.0,2-Back,0.0,m,Wed May 13 2026 16:05:54 GMT-0400 (Eastern Daylight Time),951587.1999999993,007_m_m_h_a.png,I,z,1271,5,1,2293.199999999255,949294.0,9060,VNB,B,3
3,test,5,0.0,2-Back,1.0,z,Wed May 13 2026 16:05:54 GMT-0400 (Eastern Daylight Time),954270.5,020_y_f_n_a.png,I,z,1658,6,1,2670.300000000745,951600.1999999993,9060,VNB,B,4
3,test,5,0.0,2-Back,0.0,m,Wed May 13 2026 16:05:54 GMT-0400 (Eastern Daylight Time),956737.1999999993,005_o_f_d_a.png,I,z,1447,7,1,2459.89999999851,954277.3000000007,9060,VNB,B,5
4,test,5,0.0,2-Back,1.0,m,Wed May 13 2026 16:05:54 GMT-0400 (Eastern Daylight Time),958737.0999999978,004_o_m_h_a.png,I,m,964,8,1,1977.699999999255,956759.3999999985,9060,VNB,B,6
5,test,5,1.0,2-Back,1.0,z,Wed May 13 2026 16:05:54 GMT-0400 (Eastern Daylight Time),960837.3000000007,011_m_f_d_a.png,I,z,1077,9,1,2093.60000000149,958743.6999999993,9060,VNB,B,7
5,test,5,0.0,2-Back,0.0,m,Wed May 13 2026 16:05:54 GMT-0400 (Eastern Daylight Time),963003.8000000007,016_y_m_n_a.png,I,z,1135,10,1,2155.0,960848.8000000007,9060,VNB,B,8
6,test,5,0.0,2-Back,1.0,m,Wed May 13 2026 16:05:54 GMT-0400 (Eastern Daylight Time),965953.8999999985,007_m_m_n_a.png,I,m,1921,11,1,2941.89999999851,963012.0,9060,VNB,B,9
7,test,5,0.0,2-Back,1.0,m,Wed May 13 2026 16:05:54 GMT-0400 (Eastern Daylight Time),967970.5999999978,020_y_f_h_a.png,I,m,952,12,1,2004.8999999985099,965965.6999999993,9060,VNB,B,10
7,test,5,0.0,2-Back,0.0,m,Wed May 13 2026 16:05:54 GMT-0400 (Eastern Daylight Time),970253.8000000007,016_y_m_d_a.png,I,z,1258,13,1,2276.60000000149,967977.1999999993,9060,VNB,B,11
7,test,5,1.0,2-Back,0.0,z,Wed May 13 2026 16:05:54 GMT-0400 (Eastern Daylight Time),972253.6999999993,011_m_f_h_a.png,I,m,976,14,1,1985.5,970268.1999999993,9060,VNB,B,12
7,test,5,0.0,2-Back,0.0,m,Wed May 13 2026 16:05:54 GMT-0400 (Eastern Daylight Time),974937.1999999993,004_o_m_n_a.png,I,z,1664,15,1,2680.10000000149,972257.0999999978,9060,VNB,B,13
7,test,5,0.0,2-Back,0.0,m,Wed May 13 2026 16:05:54 GMT-0400 (Eastern Daylight Time),977803.8999999985,007_m_m_d_a.png,I,z,1843,16,1,2857.5,974946.3999999985,9060,VNB,B,14
8,test,5,0.0,2-Back,1.0,z,Wed May 13 2026 16:05:54 GMT-0400 (Eastern Daylight Time),980420.0999999978,005_o_f_n_a.png,I,z,1592,17,1,2609.0,977811.0999999978,9060,VNB,B,15
9,test,5,1.0,2-Back,1.0,m,Wed May 13 2026 16:05:54 GMT-0400 (Eastern Daylight Time),982487.3000000007,016_y_m_h_a.png,I,m,1041,18,1,2060.300000000745,980427.0,9060,VNB,B,16
