acc_sum,block_c,block_dur,condition,correct,correct_response,countdown,datetime,endtime,project,response,response_time,response_time_test1_response,response_time_test2_response,row_sel,same,session_number,start_end,starttime,stim1,stim2,subject_id,task,task_vers,time_test1,time_test2,trial
0,1,0.0,prac,0,m,30000.0,Thu Nov 06 2025 17:36:42 GMT-0600 (Central Standard Time),26056.5,O,z,1426,,,3,no,1,2943.2000000029802,23113.29999999702,QHZXPC,QHZWPC,7235,LC,C,,,1
1,1,0.0,prac,1,z,30000.0,Thu Nov 06 2025 17:36:42 GMT-0600 (Central Standard Time),29838.5,O,z,2246,,,2,yes,1,3778.300000011921,26060.19999998808,NBGFSM,NBGFSM,7235,LC,C,,,2
2,1,0.0,prac,1,m,30000.0,Thu Nov 06 2025 17:36:42 GMT-0600 (Central Standard Time),34304.79999999702,O,m,2934,,,5,no,1,4459.70000000298,29845.09999999404,LNDPRSKQB,LNDPRSJQB,7235,LC,C,,,3
3,1,0.0,prac,1,z,30000.0,Thu Nov 06 2025 17:36:42 GMT-0600 (Central Standard Time),36956.0,O,z,1135,,,4,yes,1,2648.1000000089407,34307.89999999106,RSM,RSM,7235,LC,C,,,4
4,1,0.0,prac,1,z,30000.0,Thu Nov 06 2025 17:36:42 GMT-0600 (Central Standard Time),48083.0,O,z,9605,,,6,yes,1,11123.90000000596,36959.09999999404,CSDBFPHXZ,CSDBFPHXZ,7235,LC,C,,,5
5,1,0.0,prac,1,m,30000.0,Thu Nov 06 2025 17:36:42 GMT-0600 (Central Standard Time),50632.69999998808,O,m,1029,,,1,no,1,2546.3999999910593,48086.29999999702,RNV,FNV,7235,LC,C,,,6
1,1,0.9320001602172852,test,1,m,29067.999839782715,Thu Nov 06 2025 17:36:42 GMT-0600 (Central Standard Time),54447.0,O,m,919,919,,1,no,1,930.3000000119209,53516.69999998808,HCF,RCF,7235,LC,C,51608,,1
2,1,2.6500000953674316,test,1,m,27349.99990463257,Thu Nov 06 2025 17:36:42 GMT-0600 (Central Standard Time),56164.5,O,m,1698,1698,,2,no,1,1715.300000011921,54449.19999998808,QTPRJX,QTPNJX,7235,LC,C,52541,,2
2,1,4.996999979019165,test,0,m,25003.000020980835,Thu Nov 06 2025 17:36:42 GMT-0600 (Central Standard Time),58512.5,O,z,2340,2340,,3,no,1,2345.1000000089407,56167.39999999106,MZDYGVGKQ,MZDYGLBKQ,7235,LC,C,54259,,3
3,1,6.430999994277954,test,1,m,23569.000005722046,Thu Nov 06 2025 17:36:42 GMT-0600 (Central Standard Time),59946.09999999404,O,m,1416,1416,,4,no,1,1431.2000000029802,58514.89999999106,FQTNMK,JQTNMK,7235,LC,C,56606,,4
4,1,7.630000114440918,test,1,z,22369.999885559082,Thu Nov 06 2025 17:36:42 GMT-0600 (Central Standard Time),61145.5,O,z,1183,1183,,5,yes,1,1196.9000000059605,59948.59999999404,CLJ,CLJ,7235,LC,C,58040,,5
4,1,12.444000005722046,test,0,m,17555.999994277954,Thu Nov 06 2025 17:36:42 GMT-0600 (Central Standard Time),65959.69999998808,O,z,4799,4799,,6,no,1,4811.79999999702,61147.89999999106,JGDMNSVPW,JGZMNSVPW,7235,LC,C,59239,,6
5,1,15.677000045776367,test,1,z,14322.999954223633,Thu Nov 06 2025 17:36:42 GMT-0600 (Central Standard Time),69192.29999999702,O,z,3226,3226,,7,yes,1,3230.1000000089407,65962.19999998808,FPTVHKCBJ,FPTVHKCBJ,7235,LC,C,64053,,7
6,1,17.342000007629395,test,1,m,12657.999992370605,Thu Nov 06 2025 17:36:42 GMT-0600 (Central Standard Time),70857.89999999106,O,m,1648,1648,,8,no,1,1663.5,69194.39999999106,XRPZBS,ZRPBDH,7235,LC,C,67286,,8
7,1,18.544000148773193,test,1,m,11455.999851226807,Thu Nov 06 2025 17:36:42 GMT-0600 (Central Standard Time),72059.59999999404,O,m,1198,1198,,9,no,1,1199.2999999970198,70860.29999999702,ZSQ,ZSP,7235,LC,C,68952,,9
8,1,21.492000102996826,test,1,z,8507.999897003174,Thu Nov 06 2025 17:36:42 GMT-0600 (Central Standard Time),75007.29999999702,O,z,2941,2941,,10,yes,1,2945.2999999970198,72062.0,MPZRXL,MPZRXL,7235,LC,C,70153,,10
9,1,22.625,test,1,m,7375.0,Thu Nov 06 2025 17:36:42 GMT-0600 (Central Standard Time),76140.0,O,m,1129,1129,,11,no,1,1130.300000011921,75009.69999998808,KJH,KRH,7235,LC,C,73101,,11
10,1,26.374000072479248,test,1,z,3625.999927520752,Thu Nov 06 2025 17:36:42 GMT-0600 (Central Standard Time),79888.89999999106,O,z,3734,3734,,12,yes,1,3747.0,76141.89999999106,SMNHVTFCB,SMNHVTFCB,7235,LC,C,74233,,12
11,1,28.723000049591064,test,1,z,1276.9999504089355,Thu Nov 06 2025 17:36:42 GMT-0600 (Central Standard Time),82238.69999998808,O,z,2344,2344,,13,yes,1,2347.2999999970198,79891.39999999106,KJWTQF,KJWTQF,7235,LC,C,77983,,13
11,1,30.00600004196167,test,0,z,-6.000041961669922,Thu Nov 06 2025 17:36:42 GMT-0600 (Central Standard Time),83521.5,O,None,1279,1279,,14,yes,1,1280.4000000059605,82241.09999999404,CHDKQGLMB,CHDKQGLMB,7235,LC,C,80333,,14
0,2,2.381999969482422,test,0,z,27618.000030517578,Thu Nov 06 2025 17:36:42 GMT-0600 (Central Standard Time),87336.69999998808,O,m,2366,,2366.0,1,yes,1,5095.5999999940395,82241.09999999404,PRDBZTYFN,PRDBZTYFN,7235,LC,C,,83048.0,1
1,2,4.131999969482422,test,1,m,25868.000030517578,Thu Nov 06 2025 17:36:42 GMT-0600 (Central Standard Time),89086.69999998808,O,m,1745,,1745.0,2,no,1,6845.5999999940395,82241.09999999404,NCWJDZ,NCMJDZ,7235,LC,C,,85430.0,2
2,2,5.230999946594238,test,1,m,24769.00005340576,Thu Nov 06 2025 17:36:42 GMT-0600 (Central Standard Time),90185.69999998808,O,m,1091,,1091.0,3,no,1,7944.5999999940395,82241.09999999404,KHW,KBW,7235,LC,C,,87180.0,3
3,2,7.046999931335449,test,1,m,22953.00006866455,Thu Nov 06 2025 17:36:42 GMT-0600 (Central Standard Time),92001.59999999404,O,m,1807,,1807.0,4,no,1,9760.5,82241.09999999404,ZRBGMF,ZRBCMF,7235,LC,C,,88280.0,4
4,2,8.065999984741211,test,1,m,21934.00001525879,Thu Nov 06 2025 17:36:42 GMT-0600 (Central Standard Time),93020.0,O,m,999,,999.0,5,no,1,10778.90000000596,82241.09999999404,BTH,BYH,7235,LC,C,,90095.0,5
5,2,10.27999997138977,test,1,z,19720.00002861023,Thu Nov 06 2025 17:36:42 GMT-0600 (Central Standard Time),95234.29999999702,O,z,2206,,2206.0,6,yes,1,12993.20000000298,82241.09999999404,XWKQRYCNZ,XWKQRYCNZ,7235,LC,C,,91113.0,6
6,2,12.428999900817871,test,1,z,17571.00009918213,Thu Nov 06 2025 17:36:42 GMT-0600 (Central Standard Time),97383.5,O,z,2135,,2135.0,7,yes,1,15142.40000000596,82241.09999999404,HNPDLK,HNPDLK,7235,LC,C,,93328.0,7
6,2,15.527999877929688,test,0,m,14472.000122070312,Thu Nov 06 2025 17:36:42 GMT-0600 (Central Standard Time),100482.39999999106,O,z,3082,,3082.0,8,no,1,18241.29999999702,82241.09999999404,WMQTRSGLZ,WMQTRZGLZ,7235,LC,C,,95477.0,8
7,2,16.411999940872192,test,1,z,13588.000059127808,Thu Nov 06 2025 17:36:42 GMT-0600 (Central Standard Time),101365.89999999106,O,z,871,,871.0,9,yes,1,19124.79999999702,82241.09999999404,JPN,JPN,7235,LC,C,,98576.0,9
8,2,19.30999994277954,test,1,m,10690.000057220459,Thu Nov 06 2025 17:36:42 GMT-0600 (Central Standard Time),104264.79999999702,O,m,2882,,2882.0,10,no,1,22023.70000000298,82241.09999999404,QLXSVT,QLNSVT,7235,LC,C,,99460.0,10
8,2,23.243000030517578,test,0,z,6756.999969482422,Thu Nov 06 2025 17:36:42 GMT-0600 (Central Standard Time),108197.69999998808,O,m,3921,,3921.0,11,yes,1,25956.59999999404,82241.09999999404,YXHKZVFPB,YXHKZVFPD,7235,LC,C,,102358.0,11
9,2,24.324999809265137,test,1,z,5675.000190734863,Thu Nov 06 2025 17:36:42 GMT-0600 (Central Standard Time),109279.5,O,z,1068,,1068.0,12,yes,1,27038.40000000596,82241.09999999404,RJZ,RJZ,7235,LC,C,,106291.0,12
10,2,26.29199981689453,test,1,z,3708.0001831054688,Thu Nov 06 2025 17:36:42 GMT-0600 (Central Standard Time),111246.79999999702,O,z,1962,,1962.0,13,yes,1,29005.70000000298,82241.09999999404,CLNPZD,CLNPZD,7235,LC,C,,107373.0,13
11,2,29.5239999294281,test,1,m,476.0000705718994,Thu Nov 06 2025 17:36:42 GMT-0600 (Central Standard Time),114478.19999998808,O,m,3218,,3218.0,14,no,1,32237.09999999404,82241.09999999404,DCBPFHXYJ,DCBPFHLYJ,7235,LC,C,,109340.0,14
11,2,30.006999969482422,test,0,m,-6.999969482421875,Thu Nov 06 2025 17:36:42 GMT-0600 (Central Standard Time),114961.5,O,None,481,,481.0,15,no,1,32720.40000000596,82241.09999999404,MWR,ZWR,7235,LC,C,,112571.0,15
