acc_sum,block,block_c,condition,correct,correct_response,datetime,endtime,flanker,jitter,project,response,response_test_buffer_response,response_test_target_response,response_time,response_time_test_buffer_response,response_time_test_target_response,row_sel,session_number,start_end,starttime,subject_id,target,task,task_vers,time_test_buffer,time_test_buffer_response,time_test_constants,time_test_flanker,time_test_jitter,time_test_logger,time_test_target,time_test_target_response,time_test_variables,trial
1,prac,1,inc,1,z,Tue Jun 23 2026 09:07:38 GMT-0400 (Eastern Daylight Time),134132.5,copper,900,I,z,,,558,,,2,2,2758.2000000476837,131374.29999995232,9068,cherry,NF,C,,,,,,,,,,1
2,prac,1,inc,1,m,Tue Jun 23 2026 09:07:38 GMT-0400 (Eastern Daylight Time),137065.5,raisin,1100,I,m,,,519,,,12,2,2921.2000000476837,134144.29999995232,9068,cobalt,NF,C,,,,,,,,,,2
3,prac,1,con,1,z,Tue Jun 23 2026 09:07:38 GMT-0400 (Eastern Daylight Time),139648.79999995232,lime,800,I,z,,,479,,,5,2,2572.1999999284744,137076.60000002384,9068,lime,NF,C,,,,,,,,,,3
4,prac,1,con,1,z,Tue Jun 23 2026 09:07:38 GMT-0400 (Eastern Daylight Time),142465.39999997616,orange,1000,I,z,,,509,,,3,2,2806.600000023842,139658.79999995232,9068,orange,NF,C,,,,,,,,,,4
5,prac,1,con,1,m,Tue Jun 23 2026 09:07:38 GMT-0400 (Eastern Daylight Time),145015.39999997616,bronze,800,I,m,,,439,,,9,2,2540.6999999284744,142474.70000004768,9068,bronze,NF,C,,,,,,,,,,5
6,prac,1,inc,1,z,Tue Jun 23 2026 09:07:38 GMT-0400 (Eastern Daylight Time),147882.20000004768,iron,900,I,z,,,635,,,6,2,2848.2000000476837,145034.0,9068,pear,NF,C,,,,,,,,,,6
7,prac,1,inc,1,m,Tue Jun 23 2026 09:07:38 GMT-0400 (Eastern Daylight Time),150715.60000002384,cherry,900,I,m,,,617,,,10,2,2821.2000000476837,147894.39999997616,9068,copper,NF,C,,,,,,,,,,7
8,prac,1,inc,1,m,Tue Jun 23 2026 09:07:38 GMT-0400 (Eastern Daylight Time),153432.29999995232,pear,900,I,m,,,504,,,14,2,2706.1999999284744,150726.10000002384,9068,iron,NF,C,,,,,,,,,,8
9,prac,1,con,1,m,Tue Jun 23 2026 09:07:38 GMT-0400 (Eastern Daylight Time),156232.10000002384,silver,1000,I,m,,,487,,,11,2,2790.0,153442.10000002384,9068,silver,NF,C,,,,,,,,,,9
10,prac,1,con,1,m,Tue Jun 23 2026 09:07:38 GMT-0400 (Eastern Daylight Time),158815.39999997616,gold,800,I,m,,,479,,,13,2,2571.0,156244.39999997616,9068,gold,NF,C,,,,,,,,,,10
11,prac,1,inc,1,z,Tue Jun 23 2026 09:07:38 GMT-0400 (Eastern Daylight Time),161665.5,lead,1100,I,z,,,445,,,8,2,2837.7000000476837,158827.79999995232,9068,plum,NF,C,,,,,,,,,,11
12,prac,1,con,1,z,Tue Jun 23 2026 09:07:38 GMT-0400 (Eastern Daylight Time),164265.5,banana,800,I,z,,,487,,,1,2,2588.399999976158,161677.10000002384,9068,banana,NF,C,,,,,,,,,,12
13,prac,1,inc,1,m,Tue Jun 23 2026 09:07:38 GMT-0400 (Eastern Daylight Time),167182.20000004768,plum,1100,I,m,,,515,,,16,2,2906.3000000715256,164275.89999997616,9068,lead,NF,C,,,,,,,,,,13
14,prac,1,con,1,m,Tue Jun 23 2026 09:07:38 GMT-0400 (Eastern Daylight Time),169948.79999995232,zinc,1000,I,m,,,465,,,15,2,2755.6999999284744,167193.10000002384,9068,zinc,NF,C,,,,,,,,,,14
15,prac,1,con,1,z,Tue Jun 23 2026 09:07:38 GMT-0400 (Eastern Daylight Time),172732.10000002384,kiwi,1000,I,z,,,466,,,7,2,2773.399999976158,169958.70000004768,9068,kiwi,NF,C,,,,,,,,,,15
15,prac,1,inc,0,z,Tue Jun 23 2026 09:07:38 GMT-0400 (Eastern Daylight Time),175565.39999997616,cobalt,1100,I,m,,,431,,,4,2,2824.1999999284744,172741.20000004768,9068,raisin,NF,C,,,,,,,,,,16
1,test,1,inc,1,m,Tue Jun 23 2026 09:07:38 GMT-0400 (Eastern Daylight Time),190398.89999997616,orange,1000,I,m,m,None,614,415.0,199.0,79,2,2142.0,188256.89999997616,9068,copper,NF,C,186201,186201,184475,185484,184475,186617,186001,186001,186617,1
2,test,1,con,1,z,Tue Jun 23 2026 09:07:38 GMT-0400 (Eastern Daylight Time),192381.89999997616,lime,1000,I,z,z,None,432,233.0,199.0,35,2,1972.7999999523163,190409.10000002384,9068,lime,NF,C,188351,188351,186627,187634,186628,188600,188150,188151,188600,2
3,test,1,inc,1,m,Tue Jun 23 2026 09:07:38 GMT-0400 (Eastern Daylight Time),194398.70000004768,kiwi,1000,I,m,m,None,481,282.0,199.0,103,2,2007.1000000238419,192391.60000002384,9068,gold,NF,C,190334,190334,188610,189617,188610,190617,190134,190134,190617,3
4,test,1,con,1,m,Tue Jun 23 2026 09:07:38 GMT-0400 (Eastern Daylight Time),196315.39999997616,iron,1000,I,m,m,None,368,169.0,199.0,107,2,1906.8999999761581,194408.5,9068,iron,NF,C,192351,192351,190627,191634,190627,192533,192151,192151,192533,4
5,test,1,con,1,m,Tue Jun 23 2026 09:07:38 GMT-0400 (Eastern Daylight Time),198065.29999995232,gold,800,I,m,m,None,413,213.0,200.0,97,2,1740.3999999761581,196324.89999997616,9068,gold,NF,C,194067,194067,192543,193351,192544,194283,193867,193867,194283,5
6,test,1,inc,1,m,Tue Jun 23 2026 09:07:38 GMT-0400 (Eastern Daylight Time),200215.39999997616,plum,1100,I,m,m,None,507,307.0,200.0,128,2,2141.100000023842,198074.29999995232,9068,lead,NF,C,196117,196117,194292,195401,194293,196433,195917,195917,196433,6
7,test,1,con,1,z,Tue Jun 23 2026 09:07:38 GMT-0400 (Eastern Daylight Time),202031.79999995232,plum,900,I,z,z,None,381,181.0,200.0,58,2,1803.8999999761581,200227.89999997616,9068,plum,NF,C,198067,198067,196446,197350,196446,198250,197867,197867,198250,7
8,test,1,inc,1,m,Tue Jun 23 2026 09:07:38 GMT-0400 (Eastern Daylight Time),203998.60000002384,kiwi,1000,I,m,m,None,416,217.0,199.0,119,2,1955.3000000715256,202043.29999995232,9068,zinc,NF,C,199984,199984,198261,199267,198262,200217,199784,199784,200217,8
9,test,1,con,1,z,Tue Jun 23 2026 09:07:38 GMT-0400 (Eastern Daylight Time),205998.79999995232,plum,800,I,z,z,None,664,465.0,199.0,57,2,1988.0999999046326,204010.70000004768,9068,plum,NF,C,201751,201751,200229,201034,200229,202217,201551,201551,202217,9
10,test,1,inc,1,m,Tue Jun 23 2026 09:07:38 GMT-0400 (Eastern Daylight Time),208115.20000004768,plum,1100,I,m,m,None,476,277.0,199.0,120,2,2105.100000023842,206010.10000002384,9068,zinc,NF,C,204051,204051,202228,203334,202229,204333,203851,203851,204333,10
11,test,1,con,1,m,Tue Jun 23 2026 09:07:38 GMT-0400 (Eastern Daylight Time),210148.70000004768,gold,900,I,m,m,None,593,393.0,200.0,98,2,2021.7000000476837,208127.0,9068,gold,NF,C,205967,205967,204345,205251,204345,206367,205767,205767,206367,11
12,test,1,con,1,m,Tue Jun 23 2026 09:07:38 GMT-0400 (Eastern Daylight Time),212315.39999997616,zinc,900,I,m,m,None,718,519.0,199.0,114,2,2154.899999976158,210160.5,9068,zinc,NF,C,208001,208001,206379,207284,206379,208534,207801,207801,208533,12
13,test,1,inc,1,z,Tue Jun 23 2026 09:07:38 GMT-0400 (Eastern Daylight Time),214265.39999997616,zinc,1000,I,z,z,None,405,205.0,200.0,63,2,1939.8999999761581,212325.5,9068,plum,NF,C,210267,210267,208544,209551,208544,210484,210067,210067,210483,13
14,test,1,inc,1,z,Tue Jun 23 2026 09:07:38 GMT-0400 (Eastern Daylight Time),216498.70000004768,lead,1100,I,z,z,None,595,395.0,200.0,48,2,2223.4000000953674,214275.29999995232,9068,pear,NF,C,212317,212317,210493,211600,210494,212717,212117,212117,212717,14
15,test,1,inc,1,z,Tue Jun 23 2026 09:07:38 GMT-0400 (Eastern Daylight Time),218498.60000002384,copper,900,I,z,z,None,560,361.0,199.0,6,2,1990.1000000238419,216508.5,9068,banana,NF,C,214351,214351,212727,213634,212727,214717,214151,214151,214717,15
16,test,1,inc,1,z,Tue Jun 23 2026 09:07:38 GMT-0400 (Eastern Daylight Time),220332.0,bronze,800,I,z,z,None,484,285.0,199.0,5,2,1823.0,218509.0,9068,banana,NF,C,216251,216251,214727,215534,214727,216550,216050,216051,216550,16
17,test,1,con,1,m,Tue Jun 23 2026 09:07:38 GMT-0400 (Eastern Daylight Time),222165.39999997616,cobalt,900,I,m,m,None,391,192.0,199.0,90,2,1821.2999999523163,220344.10000002384,9068,cobalt,NF,C,218184,218184,216562,217467,216563,218383,217984,217984,218383,17
18,test,1,inc,1,m,Tue Jun 23 2026 09:07:38 GMT-0400 (Eastern Daylight Time),224165.39999997616,pear,900,I,m,m,None,559,359.0,200.0,110,2,1988.1000000238419,222177.29999995232,9068,iron,NF,C,220017,220017,218395,219301,218396,220384,219817,219817,220383,18
19,test,1,con,1,m,Tue Jun 23 2026 09:07:38 GMT-0400 (Eastern Daylight Time),226048.39999997616,copper,900,I,m,m,None,447,247.0,200.0,74,2,1871.2999999523163,224177.10000002384,9068,copper,NF,C,222017,222017,220395,221300,220395,222267,221817,221817,222266,19
20,test,1,con,1,m,Tue Jun 23 2026 09:07:38 GMT-0400 (Eastern Daylight Time),227898.79999995232,silver,900,I,m,m,None,403,203.0,200.0,82,2,1840.2999999523163,226058.5,9068,silver,NF,C,223900,223901,222277,223184,222277,224117,223700,223700,224117,20
20,test,1,con,0,z,Tue Jun 23 2026 09:07:38 GMT-0400 (Eastern Daylight Time),229682.0,raisin,800,I,m,m,None,444,245.0,199.0,25,2,1770.2999999523163,227911.70000004768,9068,raisin,NF,C,225651,225651,224130,224934,224130,225900,225451,225451,225900,21
21,test,1,inc,1,m,Tue Jun 23 2026 09:07:38 GMT-0400 (Eastern Daylight Time),231948.70000004768,orange,1000,I,m,m,None,717,518.0,199.0,87,2,2255.5,229693.20000004768,9068,silver,NF,C,227634,227634,225911,226917,225912,228167,227434,227434,228167,22
22,test,1,inc,1,z,Tue Jun 23 2026 09:07:38 GMT-0400 (Eastern Daylight Time),234048.5,silver,1000,I,z,z,None,562,363.0,199.0,31,2,2090.2999999523163,231958.20000004768,9068,raisin,NF,C,229901,229901,228176,229184,228177,230267,229701,229701,230267,23
23,test,1,inc,1,z,Tue Jun 23 2026 09:07:38 GMT-0400 (Eastern Daylight Time),235999.0,iron,900,I,z,z,None,515,316.0,199.0,38,2,1941.3999999761581,234057.60000002384,9068,lime,NF,C,231901,231901,230276,231184,230276,232217,231701,231701,232217,24
24,test,1,con,1,z,Tue Jun 23 2026 09:07:38 GMT-0400 (Eastern Daylight Time),237848.70000004768,banana,900,I,z,z,None,404,205.0,199.0,2,2,1838.5,236010.20000004768,9068,banana,NF,C,233851,233851,232228,233134,232229,234067,233651,233651,234067,25
25,test,1,con,1,z,Tue Jun 23 2026 09:07:38 GMT-0400 (Eastern Daylight Time),240031.79999995232,lime,1100,I,z,z,None,546,347.0,199.0,36,2,2174.5,237857.29999995232,9068,lime,NF,C,235901,235901,234075,235184,234076,236250,235701,235701,236250,26
26,test,1,inc,1,z,Tue Jun 23 2026 09:07:38 GMT-0400 (Eastern Daylight Time),242148.39999997616,silver,1000,I,z,z,None,574,375.0,199.0,7,2,2107.2999999523163,240041.10000002384,9068,banana,NF,C,237984,237984,236259,237268,236259,238366,237784,237784,238366,27
27,test,1,inc,1,m,Tue Jun 23 2026 09:07:38 GMT-0400 (Eastern Daylight Time),244215.5,cherry,900,I,m,m,None,623,423.0,200.0,70,2,2059.899999976158,242155.60000002384,9068,bronze,NF,C,240001,240001,238374,239283,238374,240434,239800,239800,240433,28
28,test,1,con,1,m,Tue Jun 23 2026 09:07:38 GMT-0400 (Eastern Daylight Time),246248.70000004768,silver,1000,I,m,m,None,489,289.0,200.0,83,2,2023.5,244225.20000004768,9068,silver,NF,C,242167,242167,240443,241450,240444,242467,241967,241967,242467,29
29,test,1,con,1,z,Tue Jun 23 2026 09:07:38 GMT-0400 (Eastern Daylight Time),248198.70000004768,kiwi,800,I,z,z,None,606,407.0,199.0,49,2,1938.9000000953674,246259.79999995232,9068,kiwi,NF,C,244001,244001,242478,243284,242478,244417,243801,243801,244417,30
30,test,1,con,1,z,Tue Jun 23 2026 09:07:38 GMT-0400 (Eastern Daylight Time),250332.0,raisin,1100,I,z,z,None,485,285.0,200.0,28,2,2122.100000023842,248209.89999997616,9068,raisin,NF,C,246251,246251,244428,245534,244428,246550,246050,246050,246550,31
31,test,1,con,1,z,Tue Jun 23 2026 09:07:38 GMT-0400 (Eastern Daylight Time),252381.39999997616,pear,1100,I,z,z,None,398,199.0,199.0,44,2,2040.1999999284744,250341.20000004768,9068,pear,NF,C,248384,248384,246559,247667,246560,248600,248184,248184,248599,32
32,test,1,con,1,m,Tue Jun 23 2026 09:07:38 GMT-0400 (Eastern Daylight Time),254115.39999997616,copper,800,I,m,m,None,393,194.0,199.0,73,2,1727.7999999523163,252387.60000002384,9068,copper,NF,C,250134,250134,248606,249417,248606,250333,249934,249934,250333,33
33,test,1,inc,1,m,Tue Jun 23 2026 09:07:38 GMT-0400 (Eastern Daylight Time),256048.39999997616,banana,800,I,m,m,None,597,397.0,200.0,77,2,1922.5,254125.89999997616,9068,copper,NF,C,251867,251867,250344,251150,250344,252266,251667,251667,252266,34
34,test,1,inc,1,m,Tue Jun 23 2026 09:07:38 GMT-0400 (Eastern Daylight Time),257965.29999995232,lime,800,I,m,m,None,566,367.0,199.0,101,2,1908.0,256057.29999995232,9068,gold,NF,C,253801,253801,252275,253084,252276,254183,253601,253601,254183,35
35,test,1,con,1,z,Tue Jun 23 2026 09:07:38 GMT-0400 (Eastern Daylight Time),259732.10000002384,orange,800,I,z,z,None,426,226.0,200.0,17,2,1756.0,257976.10000002384,9068,orange,NF,C,255717,255718,254194,255001,254195,255950,255517,255517,255950,36
36,test,1,inc,1,z,Tue Jun 23 2026 09:07:38 GMT-0400 (Eastern Daylight Time),261698.70000004768,gold,800,I,z,z,None,627,428.0,199.0,37,2,1957.4000000953674,259741.29999995232,9068,lime,NF,C,257484,257484,255959,256767,255960,257917,257284,257284,257917,37
37,test,1,con,1,m,Tue Jun 23 2026 09:07:38 GMT-0400 (Eastern Daylight Time),263465.5,lead,800,I,m,m,None,421,221.0,200.0,121,2,1756.0,261709.5,9068,lead,NF,C,259451,259451,257928,258734,257928,259684,259250,259250,259683,38
38,test,1,inc,1,z,Tue Jun 23 2026 09:07:38 GMT-0400 (Eastern Daylight Time),265732.0,lead,1100,I,z,z,None,627,427.0,200.0,40,2,2255.5,263476.5,9068,lime,NF,C,261517,261517,259695,260800,259695,261950,261317,261317,261950,39
39,test,1,con,1,z,Tue Jun 23 2026 09:07:38 GMT-0400 (Eastern Daylight Time),267815.2999999523,cherry,1100,I,z,z,None,439,240.0,199.0,12,2,2074.0999999046326,265741.2000000477,9068,cherry,NF,C,263784,263784,261959,263067,261960,264034,263584,263584,264033,40
40,test,1,inc,1,m,Tue Jun 23 2026 09:07:38 GMT-0400 (Eastern Daylight Time),269732.0,cherry,900,I,m,m,None,477,277.0,200.0,78,2,1906.8999999761581,267825.10000002384,9068,copper,NF,C,265667,265667,264043,264950,264043,265950,265467,265467,265950,41
41,test,1,con,1,m,Tue Jun 23 2026 09:07:38 GMT-0400 (Eastern Daylight Time),271932.0,cobalt,1100,I,m,m,None,551,352.0,199.0,92,2,2190.2000000476837,269741.7999999523,9068,cobalt,NF,C,267784,267784,265960,267067,265960,268150,267584,267584,268150,42
42,test,1,inc,1,m,Tue Jun 23 2026 09:07:38 GMT-0400 (Eastern Daylight Time),274082.0,kiwi,1000,I,m,m,None,611,412.0,199.0,111,2,2138.600000023842,271943.39999997616,9068,iron,NF,C,269884,269884,268161,269167,268162,270300,269684,269684,270300,43
43,test,1,inc,1,z,Tue Jun 23 2026 09:07:38 GMT-0400 (Eastern Daylight Time),276015.2000000477,iron,900,I,z,z,None,497,298.0,199.0,54,2,1918.8000000715256,274096.39999997616,9068,kiwi,NF,C,271934,271934,270314,271217,270315,272233,271734,271734,272233,44
44,test,1,con,1,z,Tue Jun 23 2026 09:07:38 GMT-0400 (Eastern Daylight Time),277982.39999997616,banana,1000,I,z,z,None,433,233.0,200.0,3,2,1958.6000000238419,276023.7999999523,9068,banana,NF,C,273967,273967,272242,273251,272242,274201,273767,273767,274200,45
45,test,1,con,1,z,Tue Jun 23 2026 09:07:38 GMT-0400 (Eastern Daylight Time),279715.5,lime,800,I,z,z,None,393,194.0,199.0,33,2,1722.3999999761581,277993.10000002384,9068,lime,NF,C,275734,275734,274211,275017,274212,275934,275534,275534,275933,46
46,test,1,inc,1,z,Tue Jun 23 2026 09:07:38 GMT-0400 (Eastern Daylight Time),281898.7000000477,cobalt,1100,I,z,z,None,537,337.0,200.0,32,2,2171.5,279727.2000000477,9068,raisin,NF,C,277767,277767,275945,277051,275946,278117,277567,277567,278117,47
47,test,1,inc,1,z,Tue Jun 23 2026 09:07:38 GMT-0400 (Eastern Daylight Time),284048.10000002384,cobalt,1100,I,z,z,None,512,313.0,199.0,24,2,2138.600000023842,281909.5,9068,orange,NF,C,279950,279950,278128,279234,278128,280266,279750,279750,280266,48
48,test,1,inc,1,m,Tue Jun 23 2026 09:07:38 GMT-0400 (Eastern Daylight Time),285832.0,lime,800,I,m,m,None,438,239.0,199.0,109,2,1778.1000000238419,284053.89999997616,9068,iron,NF,C,281801,281801,280272,281084,280272,282050,281600,281601,282050,49
49,test,1,con,1,m,Tue Jun 23 2026 09:07:38 GMT-0400 (Eastern Daylight Time),288031.7999999523,bronze,1100,I,m,m,None,563,364.0,199.0,68,2,2185.5999999046326,285846.2000000477,9068,bronze,NF,C,283884,283884,282064,283167,282065,284250,283684,283684,284250,50
50,test,1,con,1,m,Tue Jun 23 2026 09:07:38 GMT-0400 (Eastern Daylight Time),290215.2999999523,gold,1000,I,m,m,None,639,440.0,199.0,99,2,2174.1999999284744,288041.10000002384,9068,gold,NF,C,285984,285984,284259,285267,284259,286433,285784,285784,286433,51
51,test,1,inc,1,m,Tue Jun 23 2026 09:07:38 GMT-0400 (Eastern Daylight Time),292148.7000000477,lime,800,I,m,m,None,593,393.0,200.0,117,2,1924.6000000238419,290224.10000002384,9068,zinc,NF,C,287967,287967,286442,287251,286442,288367,287767,287767,288367,52
52,test,1,inc,1,m,Tue Jun 23 2026 09:07:38 GMT-0400 (Eastern Daylight Time),294348.60000002384,raisin,1100,I,m,m,None,550,351.0,199.0,72,2,2189.100000023842,292159.5,9068,bronze,NF,C,290201,290201,288378,289484,288378,290567,290001,290001,290567,53
53,test,1,con,1,z,Tue Jun 23 2026 09:07:38 GMT-0400 (Eastern Daylight Time),296481.89999997616,kiwi,900,I,z,z,None,694,495.0,199.0,50,2,2123.899999976158,294358.0,9068,kiwi,NF,C,292201,292201,290576,291484,290576,292700,292001,292001,292700,54
54,test,1,con,1,z,Tue Jun 23 2026 09:07:38 GMT-0400 (Eastern Daylight Time),298431.7999999523,cherry,1000,I,z,z,None,413,214.0,199.0,11,2,1940.0,296491.7999999523,9068,cherry,NF,C,294434,294434,292710,293717,292710,294650,294234,294234,294650,55
55,test,1,inc,1,m,Tue Jun 23 2026 09:07:38 GMT-0400 (Eastern Daylight Time),300198.60000002384,banana,800,I,m,m,None,423,224.0,199.0,85,2,1755.6000000238419,298443.0,9068,silver,NF,C,296184,296184,294661,295467,294661,296417,295984,295984,296417,56
56,test,1,con,1,m,Tue Jun 23 2026 09:07:38 GMT-0400 (Eastern Daylight Time),302514.89999997616,lead,1100,I,m,m,None,676,477.0,199.0,124,2,2305.600000023842,300209.2999999523,9068,lead,NF,C,298251,298251,296427,297534,296428,298733,298051,298051,298733,57
57,test,1,con,1,z,Tue Jun 23 2026 09:07:38 GMT-0400 (Eastern Daylight Time),304365.39999997616,lime,900,I,z,z,None,401,201.0,200.0,34,2,1843.5,302521.89999997616,9068,lime,NF,C,300367,300367,298740,299651,298740,300583,300167,300167,300583,58
58,test,1,inc,1,z,Tue Jun 23 2026 09:07:38 GMT-0400 (Eastern Daylight Time),306498.7000000477,zinc,1000,I,z,z,None,595,395.0,200.0,47,2,2124.600000023842,304374.10000002384,9068,pear,NF,C,302317,302317,300592,301600,300592,302717,302117,302117,302717,59
59,test,1,inc,1,z,Tue Jun 23 2026 09:07:38 GMT-0400 (Eastern Daylight Time),308548.7999999523,copper,900,I,z,z,None,608,409.0,199.0,14,2,2038.3999999761581,306510.39999997616,9068,cherry,NF,C,304351,304351,302728,303634,302729,304767,304151,304151,304767,60
60,test,1,con,1,m,Tue Jun 23 2026 09:07:38 GMT-0400 (Eastern Daylight Time),310448.5,zinc,800,I,m,m,None,562,363.0,199.0,113,2,1887.8999999761581,308560.60000002384,9068,zinc,NF,C,306301,306301,304779,305584,304779,306667,306100,306101,306666,61
61,test,1,inc,1,z,Tue Jun 23 2026 09:07:38 GMT-0400 (Eastern Daylight Time),312532.10000002384,copper,900,I,z,z,None,642,443.0,199.0,22,2,2072.399999976158,310459.7000000477,9068,orange,NF,C,308300,308301,306678,307584,306678,308750,308101,308101,308750,62
62,test,1,inc,1,z,Tue Jun 23 2026 09:07:38 GMT-0400 (Eastern Daylight Time),314682.10000002384,silver,1000,I,z,z,None,603,404.0,199.0,15,2,2138.7000000476837,312543.39999997616,9068,cherry,NF,C,310484,310484,308761,309767,308762,310900,310284,310284,310900,63
63,test,1,inc,1,m,Tue Jun 23 2026 09:07:38 GMT-0400 (Eastern Daylight Time),316548.5,pear,900,I,m,m,None,425,226.0,199.0,102,2,1855.3999999761581,314693.10000002384,9068,gold,NF,C,312534,312534,310911,311817,310911,312767,312334,312334,312766,64
64,test,1,con,1,m,Tue Jun 23 2026 09:07:38 GMT-0400 (Eastern Daylight Time),318365.39999997616,iron,800,I,m,m,None,466,267.0,199.0,105,2,1810.0,316555.39999997616,9068,iron,NF,C,314301,314301,312773,313584,312774,314584,314101,314101,314583,65
65,test,1,con,1,m,Tue Jun 23 2026 09:07:38 GMT-0400 (Eastern Daylight Time),320198.7000000477,iron,900,I,m,m,None,391,191.0,200.0,106,2,1823.1000000238419,318375.60000002384,9068,iron,NF,C,316217,316217,314594,315501,314594,316417,316017,316017,316417,66
66,test,1,inc,1,m,Tue Jun 23 2026 09:07:38 GMT-0400 (Eastern Daylight Time),322132.10000002384,pear,900,I,m,m,None,492,293.0,199.0,126,2,1922.0,320210.10000002384,9068,lead,NF,C,318051,318051,316428,317334,316429,318350,317851,317851,318350,67
67,test,1,inc,1,m,Tue Jun 23 2026 09:07:38 GMT-0400 (Eastern Daylight Time),324282.10000002384,plum,1100,I,m,m,None,503,304.0,199.0,112,2,2140.5,322141.60000002384,9068,iron,NF,C,320184,320184,318360,319467,318360,320500,319984,319984,320500,68
68,test,1,con,1,m,Tue Jun 23 2026 09:07:38 GMT-0400 (Eastern Daylight Time),326765.39999997616,gold,1100,I,m,m,None,833,634.0,199.0,100,2,2472.100000023842,324293.2999999523,9068,gold,NF,C,322334,322334,320511,321617,320512,322984,322134,322134,322983,69
69,test,1,inc,1,m,Tue Jun 23 2026 09:07:38 GMT-0400 (Eastern Daylight Time),328915.5,kiwi,1000,I,m,m,None,593,394.0,199.0,127,2,2133.100000023842,326782.39999997616,9068,lead,NF,C,324734,324734,323000,324017,323001,325134,324534,324534,325133,70
70,test,1,con,1,m,Tue Jun 23 2026 09:07:38 GMT-0400 (Eastern Daylight Time),331165.39999997616,zinc,1100,I,m,m,None,601,401.0,200.0,116,2,2238.7999999523163,328926.60000002384,9068,zinc,NF,C,326967,326967,325145,326250,325145,327383,326767,326767,327383,71
71,test,1,con,1,z,Tue Jun 23 2026 09:07:38 GMT-0400 (Eastern Daylight Time),333198.7999999523,raisin,1000,I,z,z,None,483,283.0,200.0,27,2,2022.5,331176.2999999523,9068,raisin,NF,C,329117,329117,327394,328401,327395,329417,328917,328917,329417,72
72,test,1,con,1,m,Tue Jun 23 2026 09:07:38 GMT-0400 (Eastern Daylight Time),334982.10000002384,bronze,800,I,m,m,None,440,241.0,199.0,65,2,1771.8999999761581,333210.2000000477,9068,bronze,NF,C,330951,330951,329428,330234,329429,331200,330751,330751,331200,73
73,test,1,inc,1,z,Tue Jun 23 2026 09:07:38 GMT-0400 (Eastern Daylight Time),336915.39999997616,gold,800,I,z,z,None,593,394.0,199.0,45,2,1923.0,334992.39999997616,9068,pear,NF,C,332734,332734,331210,332017,331211,333133,332534,332534,333133,74
74,test,1,con,1,z,Tue Jun 23 2026 09:07:38 GMT-0400 (Eastern Daylight Time),338948.7000000477,banana,1100,I,z,z,None,393,193.0,200.0,4,2,2024.1000000238419,336924.60000002384,9068,banana,NF,C,334967,334967,333143,334250,333143,335167,334767,334767,335167,75
75,test,1,con,1,z,Tue Jun 23 2026 09:07:38 GMT-0400 (Eastern Daylight Time),340798.7999999523,raisin,900,I,z,z,None,414,215.0,199.0,26,2,1841.0,338957.7999999523,9068,raisin,NF,C,336800,336801,335176,336084,335176,337017,336601,336601,337017,76
76,test,1,con,1,z,Tue Jun 23 2026 09:07:38 GMT-0400 (Eastern Daylight Time),342615.2999999523,banana,800,I,z,z,None,472,273.0,199.0,1,2,1808.5,340806.7999999523,9068,banana,NF,C,338551,338551,337025,337834,337025,338833,338351,338351,338833,77
77,test,1,inc,1,m,Tue Jun 23 2026 09:07:38 GMT-0400 (Eastern Daylight Time),344398.7999999523,lime,800,I,m,m,None,449,249.0,200.0,125,2,1772.3999999761581,342626.39999997616,9068,lead,NF,C,340367,340367,338844,339650,338845,340617,340167,340167,340617,78
78,test,1,inc,1,z,Tue Jun 23 2026 09:07:38 GMT-0400 (Eastern Daylight Time),346248.7000000477,gold,800,I,z,z,None,504,305.0,199.0,61,2,1842.0,344406.7000000477,9068,plum,NF,C,342151,342151,340625,341434,340625,342467,341951,341951,342467,79
79,test,1,inc,1,m,Tue Jun 23 2026 09:07:38 GMT-0400 (Eastern Daylight Time),348431.7999999523,raisin,1100,I,m,m,None,546,347.0,199.0,96,2,2171.5999999046326,346260.2000000477,9068,cobalt,NF,C,344301,344301,342478,343584,342479,344650,344101,344101,344650,80
80,test,1,con,1,z,Tue Jun 23 2026 09:07:38 GMT-0400 (Eastern Daylight Time),350515.39999997616,plum,1100,I,z,z,None,443,244.0,199.0,60,2,2072.6999999284744,348442.7000000477,9068,plum,NF,C,346484,346484,344661,345767,344661,346734,346284,346284,346733,81
81,test,1,con,1,m,Tue Jun 23 2026 09:07:38 GMT-0400 (Eastern Daylight Time),352348.7000000477,bronze,900,I,m,m,None,385,185.0,200.0,66,2,1821.1000000238419,350527.60000002384,9068,bronze,NF,C,348367,348367,346746,347650,346746,348567,348167,348167,348567,82
82,test,1,con,1,z,Tue Jun 23 2026 09:07:38 GMT-0400 (Eastern Daylight Time),354565.5,orange,1000,I,z,z,None,674,475.0,199.0,19,2,2208.0,352357.5,9068,orange,NF,C,350301,350301,348576,349584,348576,350784,350100,350101,350783,83
83,test,1,inc,1,m,Tue Jun 23 2026 09:07:38 GMT-0400 (Eastern Daylight Time),356732.10000002384,raisin,1100,I,m,m,None,519,319.0,200.0,88,2,2155.899999976158,354576.2000000477,9068,silver,NF,C,352617,352617,350794,351900,350795,352950,352417,352417,352950,84
84,test,1,con,1,m,Tue Jun 23 2026 09:07:38 GMT-0400 (Eastern Daylight Time),358698.7000000477,bronze,1000,I,m,m,None,419,220.0,199.0,67,2,1957.2000000476837,356741.5,9068,bronze,NF,C,354684,354684,352960,353967,352960,354917,354484,354484,354917,85
85,test,1,con,1,z,Tue Jun 23 2026 09:07:38 GMT-0400 (Eastern Daylight Time),360532.0,pear,900,I,z,z,None,392,193.0,199.0,42,2,1822.7999999523163,358709.2000000477,9068,pear,NF,C,356551,356551,354927,355833,354927,356750,356351,356351,356750,86
86,test,1,inc,1,m,Tue Jun 23 2026 09:07:38 GMT-0400 (Eastern Daylight Time),362515.5,orange,1000,I,m,m,None,443,244.0,199.0,95,2,1973.2000000476837,360542.2999999523,9068,cobalt,NF,C,358484,358484,356760,357767,356761,358734,358284,358284,358734,87
87,test,1,inc,1,z,Tue Jun 23 2026 09:07:38 GMT-0400 (Eastern Daylight Time),364532.0,iron,900,I,z,z,None,577,377.0,200.0,46,2,2008.0,362524.0,9068,pear,NF,C,360367,360367,358742,359651,358742,360750,360167,360167,360750,88
88,test,1,inc,1,z,Tue Jun 23 2026 09:07:38 GMT-0400 (Eastern Daylight Time),366665.39999997616,zinc,1000,I,z,z,None,587,388.0,199.0,55,2,2124.0,364541.39999997616,9068,kiwi,NF,C,362484,362484,360759,361767,360760,362884,362284,362284,362883,89
89,test,1,con,1,m,Tue Jun 23 2026 09:07:38 GMT-0400 (Eastern Daylight Time),368798.89999997616,lead,1000,I,m,m,None,600,400.0,200.0,123,2,2122.399999976158,366676.5,9068,lead,NF,C,364617,364617,362895,363901,362895,365017,364417,364417,365017,90
90,test,1,inc,1,z,Tue Jun 23 2026 09:07:38 GMT-0400 (Eastern Daylight Time),370665.2999999523,bronze,800,I,z,z,None,520,321.0,199.0,13,2,1855.0999999046326,368810.2000000477,9068,cherry,NF,C,366551,366551,365028,365834,365029,366883,366350,366351,366883,91
91,test,1,inc,1,m,Tue Jun 23 2026 09:07:38 GMT-0400 (Eastern Daylight Time),372498.7000000477,banana,800,I,m,m,None,495,295.0,200.0,69,2,1823.9000000953674,370674.7999999523,9068,bronze,NF,C,368417,368417,366893,367700,366893,368717,368217,368217,368717,92
92,test,1,inc,1,z,Tue Jun 23 2026 09:07:38 GMT-0400 (Eastern Daylight Time),374365.2999999523,bronze,800,I,z,z,None,516,317.0,199.0,21,2,1855.0999999046326,372510.2000000477,9068,orange,NF,C,370251,370251,368728,369534,368728,370583,370051,370051,370583,93
93,test,1,con,1,m,Tue Jun 23 2026 09:07:38 GMT-0400 (Eastern Daylight Time),376615.5,iron,1100,I,m,m,None,607,407.0,200.0,108,2,2241.399999976158,374374.10000002384,9068,iron,NF,C,372417,372417,370592,371701,370593,372834,372217,372217,372833,94
94,test,1,con,1,z,Tue Jun 23 2026 09:07:38 GMT-0400 (Eastern Daylight Time),378615.39999997616,kiwi,1100,I,z,z,None,357,157.0,200.0,52,2,1989.0,376626.39999997616,9068,kiwi,NF,C,374667,374667,372844,373951,372845,374834,374467,374467,374833,95
95,test,1,con,1,m,Tue Jun 23 2026 09:07:38 GMT-0400 (Eastern Daylight Time),380682.10000002384,copper,1000,I,m,m,None,520,320.0,200.0,75,2,2057.5,378624.60000002384,9068,copper,NF,C,376568,376568,374843,375850,374843,376900,376367,376367,376900,96
96,test,1,con,1,m,Tue Jun 23 2026 09:07:38 GMT-0400 (Eastern Daylight Time),382632.10000002384,cobalt,1000,I,m,m,None,405,206.0,199.0,91,2,1938.3000000715256,380693.7999999523,9068,cobalt,NF,C,378634,378634,376912,377917,376912,378850,378434,378434,378850,97
97,test,1,inc,1,m,Tue Jun 23 2026 09:07:38 GMT-0400 (Eastern Daylight Time),384565.39999997616,pear,900,I,m,m,None,491,292.0,199.0,118,2,1924.2999999523163,382641.10000002384,9068,zinc,NF,C,380484,380484,378859,379767,378859,380783,380284,380284,380783,98
98,test,1,inc,1,z,Tue Jun 23 2026 09:07:38 GMT-0400 (Eastern Daylight Time),386615.39999997616,lead,1100,I,z,z,None,406,206.0,200.0,64,2,2038.5,384576.89999997616,9068,plum,NF,C,382618,382618,380795,381901,380795,382834,382417,382417,382833,99
99,test,1,con,1,m,Tue Jun 23 2026 09:07:38 GMT-0400 (Eastern Daylight Time),388682.10000002384,zinc,1000,I,m,m,None,521,321.0,200.0,115,2,2057.899999976158,386624.2000000477,9068,zinc,NF,C,384567,384567,382842,383851,382843,384900,384367,384367,384900,100
100,test,1,inc,1,z,Tue Jun 23 2026 09:07:38 GMT-0400 (Eastern Daylight Time),390848.39999997616,cobalt,1100,I,z,z,None,530,331.0,199.0,8,2,2157.1999999284744,388691.2000000477,9068,banana,NF,C,386734,386734,384909,386017,384910,387067,386534,386534,387066,101
101,test,1,inc,1,z,Tue Jun 23 2026 09:07:38 GMT-0400 (Eastern Daylight Time),392932.0,copper,900,I,z,z,None,642,443.0,199.0,30,2,2072.600000023842,390859.39999997616,9068,raisin,NF,C,388701,388701,387077,387984,387078,389150,388501,388501,389150,102
102,test,1,inc,1,z,Tue Jun 23 2026 09:07:38 GMT-0400 (Eastern Daylight Time),395182.10000002384,cobalt,1100,I,z,z,None,600,401.0,199.0,16,2,2240.899999976158,392941.2000000477,9068,cherry,NF,C,390983,390983,389159,390267,389160,391400,390784,390784,391400,103
103,test,1,inc,1,m,Tue Jun 23 2026 09:07:38 GMT-0400 (Eastern Daylight Time),397265.2999999523,orange,1000,I,m,m,None,545,346.0,199.0,71,2,2072.5999999046326,395192.7000000477,9068,bronze,NF,C,393134,393134,391411,392417,391411,393483,392934,392934,393483,104
104,test,1,inc,1,z,Tue Jun 23 2026 09:07:38 GMT-0400 (Eastern Daylight Time),399182.0,gold,800,I,z,z,None,549,350.0,199.0,53,2,1900.7000000476837,397281.2999999523,9068,kiwi,NF,C,395034,395034,393499,394317,393500,395400,394834,394834,395400,105
105,test,1,con,1,z,Tue Jun 23 2026 09:07:38 GMT-0400 (Eastern Daylight Time),401448.7999999523,orange,1100,I,z,z,None,621,422.0,199.0,20,2,2255.5999999046326,399193.2000000477,9068,orange,NF,C,397234,397234,395411,396517,395412,397667,397034,397034,397667,106
106,test,1,con,1,z,Tue Jun 23 2026 09:07:38 GMT-0400 (Eastern Daylight Time),403248.5,pear,800,I,z,z,None,462,263.0,199.0,41,2,1789.2999999523163,401459.2000000477,9068,pear,NF,C,399201,399201,397677,398484,397678,399467,399001,399001,399467,107
107,test,1,con,1,m,Tue Jun 23 2026 09:07:38 GMT-0400 (Eastern Daylight Time),405065.39999997616,lead,900,I,m,m,None,370,171.0,199.0,122,2,1807.7999999523163,403257.60000002384,9068,lead,NF,C,401101,401101,399476,400384,399476,401284,400900,400901,401283,108
108,test,1,inc,1,z,Tue Jun 23 2026 09:07:38 GMT-0400 (Eastern Daylight Time),406948.7999999523,iron,900,I,z,z,None,443,243.0,200.0,62,2,1874.2999999523163,405074.5,9068,plum,NF,C,402917,402917,401293,402200,401293,403167,402717,402717,403167,109
109,test,1,con,1,z,Tue Jun 23 2026 09:07:38 GMT-0400 (Eastern Daylight Time),408982.10000002384,cherry,900,I,z,z,None,590,391.0,199.0,10,2,2024.8999999761581,406957.2000000477,9068,cherry,NF,C,404801,404801,403175,404084,403176,405200,404601,404601,405200,110
110,test,1,inc,1,z,Tue Jun 23 2026 09:07:38 GMT-0400 (Eastern Daylight Time),410848.5,bronze,800,I,z,z,None,529,330.0,199.0,29,2,1857.3999999761581,408991.10000002384,9068,raisin,NF,C,406734,406734,405209,406017,405210,407067,406534,406534,407066,111
111,test,1,con,1,z,Tue Jun 23 2026 09:07:38 GMT-0400 (Eastern Daylight Time),412799.2000000477,orange,900,I,z,z,None,515,316.0,199.0,18,2,1941.7000000476837,410857.5,9068,orange,NF,C,408701,408701,407076,407984,407076,409017,408501,408501,409017,112
112,test,1,inc,1,z,Tue Jun 23 2026 09:07:38 GMT-0400 (Eastern Daylight Time),414881.7999999523,silver,1000,I,z,z,None,543,344.0,199.0,23,2,2074.6999999284744,412807.10000002384,9068,orange,NF,C,410750,410751,409025,410034,409025,411100,410551,410551,411100,113
113,test,1,inc,1,z,Tue Jun 23 2026 09:07:38 GMT-0400 (Eastern Daylight Time),417015.39999997616,lead,1100,I,z,z,None,489,290.0,199.0,56,2,2129.0,414886.39999997616,9068,kiwi,NF,C,412934,412934,411104,412217,411105,413234,412734,412734,413233,114
114,test,1,con,1,m,Tue Jun 23 2026 09:07:38 GMT-0400 (Eastern Daylight Time),419182.60000002384,copper,1100,I,m,m,None,533,333.0,200.0,76,2,2156.3000000715256,417026.2999999523,9068,copper,NF,C,415067,415067,413244,414350,413245,415401,414867,414867,415401,115
115,test,1,inc,1,z,Tue Jun 23 2026 09:07:38 GMT-0400 (Eastern Daylight Time),421182.10000002384,zinc,1000,I,z,z,None,449,250.0,199.0,39,2,1989.3000000715256,419192.7999999523,9068,lime,NF,C,417134,417134,415411,416417,415411,417400,416934,416934,417400,116
116,test,1,inc,1,m,Tue Jun 23 2026 09:07:38 GMT-0400 (Eastern Daylight Time),423082.10000002384,banana,800,I,m,m,None,553,354.0,199.0,93,2,1887.8000000715256,421194.2999999523,9068,cobalt,NF,C,418934,418934,417412,418217,417413,419300,418734,418734,419300,117
117,test,1,con,1,m,Tue Jun 23 2026 09:07:38 GMT-0400 (Eastern Daylight Time),425182.2000000477,silver,1100,I,m,m,None,449,250.0,199.0,84,2,2089.0,423093.2000000477,9068,silver,NF,C,421134,421134,419311,420417,419312,421400,420934,420934,421400,118
118,test,1,con,1,z,Tue Jun 23 2026 09:07:38 GMT-0400 (Eastern Daylight Time),426982.0,cherry,800,I,z,z,None,457,258.0,199.0,9,2,1788.2000000476837,425193.7999999523,9068,cherry,NF,C,422934,422934,421412,422217,421412,423200,422734,422734,423200,119
119,test,1,con,1,z,Tue Jun 23 2026 09:07:38 GMT-0400 (Eastern Daylight Time),428915.39999997616,kiwi,1000,I,z,z,None,393,194.0,199.0,51,2,1923.5,426991.89999997616,9068,kiwi,NF,C,424934,424934,423210,424217,423210,425134,424734,424734,425133,120
120,test,1,inc,1,m,Tue Jun 23 2026 09:07:38 GMT-0400 (Eastern Daylight Time),430982.10000002384,cherry,900,I,m,m,None,625,425.0,200.0,86,2,2058.5,428923.60000002384,9068,silver,NF,C,426767,426767,425142,426050,425142,427200,426567,426567,427200,121
121,test,1,inc,1,m,Tue Jun 23 2026 09:07:38 GMT-0400 (Eastern Daylight Time),433131.7999999523,cherry,900,I,m,m,None,701,502.0,199.0,94,2,2138.5999999046326,430993.2000000477,9068,cobalt,NF,C,428834,428834,427211,428117,427212,429350,428634,428634,429350,122
122,test,1,con,1,m,Tue Jun 23 2026 09:07:38 GMT-0400 (Eastern Daylight Time),435048.7000000477,cobalt,800,I,m,m,None,571,372.0,199.0,89,2,1911.4000000953674,433137.2999999523,9068,cobalt,NF,C,430884,430884,429355,430167,429356,431267,430684,430684,431267,123
123,test,1,con,1,m,Tue Jun 23 2026 09:07:38 GMT-0400 (Eastern Daylight Time),437198.7999999523,silver,800,I,m,m,None,814,615.0,199.0,81,2,2141.1999999284744,435057.60000002384,9068,silver,NF,C,432801,432801,431276,432084,431276,433417,432600,432601,433417,124
124,test,1,inc,1,m,Tue Jun 23 2026 09:07:38 GMT-0400 (Eastern Daylight Time),439365.5,raisin,1100,I,m,m,None,524,325.0,199.0,80,2,2158.600000023842,437206.89999997616,9068,copper,NF,C,435251,435251,433425,434534,433425,435584,435050,435051,435583,125
125,test,1,inc,1,m,Tue Jun 23 2026 09:07:38 GMT-0400 (Eastern Daylight Time),441498.7999999523,plum,1100,I,m,m,None,487,287.0,200.0,104,2,2122.399999976158,439376.39999997616,9068,gold,NF,C,437417,437417,435594,436700,435595,437717,437217,437217,437717,126
126,test,1,con,1,z,Tue Jun 23 2026 09:07:38 GMT-0400 (Eastern Daylight Time),443432.10000002384,pear,1000,I,z,z,None,389,189.0,200.0,43,2,1924.3999999761581,441507.7000000477,9068,pear,NF,C,439451,439451,437726,438734,437726,439650,439250,439250,439650,127
127,test,1,con,1,z,Tue Jun 23 2026 09:07:38 GMT-0400 (Eastern Daylight Time),445332.10000002384,plum,1000,I,z,z,None,359,160.0,199.0,59,2,1889.0,443443.10000002384,9068,plum,NF,C,441384,441384,439661,440667,439661,441550,441184,441184,441550,128
