acc_sum,block,block_c,block_cond,con_img,correct,correct_response,datetime,endtime,face,jitter,line,project,response,response_time,row_sel,session_number,start_end,starttime,subject_id,task,task_vers,trial
1,prac,1,A,haborder.png,1,z,Thu Nov 06 2025 09:34:29 GMT-0600 (Central Standard Time),50698.59999999404,CFD-BF-039-039-A.jpg,1200,solid,O,z,1280,6,1,3248.2999999970198,47450.29999999702,7238,ATS,A,1
2,prac,1,A,haborder.png,1,z,Thu Nov 06 2025 09:34:29 GMT-0600 (Central Standard Time),54080.5,CFD-WM-013-015-A.jpg,1900,solid,O,z,698,8,1,6630.20000000298,47450.29999999702,7238,ATS,A,2
3,prac,1,A,haborder.png,1,m,Thu Nov 06 2025 09:34:29 GMT-0600 (Central Standard Time),56880.59999999404,CFD-WM-004-005-HC.jpg,1400,solid,O,m,608,7,1,9430.29999999702,47450.29999999702,7238,ATS,A,3
4,prac,1,A,haborder.png,1,z,Thu Nov 06 2025 09:34:29 GMT-0600 (Central Standard Time),60196.09999999404,CFD-WF-003-014-A.jpg,1600,solid,O,z,922,10,1,12745.79999999702,47450.29999999702,7238,ATS,A,4
5,prac,1,A,haborder.png,1,m,Thu Nov 06 2025 09:34:29 GMT-0600 (Central Standard Time),63711.5,CFD-BM-029-026-HC.jpg,1500,solid,O,m,1227,3,1,16261.20000000298,47450.29999999702,7238,ATS,A,5
6,prac,1,A,haborder.png,1,m,Thu Nov 06 2025 09:34:29 GMT-0600 (Central Standard Time),67111.29999999702,CFD-BF-028-020-HC.jpg,2000,solid,O,m,626,5,1,19661.0,47450.29999999702,7238,ATS,A,6
7,prac,1,A,haborder.png,1,m,Thu Nov 06 2025 09:34:29 GMT-0600 (Central Standard Time),69992.79999999702,CFD-WF-017-016-HC.jpg,1500,solid,O,m,583,11,1,22542.5,47450.29999999702,7238,ATS,A,7
8,prac,1,A,haborder.png,1,m,Thu Nov 06 2025 09:34:29 GMT-0600 (Central Standard Time),73141.09999999404,CFD-BM-017-052-HC.jpg,1700,solid,O,m,654,1,1,25690.79999999702,47450.29999999702,7238,ATS,A,8
9,prac,1,A,haborder.png,1,z,Thu Nov 06 2025 09:34:29 GMT-0600 (Central Standard Time),75506.89999999106,CFD-BF-023-013-A.jpg,1000,solid,O,z,579,4,1,28056.59999999404,47450.29999999702,7238,ATS,A,9
10,prac,1,A,haborder.png,1,m,Thu Nov 06 2025 09:34:29 GMT-0600 (Central Standard Time),78739.19999998808,CFD-WM-006-013-HC.jpg,1700,solid,O,m,737,9,1,31288.89999999106,47450.29999999702,7238,ATS,A,10
11,prac,1,A,haborder.png,1,z,Thu Nov 06 2025 09:34:29 GMT-0600 (Central Standard Time),81172.09999999404,CFD-WF-019-015-A.jpg,1000,solid,O,z,646,12,1,33721.79999999702,47450.29999999702,7238,ATS,A,11
12,prac,1,A,haborder.png,1,z,Thu Nov 06 2025 09:34:29 GMT-0600 (Central Standard Time),84188.29999999702,CFD-BM-005-010-A.jpg,1600,solid,O,z,621,2,1,36738.0,47450.29999999702,7238,ATS,A,12
1,prac,1,B,mfborder.png,1,z,Thu Nov 06 2025 09:34:29 GMT-0600 (Central Standard Time),107964.39999999106,CFD-BF-023-013-A.jpg,1000,dash,O,z,687,4,1,2481.2999999970198,105483.09999999404,7238,ATS,A,1
2,prac,1,B,mfborder.png,1,m,Thu Nov 06 2025 09:34:29 GMT-0600 (Central Standard Time),111246.0,CFD-BM-010-019-A.jpg,1600,dash,O,m,886,2,1,5762.9000000059605,105483.09999999404,7238,ATS,A,2
3,prac,1,B,mfborder.png,1,m,Thu Nov 06 2025 09:34:29 GMT-0600 (Central Standard Time),113946.19999998808,CFD-WM-019-013-A.jpg,1200,dash,O,m,715,6,1,8463.09999999404,105483.09999999404,7238,ATS,A,3
4,prac,1,B,mfborder.png,1,m,Thu Nov 06 2025 09:34:29 GMT-0600 (Central Standard Time),116994.5,CFD-BM-029-026-HC.jpg,1700,dash,O,m,557,1,1,11511.40000000596,105483.09999999404,7238,ATS,A,4
5,prac,1,B,mfborder.png,1,z,Thu Nov 06 2025 09:34:29 GMT-0600 (Central Standard Time),119959.19999998808,CFD-BF-010-005-HC.jpg,1500,dash,O,z,676,3,1,14476.09999999404,105483.09999999404,7238,ATS,A,5
6,prac,1,B,mfborder.png,1,z,Thu Nov 06 2025 09:34:29 GMT-0600 (Central Standard Time),123710.09999999404,CFD-WF-002-008-HC.jpg,1900,dash,O,z,1070,8,1,18227.0,105483.09999999404,7238,ATS,A,6
7,prac,1,B,mfborder.png,1,m,Thu Nov 06 2025 09:34:29 GMT-0600 (Central Standard Time),127091.69999998808,CFD-WM-013-015-A.jpg,1700,dash,O,m,896,9,1,21608.59999999404,105483.09999999404,7238,ATS,A,7
8,prac,1,B,mfborder.png,1,m,Thu Nov 06 2025 09:34:29 GMT-0600 (Central Standard Time),130156.19999998808,CFD-WM-006-013-HC.jpg,1600,dash,O,m,679,10,1,24673.09999999404,105483.09999999404,7238,ATS,A,8
9,prac,1,B,mfborder.png,1,z,Thu Nov 06 2025 09:34:29 GMT-0600 (Central Standard Time),133055.19999998808,CFD-WF-003-014-A.jpg,1500,dash,O,z,601,11,1,27572.09999999404,105483.09999999404,7238,ATS,A,9
10,prac,1,B,mfborder.png,1,z,Thu Nov 06 2025 09:34:29 GMT-0600 (Central Standard Time),136005.29999999702,CFD-BF-028-020-HC.jpg,1400,dash,O,z,753,7,1,30522.20000000298,105483.09999999404,7238,ATS,A,10
11,prac,1,B,mfborder.png,1,z,Thu Nov 06 2025 09:34:29 GMT-0600 (Central Standard Time),138354.69999998808,CFD-WF-017-016-HC.jpg,1000,dash,O,z,564,12,1,32871.59999999404,105483.09999999404,7238,ATS,A,11
12,prac,1,B,mfborder.png,1,m,Thu Nov 06 2025 09:34:29 GMT-0600 (Central Standard Time),141652.5,CFD-BM-005-010-A.jpg,2000,dash,O,m,503,5,1,36169.40000000596,105483.09999999404,7238,ATS,A,12
1,test,1,A,haborder.png,1,m,Thu Nov 06 2025 09:34:29 GMT-0600 (Central Standard Time),156448.59999999404,CFD-BM-029-026-HC.jpg,1500,solid,O,m,1209,3,1,2732.7999999970198,153715.79999999702,7238,ATS,A,1
2,test,1,A,haborder.png,1,m,Thu Nov 06 2025 09:34:29 GMT-0600 (Central Standard Time),158870.39999999106,CFD-WF-017-016-HC.jpg,1500,solid,O,m,894,11,1,5154.5999999940395,153715.79999999702,7238,ATS,A,2
2,test,1,A,haborder.png,0,z,Thu Nov 06 2025 09:34:29 GMT-0600 (Central Standard Time),161080.09999999404,CFD-WF-003-014-A.jpg,1600,solid,O,m,568,10,1,7364.29999999702,153715.79999999702,7238,ATS,A,3
3,test,1,A,haborder.png,1,m,Thu Nov 06 2025 09:34:29 GMT-0600 (Central Standard Time),163380.0,CFD-WM-006-013-HC.jpg,1700,solid,O,m,573,9,1,9664.20000000298,153715.79999999702,7238,ATS,A,4
4,test,1,A,haborder.png,1,z,Thu Nov 06 2025 09:34:29 GMT-0600 (Central Standard Time),165046.39999999106,CFD-BF-023-013-A.jpg,1000,solid,O,z,646,4,1,11330.59999999404,153715.79999999702,7238,ATS,A,5
5,test,1,A,haborder.png,1,z,Thu Nov 06 2025 09:34:29 GMT-0600 (Central Standard Time),166895.19999998808,CFD-BF-039-039-A.jpg,1200,solid,O,z,628,6,1,13179.39999999106,153715.79999999702,7238,ATS,A,6
6,test,1,A,haborder.png,1,m,Thu Nov 06 2025 09:34:29 GMT-0600 (Central Standard Time),168878.09999999404,CFD-WM-004-005-HC.jpg,1400,solid,O,m,562,7,1,15162.29999999702,153715.79999999702,7238,ATS,A,7
7,test,1,A,haborder.png,1,z,Thu Nov 06 2025 09:34:29 GMT-0600 (Central Standard Time),171643.19999998808,CFD-WM-013-015-A.jpg,1900,solid,O,z,830,8,1,17927.39999999106,153715.79999999702,7238,ATS,A,8
8,test,1,A,haborder.png,1,z,Thu Nov 06 2025 09:34:29 GMT-0600 (Central Standard Time),174176.59999999404,CFD-WM-013-015-A.jpg,1900,solid,O,z,602,8,1,20460.79999999702,153715.79999999702,7238,ATS,A,9
9,test,1,A,haborder.png,1,m,Thu Nov 06 2025 09:34:29 GMT-0600 (Central Standard Time),176858.0,CFD-BM-017-052-HC.jpg,1700,solid,O,m,966,1,1,23142.20000000298,153715.79999999702,7238,ATS,A,10
10,test,1,A,haborder.png,1,m,Thu Nov 06 2025 09:34:29 GMT-0600 (Central Standard Time),179208.09999999404,CFD-WM-006-013-HC.jpg,1700,solid,O,m,618,9,1,25492.29999999702,153715.79999999702,7238,ATS,A,11
11,test,1,A,haborder.png,1,m,Thu Nov 06 2025 09:34:29 GMT-0600 (Central Standard Time),181906.39999999106,CFD-BF-028-020-HC.jpg,2000,solid,O,m,674,5,1,28190.59999999404,153715.79999999702,7238,ATS,A,12
11,test,1,A,haborder.png,0,z,Thu Nov 06 2025 09:34:29 GMT-0600 (Central Standard Time),185040.19999998808,CFD-BM-005-010-A.jpg,1600,solid,O,None,1517,2,1,31324.39999999106,153715.79999999702,7238,ATS,A,13
12,test,1,A,haborder.png,1,z,Thu Nov 06 2025 09:34:29 GMT-0600 (Central Standard Time),186805.0,CFD-WF-019-015-A.jpg,1000,solid,O,z,746,12,1,33089.20000000298,153715.79999999702,7238,ATS,A,14
13,test,1,A,haborder.png,1,z,Thu Nov 06 2025 09:34:29 GMT-0600 (Central Standard Time),188705.69999998808,CFD-BF-023-013-A.jpg,1000,solid,O,z,875,4,1,34989.89999999106,153715.79999999702,7238,ATS,A,15
14,test,1,A,haborder.png,1,m,Thu Nov 06 2025 09:34:29 GMT-0600 (Central Standard Time),191437.29999999702,CFD-BM-017-052-HC.jpg,1700,solid,O,m,1012,1,1,37721.5,153715.79999999702,7238,ATS,A,16
15,test,1,A,haborder.png,1,z,Thu Nov 06 2025 09:34:29 GMT-0600 (Central Standard Time),193835.79999999702,CFD-WF-003-014-A.jpg,1600,solid,O,z,773,10,1,40120.0,153715.79999999702,7238,ATS,A,17
16,test,1,A,haborder.png,1,z,Thu Nov 06 2025 09:34:29 GMT-0600 (Central Standard Time),195802.5,CFD-BF-039-039-A.jpg,1200,solid,O,z,749,6,1,42086.70000000298,153715.79999999702,7238,ATS,A,18
17,test,1,A,haborder.png,1,m,Thu Nov 06 2025 09:34:29 GMT-0600 (Central Standard Time),197919.0,CFD-WM-004-005-HC.jpg,1400,solid,O,m,696,7,1,44203.20000000298,153715.79999999702,7238,ATS,A,19
18,test,1,A,haborder.png,1,m,Thu Nov 06 2025 09:34:29 GMT-0600 (Central Standard Time),200638.5,CFD-BF-028-020-HC.jpg,2000,solid,O,m,683,5,1,46922.70000000298,153715.79999999702,7238,ATS,A,20
19,test,1,A,haborder.png,1,m,Thu Nov 06 2025 09:34:29 GMT-0600 (Central Standard Time),203033.69999998808,CFD-BM-029-026-HC.jpg,1500,solid,O,m,865,3,1,49317.89999999106,153715.79999999702,7238,ATS,A,21
20,test,1,A,haborder.png,1,z,Thu Nov 06 2025 09:34:29 GMT-0600 (Central Standard Time),205399.39999999106,CFD-BM-005-010-A.jpg,1600,solid,O,z,735,2,1,51683.59999999404,153715.79999999702,7238,ATS,A,22
21,test,1,A,haborder.png,1,z,Thu Nov 06 2025 09:34:29 GMT-0600 (Central Standard Time),207498.69999998808,CFD-WF-019-015-A.jpg,1000,solid,O,z,1067,12,1,53782.89999999106,153715.79999999702,7238,ATS,A,23
22,test,1,A,haborder.png,1,m,Thu Nov 06 2025 09:34:29 GMT-0600 (Central Standard Time),209698.39999999106,CFD-WF-017-016-HC.jpg,1500,solid,O,m,674,11,1,55982.59999999404,153715.79999999702,7238,ATS,A,24
1,test,1,B,mfborder.png,1,z,Thu Nov 06 2025 09:34:29 GMT-0600 (Central Standard Time),225443.69999998808,CFD-BF-010-005-HC.jpg,1500,dash,O,z,933,3,1,2448.7999999970198,222994.89999999106,7238,ATS,A,1
2,test,1,B,mfborder.png,1,z,Thu Nov 06 2025 09:34:29 GMT-0600 (Central Standard Time),227143.69999998808,CFD-WF-017-016-HC.jpg,1000,dash,O,z,670,12,1,4148.79999999702,222994.89999999106,7238,ATS,A,2
3,test,1,B,mfborder.png,1,m,Thu Nov 06 2025 09:34:29 GMT-0600 (Central Standard Time),229373.19999998808,CFD-BM-010-019-A.jpg,1600,dash,O,m,614,2,1,6378.29999999702,222994.89999999106,7238,ATS,A,3
4,test,1,B,mfborder.png,1,m,Thu Nov 06 2025 09:34:29 GMT-0600 (Central Standard Time),232040.89999999106,CFD-WM-013-015-A.jpg,1700,dash,O,m,943,9,1,9046.0,222994.89999999106,7238,ATS,A,4
5,test,1,B,mfborder.png,1,z,Thu Nov 06 2025 09:34:29 GMT-0600 (Central Standard Time),233741.39999999106,CFD-WF-017-016-HC.jpg,1000,dash,O,z,671,12,1,10746.5,222994.89999999106,7238,ATS,A,5
6,test,1,B,mfborder.png,1,m,Thu Nov 06 2025 09:34:29 GMT-0600 (Central Standard Time),236139.39999999106,CFD-BM-010-019-A.jpg,1600,dash,O,m,781,2,1,13144.5,222994.89999999106,7238,ATS,A,6
7,test,1,B,mfborder.png,1,m,Thu Nov 06 2025 09:34:29 GMT-0600 (Central Standard Time),238455.79999999702,CFD-WM-006-013-HC.jpg,1600,dash,O,m,686,10,1,15460.90000000596,222994.89999999106,7238,ATS,A,7
8,test,1,B,mfborder.png,1,z,Thu Nov 06 2025 09:34:29 GMT-0600 (Central Standard Time),240521.5,CFD-BF-028-020-HC.jpg,1400,dash,O,z,633,7,1,17526.60000000894,222994.89999999106,7238,ATS,A,8
9,test,1,B,mfborder.png,1,m,Thu Nov 06 2025 09:34:29 GMT-0600 (Central Standard Time),243088.39999999106,CFD-BM-005-010-A.jpg,2000,dash,O,m,543,5,1,20093.5,222994.89999999106,7238,ATS,A,9
10,test,1,B,mfborder.png,1,z,Thu Nov 06 2025 09:34:29 GMT-0600 (Central Standard Time),245419.89999999106,CFD-BF-010-005-HC.jpg,1500,dash,O,z,805,3,1,22425.0,222994.89999999106,7238,ATS,A,10
11,test,1,B,mfborder.png,1,m,Thu Nov 06 2025 09:34:29 GMT-0600 (Central Standard Time),247269.39999999106,CFD-WM-019-013-A.jpg,1200,dash,O,m,629,6,1,24274.5,222994.89999999106,7238,ATS,A,11
12,test,1,B,mfborder.png,1,m,Thu Nov 06 2025 09:34:29 GMT-0600 (Central Standard Time),249618.89999999106,CFD-BM-029-026-HC.jpg,1700,dash,O,m,632,1,1,26624.0,222994.89999999106,7238,ATS,A,12
13,test,1,B,mfborder.png,1,m,Thu Nov 06 2025 09:34:29 GMT-0600 (Central Standard Time),251618.79999999702,CFD-WM-019-013-A.jpg,1200,dash,O,m,775,6,1,28623.90000000596,222994.89999999106,7238,ATS,A,13
14,test,1,B,mfborder.png,1,z,Thu Nov 06 2025 09:34:29 GMT-0600 (Central Standard Time),253617.59999999404,CFD-BF-028-020-HC.jpg,1400,dash,O,z,575,7,1,30622.70000000298,222994.89999999106,7238,ATS,A,14
15,test,1,B,mfborder.png,1,z,Thu Nov 06 2025 09:34:29 GMT-0600 (Central Standard Time),255384.59999999404,CFD-BF-023-013-A.jpg,1000,dash,O,z,735,4,1,32389.70000000298,222994.89999999106,7238,ATS,A,15
16,test,1,B,mfborder.png,1,m,Thu Nov 06 2025 09:34:29 GMT-0600 (Central Standard Time),257650.5,CFD-BM-029-026-HC.jpg,1700,dash,O,m,542,1,1,34655.60000000894,222994.89999999106,7238,ATS,A,16
17,test,1,B,mfborder.png,1,z,Thu Nov 06 2025 09:34:29 GMT-0600 (Central Standard Time),259731.79999999702,CFD-WF-003-014-A.jpg,1500,dash,O,z,556,11,1,36736.90000000596,222994.89999999106,7238,ATS,A,17
18,test,1,B,mfborder.png,1,m,Thu Nov 06 2025 09:34:29 GMT-0600 (Central Standard Time),262182.1999999881,CFD-BM-005-010-A.jpg,2000,dash,O,m,422,5,1,39187.29999999702,222994.89999999106,7238,ATS,A,18
19,test,1,B,mfborder.png,1,z,Thu Nov 06 2025 09:34:29 GMT-0600 (Central Standard Time),263764.89999999106,CFD-BF-023-013-A.jpg,1000,dash,O,z,556,4,1,40770.0,222994.89999999106,7238,ATS,A,19
20,test,1,B,mfborder.png,1,z,Thu Nov 06 2025 09:34:29 GMT-0600 (Central Standard Time),266813.0,CFD-WF-002-008-HC.jpg,1900,dash,O,z,1130,8,1,43818.10000000894,222994.89999999106,7238,ATS,A,20
21,test,1,B,mfborder.png,1,z,Thu Nov 06 2025 09:34:29 GMT-0600 (Central Standard Time),268946.39999999106,CFD-WF-003-014-A.jpg,1500,dash,O,z,609,11,1,45951.5,222994.89999999106,7238,ATS,A,21
22,test,1,B,mfborder.png,1,z,Thu Nov 06 2025 09:34:29 GMT-0600 (Central Standard Time),271395.59999999404,CFD-WF-002-008-HC.jpg,1900,dash,O,z,524,8,1,48400.70000000298,222994.89999999106,7238,ATS,A,22
23,test,1,B,mfborder.png,1,m,Thu Nov 06 2025 09:34:29 GMT-0600 (Central Standard Time),273811.799999997,CFD-WM-013-015-A.jpg,1700,dash,O,m,691,9,1,50816.90000000596,222994.89999999106,7238,ATS,A,23
24,test,1,B,mfborder.png,1,m,Thu Nov 06 2025 09:34:29 GMT-0600 (Central Standard Time),276414.09999999404,CFD-WM-006-013-HC.jpg,1600,dash,O,m,974,10,1,53419.20000000298,222994.89999999106,7238,ATS,A,24
0,prac,1,C,haborder.png,0,z,Thu Nov 06 2025 09:34:29 GMT-0600 (Central Standard Time),314464.89999999106,CFD-BF-023-013-A.jpg,1900,dash,O,None,1517,7,1,4198.0,310266.89999999106,7238,ATS,A,1
1,prac,1,C,haborder.png,1,m,Thu Nov 06 2025 09:34:29 GMT-0600 (Central Standard Time),317796.89999999106,CFD-BM-029-026-HC.jpg,1500,solid,O,m,1044,10,1,7530.0,310266.89999999106,7238,ATS,A,2
2,prac,1,C,haborder.png,1,z,Thu Nov 06 2025 09:34:29 GMT-0600 (Central Standard Time),321196.799999997,CFD-WF-003-014-A.jpg,1600,dash,O,z,1020,9,1,10929.90000000596,310266.89999999106,7238,ATS,A,3
3,prac,1,C,mfborder.png,1,m,Thu Nov 06 2025 09:34:29 GMT-0600 (Central Standard Time),324128.59999999404,CFD-BM-005-010-A.jpg,1200,dash,O,m,965,5,1,13861.70000000298,310266.89999999106,7238,ATS,A,4
4,prac,1,C,haborder.png,1,z,Thu Nov 06 2025 09:34:29 GMT-0600 (Central Standard Time),327744.39999999106,CFD-BF-039-039-A.jpg,1700,solid,O,z,1125,8,1,17477.5,310266.89999999106,7238,ATS,A,5
5,prac,1,C,mfborder.png,1,z,Thu Nov 06 2025 09:34:29 GMT-0600 (Central Standard Time),330927.0,CFD-BF-028-020-HC.jpg,1000,dash,O,z,1386,3,1,20660.10000000894,310266.89999999106,7238,ATS,A,6
5,prac,1,C,mfborder.png,0,z,Thu Nov 06 2025 09:34:29 GMT-0600 (Central Standard Time),334708.6999999881,CFD-WF-019-015-A.jpg,1500,solid,O,None,1501,2,1,24441.79999999702,310266.89999999106,7238,ATS,A,7
6,prac,1,C,mfborder.png,1,m,Thu Nov 06 2025 09:34:29 GMT-0600 (Central Standard Time),338340.89999999106,CFD-WM-013-015-A.jpg,1700,solid,O,m,1145,6,1,28074.0,310266.89999999106,7238,ATS,A,8
7,prac,1,C,mfborder.png,1,m,Thu Nov 06 2025 09:34:29 GMT-0600 (Central Standard Time),342174.1999999881,CFD-BM-017-052-HC.jpg,2000,solid,O,m,1037,4,1,31907.29999999702,310266.89999999106,7238,ATS,A,9
7,prac,1,C,haborder.png,0,m,Thu Nov 06 2025 09:34:29 GMT-0600 (Central Standard Time),345105.6999999881,CFD-WM-004-005-HC.jpg,1000,dash,O,z,1165,11,1,34838.79999999702,310266.89999999106,7238,ATS,A,10
8,prac,1,C,haborder.png,1,m,Thu Nov 06 2025 09:34:29 GMT-0600 (Central Standard Time),348005.0,CFD-WM-004-005-HC.jpg,1400,solid,O,m,706,12,1,37738.10000000894,310266.89999999106,7238,ATS,A,11
9,prac,1,C,mfborder.png,1,z,Thu Nov 06 2025 09:34:29 GMT-0600 (Central Standard Time),351369.1999999881,CFD-WF-017-016-HC.jpg,1600,dash,O,z,974,1,1,41102.29999999702,310266.89999999106,7238,ATS,A,12
1,test,1,C,mfborder.png,1,m,Thu Nov 06 2025 09:34:29 GMT-0600 (Central Standard Time),361068.0,CFD-BM-029-026-HC.jpg,1200,dash,O,m,1401,6,1,2617.2000000029802,358450.799999997,7238,ATS,A,1
1,test,1,C,haborder.png,0,z,Thu Nov 06 2025 09:34:29 GMT-0600 (Central Standard Time),363549.89999999106,CFD-BM-010-019-A.jpg,1700,solid,O,m,755,9,1,5099.0999999940395,358450.799999997,7238,ATS,A,2
1,test,1,C,haborder.png,0,z,Thu Nov 06 2025 09:34:29 GMT-0600 (Central Standard Time),366132.6999999881,CFD-BM-010-019-A.jpg,1700,solid,O,m,856,9,1,7681.899999991059,358450.799999997,7238,ATS,A,3
1,test,1,C,haborder.png,0,m,Thu Nov 06 2025 09:34:29 GMT-0600 (Central Standard Time),368648.09999999404,CFD-BF-028-020-HC.jpg,1600,solid,O,z,886,10,1,10197.29999999702,358450.799999997,7238,ATS,A,4
1,test,1,C,haborder.png,0,z,Thu Nov 06 2025 09:34:29 GMT-0600 (Central Standard Time),371196.59999999404,CFD-WM-013-015-A.jpg,1400,solid,O,m,1122,7,1,12745.79999999702,358450.799999997,7238,ATS,A,5
1,test,1,C,mfborder.png,0,m,Thu Nov 06 2025 09:34:29 GMT-0600 (Central Standard Time),374712.09999999404,CFD-WM-019-013-A.jpg,2000,dash,O,None,1508,5,1,16261.29999999702,358450.799999997,7238,ATS,A,6
2,test,1,C,mfborder.png,1,m,Thu Nov 06 2025 09:34:29 GMT-0600 (Central Standard Time),376862.1999999881,CFD-WM-006-013-HC.jpg,1000,dash,O,m,1121,4,1,18411.39999999106,358450.799999997,7238,ATS,A,7
2,test,1,C,haborder.png,0,m,Thu Nov 06 2025 09:34:29 GMT-0600 (Central Standard Time),378877.59999999404,CFD-WF-017-016-HC.jpg,1000,solid,O,z,996,12,1,20426.79999999702,358450.799999997,7238,ATS,A,8
2,test,1,C,haborder.png,0,m,Thu Nov 06 2025 09:34:29 GMT-0600 (Central Standard Time),381177.0,CFD-BF-028-020-HC.jpg,1600,solid,O,z,676,10,1,22726.20000000298,358450.799999997,7238,ATS,A,9
3,test,1,C,mfborder.png,1,m,Thu Nov 06 2025 09:34:29 GMT-0600 (Central Standard Time),384010.1999999881,CFD-WM-019-013-A.jpg,2000,dash,O,m,809,5,1,25559.39999999106,358450.799999997,7238,ATS,A,10
4,test,1,C,mfborder.png,1,z,Thu Nov 06 2025 09:34:29 GMT-0600 (Central Standard Time),386409.6999999881,CFD-BF-023-013-A.jpg,1600,dash,O,z,769,2,1,27958.89999999106,358450.799999997,7238,ATS,A,11
4,test,1,C,haborder.png,0,z,Thu Nov 06 2025 09:34:29 GMT-0600 (Central Standard Time),389741.1999999881,CFD-BM-005-010-A.jpg,1900,solid,O,m,1412,8,1,31290.39999999106,358450.799999997,7238,ATS,A,12
5,test,1,C,mfborder.png,1,z,Thu Nov 06 2025 09:34:29 GMT-0600 (Central Standard Time),392422.799999997,CFD-WF-003-014-A.jpg,1500,dash,O,z,1161,3,1,33972.0,358450.799999997,7238,ATS,A,13
5,test,1,C,haborder.png,0,m,Thu Nov 06 2025 09:34:29 GMT-0600 (Central Standard Time),394872.1999999881,CFD-WF-002-008-HC.jpg,1500,solid,O,z,918,11,1,36421.39999999106,358450.799999997,7238,ATS,A,14
5,test,1,C,mfborder.png,0,z,Thu Nov 06 2025 09:34:29 GMT-0600 (Central Standard Time),397921.5,CFD-BF-010-005-HC.jpg,1700,dash,O,m,1318,1,1,39470.70000000298,358450.799999997,7238,ATS,A,15
6,test,1,C,mfborder.png,1,m,Thu Nov 06 2025 09:34:29 GMT-0600 (Central Standard Time),400421.5,CFD-BM-029-026-HC.jpg,1200,dash,O,m,1280,6,1,41970.70000000298,358450.799999997,7238,ATS,A,16
7,test,1,C,mfborder.png,1,m,Thu Nov 06 2025 09:34:29 GMT-0600 (Central Standard Time),402237.799999997,CFD-WM-006-013-HC.jpg,1000,dash,O,m,797,4,1,43787.0,358450.799999997,7238,ATS,A,17
8,test,1,C,mfborder.png,1,z,Thu Nov 06 2025 09:34:29 GMT-0600 (Central Standard Time),404786.09999999404,CFD-WF-003-014-A.jpg,1500,dash,O,z,1032,3,1,46335.29999999702,358450.799999997,7238,ATS,A,18
8,test,1,C,haborder.png,0,m,Thu Nov 06 2025 09:34:29 GMT-0600 (Central Standard Time),406735.09999999404,CFD-WF-017-016-HC.jpg,1000,solid,O,z,920,12,1,48284.29999999702,358450.799999997,7238,ATS,A,19
8,test,1,C,mfborder.png,0,z,Thu Nov 06 2025 09:34:29 GMT-0600 (Central Standard Time),409567.39999999106,CFD-BF-010-005-HC.jpg,1700,dash,O,m,1101,1,1,51116.59999999404,358450.799999997,7238,ATS,A,20
9,test,1,C,haborder.png,1,z,Thu Nov 06 2025 09:34:29 GMT-0600 (Central Standard Time),412466.59999999404,CFD-BM-005-010-A.jpg,1900,solid,O,z,982,8,1,54015.79999999702,358450.799999997,7238,ATS,A,21
9,test,1,C,mfborder.png,0,z,Thu Nov 06 2025 09:34:29 GMT-0600 (Central Standard Time),415602.89999999106,CFD-BF-023-013-A.jpg,1600,dash,O,None,1515,2,1,57152.09999999404,358450.799999997,7238,ATS,A,22
10,test,1,C,haborder.png,1,m,Thu Nov 06 2025 09:34:29 GMT-0600 (Central Standard Time),418148.89999999106,CFD-WF-002-008-HC.jpg,1500,solid,O,m,1030,11,1,59698.09999999404,358450.799999997,7238,ATS,A,23
10,test,1,C,haborder.png,0,z,Thu Nov 06 2025 09:34:29 GMT-0600 (Central Standard Time),421065.0,CFD-WM-013-015-A.jpg,1400,solid,O,None,1501,7,1,62614.20000000298,358450.799999997,7238,ATS,A,24
0,test,2,C,mfborder.png,0,m,Thu Nov 06 2025 09:34:29 GMT-0600 (Central Standard Time),425452.6999999881,CFD-WM-013-015-A.jpg,1200,dash,O,None,1506,6,1,2722.8999999910593,422729.799999997,7238,ATS,A,1
1,test,2,C,haborder.png,1,m,Thu Nov 06 2025 09:34:29 GMT-0600 (Central Standard Time),427861.5,CFD-BM-029-026-HC.jpg,1600,solid,O,m,796,10,1,5131.70000000298,422729.799999997,7238,ATS,A,2
2,test,2,C,mfborder.png,1,m,Thu Nov 06 2025 09:34:29 GMT-0600 (Central Standard Time),429761.09999999404,CFD-BM-017-052-HC.jpg,1000,dash,O,m,875,4,1,7031.29999999702,422729.799999997,7238,ATS,A,3
3,test,2,C,mfborder.png,1,z,Thu Nov 06 2025 09:34:29 GMT-0600 (Central Standard Time),432578.1999999881,CFD-WF-017-016-HC.jpg,1700,dash,O,z,1100,1,1,9848.39999999106,422729.799999997,7238,ATS,A,4
4,test,2,C,haborder.png,1,z,Thu Nov 06 2025 09:34:29 GMT-0600 (Central Standard Time),435226.6999999881,CFD-WF-003-014-A.jpg,1700,solid,O,z,917,9,1,12496.89999999106,422729.799999997,7238,ATS,A,5
5,test,2,C,haborder.png,1,m,Thu Nov 06 2025 09:34:29 GMT-0600 (Central Standard Time),437442.299999997,CFD-BM-029-026-HC.jpg,1600,solid,O,m,600,10,1,14712.5,422729.799999997,7238,ATS,A,6
5,test,2,C,mfborder.png,0,z,Thu Nov 06 2025 09:34:29 GMT-0600 (Central Standard Time),439824.299999997,CFD-BF-028-020-HC.jpg,1500,dash,O,m,859,3,1,17094.5,422729.799999997,7238,ATS,A,7
6,test,2,C,haborder.png,1,m,Thu Nov 06 2025 09:34:29 GMT-0600 (Central Standard Time),442206.89999999106,CFD-WM-004-005-HC.jpg,1500,solid,O,m,861,11,1,19477.09999999404,422729.799999997,7238,ATS,A,8
7,test,2,C,mfborder.png,1,z,Thu Nov 06 2025 09:34:29 GMT-0600 (Central Standard Time),445306.39999999106,CFD-WF-019-015-A.jpg,1600,dash,O,z,1475,2,1,22576.59999999404,422729.799999997,7238,ATS,A,9
8,test,2,C,haborder.png,1,z,Thu Nov 06 2025 09:34:29 GMT-0600 (Central Standard Time),448239.799999997,CFD-WF-003-014-A.jpg,1700,solid,O,z,1210,9,1,25510.0,422729.799999997,7238,ATS,A,10
9,test,2,C,haborder.png,1,z,Thu Nov 06 2025 09:34:29 GMT-0600 (Central Standard Time),450472.5,CFD-BF-023-013-A.jpg,1400,solid,O,z,810,7,1,27742.70000000298,422729.799999997,7238,ATS,A,11
10,test,2,C,haborder.png,1,m,Thu Nov 06 2025 09:34:29 GMT-0600 (Central Standard Time),452254.09999999404,CFD-WM-004-005-HC.jpg,1000,solid,O,m,762,12,1,29524.29999999702,422729.799999997,7238,ATS,A,12
11,test,2,C,haborder.png,1,z,Thu Nov 06 2025 09:34:29 GMT-0600 (Central Standard Time),454954.09999999404,CFD-BF-039-039-A.jpg,1900,solid,O,z,784,8,1,32224.29999999702,422729.799999997,7238,ATS,A,13
12,test,2,C,haborder.png,1,z,Thu Nov 06 2025 09:34:29 GMT-0600 (Central Standard Time),457119.09999999404,CFD-BF-023-013-A.jpg,1400,solid,O,z,742,7,1,34389.29999999702,422729.799999997,7238,ATS,A,14
13,test,2,C,haborder.png,1,m,Thu Nov 06 2025 09:34:29 GMT-0600 (Central Standard Time),458803.39999999106,CFD-WM-004-005-HC.jpg,1000,solid,O,m,656,12,1,36073.59999999404,422729.799999997,7238,ATS,A,15
14,test,2,C,mfborder.png,1,m,Thu Nov 06 2025 09:34:29 GMT-0600 (Central Standard Time),461201.299999997,CFD-WM-013-015-A.jpg,1200,dash,O,m,1174,6,1,38471.5,422729.799999997,7238,ATS,A,16
15,test,2,C,haborder.png,1,z,Thu Nov 06 2025 09:34:29 GMT-0600 (Central Standard Time),464133.299999997,CFD-BF-039-039-A.jpg,1900,solid,O,z,1012,8,1,41403.5,422729.799999997,7238,ATS,A,17
15,test,2,C,mfborder.png,0,m,Thu Nov 06 2025 09:34:29 GMT-0600 (Central Standard Time),467333.6999999881,CFD-BM-005-010-A.jpg,2000,dash,O,z,1180,5,1,44603.89999999106,422729.799999997,7238,ATS,A,18
15,test,2,C,mfborder.png,0,m,Thu Nov 06 2025 09:34:29 GMT-0600 (Central Standard Time),470232.59999999404,CFD-BM-005-010-A.jpg,2000,dash,O,z,869,5,1,47502.79999999702,422729.799999997,7238,ATS,A,19
16,test,2,C,mfborder.png,1,z,Thu Nov 06 2025 09:34:29 GMT-0600 (Central Standard Time),472614.5,CFD-WF-019-015-A.jpg,1600,dash,O,z,754,2,1,49884.70000000298,422729.799999997,7238,ATS,A,20
16,test,2,C,mfborder.png,0,z,Thu Nov 06 2025 09:34:29 GMT-0600 (Central Standard Time),474963.5,CFD-BF-028-020-HC.jpg,1500,dash,O,m,831,3,1,52233.70000000298,422729.799999997,7238,ATS,A,21
17,test,2,C,haborder.png,1,m,Thu Nov 06 2025 09:34:29 GMT-0600 (Central Standard Time),477295.799999997,CFD-WM-004-005-HC.jpg,1500,solid,O,m,810,11,1,54566.0,422729.799999997,7238,ATS,A,22
18,test,2,C,mfborder.png,1,m,Thu Nov 06 2025 09:34:29 GMT-0600 (Central Standard Time),479445.39999999106,CFD-BM-017-052-HC.jpg,1000,dash,O,m,1130,4,1,56715.59999999404,422729.799999997,7238,ATS,A,23
18,test,2,C,mfborder.png,0,z,Thu Nov 06 2025 09:34:29 GMT-0600 (Central Standard Time),482044.299999997,CFD-WF-017-016-HC.jpg,1700,dash,O,m,873,1,1,59314.5,422729.799999997,7238,ATS,A,24
1,test,3,C,mfborder.png,1,m,Thu Nov 06 2025 09:34:29 GMT-0600 (Central Standard Time),485643.299999997,CFD-WM-006-013-HC.jpg,1000,dash,O,m,890,4,1,1915.4000000059605,483727.89999999106,7238,ATS,A,1
1,test,3,C,mfborder.png,0,z,Thu Nov 06 2025 09:34:29 GMT-0600 (Central Standard Time),488192.6999999881,CFD-BF-010-005-HC.jpg,1700,dash,O,m,819,1,1,4464.79999999702,483727.89999999106,7238,ATS,A,2
2,test,3,C,mfborder.png,1,z,Thu Nov 06 2025 09:34:29 GMT-0600 (Central Standard Time),490758.39999999106,CFD-BF-023-013-A.jpg,1600,dash,O,z,937,2,1,7030.5,483727.89999999106,7238,ATS,A,3
2,test,3,C,mfborder.png,0,m,Thu Nov 06 2025 09:34:29 GMT-0600 (Central Standard Time),493624.1999999881,CFD-WM-019-013-A.jpg,2000,dash,O,z,843,5,1,9896.29999999702,483727.89999999106,7238,ATS,A,4
2,test,3,C,haborder.png,0,z,Thu Nov 06 2025 09:34:29 GMT-0600 (Central Standard Time),496756.6999999881,CFD-BM-005-010-A.jpg,1900,solid,O,m,1205,8,1,13028.79999999702,483727.89999999106,7238,ATS,A,5
2,test,3,C,haborder.png,0,z,Thu Nov 06 2025 09:34:29 GMT-0600 (Central Standard Time),499473.1999999881,CFD-BM-010-019-A.jpg,1700,solid,O,m,993,9,1,15745.29999999702,483727.89999999106,7238,ATS,A,6
2,test,3,C,haborder.png,0,z,Thu Nov 06 2025 09:34:29 GMT-0600 (Central Standard Time),501921.299999997,CFD-BM-005-010-A.jpg,1900,solid,O,m,525,8,1,18193.40000000596,483727.89999999106,7238,ATS,A,7
2,test,3,C,haborder.png,0,m,Thu Nov 06 2025 09:34:29 GMT-0600 (Central Standard Time),504037.39999999106,CFD-WF-002-008-HC.jpg,1500,solid,O,z,596,11,1,20309.5,483727.89999999106,7238,ATS,A,8
3,test,3,C,mfborder.png,1,m,Thu Nov 06 2025 09:34:29 GMT-0600 (Central Standard Time),506503.299999997,CFD-BM-029-026-HC.jpg,1200,dash,O,m,1243,6,1,22775.40000000596,483727.89999999106,7238,ATS,A,9
4,test,3,C,mfborder.png,1,z,Thu Nov 06 2025 09:34:29 GMT-0600 (Central Standard Time),508753.1999999881,CFD-WF-003-014-A.jpg,1500,dash,O,z,718,3,1,25025.29999999702,483727.89999999106,7238,ATS,A,10
4,test,3,C,mfborder.png,0,m,Thu Nov 06 2025 09:34:29 GMT-0600 (Central Standard Time),511536.1999999881,CFD-WM-019-013-A.jpg,2000,dash,O,z,753,5,1,27808.29999999702,483727.89999999106,7238,ATS,A,11
4,test,3,C,haborder.png,0,z,Thu Nov 06 2025 09:34:29 GMT-0600 (Central Standard Time),513851.6999999881,CFD-WM-013-015-A.jpg,1400,solid,O,m,890,7,1,30123.79999999702,483727.89999999106,7238,ATS,A,12
5,test,3,C,mfborder.png,1,z,Thu Nov 06 2025 09:34:29 GMT-0600 (Central Standard Time),516617.1999999881,CFD-BF-023-013-A.jpg,1600,dash,O,z,1142,2,1,32889.29999999702,483727.89999999106,7238,ATS,A,13
5,test,3,C,haborder.png,0,m,Thu Nov 06 2025 09:34:29 GMT-0600 (Central Standard Time),519548.89999999106,CFD-BF-028-020-HC.jpg,1600,solid,O,z,1313,10,1,35821.0,483727.89999999106,7238,ATS,A,14
5,test,3,C,haborder.png,0,m,Thu Nov 06 2025 09:34:29 GMT-0600 (Central Standard Time),521765.0,CFD-WF-002-008-HC.jpg,1500,solid,O,z,696,11,1,38037.10000000894,483727.89999999106,7238,ATS,A,15
5,test,3,C,mfborder.png,0,z,Thu Nov 06 2025 09:34:29 GMT-0600 (Central Standard Time),524514.799999997,CFD-BF-010-005-HC.jpg,1700,dash,O,m,1025,1,1,40786.90000000596,483727.89999999106,7238,ATS,A,16
5,test,3,C,haborder.png,0,z,Thu Nov 06 2025 09:34:29 GMT-0600 (Central Standard Time),527230.5,CFD-BM-010-019-A.jpg,1700,solid,O,m,994,9,1,43502.60000000894,483727.89999999106,7238,ATS,A,17
6,test,3,C,mfborder.png,1,z,Thu Nov 06 2025 09:34:29 GMT-0600 (Central Standard Time),529896.1999999881,CFD-WF-003-014-A.jpg,1500,dash,O,z,1135,3,1,46168.29999999702,483727.89999999106,7238,ATS,A,18
7,test,3,C,mfborder.png,1,m,Thu Nov 06 2025 09:34:29 GMT-0600 (Central Standard Time),531745.799999997,CFD-WM-006-013-HC.jpg,1000,dash,O,m,817,4,1,48017.90000000596,483727.89999999106,7238,ATS,A,19
7,test,3,C,haborder.png,0,m,Thu Nov 06 2025 09:34:29 GMT-0600 (Central Standard Time),534277.8999999911,CFD-BF-028-020-HC.jpg,1600,solid,O,z,911,10,1,50550.0,483727.89999999106,7238,ATS,A,20
7,test,3,C,haborder.png,0,z,Thu Nov 06 2025 09:34:29 GMT-0600 (Central Standard Time),536444.099999994,CFD-WM-013-015-A.jpg,1400,solid,O,m,748,7,1,52716.20000000298,483727.89999999106,7238,ATS,A,21
7,test,3,C,haborder.png,0,m,Thu Nov 06 2025 09:34:29 GMT-0600 (Central Standard Time),538210.3999999911,CFD-WF-017-016-HC.jpg,1000,solid,O,z,742,12,1,54482.5,483727.89999999106,7238,ATS,A,22
8,test,3,C,mfborder.png,1,m,Thu Nov 06 2025 09:34:29 GMT-0600 (Central Standard Time),540675.5,CFD-BM-029-026-HC.jpg,1200,dash,O,m,1247,6,1,56947.60000000894,483727.89999999106,7238,ATS,A,23
8,test,3,C,haborder.png,0,m,Thu Nov 06 2025 09:34:29 GMT-0600 (Central Standard Time),542491.599999994,CFD-WF-017-016-HC.jpg,1000,solid,O,z,790,12,1,58763.70000000298,483727.89999999106,7238,ATS,A,24
1,test,4,C,haborder.png,1,z,Thu Nov 06 2025 09:34:29 GMT-0600 (Central Standard Time),546874.1999999881,CFD-BF-039-039-A.jpg,1900,solid,O,z,1408,8,1,3332.7999999970198,543541.3999999911,7238,ATS,A,1
1,test,4,C,mfborder.png,0,m,Thu Nov 06 2025 09:34:29 GMT-0600 (Central Standard Time),549606.099999994,CFD-WM-013-015-A.jpg,1200,dash,O,None,1515,6,1,6064.70000000298,543541.3999999911,7238,ATS,A,2
1,test,4,C,mfborder.png,0,z,Thu Nov 06 2025 09:34:29 GMT-0600 (Central Standard Time),552205.1999999881,CFD-BF-028-020-HC.jpg,1500,dash,O,m,1070,3,1,8663.79999999702,543541.3999999911,7238,ATS,A,3
2,test,4,C,haborder.png,1,m,Thu Nov 06 2025 09:34:29 GMT-0600 (Central Standard Time),554504.799999997,CFD-BM-029-026-HC.jpg,1600,solid,O,m,676,10,1,10963.40000000596,543541.3999999911,7238,ATS,A,4
3,test,4,C,haborder.png,1,m,Thu Nov 06 2025 09:34:29 GMT-0600 (Central Standard Time),556737.299999997,CFD-BM-029-026-HC.jpg,1600,solid,O,m,600,10,1,13195.90000000596,543541.3999999911,7238,ATS,A,5
4,test,4,C,mfborder.png,1,z,Thu Nov 06 2025 09:34:29 GMT-0600 (Central Standard Time),559354.299999997,CFD-BF-028-020-HC.jpg,1500,dash,O,z,1092,3,1,15812.90000000596,543541.3999999911,7238,ATS,A,6
5,test,4,C,haborder.png,1,z,Thu Nov 06 2025 09:34:29 GMT-0600 (Central Standard Time),562169.299999997,CFD-WF-003-014-A.jpg,1700,solid,O,z,1085,9,1,18627.90000000596,543541.3999999911,7238,ATS,A,7
5,test,4,C,haborder.png,0,z,Thu Nov 06 2025 09:34:29 GMT-0600 (Central Standard Time),565602.3999999911,CFD-BF-039-039-A.jpg,1900,solid,O,None,1516,8,1,22061.0,543541.3999999911,7238,ATS,A,8
5,test,4,C,mfborder.png,0,z,Thu Nov 06 2025 09:34:29 GMT-0600 (Central Standard Time),568835.5,CFD-WF-017-016-HC.jpg,1700,dash,O,None,1517,1,1,25294.10000000894,543541.3999999911,7238,ATS,A,9
6,test,4,C,haborder.png,1,m,Thu Nov 06 2025 09:34:29 GMT-0600 (Central Standard Time),571200.0,CFD-WM-004-005-HC.jpg,1500,solid,O,m,835,11,1,27658.60000000894,543541.3999999911,7238,ATS,A,10
6,test,4,C,mfborder.png,0,m,Thu Nov 06 2025 09:34:29 GMT-0600 (Central Standard Time),573700.299999997,CFD-BM-017-052-HC.jpg,1000,dash,O,z,1480,4,1,30158.90000000596,543541.3999999911,7238,ATS,A,11
7,test,4,C,mfborder.png,1,z,Thu Nov 06 2025 09:34:29 GMT-0600 (Central Standard Time),576432.1999999881,CFD-WF-017-016-HC.jpg,1700,dash,O,z,1001,1,1,32890.79999999702,543541.3999999911,7238,ATS,A,12
8,test,4,C,haborder.png,1,z,Thu Nov 06 2025 09:34:29 GMT-0600 (Central Standard Time),579381.8999999911,CFD-WF-003-014-A.jpg,1700,solid,O,z,1223,9,1,35840.5,543541.3999999911,7238,ATS,A,13
9,test,4,C,mfborder.png,1,z,Thu Nov 06 2025 09:34:29 GMT-0600 (Central Standard Time),581963.5,CFD-WF-019-015-A.jpg,1600,dash,O,z,965,2,1,38422.10000000894,543541.3999999911,7238,ATS,A,14
10,test,4,C,haborder.png,1,z,Thu Nov 06 2025 09:34:29 GMT-0600 (Central Standard Time),584579.5,CFD-BF-023-013-A.jpg,1400,solid,O,z,1182,7,1,41038.10000000894,543541.3999999911,7238,ATS,A,15
10,test,4,C,mfborder.png,0,m,Thu Nov 06 2025 09:34:29 GMT-0600 (Central Standard Time),586628.3999999911,CFD-WM-013-015-A.jpg,1200,dash,O,z,830,6,1,43087.0,543541.3999999911,7238,ATS,A,16
11,test,4,C,haborder.png,1,m,Thu Nov 06 2025 09:34:29 GMT-0600 (Central Standard Time),588346.099999994,CFD-WM-004-005-HC.jpg,1000,solid,O,m,702,12,1,44804.70000000298,543541.3999999911,7238,ATS,A,17
12,test,4,C,haborder.png,1,m,Thu Nov 06 2025 09:34:29 GMT-0600 (Central Standard Time),590527.6999999881,CFD-WM-004-005-HC.jpg,1500,solid,O,m,661,11,1,46986.29999999702,543541.3999999911,7238,ATS,A,18
12,test,4,C,mfborder.png,0,m,Thu Nov 06 2025 09:34:29 GMT-0600 (Central Standard Time),593543.799999997,CFD-BM-005-010-A.jpg,2000,dash,O,z,986,5,1,50002.40000000596,543541.3999999911,7238,ATS,A,19
13,test,4,C,mfborder.png,1,m,Thu Nov 06 2025 09:34:29 GMT-0600 (Central Standard Time),595959.0,CFD-BM-017-052-HC.jpg,1000,dash,O,m,1394,4,1,52417.60000000894,543541.3999999911,7238,ATS,A,20
14,test,4,C,haborder.png,1,z,Thu Nov 06 2025 09:34:29 GMT-0600 (Central Standard Time),598257.8999999911,CFD-BF-023-013-A.jpg,1400,solid,O,z,874,7,1,54716.5,543541.3999999911,7238,ATS,A,21
14,test,4,C,mfborder.png,0,m,Thu Nov 06 2025 09:34:29 GMT-0600 (Central Standard Time),601140.0,CFD-BM-005-010-A.jpg,2000,dash,O,z,863,5,1,57598.60000000894,543541.3999999911,7238,ATS,A,22
15,test,4,C,haborder.png,1,m,Thu Nov 06 2025 09:34:29 GMT-0600 (Central Standard Time),602891.0,CFD-WM-004-005-HC.jpg,1000,solid,O,m,734,12,1,59349.60000000894,543541.3999999911,7238,ATS,A,23
16,test,4,C,mfborder.png,1,z,Thu Nov 06 2025 09:34:29 GMT-0600 (Central Standard Time),605588.6999999881,CFD-WF-019-015-A.jpg,1600,dash,O,z,1072,2,1,62047.29999999702,543541.3999999911,7238,ATS,A,24
