block_c,block_dur,condition,countdown,datetime,endtime,list,multichar_response,project,response,response_time,session_number,start_end,starttime,subject_id,task,task_vers,trial
,,,,Fri May 23 2025 14:34:39 GMT-0500 (Central Daylight Time),,,,O,space,419,1,,,7152,WL,C,
prac,,0,,Fri May 23 2025 14:34:39 GMT-0500 (Central Daylight Time),,NA,b,O,b,3128,1,,,7152,WL,C,1.0
prac,,0,,Fri May 23 2025 14:34:39 GMT-0500 (Central Daylight Time),,NA,bo,O,o,117,1,,,7152,WL,C,1.0
prac,,0,,Fri May 23 2025 14:34:39 GMT-0500 (Central Daylight Time),,NA,boo,O,o,117,1,,,7152,WL,C,1.0
prac,,0,,Fri May 23 2025 14:34:39 GMT-0500 (Central Daylight Time),,NA,boos,O,s,106,1,,,7152,WL,C,1.0
prac,,0,,Fri May 23 2025 14:34:39 GMT-0500 (Central Daylight Time),,NA,boost,O,t,85,1,,,7152,WL,C,1.0
prac,,0,,Fri May 23 2025 14:34:39 GMT-0500 (Central Daylight Time),,NA,boostenter,O,enter,1281,1,,,7152,WL,C,1.0
1,1.3840000629425049,learn,58615.999937057495,Fri May 23 2025 14:34:39 GMT-0500 (Central Daylight Time),192518.2999999998,A,t,O,t,1364,1,1383.7999999998137,191134.5,7152,WL,C,1.0
1,1.448000192642212,learn,58551.99980735779,Fri May 23 2025 14:34:39 GMT-0500 (Central Daylight Time),192582.5,A,to,O,o,45,1,1448.0,191134.5,7152,WL,C,1.0
1,1.565999984741211,learn,58434.00001525879,Fri May 23 2025 14:34:39 GMT-0500 (Central Daylight Time),192700.09999999963,A,tow,O,w,108,1,1565.5999999996275,191134.5,7152,WL,C,1.0
1,1.933000087738037,learn,58066.99991226196,Fri May 23 2025 14:34:39 GMT-0500 (Central Daylight Time),193067.2999999998,A,towe,O,e,359,1,1932.7999999998137,191134.5,7152,WL,C,1.0
1,2.0340001583099365,learn,57965.99984169006,Fri May 23 2025 14:34:39 GMT-0500 (Central Daylight Time),193168.0,A,tower,O,r,87,1,2033.5,191134.5,7152,WL,C,1.0
1,2.265000104904175,learn,57734.999895095825,Fri May 23 2025 14:34:39 GMT-0500 (Central Daylight Time),193399.7000000002,A,towerenter,O,enter,220,1,2265.2000000001863,191134.5,7152,WL,C,1.0
1,2.615000009536743,learn,57384.99999046326,Fri May 23 2025 14:34:39 GMT-0500 (Central Daylight Time),193749.59999999963,A,w,O,w,340,1,349.3999999994412,193400.2000000002,7152,WL,C,2.0
1,2.7350001335144043,learn,57264.999866485596,Fri May 23 2025 14:34:39 GMT-0500 (Central Daylight Time),193869.09999999963,A,wh,O,h,111,1,468.8999999994412,193400.2000000002,7152,WL,C,2.0
1,2.882000207901001,learn,57117.999792099,Fri May 23 2025 14:34:39 GMT-0500 (Central Daylight Time),194016.2999999998,A,whe,O,e,134,1,616.0999999996275,193400.2000000002,7152,WL,C,2.0
1,3.499000072479248,learn,56500.99992752075,Fri May 23 2025 14:34:39 GMT-0500 (Central Daylight Time),194633.0,A,whea,O,a,603,1,1232.7999999998137,193400.2000000002,7152,WL,C,2.0
1,3.6500000953674316,learn,56349.99990463257,Fri May 23 2025 14:34:39 GMT-0500 (Central Daylight Time),194784.0,A,wheat,O,t,131,1,1383.7999999998137,193400.2000000002,7152,WL,C,2.0
1,3.7820000648498535,learn,56217.99993515015,Fri May 23 2025 14:34:39 GMT-0500 (Central Daylight Time),194916.2000000002,A,wheatenter,O,enter,125,1,1516.0,193400.2000000002,7152,WL,C,2.0
1,4.115000009536743,learn,55884.99999046326,Fri May 23 2025 14:34:39 GMT-0500 (Central Daylight Time),195249.59999999963,A,q,O,q,319,1,332.8999999994412,194916.7000000002,7152,WL,C,3.0
1,4.199000120162964,learn,55800.999879837036,Fri May 23 2025 14:34:39 GMT-0500 (Central Daylight Time),195333.7999999998,A,qu,O,u,64,1,417.09999999962747,194916.7000000002,7152,WL,C,3.0
1,4.332000017166138,learn,55667.99998283386,Fri May 23 2025 14:34:39 GMT-0500 (Central Daylight Time),195466.59999999963,A,que,O,e,117,1,549.8999999994412,194916.7000000002,7152,WL,C,3.0
1,4.499000072479248,learn,55500.99992752075,Fri May 23 2025 14:34:39 GMT-0500 (Central Daylight Time),195633.5,A,quee,O,e,154,1,716.7999999998137,194916.7000000002,7152,WL,C,3.0
1,4.815999984741211,learn,55184.00001525879,Fri May 23 2025 14:34:39 GMT-0500 (Central Daylight Time),195950.7999999998,A,queen,O,n,291,1,1034.0999999996275,194916.7000000002,7152,WL,C,3.0
1,5.1650002002716064,learn,54834.99979972839,Fri May 23 2025 14:34:39 GMT-0500 (Central Daylight Time),196299.39999999944,A,queenenter,O,enter,331,1,1382.699999999255,194916.7000000002,7152,WL,C,3.0
1,6.049000024795532,learn,53950.99997520447,Fri May 23 2025 14:34:39 GMT-0500 (Central Daylight Time),197183.0,A,d,O,d,872,1,883.2000000001863,196299.7999999998,7152,WL,C,4.0
1,6.115000009536743,learn,53884.99999046326,Fri May 23 2025 14:34:39 GMT-0500 (Central Daylight Time),197249.2999999998,A,do,O,o,60,1,949.5,196299.7999999998,7152,WL,C,4.0
1,6.265000104904175,learn,53734.999895095825,Fri May 23 2025 14:34:39 GMT-0500 (Central Daylight Time),197398.7999999998,A,doc,O,c,138,1,1099.0,196299.7999999998,7152,WL,C,4.0
1,6.430999994277954,learn,53569.000005722046,Fri May 23 2025 14:34:39 GMT-0500 (Central Daylight Time),197565.7000000002,A,doct,O,t,158,1,1265.9000000003725,196299.7999999998,7152,WL,C,4.0
1,6.531000137329102,learn,53468.9998626709,Fri May 23 2025 14:34:39 GMT-0500 (Central Daylight Time),197665.2999999998,A,docto,O,o,84,1,1365.5,196299.7999999998,7152,WL,C,4.0
1,6.614000082015991,learn,53385.99991798401,Fri May 23 2025 14:34:39 GMT-0500 (Central Daylight Time),197748.2999999998,A,doctor,O,r,74,1,1448.5,196299.7999999998,7152,WL,C,4.0
1,6.731000185012817,learn,53268.99981498718,Fri May 23 2025 14:34:39 GMT-0500 (Central Daylight Time),197865.5,A,doctorenter,O,enter,100,1,1565.7000000001863,196299.7999999998,7152,WL,C,4.0
1,7.38100004196167,learn,52618.99995803833,Fri May 23 2025 14:34:39 GMT-0500 (Central Daylight Time),198515.39999999944,A,n,O,n,643,1,649.5,197865.89999999944,7152,WL,C,5.0
1,7.498000144958496,learn,52501.999855041504,Fri May 23 2025 14:34:39 GMT-0500 (Central Daylight Time),198632.0,A,na,O,a,94,1,766.1000000005588,197865.89999999944,7152,WL,C,5.0
1,7.614000082015991,learn,52385.99991798401,Fri May 23 2025 14:34:39 GMT-0500 (Central Daylight Time),198748.7999999998,A,nai,O,i,105,1,882.9000000003725,197865.89999999944,7152,WL,C,5.0
1,7.697000026702881,learn,52302.99997329712,Fri May 23 2025 14:34:39 GMT-0500 (Central Daylight Time),198831.2000000002,A,nail,O,l,60,1,965.3000000007451,197865.89999999944,7152,WL,C,5.0
1,7.914000034332275,learn,52085.999965667725,Fri May 23 2025 14:34:39 GMT-0500 (Central Daylight Time),199047.7999999998,A,nailenter,O,enter,195,1,1181.9000000003725,197865.89999999944,7152,WL,C,5.0
1,8.28000020980835,learn,51719.99979019165,Fri May 23 2025 14:34:39 GMT-0500 (Central Daylight Time),199414.09999999963,A,l,O,l,356,1,366.0,199048.09999999963,7152,WL,C,6.0
1,8.398000001907349,learn,51601.99999809265,Fri May 23 2025 14:34:39 GMT-0500 (Central Daylight Time),199532.5,A,le,O,e,113,1,484.40000000037253,199048.09999999963,7152,WL,C,6.0
1,8.515000104904175,learn,51484.999895095825,Fri May 23 2025 14:34:39 GMT-0500 (Central Daylight Time),199649.5,A,let,O,t,93,1,601.4000000003725,199048.09999999963,7152,WL,C,6.0
1,8.597000122070312,learn,51402.99987792969,Fri May 23 2025 14:34:39 GMT-0500 (Central Daylight Time),199731.5,A,lett,O,t,73,1,683.4000000003725,199048.09999999963,7152,WL,C,6.0
1,8.73200011253357,learn,51267.99988746643,Fri May 23 2025 14:34:39 GMT-0500 (Central Daylight Time),199865.89999999944,A,lette,O,e,120,1,817.7999999998137,199048.09999999963,7152,WL,C,6.0
1,8.830000162124634,learn,51169.999837875366,Fri May 23 2025 14:34:39 GMT-0500 (Central Daylight Time),199964.7999999998,A,letter,O,r,91,1,916.7000000001863,199048.09999999963,7152,WL,C,6.0
1,8.894999980926514,learn,51105.000019073486,Fri May 23 2025 14:34:39 GMT-0500 (Central Daylight Time),200029.7000000002,A,letterenter,O,enter,46,1,981.6000000005588,199048.09999999963,7152,WL,C,6.0
1,9.531000137329102,learn,50468.9998626709,Fri May 23 2025 14:34:39 GMT-0500 (Central Daylight Time),200665.59999999963,A,b,O,b,614,1,635.5,200030.09999999963,7152,WL,C,7.0
1,9.597000122070312,learn,50402.99987792969,Fri May 23 2025 14:34:39 GMT-0500 (Central Daylight Time),200731.7000000002,A,bo,O,o,58,1,701.6000000005588,200030.09999999963,7152,WL,C,7.0
1,9.680999994277954,learn,50319.000005722046,Fri May 23 2025 14:34:39 GMT-0500 (Central Daylight Time),200815.0,A,boy,O,y,72,1,784.9000000003725,200030.09999999963,7152,WL,C,7.0
1,10.013000011444092,learn,49986.99998855591,Fri May 23 2025 14:34:39 GMT-0500 (Central Daylight Time),201146.89999999944,A,boyenter,O,enter,317,1,1116.7999999998137,200030.09999999963,7152,WL,C,7.0
1,11.879000186920166,learn,48120.999813079834,Fri May 23 2025 14:34:39 GMT-0500 (Central Daylight Time),203013.0,A,c,O,c,1848,1,1865.7000000001863,201147.2999999998,7152,WL,C,8.0
1,11.894000053405762,learn,48105.99994659424,Fri May 23 2025 14:34:39 GMT-0500 (Central Daylight Time),203027.89999999944,A,co,O,o,6,1,1880.5999999996275,201147.2999999998,7152,WL,C,8.0
1,12.062000036239624,learn,47937.999963760376,Fri May 23 2025 14:34:39 GMT-0500 (Central Daylight Time),203196.7000000002,A,cor,O,r,162,1,2049.4000000003725,201147.2999999998,7152,WL,C,8.0
1,12.164000034332275,learn,47835.999965667725,Fri May 23 2025 14:34:39 GMT-0500 (Central Daylight Time),203298.39999999944,A,corn,O,n,88,1,2151.0999999996275,201147.2999999998,7152,WL,C,8.0
1,12.394999980926514,learn,47605.000019073486,Fri May 23 2025 14:34:39 GMT-0500 (Central Daylight Time),203529.09999999963,A,cornenter,O,enter,207,1,2381.7999999998137,201147.2999999998,7152,WL,C,8.0
1,22.20900011062622,learn,37790.99988937378,Fri May 23 2025 14:34:39 GMT-0500 (Central Daylight Time),213343.5,A,b,O,b,9803,1,9814.0,203529.5,7152,WL,C,9.0
1,22.325000047683716,learn,37674.999952316284,Fri May 23 2025 14:34:39 GMT-0500 (Central Daylight Time),213459.5,A,bo,O,o,100,1,9930.0,203529.5,7152,WL,C,9.0
1,22.41000008583069,learn,37589.99991416931,Fri May 23 2025 14:34:39 GMT-0500 (Central Daylight Time),213543.89999999944,A,boy,O,y,61,1,10014.399999999441,203529.5,7152,WL,C,9.0
1,22.743000030517578,learn,37256.99996948242,Fri May 23 2025 14:34:39 GMT-0500 (Central Daylight Time),213877.0,A,boyenter,O,enter,322,1,10347.5,203529.5,7152,WL,C,9.0
1,25.992000102996826,learn,34007.999897003174,Fri May 23 2025 14:34:39 GMT-0500 (Central Daylight Time),217126.2000000002,A,n,O,n,3231,1,3248.9000000003725,213877.2999999998,7152,WL,C,10.0
1,26.407999992370605,learn,33592.000007629395,Fri May 23 2025 14:34:39 GMT-0500 (Central Daylight Time),217541.89999999944,A,na,O,a,404,1,3664.5999999996275,213877.2999999998,7152,WL,C,10.0
1,26.4760000705719,learn,33523.9999294281,Fri May 23 2025 14:34:39 GMT-0500 (Central Daylight Time),217610.59999999963,A,nai,O,i,63,1,3733.2999999998137,213877.2999999998,7152,WL,C,10.0
1,26.624000072479248,learn,33375.99992752075,Fri May 23 2025 14:34:39 GMT-0500 (Central Daylight Time),217758.89999999944,A,nail,O,l,137,1,3881.5999999996275,213877.2999999998,7152,WL,C,10.0
1,27.157999992370605,learn,32842.000007629395,Fri May 23 2025 14:34:39 GMT-0500 (Central Daylight Time),218292.59999999963,A,nailenter,O,enter,526,1,4415.299999999814,213877.2999999998,7152,WL,C,10.0
1,33.07200002670288,learn,26927.99997329712,Fri May 23 2025 14:34:39 GMT-0500 (Central Daylight Time),224206.7000000002,A,c,O,c,5904,1,5913.9000000003725,218292.7999999998,7152,WL,C,11.0
1,33.15500020980835,learn,26844.99979019165,Fri May 23 2025 14:34:39 GMT-0500 (Central Daylight Time),224289.2999999998,A,co,O,o,69,1,5996.5,218292.7999999998,7152,WL,C,11.0
1,33.290000200271606,learn,26709.999799728394,Fri May 23 2025 14:34:39 GMT-0500 (Central Daylight Time),224424.0,A,cow,O,w,121,1,6131.200000000186,218292.7999999998,7152,WL,C,11.0
1,33.42200016975403,learn,26577.99983024597,Fri May 23 2025 14:34:39 GMT-0500 (Central Daylight Time),224556.39999999944,A,cowenter,O,enter,113,1,6263.5999999996275,218292.7999999998,7152,WL,C,11.0
1,46.652000188827515,learn,13347.999811172485,Fri May 23 2025 14:34:39 GMT-0500 (Central Daylight Time),237786.09999999963,A,s,O,s,13216,1,13229.399999999441,224556.7000000002,7152,WL,C,12.0
1,46.699000120162964,learn,13300.999879837036,Fri May 23 2025 14:34:39 GMT-0500 (Central Daylight Time),237833.7999999998,A,sh,O,h,41,1,13277.099999999627,224556.7000000002,7152,WL,C,12.0
1,46.782999992370605,learn,13217.000007629395,Fri May 23 2025 14:34:39 GMT-0500 (Central Daylight Time),237917.59999999963,A,sho,O,o,75,1,13360.899999999441,224556.7000000002,7152,WL,C,12.0
1,46.88600015640259,learn,13113.999843597412,Fri May 23 2025 14:34:39 GMT-0500 (Central Daylight Time),238020.59999999963,A,shor,O,r,84,1,13463.899999999441,224556.7000000002,7152,WL,C,12.0
1,46.95099997520447,learn,13049.000024795532,Fri May 23 2025 14:34:39 GMT-0500 (Central Daylight Time),238085.2000000002,A,shore,O,e,54,1,13528.5,224556.7000000002,7152,WL,C,12.0
1,47.08500003814697,learn,12914.999961853027,Fri May 23 2025 14:34:39 GMT-0500 (Central Daylight Time),238219.5,A,shoreenter,O,enter,119,1,13662.799999999814,224556.7000000002,7152,WL,C,12.0
1,51.41600012779236,learn,8583.999872207642,Fri May 23 2025 14:34:39 GMT-0500 (Central Daylight Time),242550.39999999944,A,enter,O,enter,4320,1,4330.5,238219.89999999944,7152,WL,C,13.0
1,51.73200011253357,learn,8267.99988746643,Fri May 23 2025 14:34:39 GMT-0500 (Central Daylight Time),242867.0,A,enter,O,enter,312,1,316.29999999981374,242550.7000000002,7152,WL,C,14.0
1,52.632000207901,learn,7367.999792098999,Fri May 23 2025 14:34:39 GMT-0500 (Central Daylight Time),243767.0,A,enter,O,enter,890,1,899.7000000001863,242867.2999999998,7152,WL,C,15.0
2,0.5329999923706055,learn,59467.000007629395,Fri May 23 2025 14:34:39 GMT-0500 (Central Daylight Time),319127.5,A,t,O,t,508,1,533.1000000005588,318594.39999999944,7152,WL,C,1.0
2,0.6489999294281006,learn,59351.0000705719,Fri May 23 2025 14:34:39 GMT-0500 (Central Daylight Time),319243.0999999996,A,to,O,o,99,1,648.7000000001863,318594.39999999944,7152,WL,C,1.0
2,0.818000078201294,learn,59181.999921798706,Fri May 23 2025 14:34:39 GMT-0500 (Central Daylight Time),319411.7999999998,A,tow,O,w,162,1,817.4000000003725,318594.39999999944,7152,WL,C,1.0
2,0.9309999942779541,learn,59069.000005722046,Fri May 23 2025 14:34:39 GMT-0500 (Central Daylight Time),319525.5,A,towe,O,e,103,1,931.1000000005588,318594.39999999944,7152,WL,C,1.0
2,1.0179998874664307,learn,58982.00011253357,Fri May 23 2025 14:34:39 GMT-0500 (Central Daylight Time),319612.0,A,tower,O,r,71,1,1017.6000000005588,318594.39999999944,7152,WL,C,1.0
2,1.1370000839233398,learn,58862.99991607666,Fri May 23 2025 14:34:39 GMT-0500 (Central Daylight Time),319731.2000000002,A,towerenter,O,enter,105,1,1136.800000000745,318594.39999999944,7152,WL,C,1.0
2,1.5339999198913574,learn,58466.00008010864,Fri May 23 2025 14:34:39 GMT-0500 (Central Daylight Time),320128.2999999998,A,w,O,w,387,1,396.5,319731.7999999998,7152,WL,C,2.0
2,1.6480000019073486,learn,58351.99999809265,Fri May 23 2025 14:34:39 GMT-0500 (Central Daylight Time),320242.0,A,wh,O,h,96,1,510.20000000018626,319731.7999999998,7152,WL,C,2.0
2,1.7839999198913574,learn,58216.00008010864,Fri May 23 2025 14:34:39 GMT-0500 (Central Daylight Time),320378.2999999998,A,whe,O,e,131,1,646.5,319731.7999999998,7152,WL,C,2.0
2,1.8489999771118164,learn,58151.00002288818,Fri May 23 2025 14:34:39 GMT-0500 (Central Daylight Time),320442.7999999998,A,whea,O,a,44,1,711.0,319731.7999999998,7152,WL,C,2.0
2,1.9660000801086426,learn,58033.99991989136,Fri May 23 2025 14:34:39 GMT-0500 (Central Daylight Time),320560.0,A,wheat,O,t,103,1,828.2000000001863,319731.7999999998,7152,WL,C,2.0
2,2.1500000953674316,learn,57849.99990463257,Fri May 23 2025 14:34:39 GMT-0500 (Central Daylight Time),320743.7999999998,A,wheatenter,O,enter,161,1,1012.0,319731.7999999998,7152,WL,C,2.0
2,2.569000005722046,learn,57430.999994277954,Fri May 23 2025 14:34:39 GMT-0500 (Central Daylight Time),321162.5999999996,A,q,O,q,413,1,418.59999999962747,320744.0,7152,WL,C,3.0
2,2.680999994277954,learn,57319.000005722046,Fri May 23 2025 14:34:39 GMT-0500 (Central Daylight Time),321275.2000000002,A,qu,O,u,96,1,531.2000000001863,320744.0,7152,WL,C,3.0
2,2.799999952316284,learn,57200.000047683716,Fri May 23 2025 14:34:39 GMT-0500 (Central Daylight Time),321394.5,A,que,O,e,94,1,650.5,320744.0,7152,WL,C,3.0
2,2.947999954223633,learn,57052.00004577637,Fri May 23 2025 14:34:39 GMT-0500 (Central Daylight Time),321542.2000000002,A,quee,O,e,124,1,798.2000000001863,320744.0,7152,WL,C,3.0
2,3.0169999599456787,learn,56983.00004005432,Fri May 23 2025 14:34:39 GMT-0500 (Central Daylight Time),321610.89999999944,A,queen,O,n,63,1,866.8999999994412,320744.0,7152,WL,C,3.0
2,3.200000047683716,learn,56799.999952316284,Fri May 23 2025 14:34:39 GMT-0500 (Central Daylight Time),321794.0,A,queenenter,O,enter,173,1,1050.0,320744.0,7152,WL,C,3.0
2,4.914999961853027,learn,55085.00003814697,Fri May 23 2025 14:34:39 GMT-0500 (Central Daylight Time),323509.2999999998,A,d,O,d,1699,1,1715.0,321794.2999999998,7152,WL,C,4.0
2,5.016000032424927,learn,54983.99996757507,Fri May 23 2025 14:34:39 GMT-0500 (Central Daylight Time),323609.7000000002,A,do,O,o,77,1,1815.4000000003725,321794.2999999998,7152,WL,C,4.0
2,5.115000009536743,learn,54884.99999046326,Fri May 23 2025 14:34:39 GMT-0500 (Central Daylight Time),323709.0999999996,A,doc,O,c,89,1,1914.7999999998137,321794.2999999998,7152,WL,C,4.0
2,5.266000032424927,learn,54733.99996757507,Fri May 23 2025 14:34:39 GMT-0500 (Central Daylight Time),323860.0999999996,A,doct,O,t,143,1,2065.7999999998137,321794.2999999998,7152,WL,C,4.0
2,5.3480000495910645,learn,54651.999950408936,Fri May 23 2025 14:34:39 GMT-0500 (Central Daylight Time),323942.2000000002,A,docto,O,o,69,1,2147.9000000003725,321794.2999999998,7152,WL,C,4.0
2,5.450000047683716,learn,54549.999952316284,Fri May 23 2025 14:34:39 GMT-0500 (Central Daylight Time),324043.5999999996,A,doctor,O,r,96,1,2249.2999999998137,321794.2999999998,7152,WL,C,4.0
2,5.546999931335449,learn,54453.00006866455,Fri May 23 2025 14:34:39 GMT-0500 (Central Daylight Time),324141.5,A,doctorenter,O,enter,78,1,2347.2000000001863,321794.2999999998,7152,WL,C,4.0
2,5.832000017166138,learn,54167.99998283386,Fri May 23 2025 14:34:39 GMT-0500 (Central Daylight Time),324426.2000000002,A,c,O,c,271,1,284.40000000037253,324141.7999999998,7152,WL,C,5.0
2,5.948999881744385,learn,54051.000118255615,Fri May 23 2025 14:34:39 GMT-0500 (Central Daylight Time),324542.7999999998,A,ca,O,a,94,1,401.0,324141.7999999998,7152,WL,C,5.0
2,6.081000089645386,learn,53918.999910354614,Fri May 23 2025 14:34:39 GMT-0500 (Central Daylight Time),324675.0999999996,A,cat,O,t,123,1,533.2999999998137,324141.7999999998,7152,WL,C,5.0
2,6.2149999141693115,learn,53785.00008583069,Fri May 23 2025 14:34:39 GMT-0500 (Central Daylight Time),324808.7000000002,A,catt,O,t,109,1,666.9000000003725,324141.7999999998,7152,WL,C,5.0
2,6.331000089645386,learn,53668.999910354614,Fri May 23 2025 14:34:39 GMT-0500 (Central Daylight Time),324925.0999999996,A,cattl,O,l,108,1,783.2999999998137,324141.7999999998,7152,WL,C,5.0
2,6.430999994277954,learn,53569.000005722046,Fri May 23 2025 14:34:39 GMT-0500 (Central Daylight Time),325025.5,A,cattle,O,e,78,1,883.7000000001863,324141.7999999998,7152,WL,C,5.0
2,6.54800009727478,learn,53451.99990272522,Fri May 23 2025 14:34:39 GMT-0500 (Central Daylight Time),325141.7000000002,A,cattleenter,O,enter,104,1,999.9000000003725,324141.7999999998,7152,WL,C,5.0
2,6.897000074386597,learn,53102.9999256134,Fri May 23 2025 14:34:39 GMT-0500 (Central Daylight Time),325490.89999999944,A,c,O,c,327,1,348.79999999981374,325142.0999999996,7152,WL,C,6.0
2,6.9649999141693115,learn,53035.00008583069,Fri May 23 2025 14:34:39 GMT-0500 (Central Daylight Time),325559.5,A,ca,O,a,44,1,417.40000000037253,325142.0999999996,7152,WL,C,6.0
2,7.0299999713897705,learn,52970.00002861023,Fri May 23 2025 14:34:39 GMT-0500 (Central Daylight Time),325624.0,A,cam,O,m,46,1,481.90000000037253,325142.0999999996,7152,WL,C,6.0
2,7.115000009536743,learn,52884.99999046326,Fri May 23 2025 14:34:39 GMT-0500 (Central Daylight Time),325709.0,A,camp,O,p,78,1,566.9000000003725,325142.0999999996,7152,WL,C,6.0
2,7.412999868392944,learn,52587.000131607056,Fri May 23 2025 14:34:39 GMT-0500 (Central Daylight Time),326007.5,A,campenter,O,enter,284,1,865.4000000003725,325142.0999999996,7152,WL,C,6.0
2,10.86299991607666,learn,49137.00008392334,Fri May 23 2025 14:34:39 GMT-0500 (Central Daylight Time),329456.7000000002,A,h,O,h,3429,1,3449.0,326007.7000000002,7152,WL,C,7.0
2,10.961999893188477,learn,49038.00010681152,Fri May 23 2025 14:34:39 GMT-0500 (Central Daylight Time),329556.5999999996,A,ho,O,o,82,1,3548.899999999441,326007.7000000002,7152,WL,C,7.0
2,11.078999996185303,learn,48921.0000038147,Fri May 23 2025 14:34:39 GMT-0500 (Central Daylight Time),329673.5,A,hom,O,m,103,1,3665.7999999998137,326007.7000000002,7152,WL,C,7.0
2,11.211999893188477,learn,48788.00010681152,Fri May 23 2025 14:34:39 GMT-0500 (Central Daylight Time),329806.39999999944,A,home,O,e,114,1,3798.699999999255,326007.7000000002,7152,WL,C,7.0
2,11.361999988555908,learn,48638.00001144409,Fri May 23 2025 14:34:39 GMT-0500 (Central Daylight Time),329956.0,A,homeenter,O,enter,132,1,3948.2999999998137,326007.7000000002,7152,WL,C,7.0
2,15.694999933242798,learn,44305.0000667572,Fri May 23 2025 14:34:39 GMT-0500 (Central Daylight Time),334288.7999999998,A,n,O,n,4321,1,4332.5,329956.2999999998,7152,WL,C,8.0
2,15.944000005722046,learn,44055.999994277954,Fri May 23 2025 14:34:39 GMT-0500 (Central Daylight Time),334538.5,A,na,O,a,236,1,4582.200000000186,329956.2999999998,7152,WL,C,8.0
2,16.09500002861023,learn,43904.99997138977,Fri May 23 2025 14:34:39 GMT-0500 (Central Daylight Time),334688.89999999944,A,nai,O,i,128,1,4732.5999999996275,329956.2999999998,7152,WL,C,8.0
2,16.193000078201294,learn,43806.999921798706,Fri May 23 2025 14:34:39 GMT-0500 (Central Daylight Time),334787.5999999996,A,nail,O,l,81,1,4831.299999999814,329956.2999999998,7152,WL,C,8.0
2,17.710000038146973,learn,42289.99996185303,Fri May 23 2025 14:34:39 GMT-0500 (Central Daylight Time),336304.39999999944,A,nailenter,O,enter,1502,1,6348.0999999996275,329956.2999999998,7152,WL,C,8.0
2,18.07699990272522,learn,41923.00009727478,Fri May 23 2025 14:34:39 GMT-0500 (Central Daylight Time),336671.39999999944,A,c,O,c,356,1,366.79999999981374,336304.5999999996,7152,WL,C,9.0
2,18.16000008583069,learn,41839.99991416931,Fri May 23 2025 14:34:39 GMT-0500 (Central Daylight Time),336754.2999999998,A,co,O,o,60,1,449.70000000018626,336304.5999999996,7152,WL,C,9.0
2,18.30999994277954,learn,41690.00005722046,Fri May 23 2025 14:34:39 GMT-0500 (Central Daylight Time),336904.2999999998,A,cor,O,r,137,1,599.7000000001863,336304.5999999996,7152,WL,C,9.0
2,18.408999919891357,learn,41591.00008010864,Fri May 23 2025 14:34:39 GMT-0500 (Central Daylight Time),337003.5,A,corn,O,n,83,1,698.9000000003725,336304.5999999996,7152,WL,C,9.0
2,18.609999895095825,learn,41390.000104904175,Fri May 23 2025 14:34:39 GMT-0500 (Central Daylight Time),337203.7000000002,A,cornenter,O,enter,183,1,899.1000000005588,336304.5999999996,7152,WL,C,9.0
2,18.825999975204468,learn,41174.00002479553,Fri May 23 2025 14:34:39 GMT-0500 (Central Daylight Time),337420.0,A,s,O,s,201,1,216.1000000005588,337203.89999999944,7152,WL,C,10.0
2,18.91000008583069,learn,41089.99991416931,Fri May 23 2025 14:34:39 GMT-0500 (Central Daylight Time),337504.2000000002,A,sh,O,h,61,1,300.30000000074506,337203.89999999944,7152,WL,C,10.0
2,18.993000030517578,learn,41006.99996948242,Fri May 23 2025 14:34:39 GMT-0500 (Central Daylight Time),337587.0999999996,A,sho,O,o,66,1,383.20000000018626,337203.89999999944,7152,WL,C,10.0
2,19.04099988937378,learn,40959.00011062622,Fri May 23 2025 14:34:39 GMT-0500 (Central Daylight Time),337635.2999999998,A,shor,O,r,38,1,431.40000000037253,337203.89999999944,7152,WL,C,10.0
2,19.128000020980835,learn,40871.999979019165,Fri May 23 2025 14:34:39 GMT-0500 (Central Daylight Time),337721.5999999996,A,shore,O,e,74,1,517.7000000001863,337203.89999999944,7152,WL,C,10.0
2,19.24399995803833,learn,40756.00004196167,Fri May 23 2025 14:34:39 GMT-0500 (Central Daylight Time),337837.5999999996,A,shoreenter,O,enter,105,1,633.7000000001863,337203.89999999944,7152,WL,C,10.0
2,23.075000047683716,learn,36924.999952316284,Fri May 23 2025 14:34:39 GMT-0500 (Central Daylight Time),341668.5999999996,A,l,O,l,3815,1,3830.7000000001863,337837.89999999944,7152,WL,C,11.0
2,23.157999992370605,learn,36842.000007629395,Fri May 23 2025 14:34:39 GMT-0500 (Central Daylight Time),341752.0999999996,A,le,O,e,69,1,3914.2000000001863,337837.89999999944,7152,WL,C,11.0
2,23.30900001525879,learn,36690.99998474121,Fri May 23 2025 14:34:39 GMT-0500 (Central Daylight Time),341903.2999999998,A,let,O,t,130,1,4065.4000000003725,337837.89999999944,7152,WL,C,11.0
2,23.424999952316284,learn,36575.000047683716,Fri May 23 2025 14:34:39 GMT-0500 (Central Daylight Time),342019.0999999996,A,lett,O,t,108,1,4181.200000000186,337837.89999999944,7152,WL,C,11.0
2,23.608999967575073,learn,36391.00003242493,Fri May 23 2025 14:34:39 GMT-0500 (Central Daylight Time),342202.7999999998,A,lette,O,e,167,1,4364.9000000003725,337837.89999999944,7152,WL,C,11.0
2,23.657000064849854,learn,36342.99993515015,Fri May 23 2025 14:34:39 GMT-0500 (Central Daylight Time),342250.7000000002,A,letter,O,r,39,1,4412.800000000745,337837.89999999944,7152,WL,C,11.0
2,23.808000087738037,learn,36191.99991226196,Fri May 23 2025 14:34:39 GMT-0500 (Central Daylight Time),342402.0999999996,A,letterenter,O,enter,138,1,4564.200000000186,337837.89999999944,7152,WL,C,11.0
2,29.374000072479248,learn,30625.999927520752,Fri May 23 2025 14:34:39 GMT-0500 (Central Daylight Time),347968.0999999996,A,d,O,d,5555,1,5565.5999999996275,342402.5,7152,WL,C,12.0
2,29.507999897003174,learn,30492.000102996826,Fri May 23 2025 14:34:39 GMT-0500 (Central Daylight Time),348102.2999999998,A,do,O,o,111,1,5699.799999999814,342402.5,7152,WL,C,12.0
2,29.624000072479248,learn,30375.999927520752,Fri May 23 2025 14:34:39 GMT-0500 (Central Daylight Time),348217.89999999944,A,doc,O,c,100,1,5815.399999999441,342402.5,7152,WL,C,12.0
2,29.75600004196167,learn,30243.99995803833,Fri May 23 2025 14:34:39 GMT-0500 (Central Daylight Time),348350.5999999996,A,doct,O,t,123,1,5948.0999999996275,342402.5,7152,WL,C,12.0
2,29.889999866485596,learn,30110.000133514404,Fri May 23 2025 14:34:39 GMT-0500 (Central Daylight Time),348484.2999999998,A,docto,O,o,127,1,6081.799999999814,342402.5,7152,WL,C,12.0
2,30.0239999294281,learn,29976.0000705719,Fri May 23 2025 14:34:39 GMT-0500 (Central Daylight Time),348618.39999999944,A,doctor,O,r,112,1,6215.899999999441,342402.5,7152,WL,C,12.0
2,30.155999898910522,learn,29844.000101089478,Fri May 23 2025 14:34:39 GMT-0500 (Central Daylight Time),348749.7999999998,A,doctorenter,O,enter,119,1,6347.299999999814,342402.5,7152,WL,C,12.0
2,31.624000072479248,learn,28375.999927520752,Fri May 23 2025 14:34:39 GMT-0500 (Central Daylight Time),350217.89999999944,A,enter,O,enter,1465,1,1467.7999999998137,348750.0999999996,7152,WL,C,13.0
2,31.789000034332275,learn,28210.999965667725,Fri May 23 2025 14:34:39 GMT-0500 (Central Daylight Time),350383.0,A,enter,O,enter,146,1,164.79999999981374,350218.2000000002,7152,WL,C,14.0
2,34.537999868392944,learn,25462.000131607056,Fri May 23 2025 14:34:39 GMT-0500 (Central Daylight Time),353131.7000000002,A,enter,O,enter,2732,1,2748.300000000745,350383.39999999944,7152,WL,C,15.0
3,1.2170000076293945,learn,58782.999992370605,Fri May 23 2025 14:34:39 GMT-0500 (Central Daylight Time),419878.2999999998,A,b,O,b,1207,1,1216.9000000003725,418661.39999999944,7152,WL,C,1.0
3,1.2640001773834229,learn,58735.99982261658,Fri May 23 2025 14:34:39 GMT-0500 (Central Daylight Time),419925.5999999996,A,bo,O,o,29,1,1264.2000000001863,418661.39999999944,7152,WL,C,1.0
3,1.7669999599456787,learn,58233.00004005432,Fri May 23 2025 14:34:39 GMT-0500 (Central Daylight Time),420428.2000000002,A,bod,O,d,489,1,1766.800000000745,418661.39999999944,7152,WL,C,1.0
3,1.8680000305175781,learn,58131.99996948242,Fri May 23 2025 14:34:39 GMT-0500 (Central Daylight Time),420529.0,A,body,O,y,76,1,1867.6000000005588,418661.39999999944,7152,WL,C,1.0
3,2.065999984741211,learn,57934.00001525879,Fri May 23 2025 14:34:39 GMT-0500 (Central Daylight Time),420727.7000000002,A,bodyenter,O,enter,178,1,2066.300000000745,418661.39999999944,7152,WL,C,1.0
3,2.299999952316284,learn,57700.000047683716,Fri May 23 2025 14:34:39 GMT-0500 (Central Daylight Time),420961.7000000002,A,s,O,s,222,1,233.80000000074506,420727.89999999944,7152,WL,C,2.0
3,2.4170000553131104,learn,57582.99994468689,Fri May 23 2025 14:34:39 GMT-0500 (Central Daylight Time),421078.7000000002,A,sh,O,h,106,1,350.80000000074506,420727.89999999944,7152,WL,C,2.0
3,2.4830000400543213,learn,57516.99995994568,Fri May 23 2025 14:34:39 GMT-0500 (Central Daylight Time),421144.0999999996,A,sho,O,o,44,1,416.20000000018626,420727.89999999944,7152,WL,C,2.0
3,2.5830001831054688,learn,57416.99981689453,Fri May 23 2025 14:34:39 GMT-0500 (Central Daylight Time),421244.7999999998,A,shor,O,r,84,1,516.9000000003725,420727.89999999944,7152,WL,C,2.0
3,2.6490001678466797,learn,57350.99983215332,Fri May 23 2025 14:34:39 GMT-0500 (Central Daylight Time),421310.0,A,shore,O,e,53,1,582.1000000005588,420727.89999999944,7152,WL,C,2.0
3,2.7820000648498535,learn,57217.99993515015,Fri May 23 2025 14:34:39 GMT-0500 (Central Daylight Time),421443.7000000002,A,shoreenter,O,enter,117,1,715.8000000007451,420727.89999999944,7152,WL,C,2.0
3,3.4160001277923584,learn,56583.99987220764,Fri May 23 2025 14:34:39 GMT-0500 (Central Daylight Time),422077.7000000002,A,t,O,t,625,1,633.7000000001863,421444.0,7152,WL,C,3.0
3,3.5,learn,56500.0,Fri May 23 2025 14:34:39 GMT-0500 (Central Daylight Time),422161.2000000002,A,to,O,o,60,1,717.2000000001863,421444.0,7152,WL,C,3.0
3,3.6490001678466797,learn,56350.99983215332,Fri May 23 2025 14:34:39 GMT-0500 (Central Daylight Time),422310.2000000002,A,tow,O,w,131,1,866.2000000001863,421444.0,7152,WL,C,3.0
3,3.697999954223633,learn,56302.00004577637,Fri May 23 2025 14:34:39 GMT-0500 (Central Daylight Time),422359.7999999998,A,towe,O,e,36,1,915.7999999998137,421444.0,7152,WL,C,3.0
3,3.815999984741211,learn,56184.00001525879,Fri May 23 2025 14:34:39 GMT-0500 (Central Daylight Time),422477.5,A,tower,O,r,95,1,1033.5,421444.0,7152,WL,C,3.0
3,4.133000135421753,learn,55866.99986457825,Fri May 23 2025 14:34:39 GMT-0500 (Central Daylight Time),422794.5,A,towerenter,O,enter,311,1,1350.5,421444.0,7152,WL,C,3.0
3,4.334000110626221,learn,55665.99988937378,Fri May 23 2025 14:34:39 GMT-0500 (Central Daylight Time),422995.5,A,w,O,w,186,1,200.6000000005588,422794.89999999944,7152,WL,C,4.0
3,4.432000160217285,learn,55567.999839782715,Fri May 23 2025 14:34:39 GMT-0500 (Central Daylight Time),423093.7000000002,A,wh,O,h,76,1,298.80000000074506,422794.89999999944,7152,WL,C,4.0
3,4.552000045776367,learn,55447.99995422363,Fri May 23 2025 14:34:39 GMT-0500 (Central Daylight Time),423213.2999999998,A,whe,O,e,112,1,418.40000000037253,422794.89999999944,7152,WL,C,4.0
3,4.5970001220703125,learn,55402.99987792969,Fri May 23 2025 14:34:39 GMT-0500 (Central Daylight Time),423258.2000000002,A,whea,O,a,26,1,463.30000000074506,422794.89999999944,7152,WL,C,4.0
3,4.684000015258789,learn,55315.99998474121,Fri May 23 2025 14:34:39 GMT-0500 (Central Daylight Time),423345.5,A,wheat,O,t,74,1,550.6000000005588,422794.89999999944,7152,WL,C,4.0
3,5.164999961853027,learn,54835.00003814697,Fri May 23 2025 14:34:39 GMT-0500 (Central Daylight Time),423826.0999999996,A,wheatenter,O,enter,465,1,1031.2000000001863,422794.89999999944,7152,WL,C,4.0
3,5.699000120162964,learn,54300.999879837036,Fri May 23 2025 14:34:39 GMT-0500 (Central Daylight Time),424360.7000000002,A,q,O,q,522,1,534.3000000007451,423826.39999999944,7152,WL,C,5.0
3,5.764000177383423,learn,54235.99982261658,Fri May 23 2025 14:34:39 GMT-0500 (Central Daylight Time),424425.89999999944,A,qu,O,u,50,1,599.5,423826.39999999944,7152,WL,C,5.0
3,5.900000095367432,learn,54099.99990463257,Fri May 23 2025 14:34:39 GMT-0500 (Central Daylight Time),424561.39999999944,A,que,O,e,114,1,735.0,423826.39999999944,7152,WL,C,5.0
3,6.015000104904175,learn,53984.999895095825,Fri May 23 2025 14:34:39 GMT-0500 (Central Daylight Time),424676.0999999996,A,quee,O,e,105,1,849.7000000001863,423826.39999999944,7152,WL,C,5.0
3,6.116000175476074,learn,53883.999824523926,Fri May 23 2025 14:34:39 GMT-0500 (Central Daylight Time),424777.39999999944,A,queen,O,n,76,1,951.0,423826.39999999944,7152,WL,C,5.0
3,6.265000104904175,learn,53734.999895095825,Fri May 23 2025 14:34:39 GMT-0500 (Central Daylight Time),424926.0,A,queenenter,O,enter,129,1,1099.6000000005588,423826.39999999944,7152,WL,C,5.0
3,8.180999994277954,learn,51819.000005722046,Fri May 23 2025 14:34:39 GMT-0500 (Central Daylight Time),426842.0,A,c,O,c,1911,1,1915.7999999998137,424926.2000000002,7152,WL,C,6.0
3,8.263000011444092,learn,51736.99998855591,Fri May 23 2025 14:34:39 GMT-0500 (Central Daylight Time),426924.7999999998,A,ca,O,a,72,1,1998.5999999996275,424926.2000000002,7152,WL,C,6.0
3,8.312000036239624,learn,51687.999963760376,Fri May 23 2025 14:34:39 GMT-0500 (Central Daylight Time),426973.5999999996,A,cam,O,m,30,1,2047.3999999994412,424926.2000000002,7152,WL,C,6.0
3,8.36300015449524,learn,51636.99984550476,Fri May 23 2025 14:34:39 GMT-0500 (Central Daylight Time),427023.89999999944,A,camp,O,p,39,1,2097.699999999255,424926.2000000002,7152,WL,C,6.0
3,8.630000114440918,learn,51369.99988555908,Fri May 23 2025 14:34:39 GMT-0500 (Central Daylight Time),427291.7000000002,A,campenter,O,enter,252,1,2365.5,424926.2000000002,7152,WL,C,6.0
3,8.914999961853027,learn,51085.00003814697,Fri May 23 2025 14:34:39 GMT-0500 (Central Daylight Time),427576.0999999996,A,l,O,l,273,1,284.09999999962747,427292.0,7152,WL,C,7.0
3,8.98200011253357,learn,51017.99988746643,Fri May 23 2025 14:34:39 GMT-0500 (Central Daylight Time),427643.7999999998,A,le,O,e,62,1,351.79999999981374,427292.0,7152,WL,C,7.0
3,9.116000175476074,learn,50883.999824523926,Fri May 23 2025 14:34:39 GMT-0500 (Central Daylight Time),427777.5999999996,A,let,O,t,115,1,485.59999999962747,427292.0,7152,WL,C,7.0
3,9.264000177383423,learn,50735.99982261658,Fri May 23 2025 14:34:39 GMT-0500 (Central Daylight Time),427925.2000000002,A,lett,O,t,125,1,633.2000000001863,427292.0,7152,WL,C,7.0
3,9.364000082015991,learn,50635.99991798401,Fri May 23 2025 14:34:39 GMT-0500 (Central Daylight Time),428025.2000000002,A,lette,O,e,91,1,733.2000000001863,427292.0,7152,WL,C,7.0
3,9.46500015258789,learn,50534.99984741211,Fri May 23 2025 14:34:39 GMT-0500 (Central Daylight Time),428126.5999999996,A,letter,O,r,82,1,834.5999999996275,427292.0,7152,WL,C,7.0
3,9.980000019073486,learn,50019.999980926514,Fri May 23 2025 14:34:39 GMT-0500 (Central Daylight Time),428641.7999999998,A,letterenter,O,enter,493,1,1349.7999999998137,427292.0,7152,WL,C,7.0
3,12.398000001907349,learn,47601.99999809265,Fri May 23 2025 14:34:39 GMT-0500 (Central Daylight Time),431060.0,A,s,O,s,2404,1,2417.9000000003725,428642.0999999996,7152,WL,C,8.0
3,12.513000011444092,learn,47486.99998855591,Fri May 23 2025 14:34:39 GMT-0500 (Central Daylight Time),431174.7000000002,A,su,O,u,93,1,2532.600000000559,428642.0999999996,7152,WL,C,8.0
3,12.598000049591064,learn,47401.999950408936,Fri May 23 2025 14:34:39 GMT-0500 (Central Daylight Time),431259.39999999944,A,sug,O,g,79,1,2617.2999999998137,428642.0999999996,7152,WL,C,8.0
3,12.71399998664856,learn,47286.00001335144,Fri May 23 2025 14:34:39 GMT-0500 (Central Daylight Time),431375.2000000002,A,suga,O,a,97,1,2733.100000000559,428642.0999999996,7152,WL,C,8.0
3,12.795000076293945,learn,47204.999923706055,Fri May 23 2025 14:34:39 GMT-0500 (Central Daylight Time),431456.7000000002,A,sugar,O,r,67,1,2814.600000000559,428642.0999999996,7152,WL,C,8.0
3,12.879000186920166,learn,47120.999813079834,Fri May 23 2025 14:34:39 GMT-0500 (Central Daylight Time),431540.39999999944,A,sugarenter,O,enter,66,1,2898.2999999998137,428642.0999999996,7152,WL,C,8.0
3,13.644999980926514,learn,46355.000019073486,Fri May 23 2025 14:34:39 GMT-0500 (Central Daylight Time),432307.0,A,b,O,b,752,1,766.2999999998137,431540.7000000002,7152,WL,C,9.0
3,13.712000131607056,learn,46287.999868392944,Fri May 23 2025 14:34:39 GMT-0500 (Central Daylight Time),432373.7999999998,A,bo,O,o,56,1,833.0999999996275,431540.7000000002,7152,WL,C,9.0
3,13.796000003814697,learn,46203.9999961853,Fri May 23 2025 14:34:39 GMT-0500 (Central Daylight Time),432457.7999999998,A,boy,O,y,69,1,917.0999999996275,431540.7000000002,7152,WL,C,9.0
3,14.013000011444092,learn,45986.99998855591,Fri May 23 2025 14:34:39 GMT-0500 (Central Daylight Time),432674.2000000002,A,boyenter,O,enter,200,1,1133.5,431540.7000000002,7152,WL,C,9.0
3,16.66100001335144,learn,43338.99998664856,Fri May 23 2025 14:34:39 GMT-0500 (Central Daylight Time),435322.2999999998,A,c,O,c,2634,1,2647.9000000003725,432674.39999999944,7152,WL,C,10.0
3,16.746000051498413,learn,43253.99994850159,Fri May 23 2025 14:34:39 GMT-0500 (Central Daylight Time),435407.0,A,ca,O,a,65,1,2732.600000000559,432674.39999999944,7152,WL,C,10.0
3,16.776000022888184,learn,43223.99997711182,Fri May 23 2025 14:34:39 GMT-0500 (Central Daylight Time),435437.7999999998,A,cam,O,m,17,1,2763.4000000003725,432674.39999999944,7152,WL,C,10.0
3,16.861999988555908,learn,43138.00001144409,Fri May 23 2025 14:34:39 GMT-0500 (Central Daylight Time),435523.7999999998,A,camp,O,p,81,1,2849.4000000003725,432674.39999999944,7152,WL,C,10.0
3,17.41100001335144,learn,42588.99998664856,Fri May 23 2025 14:34:39 GMT-0500 (Central Daylight Time),436072.2999999998,A,campenter,O,enter,535,1,3397.9000000003725,432674.39999999944,7152,WL,C,10.0
3,17.761000156402588,learn,42238.99984359741,Fri May 23 2025 14:34:39 GMT-0500 (Central Daylight Time),436422.7000000002,A,f,O,f,332,1,350.1000000005588,436072.5999999996,7152,WL,C,11.0
3,17.84500002861023,learn,42154.99997138977,Fri May 23 2025 14:34:39 GMT-0500 (Central Daylight Time),436506.7000000002,A,fl,O,l,68,1,434.1000000005588,436072.5999999996,7152,WL,C,11.0
3,17.945000171661377,learn,42054.99982833862,Fri May 23 2025 14:34:39 GMT-0500 (Central Daylight Time),436606.5999999996,A,fla,O,a,81,1,534.0,436072.5999999996,7152,WL,C,11.0
3,18.02900004386902,learn,41970.99995613098,Fri May 23 2025 14:34:39 GMT-0500 (Central Daylight Time),436690.7000000002,A,flag,O,g,60,1,618.1000000005588,436072.5999999996,7152,WL,C,11.0
3,18.14400005340576,learn,41855.99994659424,Fri May 23 2025 14:34:39 GMT-0500 (Central Daylight Time),436805.39999999944,A,flagenter,O,enter,103,1,732.7999999998137,436072.5999999996,7152,WL,C,11.0
3,18.82800006866455,learn,41171.99993133545,Fri May 23 2025 14:34:39 GMT-0500 (Central Daylight Time),437489.5999999996,A,s,O,s,663,1,683.8999999994412,436805.7000000002,7152,WL,C,12.0
3,18.927000045776367,learn,41072.99995422363,Fri May 23 2025 14:34:39 GMT-0500 (Central Daylight Time),437588.7000000002,A,su,O,u,91,1,783.0,436805.7000000002,7152,WL,C,12.0
3,19.011000156402588,learn,40988.99984359741,Fri May 23 2025 14:34:39 GMT-0500 (Central Daylight Time),437672.5999999996,A,sug,O,g,62,1,866.8999999994412,436805.7000000002,7152,WL,C,12.0
3,19.110000133514404,learn,40889.999866485596,Fri May 23 2025 14:34:39 GMT-0500 (Central Daylight Time),437771.2999999998,A,suga,O,a,82,1,965.5999999996275,436805.7000000002,7152,WL,C,12.0
3,19.210000038146973,learn,40789.99996185303,Fri May 23 2025 14:34:39 GMT-0500 (Central Daylight Time),437871.2000000002,A,sugar,O,r,77,1,1065.5,436805.7000000002,7152,WL,C,12.0
3,19.278000116348267,learn,40721.99988365173,Fri May 23 2025 14:34:39 GMT-0500 (Central Daylight Time),437939.0999999996,A,sugarenter,O,enter,61,1,1133.3999999994412,436805.7000000002,7152,WL,C,12.0
3,20.460000038146973,learn,39539.99996185303,Fri May 23 2025 14:34:39 GMT-0500 (Central Daylight Time),439121.5999999996,A,d,O,d,1177,1,1182.2999999998137,437939.2999999998,7152,WL,C,13.0
3,20.562999963760376,learn,39437.000036239624,Fri May 23 2025 14:34:39 GMT-0500 (Central Daylight Time),439224.5,A,do,O,o,92,1,1285.2000000001863,437939.2999999998,7152,WL,C,13.0
3,20.66200017929077,learn,39337.99982070923,Fri May 23 2025 14:34:39 GMT-0500 (Central Daylight Time),439323.2000000002,A,doc,O,c,93,1,1383.9000000003725,437939.2999999998,7152,WL,C,13.0
3,20.792999982833862,learn,39207.00001716614,Fri May 23 2025 14:34:39 GMT-0500 (Central Daylight Time),439454.7999999998,A,doct,O,t,111,1,1515.5,437939.2999999998,7152,WL,C,13.0
3,20.89400005340576,learn,39105.99994659424,Fri May 23 2025 14:34:39 GMT-0500 (Central Daylight Time),439555.2000000002,A,docto,O,o,80,1,1615.9000000003725,437939.2999999998,7152,WL,C,13.0
3,20.94099998474121,learn,39059.00001525879,Fri May 23 2025 14:34:39 GMT-0500 (Central Daylight Time),439602.89999999944,A,doctor,O,r,28,1,1663.5999999996275,437939.2999999998,7152,WL,C,13.0
3,21.044000148773193,learn,38955.99985122681,Fri May 23 2025 14:34:39 GMT-0500 (Central Daylight Time),439705.39999999944,A,doctorenter,O,enter,90,1,1766.0999999996275,437939.2999999998,7152,WL,C,13.0
3,21.276999950408936,learn,38723.000049591064,Fri May 23 2025 14:34:39 GMT-0500 (Central Daylight Time),439938.0,A,l,O,l,220,1,232.40000000037253,439705.5999999996,7152,WL,C,14.0
3,21.360000133514404,learn,38639.999866485596,Fri May 23 2025 14:34:39 GMT-0500 (Central Daylight Time),440021.39999999944,A,le,O,e,63,1,315.79999999981374,439705.5999999996,7152,WL,C,14.0
3,21.47699999809265,learn,38523.00000190735,Fri May 23 2025 14:34:39 GMT-0500 (Central Daylight Time),440138.2000000002,A,let,O,t,103,1,432.6000000005588,439705.5999999996,7152,WL,C,14.0
3,21.608999967575073,learn,38391.00003242493,Fri May 23 2025 14:34:39 GMT-0500 (Central Daylight Time),440270.5,A,lett,O,t,114,1,564.9000000003725,439705.5999999996,7152,WL,C,14.0
3,21.694000005722046,learn,38305.999994277954,Fri May 23 2025 14:34:39 GMT-0500 (Central Daylight Time),440355.89999999944,A,lette,O,e,79,1,650.2999999998137,439705.5999999996,7152,WL,C,14.0
3,21.79200005531311,learn,38207.99994468689,Fri May 23 2025 14:34:39 GMT-0500 (Central Daylight Time),440453.7000000002,A,letter,O,r,78,1,748.1000000005588,439705.5999999996,7152,WL,C,14.0
3,21.861999988555908,learn,38138.00001144409,Fri May 23 2025 14:34:39 GMT-0500 (Central Daylight Time),440523.5,A,letterenter,O,enter,64,1,817.9000000003725,439705.5999999996,7152,WL,C,14.0
3,26.424999952316284,learn,33575.000047683716,Fri May 23 2025 14:34:39 GMT-0500 (Central Daylight Time),445086.7999999998,A,c,O,c,4545,1,4563.0999999996275,440523.7000000002,7152,WL,C,15.0
3,26.508000135421753,learn,33491.99986457825,Fri May 23 2025 14:34:39 GMT-0500 (Central Daylight Time),445170.0,A,ca,O,a,73,1,4646.299999999814,440523.7000000002,7152,WL,C,15.0
3,26.64199995994568,learn,33358.00004005432,Fri May 23 2025 14:34:39 GMT-0500 (Central Daylight Time),445303.2000000002,A,cat,O,t,111,1,4779.5,440523.7000000002,7152,WL,C,15.0
3,26.759000062942505,learn,33240.999937057495,Fri May 23 2025 14:34:39 GMT-0500 (Central Daylight Time),445420.0999999996,A,catt,O,t,101,1,4896.399999999441,440523.7000000002,7152,WL,C,15.0
3,26.87600016593933,learn,33123.99983406067,Fri May 23 2025 14:34:39 GMT-0500 (Central Daylight Time),445537.7999999998,A,cattl,O,l,94,1,5014.0999999996275,440523.7000000002,7152,WL,C,15.0
3,26.95800018310547,learn,33041.99981689453,Fri May 23 2025 14:34:39 GMT-0500 (Central Daylight Time),445619.2999999998,A,cattle,O,e,74,1,5095.5999999996275,440523.7000000002,7152,WL,C,15.0
3,27.074000120162964,learn,32925.999879837036,Fri May 23 2025 14:34:39 GMT-0500 (Central Daylight Time),445735.39999999944,A,cattleenter,O,enter,95,1,5211.699999999255,440523.7000000002,7152,WL,C,15.0
4,23.05999994277954,learn,36940.00005722046,Fri May 23 2025 14:34:39 GMT-0500 (Central Daylight Time),534325.0,A,w,O,w,23043,1,23059.700000000186,511265.2999999998,7152,WL,C,1.0
4,23.15999984741211,learn,36840.00015258789,Fri May 23 2025 14:34:39 GMT-0500 (Central Daylight Time),534425.0,A,wh,O,h,95,1,23159.700000000186,511265.2999999998,7152,WL,C,1.0
4,23.292999982833862,learn,36707.00001716614,Fri May 23 2025 14:34:39 GMT-0500 (Central Daylight Time),534558.0,A,whe,O,e,123,1,23292.700000000186,511265.2999999998,7152,WL,C,1.0
4,23.411999940872192,learn,36588.00005912781,Fri May 23 2025 14:34:39 GMT-0500 (Central Daylight Time),534676.2000000002,A,whea,O,a,112,1,23410.900000000373,511265.2999999998,7152,WL,C,1.0
4,23.526999950408936,learn,36473.000049591064,Fri May 23 2025 14:34:39 GMT-0500 (Central Daylight Time),534791.7000000002,A,wheat,O,t,101,1,23526.400000000373,511265.2999999998,7152,WL,C,1.0
4,23.76099991798401,learn,36239.00008201599,Fri May 23 2025 14:34:39 GMT-0500 (Central Daylight Time),535026.0999999996,A,wheatenter,O,enter,227,1,23760.799999999814,511265.2999999998,7152,WL,C,1.0
4,24.05999994277954,learn,35940.00005722046,Fri May 23 2025 14:34:39 GMT-0500 (Central Daylight Time),535325.0999999996,A,q,O,q,277,1,298.70000000018626,535026.3999999994,7152,WL,C,2.0
4,24.194000005722046,learn,35805.999994277954,Fri May 23 2025 14:34:39 GMT-0500 (Central Daylight Time),535458.7999999998,A,qu,O,u,117,1,432.40000000037253,535026.3999999994,7152,WL,C,2.0
4,24.359999895095825,learn,35640.000104904175,Fri May 23 2025 14:34:39 GMT-0500 (Central Daylight Time),535624.3999999994,A,que,O,e,152,1,598.0,535026.3999999994,7152,WL,C,2.0
4,24.526999950408936,learn,35473.000049591064,Fri May 23 2025 14:34:39 GMT-0500 (Central Daylight Time),535791.2000000002,A,quee,O,e,153,1,764.8000000007451,535026.3999999994,7152,WL,C,2.0
4,24.609999895095825,learn,35390.000104904175,Fri May 23 2025 14:34:39 GMT-0500 (Central Daylight Time),535874.5,A,queen,O,n,67,1,848.1000000005588,535026.3999999994,7152,WL,C,2.0
4,25.092999935150146,learn,34907.00006484985,Fri May 23 2025 14:34:39 GMT-0500 (Central Daylight Time),536357.3999999994,A,queenenter,O,enter,473,1,1331.0,535026.3999999994,7152,WL,C,2.0
4,26.05900001525879,learn,33940.99998474121,Fri May 23 2025 14:34:39 GMT-0500 (Central Daylight Time),537323.2000000002,A,d,O,d,951,1,965.6000000005588,536357.5999999996,7152,WL,C,3.0
4,26.192999839782715,learn,33807.000160217285,Fri May 23 2025 14:34:39 GMT-0500 (Central Daylight Time),537457.5,A,do,O,o,113,1,1099.9000000003725,536357.5999999996,7152,WL,C,3.0
4,26.274999856948853,learn,33725.00014305115,Fri May 23 2025 14:34:39 GMT-0500 (Central Daylight Time),537539.5999999996,A,doc,O,c,77,1,1182.0,536357.5999999996,7152,WL,C,3.0
4,26.47499990463257,learn,33525.00009536743,Fri May 23 2025 14:34:39 GMT-0500 (Central Daylight Time),537739.7999999998,A,doct,O,t,191,1,1382.2000000001863,536357.5999999996,7152,WL,C,3.0
4,26.557999849319458,learn,33442.00015068054,Fri May 23 2025 14:34:39 GMT-0500 (Central Daylight Time),537822.2000000002,A,docto,O,o,69,1,1464.6000000005588,536357.5999999996,7152,WL,C,3.0
4,26.658999919891357,learn,33341.00008010864,Fri May 23 2025 14:34:39 GMT-0500 (Central Daylight Time),537923.2999999998,A,doctor,O,r,92,1,1565.7000000001863,536357.5999999996,7152,WL,C,3.0
4,26.79199981689453,learn,33208.00018310547,Fri May 23 2025 14:34:39 GMT-0500 (Central Daylight Time),538056.2000000002,A,doctorenter,O,enter,115,1,1698.6000000005588,536357.5999999996,7152,WL,C,3.0
4,27.29199981689453,learn,32708.00018310547,Fri May 23 2025 14:34:39 GMT-0500 (Central Daylight Time),538556.5,A,c,O,c,493,1,500.1000000005588,538056.3999999994,7152,WL,C,4.0
4,27.37399983406067,learn,32626.00016593933,Fri May 23 2025 14:34:39 GMT-0500 (Central Daylight Time),538638.7999999998,A,ca,O,a,70,1,582.4000000003725,538056.3999999994,7152,WL,C,4.0
4,27.406999826431274,learn,32593.000173568726,Fri May 23 2025 14:34:39 GMT-0500 (Central Daylight Time),538671.2999999998,A,cam,O,m,18,1,614.9000000003725,538056.3999999994,7152,WL,C,4.0
4,27.507999897003174,learn,32492.000102996826,Fri May 23 2025 14:34:39 GMT-0500 (Central Daylight Time),538772.7999999998,A,camp,O,p,94,1,716.4000000003725,538056.3999999994,7152,WL,C,4.0
4,27.94099998474121,learn,32059.00001525879,Fri May 23 2025 14:34:39 GMT-0500 (Central Daylight Time),539205.3999999994,A,campenter,O,enter,422,1,1149.0,538056.3999999994,7152,WL,C,4.0
4,32.942999839782715,learn,27057.000160217285,Fri May 23 2025 14:34:39 GMT-0500 (Central Daylight Time),544207.3999999994,A,b,O,b,4979,1,5001.799999999814,539205.5999999996,7152,WL,C,5.0
4,33.03999996185303,learn,26960.000038146973,Fri May 23 2025 14:34:39 GMT-0500 (Central Daylight Time),544304.5999999996,A,bo,O,o,85,1,5099.0,539205.5999999996,7152,WL,C,5.0
4,33.18999981880188,learn,26810.00018119812,Fri May 23 2025 14:34:39 GMT-0500 (Central Daylight Time),544455.0999999996,A,boy,O,y,130,1,5249.5,539205.5999999996,7152,WL,C,5.0
4,33.6729998588562,learn,26327.0001411438,Fri May 23 2025 14:34:39 GMT-0500 (Central Daylight Time),544938.2000000002,A,boyenter,O,enter,468,1,5732.600000000559,539205.5999999996,7152,WL,C,5.0
4,34.83999991416931,learn,25160.00008583069,Fri May 23 2025 14:34:39 GMT-0500 (Central Daylight Time),546105.0,A,h,O,h,1154,1,1166.4000000003725,544938.5999999996,7152,WL,C,6.0
4,34.93999981880188,learn,25060.00018119812,Fri May 23 2025 14:34:39 GMT-0500 (Central Daylight Time),546204.3999999994,A,ho,O,o,83,1,1265.7999999998137,544938.5999999996,7152,WL,C,6.0
4,35.08999991416931,learn,24910.00008583069,Fri May 23 2025 14:34:39 GMT-0500 (Central Daylight Time),546355.0999999996,A,hom,O,m,135,1,1416.5,544938.5999999996,7152,WL,C,6.0
4,35.24000000953674,learn,24759.999990463257,Fri May 23 2025 14:34:39 GMT-0500 (Central Daylight Time),546504.5,A,home,O,e,129,1,1565.9000000003725,544938.5999999996,7152,WL,C,6.0
4,35.40599989891052,learn,24594.000101089478,Fri May 23 2025 14:34:39 GMT-0500 (Central Daylight Time),546670.5,A,homeenter,O,enter,146,1,1731.9000000003725,544938.5999999996,7152,WL,C,6.0
4,36.25599980354309,learn,23744.00019645691,Fri May 23 2025 14:34:39 GMT-0500 (Central Daylight Time),547520.8999999994,A,l,O,l,830,1,850.0999999996275,546670.7999999998,7152,WL,C,7.0
4,36.371999979019165,learn,23628.000020980835,Fri May 23 2025 14:34:39 GMT-0500 (Central Daylight Time),547637.0,A,le,O,e,108,1,966.2000000001863,546670.7999999998,7152,WL,C,7.0
4,36.5239999294281,learn,23476.0000705719,Fri May 23 2025 14:34:39 GMT-0500 (Central Daylight Time),547788.7000000002,A,let,O,t,132,1,1117.9000000003725,546670.7999999998,7152,WL,C,7.0
4,36.656999826431274,learn,23343.000173568726,Fri May 23 2025 14:34:39 GMT-0500 (Central Daylight Time),547922.2000000002,A,lett,O,t,129,1,1251.4000000003725,546670.7999999998,7152,WL,C,7.0
4,36.75599980354309,learn,23244.00019645691,Fri May 23 2025 14:34:39 GMT-0500 (Central Daylight Time),548021.0999999996,A,lette,O,e,93,1,1350.2999999998137,546670.7999999998,7152,WL,C,7.0
4,36.855000019073486,learn,23144.999980926514,Fri May 23 2025 14:34:39 GMT-0500 (Central Daylight Time),548119.8999999994,A,letter,O,r,76,1,1449.0999999996275,546670.7999999998,7152,WL,C,7.0
4,36.9210000038147,learn,23078.999996185303,Fri May 23 2025 14:34:39 GMT-0500 (Central Daylight Time),548185.7000000002,A,letterenter,O,enter,50,1,1514.9000000003725,546670.7999999998,7152,WL,C,7.0
4,37.621999979019165,learn,22378.000020980835,Fri May 23 2025 14:34:39 GMT-0500 (Central Daylight Time),548887.0,A,n,O,n,690,1,701.1000000005588,548185.8999999994,7152,WL,C,8.0
4,37.722999811172485,learn,22277.000188827515,Fri May 23 2025 14:34:39 GMT-0500 (Central Daylight Time),548987.3999999994,A,na,O,a,94,1,801.5,548185.8999999994,7152,WL,C,8.0
4,37.85699987411499,learn,22143.00012588501,Fri May 23 2025 14:34:39 GMT-0500 (Central Daylight Time),549122.0999999996,A,nai,O,i,123,1,936.2000000001863,548185.8999999994,7152,WL,C,8.0
4,37.92199993133545,learn,22078.00006866455,Fri May 23 2025 14:34:39 GMT-0500 (Central Daylight Time),549187.2999999998,A,nail,O,l,60,1,1001.4000000003725,548185.8999999994,7152,WL,C,8.0
4,38.22199988365173,learn,21778.000116348267,Fri May 23 2025 14:34:39 GMT-0500 (Central Daylight Time),549486.2999999998,A,nailenter,O,enter,279,1,1300.4000000003725,548185.8999999994,7152,WL,C,8.0
4,40.4210000038147,learn,19578.999996185303,Fri May 23 2025 14:34:39 GMT-0500 (Central Daylight Time),551685.7999999998,A,c,O,c,2191,1,2199.0999999996275,549486.7000000002,7152,WL,C,9.0
4,40.520999908447266,learn,19479.000091552734,Fri May 23 2025 14:34:39 GMT-0500 (Central Daylight Time),551785.5,A,co,O,o,77,1,2298.7999999998137,549486.7000000002,7152,WL,C,9.0
4,40.65499997138977,learn,19345.00002861023,Fri May 23 2025 14:34:39 GMT-0500 (Central Daylight Time),551919.5,A,cor,O,r,112,1,2432.7999999998137,549486.7000000002,7152,WL,C,9.0
4,40.75499987602234,learn,19245.00012397766,Fri May 23 2025 14:34:39 GMT-0500 (Central Daylight Time),552019.7000000002,A,corn,O,n,76,1,2533.0,549486.7000000002,7152,WL,C,9.0
4,40.9210000038147,learn,19078.999996185303,Fri May 23 2025 14:34:39 GMT-0500 (Central Daylight Time),552185.5,A,cornenter,O,enter,152,1,2698.7999999998137,549486.7000000002,7152,WL,C,9.0
4,41.305999994277954,learn,18694.000005722046,Fri May 23 2025 14:34:39 GMT-0500 (Central Daylight Time),552570.3999999994,A,c,O,c,364,1,384.59999999962747,552185.7999999998,7152,WL,C,10.0
4,41.40399980545044,learn,18596.00019454956,Fri May 23 2025 14:34:39 GMT-0500 (Central Daylight Time),552668.8999999994,A,ca,O,a,90,1,483.09999999962747,552185.7999999998,7152,WL,C,10.0
4,41.5699999332428,learn,18430.000066757202,Fri May 23 2025 14:34:39 GMT-0500 (Central Daylight Time),552835.2999999998,A,cat,O,t,150,1,649.5,552185.7999999998,7152,WL,C,10.0
4,41.73799991607666,learn,18262.00008392334,Fri May 23 2025 14:34:39 GMT-0500 (Central Daylight Time),553002.3999999994,A,catt,O,t,143,1,816.5999999996275,552185.7999999998,7152,WL,C,10.0
4,41.82099986076355,learn,18179.00013923645,Fri May 23 2025 14:34:39 GMT-0500 (Central Daylight Time),553086.3999999994,A,cattl,O,l,72,1,900.5999999996275,552185.7999999998,7152,WL,C,10.0
4,41.95299983024597,learn,18047.00016975403,Fri May 23 2025 14:34:39 GMT-0500 (Central Daylight Time),553218.2000000002,A,cattle,O,e,118,1,1032.4000000003725,552185.7999999998,7152,WL,C,10.0
4,42.169999837875366,learn,17830.000162124634,Fri May 23 2025 14:34:39 GMT-0500 (Central Daylight Time),553435.0999999996,A,cattleenter,O,enter,198,1,1249.2999999998137,552185.7999999998,7152,WL,C,10.0
4,43.50599980354309,learn,16494.00019645691,Fri May 23 2025 14:34:39 GMT-0500 (Central Daylight Time),554770.3999999994,A,s,O,s,1314,1,1335.0999999996275,553435.2999999998,7152,WL,C,11.0
4,43.668999910354614,learn,16331.000089645386,Fri May 23 2025 14:34:39 GMT-0500 (Central Daylight Time),554934.0999999996,A,sh,O,h,146,1,1498.7999999998137,553435.2999999998,7152,WL,C,11.0
4,43.770999908447266,learn,16229.000091552734,Fri May 23 2025 14:34:39 GMT-0500 (Central Daylight Time),555036.2000000002,A,sho,O,o,97,1,1600.9000000003725,553435.2999999998,7152,WL,C,11.0
4,43.919999837875366,learn,16080.000162124634,Fri May 23 2025 14:34:39 GMT-0500 (Central Daylight Time),555185.2000000002,A,shor,O,r,129,1,1749.9000000003725,553435.2999999998,7152,WL,C,11.0
4,44.037999868392944,learn,15962.000131607056,Fri May 23 2025 14:34:39 GMT-0500 (Central Daylight Time),555302.7000000002,A,shore,O,e,98,1,1867.4000000003725,553435.2999999998,7152,WL,C,11.0
4,44.30299997329712,learn,15697.00002670288,Fri May 23 2025 14:34:39 GMT-0500 (Central Daylight Time),555567.8999999994,A,shoreenter,O,enter,251,1,2132.5999999996275,553435.2999999998,7152,WL,C,11.0
4,45.93599987030029,learn,14064.000129699707,Fri May 23 2025 14:34:39 GMT-0500 (Central Daylight Time),557200.7000000002,A,b,O,b,1620,1,1632.5,555568.2000000002,7152,WL,C,12.0
4,46.05399990081787,learn,13946.000099182129,Fri May 23 2025 14:34:39 GMT-0500 (Central Daylight Time),557318.7999999998,A,bo,O,o,99,1,1750.5999999996275,555568.2000000002,7152,WL,C,12.0
4,46.2189998626709,learn,13781.000137329102,Fri May 23 2025 14:34:39 GMT-0500 (Central Daylight Time),557484.2000000002,A,bod,O,d,150,1,1916.0,555568.2000000002,7152,WL,C,12.0
4,46.319000005722046,learn,13680.999994277954,Fri May 23 2025 14:34:39 GMT-0500 (Central Daylight Time),557584.2999999998,A,body,O,y,81,1,2016.0999999996275,555568.2000000002,7152,WL,C,12.0
4,46.63499999046326,learn,13365.000009536743,Fri May 23 2025 14:34:39 GMT-0500 (Central Daylight Time),557900.0999999996,A,bodyenter,O,enter,300,1,2331.899999999441,555568.2000000002,7152,WL,C,12.0
4,55.16599988937378,learn,4834.000110626221,Fri May 23 2025 14:34:39 GMT-0500 (Central Daylight Time),566431.2000000002,A,c,O,c,8521,1,8530.900000000373,557900.2999999998,7152,WL,C,13.0
4,55.33200001716614,learn,4667.999982833862,Fri May 23 2025 14:34:39 GMT-0500 (Central Daylight Time),566596.3999999994,A,co,O,o,146,1,8696.099999999627,557900.2999999998,7152,WL,C,13.0
4,55.549999952316284,learn,4450.000047683716,Fri May 23 2025 14:34:39 GMT-0500 (Central Daylight Time),566814.5,A,cor,O,r,199,1,8914.200000000186,557900.2999999998,7152,WL,C,13.0
4,55.73299980163574,learn,4267.000198364258,Fri May 23 2025 14:34:39 GMT-0500 (Central Daylight Time),566998.0,A,corn,O,n,173,1,9097.700000000186,557900.2999999998,7152,WL,C,13.0
4,56.46499991416931,learn,3535.0000858306885,Fri May 23 2025 14:34:39 GMT-0500 (Central Daylight Time),567730.0999999996,A,cornenter,O,enter,717,1,9829.799999999814,557900.2999999998,7152,WL,C,13.0
4,60.014999866485596,learn,-14.999866485595703,Fri May 23 2025 14:34:39 GMT-0500 (Central Daylight Time),571279.8999999994,A,None,O,None,3546,1,3549.5,567730.3999999994,7152,WL,C,14.0
5,1.2990000247955322,learn,60000.0,Fri May 23 2025 14:34:39 GMT-0500 (Central Daylight Time),641641.2000000002,A,t,O,t,1276,1,1299.0,640342.2000000002,7152,WL,C,1.0
5,1.3640000820159912,learn,60000.0,Fri May 23 2025 14:34:39 GMT-0500 (Central Daylight Time),641706.5,A,to,O,o,40,1,1364.2999999998137,640342.2000000002,7152,WL,C,1.0
5,1.5320000648498535,learn,60000.0,Fri May 23 2025 14:34:39 GMT-0500 (Central Daylight Time),641874.2999999998,A,tow,O,w,161,1,1532.0999999996275,640342.2000000002,7152,WL,C,1.0
5,1.6319999694824219,learn,60000.0,Fri May 23 2025 14:34:39 GMT-0500 (Central Daylight Time),641974.0,A,towe,O,e,80,1,1631.7999999998137,640342.2000000002,7152,WL,C,1.0
5,1.7139999866485596,learn,60000.0,Fri May 23 2025 14:34:39 GMT-0500 (Central Daylight Time),642055.8999999994,A,tower,O,r,69,1,1713.699999999255,640342.2000000002,7152,WL,C,1.0
5,1.813999891281128,learn,60000.0,Fri May 23 2025 14:34:39 GMT-0500 (Central Daylight Time),642156.0,A,towerenter,O,enter,83,1,1813.7999999998137,640342.2000000002,7152,WL,C,1.0
5,2.0139999389648438,learn,60000.0,Fri May 23 2025 14:34:39 GMT-0500 (Central Daylight Time),642355.8999999994,A,w,O,w,193,1,199.59999999962747,642156.2999999998,7152,WL,C,2.0
5,2.115999937057495,learn,60000.0,Fri May 23 2025 14:34:39 GMT-0500 (Central Daylight Time),642458.2000000002,A,wh,O,h,95,1,301.90000000037253,642156.2999999998,7152,WL,C,2.0
5,2.2139999866485596,learn,60000.0,Fri May 23 2025 14:34:39 GMT-0500 (Central Daylight Time),642556.0,A,whe,O,e,89,1,399.70000000018626,642156.2999999998,7152,WL,C,2.0
5,2.3489999771118164,learn,60000.0,Fri May 23 2025 14:34:39 GMT-0500 (Central Daylight Time),642691.0999999996,A,whea,O,a,127,1,534.7999999998137,642156.2999999998,7152,WL,C,2.0
5,2.430999994277954,learn,60000.0,Fri May 23 2025 14:34:39 GMT-0500 (Central Daylight Time),642773.3999999994,A,wheat,O,t,62,1,617.0999999996275,642156.2999999998,7152,WL,C,2.0
5,2.5810000896453857,learn,60000.0,Fri May 23 2025 14:34:39 GMT-0500 (Central Daylight Time),642922.7000000002,A,wheatenter,O,enter,133,1,766.4000000003725,642156.2999999998,7152,WL,C,2.0
5,3.0290000438690186,learn,60000.0,Fri May 23 2025 14:34:39 GMT-0500 (Central Daylight Time),643371.2000000002,A,q,O,q,441,1,448.30000000074506,642922.8999999994,7152,WL,C,3.0
5,3.13100004196167,learn,60000.0,Fri May 23 2025 14:34:39 GMT-0500 (Central Daylight Time),643473.2000000002,A,qu,O,u,82,1,550.3000000007451,642922.8999999994,7152,WL,C,3.0
5,3.2309999465942383,learn,60000.0,Fri May 23 2025 14:34:39 GMT-0500 (Central Daylight Time),643572.5999999996,A,que,O,e,91,1,649.7000000001863,642922.8999999994,7152,WL,C,3.0
5,3.382999897003174,learn,60000.0,Fri May 23 2025 14:34:39 GMT-0500 (Central Daylight Time),643724.5,A,quee,O,e,146,1,801.6000000005588,642922.8999999994,7152,WL,C,3.0
5,3.4809999465942383,learn,60000.0,Fri May 23 2025 14:34:39 GMT-0500 (Central Daylight Time),643823.2000000002,A,queen,O,n,78,1,900.3000000007451,642922.8999999994,7152,WL,C,3.0
5,3.6459999084472656,learn,60000.0,Fri May 23 2025 14:34:39 GMT-0500 (Central Daylight Time),643987.8999999994,A,queenenter,O,enter,155,1,1065.0,642922.8999999994,7152,WL,C,3.0
5,5.713000059127808,learn,60000.0,Fri May 23 2025 14:34:39 GMT-0500 (Central Daylight Time),646055.2999999998,A,h,O,h,2056,1,2067.0999999996275,643988.2000000002,7152,WL,C,4.0
5,5.86299991607666,learn,60000.0,Fri May 23 2025 14:34:39 GMT-0500 (Central Daylight Time),646204.7999999998,A,ho,O,o,132,1,2216.5999999996275,643988.2000000002,7152,WL,C,4.0
5,5.996999979019165,learn,60000.0,Fri May 23 2025 14:34:39 GMT-0500 (Central Daylight Time),646338.8999999994,A,hom,O,m,120,1,2350.699999999255,643988.2000000002,7152,WL,C,4.0
5,6.096999883651733,learn,60000.0,Fri May 23 2025 14:34:39 GMT-0500 (Central Daylight Time),646438.7000000002,A,home,O,e,90,1,2450.5,643988.2000000002,7152,WL,C,4.0
5,6.263999938964844,learn,60000.0,Fri May 23 2025 14:34:39 GMT-0500 (Central Daylight Time),646605.8999999994,A,homeenter,O,enter,149,1,2617.699999999255,643988.2000000002,7152,WL,C,4.0
5,6.496000051498413,learn,60000.0,Fri May 23 2025 14:34:39 GMT-0500 (Central Daylight Time),646838.0999999996,A,b,O,b,221,1,231.8999999994412,646606.2000000002,7152,WL,C,5.0
5,6.61299991607666,learn,60000.0,Fri May 23 2025 14:34:39 GMT-0500 (Central Daylight Time),646955.2000000002,A,bo,O,o,103,1,349.0,646606.2000000002,7152,WL,C,5.0
5,6.66100001335144,learn,60000.0,Fri May 23 2025 14:34:39 GMT-0500 (Central Daylight Time),647003.3999999994,A,boy,O,y,38,1,397.19999999925494,646606.2000000002,7152,WL,C,5.0
5,6.913000106811523,learn,60000.0,Fri May 23 2025 14:34:39 GMT-0500 (Central Daylight Time),647254.8999999994,A,boyenter,O,enter,233,1,648.6999999992549,646606.2000000002,7152,WL,C,5.0
5,7.164000034332275,learn,60000.0,Fri May 23 2025 14:34:39 GMT-0500 (Central Daylight Time),647506.2000000002,A,l,O,l,238,1,251.0,647255.2000000002,7152,WL,C,6.0
5,7.263000011444092,learn,60000.0,Fri May 23 2025 14:34:39 GMT-0500 (Central Daylight Time),647604.8999999994,A,le,O,e,81,1,349.69999999925494,647255.2000000002,7152,WL,C,6.0
5,7.413000106811523,learn,60000.0,Fri May 23 2025 14:34:39 GMT-0500 (Central Daylight Time),647755.3999999994,A,let,O,t,134,1,500.19999999925494,647255.2000000002,7152,WL,C,6.0
5,7.562999963760376,learn,60000.0,Fri May 23 2025 14:34:39 GMT-0500 (Central Daylight Time),647905.0999999996,A,lett,O,t,135,1,649.8999999994412,647255.2000000002,7152,WL,C,6.0
5,7.994999885559082,learn,60000.0,Fri May 23 2025 14:34:39 GMT-0500 (Central Daylight Time),648337.2999999998,A,lette,O,e,425,1,1082.0999999996275,647255.2000000002,7152,WL,C,6.0
5,8.128999948501587,learn,60000.0,Fri May 23 2025 14:34:39 GMT-0500 (Central Daylight Time),648471.2999999998,A,letter,O,r,115,1,1216.0999999996275,647255.2000000002,7152,WL,C,6.0
5,8.246000051498413,learn,60000.0,Fri May 23 2025 14:34:39 GMT-0500 (Central Daylight Time),648587.7999999998,A,letterenter,O,enter,105,1,1332.5999999996275,647255.2000000002,7152,WL,C,6.0
5,8.450000047683716,learn,60000.0,Fri May 23 2025 14:34:39 GMT-0500 (Central Daylight Time),648792.2999999998,A,f,O,f,189,1,203.79999999981374,648588.5,7152,WL,C,7.0
5,8.532000064849854,learn,60000.0,Fri May 23 2025 14:34:39 GMT-0500 (Central Daylight Time),648873.7999999998,A,fl,O,l,77,1,285.29999999981374,648588.5,7152,WL,C,7.0
5,8.66100001335144,learn,60000.0,Fri May 23 2025 14:34:39 GMT-0500 (Central Daylight Time),649002.5,A,fla,O,a,123,1,414.0,648588.5,7152,WL,C,7.0
5,8.76200008392334,learn,60000.0,Fri May 23 2025 14:34:39 GMT-0500 (Central Daylight Time),649104.0,A,flag,O,g,82,1,515.5,648588.5,7152,WL,C,7.0
5,8.928999900817871,learn,60000.0,Fri May 23 2025 14:34:39 GMT-0500 (Central Daylight Time),649271.0999999996,A,flagenter,O,enter,150,1,682.5999999996275,648588.5,7152,WL,C,7.0
5,9.86299991607666,learn,60000.0,Fri May 23 2025 14:34:39 GMT-0500 (Central Daylight Time),650204.5,A,n,O,n,919,1,933.2999999998137,649271.2000000002,7152,WL,C,8.0
5,9.980000019073486,learn,60000.0,Fri May 23 2025 14:34:39 GMT-0500 (Central Daylight Time),650321.7999999998,A,na,O,a,95,1,1050.5999999996275,649271.2000000002,7152,WL,C,8.0
5,10.062000036239624,learn,60000.0,Fri May 23 2025 14:34:39 GMT-0500 (Central Daylight Time),650404.0999999996,A,nai,O,i,75,1,1132.8999999994412,649271.2000000002,7152,WL,C,8.0
5,10.145999908447266,learn,60000.0,Fri May 23 2025 14:34:39 GMT-0500 (Central Daylight Time),650488.5,A,nail,O,l,62,1,1217.2999999998137,649271.2000000002,7152,WL,C,8.0
5,10.34500002861023,learn,60000.0,Fri May 23 2025 14:34:39 GMT-0500 (Central Daylight Time),650687.0,A,nailenter,O,enter,179,1,1415.7999999998137,649271.2000000002,7152,WL,C,8.0
5,15.394000053405762,learn,60000.0,Fri May 23 2025 14:34:39 GMT-0500 (Central Daylight Time),655735.8999999994,A,c,O,c,5038,1,5048.5999999996275,650687.2999999998,7152,WL,C,9.0
5,15.4760000705719,learn,60000.0,Fri May 23 2025 14:34:39 GMT-0500 (Central Daylight Time),655817.7000000002,A,co,O,o,68,1,5130.4000000003725,650687.2999999998,7152,WL,C,9.0
5,15.66100001335144,learn,60000.0,Fri May 23 2025 14:34:39 GMT-0500 (Central Daylight Time),656002.7999999998,A,cor,O,r,172,1,5315.5,650687.2999999998,7152,WL,C,9.0
5,15.778000116348267,learn,60000.0,Fri May 23 2025 14:34:39 GMT-0500 (Central Daylight Time),656119.7999999998,A,corn,O,n,97,1,5432.5,650687.2999999998,7152,WL,C,9.0
5,15.976999998092651,learn,60000.0,Fri May 23 2025 14:34:39 GMT-0500 (Central Daylight Time),656318.3999999994,A,cornenter,O,enter,179,1,5631.0999999996275,650687.2999999998,7152,WL,C,9.0
5,16.259999990463257,learn,60000.0,Fri May 23 2025 14:34:39 GMT-0500 (Central Daylight Time),656602.0999999996,A,c,O,c,269,1,283.3999999994412,656318.7000000002,7152,WL,C,10.0
5,16.359999895095825,learn,60000.0,Fri May 23 2025 14:34:39 GMT-0500 (Central Daylight Time),656702.2000000002,A,ca,O,a,81,1,383.5,656318.7000000002,7152,WL,C,10.0
5,16.47699999809265,learn,60000.0,Fri May 23 2025 14:34:39 GMT-0500 (Central Daylight Time),656818.7000000002,A,cat,O,t,101,1,500.0,656318.7000000002,7152,WL,C,10.0
5,16.609999895095825,learn,60000.0,Fri May 23 2025 14:34:39 GMT-0500 (Central Daylight Time),656952.2000000002,A,catt,O,t,120,1,633.5,656318.7000000002,7152,WL,C,10.0
5,16.72699999809265,learn,60000.0,Fri May 23 2025 14:34:39 GMT-0500 (Central Daylight Time),657068.7000000002,A,cattl,O,l,99,1,750.0,656318.7000000002,7152,WL,C,10.0
5,16.82800006866455,learn,60000.0,Fri May 23 2025 14:34:39 GMT-0500 (Central Daylight Time),657170.0999999996,A,cattle,O,e,95,1,851.3999999994412,656318.7000000002,7152,WL,C,10.0
5,16.960000038146973,learn,60000.0,Fri May 23 2025 14:34:39 GMT-0500 (Central Daylight Time),657301.5999999996,A,cattleenter,O,enter,120,1,982.8999999994412,656318.7000000002,7152,WL,C,10.0
5,21.97499990463257,learn,60000.0,Fri May 23 2025 14:34:39 GMT-0500 (Central Daylight Time),662317.2999999998,A,s,O,s,5000,1,5015.4000000003725,657301.8999999994,7152,WL,C,11.0
5,22.075999975204468,learn,60000.0,Fri May 23 2025 14:34:39 GMT-0500 (Central Daylight Time),662417.7999999998,A,sh,O,h,86,1,5115.9000000003725,657301.8999999994,7152,WL,C,11.0
5,22.157999992370605,learn,60000.0,Fri May 23 2025 14:34:39 GMT-0500 (Central Daylight Time),662499.8999999994,A,sho,O,o,63,1,5198.0,657301.8999999994,7152,WL,C,11.0
5,22.242000102996826,learn,60000.0,Fri May 23 2025 14:34:39 GMT-0500 (Central Daylight Time),662584.3999999994,A,shor,O,r,63,1,5282.5,657301.8999999994,7152,WL,C,11.0
5,22.308000087738037,learn,60000.0,Fri May 23 2025 14:34:39 GMT-0500 (Central Daylight Time),662649.8999999994,A,shore,O,e,48,1,5348.0,657301.8999999994,7152,WL,C,11.0
5,22.407999992370605,learn,60000.0,Fri May 23 2025 14:34:39 GMT-0500 (Central Daylight Time),662750.0,A,shoreenter,O,enter,89,1,5448.100000000559,657301.8999999994,7152,WL,C,11.0
5,25.375,learn,60000.0,Fri May 23 2025 14:34:39 GMT-0500 (Central Daylight Time),665716.5,A,s,O,s,2950,1,2966.2999999998137,662750.2000000002,7152,WL,C,12.0
5,25.47499990463257,learn,60000.0,Fri May 23 2025 14:34:39 GMT-0500 (Central Daylight Time),665817.0,A,su,O,u,79,1,3066.7999999998137,662750.2000000002,7152,WL,C,12.0
5,25.591000080108643,learn,60000.0,Fri May 23 2025 14:34:39 GMT-0500 (Central Daylight Time),665932.7000000002,A,sug,O,g,106,1,3182.5,662750.2000000002,7152,WL,C,12.0
5,25.691999912261963,learn,60000.0,Fri May 23 2025 14:34:39 GMT-0500 (Central Daylight Time),666033.7999999998,A,suga,O,a,77,1,3283.5999999996275,662750.2000000002,7152,WL,C,12.0
5,25.7739999294281,learn,60000.0,Fri May 23 2025 14:34:39 GMT-0500 (Central Daylight Time),666116.2000000002,A,sugar,O,r,63,1,3366.0,662750.2000000002,7152,WL,C,12.0
5,25.874000072479248,learn,60000.0,Fri May 23 2025 14:34:39 GMT-0500 (Central Daylight Time),666215.7000000002,A,sugarenter,O,enter,87,1,3465.5,662750.2000000002,7152,WL,C,12.0
5,29.50600004196167,learn,60000.0,Fri May 23 2025 14:34:39 GMT-0500 (Central Daylight Time),669847.8999999994,A,b,O,b,3622,1,3632.0,666215.8999999994,7152,WL,C,13.0
5,29.58899998664856,learn,60000.0,Fri May 23 2025 14:34:39 GMT-0500 (Central Daylight Time),669930.7999999998,A,bo,O,o,68,1,3714.9000000003725,666215.8999999994,7152,WL,C,13.0
5,29.77300000190735,learn,60000.0,Fri May 23 2025 14:34:39 GMT-0500 (Central Daylight Time),670115.0999999996,A,bod,O,d,156,1,3899.2000000001863,666215.8999999994,7152,WL,C,13.0
5,29.82100009918213,learn,60000.0,Fri May 23 2025 14:34:39 GMT-0500 (Central Daylight Time),670162.7999999998,A,body,O,y,38,1,3946.9000000003725,666215.8999999994,7152,WL,C,13.0
5,30.088000059127808,learn,60000.0,Fri May 23 2025 14:34:39 GMT-0500 (Central Daylight Time),670430.2999999998,A,bodyenter,O,enter,250,1,4214.4000000003725,666215.8999999994,7152,WL,C,13.0
5,31.539999961853027,learn,60000.0,Fri May 23 2025 14:34:39 GMT-0500 (Central Daylight Time),671882.0,A,l,O,l,1446,1,1451.5,670430.5,7152,WL,C,14.0
5,31.655999898910522,learn,60000.0,Fri May 23 2025 14:34:39 GMT-0500 (Central Daylight Time),671998.3999999994,A,le,O,e,106,1,1567.8999999994412,670430.5,7152,WL,C,14.0
5,31.80399990081787,learn,60000.0,Fri May 23 2025 14:34:39 GMT-0500 (Central Daylight Time),672146.2000000002,A,let,O,t,128,1,1715.7000000001863,670430.5,7152,WL,C,14.0
5,31.97099995613098,learn,60000.0,Fri May 23 2025 14:34:39 GMT-0500 (Central Daylight Time),672313.0999999996,A,lett,O,t,146,1,1882.5999999996275,670430.5,7152,WL,C,14.0
5,32.05299997329712,learn,60000.0,Fri May 23 2025 14:34:39 GMT-0500 (Central Daylight Time),672394.8999999994,A,lette,O,e,73,1,1964.3999999994412,670430.5,7152,WL,C,14.0
5,32.15599989891052,learn,60000.0,Fri May 23 2025 14:34:39 GMT-0500 (Central Daylight Time),672497.7000000002,A,letter,O,r,82,1,2067.2000000001863,670430.5,7152,WL,C,14.0
5,32.22000002861023,learn,60000.0,Fri May 23 2025 14:34:39 GMT-0500 (Central Daylight Time),672561.8999999994,A,letterenter,O,enter,57,1,2131.399999999441,670430.5,7152,WL,C,14.0
5,46.91799998283386,learn,60000.0,Fri May 23 2025 14:34:39 GMT-0500 (Central Daylight Time),687259.5999999996,A,d,O,d,14683,1,14697.5,672562.0999999996,7152,WL,C,15.0
5,47.01900005340576,learn,60000.0,Fri May 23 2025 14:34:39 GMT-0500 (Central Daylight Time),687360.7000000002,A,do,O,o,80,1,14798.600000000559,672562.0999999996,7152,WL,C,15.0
5,47.151000022888184,learn,60000.0,Fri May 23 2025 14:34:39 GMT-0500 (Central Daylight Time),687493.2000000002,A,doc,O,c,115,1,14931.100000000559,672562.0999999996,7152,WL,C,15.0
5,47.28500008583069,learn,60000.0,Fri May 23 2025 14:34:39 GMT-0500 (Central Daylight Time),687627.3999999994,A,doct,O,t,128,1,15065.299999999814,672562.0999999996,7152,WL,C,15.0
5,47.401999950408936,learn,60000.0,Fri May 23 2025 14:34:39 GMT-0500 (Central Daylight Time),687743.7999999998,A,docto,O,o,102,1,15181.700000000186,672562.0999999996,7152,WL,C,15.0
5,47.5,learn,60000.0,Fri May 23 2025 14:34:39 GMT-0500 (Central Daylight Time),687841.8999999994,A,doctor,O,r,83,1,15279.799999999814,672562.0999999996,7152,WL,C,15.0
5,47.634000062942505,learn,60000.0,Fri May 23 2025 14:34:39 GMT-0500 (Central Daylight Time),687976.2999999998,A,doctorenter,O,enter,120,1,15414.200000000186,672562.0999999996,7152,WL,C,15.0
6,1.184000015258789,distr,58815.99998474121,Fri May 23 2025 14:34:39 GMT-0500 (Central Daylight Time),757404.0999999996,B,s,O,s,1170,1,1183.7999999998137,756220.2999999998,7152,WL,C,1.0
6,1.2999999523162842,distr,58700.000047683716,Fri May 23 2025 14:34:39 GMT-0500 (Central Daylight Time),757520.0,B,sk,O,k,102,1,1299.7000000001863,756220.2999999998,7152,WL,C,1.0
6,1.4179999828338623,distr,58582.00001716614,Fri May 23 2025 14:34:39 GMT-0500 (Central Daylight Time),757637.2999999998,B,sky,O,y,99,1,1417.0,756220.2999999998,7152,WL,C,1.0
6,1.750999927520752,distr,58249.00007247925,Fri May 23 2025 14:34:39 GMT-0500 (Central Daylight Time),757970.3999999994,B,skyenter,O,enter,320,1,1750.0999999996275,756220.2999999998,7152,WL,C,1.0
6,2.1659998893737793,distr,57834.00011062622,Fri May 23 2025 14:34:39 GMT-0500 (Central Daylight Time),758386.0999999996,B,d,O,d,402,1,415.5,757970.5999999996,7152,WL,C,2.0
6,2.248999834060669,distr,57751.00016593933,Fri May 23 2025 14:34:39 GMT-0500 (Central Daylight Time),758468.5,B,do,O,o,66,1,497.90000000037253,757970.5999999996,7152,WL,C,2.0
6,2.4499998092651367,distr,57550.00019073486,Fri May 23 2025 14:34:39 GMT-0500 (Central Daylight Time),758669.8999999994,B,dol,O,l,181,1,699.2999999998137,757970.5999999996,7152,WL,C,2.0
6,2.549999952316284,distr,57450.000047683716,Fri May 23 2025 14:34:39 GMT-0500 (Central Daylight Time),758769.7000000002,B,doll,O,l,93,1,799.1000000005588,757970.5999999996,7152,WL,C,2.0
6,2.632999897003174,distr,57367.000102996826,Fri May 23 2025 14:34:39 GMT-0500 (Central Daylight Time),758852.5999999996,B,dolla,O,a,74,1,882.0,757970.5999999996,7152,WL,C,2.0
6,2.7149999141693115,distr,57285.00008583069,Fri May 23 2025 14:34:39 GMT-0500 (Central Daylight Time),758934.7999999998,B,dollar,O,r,62,1,964.2000000001863,757970.5999999996,7152,WL,C,2.0
6,2.815999984741211,distr,57184.00001525879,Fri May 23 2025 14:34:39 GMT-0500 (Central Daylight Time),759035.2000000002,B,dollarenter,O,enter,93,1,1064.6000000005588,757970.5999999996,7152,WL,C,2.0
6,3.0339999198913574,distr,56966.00008010864,Fri May 23 2025 14:34:39 GMT-0500 (Central Daylight Time),759253.3999999994,B,v,O,v,201,1,218.0,759035.3999999994,7152,WL,C,3.0
6,3.0809998512268066,distr,56919.00014877319,Fri May 23 2025 14:34:39 GMT-0500 (Central Daylight Time),759300.5999999996,B,va,O,a,36,1,265.20000000018626,759035.3999999994,7152,WL,C,3.0
6,3.1989998817443848,distr,56801.000118255615,Fri May 23 2025 14:34:39 GMT-0500 (Central Daylight Time),759419.0,B,val,O,l,113,1,383.6000000005588,759035.3999999994,7152,WL,C,3.0
6,3.3329999446868896,distr,56667.00005531311,Fri May 23 2025 14:34:39 GMT-0500 (Central Daylight Time),759552.3999999994,B,vall,O,l,110,1,517.0,759035.3999999994,7152,WL,C,3.0
6,3.4169998168945312,distr,56583.00018310547,Fri May 23 2025 14:34:39 GMT-0500 (Central Daylight Time),759636.2000000002,B,vally,O,y,61,1,600.8000000007451,759035.3999999994,7152,WL,C,3.0
6,3.5169999599456787,distr,56483.00004005432,Fri May 23 2025 14:34:39 GMT-0500 (Central Daylight Time),759736.2999999998,B,vallye,O,e,77,1,700.9000000003725,759035.3999999994,7152,WL,C,3.0
6,3.684000015258789,distr,56315.99998474121,Fri May 23 2025 14:34:39 GMT-0500 (Central Daylight Time),759903.3999999994,B,vallyeenter,O,enter,147,1,868.0,759035.3999999994,7152,WL,C,3.0
6,4.533999919891357,distr,55466.00008010864,Fri May 23 2025 14:34:39 GMT-0500 (Central Daylight Time),760753.2999999998,B,m,O,m,828,1,849.7999999998137,759903.5,7152,WL,C,4.0
6,4.615999937057495,distr,55384.000062942505,Fri May 23 2025 14:34:39 GMT-0500 (Central Daylight Time),760835.8999999994,B,mo,O,o,67,1,932.3999999994412,759903.5,7152,WL,C,4.0
6,4.698999881744385,distr,55301.000118255615,Fri May 23 2025 14:34:39 GMT-0500 (Central Daylight Time),760919.0,B,mot,O,t,62,1,1015.5,759903.5,7152,WL,C,4.0
6,4.799000024795532,distr,55200.99997520447,Fri May 23 2025 14:34:39 GMT-0500 (Central Daylight Time),761018.2000000002,B,moth,O,h,86,1,1114.7000000001863,759903.5,7152,WL,C,4.0
6,4.881999969482422,distr,55118.00003051758,Fri May 23 2025 14:34:39 GMT-0500 (Central Daylight Time),761101.3999999994,B,mothe,O,e,74,1,1197.8999999994412,759903.5,7152,WL,C,4.0
6,4.9659998416900635,distr,55034.00015830994,Fri May 23 2025 14:34:39 GMT-0500 (Central Daylight Time),761185.7000000002,B,mother,O,r,64,1,1282.2000000001863,759903.5,7152,WL,C,4.0
6,5.132999897003174,distr,54867.000102996826,Fri May 23 2025 14:34:39 GMT-0500 (Central Daylight Time),761352.3999999994,B,motherenter,O,enter,145,1,1448.8999999994412,759903.5,7152,WL,C,4.0
6,5.299000024795532,distr,54700.99997520447,Fri May 23 2025 14:34:39 GMT-0500 (Central Daylight Time),761518.8999999994,B,w,O,w,147,1,166.19999999925494,761352.7000000002,7152,WL,C,5.0
6,5.415999889373779,distr,54584.00011062622,Fri May 23 2025 14:34:39 GMT-0500 (Central Daylight Time),761635.3999999994,B,wi,O,i,100,1,282.69999999925494,761352.7000000002,7152,WL,C,5.0
6,5.498999834060669,distr,54501.00016593933,Fri May 23 2025 14:34:39 GMT-0500 (Central Daylight Time),761718.3999999994,B,win,O,n,73,1,365.69999999925494,761352.7000000002,7152,WL,C,5.0
6,5.5299999713897705,distr,54470.00002861023,Fri May 23 2025 14:34:39 GMT-0500 (Central Daylight Time),761750.0,B,wint,O,t,21,1,397.29999999981374,761352.7000000002,7152,WL,C,5.0
6,5.631999969482422,distr,54368.00003051758,Fri May 23 2025 14:34:39 GMT-0500 (Central Daylight Time),761851.2999999998,B,winte,O,e,96,1,498.59999999962747,761352.7000000002,7152,WL,C,5.0
6,5.732999801635742,distr,54267.00019836426,Fri May 23 2025 14:34:39 GMT-0500 (Central Daylight Time),761952.5999999996,B,winter,O,r,86,1,599.8999999994412,761352.7000000002,7152,WL,C,5.0
6,5.865000009536743,distr,54134.99999046326,Fri May 23 2025 14:34:39 GMT-0500 (Central Daylight Time),762084.8999999994,B,winterenter,O,enter,122,1,732.1999999992549,761352.7000000002,7152,WL,C,5.0
6,6.199999809265137,distr,53800.00019073486,Fri May 23 2025 14:34:39 GMT-0500 (Central Daylight Time),762419.7999999998,B,c,O,c,330,1,334.70000000018626,762085.0999999996,7152,WL,C,6.0
6,6.381999969482422,distr,53618.00003051758,Fri May 23 2025 14:34:39 GMT-0500 (Central Daylight Time),762601.5999999996,B,ch,O,h,175,1,516.5,762085.0999999996,7152,WL,C,6.0
6,6.46399998664856,distr,53536.00001335144,Fri May 23 2025 14:34:39 GMT-0500 (Central Daylight Time),762683.7000000002,B,chr,O,r,75,1,598.6000000005588,762085.0999999996,7152,WL,C,6.0
6,6.582000017166138,distr,53417.99998283386,Fri May 23 2025 14:34:39 GMT-0500 (Central Daylight Time),762801.3999999994,B,chri,O,i,103,1,716.2999999998137,762085.0999999996,7152,WL,C,6.0
6,6.682999849319458,distr,53317.00015068054,Fri May 23 2025 14:34:39 GMT-0500 (Central Daylight Time),762902.2999999998,B,chris,O,s,82,1,817.2000000001863,762085.0999999996,7152,WL,C,6.0
6,6.748999834060669,distr,53251.00016593933,Fri May 23 2025 14:34:39 GMT-0500 (Central Daylight Time),762968.7000000002,B,christ,O,t,44,1,883.6000000005588,762085.0999999996,7152,WL,C,6.0
6,6.865000009536743,distr,53134.99999046326,Fri May 23 2025 14:34:39 GMT-0500 (Central Daylight Time),763084.7999999998,B,christm,O,m,98,1,999.7000000001863,762085.0999999996,7152,WL,C,6.0
6,7.580999851226807,distr,52419.00014877319,Fri May 23 2025 14:34:39 GMT-0500 (Central Daylight Time),763800.8999999994,B,christ,O,backspace,699,1,1715.7999999998137,762085.0999999996,7152,WL,C,6.0
6,8.264999866485596,distr,51735.000133514404,Fri May 23 2025 14:34:39 GMT-0500 (Central Daylight Time),764485.0,B,christm,O,m,663,1,2399.9000000003725,762085.0999999996,7152,WL,C,6.0
6,8.329999923706055,distr,51670.000076293945,Fri May 23 2025 14:34:39 GMT-0500 (Central Daylight Time),764550.0,B,christma,O,a,47,1,2464.9000000003725,762085.0999999996,7152,WL,C,6.0
6,8.379999876022339,distr,51620.00012397766,Fri May 23 2025 14:34:39 GMT-0500 (Central Daylight Time),764599.7999999998,B,christmas,O,s,36,1,2514.7000000001863,762085.0999999996,7152,WL,C,6.0
6,9.099999904632568,distr,50900.00009536743,Fri May 23 2025 14:34:39 GMT-0500 (Central Daylight Time),765319.3999999994,B,christmasenter,O,enter,708,1,3234.2999999998137,762085.0999999996,7152,WL,C,6.0
6,19.793999910354614,distr,40206.000089645386,Fri May 23 2025 14:34:39 GMT-0500 (Central Daylight Time),776014.0,B,enter,O,enter,10685,1,10694.400000000373,765319.5999999996,7152,WL,C,7.0
6,20.227999925613403,distr,39772.0000743866,Fri May 23 2025 14:34:39 GMT-0500 (Central Daylight Time),776447.5,B,enter,O,enter,422,1,433.29999999981374,776014.2000000002,7152,WL,C,8.0
6,20.543999910354614,distr,39456.000089645386,Fri May 23 2025 14:34:39 GMT-0500 (Central Daylight Time),776763.7999999998,B,enter,O,enter,300,1,316.0,776447.7999999998,7152,WL,C,9.0
6,20.82799983024597,distr,39172.00016975403,Fri May 23 2025 14:34:39 GMT-0500 (Central Daylight Time),777047.5999999996,B,enter,O,enter,265,1,283.5,776764.0999999996,7152,WL,C,10.0
6,21.210999965667725,distr,38789.000034332275,Fri May 23 2025 14:34:39 GMT-0500 (Central Daylight Time),777430.5999999996,B,enter,O,enter,364,1,382.59999999962747,777048.0,7152,WL,C,11.0
6,21.543999910354614,distr,38456.000089645386,Fri May 23 2025 14:34:39 GMT-0500 (Central Daylight Time),777763.7000000002,B,enter,O,enter,318,1,332.90000000037253,777430.7999999998,7152,WL,C,12.0
6,21.8439998626709,distr,38156.0001373291,Fri May 23 2025 14:34:39 GMT-0500 (Central Daylight Time),778063.5,B,enter,O,enter,289,1,299.6000000005588,777763.8999999994,7152,WL,C,13.0
6,22.3439998626709,distr,37656.0001373291,Fri May 23 2025 14:34:39 GMT-0500 (Central Daylight Time),778563.7000000002,B,enter,O,enter,494,1,499.90000000037253,778063.7999999998,7152,WL,C,14.0
6,23.292999982833862,distr,36707.00001716614,Fri May 23 2025 14:34:39 GMT-0500 (Central Daylight Time),779512.7000000002,B,enter,O,enter,936,1,948.7000000001863,778564.0,7152,WL,C,15.0
7,6.299999952316284,immed,53700.000047683716,Fri May 23 2025 14:34:39 GMT-0500 (Central Daylight Time),789779.2999999998,A,s,O,s,6282,1,6300.299999999814,783479.0,7152,WL,C,1.0
7,6.581000089645386,immed,53418.999910354614,Fri May 23 2025 14:34:39 GMT-0500 (Central Daylight Time),790059.5999999996,A,sk,O,k,275,1,6580.5999999996275,783479.0,7152,WL,C,1.0
7,6.8480000495910645,immed,53151.999950408936,Fri May 23 2025 14:34:39 GMT-0500 (Central Daylight Time),790326.8999999994,A,sky,O,y,245,1,6847.899999999441,783479.0,7152,WL,C,1.0
7,7.132999897003174,immed,52867.000102996826,Fri May 23 2025 14:34:39 GMT-0500 (Central Daylight Time),790611.5,A,skyd,O,d,279,1,7132.5,783479.0,7152,WL,C,1.0
7,7.265000104904175,immed,52734.999895095825,Fri May 23 2025 14:34:39 GMT-0500 (Central Daylight Time),790743.2000000002,A,skydo,O,o,120,1,7264.200000000186,783479.0,7152,WL,C,1.0
7,7.680000066757202,immed,52319.9999332428,Fri May 23 2025 14:34:39 GMT-0500 (Central Daylight Time),791159.0,A,skyd,O,backspace,394,1,7680.0,783479.0,7152,WL,C,1.0
7,7.829999923706055,immed,52170.000076293945,Fri May 23 2025 14:34:39 GMT-0500 (Central Daylight Time),791308.5999999996,A,sky,O,backspace,131,1,7829.5999999996275,783479.0,7152,WL,C,1.0
7,8.115000009536743,immed,51884.99999046326,Fri May 23 2025 14:34:39 GMT-0500 (Central Daylight Time),791593.3999999994,A,skyenter,O,enter,278,1,8114.399999999441,783479.0,7152,WL,C,1.0
7,8.466000080108643,immed,51533.99991989136,Fri May 23 2025 14:34:39 GMT-0500 (Central Daylight Time),791944.7999999998,A,d,O,d,331,1,351.09999999962747,791593.7000000002,7152,WL,C,2.0
7,8.52999997138977,immed,51470.00002861023,Fri May 23 2025 14:34:39 GMT-0500 (Central Daylight Time),792009.0,A,do,O,o,58,1,415.29999999981374,791593.7000000002,7152,WL,C,2.0
7,8.86299991607666,immed,51137.00008392334,Fri May 23 2025 14:34:39 GMT-0500 (Central Daylight Time),792341.5,A,dol,O,l,315,1,747.7999999998137,791593.7000000002,7152,WL,C,2.0
7,9.230000019073486,immed,50769.999980926514,Fri May 23 2025 14:34:39 GMT-0500 (Central Daylight Time),792709.0999999996,A,doll,O,l,349,1,1115.3999999994412,791593.7000000002,7152,WL,C,2.0
7,9.413000106811523,immed,50586.99989318848,Fri May 23 2025 14:34:39 GMT-0500 (Central Daylight Time),792891.2000000002,A,dolla,O,a,161,1,1297.5,791593.7000000002,7152,WL,C,2.0
7,9.479000091552734,immed,50520.999908447266,Fri May 23 2025 14:34:39 GMT-0500 (Central Daylight Time),792957.3999999994,A,dollar,O,r,54,1,1363.699999999255,791593.7000000002,7152,WL,C,2.0
7,9.61299991607666,immed,50387.00008392334,Fri May 23 2025 14:34:39 GMT-0500 (Central Daylight Time),793091.7000000002,A,dollarenter,O,enter,126,1,1498.0,791593.7000000002,7152,WL,C,2.0
7,9.864000082015991,immed,50135.99991798401,Fri May 23 2025 14:34:39 GMT-0500 (Central Daylight Time),793342.7999999998,A,v,O,v,233,1,250.90000000037253,793091.8999999994,7152,WL,C,3.0
7,9.961999893188477,immed,50038.00010681152,Fri May 23 2025 14:34:39 GMT-0500 (Central Daylight Time),793441.0999999996,A,va,O,a,84,1,349.20000000018626,793091.8999999994,7152,WL,C,3.0
7,10.097000122070312,immed,49902.99987792969,Fri May 23 2025 14:34:39 GMT-0500 (Central Daylight Time),793575.3999999994,A,val,O,l,119,1,483.5,793091.8999999994,7152,WL,C,3.0
7,10.230000019073486,immed,49769.999980926514,Fri May 23 2025 14:34:39 GMT-0500 (Central Daylight Time),793708.7000000002,A,vall,O,l,124,1,616.8000000007451,793091.8999999994,7152,WL,C,3.0
7,10.331000089645386,immed,49668.999910354614,Fri May 23 2025 14:34:39 GMT-0500 (Central Daylight Time),793809.7999999998,A,valle,O,e,92,1,717.9000000003725,793091.8999999994,7152,WL,C,3.0
7,10.430000066757202,immed,49569.9999332428,Fri May 23 2025 14:34:39 GMT-0500 (Central Daylight Time),793908.8999999994,A,valley,O,y,82,1,817.0,793091.8999999994,7152,WL,C,3.0
7,10.628999948501587,immed,49371.00005149841,Fri May 23 2025 14:34:39 GMT-0500 (Central Daylight Time),794107.7999999998,A,valleyenter,O,enter,182,1,1015.9000000003725,793091.8999999994,7152,WL,C,3.0
7,10.897000074386597,immed,49102.9999256134,Fri May 23 2025 14:34:39 GMT-0500 (Central Daylight Time),794375.2999999998,A,m,O,m,248,1,267.20000000018626,794108.0999999996,7152,WL,C,4.0
7,10.980000019073486,immed,49019.999980926514,Fri May 23 2025 14:34:39 GMT-0500 (Central Daylight Time),794459.2000000002,A,mo,O,o,67,1,351.1000000005588,794108.0999999996,7152,WL,C,4.0
7,11.078999996185303,immed,48921.0000038147,Fri May 23 2025 14:34:39 GMT-0500 (Central Daylight Time),794557.5,A,mot,O,t,77,1,449.40000000037253,794108.0999999996,7152,WL,C,4.0
7,11.196000099182129,immed,48803.99990081787,Fri May 23 2025 14:34:39 GMT-0500 (Central Daylight Time),794674.5,A,moth,O,h,98,1,566.4000000003725,794108.0999999996,7152,WL,C,4.0
7,11.26200008392334,immed,48737.99991607666,Fri May 23 2025 14:34:39 GMT-0500 (Central Daylight Time),794740.5999999996,A,mothe,O,e,56,1,632.5,794108.0999999996,7152,WL,C,4.0
7,11.345999956130981,immed,48654.00004386902,Fri May 23 2025 14:34:39 GMT-0500 (Central Daylight Time),794825.0999999996,A,mother,O,r,78,1,717.0,794108.0999999996,7152,WL,C,4.0
7,11.546000003814697,immed,48453.9999961853,Fri May 23 2025 14:34:39 GMT-0500 (Central Daylight Time),795024.2000000002,A,motherenter,O,enter,186,1,916.1000000005588,794108.0999999996,7152,WL,C,4.0
7,11.829999923706055,immed,48170.000076293945,Fri May 23 2025 14:34:39 GMT-0500 (Central Daylight Time),795308.5999999996,A,w,O,w,277,1,284.09999999962747,795024.5,7152,WL,C,5.0
7,11.911999940872192,immed,48088.00005912781,Fri May 23 2025 14:34:39 GMT-0500 (Central Daylight Time),795390.5,A,wi,O,i,62,1,366.0,795024.5,7152,WL,C,5.0
7,11.980999946594238,immed,48019.00005340576,Fri May 23 2025 14:34:39 GMT-0500 (Central Daylight Time),795459.5999999996,A,win,O,n,63,1,435.09999999962747,795024.5,7152,WL,C,5.0
7,12.043999910354614,immed,47956.000089645386,Fri May 23 2025 14:34:39 GMT-0500 (Central Daylight Time),795522.7999999998,A,wint,O,t,52,1,498.29999999981374,795024.5,7152,WL,C,5.0
7,12.164000034332275,immed,47835.999965667725,Fri May 23 2025 14:34:39 GMT-0500 (Central Daylight Time),795642.3999999994,A,winte,O,e,105,1,617.8999999994412,795024.5,7152,WL,C,5.0
7,12.246000051498413,immed,47753.99994850159,Fri May 23 2025 14:34:39 GMT-0500 (Central Daylight Time),795724.5,A,winter,O,r,72,1,700.0,795024.5,7152,WL,C,5.0
7,12.328999996185303,immed,47671.0000038147,Fri May 23 2025 14:34:39 GMT-0500 (Central Daylight Time),795807.3999999994,A,winterenter,O,enter,61,1,782.8999999994412,795024.5,7152,WL,C,5.0
7,12.829999923706055,immed,47170.000076293945,Fri May 23 2025 14:34:39 GMT-0500 (Central Daylight Time),796309.0,A,c,O,c,484,1,501.40000000037253,795807.5999999996,7152,WL,C,6.0
7,12.928999900817871,immed,47071.00009918213,Fri May 23 2025 14:34:39 GMT-0500 (Central Daylight Time),796407.2999999998,A,ch,O,h,86,1,599.7000000001863,795807.5999999996,7152,WL,C,6.0
7,13.081000089645386,immed,46918.999910354614,Fri May 23 2025 14:34:39 GMT-0500 (Central Daylight Time),796559.7000000002,A,chr,O,r,139,1,752.1000000005588,795807.5999999996,7152,WL,C,6.0
7,13.196000099182129,immed,46803.99990081787,Fri May 23 2025 14:34:39 GMT-0500 (Central Daylight Time),796674.7999999998,A,chri,O,i,110,1,867.2000000001863,795807.5999999996,7152,WL,C,6.0
7,13.564000129699707,immed,46435.99987030029,Fri May 23 2025 14:34:39 GMT-0500 (Central Daylight Time),797042.7999999998,A,chrit,O,t,364,1,1235.2000000001863,795807.5999999996,7152,WL,C,6.0
7,13.878999948501587,immed,46121.00005149841,Fri May 23 2025 14:34:39 GMT-0500 (Central Daylight Time),797357.8999999994,A,chri,O,backspace,304,1,1550.2999999998137,795807.5999999996,7152,WL,C,6.0
7,13.996000051498413,immed,46003.99994850159,Fri May 23 2025 14:34:39 GMT-0500 (Central Daylight Time),797474.7000000002,A,chris,O,s,103,1,1667.1000000005588,795807.5999999996,7152,WL,C,6.0
7,14.061000108718872,immed,45938.99989128113,Fri May 23 2025 14:34:39 GMT-0500 (Central Daylight Time),797539.7000000002,A,christ,O,t,56,1,1732.1000000005588,795807.5999999996,7152,WL,C,6.0
7,14.145999908447266,immed,45854.000091552734,Fri May 23 2025 14:34:39 GMT-0500 (Central Daylight Time),797624.8999999994,A,christm,O,m,71,1,1817.2999999998137,795807.5999999996,7152,WL,C,6.0
7,14.280999898910522,immed,45719.00010108948,Fri May 23 2025 14:34:39 GMT-0500 (Central Daylight Time),797759.7000000002,A,christma,O,a,114,1,1952.1000000005588,795807.5999999996,7152,WL,C,6.0
7,14.34500002861023,immed,45654.99997138977,Fri May 23 2025 14:34:39 GMT-0500 (Central Daylight Time),797823.2999999998,A,christmas,O,s,51,1,2015.7000000001863,795807.5999999996,7152,WL,C,6.0
7,14.545000076293945,immed,45454.999923706055,Fri May 23 2025 14:34:39 GMT-0500 (Central Daylight Time),798023.2999999998,A,christmasenter,O,enter,181,1,2215.7000000001863,795807.5999999996,7152,WL,C,6.0
7,32.78999996185303,immed,27210.000038146973,Fri May 23 2025 14:34:39 GMT-0500 (Central Daylight Time),816268.2999999998,A,t,O,t,18230,1,18244.700000000186,798023.5999999996,7152,WL,C,7.0
7,32.88800001144409,immed,27111.99998855591,Fri May 23 2025 14:34:39 GMT-0500 (Central Daylight Time),816367.2000000002,A,to,O,o,81,1,18343.60000000056,798023.5999999996,7152,WL,C,7.0
7,33.02300000190735,immed,26976.99999809265,Fri May 23 2025 14:34:39 GMT-0500 (Central Daylight Time),816501.5999999996,A,tow,O,w,117,1,18478.0,798023.5999999996,7152,WL,C,7.0
7,33.08699989318848,immed,26913.000106811523,Fri May 23 2025 14:34:39 GMT-0500 (Central Daylight Time),816565.8999999994,A,towe,O,e,54,1,18542.299999999814,798023.5999999996,7152,WL,C,7.0
7,33.15400004386902,immed,26845.99995613098,Fri May 23 2025 14:34:39 GMT-0500 (Central Daylight Time),816633.0999999996,A,tower,O,r,51,1,18609.5,798023.5999999996,7152,WL,C,7.0
7,33.324000120162964,immed,26675.999879837036,Fri May 23 2025 14:34:39 GMT-0500 (Central Daylight Time),816802.5999999996,A,towerenter,O,enter,164,1,18779.0,798023.5999999996,7152,WL,C,7.0
7,33.740999937057495,immed,26259.000062942505,Fri May 23 2025 14:34:39 GMT-0500 (Central Daylight Time),817219.2999999998,A,q,O,q,402,1,416.40000000037253,816802.8999999994,7152,WL,C,8.0
7,33.8050000667572,immed,26194.999933242798,Fri May 23 2025 14:34:39 GMT-0500 (Central Daylight Time),817284.0,A,qu,O,u,46,1,481.1000000005588,816802.8999999994,7152,WL,C,8.0
7,33.93900012969971,immed,26060.999870300293,Fri May 23 2025 14:34:39 GMT-0500 (Central Daylight Time),817417.8999999994,A,que,O,e,119,1,615.0,816802.8999999994,7152,WL,C,8.0
7,34.07200002670288,immed,25927.99997329712,Fri May 23 2025 14:34:39 GMT-0500 (Central Daylight Time),817550.3999999994,A,quee,O,e,122,1,747.5,816802.8999999994,7152,WL,C,8.0
7,34.15499997138977,immed,25845.00002861023,Fri May 23 2025 14:34:39 GMT-0500 (Central Daylight Time),817634.0,A,queen,O,n,78,1,831.1000000005588,816802.8999999994,7152,WL,C,8.0
7,34.40599989891052,immed,25594.000101089478,Fri May 23 2025 14:34:39 GMT-0500 (Central Daylight Time),817884.5999999996,A,queenenter,O,enter,241,1,1081.7000000001863,816802.8999999994,7152,WL,C,8.0
7,36.78800010681152,immed,23211.999893188477,Fri May 23 2025 14:34:39 GMT-0500 (Central Daylight Time),820267.0999999996,A,w,O,w,2368,1,2382.2000000001863,817884.8999999994,7152,WL,C,9.0
7,36.9210000038147,immed,23078.999996185303,Fri May 23 2025 14:34:39 GMT-0500 (Central Daylight Time),820400.0,A,wh,O,h,122,1,2515.100000000559,817884.8999999994,7152,WL,C,9.0
7,37.03699994087219,immed,22963.000059127808,Fri May 23 2025 14:34:39 GMT-0500 (Central Daylight Time),820515.7000000002,A,whe,O,e,100,1,2630.800000000745,817884.8999999994,7152,WL,C,9.0
7,37.22099995613098,immed,22779.00004386902,Fri May 23 2025 14:34:39 GMT-0500 (Central Daylight Time),820699.7000000002,A,whea,O,a,168,1,2814.800000000745,817884.8999999994,7152,WL,C,9.0
7,37.30399990081787,immed,22696.00009918213,Fri May 23 2025 14:34:39 GMT-0500 (Central Daylight Time),820782.3999999994,A,wheat,O,t,74,1,2897.5,817884.8999999994,7152,WL,C,9.0
7,37.4539999961853,immed,22546.000003814697,Fri May 23 2025 14:34:39 GMT-0500 (Central Daylight Time),820932.7999999998,A,wheatenter,O,enter,140,1,3047.9000000003725,817884.8999999994,7152,WL,C,9.0
7,37.78800010681152,immed,22211.999893188477,Fri May 23 2025 14:34:39 GMT-0500 (Central Daylight Time),821266.3999999994,A,s,O,s,320,1,333.29999999981374,820933.0999999996,7152,WL,C,10.0
7,38.08699989318848,immed,21913.000106811523,Fri May 23 2025 14:34:39 GMT-0500 (Central Daylight Time),821566.0,A,su,O,u,290,1,632.9000000003725,820933.0999999996,7152,WL,C,10.0
7,38.22099995613098,immed,21779.00004386902,Fri May 23 2025 14:34:39 GMT-0500 (Central Daylight Time),821699.5999999996,A,sug,O,g,120,1,766.5,820933.0999999996,7152,WL,C,10.0
7,38.57200002670288,immed,21427.99997329712,Fri May 23 2025 14:34:39 GMT-0500 (Central Daylight Time),822050.2999999998,A,suga,O,a,345,1,1117.2000000001863,820933.0999999996,7152,WL,C,10.0
7,38.70300006866455,immed,21296.99993133545,Fri May 23 2025 14:34:39 GMT-0500 (Central Daylight Time),822182.0,A,sugar,O,r,123,1,1248.9000000003725,820933.0999999996,7152,WL,C,10.0
7,38.88800001144409,immed,21111.99998855591,Fri May 23 2025 14:34:39 GMT-0500 (Central Daylight Time),822366.2000000002,A,sugarenter,O,enter,175,1,1433.1000000005588,820933.0999999996,7152,WL,C,10.0
7,39.58899998664856,immed,20411.00001335144,Fri May 23 2025 14:34:39 GMT-0500 (Central Daylight Time),823068.0,A,c,O,c,696,1,701.5,822366.5,7152,WL,C,11.0
7,39.72099995613098,immed,20279.00004386902,Fri May 23 2025 14:34:39 GMT-0500 (Central Daylight Time),823199.3999999994,A,co,O,o,112,1,832.8999999994412,822366.5,7152,WL,C,11.0
7,40.00500011444092,immed,19994.999885559082,Fri May 23 2025 14:34:39 GMT-0500 (Central Daylight Time),823483.5,A,c,O,backspace,278,1,1117.0,822366.5,7152,WL,C,11.0
7,40.170000076293945,immed,19829.999923706055,Fri May 23 2025 14:34:39 GMT-0500 (Central Daylight Time),823648.5999999996,A,,O,backspace,145,1,1282.0999999996275,822366.5,7152,WL,C,11.0
7,40.22000002861023,immed,19779.99997138977,Fri May 23 2025 14:34:39 GMT-0500 (Central Daylight Time),823698.2000000002,A,d,O,d,44,1,1331.7000000001863,822366.5,7152,WL,C,11.0
7,40.355000019073486,immed,19644.999980926514,Fri May 23 2025 14:34:39 GMT-0500 (Central Daylight Time),823833.5999999996,A,do,O,o,130,1,1467.0999999996275,822366.5,7152,WL,C,11.0
7,40.45300006866455,immed,19546.99993133545,Fri May 23 2025 14:34:39 GMT-0500 (Central Daylight Time),823932.0,A,doc,O,c,81,1,1565.5,822366.5,7152,WL,C,11.0
7,40.604000091552734,immed,19395.999908447266,Fri May 23 2025 14:34:39 GMT-0500 (Central Daylight Time),824082.7999999998,A,doct,O,t,145,1,1716.2999999998137,822366.5,7152,WL,C,11.0
7,40.736000061035156,immed,19263.999938964844,Fri May 23 2025 14:34:39 GMT-0500 (Central Daylight Time),824215.0999999996,A,docto,O,o,113,1,1848.5999999996275,822366.5,7152,WL,C,11.0
7,40.83699989318848,immed,19163.000106811523,Fri May 23 2025 14:34:39 GMT-0500 (Central Daylight Time),824316.0999999996,A,doctor,O,r,84,1,1949.5999999996275,822366.5,7152,WL,C,11.0
7,40.95300006866455,immed,19046.99993133545,Fri May 23 2025 14:34:39 GMT-0500 (Central Daylight Time),824431.5,A,doctorenter,O,enter,103,1,2065.0,822366.5,7152,WL,C,11.0
7,41.12000012397766,immed,18879.99987602234,Fri May 23 2025 14:34:39 GMT-0500 (Central Daylight Time),824598.5999999996,A,b,O,b,157,1,166.8999999994412,824431.7000000002,7152,WL,C,12.0
7,41.22000002861023,immed,18779.99997138977,Fri May 23 2025 14:34:39 GMT-0500 (Central Daylight Time),824698.7999999998,A,bo,O,o,95,1,267.09999999962747,824431.7000000002,7152,WL,C,12.0
7,41.28600001335144,immed,18713.99998664856,Fri May 23 2025 14:34:39 GMT-0500 (Central Daylight Time),824764.5999999996,A,boy,O,y,56,1,332.8999999994412,824431.7000000002,7152,WL,C,12.0
7,41.55299997329712,immed,18447.00002670288,Fri May 23 2025 14:34:39 GMT-0500 (Central Daylight Time),825031.8999999994,A,boyenter,O,enter,248,1,600.1999999992549,824431.7000000002,7152,WL,C,12.0
7,42.58800005912781,immed,17411.999940872192,Fri May 23 2025 14:34:39 GMT-0500 (Central Daylight Time),826066.3999999994,A,n,O,n,1028,1,1034.2999999998137,825032.0999999996,7152,WL,C,13.0
7,42.72000002861023,immed,17279.99997138977,Fri May 23 2025 14:34:39 GMT-0500 (Central Daylight Time),826198.2999999998,A,na,O,a,112,1,1166.2000000001863,825032.0999999996,7152,WL,C,13.0
7,42.835999965667725,immed,17164.000034332275,Fri May 23 2025 14:34:39 GMT-0500 (Central Daylight Time),826314.3999999994,A,nai,O,i,96,1,1282.2999999998137,825032.0999999996,7152,WL,C,13.0
7,42.884000062942505,immed,17115.999937057495,Fri May 23 2025 14:34:39 GMT-0500 (Central Daylight Time),826363.0999999996,A,nail,O,l,31,1,1331.0,825032.0999999996,7152,WL,C,13.0
7,43.069000005722046,immed,16930.999994277954,Fri May 23 2025 14:34:39 GMT-0500 (Central Daylight Time),826547.7999999998,A,nailenter,O,enter,169,1,1515.7000000001863,825032.0999999996,7152,WL,C,13.0
7,43.30200004577637,immed,16697.999954223633,Fri May 23 2025 14:34:39 GMT-0500 (Central Daylight Time),826780.7999999998,A,h,O,h,216,1,232.79999999981374,826548.0,7152,WL,C,14.0
7,43.36800003051758,immed,16631.999969482422,Fri May 23 2025 14:34:39 GMT-0500 (Central Daylight Time),826846.5999999996,A,ho,O,o,54,1,298.59999999962747,826548.0,7152,WL,C,14.0
7,43.47000002861023,immed,16529.99997138977,Fri May 23 2025 14:34:39 GMT-0500 (Central Daylight Time),826948.5,A,hom,O,m,97,1,400.5,826548.0,7152,WL,C,14.0
7,43.604000091552734,immed,16395.999908447266,Fri May 23 2025 14:34:39 GMT-0500 (Central Daylight Time),827083.0,A,home,O,e,128,1,535.0,826548.0,7152,WL,C,14.0
7,43.75200009346008,immed,16247.999906539917,Fri May 23 2025 14:34:39 GMT-0500 (Central Daylight Time),827230.2999999998,A,homeenter,O,enter,129,1,682.2999999998137,826548.0,7152,WL,C,14.0
7,44.05299997329712,immed,15947.00002670288,Fri May 23 2025 14:34:39 GMT-0500 (Central Daylight Time),827532.0,A,c,O,c,296,1,301.5,827230.5,7152,WL,C,15.0
7,44.13599991798401,immed,15864.000082015991,Fri May 23 2025 14:34:39 GMT-0500 (Central Daylight Time),827614.7000000002,A,ca,O,a,72,1,384.20000000018626,827230.5,7152,WL,C,15.0
