acc_sum,block,block_c,change,condition,correct,correct_response,datetime,endtime,face,project,response,response_time,row_sel,session_number,start_end,starttime,subject_id,task,task_vers,trial
0,prac,1,,1-Back,,,Tue Aug 12 2025 17:24:39 GMT-0500 (Central Daylight Time),,124_o_f_d_a.png,O,space,7205,1,1,,,7215,VNB,A,0
1,prac,1,0.0,1-Back,1.0,m,Tue Aug 12 2025 17:24:39 GMT-0500 (Central Daylight Time),159593.0,071_y_f_n_a.png,O,m,1218,2,1,2047.0999999046326,157545.90000009537,7215,VNB,A,1
1,prac,1,0.0,1-Back,0.0,m,Tue Aug 12 2025 17:24:39 GMT-0500 (Central Daylight Time),162441.59999990463,165_m_m_h_a.png,O,None,2005,3,1,2821.0999999046326,159620.5,7215,VNB,A,2
2,prac,1,0.0,1-Back,1.0,m,Tue Aug 12 2025 17:24:39 GMT-0500 (Central Daylight Time),164491.20000004768,109_y_m_d_a.png,O,m,1182,4,1,2016.7000000476837,162474.5,7215,VNB,A,3
3,prac,1,0.0,1-Back,1.0,m,Tue Aug 12 2025 17:24:39 GMT-0500 (Central Daylight Time),166407.09999990463,124_o_f_n_a.png,O,m,1015,5,1,1875.7999999523163,164531.29999995232,7215,VNB,A,4
4,prac,1,1.0,1-Back,1.0,z,Tue Aug 12 2025 17:24:39 GMT-0500 (Central Daylight Time),168773.0,109_y_m_n_a.png,O,z,1489,6,1,2323.4000000953674,166449.59999990463,7215,VNB,A,5
5,prac,1,0.0,1-Back,1.0,m,Tue Aug 12 2025 17:24:39 GMT-0500 (Central Daylight Time),170472.70000004768,039_o_m_h_a.png,O,m,848,7,1,1672.5,168800.20000004768,7215,VNB,A,6
6,prac,1,0.0,1-Back,1.0,m,Tue Aug 12 2025 17:24:39 GMT-0500 (Central Daylight Time),172288.29999995232,139_m_f_d_a.png,O,m,954,8,1,1782.5,170505.79999995232,7215,VNB,A,7
7,prac,1,1.0,1-Back,1.0,z,Tue Aug 12 2025 17:24:39 GMT-0500 (Central Daylight Time),173804.70000004768,071_y_f_d_a.png,O,z,634,9,1,1477.2000000476837,172327.5,7215,VNB,A,8
8,prac,1,0.0,1-Back,1.0,m,Tue Aug 12 2025 17:24:39 GMT-0500 (Central Daylight Time),175637.29999995232,165_m_m_n_a.png,O,m,981,10,1,1801.0,173836.29999995232,7215,VNB,A,9
9,prac,1,0.0,1-Back,1.0,m,Tue Aug 12 2025 17:24:39 GMT-0500 (Central Daylight Time),177286.90000009537,124_o_f_h_a.png,O,m,772,11,1,1620.2000000476837,175666.70000004768,7215,VNB,A,10
10,prac,1,0.0,1-Back,1.0,m,Tue Aug 12 2025 17:24:39 GMT-0500 (Central Daylight Time),179103.0,109_y_m_d_a.png,O,m,1007,12,1,1787.0,177316.0,7215,VNB,A,11
0,test,1,0.0,1-Back,,,Tue Aug 12 2025 17:24:39 GMT-0500 (Central Daylight Time),179103.0,071_y_f_d_a.png,O,space,8214,1,1,1787.0,177316.0,7215,VNB,A,0
1,test,1,0.0,1-Back,1.0,m,Tue Aug 12 2025 17:24:39 GMT-0500 (Central Daylight Time),195564.40000009537,139_m_f_n_a.png,O,m,966,2,1,1998.5,193565.90000009537,7215,VNB,A,1
2,test,1,0.0,1-Back,1.0,m,Tue Aug 12 2025 17:24:39 GMT-0500 (Central Daylight Time),197530.20000004768,039_o_m_h_a.png,O,m,902,3,1,1933.9000000953674,195596.29999995232,7215,VNB,A,2
3,test,1,1.0,1-Back,1.0,z,Tue Aug 12 2025 17:24:39 GMT-0500 (Central Daylight Time),199829.40000009537,165_m_m_h_a.png,O,z,1256,4,1,2269.2000000476837,197560.20000004768,7215,VNB,A,3
4,test,1,0.0,1-Back,1.0,m,Tue Aug 12 2025 17:24:39 GMT-0500 (Central Daylight Time),201661.90000009537,124_o_f_n_a.png,O,m,773,5,1,1800.6000001430511,199861.29999995232,7215,VNB,A,4
5,test,1,0.0,1-Back,1.0,m,Tue Aug 12 2025 17:24:39 GMT-0500 (Central Daylight Time),203944.59999990463,109_y_m_d_a.png,O,m,1220,6,1,2251.0999999046326,201693.5,7215,VNB,A,5
6,test,1,1.0,1-Back,1.0,z,Tue Aug 12 2025 17:24:39 GMT-0500 (Central Daylight Time),206209.70000004768,139_m_f_d_a.png,O,z,1208,7,1,2231.2999999523163,203978.40000009537,7215,VNB,A,6
7,test,1,0.0,1-Back,1.0,m,Tue Aug 12 2025 17:24:39 GMT-0500 (Central Daylight Time),208227.0,071_y_f_h_a.png,O,m,984,8,1,2006.5,206220.5,7215,VNB,A,7
8,test,1,0.0,1-Back,1.0,m,Tue Aug 12 2025 17:24:39 GMT-0500 (Central Daylight Time),210125.79999995232,039_o_m_n_a.png,O,m,847,9,1,1866.0,208259.79999995232,7215,VNB,A,8
8,test,1,0.0,1-Back,0.0,m,Tue Aug 12 2025 17:24:39 GMT-0500 (Central Daylight Time),213191.90000009537,109_y_m_h_a.png,O,None,2016,10,1,3033.2000000476837,210158.70000004768,7215,VNB,A,9
8,test,1,0.0,1-Back,0.0,m,Tue Aug 12 2025 17:24:39 GMT-0500 (Central Daylight Time),215224.70000004768,039_o_m_d_a.png,O,z,995,11,1,2003.6000001430511,213221.09999990463,7215,VNB,A,10
9,test,1,1.0,1-Back,1.0,z,Tue Aug 12 2025 17:24:39 GMT-0500 (Central Daylight Time),217190.0,124_o_f_d_a.png,O,z,913,12,1,1931.5999999046326,215258.40000009537,7215,VNB,A,11
10,test,1,0.0,1-Back,1.0,m,Tue Aug 12 2025 17:24:39 GMT-0500 (Central Daylight Time),219023.09999990463,165_m_m_n_a.png,O,m,789,13,1,1807.8999998569489,217215.20000004768,7215,VNB,A,12
11,test,1,1.0,1-Back,1.0,z,Tue Aug 12 2025 17:24:39 GMT-0500 (Central Daylight Time),220889.09999990463,071_y_f_n_a.png,O,z,827,14,1,1840.8999998569489,219048.20000004768,7215,VNB,A,13
12,test,1,0.0,1-Back,1.0,m,Tue Aug 12 2025 17:24:39 GMT-0500 (Central Daylight Time),222738.5,139_m_f_h_a.png,O,m,792,15,1,1814.7000000476837,220923.79999995232,7215,VNB,A,14
13,test,1,0.0,1-Back,1.0,m,Tue Aug 12 2025 17:24:39 GMT-0500 (Central Daylight Time),224671.20000004768,165_m_m_d_a.png,O,m,888,16,1,1907.1000001430511,222764.09999990463,7215,VNB,A,15
14,test,1,0.0,1-Back,1.0,m,Tue Aug 12 2025 17:24:39 GMT-0500 (Central Daylight Time),226687.20000004768,109_y_m_n_a.png,O,m,954,17,1,1983.9000000953674,224703.29999995232,7215,VNB,A,16
15,test,1,0.0,1-Back,1.0,m,Tue Aug 12 2025 17:24:39 GMT-0500 (Central Daylight Time),228436.70000004768,124_o_f_h_a.png,O,m,682,18,1,1717.1000001430511,226719.59999990463,7215,VNB,A,17
0,test,2,0.0,1-Back,,,Tue Aug 12 2025 17:24:39 GMT-0500 (Central Daylight Time),228436.70000004768,109_y_m_n_a.png,O,space,1678,1,1,1717.1000001430511,226719.59999990463,7215,VNB,A,0
1,test,2,0.0,1-Back,1.0,m,Tue Aug 12 2025 17:24:39 GMT-0500 (Central Daylight Time),234883.70000004768,071_y_f_h_a.png,O,m,1689,2,1,2702.7999999523163,232180.90000009537,7215,VNB,A,1
2,test,2,1.0,1-Back,1.0,m,Tue Aug 12 2025 17:24:39 GMT-0500 (Central Daylight Time),236916.90000009537,039_o_m_n_a.png,O,m,1008,3,1,2024.2000000476837,234892.70000004768,7215,VNB,A,2
3,test,2,0.0,1-Back,1.0,m,Tue Aug 12 2025 17:24:39 GMT-0500 (Central Daylight Time),238783.29999995232,139_m_f_d_a.png,O,m,829,4,1,1839.5,236943.79999995232,7215,VNB,A,3
4,test,2,0.0,1-Back,1.0,z,Tue Aug 12 2025 17:24:39 GMT-0500 (Central Daylight Time),240432.79999995232,165_m_m_d_a.png,O,z,586,5,1,1616.7999999523163,238816.0,7215,VNB,A,4
5,test,2,0.0,1-Back,1.0,m,Tue Aug 12 2025 17:24:39 GMT-0500 (Central Daylight Time),242265.40000009537,109_y_m_h_a.png,O,m,777,6,1,1800.6000001430511,240464.79999995232,7215,VNB,A,5
6,test,2,1.0,1-Back,1.0,z,Tue Aug 12 2025 17:24:39 GMT-0500 (Central Daylight Time),244230.79999995232,124_o_f_h_a.png,O,z,911,7,1,1933.5,242297.29999995232,7215,VNB,A,6
7,test,2,0.0,1-Back,1.0,m,Tue Aug 12 2025 17:24:39 GMT-0500 (Central Daylight Time),246014.40000009537,139_m_f_n_a.png,O,m,757,8,1,1768.0,244246.40000009537,7215,VNB,A,7
8,test,2,0.0,1-Back,1.0,m,Tue Aug 12 2025 17:24:39 GMT-0500 (Central Daylight Time),247930.20000004768,071_y_f_d_a.png,O,m,876,9,1,1887.2000000476837,246043.0,7215,VNB,A,8
9,test,2,0.0,1-Back,1.0,m,Tue Aug 12 2025 17:24:39 GMT-0500 (Central Daylight Time),249746.20000004768,165_m_m_n_a.png,O,m,776,10,1,1784.7000000476837,247961.5,7215,VNB,A,9
10,test,2,1.0,1-Back,1.0,m,Tue Aug 12 2025 17:24:39 GMT-0500 (Central Daylight Time),251612.5,139_m_f_h_a.png,O,m,824,11,1,1842.2000000476837,249770.29999995232,7215,VNB,A,10
11,test,2,0.0,1-Back,1.0,z,Tue Aug 12 2025 17:24:39 GMT-0500 (Central Daylight Time),253411.70000004768,039_o_m_h_a.png,O,z,733,12,1,1767.7000000476837,251644.0,7215,VNB,A,11
12,test,2,0.0,1-Back,1.0,m,Tue Aug 12 2025 17:24:39 GMT-0500 (Central Daylight Time),255427.79999995232,109_y_m_d_a.png,O,m,975,13,1,1984.2000000476837,253443.59999990463,7215,VNB,A,12
13,test,2,0.0,1-Back,1.0,m,Tue Aug 12 2025 17:24:39 GMT-0500 (Central Daylight Time),258160.20000004768,124_o_f_n_a.png,O,m,1679,14,1,2700.2000000476837,255460.0,7215,VNB,A,13
14,test,2,0.0,1-Back,1.0,z,Tue Aug 12 2025 17:24:39 GMT-0500 (Central Daylight Time),260476.90000009537,071_y_f_n_a.png,O,z,1282,15,1,2285.0,258191.90000009537,7215,VNB,A,14
15,test,2,1.0,1-Back,1.0,m,Tue Aug 12 2025 17:24:39 GMT-0500 (Central Daylight Time),262442.09999990463,165_m_m_h_a.png,O,m,926,16,1,1937.8999998569489,260504.20000004768,7215,VNB,A,15
16,test,2,0.0,1-Back,1.0,m,Tue Aug 12 2025 17:24:39 GMT-0500 (Central Daylight Time),264491.59999990463,124_o_f_d_a.png,O,m,983,17,1,2017.5999999046326,262474.0,7215,VNB,A,16
17,test,2,1.0,1-Back,1.0,z,Tue Aug 12 2025 17:24:39 GMT-0500 (Central Daylight Time),266424.2000000477,039_o_m_d_a.png,O,z,887,18,1,1902.5,264521.7000000477,7215,VNB,A,17
0,test,3,1.0,1-Back,,,Tue Aug 12 2025 17:24:39 GMT-0500 (Central Daylight Time),266424.2000000477,124_o_f_h_a.png,O,space,1698,1,1,1902.5,264521.7000000477,7215,VNB,A,0
1,test,3,0.0,1-Back,1.0,m,Tue Aug 12 2025 17:24:39 GMT-0500 (Central Daylight Time),272122.2999999523,139_m_f_d_a.png,O,m,794,2,1,1816.8999998569489,270305.40000009537,7215,VNB,A,1
2,test,3,1.0,1-Back,1.0,m,Tue Aug 12 2025 17:24:39 GMT-0500 (Central Daylight Time),273921.7999999523,165_m_m_n_a.png,O,m,752,3,1,1773.7999999523163,272148.0,7215,VNB,A,2
3,test,3,0.0,1-Back,1.0,z,Tue Aug 12 2025 17:24:39 GMT-0500 (Central Daylight Time),275571.2999999523,124_o_f_n_a.png,O,z,592,4,1,1607.5999999046326,273963.7000000477,7215,VNB,A,3
3,test,3,1.0,1-Back,0.0,m,Tue Aug 12 2025 17:24:39 GMT-0500 (Central Daylight Time),277637.2000000477,039_o_m_d_a.png,O,z,1023,5,1,2038.5,275598.7000000477,7215,VNB,A,4
3,test,3,0.0,1-Back,0.0,m,Tue Aug 12 2025 17:24:39 GMT-0500 (Central Daylight Time),279553.2999999523,071_y_f_h_a.png,O,z,877,6,1,1889.0,277664.2999999523,7215,VNB,A,5
4,test,3,0.0,1-Back,1.0,z,Tue Aug 12 2025 17:24:39 GMT-0500 (Central Daylight Time),281935.7999999523,109_y_m_h_a.png,O,z,1345,7,1,2353.2999999523163,279582.5,7215,VNB,A,6
5,test,3,0.0,1-Back,1.0,m,Tue Aug 12 2025 17:24:39 GMT-0500 (Central Daylight Time),283635.09999990463,139_m_f_n_a.png,O,m,651,8,1,1676.8999998569489,281958.2000000477,7215,VNB,A,7
6,test,3,0.0,1-Back,1.0,m,Tue Aug 12 2025 17:24:39 GMT-0500 (Central Daylight Time),285751.09999990463,071_y_f_d_a.png,O,m,1071,9,1,2087.5999999046326,283663.5,7215,VNB,A,8
7,test,3,1.0,1-Back,1.0,m,Tue Aug 12 2025 17:24:39 GMT-0500 (Central Daylight Time),287450.7000000477,039_o_m_n_a.png,O,m,634,10,1,1667.7999999523163,285782.90000009537,7215,VNB,A,9
8,test,3,0.0,1-Back,1.0,m,Tue Aug 12 2025 17:24:39 GMT-0500 (Central Daylight Time),289100.09999990463,165_m_m_h_a.png,O,m,600,11,1,1623.6999998092651,287476.40000009537,7215,VNB,A,10
9,test,3,0.0,1-Back,1.0,z,Tue Aug 12 2025 17:24:39 GMT-0500 (Central Daylight Time),291199.40000009537,139_m_f_h_a.png,O,z,1054,12,1,2073.800000190735,289125.59999990463,7215,VNB,A,11
10,test,3,1.0,1-Back,1.0,m,Tue Aug 12 2025 17:24:39 GMT-0500 (Central Daylight Time),293048.7000000477,124_o_f_d_a.png,O,m,803,13,1,1823.2999999523163,291225.40000009537,7215,VNB,A,12
11,test,3,0.0,1-Back,1.0,z,Tue Aug 12 2025 17:24:39 GMT-0500 (Central Daylight Time),295098.0,165_m_m_d_a.png,O,z,985,14,1,2016.5,293081.5,7215,VNB,A,13
12,test,3,0.0,1-Back,1.0,m,Tue Aug 12 2025 17:24:39 GMT-0500 (Central Daylight Time),296781.09999990463,109_y_m_n_a.png,O,m,648,15,1,1656.3999998569489,295124.7000000477,7215,VNB,A,14
13,test,3,1.0,1-Back,1.0,m,Tue Aug 12 2025 17:24:39 GMT-0500 (Central Daylight Time),298946.90000009537,039_o_m_h_a.png,O,m,1117,16,1,2140.800000190735,296806.09999990463,7215,VNB,A,15
13,test,3,0.0,1-Back,0.0,m,Tue Aug 12 2025 17:24:39 GMT-0500 (Central Daylight Time),300963.0,109_y_m_d_a.png,O,z,951,17,1,1982.7000000476837,298980.2999999523,7215,VNB,A,16
14,test,3,1.0,1-Back,1.0,m,Tue Aug 12 2025 17:24:39 GMT-0500 (Central Daylight Time),303695.09999990463,071_y_f_n_a.png,O,m,1671,18,1,2699.0,300996.09999990463,7215,VNB,A,17
0,test,4,1.0,1-Back,,,Tue Aug 12 2025 17:24:39 GMT-0500 (Central Daylight Time),303695.09999990463,165_m_m_d_a.png,O,space,1251,1,1,2699.0,300996.09999990463,7215,VNB,A,0
1,test,4,0.0,1-Back,1.0,z,Tue Aug 12 2025 17:24:39 GMT-0500 (Central Daylight Time),308809.7999999523,039_o_m_d_a.png,O,z,726,2,1,1743.3999998569489,307066.40000009537,7215,VNB,A,1
2,test,4,0.0,1-Back,1.0,m,Tue Aug 12 2025 17:24:39 GMT-0500 (Central Daylight Time),310459.59999990463,109_y_m_h_a.png,O,m,608,3,1,1631.0,308828.59999990463,7215,VNB,A,2
3,test,4,0.0,1-Back,1.0,m,Tue Aug 12 2025 17:24:39 GMT-0500 (Central Daylight Time),312559.09999990463,139_m_f_n_a.png,O,m,1054,4,1,2071.7999999523163,310487.2999999523,7215,VNB,A,3
4,test,4,1.0,1-Back,1.0,m,Tue Aug 12 2025 17:24:39 GMT-0500 (Central Daylight Time),314575.09999990463,124_o_f_h_a.png,O,m,979,5,1,1988.6999998092651,312586.40000009537,7215,VNB,A,4
5,test,4,0.0,1-Back,1.0,m,Tue Aug 12 2025 17:24:39 GMT-0500 (Central Daylight Time),316457.5,165_m_m_n_a.png,O,m,835,6,1,1858.2000000476837,314599.2999999523,7215,VNB,A,5
6,test,4,0.0,1-Back,1.0,m,Tue Aug 12 2025 17:24:39 GMT-0500 (Central Daylight Time),318307.2000000477,109_y_m_d_a.png,O,m,808,7,1,1828.6000001430511,316478.59999990463,7215,VNB,A,6
7,test,4,1.0,1-Back,1.0,z,Tue Aug 12 2025 17:24:39 GMT-0500 (Central Daylight Time),319989.7999999523,071_y_f_d_a.png,O,z,622,8,1,1649.2000000476837,318340.59999990463,7215,VNB,A,7
8,test,4,0.0,1-Back,1.0,m,Tue Aug 12 2025 17:24:39 GMT-0500 (Central Daylight Time),321806.0,139_m_f_h_a.png,O,m,764,9,1,1783.7000000476837,320022.2999999523,7215,VNB,A,8
9,test,4,0.0,1-Back,1.0,z,Tue Aug 12 2025 17:24:39 GMT-0500 (Central Daylight Time),323472.09999990463,039_o_m_h_a.png,O,z,627,10,1,1642.0,321830.09999990463,7215,VNB,A,9
10,test,4,1.0,1-Back,1.0,m,Tue Aug 12 2025 17:24:39 GMT-0500 (Central Daylight Time),325405.2999999523,124_o_f_n_a.png,O,m,899,11,1,1901.8999998569489,323503.40000009537,7215,VNB,A,10
11,test,4,0.0,1-Back,1.0,m,Tue Aug 12 2025 17:24:39 GMT-0500 (Central Daylight Time),327687.40000009537,139_m_f_d_a.png,O,m,1238,12,1,2259.2000000476837,325428.2000000477,7215,VNB,A,11
12,test,4,0.0,1-Back,1.0,m,Tue Aug 12 2025 17:24:39 GMT-0500 (Central Daylight Time),329420.0,071_y_f_n_a.png,O,m,674,13,1,1700.4000000953674,327719.59999990463,7215,VNB,A,12
13,test,4,0.0,1-Back,1.0,m,Tue Aug 12 2025 17:24:39 GMT-0500 (Central Daylight Time),331469.5,124_o_f_d_a.png,O,m,1015,14,1,2023.7000000476837,329445.7999999523,7215,VNB,A,13
14,test,4,0.0,1-Back,1.0,m,Tue Aug 12 2025 17:24:39 GMT-0500 (Central Daylight Time),333602.2000000477,071_y_f_h_a.png,O,m,1085,15,1,2103.5,331498.7000000477,7215,VNB,A,14
15,test,4,1.0,1-Back,1.0,z,Tue Aug 12 2025 17:24:39 GMT-0500 (Central Daylight Time),335417.7999999523,165_m_m_h_a.png,O,z,775,16,1,1787.7000000476837,333630.09999990463,7215,VNB,A,15
16,test,4,0.0,1-Back,1.0,m,Tue Aug 12 2025 17:24:39 GMT-0500 (Central Daylight Time),337334.2000000477,039_o_m_n_a.png,O,m,872,17,1,1895.1000001430511,335439.09999990463,7215,VNB,A,16
17,test,4,1.0,1-Back,1.0,z,Tue Aug 12 2025 17:24:39 GMT-0500 (Central Daylight Time),339516.7000000477,109_y_m_n_a.png,O,z,1140,18,1,2151.2000000476837,337365.5,7215,VNB,A,17
0,test,5,1.0,1-Back,,,Tue Aug 12 2025 17:24:39 GMT-0500 (Central Daylight Time),339516.7000000477,039_o_m_n_a.png,O,space,1133,1,1,2151.2000000476837,337365.5,7215,VNB,A,0
1,test,5,1.0,1-Back,1.0,m,Tue Aug 12 2025 17:24:39 GMT-0500 (Central Daylight Time),344781.90000009537,124_o_f_h_a.png,O,m,1041,2,1,2059.100000143051,342722.7999999523,7215,VNB,A,1
2,test,5,0.0,1-Back,1.0,m,Tue Aug 12 2025 17:24:39 GMT-0500 (Central Daylight Time),346631.2999999523,109_y_m_d_a.png,O,m,788,3,1,1816.2000000476837,344815.09999990463,7215,VNB,A,2
3,test,5,0.0,1-Back,1.0,z,Tue Aug 12 2025 17:24:39 GMT-0500 (Central Daylight Time),348314.09999990463,039_o_m_d_a.png,O,z,626,4,1,1650.1999998092651,346663.90000009537,7215,VNB,A,3
4,test,5,0.0,1-Back,1.0,m,Tue Aug 12 2025 17:24:39 GMT-0500 (Central Daylight Time),350146.40000009537,139_m_f_h_a.png,O,m,777,5,1,1799.7000000476837,348346.7000000477,7215,VNB,A,4
5,test,5,0.0,1-Back,1.0,m,Tue Aug 12 2025 17:24:39 GMT-0500 (Central Daylight Time),351762.7000000477,071_y_f_n_a.png,O,m,559,6,1,1584.2999999523163,350178.40000009537,7215,VNB,A,5
6,test,5,1.0,1-Back,1.0,z,Tue Aug 12 2025 17:24:39 GMT-0500 (Central Daylight Time),353662.0,124_o_f_n_a.png,O,z,864,7,1,1874.5,351787.5,7215,VNB,A,6
7,test,5,0.0,1-Back,1.0,m,Tue Aug 12 2025 17:24:39 GMT-0500 (Central Daylight Time),355445.09999990463,139_m_f_d_a.png,O,m,716,8,1,1750.1999998092651,353694.90000009537,7215,VNB,A,7
8,test,5,0.0,1-Back,1.0,m,Tue Aug 12 2025 17:24:39 GMT-0500 (Central Daylight Time),357094.5,109_y_m_h_a.png,O,m,613,9,1,1622.5999999046326,355471.90000009537,7215,VNB,A,8
9,test,5,0.0,1-Back,1.0,m,Tue Aug 12 2025 17:24:39 GMT-0500 (Central Daylight Time),358976.2000000477,071_y_f_d_a.png,O,m,835,10,1,1854.7999999523163,357121.40000009537,7215,VNB,A,9
10,test,5,0.0,1-Back,1.0,m,Tue Aug 12 2025 17:24:39 GMT-0500 (Central Daylight Time),361259.7000000477,165_m_m_n_a.png,O,m,1258,11,1,2273.7999999523163,358985.90000009537,7215,VNB,A,10
11,test,5,1.0,1-Back,1.0,z,Tue Aug 12 2025 17:24:39 GMT-0500 (Central Daylight Time),363175.7999999523,139_m_f_n_a.png,O,z,880,12,1,1886.3999998569489,361289.40000009537,7215,VNB,A,11
12,test,5,0.0,1-Back,1.0,m,Tue Aug 12 2025 17:24:39 GMT-0500 (Central Daylight Time),364974.40000009537,039_o_m_h_a.png,O,m,761,13,1,1767.2000000476837,363207.2000000477,7215,VNB,A,12
12,test,5,0.0,1-Back,0.0,z,Tue Aug 12 2025 17:24:39 GMT-0500 (Central Daylight Time),367007.90000009537,165_m_m_h_a.png,O,m,995,14,1,2014.3000001907349,364993.59999990463,7215,VNB,A,13
13,test,5,1.0,1-Back,1.0,m,Tue Aug 12 2025 17:24:39 GMT-0500 (Central Daylight Time),368790.5,124_o_f_d_a.png,O,m,730,15,1,1750.0,367040.5,7215,VNB,A,14
14,test,5,0.0,1-Back,1.0,m,Tue Aug 12 2025 17:24:39 GMT-0500 (Central Daylight Time),370906.09999990463,109_y_m_n_a.png,O,m,1067,16,1,2086.199999809265,368819.90000009537,7215,VNB,A,15
15,test,5,0.0,1-Back,1.0,m,Tue Aug 12 2025 17:24:39 GMT-0500 (Central Daylight Time),373122.59999990463,071_y_f_h_a.png,O,m,1168,17,1,2194.699999809265,370927.90000009537,7215,VNB,A,16
16,test,5,0.0,1-Back,1.0,m,Tue Aug 12 2025 17:24:39 GMT-0500 (Central Daylight Time),375372.0,165_m_m_d_a.png,O,m,1183,18,1,2217.0999999046326,373154.90000009537,7215,VNB,A,17
0,prac,1,0.0,2-Back,,,Tue Aug 12 2025 17:24:39 GMT-0500 (Central Daylight Time),375372.0,139_m_f_n_a.png,O,space,2086,1,1,2217.0999999046326,373154.90000009537,7215,VNB,A,0
0,prac,1,0.0,2-Back,,,Tue Aug 12 2025 17:24:39 GMT-0500 (Central Daylight Time),375372.0,124_o_f_h_a.png,O,space,2086,2,1,2217.0999999046326,373154.90000009537,7215,VNB,A,0
1,prac,1,0.0,2-Back,1.0,m,Tue Aug 12 2025 17:24:39 GMT-0500 (Central Daylight Time),473989.90000009537,039_o_m_d_a.png,O,m,1080,3,1,1909.5,472080.40000009537,7215,VNB,A,1
1,prac,1,1.0,2-Back,0.0,z,Tue Aug 12 2025 17:24:39 GMT-0500 (Central Daylight Time),476856.2000000477,165_m_m_h_a.png,O,None,2002,4,1,2824.2999999523163,474031.90000009537,7215,VNB,A,2
2,prac,1,0.0,2-Back,1.0,m,Tue Aug 12 2025 17:24:39 GMT-0500 (Central Daylight Time),479321.2999999523,071_y_f_n_a.png,O,m,1594,5,1,2429.2999999523163,476892.0,7215,VNB,A,3
2,prac,1,1.0,2-Back,0.0,z,Tue Aug 12 2025 17:24:39 GMT-0500 (Central Daylight Time),481270.59999990463,039_o_m_h_a.png,O,m,1102,6,1,1922.0999999046326,479348.5,7215,VNB,A,4
2,prac,1,1.0,2-Back,0.0,z,Tue Aug 12 2025 17:24:39 GMT-0500 (Central Daylight Time),483985.59999990463,109_y_m_n_a.png,O,m,1841,7,1,2687.899999856949,481297.7000000477,7215,VNB,A,5
2,prac,1,0.0,2-Back,0.0,m,Tue Aug 12 2025 17:24:39 GMT-0500 (Central Daylight Time),485969.09999990463,139_m_f_d_a.png,O,z,1152,8,1,1972.5,483996.59999990463,7215,VNB,A,6
2,prac,1,0.0,2-Back,0.0,m,Tue Aug 12 2025 17:24:39 GMT-0500 (Central Daylight Time),488884.5,124_o_f_d_a.png,O,None,2017,9,1,2879.9000000953674,486004.59999990463,7215,VNB,A,7
3,prac,1,0.0,2-Back,1.0,m,Tue Aug 12 2025 17:24:39 GMT-0500 (Central Daylight Time),491000.2999999523,165_m_m_h_a.png,O,m,1314,10,1,2085.7000000476837,488914.59999990463,7215,VNB,A,8
3,prac,1,1.0,2-Back,0.0,z,Tue Aug 12 2025 17:24:39 GMT-0500 (Central Daylight Time),492700.0,071_y_f_d_a.png,O,m,839,11,1,1659.5,491040.5,7215,VNB,A,9
3,prac,1,0.0,2-Back,0.0,m,Tue Aug 12 2025 17:24:39 GMT-0500 (Central Daylight Time),495549.0,039_o_m_n_a.png,O,None,2008,12,1,2820.9000000953674,492728.09999990463,7215,VNB,A,10
0,prac,2,0.0,2-Back,,,Tue Aug 12 2025 17:24:39 GMT-0500 (Central Daylight Time),495549.0,139_m_f_n_a.png,O,a,4025,1,1,2820.9000000953674,492728.09999990463,7215,VNB,A,0
0,prac,2,0.0,2-Back,,,Tue Aug 12 2025 17:24:39 GMT-0500 (Central Daylight Time),495549.0,124_o_f_h_a.png,O,a,4025,2,1,2820.9000000953674,492728.09999990463,7215,VNB,A,0
1,prac,2,0.0,2-Back,1.0,m,Tue Aug 12 2025 17:24:39 GMT-0500 (Central Daylight Time),507012.09999990463,039_o_m_d_a.png,O,m,1404,3,1,2229.5999999046326,504782.5,7215,VNB,A,1
2,prac,2,1.0,2-Back,1.0,z,Tue Aug 12 2025 17:24:39 GMT-0500 (Central Daylight Time),508993.7000000477,165_m_m_h_a.png,O,z,1189,4,1,1956.2000000476837,507037.5,7215,VNB,A,2
3,prac,2,0.0,2-Back,1.0,m,Tue Aug 12 2025 17:24:39 GMT-0500 (Central Daylight Time),511783.09999990463,071_y_f_n_a.png,O,m,1949,5,1,2777.2999999523163,509005.7999999523,7215,VNB,A,3
4,prac,2,1.0,2-Back,1.0,z,Tue Aug 12 2025 17:24:39 GMT-0500 (Central Daylight Time),513810.0,039_o_m_h_a.png,O,z,1181,6,1,1999.2000000476837,511810.7999999523,7215,VNB,A,4
4,prac,2,1.0,2-Back,0.0,z,Tue Aug 12 2025 17:24:39 GMT-0500 (Central Daylight Time),516675.40000009537,109_y_m_n_a.png,O,None,2003,7,1,2832.100000143051,513843.2999999523,7215,VNB,A,5
5,prac,2,0.0,2-Back,1.0,m,Tue Aug 12 2025 17:24:39 GMT-0500 (Central Daylight Time),518891.7000000477,139_m_f_d_a.png,O,m,1346,8,1,2174.7999999523163,516716.90000009537,7215,VNB,A,6
5,prac,2,0.0,2-Back,0.0,m,Tue Aug 12 2025 17:24:39 GMT-0500 (Central Daylight Time),521457.5,124_o_f_d_a.png,O,z,1649,9,1,2524.5999999046326,518932.90000009537,7215,VNB,A,7
6,prac,2,0.0,2-Back,1.0,m,Tue Aug 12 2025 17:24:39 GMT-0500 (Central Daylight Time),523440.2000000477,165_m_m_h_a.png,O,m,1167,10,1,1948.1000001430511,521492.09999990463,7215,VNB,A,8
6,prac,2,1.0,2-Back,0.0,z,Tue Aug 12 2025 17:24:39 GMT-0500 (Central Daylight Time),526288.9000000954,071_y_f_d_a.png,O,None,2002,11,1,2815.600000143051,523473.2999999523,7215,VNB,A,9
7,prac,2,0.0,2-Back,1.0,m,Tue Aug 12 2025 17:24:39 GMT-0500 (Central Daylight Time),528771.7000000477,039_o_m_n_a.png,O,m,1627,12,1,2448.600000143051,526323.0999999046,7215,VNB,A,10
0,test,1,0.0,2-Back,,,Tue Aug 12 2025 17:24:39 GMT-0500 (Central Daylight Time),528771.7000000477,109_y_m_h_a.png,O,space,7031,1,1,2448.600000143051,526323.0999999046,7215,VNB,A,0
0,test,1,0.0,2-Back,,,Tue Aug 12 2025 17:24:39 GMT-0500 (Central Daylight Time),528771.7000000477,124_o_f_n_a.png,O,space,7031,2,1,2448.600000143051,526323.0999999046,7215,VNB,A,0
1,test,1,0.0,2-Back,1.0,z,Tue Aug 12 2025 17:24:39 GMT-0500 (Central Daylight Time),553513.7000000477,039_o_m_h_a.png,O,z,1044,3,1,2051.0,551462.7000000477,7215,VNB,A,1
2,test,1,0.0,2-Back,1.0,m,Tue Aug 12 2025 17:24:39 GMT-0500 (Central Daylight Time),555762.7000000477,139_m_f_d_a.png,O,m,1209,4,1,2225.2000000476837,553537.5,7215,VNB,A,2
2,test,1,1.0,2-Back,0.0,m,Tue Aug 12 2025 17:24:39 GMT-0500 (Central Daylight Time),558528.5,109_y_m_n_a.png,O,z,1721,5,1,2740.4000000953674,555788.0999999046,7215,VNB,A,3
3,test,1,0.0,2-Back,1.0,z,Tue Aug 12 2025 17:24:39 GMT-0500 (Central Daylight Time),561394.2999999523,071_y_f_d_a.png,O,z,1801,6,1,2830.0,558564.2999999523,7215,VNB,A,4
3,test,1,0.0,2-Back,0.0,m,Tue Aug 12 2025 17:24:39 GMT-0500 (Central Daylight Time),564442.4000000954,165_m_m_h_a.png,O,None,2014,7,1,3018.5,561423.9000000954,7215,VNB,A,5
3,test,1,1.0,2-Back,0.0,m,Tue Aug 12 2025 17:24:39 GMT-0500 (Central Daylight Time),567475.4000000954,071_y_f_n_a.png,O,None,2015,8,1,3022.0,564453.4000000954,7215,VNB,A,6
4,test,1,0.0,2-Back,1.0,z,Tue Aug 12 2025 17:24:39 GMT-0500 (Central Daylight Time),569574.9000000954,124_o_f_h_a.png,O,z,1039,9,1,2066.300000190735,567508.5999999046,7215,VNB,A,7
4,test,1,0.0,2-Back,0.0,m,Tue Aug 12 2025 17:24:39 GMT-0500 (Central Daylight Time),571557.2999999523,039_o_m_d_a.png,O,z,931,10,1,1948.8999998569489,569608.4000000954,7215,VNB,A,8
5,test,1,1.0,2-Back,1.0,m,Tue Aug 12 2025 17:24:39 GMT-0500 (Central Daylight Time),574206.4000000954,165_m_m_d_a.png,O,m,1598,11,1,2617.100000143051,571589.2999999523,7215,VNB,A,9
5,test,1,0.0,2-Back,0.0,m,Tue Aug 12 2025 17:24:39 GMT-0500 (Central Daylight Time),577255.5999999046,139_m_f_n_a.png,O,None,2015,12,1,3021.7999999523163,574233.7999999523,7215,VNB,A,10
6,test,1,0.0,2-Back,1.0,m,Tue Aug 12 2025 17:24:39 GMT-0500 (Central Daylight Time),579721.5999999046,071_y_f_h_a.png,O,m,1411,13,1,2433.199999809265,577288.4000000954,7215,VNB,A,11
7,test,1,0.0,2-Back,1.0,z,Tue Aug 12 2025 17:24:39 GMT-0500 (Central Daylight Time),581787.5,165_m_m_n_a.png,O,z,1018,14,1,2035.4000000953674,579752.0999999046,7215,VNB,A,12
8,test,1,0.0,2-Back,1.0,m,Tue Aug 12 2025 17:24:39 GMT-0500 (Central Daylight Time),583653.5999999046,109_y_m_d_a.png,O,m,807,15,1,1833.8999998569489,581819.7000000477,7215,VNB,A,13
8,test,1,1.0,2-Back,0.0,m,Tue Aug 12 2025 17:24:39 GMT-0500 (Central Daylight Time),586452.7000000477,139_m_f_h_a.png,O,z,1749,16,1,2770.2999999523163,583682.4000000954,7215,VNB,A,14
8,test,1,0.0,2-Back,0.0,z,Tue Aug 12 2025 17:24:39 GMT-0500 (Central Daylight Time),589518.4000000954,124_o_f_d_a.png,O,None,2015,17,1,3031.600000143051,586486.7999999523,7215,VNB,A,15
9,test,1,0.0,2-Back,1.0,m,Tue Aug 12 2025 17:24:39 GMT-0500 (Central Daylight Time),591301.0999999046,039_o_m_n_a.png,O,m,716,18,1,1748.2999999523163,589552.7999999523,7215,VNB,A,16
0,test,2,0.0,2-Back,,,Tue Aug 12 2025 17:24:39 GMT-0500 (Central Daylight Time),591301.0999999046,165_m_m_h_a.png,O,space,1285,1,1,1748.2999999523163,589552.7999999523,7215,VNB,A,0
0,test,2,0.0,2-Back,,,Tue Aug 12 2025 17:24:39 GMT-0500 (Central Daylight Time),591301.0999999046,071_y_f_n_a.png,O,space,1285,2,1,1748.2999999523163,589552.7999999523,7215,VNB,A,0
1,test,2,1.0,2-Back,1.0,z,Tue Aug 12 2025 17:24:39 GMT-0500 (Central Daylight Time),599830.7000000477,124_o_f_h_a.png,O,z,970,3,1,1984.0,597846.7000000477,7215,VNB,A,1
2,test,2,0.0,2-Back,1.0,m,Tue Aug 12 2025 17:24:39 GMT-0500 (Central Daylight Time),601980.9000000954,039_o_m_d_a.png,O,m,1116,4,1,2134.800000190735,599846.0999999046,7215,VNB,A,2
2,test,2,0.0,2-Back,0.0,m,Tue Aug 12 2025 17:24:39 GMT-0500 (Central Daylight Time),605029.0999999046,139_m_f_d_a.png,O,None,2014,5,1,3018.2999999523163,602010.7999999523,7215,VNB,A,3
2,test,2,0.0,2-Back,0.0,m,Tue Aug 12 2025 17:24:39 GMT-0500 (Central Daylight Time),608062.2999999523,109_y_m_h_a.png,O,None,2015,6,1,3022.2999999523163,605040.0,7215,VNB,A,4
3,test,2,0.0,2-Back,1.0,m,Tue Aug 12 2025 17:24:39 GMT-0500 (Central Daylight Time),609994.7999999523,124_o_f_n_a.png,O,m,876,7,1,1897.5,608097.2999999523,7215,VNB,A,5
4,test,2,1.0,2-Back,1.0,z,Tue Aug 12 2025 17:24:39 GMT-0500 (Central Daylight Time),611927.7000000477,039_o_m_h_a.png,O,z,887,8,1,1903.9000000953674,610023.7999999523,7215,VNB,A,6
5,test,2,0.0,2-Back,1.0,m,Tue Aug 12 2025 17:24:39 GMT-0500 (Central Daylight Time),613976.9000000954,071_y_f_d_a.png,O,m,996,9,1,2014.7000000476837,611962.2000000477,7215,VNB,A,7
5,test,2,0.0,2-Back,0.0,m,Tue Aug 12 2025 17:24:39 GMT-0500 (Central Daylight Time),616308.5999999046,109_y_m_d_a.png,O,z,1272,10,1,2299.5,614009.0999999046,7215,VNB,A,8
6,test,2,0.0,2-Back,1.0,m,Tue Aug 12 2025 17:24:39 GMT-0500 (Central Daylight Time),619275.2000000477,165_m_m_n_a.png,O,m,1933,11,1,2956.100000143051,616319.0999999046,7215,VNB,A,9
7,test,2,0.0,2-Back,1.0,m,Tue Aug 12 2025 17:24:39 GMT-0500 (Central Daylight Time),621374.2999999523,139_m_f_h_a.png,O,m,1048,12,1,2064.2000000476837,619310.0999999046,7215,VNB,A,10
8,test,2,1.0,2-Back,1.0,z,Tue Aug 12 2025 17:24:39 GMT-0500 (Central Daylight Time),623541.2000000477,039_o_m_n_a.png,O,z,1116,13,1,2133.600000143051,621407.5999999046,7215,VNB,A,11
9,test,2,0.0,2-Back,1.0,m,Tue Aug 12 2025 17:24:39 GMT-0500 (Central Daylight Time),625538.9000000954,124_o_f_d_a.png,O,m,932,14,1,1962.8000001907349,623576.0999999046,7215,VNB,A,12
10,test,2,0.0,2-Back,1.0,m,Tue Aug 12 2025 17:24:39 GMT-0500 (Central Daylight Time),628371.7000000477,071_y_f_h_a.png,O,m,1814,15,1,2822.4000000953674,625549.2999999523,7215,VNB,A,13
11,test,2,0.0,2-Back,1.0,z,Tue Aug 12 2025 17:24:39 GMT-0500 (Central Daylight Time),630654.0999999046,165_m_m_d_a.png,O,z,1262,16,1,2269.0,628385.0999999046,7215,VNB,A,14
12,test,2,0.0,2-Back,1.0,m,Tue Aug 12 2025 17:24:39 GMT-0500 (Central Daylight Time),632670.5,109_y_m_n_a.png,O,m,996,17,1,2001.0,630669.5,7215,VNB,A,15
13,test,2,1.0,2-Back,1.0,m,Tue Aug 12 2025 17:24:39 GMT-0500 (Central Daylight Time),634720.0999999046,139_m_f_n_a.png,O,m,1011,18,1,2018.7999999523163,632701.2999999523,7215,VNB,A,16
0,test,3,1.0,2-Back,,,Tue Aug 12 2025 17:24:39 GMT-0500 (Central Daylight Time),634720.0999999046,039_o_m_n_a.png,O,space,1955,1,1,2018.7999999523163,632701.2999999523,7215,VNB,A,0
0,test,3,1.0,2-Back,,,Tue Aug 12 2025 17:24:39 GMT-0500 (Central Daylight Time),634720.0999999046,124_o_f_d_a.png,O,space,1955,2,1,2018.7999999523163,632701.2999999523,7215,VNB,A,0
0,test,3,0.0,2-Back,0.0,m,Tue Aug 12 2025 17:24:39 GMT-0500 (Central Daylight Time),644816.4000000954,071_y_f_h_a.png,O,None,2015,3,1,3021.600000143051,641794.7999999523,7215,VNB,A,1
0,test,3,0.0,2-Back,0.0,z,Tue Aug 12 2025 17:24:39 GMT-0500 (Central Daylight Time),647849.0,139_m_f_d_a.png,O,None,2015,4,1,3022.7999999523163,644826.2000000477,7215,VNB,A,2
1,test,3,1.0,2-Back,1.0,m,Tue Aug 12 2025 17:24:39 GMT-0500 (Central Daylight Time),650098.2999999523,109_y_m_n_a.png,O,m,1210,5,1,2217.7999999523163,647880.5,7215,VNB,A,3
1,test,3,0.0,2-Back,0.0,m,Tue Aug 12 2025 17:24:39 GMT-0500 (Central Daylight Time),652364.5999999046,039_o_m_h_a.png,O,z,1217,6,1,2234.699999809265,650129.9000000954,7215,VNB,A,4
2,test,3,0.0,2-Back,1.0,z,Tue Aug 12 2025 17:24:39 GMT-0500 (Central Daylight Time),654730.4000000954,071_y_f_n_a.png,O,z,1301,7,1,2328.7000000476837,652401.7000000477,7215,VNB,A,5
3,test,3,1.0,2-Back,1.0,m,Tue Aug 12 2025 17:24:39 GMT-0500 (Central Daylight Time),657178.9000000954,165_m_m_d_a.png,O,m,1400,8,1,2424.0,654754.9000000954,7215,VNB,A,6
4,test,3,0.0,2-Back,1.0,m,Tue Aug 12 2025 17:24:39 GMT-0500 (Central Daylight Time),659512.0999999046,109_y_m_d_a.png,O,m,1287,9,1,2310.7999999523163,657201.2999999523,7215,VNB,A,7
5,test,3,0.0,2-Back,1.0,m,Tue Aug 12 2025 17:24:39 GMT-0500 (Central Daylight Time),662044.5999999046,124_o_f_h_a.png,O,m,1474,10,1,2496.5,659548.0999999046,7215,VNB,A,8
6,test,3,1.0,2-Back,1.0,m,Tue Aug 12 2025 17:24:39 GMT-0500 (Central Daylight Time),664253.5,139_m_f_n_a.png,O,m,1175,11,1,2180.0999999046326,662073.4000000954,7215,VNB,A,9
7,test,3,1.0,2-Back,1.0,z,Tue Aug 12 2025 17:24:39 GMT-0500 (Central Daylight Time),665993.2999999523,165_m_m_h_a.png,O,z,702,12,1,1728.5,664264.7999999523,7215,VNB,A,10
8,test,3,0.0,2-Back,1.0,m,Tue Aug 12 2025 17:24:39 GMT-0500 (Central Daylight Time),668225.7999999523,071_y_f_d_a.png,O,m,1178,13,1,2197.5,666028.2999999523,7215,VNB,A,11
8,test,3,0.0,2-Back,0.0,m,Tue Aug 12 2025 17:24:39 GMT-0500 (Central Daylight Time),670774.4000000954,124_o_f_n_a.png,O,z,1504,14,1,2520.4000000953674,668254.0,7215,VNB,A,12
9,test,3,0.0,2-Back,1.0,z,Tue Aug 12 2025 17:24:39 GMT-0500 (Central Daylight Time),672974.2999999523,039_o_m_d_a.png,O,z,1173,15,1,2188.7000000476837,670785.5999999046,7215,VNB,A,13
10,test,3,1.0,2-Back,1.0,m,Tue Aug 12 2025 17:24:39 GMT-0500 (Central Daylight Time),674973.7000000477,139_m_f_h_a.png,O,m,949,16,1,1963.9000000953674,673009.7999999523,7215,VNB,A,14
10,test,3,0.0,2-Back,0.0,m,Tue Aug 12 2025 17:24:39 GMT-0500 (Central Daylight Time),678022.7999999523,165_m_m_n_a.png,O,None,2016,17,1,3020.0,675002.7999999523,7215,VNB,A,15
11,test,3,0.0,2-Back,1.0,z,Tue Aug 12 2025 17:24:39 GMT-0500 (Central Daylight Time),679688.7999999523,109_y_m_h_a.png,O,z,612,18,1,1631.2000000476837,678057.5999999046,7215,VNB,A,16
0,test,4,0.0,2-Back,,,Tue Aug 12 2025 17:24:39 GMT-0500 (Central Daylight Time),679688.7999999523,139_m_f_n_a.png,O,space,1298,1,1,1631.2000000476837,678057.5999999046,7215,VNB,A,0
0,test,4,0.0,2-Back,,,Tue Aug 12 2025 17:24:39 GMT-0500 (Central Daylight Time),679688.7999999523,039_o_m_n_a.png,O,space,1298,2,1,1631.2000000476837,678057.5999999046,7215,VNB,A,0
1,test,4,1.0,2-Back,1.0,m,Tue Aug 12 2025 17:24:39 GMT-0500 (Central Daylight Time),688169.5999999046,109_y_m_h_a.png,O,m,988,3,1,2005.7999999523163,686163.7999999523,7215,VNB,A,1
2,test,4,1.0,2-Back,1.0,m,Tue Aug 12 2025 17:24:39 GMT-0500 (Central Daylight Time),690218.7000000477,124_o_f_d_a.png,O,m,993,4,1,2016.4000000953674,688202.2999999523,7215,VNB,A,2
3,test,4,0.0,2-Back,1.0,z,Tue Aug 12 2025 17:24:39 GMT-0500 (Central Daylight Time),692068.0999999046,039_o_m_h_a.png,O,z,809,5,1,1822.1999998092651,690245.9000000954,7215,VNB,A,3
4,test,4,0.0,2-Back,1.0,m,Tue Aug 12 2025 17:24:39 GMT-0500 (Central Daylight Time),693950.5999999046,165_m_m_n_a.png,O,m,831,6,1,1847.3999998569489,692103.2000000477,7215,VNB,A,4
4,test,4,0.0,2-Back,0.0,m,Tue Aug 12 2025 17:24:39 GMT-0500 (Central Daylight Time),696799.7999999523,139_m_f_d_a.png,O,z,1796,7,1,2813.7999999523163,693986.0,7215,VNB,A,5
4,test,4,0.0,2-Back,0.0,z,Tue Aug 12 2025 17:24:39 GMT-0500 (Central Daylight Time),698782.5,071_y_f_n_a.png,O,m,923,8,1,1946.2000000476837,696836.2999999523,7215,VNB,A,6
5,test,4,1.0,2-Back,1.0,m,Tue Aug 12 2025 17:24:39 GMT-0500 (Central Daylight Time),701231.5999999046,124_o_f_h_a.png,O,m,1396,9,1,2413.0999999046326,698818.5,7215,VNB,A,7
6,test,4,0.0,2-Back,1.0,m,Tue Aug 12 2025 17:24:39 GMT-0500 (Central Daylight Time),703297.7000000477,165_m_m_h_a.png,O,m,1019,10,1,2041.5,701256.2000000477,7215,VNB,A,8
7,test,4,0.0,2-Back,1.0,m,Tue Aug 12 2025 17:24:39 GMT-0500 (Central Daylight Time),705597.0,071_y_f_d_a.png,O,m,1249,11,1,2272.5,703324.5,7215,VNB,A,9
8,test,4,0.0,2-Back,1.0,m,Tue Aug 12 2025 17:24:39 GMT-0500 (Central Daylight Time),708246.0,109_y_m_n_a.png,O,m,1590,12,1,2615.5,705630.5,7215,VNB,A,10
8,test,4,0.0,2-Back,0.0,z,Tue Aug 12 2025 17:24:39 GMT-0500 (Central Daylight Time),711295.2999999523,039_o_m_d_a.png,O,None,2015,13,1,3021.0,708274.2999999523,7215,VNB,A,11
9,test,4,1.0,2-Back,1.0,m,Tue Aug 12 2025 17:24:39 GMT-0500 (Central Daylight Time),713460.2999999523,139_m_f_h_a.png,O,m,1107,14,1,2130.5,711329.7999999523,7215,VNB,A,12
9,test,4,1.0,2-Back,0.0,m,Tue Aug 12 2025 17:24:39 GMT-0500 (Central Daylight Time),716126.5999999046,071_y_f_h_a.png,O,z,1630,15,1,2650.199999809265,713476.4000000954,7215,VNB,A,13
9,test,4,0.0,2-Back,0.0,m,Tue Aug 12 2025 17:24:39 GMT-0500 (Central Daylight Time),719192.9000000954,124_o_f_n_a.png,O,None,2016,16,1,3033.2000000476837,716159.7000000477,7215,VNB,A,14
9,test,4,0.0,2-Back,0.0,m,Tue Aug 12 2025 17:24:39 GMT-0500 (Central Daylight Time),722241.5999999046,109_y_m_d_a.png,O,None,2015,17,1,3019.0999999046326,719222.5,7215,VNB,A,15
10,test,4,1.0,2-Back,1.0,m,Tue Aug 12 2025 17:24:39 GMT-0500 (Central Daylight Time),725107.2000000477,165_m_m_d_a.png,O,m,1801,18,1,2828.2000000476837,722279.0,7215,VNB,A,16
0,test,5,1.0,2-Back,,,Tue Aug 12 2025 17:24:39 GMT-0500 (Central Daylight Time),725107.2000000477,071_y_f_d_a.png,O,space,1792,1,1,2828.2000000476837,722279.0,7215,VNB,A,0
0,test,5,1.0,2-Back,,,Tue Aug 12 2025 17:24:39 GMT-0500 (Central Daylight Time),725107.2000000477,124_o_f_h_a.png,O,space,1792,2,1,2828.2000000476837,722279.0,7215,VNB,A,0
1,test,5,1.0,2-Back,1.0,z,Tue Aug 12 2025 17:24:39 GMT-0500 (Central Daylight Time),734753.5,039_o_m_d_a.png,O,z,1643,3,1,2655.7999999523163,732097.7000000477,7215,VNB,A,1
2,test,5,1.0,2-Back,1.0,m,Tue Aug 12 2025 17:24:39 GMT-0500 (Central Daylight Time),737236.2999999523,139_m_f_n_a.png,O,m,1433,4,1,2463.7000000476837,734772.5999999046,7215,VNB,A,2
2,test,5,0.0,2-Back,0.0,m,Tue Aug 12 2025 17:24:39 GMT-0500 (Central Daylight Time),739719.2999999523,165_m_m_h_a.png,O,z,1425,5,1,2447.5,737271.7999999523,7215,VNB,A,3
2,test,5,0.0,2-Back,0.0,z,Tue Aug 12 2025 17:24:39 GMT-0500 (Central Daylight Time),742517.2999999523,071_y_f_n_a.png,O,m,1762,6,1,2770.2999999523163,739747.0,7215,VNB,A,4
3,test,5,0.0,2-Back,1.0,m,Tue Aug 12 2025 17:24:39 GMT-0500 (Central Daylight Time),744884.0,124_o_f_d_a.png,O,m,1342,7,1,2351.7000000476837,742532.2999999523,7215,VNB,A,5
4,test,5,0.0,2-Back,1.0,m,Tue Aug 12 2025 17:24:39 GMT-0500 (Central Daylight Time),747366.0,039_o_m_h_a.png,O,m,1423,8,1,2446.2999999523163,744919.7000000477,7215,VNB,A,6
5,test,5,1.0,2-Back,1.0,z,Tue Aug 12 2025 17:24:39 GMT-0500 (Central Daylight Time),749599.0,139_m_f_d_a.png,O,z,1188,9,1,2212.2999999523163,747386.7000000477,7215,VNB,A,7
6,test,5,0.0,2-Back,1.0,m,Tue Aug 12 2025 17:24:39 GMT-0500 (Central Daylight Time),751731.2999999523,109_y_m_n_a.png,O,m,1067,10,1,2095.5999999046326,749635.7000000477,7215,VNB,A,8
6,test,5,0.0,2-Back,0.0,m,Tue Aug 12 2025 17:24:39 GMT-0500 (Central Daylight Time),754781.0999999046,165_m_m_n_a.png,O,None,2015,11,1,3027.399999856949,751753.7000000477,7215,VNB,A,9
6,test,5,0.0,2-Back,0.0,m,Tue Aug 12 2025 17:24:39 GMT-0500 (Central Daylight Time),757829.7999999523,071_y_f_h_a.png,O,None,2015,12,1,3021.0999999046326,754808.7000000477,7215,VNB,A,10
7,test,5,0.0,2-Back,1.0,m,Tue Aug 12 2025 17:24:39 GMT-0500 (Central Daylight Time),760295.7000000477,109_y_m_d_a.png,O,m,1430,13,1,2434.7999999523163,757860.9000000954,7215,VNB,A,11
7,test,5,1.0,2-Back,0.0,z,Tue Aug 12 2025 17:24:39 GMT-0500 (Central Daylight Time),763128.0,139_m_f_h_a.png,O,m,1795,14,1,2804.2999999523163,760323.7000000477,7215,VNB,A,12
8,test,5,0.0,2-Back,1.0,m,Tue Aug 12 2025 17:24:39 GMT-0500 (Central Daylight Time),765743.7999999523,039_o_m_n_a.png,O,m,1571,15,1,2591.399999856949,763152.4000000954,7215,VNB,A,13
8,test,5,0.0,2-Back,0.0,m,Tue Aug 12 2025 17:24:39 GMT-0500 (Central Daylight Time),768809.5,165_m_m_d_a.png,O,None,2014,16,1,3029.7999999523163,765779.7000000477,7215,VNB,A,14
9,test,5,0.0,2-Back,1.0,z,Tue Aug 12 2025 17:24:39 GMT-0500 (Central Daylight Time),770425.7000000477,124_o_f_n_a.png,O,z,578,17,1,1585.6000001430511,768840.0999999046,7215,VNB,A,15
10,test,5,1.0,2-Back,1.0,m,Tue Aug 12 2025 17:24:39 GMT-0500 (Central Daylight Time),772491.7000000477,109_y_m_h_a.png,O,m,1009,18,1,2032.5,770459.2000000477,7215,VNB,A,16
