acc_sum,block,block_c,condition,correct,correct_response,datetime,endtime,flanker,jitter,project,response,response_test_buffer_response,response_test_target_response,response_time,response_time_test_buffer_response,response_time_test_target_response,row_sel,session_number,start_end,starttime,subject_id,target,task,task_vers,time_test_buffer,time_test_buffer_response,time_test_constants,time_test_flanker,time_test_jitter,time_test_logger,time_test_target,time_test_target_response,time_test_variables,trial
1,prac,1,con,1,m,Mon Jan 26 2026 15:59:47 GMT-0600 (Central Standard Time),56430.5,jacket,800,I,m,,,842,,,5,1,2945.100000143051,53485.39999985695,8092,jacket,AF,C,,,,,,,,,,1
2,prac,1,con,1,m,Mon Jan 26 2026 15:59:47 GMT-0600 (Central Standard Time),59496.0,remote,1000,I,m,,,756,,,7,1,3060.4000000953674,56435.59999990463,8092,remote,AF,C,,,,,,,,,,2
3,prac,1,inc,1,z,Mon Jan 26 2026 15:59:47 GMT-0600 (Central Standard Time),62328.39999985695,film,900,I,z,,,623,,,14,1,2827.5999999046326,59500.799999952316,8092,hate,AF,C,,,,,,,,,,3
4,prac,1,con,1,z,Mon Jan 26 2026 15:59:47 GMT-0600 (Central Standard Time),65361.0,elated,800,I,z,,,935,,,9,1,3027.600000143051,62333.39999985695,8092,elated,AF,C,,,,,,,,,,4
5,prac,1,inc,1,z,Mon Jan 26 2026 15:59:47 GMT-0600 (Central Standard Time),68243.39999985695,rock,900,I,z,,,670,,,10,1,2877.7999999523163,65365.59999990463,8092,kind,AF,C,,,,,,,,,,5
6,prac,1,inc,1,z,Mon Jan 26 2026 15:59:47 GMT-0600 (Central Standard Time),71475.70000004768,window,1100,I,z,,,828,,,16,1,3227.5,68248.20000004768,8092,temper,AF,C,,,,,,,,,,6
7,prac,1,con,1,m,Mon Jan 26 2026 15:59:47 GMT-0600 (Central Standard Time),74607.79999995232,step,800,I,m,,,1024,,,1,1,3127.5999999046326,71480.20000004768,8092,step,AF,C,,,,,,,,,,7
8,prac,1,con,1,z,Mon Jan 26 2026 15:59:47 GMT-0600 (Central Standard Time),77623.59999990463,brutal,800,I,z,,,915,,,13,1,3009.2999999523163,74614.29999995232,8092,brutal,AF,C,,,,,,,,,,8
9,prac,1,con,1,z,Mon Jan 26 2026 15:59:47 GMT-0600 (Central Standard Time),80522.89999985695,rage,1000,I,z,,,587,,,15,1,2894.699999809265,77628.20000004768,8092,rage,AF,C,,,,,,,,,,9
10,prac,1,con,1,z,Mon Jan 26 2026 15:59:47 GMT-0600 (Central Standard Time),83305.20000004768,love,1000,I,z,,,473,,,11,1,2778.0,80527.20000004768,8092,love,AF,C,,,,,,,,,,10
11,prac,1,inc,1,m,Mon Jan 26 2026 15:59:47 GMT-0600 (Central Standard Time),86454.39999985695,brutal,1100,I,m,,,734,,,8,1,3144.5,83309.89999985695,8092,window,AF,C,,,,,,,,,,11
11,prac,1,inc,0,z,Mon Jan 26 2026 15:59:47 GMT-0600 (Central Standard Time),90086.39999985695,napkin,1100,I,m,,,1232,,,12,1,3627.7999999523163,86458.59999990463,8092,friend,AF,C,,,,,,,,,,12
12,prac,1,inc,1,m,Mon Jan 26 2026 15:59:47 GMT-0600 (Central Standard Time),92952.0,kind,900,I,m,,,658,,,2,1,2861.5,90090.5,8092,rock,AF,C,,,,,,,,,,13
13,prac,1,inc,1,m,Mon Jan 26 2026 15:59:47 GMT-0600 (Central Standard Time),95818.0,elated,900,I,m,,,662,,,6,1,2861.7000000476837,92956.29999995232,8092,napkin,AF,C,,,,,,,,,,14
14,prac,1,inc,1,m,Mon Jan 26 2026 15:59:47 GMT-0600 (Central Standard Time),99000.39999985695,hate,1100,I,m,,,781,,,4,1,3178.199999809265,95822.20000004768,8092,film,AF,C,,,,,,,,,,15
15,prac,1,con,1,m,Mon Jan 26 2026 15:59:47 GMT-0600 (Central Standard Time),102232.5,bell,1000,I,m,,,930,,,3,1,3228.0,99004.5,8092,bell,AF,C,,,,,,,,,,16
1,test,1,inc,1,m,Mon Jan 26 2026 15:59:47 GMT-0600 (Central Standard Time),111996.5,hate,1100,I,m,m,None,694,495.0,199.0,96,1,2329.2999999523163,109667.20000004768,8092,film,AF,C,109870,109870,108040,109153,108041,110370,109670,109670,110369,1
2,test,1,con,1,m,Mon Jan 26 2026 15:59:47 GMT-0600 (Central Standard Time),114212.39999985695,napkin,1100,I,m,m,None,570,370.0,200.0,108,1,2211.2999999523163,112001.09999990463,8092,napkin,AF,C,112202,112203,110374,111486,110374,112585,112002,112002,112585,2
3,test,1,con,1,m,Mon Jan 26 2026 15:59:47 GMT-0600 (Central Standard Time),116528.20000004768,remote,1100,I,m,m,None,676,476.0,200.0,116,1,2311.300000190735,114216.89999985695,8092,remote,AF,C,114418,114418,112590,113702,112590,114901,114218,114218,114901,3
4,test,1,inc,1,m,Mon Jan 26 2026 15:59:47 GMT-0600 (Central Standard Time),118711.0,kind,900,I,m,m,None,744,544.0,200.0,86,1,2178.600000143051,116532.39999985695,8092,bell,AF,C,116534,116534,114905,115818,114906,117084,116334,116334,117084,4
5,test,1,inc,1,z,Mon Jan 26 2026 15:59:47 GMT-0600 (Central Standard Time),120961.09999990463,bell,1000,I,z,z,None,700,500.0,200.0,15,1,2246.2000000476837,118714.89999985695,8092,kind,AF,C,118817,118817,117088,118100,117088,119334,118617,118617,119334,5
6,test,1,inc,1,z,Mon Jan 26 2026 15:59:47 GMT-0600 (Central Standard Time),122976.5,rock,900,I,z,z,None,583,383.0,200.0,54,1,2011.2999999523163,120965.20000004768,8092,rage,AF,C,120966,120966,119338,120250,119338,121350,120766,120766,121349,6
7,test,1,inc,1,z,Mon Jan 26 2026 15:59:47 GMT-0600 (Central Standard Time),125092.0,rock,900,I,z,z,None,679,479.0,200.0,14,1,2110.2000000476837,122981.79999995232,8092,kind,AF,C,122982,122982,121355,122266,121355,123465,122782,122782,123465,7
8,test,1,inc,1,m,Mon Jan 26 2026 15:59:47 GMT-0600 (Central Standard Time),127224.59999990463,love,1000,I,m,m,None,599,399.0,200.0,71,1,2128.5,125096.09999990463,8092,step,AF,C,125198,125198,123469,124482,123470,125598,124998,124998,125598,8
9,test,1,inc,1,m,Mon Jan 26 2026 15:59:47 GMT-0600 (Central Standard Time),129374.20000004768,temper,1000,I,m,m,None,601,401.0,200.0,119,1,2145.600000143051,127228.59999990463,8092,remote,AF,C,127332,127332,125602,126614,125602,127747,127131,127131,127747,9
10,test,1,con,1,m,Mon Jan 26 2026 15:59:47 GMT-0600 (Central Standard Time),131240.20000004768,remote,800,I,m,m,None,533,333.0,200.0,113,1,1861.9000000953674,129378.29999995232,8092,remote,AF,C,129280,129280,127751,128564,127752,129613,129080,129080,129613,10
11,test,1,con,1,z,Mon Jan 26 2026 15:59:47 GMT-0600 (Central Standard Time),133389.5,elated,900,I,z,z,None,710,511.0,199.0,2,1,2145.100000143051,131244.39999985695,8092,elated,AF,C,131246,131246,129617,130530,129618,131763,131047,131047,131762,11
12,test,1,con,1,z,Mon Jan 26 2026 15:59:47 GMT-0600 (Central Standard Time),135888.89999985695,brutal,1100,I,z,z,None,848,649.0,199.0,36,1,2494.899999856949,133394.0,8092,brutal,AF,C,133596,133596,131767,132879,131767,134262,133396,133396,134262,12
13,test,1,inc,1,z,Mon Jan 26 2026 15:59:47 GMT-0600 (Central Standard Time),138088.0,remote,1000,I,z,z,None,659,459.0,200.0,7,1,2195.100000143051,135892.89999985695,8092,elated,AF,C,135995,135995,134266,135279,134266,136461,135795,135795,136461,13
13,test,1,con,0,z,Mon Jan 26 2026 15:59:47 GMT-0600 (Central Standard Time),140355.0,friend,800,I,m,m,None,923,723.0,200.0,25,1,2262.7000000476837,138092.29999995232,8092,friend,AF,C,137994,137994,136465,137278,136466,138728,137794,137794,138728,14
14,test,1,inc,1,z,Mon Jan 26 2026 15:59:47 GMT-0600 (Central Standard Time),142486.70000004768,step,800,I,z,z,None,785,585.0,200.0,13,1,2127.7000000476837,140359.0,8092,kind,AF,C,140260,140260,138732,139544,138732,140860,140060,140060,140860,15
15,test,1,con,1,m,Mon Jan 26 2026 15:59:47 GMT-0600 (Central Standard Time),145052.70000004768,jacket,1100,I,m,m,None,929,729.0,200.0,100,1,2561.9000000953674,142490.79999995232,8092,jacket,AF,C,142693,142693,140864,141977,140864,143426,142493,142493,143426,16
16,test,1,inc,1,m,Mon Jan 26 2026 15:59:47 GMT-0600 (Central Standard Time),147101.89999985695,elated,800,I,m,m,None,701,502.0,199.0,109,1,2044.8999998569489,145057.0,8092,napkin,AF,C,144959,144959,143430,144242,143430,145475,144759,144759,145475,17
17,test,1,inc,1,z,Mon Jan 26 2026 15:59:47 GMT-0600 (Central Standard Time),149234.70000004768,bell,1000,I,z,z,None,590,390.0,200.0,23,1,2128.7000000476837,147106.0,8092,love,AF,C,147208,147208,145479,146492,145479,147608,147008,147008,147608,18
18,test,1,con,1,z,Mon Jan 26 2026 15:59:47 GMT-0600 (Central Standard Time),151367.5,hate,1000,I,z,z,None,585,385.0,200.0,43,1,2128.7999999523163,149238.70000004768,8092,hate,AF,C,149340,149340,147612,148624,147612,149741,149140,149140,149740,19
19,test,1,inc,1,m,Mon Jan 26 2026 15:59:47 GMT-0600 (Central Standard Time),153483.39999985695,brutal,900,I,m,m,None,680,480.0,200.0,126,1,2111.7999999523163,151371.59999990463,8092,window,AF,C,151373,151373,149745,150657,149745,151857,151173,151173,151856,20
20,test,1,con,1,m,Mon Jan 26 2026 15:59:47 GMT-0600 (Central Standard Time),155849.20000004768,step,1000,I,m,m,None,824,624.0,200.0,67,1,2361.800000190735,153487.39999985695,8092,step,AF,C,153589,153589,151860,152873,151861,154222,153389,153389,154222,21
21,test,1,inc,1,m,Mon Jan 26 2026 15:59:47 GMT-0600 (Central Standard Time),157948.79999995232,kind,900,I,m,m,None,663,463.0,200.0,78,1,2094.4000000953674,155854.39999985695,8092,rock,AF,C,155855,155855,154227,155139,154228,156322,155655,155655,156322,22
22,test,1,inc,1,z,Mon Jan 26 2026 15:59:47 GMT-0600 (Central Standard Time),159898.0,jacket,800,I,z,z,None,614,414.0,200.0,37,1,1945.0,157953.0,8092,brutal,AF,C,157855,157855,156326,157138,156326,158271,157655,157655,158271,23
23,test,1,inc,1,m,Mon Jan 26 2026 15:59:47 GMT-0600 (Central Standard Time),162197.09999990463,hate,1100,I,m,m,None,678,479.0,199.0,72,1,2295.0999999046326,159902.0,8092,step,AF,C,160087,160087,158275,159387,158275,160570,159888,159888,160570,24
24,test,1,con,1,z,Mon Jan 26 2026 15:59:47 GMT-0600 (Central Standard Time),164429.79999995232,elated,1000,I,z,z,None,686,486.0,200.0,3,1,2229.0999999046326,162200.70000004768,8092,elated,AF,C,162303,162303,160574,161587,160574,162803,162103,162103,162803,25
25,test,1,con,1,m,Mon Jan 26 2026 15:59:47 GMT-0600 (Central Standard Time),166612.89999985695,napkin,900,I,m,m,None,738,538.0,200.0,106,1,2179.199999809265,164433.70000004768,8092,napkin,AF,C,164436,164436,162807,163719,162807,164986,164236,164236,164986,26
26,test,1,con,1,z,Mon Jan 26 2026 15:59:47 GMT-0600 (Central Standard Time),168961.89999985695,rage,1100,I,z,z,None,706,507.0,199.0,52,1,2344.7999999523163,166617.09999990463,8092,rage,AF,C,166819,166819,164990,166102,164990,167335,166619,166619,167335,27
27,test,1,inc,1,z,Mon Jan 26 2026 15:59:47 GMT-0600 (Central Standard Time),171261.09999990463,step,800,I,z,z,None,952,753.0,199.0,45,1,2295.2999999523163,168965.79999995232,8092,hate,AF,C,168868,168868,167339,168151,167339,169634,168668,168668,169634,28
28,test,1,con,1,z,Mon Jan 26 2026 15:59:47 GMT-0600 (Central Standard Time),173193.89999985695,friend,1000,I,z,z,None,390,190.0,200.0,27,1,1929.0999999046326,171264.79999995232,8092,friend,AF,C,171367,171367,169638,170651,169638,171567,171167,171167,171567,29
29,test,1,inc,1,m,Mon Jan 26 2026 15:59:47 GMT-0600 (Central Standard Time),175310.0,kind,900,I,m,m,None,668,469.0,199.0,94,1,2112.100000143051,173197.89999985695,8092,film,AF,C,173200,173200,171571,172483,171571,173683,173000,173001,173683,30
30,test,1,con,1,z,Mon Jan 26 2026 15:59:47 GMT-0600 (Central Standard Time),177425.89999985695,brutal,900,I,z,z,None,674,474.0,200.0,34,1,2112.0999999046326,175313.79999995232,8092,brutal,AF,C,175316,175316,173687,174599,173687,175799,175116,175116,175799,31
31,test,1,con,1,m,Mon Jan 26 2026 15:59:47 GMT-0600 (Central Standard Time),179425.0,rock,800,I,m,m,None,665,465.0,200.0,73,1,1995.0,177430.0,8092,rock,AF,C,177332,177332,175803,176615,175803,177798,177132,177132,177798,32
32,test,1,con,1,z,Mon Jan 26 2026 15:59:47 GMT-0600 (Central Standard Time),181691.20000004768,friend,1100,I,z,z,None,630,431.0,199.0,28,1,2262.600000143051,179428.59999990463,8092,friend,AF,C,179631,179631,177802,178915,177802,180064,179432,179432,180064,33
33,test,1,inc,1,m,Mon Jan 26 2026 15:59:47 GMT-0600 (Central Standard Time),183823.70000004768,rage,800,I,m,m,None,675,476.0,199.0,77,1,2128.7000000476837,181695.0,8092,rock,AF,C,181714,181714,180068,181003,180068,182197,181514,181514,182197,34
34,test,1,inc,1,m,Mon Jan 26 2026 15:59:47 GMT-0600 (Central Standard Time),186306.59999990463,hate,1100,I,m,m,None,840,640.0,200.0,88,1,2478.399999856949,183828.20000004768,8092,bell,AF,C,184030,184030,182201,183313,182201,184680,183830,183830,184680,35
35,test,1,con,1,z,Mon Jan 26 2026 15:59:47 GMT-0600 (Central Standard Time),188822.39999985695,friend,900,I,z,z,None,1067,868.0,199.0,26,1,2512.0,186310.39999985695,8092,friend,AF,C,186313,186313,184683,185596,184684,187195,186113,186113,187195,36
36,test,1,inc,1,m,Mon Jan 26 2026 15:59:47 GMT-0600 (Central Standard Time),190821.5,elated,800,I,m,m,None,660,461.0,199.0,101,1,1995.0,188826.5,8092,jacket,AF,C,188728,188728,187200,188012,187200,189195,188529,188529,189195,37
37,test,1,con,1,m,Mon Jan 26 2026 15:59:47 GMT-0600 (Central Standard Time),193337.5,film,1100,I,m,m,None,873,673.0,200.0,92,1,2512.2000000476837,190825.29999995232,8092,film,AF,C,191028,191028,189198,190311,189199,191711,190828,190828,191711,38
38,test,1,inc,1,m,Mon Jan 26 2026 15:59:47 GMT-0600 (Central Standard Time),195703.59999990463,friend,1100,I,m,m,None,716,517.0,199.0,104,1,2361.5999999046326,193342.0,8092,jacket,AF,C,193544,193544,191715,192827,191715,194077,193344,193344,194077,39
39,test,1,con,1,m,Mon Jan 26 2026 15:59:47 GMT-0600 (Central Standard Time),197919.39999985695,rock,900,I,m,m,None,766,567.0,199.0,74,1,2211.899999856949,195707.5,8092,rock,AF,C,195710,195710,194081,194993,194081,196292,195510,195510,196292,40
40,test,1,con,1,z,Mon Jan 26 2026 15:59:47 GMT-0600 (Central Standard Time),199969.79999995232,kind,800,I,z,z,None,716,516.0,200.0,9,1,2046.5,197923.29999995232,8092,kind,AF,C,197825,197825,196296,197109,196296,198343,197625,197625,198343,41
41,test,1,con,1,z,Mon Jan 26 2026 15:59:47 GMT-0600 (Central Standard Time),202001.39999985695,temper,900,I,z,z,None,597,398.0,199.0,58,1,2027.5,199973.89999985695,8092,temper,AF,C,199975,199975,198347,199258,198347,200374,199775,199775,200374,42
42,test,1,con,1,z,Mon Jan 26 2026 15:59:47 GMT-0600 (Central Standard Time),203984.29999995232,temper,1000,I,z,z,None,448,249.0,199.0,59,1,1979.4000000953674,202004.89999985695,8092,temper,AF,C,202108,202108,200378,201391,200378,202357,201908,201908,202357,43
43,test,1,inc,1,z,Mon Jan 26 2026 15:59:47 GMT-0600 (Central Standard Time),206217.79999995232,napkin,900,I,z,z,None,800,600.0,200.0,6,1,2229.9000000953674,203987.89999985695,8092,elated,AF,C,203991,203991,202361,203274,202361,204591,203790,203790,204591,44
44,test,1,con,1,m,Mon Jan 26 2026 15:59:47 GMT-0600 (Central Standard Time),208232.89999985695,film,800,I,m,m,None,667,467.0,200.0,89,1,2011.0999999046326,206221.79999995232,8092,film,AF,C,206123,206123,204595,205407,204595,206606,205923,205923,206606,45
45,test,1,con,1,z,Mon Jan 26 2026 15:59:47 GMT-0600 (Central Standard Time),210399.20000004768,hate,800,I,z,z,None,827,627.0,200.0,41,1,2162.4000000953674,208236.79999995232,8092,hate,AF,C,208139,208139,206610,207422,206610,208772,207939,207939,208772,46
46,test,1,con,1,m,Mon Jan 26 2026 15:59:47 GMT-0600 (Central Standard Time),212947.70000004768,window,800,I,m,m,None,1212,1012.0,200.0,121,1,2544.300000190735,210403.39999985695,8092,window,AF,C,210305,210305,208776,209588,208777,211321,210105,210105,211321,47
47,test,1,inc,1,m,Mon Jan 26 2026 15:59:47 GMT-0600 (Central Standard Time),214964.09999990463,rage,800,I,m,m,None,679,479.0,200.0,93,1,2012.7000000476837,212951.39999985695,8092,film,AF,C,212854,212854,211324,212138,211325,213337,212654,212654,213337,48
48,test,1,con,1,m,Mon Jan 26 2026 15:59:47 GMT-0600 (Central Standard Time),217063.29999995232,step,900,I,m,m,None,659,459.0,200.0,66,1,2095.2999999523163,214968.0,8092,step,AF,C,214970,214970,213341,214254,213341,215436,214770,214770,215436,49
49,test,1,con,1,z,Mon Jan 26 2026 15:59:47 GMT-0600 (Central Standard Time),219129.29999995232,love,900,I,z,z,None,623,424.0,199.0,18,1,2062.0999999046326,217067.20000004768,8092,love,AF,C,217070,217070,215440,216353,215440,217503,216870,216870,217502,50
50,test,1,inc,1,m,Mon Jan 26 2026 15:59:47 GMT-0600 (Central Standard Time),221362.20000004768,friend,1100,I,m,m,None,597,398.0,199.0,112,1,2228.800000190735,219133.39999985695,8092,napkin,AF,C,219335,219335,217506,218619,217507,219735,219136,219136,219735,51
51,test,1,inc,1,m,Mon Jan 26 2026 15:59:47 GMT-0600 (Central Standard Time),223511.20000004768,kind,900,I,m,m,None,701,501.0,200.0,70,1,2144.2000000476837,221367.0,8092,step,AF,C,221368,221368,219740,220652,219740,221884,221168,221168,221884,52
52,test,1,con,1,z,Mon Jan 26 2026 15:59:47 GMT-0600 (Central Standard Time),225377.59999990463,love,800,I,z,z,None,523,324.0,199.0,17,1,1862.7999999523163,223514.79999995232,8092,love,AF,C,223418,223418,221888,222701,221888,223751,223218,223218,223751,53
53,test,1,con,1,m,Mon Jan 26 2026 15:59:47 GMT-0600 (Central Standard Time),227743.70000004768,napkin,800,I,m,m,None,1026,826.0,200.0,105,1,2362.100000143051,225381.59999990463,8092,napkin,AF,C,225284,225284,223755,224567,223755,226117,225084,225084,226117,54
54,test,1,inc,1,z,Mon Jan 26 2026 15:59:47 GMT-0600 (Central Standard Time),230492.59999990463,film,1100,I,z,z,None,1104,798.0,306.0,24,1,2745.2000000476837,227747.39999985695,8092,love,AF,C,228055,228055,226120,227233,226121,228866,227749,227749,228866,55
55,test,1,inc,1,m,Mon Jan 26 2026 15:59:47 GMT-0600 (Central Standard Time),232708.39999985695,temper,1000,I,m,m,None,670,470.0,200.0,111,1,2212.0,230496.39999985695,8092,napkin,AF,C,230599,230599,228869,229882,228870,231081,230398,230398,231081,56
56,test,1,inc,1,m,Mon Jan 26 2026 15:59:47 GMT-0600 (Central Standard Time),234957.70000004768,elated,800,I,m,m,None,910,711.0,199.0,117,1,2245.4000000953674,232712.29999995232,8092,remote,AF,C,232615,232615,231085,231898,231086,233331,232415,232415,233331,57
57,test,1,con,1,m,Mon Jan 26 2026 15:59:47 GMT-0600 (Central Standard Time),237023.89999985695,remote,1000,I,m,m,None,525,325.0,200.0,115,1,2062.5,234961.39999985695,8092,remote,AF,C,235064,235064,233334,234347,233335,235397,234864,234864,235397,58
58,test,1,inc,1,z,Mon Jan 26 2026 15:59:47 GMT-0600 (Central Standard Time),238973.29999995232,rock,900,I,z,z,None,503,303.0,200.0,22,1,1945.7000000476837,237027.59999990463,8092,love,AF,C,237030,237030,235401,236314,235401,237346,236830,236830,237346,59
59,test,1,inc,1,z,Mon Jan 26 2026 15:59:47 GMT-0600 (Central Standard Time),241172.5,napkin,900,I,z,z,None,753,553.0,200.0,38,1,2195.2999999523163,238977.20000004768,8092,brutal,AF,C,238980,238980,237350,238263,237350,239546,238779,238779,239546,60
60,test,1,inc,1,z,Mon Jan 26 2026 15:59:47 GMT-0600 (Central Standard Time),243655.29999995232,film,1100,I,z,z,None,842,643.0,199.0,16,1,2478.9000000953674,241176.39999985695,8092,kind,AF,C,241379,241379,239549,240662,239550,242028,241179,241179,242028,61
61,test,1,con,1,m,Mon Jan 26 2026 15:59:47 GMT-0600 (Central Standard Time),245721.09999990463,bell,800,I,m,m,None,732,532.0,200.0,81,1,2061.5,243659.59999990463,8092,bell,AF,C,243561,243561,242033,242845,242033,244094,243361,243361,244094,62
62,test,1,con,1,m,Mon Jan 26 2026 15:59:47 GMT-0600 (Central Standard Time),247870.59999990463,bell,1100,I,m,m,None,502,302.0,200.0,84,1,2145.0999999046326,245725.5,8092,bell,AF,C,245927,245927,244099,245211,244099,246244,245727,245727,246244,63
63,test,1,inc,1,m,Mon Jan 26 2026 15:59:47 GMT-0600 (Central Standard Time),250253.0,brutal,900,I,m,m,None,943,744.0,199.0,110,1,2378.7999999523163,247874.20000004768,8092,napkin,AF,C,247877,247877,246247,247160,246247,248626,247677,247677,248626,64
64,test,1,con,1,z,Mon Jan 26 2026 15:59:47 GMT-0600 (Central Standard Time),253069.0,kind,1100,I,z,z,None,1178,978.0,200.0,12,1,2812.600000143051,250256.39999985695,8092,kind,AF,C,250459,250459,248629,249743,248630,251442,250259,250259,251442,65
64,test,1,con,0,z,Mon Jan 26 2026 15:59:47 GMT-0600 (Central Standard Time),255551.29999995232,rage,1000,I,m,m,None,950,751.0,199.0,51,1,2478.5,253072.79999995232,8092,rage,AF,C,253158,253158,251446,252458,251446,253924,252959,252959,253924,66
65,test,1,con,1,m,Mon Jan 26 2026 15:59:47 GMT-0600 (Central Standard Time),257650.70000004768,bell,900,I,m,m,None,655,456.0,199.0,82,1,2095.5,255555.20000004768,8092,bell,AF,C,255557,255558,253928,254841,253928,256024,255358,255358,256024,67
66,test,1,inc,1,z,Mon Jan 26 2026 15:59:47 GMT-0600 (Central Standard Time),259933.39999985695,step,800,I,z,z,None,936,736.0,200.0,53,1,2279.0999999046326,257654.29999995232,8092,rage,AF,C,257557,257557,256027,256841,256028,258306,257357,257357,258306,68
67,test,1,con,1,m,Mon Jan 26 2026 15:59:47 GMT-0600 (Central Standard Time),261982.79999995232,remote,900,I,m,m,None,609,410.0,199.0,114,1,2045.5,259937.29999995232,8092,remote,AF,C,259939,259939,258310,259223,258311,260356,259740,259740,260356,69
68,test,1,con,1,z,Mon Jan 26 2026 15:59:47 GMT-0600 (Central Standard Time),264115.39999985695,rage,900,I,z,z,None,696,496.0,200.0,50,1,2128.7999999523163,261986.59999990463,8092,rage,AF,C,261990,261990,260360,261273,260360,262489,261789,261789,262488,70
69,test,1,inc,1,z,Mon Jan 26 2026 15:59:47 GMT-0600 (Central Standard Time),266281.09999990463,remote,1000,I,z,z,None,630,431.0,199.0,31,1,2161.5,264119.59999990463,8092,friend,AF,C,264222,264222,262493,263505,262493,264654,264022,264022,264654,71
70,test,1,inc,1,z,Mon Jan 26 2026 15:59:47 GMT-0600 (Central Standard Time),268297.09999990463,step,800,I,z,z,None,683,482.0,201.0,21,1,2012.3999998569489,266284.7000000477,8092,love,AF,C,266188,266188,264658,265471,264658,266670,265987,265987,266670,72
71,test,1,inc,1,z,Mon Jan 26 2026 15:59:47 GMT-0600 (Central Standard Time),270346.89999985695,jacket,800,I,z,z,None,713,514.0,199.0,29,1,2045.7999999523163,268301.09999990463,8092,friend,AF,C,268204,268204,266674,267487,266674,268720,268003,268004,268720,73
72,test,1,con,1,z,Mon Jan 26 2026 15:59:47 GMT-0600 (Central Standard Time),272596.2000000477,love,1100,I,z,z,None,604,404.0,200.0,20,1,2245.4000000953674,270350.7999999523,8092,love,AF,C,270553,270553,268724,269836,268724,270969,270353,270353,270969,74
73,test,1,con,1,m,Mon Jan 26 2026 15:59:47 GMT-0600 (Central Standard Time),274828.7000000477,window,1100,I,m,m,None,588,388.0,200.0,124,1,2228.7000000476837,272600.0,8092,window,AF,C,272802,272802,270973,272086,270973,273202,272602,272602,273202,75
74,test,1,con,1,m,Mon Jan 26 2026 15:59:47 GMT-0600 (Central Standard Time),277344.5,rock,1000,I,m,m,None,982,782.0,200.0,75,1,2512.2000000476837,274832.2999999523,8092,rock,AF,C,274935,274935,273205,274218,273206,275718,274735,274735,275717,76
75,test,1,con,1,m,Mon Jan 26 2026 15:59:47 GMT-0600 (Central Standard Time),279727.09999990463,step,1100,I,m,m,None,742,543.0,199.0,68,1,2378.899999856949,277348.2000000477,8092,step,AF,C,277551,277551,275721,276835,275721,278100,277351,277351,278100,77
76,test,1,inc,1,m,Mon Jan 26 2026 15:59:47 GMT-0600 (Central Standard Time),282026.59999990463,friend,1100,I,m,m,None,656,456.0,200.0,128,1,2295.899999856949,279730.7000000477,8092,window,AF,C,279933,279933,278104,279217,278104,280400,279733,279733,280400,78
77,test,1,con,1,m,Mon Jan 26 2026 15:59:47 GMT-0600 (Central Standard Time),284009.2000000477,step,800,I,m,m,None,647,448.0,199.0,65,1,1978.4000000953674,282030.7999999523,8092,step,AF,C,281933,281933,280404,281216,280404,282382,281733,281733,282382,79
78,test,1,inc,1,z,Mon Jan 26 2026 15:59:47 GMT-0600 (Central Standard Time),286308.39999985695,window,1100,I,z,z,None,654,455.0,199.0,40,1,2295.7999999523163,284012.59999990463,8092,brutal,AF,C,284215,284215,282386,283499,282386,284682,284016,284016,284681,80
79,test,1,inc,1,m,Mon Jan 26 2026 15:59:47 GMT-0600 (Central Standard Time),288541.09999990463,temper,1000,I,m,m,None,694,495.0,199.0,127,1,2228.899999856949,286312.2000000477,8092,window,AF,C,286415,286415,284685,285698,284685,286914,286215,286215,286914,81
80,test,1,con,1,m,Mon Jan 26 2026 15:59:47 GMT-0600 (Central Standard Time),290840.2999999523,jacket,900,I,m,m,None,850,650.0,200.0,98,1,2295.2000000476837,288545.09999990463,8092,jacket,AF,C,288547,288547,286918,287832,286918,289213,288347,288347,289213,82
81,test,1,inc,1,m,Mon Jan 26 2026 15:59:47 GMT-0600 (Central Standard Time),293090.0,love,1000,I,m,m,None,707,507.0,200.0,87,1,2246.0,290844.0,8092,bell,AF,C,290946,290947,289217,290230,289217,291463,290746,290746,291463,83
82,test,1,con,1,z,Mon Jan 26 2026 15:59:47 GMT-0600 (Central Standard Time),295339.2000000477,hate,1100,I,z,z,None,604,405.0,199.0,44,1,2245.300000190735,293093.89999985695,8092,hate,AF,C,293296,293296,291467,292580,291467,293712,293096,293096,293712,84
83,test,1,inc,1,m,Mon Jan 26 2026 15:59:47 GMT-0600 (Central Standard Time),297621.5,hate,1100,I,m,m,None,644,444.0,200.0,80,1,2278.4000000953674,295343.09999990463,8092,rock,AF,C,295545,295545,293716,294829,293716,295995,295345,295345,295995,85
84,test,1,con,1,m,Mon Jan 26 2026 15:59:47 GMT-0600 (Central Standard Time),299904.09999990463,jacket,800,I,m,m,None,941,742.0,199.0,97,1,2278.7999999523163,297625.2999999523,8092,jacket,AF,C,297528,297528,295998,296811,295998,298277,297328,297328,298277,86
84,test,1,con,0,z,Mon Jan 26 2026 15:59:47 GMT-0600 (Central Standard Time),302236.89999985695,kind,1000,I,m,m,None,794,595.0,199.0,11,1,2328.899999856949,299908.0,8092,kind,AF,C,300010,300010,298281,299294,298281,300610,299811,299811,300610,87
85,test,1,inc,1,z,Mon Jan 26 2026 15:59:47 GMT-0600 (Central Standard Time),304236.2000000477,jacket,800,I,z,z,None,662,462.0,200.0,61,1,1995.6000001430511,302240.59999990463,8092,temper,AF,C,302143,302143,300614,301426,300614,302609,301943,301943,302609,88
86,test,1,con,1,m,Mon Jan 26 2026 15:59:47 GMT-0600 (Central Standard Time),306635.5,rock,1100,I,m,m,None,755,555.0,200.0,76,1,2395.4000000953674,304240.09999990463,8092,rock,AF,C,304442,304442,302613,303726,302613,305009,304242,304242,305009,89
87,test,1,inc,1,z,Mon Jan 26 2026 15:59:47 GMT-0600 (Central Standard Time),308884.7000000477,remote,1000,I,z,z,None,705,505.0,200.0,39,1,2245.4000000953674,306639.2999999523,8092,brutal,AF,C,306741,306741,305012,306025,305013,307258,306541,306541,307258,90
88,test,1,con,1,z,Mon Jan 26 2026 15:59:47 GMT-0600 (Central Standard Time),311317.2000000477,temper,1100,I,z,z,None,794,594.0,200.0,60,1,2428.7000000476837,308888.5,8092,temper,AF,C,309091,309091,307262,308376,307262,309690,308891,308891,309690,91
89,test,1,inc,1,z,Mon Jan 26 2026 15:59:47 GMT-0600 (Central Standard Time),313600.0,bell,1000,I,z,z,None,732,533.0,199.0,47,1,2278.9000000953674,311321.09999990463,8092,hate,AF,C,311424,311424,309694,310707,309694,311973,311223,311224,311973,92
90,test,1,inc,1,z,Mon Jan 26 2026 15:59:47 GMT-0600 (Central Standard Time),315966.0,remote,1000,I,z,z,None,828,628.0,200.0,63,1,2362.2999999523163,313603.7000000477,8092,temper,AF,C,313706,313706,311977,312990,311977,314339,313506,313506,314339,93
91,test,1,con,1,z,Mon Jan 26 2026 15:59:47 GMT-0600 (Central Standard Time),318031.89999985695,brutal,800,I,z,z,None,725,525.0,200.0,33,1,2062.2999999523163,315969.59999990463,8092,brutal,AF,C,315872,315872,314343,315156,314343,316405,315672,315672,316405,94
92,test,1,con,1,m,Mon Jan 26 2026 15:59:47 GMT-0600 (Central Standard Time),320414.5,window,1000,I,m,m,None,836,636.0,200.0,123,1,2378.7000000476837,318035.7999999523,8092,window,AF,C,318138,318138,316409,317422,316409,318788,317938,317938,318788,95
93,test,1,con,1,m,Mon Jan 26 2026 15:59:47 GMT-0600 (Central Standard Time),322580.59999990463,film,1000,I,m,m,None,628,428.0,200.0,91,1,2162.0999999046326,320418.5,8092,film,AF,C,320521,320521,318792,319804,318792,320954,320320,320320,320954,96
94,test,1,con,1,z,Mon Jan 26 2026 15:59:47 GMT-0600 (Central Standard Time),324912.89999985695,elated,1100,I,z,z,None,698,498.0,200.0,4,1,2328.399999856949,322584.5,8092,elated,AF,C,322787,322787,320958,322070,320958,323286,322586,322586,323286,97
95,test,1,inc,1,z,Mon Jan 26 2026 15:59:47 GMT-0600 (Central Standard Time),327229.2000000477,window,1100,I,z,z,None,679,479.0,200.0,64,1,2312.7000000476837,324916.5,8092,temper,AF,C,325119,325119,323290,324403,323290,325602,324919,324919,325602,98
96,test,1,inc,1,m,Mon Jan 26 2026 15:59:47 GMT-0600 (Central Standard Time),329695.0,friend,1100,I,m,m,None,818,618.0,200.0,120,1,2461.9000000953674,327233.09999990463,8092,remote,AF,C,327435,327435,325606,326719,325606,328068,327235,327235,328068,99
97,test,1,inc,1,m,Mon Jan 26 2026 15:59:47 GMT-0600 (Central Standard Time),331811.0,brutal,900,I,m,m,None,672,472.0,200.0,102,1,2112.2999999523163,329698.7000000477,8092,jacket,AF,C,329701,329701,328072,328985,328072,330184,329501,329501,330184,100
98,test,1,con,1,m,Mon Jan 26 2026 15:59:47 GMT-0600 (Central Standard Time),333943.7999999523,napkin,1000,I,m,m,None,584,384.0,200.0,107,1,2129.2999999523163,331814.5,8092,napkin,AF,C,331917,331917,330188,331201,330188,332317,331717,331717,332317,101
99,test,1,inc,1,z,Mon Jan 26 2026 15:59:47 GMT-0600 (Central Standard Time),336143.09999990463,window,1100,I,z,z,None,551,352.0,199.0,8,1,2194.899999856949,333948.2000000477,8092,elated,AF,C,334150,334150,332321,333433,332321,334516,333950,333950,334516,102
100,test,1,inc,1,z,Mon Jan 26 2026 15:59:47 GMT-0600 (Central Standard Time),338008.89999985695,jacket,800,I,z,z,None,517,317.0,200.0,5,1,1862.1999998092651,336146.7000000477,8092,elated,AF,C,336049,336049,334520,335332,334520,336382,335849,335849,336382,103
101,test,1,con,1,z,Mon Jan 26 2026 15:59:47 GMT-0600 (Central Standard Time),339975.0,love,1000,I,z,z,None,418,218.0,200.0,19,1,1962.2999999523163,338012.7000000477,8092,love,AF,C,338115,338115,336386,337398,336386,338348,337915,337915,338348,104
102,test,1,inc,1,z,Mon Jan 26 2026 15:59:47 GMT-0600 (Central Standard Time),342257.59999990463,film,1100,I,z,z,None,648,448.0,200.0,48,1,2279.0,339978.59999990463,8092,hate,AF,C,340181,340181,338352,339465,338352,340631,339981,339981,340631,105
103,test,1,con,1,z,Mon Jan 26 2026 15:59:47 GMT-0600 (Central Standard Time),344306.7999999523,temper,800,I,z,z,None,713,514.0,199.0,57,1,2045.7000000476837,342261.09999990463,8092,temper,AF,C,342164,342164,340634,341447,340634,342680,341964,341964,342680,106
104,test,1,inc,1,z,Mon Jan 26 2026 15:59:47 GMT-0600 (Central Standard Time),346739.7000000477,film,1100,I,z,z,None,797,597.0,200.0,56,1,2429.100000143051,344310.59999990463,8092,rage,AF,C,344513,344513,342684,343797,342684,345113,344313,344313,345113,107
105,test,1,inc,1,m,Mon Jan 26 2026 15:59:47 GMT-0600 (Central Standard Time),348922.39999985695,love,1000,I,m,m,None,638,439.0,199.0,79,1,2178.899999856949,346743.5,8092,rock,AF,C,346846,346846,345117,346129,345117,347295,346646,346646,347295,108
106,test,1,inc,1,z,Mon Jan 26 2026 15:59:47 GMT-0600 (Central Standard Time),351071.7000000477,napkin,900,I,z,z,None,701,501.0,200.0,30,1,2145.4000000953674,348926.2999999523,8092,friend,AF,C,348928,348928,347299,348212,347300,349445,348728,348728,349445,109
107,test,1,inc,1,m,Mon Jan 26 2026 15:59:47 GMT-0600 (Central Standard Time),353504.2000000477,love,1000,I,m,m,None,882,683.0,199.0,95,1,2428.7000000476837,351075.5,8092,film,AF,C,351178,351178,349449,350461,349449,351877,350978,350978,351877,110
108,test,1,inc,1,m,Mon Jan 26 2026 15:59:47 GMT-0600 (Central Standard Time),355703.5,temper,1000,I,m,m,None,651,451.0,200.0,103,1,2195.4000000953674,353508.09999990463,8092,jacket,AF,C,353610,353610,351881,352894,351882,354077,353410,353410,354076,111
109,test,1,inc,1,z,Mon Jan 26 2026 15:59:47 GMT-0600 (Central Standard Time),357769.2999999523,rock,900,I,z,z,None,630,431.0,199.0,46,1,2062.0,355707.2999999523,8092,hate,AF,C,355710,355710,354080,354993,354080,356142,355510,355510,356142,112
110,test,1,inc,1,z,Mon Jan 26 2026 15:59:47 GMT-0600 (Central Standard Time),360002.09999990463,napkin,900,I,z,z,None,788,589.0,199.0,62,1,2229.2999999523163,357772.7999999523,8092,temper,AF,C,357776,357776,356146,357059,356146,358375,357576,357576,358375,113
111,test,1,inc,1,m,Mon Jan 26 2026 15:59:47 GMT-0600 (Central Standard Time),362017.89999985695,elated,800,I,m,m,None,682,482.0,200.0,125,1,2012.1999998092651,360005.7000000477,8092,window,AF,C,359908,359908,358379,359192,358379,360391,359708,359708,360391,114
112,test,1,inc,1,m,Mon Jan 26 2026 15:59:47 GMT-0600 (Central Standard Time),364000.7000000477,rage,800,I,m,m,None,649,449.0,200.0,69,1,1979.5,362021.2000000477,8092,step,AF,C,361925,361925,360394,361208,360394,362374,361725,361725,362374,115
113,test,1,con,1,z,Mon Jan 26 2026 15:59:47 GMT-0600 (Central Standard Time),366366.7000000477,brutal,1000,I,z,z,None,817,618.0,199.0,35,1,2362.300000190735,364004.39999985695,8092,brutal,AF,C,364107,364107,362377,363391,362378,364740,363907,363907,364740,116
114,test,1,inc,1,z,Mon Jan 26 2026 15:59:47 GMT-0600 (Central Standard Time),368632.89999985695,window,1100,I,z,z,None,624,423.0,201.0,32,1,2262.2999999523163,366370.59999990463,8092,friend,AF,C,366574,366574,364744,365857,364744,367006,366373,366373,367006,117
115,test,1,con,1,m,Mon Jan 26 2026 15:59:47 GMT-0600 (Central Standard Time),370698.7999999523,film,900,I,m,m,None,623,423.0,200.0,90,1,2061.5,368637.2999999523,8092,film,AF,C,368639,368639,367010,367922,367011,369072,368439,368439,369072,118
116,test,1,con,1,m,Mon Jan 26 2026 15:59:47 GMT-0600 (Central Standard Time),372831.5,window,900,I,m,m,None,693,493.0,200.0,122,1,2128.9000000953674,370702.59999990463,8092,window,AF,C,370705,370705,369076,369989,369076,371205,370505,370505,371205,119
117,test,1,con,1,m,Mon Jan 26 2026 15:59:47 GMT-0600 (Central Standard Time),374947.5,jacket,1000,I,m,m,None,573,373.0,200.0,99,1,2112.2000000476837,372835.2999999523,8092,jacket,AF,C,372937,372937,371208,372221,371209,373321,372737,372737,373320,120
118,test,1,con,1,z,Mon Jan 26 2026 15:59:47 GMT-0600 (Central Standard Time),377046.7000000477,kind,900,I,z,z,None,650,451.0,199.0,10,1,2095.600000143051,374951.09999990463,8092,kind,AF,C,374954,374954,373324,374237,373324,375420,374754,374754,375420,121
119,test,1,inc,1,z,Mon Jan 26 2026 15:59:47 GMT-0600 (Central Standard Time),379346.09999990463,bell,1000,I,z,z,None,764,564.0,200.0,55,1,2295.399999856949,377050.7000000477,8092,rage,AF,C,377153,377153,375424,376438,375424,377719,376953,376953,377719,122
119,test,1,con,0,m,Mon Jan 26 2026 15:59:47 GMT-0600 (Central Standard Time),381379.0,bell,1000,I,z,z,None,490,290.0,200.0,83,1,2029.2999999523163,379349.7000000477,8092,bell,AF,C,379452,379452,377723,378736,377723,379752,379252,379252,379752,123
120,test,1,con,1,z,Mon Jan 26 2026 15:59:47 GMT-0600 (Central Standard Time),383677.7000000477,hate,900,I,z,z,None,853,653.0,200.0,42,1,2295.100000143051,381382.59999990463,8092,hate,AF,C,381385,381385,379756,380668,379756,382051,381185,381185,382051,124
121,test,1,con,1,z,Mon Jan 26 2026 15:59:47 GMT-0600 (Central Standard Time),385960.7999999523,elated,800,I,z,z,None,934,734.0,200.0,1,1,2279.7000000476837,383681.09999990463,8092,elated,AF,C,383584,383584,382054,382868,382054,384334,383384,383384,384334,125
122,test,1,con,1,z,Mon Jan 26 2026 15:59:47 GMT-0600 (Central Standard Time),387960.2000000477,rage,800,I,z,z,None,657,458.0,199.0,49,1,1995.7000000476837,385964.5,8092,rage,AF,C,385867,385867,384338,385150,384338,386333,385667,385667,386333,126
123,test,1,inc,1,m,Mon Jan 26 2026 15:59:47 GMT-0600 (Central Standard Time),390159.59999990463,brutal,900,I,m,m,None,751,551.0,200.0,118,1,2195.5999999046326,387964.0,8092,remote,AF,C,387966,387966,386337,387249,386337,388533,387766,387766,388533,127
124,test,1,inc,1,m,Mon Jan 26 2026 15:59:47 GMT-0600 (Central Standard Time),392091.89999985695,rage,800,I,m,m,None,597,397.0,200.0,85,1,1928.6999998092651,390163.2000000477,8092,bell,AF,C,390065,390065,388536,389349,388537,390465,389865,389865,390465,128
