acc_sum,block,block_c,condition,correct,correct_response,datetime,endtime,flanker,jitter,project,response,response_test_buffer_response,response_test_target_response,response_time,response_time_test_buffer_response,response_time_test_target_response,row_sel,session_number,start_end,starttime,subject_id,target,task,task_vers,time_test_buffer,time_test_buffer_response,time_test_constants,time_test_flanker,time_test_jitter,time_test_logger,time_test_target,time_test_target_response,time_test_variables,trial
0,prac,1,inc,0,z,Tue Dec 16 2025 14:00:23 GMT-0600 (Central Standard Time),138313.39999997616,lead,1100,I,None,,,1812,,,8,1,5172.899999976158,133140.5,7733,plum,NF,C,,,,,,,,,,1
1,prac,1,inc,1,m,Tue Dec 16 2025 14:00:23 GMT-0600 (Central Standard Time),141610.0,pear,900,I,m,,,1099,,,14,1,3289.0,138321.0,7733,iron,NF,C,,,,,,,,,,2
2,prac,1,con,1,m,Tue Dec 16 2025 14:00:23 GMT-0600 (Central Standard Time),144811.29999995232,zinc,1000,I,m,,,895,,,15,1,3197.7000000476837,141613.59999990463,7733,zinc,NF,C,,,,,,,,,,3
3,prac,1,con,1,m,Tue Dec 16 2025 14:00:23 GMT-0600 (Central Standard Time),147759.5,silver,1000,I,m,,,641,,,11,1,2941.7000000476837,144817.79999995232,7733,silver,NF,C,,,,,,,,,,4
4,prac,1,inc,1,m,Tue Dec 16 2025 14:00:23 GMT-0600 (Central Standard Time),150725.0,cherry,900,I,m,,,768,,,10,1,2957.0,147768.0,7733,copper,NF,C,,,,,,,,,,5
5,prac,1,inc,1,m,Tue Dec 16 2025 14:00:23 GMT-0600 (Central Standard Time),153774.69999992847,raisin,1100,I,m,,,635,,,12,1,3040.7999999523163,150733.89999997616,7733,cobalt,NF,C,,,,,,,,,,6
6,prac,1,con,1,m,Tue Dec 16 2025 14:00:23 GMT-0600 (Central Standard Time),156474.09999990463,gold,800,I,m,,,591,,,13,1,2694.899999976158,153779.19999992847,7733,gold,NF,C,,,,,,,,,,7
7,prac,1,inc,1,z,Tue Dec 16 2025 14:00:23 GMT-0600 (Central Standard Time),159306.59999990463,iron,900,I,z,,,630,,,6,1,2825.899999976158,156480.69999992847,7733,pear,NF,C,,,,,,,,,,8
8,prac,1,con,1,m,Tue Dec 16 2025 14:00:23 GMT-0600 (Central Standard Time),162071.5,bronze,800,I,m,,,657,,,9,1,2759.600000023842,159311.89999997616,7733,bronze,NF,C,,,,,,,,,,9
9,prac,1,con,1,z,Tue Dec 16 2025 14:00:23 GMT-0600 (Central Standard Time),164971.79999995232,kiwi,1000,I,z,,,597,,,7,1,2890.100000023842,162081.69999992847,7733,kiwi,NF,C,,,,,,,,,,10
10,prac,1,inc,1,z,Tue Dec 16 2025 14:00:23 GMT-0600 (Central Standard Time),167938.79999995232,cobalt,1100,I,z,,,565,,,4,1,2961.2000000476837,164977.59999990463,7733,raisin,NF,C,,,,,,,,,,11
11,prac,1,con,1,z,Tue Dec 16 2025 14:00:23 GMT-0600 (Central Standard Time),170919.0,orange,1000,I,z,,,667,,,3,1,2972.0,167947.0,7733,orange,NF,C,,,,,,,,,,12
12,prac,1,con,1,z,Tue Dec 16 2025 14:00:23 GMT-0600 (Central Standard Time),173551.0,lime,800,I,z,,,525,,,5,1,2625.5,170925.5,7733,lime,NF,C,,,,,,,,,,13
13,prac,1,inc,1,m,Tue Dec 16 2025 14:00:23 GMT-0600 (Central Standard Time),176618.0,plum,1100,I,m,,,671,,,16,1,3060.9000000953674,173557.09999990463,7733,lead,NF,C,,,,,,,,,,14
14,prac,1,inc,1,z,Tue Dec 16 2025 14:00:23 GMT-0600 (Central Standard Time),179550.0,copper,900,I,z,,,727,,,2,1,2927.0,176623.0,7733,cherry,NF,C,,,,,,,,,,15
15,prac,1,con,1,z,Tue Dec 16 2025 14:00:23 GMT-0600 (Central Standard Time),182365.09999990463,banana,800,I,z,,,702,,,1,1,2808.0,179557.09999990463,7733,banana,NF,C,,,,,,,,,,16
0,test,1,inc,0,m,Tue Dec 16 2025 14:00:23 GMT-0600 (Central Standard Time),197444.39999997616,plum,1100,I,None,None,None,1814,1814.0,211.0,104,1,3660.100000023842,193784.29999995232,7733,gold,NF,C,190827,190827,188981,190092,188982,192642,190616,190616,192641,1
1,test,1,inc,1,m,Tue Dec 16 2025 14:00:23 GMT-0600 (Central Standard Time),199742.69999992847,cherry,900,I,m,m,None,863,662.0,201.0,78,1,2292.399999976158,197450.29999995232,7733,copper,NF,C,194274,194274,192647,193558,192648,194940,194073,194073,194940,2
1,test,1,inc,0,m,Tue Dec 16 2025 14:00:23 GMT-0600 (Central Standard Time),201826.29999995232,kiwi,1000,I,z,z,None,533,334.0,199.0,119,1,2079.899999976158,199746.39999997616,7733,zinc,NF,C,196673,196673,194943,195959,194944,197023,196473,196474,197023,3
2,test,1,inc,1,m,Tue Dec 16 2025 14:00:23 GMT-0600 (Central Standard Time),203943.09999990463,orange,1000,I,m,m,None,570,370.0,200.0,71,1,2111.6999999284744,201831.39999997616,7733,bronze,NF,C,198756,198756,197028,198040,197029,199140,198556,198556,199140,4
3,test,1,con,1,m,Tue Dec 16 2025 14:00:23 GMT-0600 (Central Standard Time),206074.89999997616,lead,1100,I,m,m,None,499,284.0,215.0,124,1,2128.100000023842,203946.79999995232,7733,lead,NF,C,200988,200988,199144,200255,199144,201272,200773,200773,201272,5
4,test,1,con,1,m,Tue Dec 16 2025 14:00:23 GMT-0600 (Central Standard Time),208041.09999990463,zinc,900,I,m,m,None,525,326.0,199.0,114,1,1960.5,206080.59999990463,7733,zinc,NF,C,202905,202905,201278,202188,201278,203238,202705,202705,203238,6
5,test,1,inc,1,z,Tue Dec 16 2025 14:00:23 GMT-0600 (Central Standard Time),209956.5,bronze,800,I,z,z,None,581,366.0,215.0,29,1,1910.3000000715256,208046.19999992847,7733,raisin,NF,C,204787,204787,203243,204054,203244,205154,204572,204572,205153,7
6,test,1,con,1,z,Tue Dec 16 2025 14:00:23 GMT-0600 (Central Standard Time),212190.0,lime,900,I,z,z,None,788,589.0,199.0,34,1,2229.5,209960.5,7733,lime,NF,C,206787,206787,205158,206073,205158,207387,206587,206587,207387,8
6,test,1,inc,0,z,Tue Dec 16 2025 14:00:23 GMT-0600 (Central Standard Time),214155.89999997616,iron,900,I,m,m,None,531,331.0,200.0,62,1,1961.7000000476837,212194.19999992847,7733,plum,NF,C,209020,209020,207391,208304,207392,209353,208819,208819,209353,9
7,test,1,inc,1,z,Tue Dec 16 2025 14:00:23 GMT-0600 (Central Standard Time),216588.19999992847,copper,900,I,z,z,None,988,788.0,200.0,6,1,2428.0,214160.19999992847,7733,banana,NF,C,210986,210986,209357,210269,209357,211785,210785,210785,211785,10
8,test,1,inc,1,z,Tue Dec 16 2025 14:00:23 GMT-0600 (Central Standard Time),218621.39999997616,iron,900,I,z,z,None,600,400.0,200.0,54,1,2027.6000000238419,216593.79999995232,7733,kiwi,NF,C,213418,213418,211791,212705,211791,213818,213218,213218,213818,11
9,test,1,inc,1,z,Tue Dec 16 2025 14:00:23 GMT-0600 (Central Standard Time),220604.69999992847,gold,800,I,z,z,None,648,448.0,200.0,45,1,1978.6999999284744,218626.0,7733,pear,NF,C,215351,215351,213823,214634,213823,215802,215151,215151,215802,12
10,test,1,inc,1,z,Tue Dec 16 2025 14:00:23 GMT-0600 (Central Standard Time),222835.19999992847,lead,1100,I,z,z,None,590,390.0,200.0,56,1,2226.100000023842,220609.09999990463,7733,kiwi,NF,C,217633,217633,215806,216918,215806,218032,217433,217433,218032,13
11,test,1,inc,1,z,Tue Dec 16 2025 14:00:23 GMT-0600 (Central Standard Time),225101.5,lead,1100,I,z,z,None,629,429.0,200.0,64,1,2262.8000000715256,222838.69999992847,7733,plum,NF,C,219866,219866,218036,219150,218036,220299,219666,219666,220299,14
12,test,1,con,1,m,Tue Dec 16 2025 14:00:23 GMT-0600 (Central Standard Time),227334.29999995232,iron,1000,I,m,m,None,710,511.0,199.0,107,1,2229.2000000476837,225105.09999990463,7733,iron,NF,C,222016,222016,220302,221315,220302,222531,221816,221816,222531,15
13,test,1,inc,1,z,Tue Dec 16 2025 14:00:23 GMT-0600 (Central Standard Time),229800.0,cobalt,1100,I,z,z,None,825,625.0,200.0,16,1,2461.9000000953674,227338.09999990463,7733,cherry,NF,C,224364,224365,222535,223649,222535,224997,224164,224164,224997,16
14,test,1,inc,1,m,Tue Dec 16 2025 14:00:23 GMT-0600 (Central Standard Time),231749.39999997616,lime,800,I,m,m,None,613,412.0,201.0,109,1,1944.3999999761581,229805.0,7733,iron,NF,C,226531,226531,225002,225814,225002,226947,226330,226330,226946,17
15,test,1,con,1,m,Tue Dec 16 2025 14:00:23 GMT-0600 (Central Standard Time),233614.39999997616,silver,800,I,m,m,None,525,325.0,200.0,81,1,1861.7000000476837,231752.69999992847,7733,silver,NF,C,228481,228481,226950,227764,226950,228812,228280,228280,228811,18
16,test,1,con,1,z,Tue Dec 16 2025 14:00:23 GMT-0600 (Central Standard Time),235783.0,plum,1000,I,z,z,None,615,403.0,212.0,59,1,2165.7000000476837,233617.29999995232,7733,plum,NF,C,230563,230563,228814,229829,228815,230980,230350,230350,230980,19
17,test,1,inc,1,m,Tue Dec 16 2025 14:00:23 GMT-0600 (Central Standard Time),237732.19999992847,pear,900,I,m,m,None,514,314.0,200.0,126,1,1943.6999999284744,235788.5,7733,lead,NF,C,232612,232613,230986,231897,230986,232929,232412,232412,232929,20
18,test,1,inc,1,m,Tue Dec 16 2025 14:00:23 GMT-0600 (Central Standard Time),240013.59999990463,raisin,1100,I,m,m,None,653,453.0,200.0,72,1,2275.0999999046326,237738.5,7733,bronze,NF,C,234746,234746,232936,234044,232936,235211,234546,234546,235211,21
19,test,1,inc,1,m,Tue Dec 16 2025 14:00:23 GMT-0600 (Central Standard Time),242329.5,kiwi,1000,I,m,m,None,773,558.0,215.0,127,1,2312.100000023842,240017.39999997616,7733,lead,NF,C,236961,236961,235214,236227,235215,237527,236745,236745,237527,22
20,test,1,con,1,z,Tue Dec 16 2025 14:00:23 GMT-0600 (Central Standard Time),244162.39999997616,plum,800,I,z,z,None,483,284.0,199.0,57,1,1829.3000000715256,242333.09999990463,7733,plum,NF,C,239059,239059,237530,238345,237530,239359,238860,238860,239359,23
21,test,1,inc,1,z,Tue Dec 16 2025 14:00:23 GMT-0600 (Central Standard Time),246394.29999995232,silver,1000,I,z,z,None,689,489.0,200.0,23,1,2229.100000023842,244165.19999992847,7733,orange,NF,C,241093,241093,239362,240376,239363,241591,240892,240892,241591,24
22,test,1,con,1,m,Tue Dec 16 2025 14:00:23 GMT-0600 (Central Standard Time),248277.19999992847,zinc,800,I,m,m,None,544,329.0,215.0,113,1,1877.2999999523163,246399.89999997616,7733,zinc,NF,C,243141,243142,241597,242408,241597,243474,242926,242926,243474,25
23,test,1,con,1,m,Tue Dec 16 2025 14:00:23 GMT-0600 (Central Standard Time),250542.59999990463,silver,1100,I,m,m,None,631,418.0,213.0,84,1,2258.5,248284.09999990463,7733,silver,NF,C,245308,245308,243481,244591,243481,245740,245094,245094,245740,26
24,test,1,con,1,m,Tue Dec 16 2025 14:00:23 GMT-0600 (Central Standard Time),252392.69999992847,cobalt,800,I,m,m,None,509,310.0,199.0,89,1,1844.6999999284744,250548.0,7733,cobalt,NF,C,247273,247273,245745,246557,245745,247590,247073,247074,247590,27
25,test,1,con,1,m,Tue Dec 16 2025 14:00:23 GMT-0600 (Central Standard Time),254608.39999997616,gold,1100,I,m,m,None,574,358.0,216.0,100,1,2209.2000000476837,252399.19999992847,7733,gold,NF,C,249441,249441,247596,248707,247596,249806,249224,249224,249805,28
25,test,1,con,0,z,Tue Dec 16 2025 14:00:23 GMT-0600 (Central Standard Time),256475.69999992847,cherry,800,I,m,m,None,525,323.0,202.0,9,1,1862.5,254613.19999992847,7733,cherry,NF,C,251340,251340,249810,250623,249811,251673,251137,251137,251673,29
26,test,1,inc,1,m,Tue Dec 16 2025 14:00:23 GMT-0600 (Central Standard Time),258773.69999992847,raisin,1100,I,m,m,None,653,452.0,201.0,88,1,2290.6999999284744,256483.0,7733,silver,NF,C,253506,253507,251680,252788,251680,253971,253305,253305,253971,30
27,test,1,con,1,m,Tue Dec 16 2025 14:00:23 GMT-0600 (Central Standard Time),260873.69999992847,iron,900,I,m,m,None,659,458.0,201.0,106,1,2092.600000023842,258781.09999990463,7733,iron,NF,C,255604,255604,253978,254888,253978,256071,255403,255403,256071,31
28,test,1,con,1,m,Tue Dec 16 2025 14:00:23 GMT-0600 (Central Standard Time),263005.7999999523,cobalt,1000,I,m,m,None,584,369.0,215.0,91,1,2127.100000023842,260878.69999992847,7733,cobalt,NF,C,257821,257822,256076,257087,256076,258203,257606,257606,258203,32
29,test,1,con,1,z,Tue Dec 16 2025 14:00:23 GMT-0600 (Central Standard Time),264938.59999990463,kiwi,900,I,z,z,None,490,291.0,199.0,50,1,1925.8999999761581,263012.6999999285,7733,kiwi,NF,C,259836,259836,258210,259119,258210,260136,259637,259637,260136,33
30,test,1,con,1,z,Tue Dec 16 2025 14:00:23 GMT-0600 (Central Standard Time),267138.59999990463,plum,1100,I,z,z,None,549,350.0,199.0,60,1,2192.399999976158,264946.1999999285,7733,plum,NF,C,261969,261969,260143,261252,260144,262336,261769,261769,262336,34
31,test,1,con,1,z,Tue Dec 16 2025 14:00:23 GMT-0600 (Central Standard Time),269154.59999990463,cherry,1000,I,z,z,None,482,283.0,199.0,11,1,2012.7999999523163,267141.7999999523,7733,cherry,NF,C,264068,264068,262339,263352,262339,264352,263869,263869,264352,35
32,test,1,con,1,z,Tue Dec 16 2025 14:00:23 GMT-0600 (Central Standard Time),271270.2999999523,pear,1100,I,z,z,None,468,253.0,215.0,44,1,2109.7999999523163,269160.5,7733,pear,NF,C,266201,266201,264358,265468,264358,266467,265985,265985,266467,36
33,test,1,con,1,m,Tue Dec 16 2025 14:00:23 GMT-0600 (Central Standard Time),273219.59999990463,copper,900,I,m,m,None,505,306.0,199.0,74,1,1945.0999999046326,271274.5,7733,copper,NF,C,268100,268100,266472,267384,266472,268417,267900,267900,268417,37
34,test,1,inc,1,z,Tue Dec 16 2025 14:00:23 GMT-0600 (Central Standard Time),275402.7999999523,lead,1100,I,z,z,None,548,349.0,199.0,40,1,2179.7999999523163,273223.0,7733,lime,NF,C,270250,270250,268420,269533,268420,270600,270050,270050,270600,38
34,test,1,inc,0,z,Tue Dec 16 2025 14:00:23 GMT-0600 (Central Standard Time),277484.59999990463,zinc,1000,I,m,m,None,537,337.0,200.0,47,1,2077.1999999284744,275407.39999997616,7733,pear,NF,C,272333,272333,270604,271616,270605,272682,272132,272132,272682,39
35,test,1,inc,1,z,Tue Dec 16 2025 14:00:23 GMT-0600 (Central Standard Time),279602.2999999523,iron,900,I,z,z,None,666,451.0,215.0,46,1,2114.2999999523163,277488.0,7733,pear,NF,C,274332,274332,272685,273599,272686,274799,274116,274116,274799,40
36,test,1,inc,1,m,Tue Dec 16 2025 14:00:23 GMT-0600 (Central Standard Time),281616.89999997616,lime,800,I,m,m,None,666,467.0,199.0,117,1,2009.6000000238419,279607.2999999523,7733,zinc,NF,C,276332,276332,274804,275615,274805,276814,276132,276132,276814,41
37,test,1,con,1,z,Tue Dec 16 2025 14:00:23 GMT-0600 (Central Standard Time),283967.0,kiwi,1100,I,z,z,None,703,501.0,202.0,52,1,2345.7000000476837,281621.2999999523,7733,kiwi,NF,C,278649,278649,276818,277930,276819,279164,278447,278447,279164,42
38,test,1,inc,1,z,Tue Dec 16 2025 14:00:23 GMT-0600 (Central Standard Time),286066.0,copper,900,I,z,z,None,656,440.0,216.0,22,1,2093.9000000953674,283972.09999990463,7733,orange,NF,C,280814,280814,279169,280080,279169,281263,280597,280597,281263,43
39,test,1,con,1,z,Tue Dec 16 2025 14:00:23 GMT-0600 (Central Standard Time),288232.5,raisin,1100,I,z,z,None,516,301.0,215.0,28,1,2163.100000023842,286069.39999997616,7733,raisin,NF,C,283112,283113,281266,282379,281267,283430,282897,282897,283430,44
40,test,1,inc,1,z,Tue Dec 16 2025 14:00:23 GMT-0600 (Central Standard Time),290246.6999999285,iron,900,I,z,z,None,569,370.0,199.0,38,1,2009.2999999523163,288237.39999997616,7733,lime,NF,C,285061,285061,283434,284345,283435,285444,284862,284862,285444,45
40,test,1,con,0,z,Tue Dec 16 2025 14:00:23 GMT-0600 (Central Standard Time),292279.6999999285,raisin,900,I,m,m,None,591,377.0,214.0,26,1,2029.3999999761581,290250.2999999523,7733,raisin,NF,C,287093,287093,285447,286362,285448,287477,286879,286879,287477,46
41,test,1,con,1,m,Tue Dec 16 2025 14:00:23 GMT-0600 (Central Standard Time),294261.7999999523,silver,1000,I,m,m,None,443,244.0,199.0,83,1,1979.0,292282.7999999523,7733,silver,NF,C,289210,289210,287480,288494,287480,289459,289010,289010,289459,47
42,test,1,con,1,z,Tue Dec 16 2025 14:00:23 GMT-0600 (Central Standard Time),296479.2999999523,banana,1100,I,z,z,None,567,352.0,215.0,4,1,2214.7000000476837,294264.59999990463,7733,banana,NF,C,291309,291310,289462,290577,289462,291676,291094,291094,291676,48
43,test,1,inc,1,m,Tue Dec 16 2025 14:00:23 GMT-0600 (Central Standard Time),298494.89999997616,pear,900,I,m,m,None,577,377.0,200.0,110,1,2011.3999999761581,296483.5,7733,iron,NF,C,293310,293310,291681,292593,291681,293692,293110,293110,293692,49
44,test,1,con,1,m,Tue Dec 16 2025 14:00:23 GMT-0600 (Central Standard Time),300677.6999999285,copper,800,I,m,m,None,845,645.0,200.0,73,1,2179.600000023842,298498.09999990463,7733,copper,NF,C,295226,295226,293695,294509,293695,295875,295025,295025,295875,50
45,test,1,con,1,m,Tue Dec 16 2025 14:00:23 GMT-0600 (Central Standard Time),302909.7999999523,iron,1100,I,m,m,None,592,377.0,215.0,108,1,2228.7000000476837,300681.09999990463,7733,iron,NF,C,297725,297725,295878,296991,295878,298107,297509,297509,298107,51
46,test,1,inc,1,z,Tue Dec 16 2025 14:00:23 GMT-0600 (Central Standard Time),304825.59999990463,gold,800,I,z,z,None,590,374.0,216.0,37,1,1912.3999999761581,302913.1999999285,7733,lime,NF,C,299641,299641,298110,298924,298110,300023,299425,299425,300023,52
47,test,1,con,1,m,Tue Dec 16 2025 14:00:23 GMT-0600 (Central Standard Time),307258.7999999523,cobalt,1100,I,m,m,None,796,580.0,216.0,92,1,2427.899999976158,304830.89999997616,7733,cobalt,NF,C,301858,301858,300028,301140,300028,302456,301642,301642,302456,53
48,test,1,inc,1,z,Tue Dec 16 2025 14:00:23 GMT-0600 (Central Standard Time),309358.2999999523,zinc,1000,I,z,z,None,560,345.0,215.0,55,1,2094.7999999523163,307263.5,7733,kiwi,NF,C,304205,304205,302461,303473,302461,304555,303990,303990,304555,54
49,test,1,inc,1,z,Tue Dec 16 2025 14:00:23 GMT-0600 (Central Standard Time),311507.39999997616,copper,900,I,z,z,None,713,513.0,200.0,14,1,2145.3000000715256,309362.09999990463,7733,cherry,NF,C,306189,306189,304559,305473,304559,306704,305989,305989,306704,55
50,test,1,con,1,z,Tue Dec 16 2025 14:00:23 GMT-0600 (Central Standard Time),313740.1999999285,banana,1000,I,z,z,None,704,504.0,200.0,3,1,2228.5,311511.6999999285,7733,banana,NF,C,308422,308422,306709,307721,306709,308937,308222,308222,308937,56
51,test,1,con,1,m,Tue Dec 16 2025 14:00:23 GMT-0600 (Central Standard Time),315555.7999999523,bronze,800,I,m,m,None,472,273.0,199.0,65,1,1812.2000000476837,313743.59999990463,7733,bronze,NF,C,310470,310470,308941,309753,308941,310753,310271,310271,310753,57
52,test,1,inc,1,m,Tue Dec 16 2025 14:00:23 GMT-0600 (Central Standard Time),317772.6999999285,pear,900,I,m,m,None,773,572.0,201.0,102,1,2213.1999999284744,315559.5,7733,gold,NF,C,312387,312387,310757,311670,310757,312970,312186,312186,312970,58
53,test,1,con,1,z,Tue Dec 16 2025 14:00:23 GMT-0600 (Central Standard Time),319987.2999999523,banana,800,I,z,z,None,898,681.0,217.0,1,1,2211.7000000476837,317775.59999990463,7733,banana,NF,C,314503,314503,312973,313785,312973,315184,314286,314286,315184,59
54,test,1,inc,1,m,Tue Dec 16 2025 14:00:23 GMT-0600 (Central Standard Time),321939.09999990463,cherry,900,I,m,m,None,517,317.0,200.0,94,1,1949.0,319990.09999990463,7733,cobalt,NF,C,316819,316819,315187,316102,315187,317136,316619,316619,317136,60
55,test,1,con,1,z,Tue Dec 16 2025 14:00:23 GMT-0600 (Central Standard Time),324004.89999997616,cherry,900,I,z,z,None,622,423.0,199.0,10,1,2061.2000000476837,321943.6999999285,7733,cherry,NF,C,318768,318768,317141,318051,317141,319202,318569,318569,319202,61
56,test,1,inc,1,z,Tue Dec 16 2025 14:00:23 GMT-0600 (Central Standard Time),326085.7999999523,silver,1000,I,z,z,None,545,345.0,200.0,15,1,2077.2999999523163,324008.5,7733,cherry,NF,C,320934,320934,319205,320217,319206,321283,320734,320734,321283,62
57,test,1,inc,1,m,Tue Dec 16 2025 14:00:23 GMT-0600 (Central Standard Time),328268.5,orange,1000,I,m,m,None,661,462.0,199.0,95,1,2180.0,326088.5,7733,cobalt,NF,C,323001,323001,321286,322299,321286,323466,322802,322802,323465,63
57,test,1,con,0,z,Tue Dec 16 2025 14:00:23 GMT-0600 (Central Standard Time),330234.39999997616,pear,800,I,m,m,None,632,432.0,200.0,41,1,1962.1000000238419,328272.2999999523,7733,pear,NF,C,324999,324999,323469,324283,323470,325431,324799,324799,325431,64
58,test,1,inc,1,m,Tue Dec 16 2025 14:00:23 GMT-0600 (Central Standard Time),332618.39999997616,plum,1100,I,m,m,None,750,549.0,201.0,112,1,2380.7000000476837,330237.6999999285,7733,iron,NF,C,327266,327266,325435,326549,325435,327816,327064,327064,327815,65
59,test,1,con,1,m,Tue Dec 16 2025 14:00:23 GMT-0600 (Central Standard Time),334550.59999990463,bronze,900,I,m,m,None,494,295.0,199.0,66,1,1926.6999999284744,332623.89999997616,7733,bronze,NF,C,329449,329449,327821,328732,327821,329748,329249,329249,329748,66
60,test,1,con,1,z,Tue Dec 16 2025 14:00:23 GMT-0600 (Central Standard Time),336565.59999990463,kiwi,1000,I,z,z,None,479,279.0,200.0,51,1,2011.1999999284744,334554.39999997616,7733,kiwi,NF,C,331480,331480,329751,330764,329752,331763,331280,331280,331763,67
61,test,1,con,1,m,Tue Dec 16 2025 14:00:23 GMT-0600 (Central Standard Time),338649.59999990463,lead,900,I,m,m,None,650,451.0,199.0,122,1,2076.5999999046326,336573.0,7733,lead,NF,C,333380,333380,331770,332679,331770,333847,333181,333181,333847,68
62,test,1,inc,1,z,Tue Dec 16 2025 14:00:23 GMT-0600 (Central Standard Time),340882.0,zinc,1000,I,z,z,None,690,491.0,199.0,39,1,2227.9000000953674,338654.09999990463,7733,lime,NF,C,335579,335579,333851,334863,333852,336079,335380,335380,336079,69
63,test,1,inc,1,m,Tue Dec 16 2025 14:00:23 GMT-0600 (Central Standard Time),342847.0,banana,800,I,m,m,None,619,417.0,202.0,77,1,1960.4000000953674,340886.59999990463,7733,copper,NF,C,337613,337613,336084,336896,336084,338044,337411,337411,338044,70
64,test,1,con,1,m,Tue Dec 16 2025 14:00:23 GMT-0600 (Central Standard Time),344830.6999999285,silver,900,I,m,m,None,535,336.0,199.0,82,1,1978.3999999761581,342852.2999999523,7733,silver,NF,C,339678,339678,338049,338961,338050,340028,339478,339478,340028,71
65,test,1,con,1,m,Tue Dec 16 2025 14:00:23 GMT-0600 (Central Standard Time),346746.6999999285,lead,800,I,m,m,None,566,366.0,200.0,121,1,1910.7999999523163,344835.89999997616,7733,lead,NF,C,341561,341561,340033,340846,340033,341944,341360,341360,341944,72
66,test,1,con,1,z,Tue Dec 16 2025 14:00:23 GMT-0600 (Central Standard Time),348928.5,orange,900,I,z,z,None,734,534.0,200.0,18,1,2177.100000023842,346751.39999997616,7733,orange,NF,C,343577,343577,341948,342863,341949,344126,343377,343377,344126,73
67,test,1,inc,1,m,Tue Dec 16 2025 14:00:23 GMT-0600 (Central Standard Time),350943.09999990463,banana,800,I,m,m,None,675,476.0,199.0,69,1,2008.6999999284744,348934.39999997616,7733,bronze,NF,C,345658,345658,344131,344944,344132,346140,345459,345459,346140,74
68,test,1,inc,1,z,Tue Dec 16 2025 14:00:23 GMT-0600 (Central Standard Time),353143.1999999285,zinc,1000,I,z,z,None,660,460.0,200.0,63,1,2194.7999999523163,350948.39999997616,7733,plum,NF,C,347874,347874,346145,347158,346146,348340,347674,347674,348340,75
69,test,1,con,1,z,Tue Dec 16 2025 14:00:23 GMT-0600 (Central Standard Time),355626.89999997616,cherry,1100,I,z,z,None,841,641.0,200.0,12,1,2481.3000000715256,353145.59999990463,7733,cherry,NF,C,350174,350174,348343,349458,348343,350824,349973,349973,350824,76
70,test,1,con,1,m,Tue Dec 16 2025 14:00:23 GMT-0600 (Central Standard Time),357643.0,gold,800,I,m,m,None,675,475.0,200.0,97,1,2011.7000000476837,355631.2999999523,7733,gold,NF,C,352357,352357,350828,351640,350829,352840,352157,352157,352840,77
71,test,1,inc,1,z,Tue Dec 16 2025 14:00:23 GMT-0600 (Central Standard Time),359691.89999997616,gold,800,I,z,z,None,712,497.0,215.0,61,1,2043.3999999761581,357648.5,7733,plum,NF,C,354390,354390,352846,353657,352846,354889,354174,354174,354889,78
72,test,1,con,1,z,Tue Dec 16 2025 14:00:23 GMT-0600 (Central Standard Time),361607.6999999285,banana,900,I,z,z,None,475,276.0,199.0,2,1,1912.0,359695.6999999285,7733,banana,NF,C,356523,356523,354893,355812,354893,356805,356324,356324,356805,79
73,test,1,inc,1,z,Tue Dec 16 2025 14:00:23 GMT-0600 (Central Standard Time),363956.0,cobalt,1100,I,z,z,None,713,512.0,201.0,8,1,2342.9000000953674,361613.09999990463,7733,banana,NF,C,358638,358638,356810,357922,356810,359153,358437,358437,359153,80
74,test,1,inc,1,z,Tue Dec 16 2025 14:00:23 GMT-0600 (Central Standard Time),365956.39999997616,silver,1000,I,z,z,None,463,263.0,200.0,7,1,1997.3999999761581,363959.0,7733,banana,NF,C,360888,360888,359156,360172,359156,361153,360687,360687,361153,81
75,test,1,con,1,m,Tue Dec 16 2025 14:00:23 GMT-0600 (Central Standard Time),367988.89999997616,bronze,1000,I,m,m,None,497,296.0,201.0,67,1,2024.8999999761581,365964.0,7733,bronze,NF,C,362887,362887,361161,362170,361161,363186,362686,362686,363186,82
76,test,1,inc,1,m,Tue Dec 16 2025 14:00:23 GMT-0600 (Central Standard Time),370272.2999999523,kiwi,1000,I,m,m,None,735,535.0,200.0,111,1,2277.899999976158,367994.39999997616,7733,iron,NF,C,364919,364919,363191,364203,363192,365469,364719,364719,365469,83
77,test,1,inc,1,m,Tue Dec 16 2025 14:00:23 GMT-0600 (Central Standard Time),372237.59999990463,banana,800,I,m,m,None,620,421.0,199.0,85,1,1960.1999999284744,370277.39999997616,7733,silver,NF,C,367002,367002,365474,366287,365475,367435,366802,366802,367435,84
78,test,1,inc,1,m,Tue Dec 16 2025 14:00:23 GMT-0600 (Central Standard Time),374020.89999997616,lime,800,I,m,m,None,462,245.0,217.0,101,1,1776.8999999761581,372244.0,7733,gold,NF,C,368970,368970,367441,368251,367441,369218,368752,368752,369218,85
79,test,1,con,1,m,Tue Dec 16 2025 14:00:23 GMT-0600 (Central Standard Time),376070.89999997616,gold,1000,I,m,m,None,515,303.0,212.0,99,1,2044.6000000238419,374026.2999999523,7733,gold,NF,C,370951,370951,369223,370235,369224,371268,370738,370738,371268,86
80,test,1,con,1,z,Tue Dec 16 2025 14:00:23 GMT-0600 (Central Standard Time),378285.6999999285,raisin,1000,I,z,z,None,678,464.0,214.0,27,1,2211.0,376074.6999999285,7733,raisin,NF,C,373017,373017,371272,372284,371272,373483,372803,372803,373483,87
81,test,1,con,1,z,Tue Dec 16 2025 14:00:23 GMT-0600 (Central Standard Time),380153.0,lime,800,I,z,z,None,543,343.0,200.0,33,1,1860.6000000238419,378292.39999997616,7733,lime,NF,C,375000,375000,373489,374299,373490,375350,374800,374800,375350,88
82,test,1,con,1,z,Tue Dec 16 2025 14:00:23 GMT-0600 (Central Standard Time),382356.1999999285,lime,1100,I,z,z,None,551,352.0,199.0,36,1,2199.600000023842,380156.59999990463,7733,lime,NF,C,377183,377183,375354,376468,375354,377553,376983,376983,377553,89
83,test,1,con,1,m,Tue Dec 16 2025 14:00:23 GMT-0600 (Central Standard Time),384306.7999999523,cobalt,900,I,m,m,None,526,312.0,214.0,90,1,1947.6000000238419,382359.1999999285,7733,cobalt,NF,C,379182,379182,377556,378465,377556,379504,378967,378967,379504,90
84,test,1,inc,1,m,Tue Dec 16 2025 14:00:23 GMT-0600 (Central Standard Time),386567.59999990463,orange,1000,I,m,m,None,726,527.0,199.0,87,1,2258.2999999523163,384309.2999999523,7733,silver,NF,C,381231,381231,379506,380514,379507,381765,381031,381031,381765,91
85,test,1,inc,1,m,Tue Dec 16 2025 14:00:23 GMT-0600 (Central Standard Time),388516.1999999285,cherry,900,I,m,m,None,519,306.0,213.0,86,1,1945.0,386571.1999999285,7733,silver,NF,C,383396,383396,381768,382680,381769,383713,383183,383183,383713,92
86,test,1,con,1,m,Tue Dec 16 2025 14:00:23 GMT-0600 (Central Standard Time),390448.0,gold,900,I,m,m,None,492,289.0,203.0,98,1,1928.2000000476837,388519.7999999523,7733,gold,NF,C,385349,385349,383717,384632,383717,385645,385146,385146,385645,93
87,test,1,con,1,z,Tue Dec 16 2025 14:00:23 GMT-0600 (Central Standard Time),392497.7999999523,pear,900,I,z,z,None,616,416.0,200.0,42,1,2045.7999999523163,390452.0,7733,pear,NF,C,387279,387279,385649,386562,385649,387695,387078,387078,387695,94
88,test,1,con,1,z,Tue Dec 16 2025 14:00:23 GMT-0600 (Central Standard Time),394596.5,lime,1000,I,z,z,None,550,337.0,213.0,35,1,2096.0,392500.5,7733,lime,NF,C,389445,389445,387698,388713,387698,389794,389232,389232,389793,95
89,test,1,inc,1,z,Tue Dec 16 2025 14:00:23 GMT-0600 (Central Standard Time),396663.1999999285,bronze,800,I,z,z,None,724,524.0,200.0,5,1,2063.399999976158,394599.7999999523,7733,banana,NF,C,391330,391330,389797,390612,389797,391860,391129,391129,391860,96
90,test,1,con,1,z,Tue Dec 16 2025 14:00:23 GMT-0600 (Central Standard Time),398779.7999999523,pear,1000,I,z,z,None,572,373.0,199.0,43,1,2112.100000023842,396667.6999999285,7733,pear,NF,C,393593,393593,391865,392878,391865,393977,393394,393394,393977,97
91,test,1,con,1,m,Tue Dec 16 2025 14:00:23 GMT-0600 (Central Standard Time),400645.7999999523,iron,800,I,m,m,None,535,320.0,215.0,105,1,1860.0,398785.7999999523,7733,iron,NF,C,395510,395510,393983,394793,393983,395843,395295,395295,395843,98
92,test,1,inc,1,m,Tue Dec 16 2025 14:00:23 GMT-0600 (Central Standard Time),402612.0,banana,800,I,m,m,None,622,423.0,199.0,93,1,1961.5,400650.5,7733,cobalt,NF,C,397376,397376,395848,396660,395848,397809,397177,397177,397809,99
93,test,1,con,1,z,Tue Dec 16 2025 14:00:23 GMT-0600 (Central Standard Time),404527.39999997616,kiwi,800,I,z,z,None,573,373.0,200.0,49,1,1911.6000000238419,402615.7999999523,7733,kiwi,NF,C,399345,399345,397813,398625,397813,399724,399143,399143,399724,100
94,test,1,inc,1,z,Tue Dec 16 2025 14:00:23 GMT-0600 (Central Standard Time),406826.6999999285,cobalt,1100,I,z,z,None,679,466.0,213.0,24,1,2295.5,404531.1999999285,7733,orange,NF,C,401557,401557,399728,400842,399728,402024,401344,401344,402024,101
94,test,1,inc,0,m,Tue Dec 16 2025 14:00:23 GMT-0600 (Central Standard Time),409259.7999999523,plum,1100,I,z,z,None,795,576.0,219.0,128,1,2428.2000000476837,406831.59999990463,7733,lead,NF,C,403878,403878,402029,403140,402029,404457,403658,403658,404457,102
95,test,1,con,1,z,Tue Dec 16 2025 14:00:23 GMT-0600 (Central Standard Time),411108.0,orange,800,I,z,z,None,530,330.0,200.0,17,1,1842.2000000476837,409265.7999999523,7733,orange,NF,C,405974,405974,404463,405273,404463,406305,405774,405774,406305,103
96,test,1,inc,1,m,Tue Dec 16 2025 14:00:23 GMT-0600 (Central Standard Time),413274.39999997616,plum,1100,I,m,m,None,516,316.0,200.0,120,1,2161.3000000715256,411113.09999990463,7733,zinc,NF,C,408140,408140,406310,407423,406310,408472,407939,407939,408471,104
97,test,1,inc,1,m,Tue Dec 16 2025 14:00:23 GMT-0600 (Central Standard Time),415357.89999997616,kiwi,1000,I,m,m,None,537,338.0,199.0,103,1,2077.100000023842,413280.7999999523,7733,gold,NF,C,410204,410204,408478,409488,408478,410555,410005,410005,410555,105
98,test,1,inc,1,m,Tue Dec 16 2025 14:00:23 GMT-0600 (Central Standard Time),417491.09999990463,raisin,1100,I,m,m,None,498,283.0,215.0,96,1,2128.0999999046326,415363.0,7733,cobalt,NF,C,412404,412404,410560,411671,410560,412688,412189,412189,412688,106
99,test,1,inc,1,z,Tue Dec 16 2025 14:00:23 GMT-0600 (Central Standard Time),419505.5,bronze,800,I,z,z,None,675,475.0,200.0,21,1,2009.4000000953674,417496.09999990463,7733,orange,NF,C,414221,414221,412693,413504,412693,414703,414021,414021,414703,107
100,test,1,inc,1,z,Tue Dec 16 2025 14:00:23 GMT-0600 (Central Standard Time),421405.09999990463,bronze,800,I,z,z,None,561,362.0,199.0,13,1,1895.2999999523163,419509.7999999523,7733,cherry,NF,C,416236,416237,414707,415520,414707,416602,416037,416037,416602,108
101,test,1,con,1,z,Tue Dec 16 2025 14:00:23 GMT-0600 (Central Standard Time),423338.5,plum,900,I,z,z,None,491,292.0,199.0,58,1,1928.1000000238419,421410.39999997616,7733,plum,NF,C,418235,418235,416607,417522,416608,418536,418036,418036,418536,109
102,test,1,con,1,m,Tue Dec 16 2025 14:00:23 GMT-0600 (Central Standard Time),425621.1999999285,copper,1100,I,m,m,None,651,436.0,215.0,76,1,2277.6999999284744,423343.5,7733,copper,NF,C,420370,420370,418541,419652,418541,420818,420154,420154,420818,110
103,test,1,inc,1,z,Tue Dec 16 2025 14:00:23 GMT-0600 (Central Standard Time),427922.39999997616,cobalt,1100,I,z,z,None,668,468.0,200.0,32,1,2296.899999976158,425625.5,7733,raisin,NF,C,422651,422651,420823,421934,420823,423119,422451,422451,423119,111
104,test,1,con,1,z,Tue Dec 16 2025 14:00:23 GMT-0600 (Central Standard Time),429853.2999999523,raisin,800,I,z,z,None,587,370.0,217.0,25,1,1926.6000000238419,427926.6999999285,7733,raisin,NF,C,424668,424668,423124,423934,423124,425050,424451,424451,425050,112
105,test,1,con,1,m,Tue Dec 16 2025 14:00:23 GMT-0600 (Central Standard Time),432068.6999999285,zinc,1000,I,m,m,None,662,454.0,208.0,115,1,2212.1999999284744,429856.5,7733,zinc,NF,C,426800,426800,425054,426066,425054,427266,426592,426592,427266,113
105,test,1,inc,0,m,Tue Dec 16 2025 14:00:23 GMT-0600 (Central Standard Time),435717.6999999285,raisin,1100,I,None,None,None,1814,1814.0,200.0,80,1,3644.5,432073.1999999285,7733,copper,NF,C,429101,429101,427270,428382,427270,430915,428900,428900,430915,114
106,test,1,inc,1,m,Tue Dec 16 2025 14:00:23 GMT-0600 (Central Standard Time),437700.6999999285,lime,800,I,m,m,None,660,445.0,215.0,125,1,1980.1000000238419,435720.59999990463,7733,lead,NF,C,432449,432449,430918,431730,430918,432898,432233,432233,432898,115
107,test,1,inc,1,z,Tue Dec 16 2025 14:00:23 GMT-0600 (Central Standard Time),439817.39999997616,silver,1000,I,z,z,None,592,377.0,215.0,31,1,2114.2000000476837,437703.1999999285,7733,raisin,NF,C,434630,434630,432900,433914,432900,435014,434415,434415,435014,116
108,test,1,con,1,m,Tue Dec 16 2025 14:00:23 GMT-0600 (Central Standard Time),441998.39999997616,lead,1000,I,m,m,None,650,434.0,216.0,123,1,2177.100000023842,439821.2999999523,7733,lead,NF,C,436748,436748,435018,436030,435019,437195,436531,436531,437195,117
109,test,1,inc,1,m,Tue Dec 16 2025 14:00:23 GMT-0600 (Central Standard Time),444114.5,cherry,900,I,m,m,None,673,473.0,200.0,70,1,2112.4000000953674,442002.09999990463,7733,bronze,NF,C,438829,438829,437199,438113,437199,439312,438629,438629,439312,118
110,test,1,con,1,z,Tue Dec 16 2025 14:00:23 GMT-0600 (Central Standard Time),446347.1999999285,orange,1000,I,z,z,None,688,487.0,201.0,19,1,2229.100000023842,444118.09999990463,7733,orange,NF,C,441047,441047,439315,440330,439315,441544,440846,440846,441544,119
110,test,1,inc,0,z,Tue Dec 16 2025 14:00:23 GMT-0600 (Central Standard Time),448263.39999997616,copper,900,I,m,m,None,468,268.0,200.0,30,1,1913.1000000238419,446350.2999999523,7733,raisin,NF,C,443178,443178,441547,442462,441548,443460,442978,442978,443460,120
110,test,1,con,0,z,Tue Dec 16 2025 14:00:23 GMT-0600 (Central Standard Time),451898.1999999285,orange,1100,I,None,None,None,1800,1800.0,215.0,20,1,3631.1999999284744,448267.0,7733,orange,NF,C,445295,445295,443464,444577,443464,447095,445079,445079,447095,121
111,test,1,inc,1,z,Tue Dec 16 2025 14:00:23 GMT-0600 (Central Standard Time),454279.0,lead,1100,I,z,z,None,738,538.0,200.0,48,1,2376.7000000476837,451902.2999999523,7733,pear,NF,C,448925,448925,447099,448210,447100,449476,448725,448725,449476,122
112,test,1,con,1,m,Tue Dec 16 2025 14:00:23 GMT-0600 (Central Standard Time),456577.5,zinc,1100,I,m,m,None,657,457.0,200.0,116,1,2293.9000000953674,454283.59999990463,7733,zinc,NF,C,451309,451310,449481,450593,449481,451775,451109,451109,451775,123
113,test,1,inc,1,m,Tue Dec 16 2025 14:00:23 GMT-0600 (Central Standard Time),458726.89999997616,pear,900,I,m,m,None,711,510.0,201.0,118,1,2146.8000000715256,456580.09999990463,7733,zinc,NF,C,453409,453409,451777,452691,451777,453924,453208,453208,453924,124
114,test,1,con,1,m,Tue Dec 16 2025 14:00:23 GMT-0600 (Central Standard Time),460843.2999999523,bronze,1100,I,m,m,None,482,282.0,200.0,68,1,2112.2000000476837,458731.09999990463,7733,bronze,NF,C,455757,455758,453928,455043,453928,456040,455557,455557,456040,125
115,test,1,inc,1,z,Tue Dec 16 2025 14:00:23 GMT-0600 (Central Standard Time),462725.5,gold,800,I,z,z,None,544,344.0,200.0,53,1,1879.2000000476837,460846.2999999523,7733,kiwi,NF,C,457574,457574,456043,456857,456043,457923,457374,457374,457923,126
116,test,1,inc,1,m,Tue Dec 16 2025 14:00:23 GMT-0600 (Central Standard Time),464892.09999990463,orange,1000,I,m,m,None,647,448.0,199.0,79,1,2163.0999999046326,462729.0,7733,copper,NF,C,459641,459641,457926,458939,457926,460089,459441,459441,460089,127
116,test,1,con,0,m,Tue Dec 16 2025 14:00:23 GMT-0600 (Central Standard Time),467058.0,copper,1000,I,z,z,None,622,407.0,215.0,75,1,2162.0,464896.0,7733,copper,NF,C,461839,461839,460093,461107,460093,462255,461623,461623,462255,128
