block_c,block_dur,condition,countdown,datetime,endtime,list,multichar_response,project,response,response_time,session_number,start_end,starttime,subject_id,task,task_vers,trial
,,,,Wed Jul 23 2025 16:04:06 GMT-0500 (Central Daylight Time),,,,O,space,307,1,,,7186,WL,A,
prac,,0,,Wed Jul 23 2025 16:04:06 GMT-0500 (Central Daylight Time),,NA,b,O,b,6020,1,,,7186,WL,A,1.0
prac,,0,,Wed Jul 23 2025 16:04:06 GMT-0500 (Central Daylight Time),,NA,bo,O,o,427,1,,,7186,WL,A,1.0
prac,,0,,Wed Jul 23 2025 16:04:06 GMT-0500 (Central Daylight Time),,NA,boo,O,o,115,1,,,7186,WL,A,1.0
prac,,0,,Wed Jul 23 2025 16:04:06 GMT-0500 (Central Daylight Time),,NA,boos,O,s,194,1,,,7186,WL,A,1.0
prac,,0,,Wed Jul 23 2025 16:04:06 GMT-0500 (Central Daylight Time),,NA,boost,O,t,224,1,,,7186,WL,A,1.0
prac,,0,,Wed Jul 23 2025 16:04:06 GMT-0500 (Central Daylight Time),,NA,boostenter,O,enter,1974,1,,,7186,WL,A,1.0
1,6.466000080108643,learn,53533.99991989136,Wed Jul 23 2025 16:04:06 GMT-0500 (Central Daylight Time),140976.89999997616,A,b,O,b,6419,1,6464.0,134512.89999997616,7186,WL,A,1.0
1,7.014999866485596,learn,52985.000133514404,Wed Jul 23 2025 16:04:06 GMT-0500 (Central Daylight Time),141526.0,A,bo,O,o,521,1,7013.100000023842,134512.89999997616,7186,WL,A,1.0
1,7.164999961853027,learn,52835.00003814697,Wed Jul 23 2025 16:04:06 GMT-0500 (Central Daylight Time),141676.30000001192,A,boo,O,o,114,1,7163.400000035763,134512.89999997616,7186,WL,A,1.0
1,7.381999969482422,learn,52618.00003051758,Wed Jul 23 2025 16:04:06 GMT-0500 (Central Daylight Time),141892.89999997616,A,book,O,k,181,1,7380.0,134512.89999997616,7186,WL,A,1.0
1,25.19099998474121,learn,34809.00001525879,Wed Jul 23 2025 16:04:06 GMT-0500 (Central Daylight Time),159702.59999996424,A,bookenter,O,enter,17778,1,25189.69999998808,134512.89999997616,7186,WL,A,1.0
1,27.95799994468689,learn,32042.00005531311,Wed Jul 23 2025 16:04:06 GMT-0500 (Central Daylight Time),162469.39999997616,A,m,O,m,2750,1,2766.300000011921,159703.09999996424,7186,WL,A,2.0
1,28.174000024795532,learn,31825.999975204468,Wed Jul 23 2025 16:04:06 GMT-0500 (Central Daylight Time),162685.80000001192,A,me,O,e,188,1,2982.7000000476837,159703.09999996424,7186,WL,A,2.0
1,28.47499990463257,learn,31525.00009536743,Wed Jul 23 2025 16:04:06 GMT-0500 (Central Daylight Time),162985.89999997616,A,met,O,t,268,1,3282.800000011921,159703.09999996424,7186,WL,A,2.0
1,28.70799994468689,learn,31292.00005531311,Wed Jul 23 2025 16:04:06 GMT-0500 (Central Daylight Time),163219.30000001192,A,meta,O,a,190,1,3516.2000000476837,159703.09999996424,7186,WL,A,2.0
1,29.19099998474121,learn,30809.00001525879,Wed Jul 23 2025 16:04:06 GMT-0500 (Central Daylight Time),163702.39999997616,A,metal,O,l,445,1,3999.300000011921,159703.09999996424,7186,WL,A,2.0
1,30.455999851226807,learn,29544.000148773193,Wed Jul 23 2025 16:04:06 GMT-0500 (Central Daylight Time),164967.59999996424,A,metalenter,O,enter,1225,1,5264.5,159703.09999996424,7186,WL,A,2.0
1,32.12299990653992,learn,27877.000093460083,Wed Jul 23 2025 16:04:06 GMT-0500 (Central Daylight Time),166634.59999996424,A,k,O,k,1654,1,1666.5999999642372,164968.0,7186,WL,A,3.0
1,32.37299990653992,learn,27627.000093460083,Wed Jul 23 2025 16:04:06 GMT-0500 (Central Daylight Time),166884.59999996424,A,ke,O,e,207,1,1916.5999999642372,164968.0,7186,WL,A,3.0
1,32.723000049591064,learn,27276.999950408936,Wed Jul 23 2025 16:04:06 GMT-0500 (Central Daylight Time),167234.80000001192,A,key,O,y,309,1,2266.800000011921,164968.0,7186,WL,A,3.0
1,33.83899998664856,learn,26161.00001335144,Wed Jul 23 2025 16:04:06 GMT-0500 (Central Daylight Time),168349.80000001192,A,keyenter,O,enter,1078,1,3381.800000011921,164968.0,7186,WL,A,3.0
1,34.555999994277954,learn,25444.000005722046,Wed Jul 23 2025 16:04:06 GMT-0500 (Central Daylight Time),169066.89999997616,A,s,O,s,704,1,716.6999999880791,168350.19999998808,7186,WL,A,4.0
1,34.789000034332275,learn,25210.999965667725,Wed Jul 23 2025 16:04:06 GMT-0500 (Central Daylight Time),169300.59999996424,A,sa,O,a,191,1,950.3999999761581,168350.19999998808,7186,WL,A,4.0
1,35.18899989128113,learn,24811.000108718872,Wed Jul 23 2025 16:04:06 GMT-0500 (Central Daylight Time),169700.5,A,sal,O,l,357,1,1350.300000011921,168350.19999998808,7186,WL,A,4.0
1,35.57299995422363,learn,24427.000045776367,Wed Jul 23 2025 16:04:06 GMT-0500 (Central Daylight Time),170083.80000001192,A,salt,O,t,349,1,1733.6000000238419,168350.19999998808,7186,WL,A,4.0
1,36.55399990081787,learn,23446.00009918213,Wed Jul 23 2025 16:04:06 GMT-0500 (Central Daylight Time),171065.59999996424,A,saltenter,O,enter,940,1,2715.399999976158,168350.19999998808,7186,WL,A,4.0
1,39.82099986076355,learn,20179.00013923645,Wed Jul 23 2025 16:04:06 GMT-0500 (Central Daylight Time),174332.0,A,r,O,r,3243,1,3266.100000023842,171065.89999997616,7186,WL,A,5.0
1,40.15400004386902,learn,19845.99995613098,Wed Jul 23 2025 16:04:06 GMT-0500 (Central Daylight Time),174665.19999998808,A,ra,O,a,304,1,3599.300000011921,171065.89999997616,7186,WL,A,5.0
1,41.47099995613098,learn,18529.00004386902,Wed Jul 23 2025 16:04:06 GMT-0500 (Central Daylight Time),175982.30000001192,A,rat,O,t,1293,1,4916.400000035763,171065.89999997616,7186,WL,A,5.0
1,41.63699984550476,learn,18363.00015449524,Wed Jul 23 2025 16:04:06 GMT-0500 (Central Daylight Time),176148.0,A,ratt,O,t,134,1,5082.100000023842,171065.89999997616,7186,WL,A,5.0
1,42.33699989318848,learn,17663.000106811523,Wed Jul 23 2025 16:04:06 GMT-0500 (Central Daylight Time),176848.30000001192,A,rattl,O,l,668,1,5782.400000035763,171065.89999997616,7186,WL,A,5.0
1,42.47000002861023,learn,17529.99997138977,Wed Jul 23 2025 16:04:06 GMT-0500 (Central Daylight Time),176981.5,A,rattle,O,e,99,1,5915.600000023842,171065.89999997616,7186,WL,A,5.0
1,44.60199999809265,learn,15398.000001907349,Wed Jul 23 2025 16:04:06 GMT-0500 (Central Daylight Time),179112.69999998808,A,rattleenter,O,enter,2099,1,8046.800000011921,171065.89999997616,7186,WL,A,5.0
1,59.03200006484985,learn,967.9999351501465,Wed Jul 23 2025 16:04:06 GMT-0500 (Central Daylight Time),193542.5,A,b,O,b,14413,1,14429.400000035763,179113.09999996424,7186,WL,A,6.0
1,59.44700002670288,learn,552.9999732971191,Wed Jul 23 2025 16:04:06 GMT-0500 (Central Daylight Time),193958.0,A,bo,O,o,383,1,14844.900000035763,179113.09999996424,7186,WL,A,6.0
1,59.61399984359741,learn,386.0001564025879,Wed Jul 23 2025 16:04:06 GMT-0500 (Central Daylight Time),194124.59999996424,A,boo,O,o,158,1,15011.5,179113.09999996424,7186,WL,A,6.0
1,59.94799995422363,learn,52.00004577636719,Wed Jul 23 2025 16:04:06 GMT-0500 (Central Daylight Time),194458.89999997616,A,book,O,k,312,1,15345.800000011921,179113.09999996424,7186,WL,A,6.0
1,60.03099989891052,learn,-30.99989891052246,Wed Jul 23 2025 16:04:06 GMT-0500 (Central Daylight Time),194541.5,A,bookNone,O,None,57,1,15428.400000035763,179113.09999996424,7186,WL,A,6.0
2,1.5829999446868896,learn,58417.00005531311,Wed Jul 23 2025 16:04:06 GMT-0500 (Central Daylight Time),264402.59999996424,A,f,O,f,1541,1,1582.3999999761581,262820.1999999881,7186,WL,A,1.0
2,1.7829999923706055,learn,58217.000007629395,Wed Jul 23 2025 16:04:06 GMT-0500 (Central Daylight Time),264602.59999996424,A,fi,O,i,167,1,1782.3999999761581,262820.1999999881,7186,WL,A,1.0
2,2.1499998569488525,learn,57850.00014305115,Wed Jul 23 2025 16:04:06 GMT-0500 (Central Daylight Time),264969.09999996424,A,fin,O,n,330,1,2148.899999976158,262820.1999999881,7186,WL,A,1.0
2,2.498999834060669,learn,57501.00016593933,Wed Jul 23 2025 16:04:06 GMT-0500 (Central Daylight Time),265319.0,A,fing,O,g,316,1,2498.800000011921,262820.1999999881,7186,WL,A,1.0
2,2.6659998893737793,learn,57334.00011062622,Wed Jul 23 2025 16:04:06 GMT-0500 (Central Daylight Time),265485.5,A,fingr,O,r,126,1,2665.300000011921,262820.1999999881,7186,WL,A,1.0
2,3.4830000400543213,learn,56516.99995994568,Wed Jul 23 2025 16:04:06 GMT-0500 (Central Daylight Time),266302.1999999881,A,fing,O,backspace,783,1,3482.0,262820.1999999881,7186,WL,A,1.0
2,3.7660000324249268,learn,56233.99996757507,Wed Jul 23 2025 16:04:06 GMT-0500 (Central Daylight Time),266585.3000000119,A,finge,O,e,254,1,3765.100000023842,262820.1999999881,7186,WL,A,1.0
2,3.9489998817443848,learn,56051.000118255615,Wed Jul 23 2025 16:04:06 GMT-0500 (Central Daylight Time),266768.59999996424,A,finger,O,r,157,1,3948.399999976158,262820.1999999881,7186,WL,A,1.0
2,4.813999891281128,learn,55186.00010871887,Wed Jul 23 2025 16:04:06 GMT-0500 (Central Daylight Time),267633.89999997616,A,fingerenter,O,enter,839,1,4813.699999988079,262820.1999999881,7186,WL,A,1.0
2,5.73199987411499,learn,54268.00012588501,Wed Jul 23 2025 16:04:06 GMT-0500 (Central Daylight Time),268551.3000000119,A,a,O,a,909,1,917.0,267634.3000000119,7186,WL,A,2.0
2,6.065000057220459,learn,53934.99994277954,Wed Jul 23 2025 16:04:06 GMT-0500 (Central Daylight Time),268884.59999996424,A,ap,O,p,302,1,1250.2999999523163,267634.3000000119,7186,WL,A,2.0
2,6.197999954223633,learn,53802.00004577637,Wed Jul 23 2025 16:04:06 GMT-0500 (Central Daylight Time),269017.89999997616,A,app,O,p,105,1,1383.5999999642372,267634.3000000119,7186,WL,A,2.0
2,6.447999954223633,learn,53552.00004577637,Wed Jul 23 2025 16:04:06 GMT-0500 (Central Daylight Time),269267.8000000119,A,appl,O,l,218,1,1633.5,267634.3000000119,7186,WL,A,2.0
2,6.697999954223633,learn,53302.00004577637,Wed Jul 23 2025 16:04:06 GMT-0500 (Central Daylight Time),269517.6999999881,A,apple,O,e,224,1,1883.3999999761581,267634.3000000119,7186,WL,A,2.0
2,7.613999843597412,learn,52386.00015640259,Wed Jul 23 2025 16:04:06 GMT-0500 (Central Daylight Time),270433.09999996424,A,appleenter,O,enter,877,1,2798.7999999523163,267634.3000000119,7186,WL,A,2.0
2,8.863999843597412,learn,51136.00015640259,Wed Jul 23 2025 16:04:06 GMT-0500 (Central Daylight Time),271683.6999999881,A,g,O,g,1238,1,1250.199999988079,270433.5,7186,WL,A,3.0
2,9.21399998664856,learn,50786.00001335144,Wed Jul 23 2025 16:04:06 GMT-0500 (Central Daylight Time),272033.39999997616,A,go,O,o,321,1,1599.8999999761581,270433.5,7186,WL,A,3.0
2,9.513999938964844,learn,50486.000061035156,Wed Jul 23 2025 16:04:06 GMT-0500 (Central Daylight Time),272333.1999999881,A,gol,O,l,259,1,1899.699999988079,270433.5,7186,WL,A,3.0
2,10.096999883651733,learn,49903.00011634827,Wed Jul 23 2025 16:04:06 GMT-0500 (Central Daylight Time),272916.5,A,gold,O,d,551,1,2483.0,270433.5,7186,WL,A,3.0
2,11.01199984550476,learn,48988.00015449524,Wed Jul 23 2025 16:04:06 GMT-0500 (Central Daylight Time),273831.6999999881,A,goldenter,O,enter,880,1,3398.199999988079,270433.5,7186,WL,A,3.0
2,12.395999908447266,learn,47604.000091552734,Wed Jul 23 2025 16:04:06 GMT-0500 (Central Daylight Time),275215.8000000119,A,m,O,m,1366,1,1383.800000011921,273832.0,7186,WL,A,4.0
2,12.52999997138977,learn,47470.00002861023,Wed Jul 23 2025 16:04:06 GMT-0500 (Central Daylight Time),275349.5,A,me,O,e,110,1,1517.5,273832.0,7186,WL,A,4.0
2,12.828999996185303,learn,47171.0000038147,Wed Jul 23 2025 16:04:06 GMT-0500 (Central Daylight Time),275649.09999996424,A,mea,O,a,268,1,1817.0999999642372,273832.0,7186,WL,A,4.0
2,13.128999948501587,learn,46871.00005149841,Wed Jul 23 2025 16:04:06 GMT-0500 (Central Daylight Time),275948.89999997616,A,mead,O,d,268,1,2116.899999976158,273832.0,7186,WL,A,4.0
2,13.578999996185303,learn,46421.0000038147,Wed Jul 23 2025 16:04:06 GMT-0500 (Central Daylight Time),276398.3000000119,A,meado,O,o,428,1,2566.300000011921,273832.0,7186,WL,A,4.0
2,13.828999996185303,learn,46171.0000038147,Wed Jul 23 2025 16:04:06 GMT-0500 (Central Daylight Time),276648.3000000119,A,meadow,O,w,227,1,2816.300000011921,273832.0,7186,WL,A,4.0
2,14.527999877929688,learn,45472.00012207031,Wed Jul 23 2025 16:04:06 GMT-0500 (Central Daylight Time),277347.39999997616,A,meadowenter,O,enter,659,1,3515.399999976158,273832.0,7186,WL,A,4.0
2,15.010999917984009,learn,44989.00008201599,Wed Jul 23 2025 16:04:06 GMT-0500 (Central Daylight Time),277830.39999997616,A,k,O,k,474,1,482.80000001192093,277347.59999996424,7186,WL,A,5.0
2,15.24399995803833,learn,44756.00004196167,Wed Jul 23 2025 16:04:06 GMT-0500 (Central Daylight Time),278063.59999996424,A,ke,O,e,213,1,716.0,277347.59999996424,7186,WL,A,5.0
2,15.543999910354614,learn,44456.000089645386,Wed Jul 23 2025 16:04:06 GMT-0500 (Central Daylight Time),278363.6999999881,A,key,O,y,285,1,1016.1000000238419,277347.59999996424,7186,WL,A,5.0
2,16.0939998626709,learn,43906.0001373291,Wed Jul 23 2025 16:04:06 GMT-0500 (Central Daylight Time),278913.3000000119,A,keyenter,O,enter,537,1,1565.7000000476837,277347.59999996424,7186,WL,A,5.0
2,16.64400005340576,learn,43355.99994659424,Wed Jul 23 2025 16:04:06 GMT-0500 (Central Daylight Time),279463.1999999881,A,s,O,s,540,1,549.6000000238419,278913.59999996424,7186,WL,A,6.0
2,16.90999984741211,learn,43090.00015258789,Wed Jul 23 2025 16:04:06 GMT-0500 (Central Daylight Time),279729.8000000119,A,sa,O,a,245,1,816.2000000476837,278913.59999996424,7186,WL,A,6.0
2,17.30999994277954,learn,42690.00005722046,Wed Jul 23 2025 16:04:06 GMT-0500 (Central Daylight Time),280129.6999999881,A,sal,O,l,379,1,1216.1000000238419,278913.59999996424,7186,WL,A,6.0
2,17.92799997329712,learn,42072.00002670288,Wed Jul 23 2025 16:04:06 GMT-0500 (Central Daylight Time),280747.3000000119,A,salt,O,t,596,1,1833.7000000476837,278913.59999996424,7186,WL,A,6.0
2,19.05999994277954,learn,40940.00005722046,Wed Jul 23 2025 16:04:06 GMT-0500 (Central Daylight Time),281879.3000000119,A,saltenter,O,enter,1100,1,2965.7000000476837,278913.59999996424,7186,WL,A,6.0
2,20.259999990463257,learn,39740.00000953674,Wed Jul 23 2025 16:04:06 GMT-0500 (Central Daylight Time),283080.0,A,g,O,g,1184,1,1200.4000000357628,281879.59999996424,7186,WL,A,7.0
2,20.65999984741211,learn,39340.00015258789,Wed Jul 23 2025 16:04:06 GMT-0500 (Central Daylight Time),283479.8000000119,A,go,O,o,372,1,1600.2000000476837,281879.59999996424,7186,WL,A,7.0
2,20.90999984741211,learn,39090.00015258789,Wed Jul 23 2025 16:04:06 GMT-0500 (Central Daylight Time),283730.0,A,gol,O,l,216,1,1850.4000000357628,281879.59999996424,7186,WL,A,7.0
2,21.126999855041504,learn,38873.000144958496,Wed Jul 23 2025 16:04:06 GMT-0500 (Central Daylight Time),283946.1999999881,A,gold,O,d,178,1,2066.600000023842,281879.59999996424,7186,WL,A,7.0
2,22.524999856948853,learn,37475.00014305115,Wed Jul 23 2025 16:04:06 GMT-0500 (Central Daylight Time),285344.8000000119,A,goldenter,O,enter,1371,1,3465.2000000476837,281879.59999996424,7186,WL,A,7.0
2,23.542999982833862,learn,36457.00001716614,Wed Jul 23 2025 16:04:06 GMT-0500 (Central Daylight Time),286362.1999999881,A,t,O,t,1006,1,1017.1000000238419,285345.09999996424,7186,WL,A,8.0
2,24.075000047683716,learn,35924.999952316284,Wed Jul 23 2025 16:04:06 GMT-0500 (Central Daylight Time),286895.09999996424,A,tr,O,r,498,1,1550.0,285345.09999996424,7186,WL,A,8.0
2,24.54200005531311,learn,35457.99994468689,Wed Jul 23 2025 16:04:06 GMT-0500 (Central Daylight Time),287361.8000000119,A,tra,O,a,432,1,2016.7000000476837,285345.09999996424,7186,WL,A,8.0
2,24.842000007629395,learn,35157.999992370605,Wed Jul 23 2025 16:04:06 GMT-0500 (Central Daylight Time),287661.6999999881,A,trai,O,i,268,1,2316.600000023842,285345.09999996424,7186,WL,A,8.0
2,25.174999952316284,learn,34825.000047683716,Wed Jul 23 2025 16:04:06 GMT-0500 (Central Daylight Time),287994.6999999881,A,train,O,n,303,1,2649.600000023842,285345.09999996424,7186,WL,A,8.0
2,25.69099998474121,learn,34309.00001525879,Wed Jul 23 2025 16:04:06 GMT-0500 (Central Daylight Time),288510.5,A,trainenter,O,enter,489,1,3165.400000035763,285345.09999996424,7186,WL,A,8.0
2,26.45799994468689,learn,33542.00005531311,Wed Jul 23 2025 16:04:06 GMT-0500 (Central Daylight Time),289277.59999996424,A,f,O,f,761,1,766.8999999761581,288510.6999999881,7186,WL,A,9.0
2,26.740999937057495,learn,33259.000062942505,Wed Jul 23 2025 16:04:06 GMT-0500 (Central Daylight Time),289561.0,A,fi,O,i,253,1,1050.300000011921,288510.6999999881,7186,WL,A,9.0
2,27.090999841690063,learn,32909.00015830994,Wed Jul 23 2025 16:04:06 GMT-0500 (Central Daylight Time),289910.8000000119,A,fin,O,n,324,1,1400.1000000238419,288510.6999999881,7186,WL,A,9.0
2,27.44099998474121,learn,32559.00001525879,Wed Jul 23 2025 16:04:06 GMT-0500 (Central Daylight Time),290260.8000000119,A,fing,O,g,319,1,1750.1000000238419,288510.6999999881,7186,WL,A,9.0
2,27.590999841690063,learn,32409.000158309937,Wed Jul 23 2025 16:04:06 GMT-0500 (Central Daylight Time),290410.3000000119,A,finge,O,e,118,1,1899.6000000238419,288510.6999999881,7186,WL,A,9.0
2,28.207000017166138,learn,31792.999982833862,Wed Jul 23 2025 16:04:06 GMT-0500 (Central Daylight Time),291027.0,A,finger,O,r,596,1,2516.300000011921,288510.6999999881,7186,WL,A,9.0
2,29.322999954223633,learn,30677.000045776367,Wed Jul 23 2025 16:04:06 GMT-0500 (Central Daylight Time),292142.59999996424,A,fingerenter,O,enter,1086,1,3631.899999976158,288510.6999999881,7186,WL,A,9.0
2,30.457000017166138,learn,29542.999982833862,Wed Jul 23 2025 16:04:06 GMT-0500 (Central Daylight Time),293276.5,A,c,O,c,1120,1,1133.6000000238419,292142.89999997616,7186,WL,A,10.0
2,30.87399983406067,learn,29126.00016593933,Wed Jul 23 2025 16:04:06 GMT-0500 (Central Daylight Time),293693.1999999881,A,ch,O,h,376,1,1550.300000011921,292142.89999997616,7186,WL,A,10.0
2,31.207000017166138,learn,28792.999982833862,Wed Jul 23 2025 16:04:06 GMT-0500 (Central Daylight Time),294026.39999997616,A,chi,O,i,296,1,1883.5,292142.89999997616,7186,WL,A,10.0
2,31.889999866485596,learn,28110.000133514404,Wed Jul 23 2025 16:04:06 GMT-0500 (Central Daylight Time),294709.3000000119,A,chim,O,m,641,1,2566.400000035763,292142.89999997616,7186,WL,A,10.0
2,32.45599985122681,learn,27544.000148773193,Wed Jul 23 2025 16:04:06 GMT-0500 (Central Daylight Time),295275.89999997616,A,chimn,O,n,526,1,3133.0,292142.89999997616,7186,WL,A,10.0
2,32.69000005722046,learn,27309.99994277954,Wed Jul 23 2025 16:04:06 GMT-0500 (Central Daylight Time),295509.1999999881,A,chimne,O,e,191,1,3366.300000011921,292142.89999997616,7186,WL,A,10.0
2,33.08899998664856,learn,26911.00001335144,Wed Jul 23 2025 16:04:06 GMT-0500 (Central Daylight Time),295909.0,A,chimney,O,y,372,1,3766.100000023842,292142.89999997616,7186,WL,A,10.0
2,34.270999908447266,learn,25729.000091552734,Wed Jul 23 2025 16:04:06 GMT-0500 (Central Daylight Time),297090.89999997616,A,chimneyenter,O,enter,1142,1,4948.0,292142.89999997616,7186,WL,A,10.0
2,38.687000036239624,learn,21312.999963760376,Wed Jul 23 2025 16:04:06 GMT-0500 (Central Daylight Time),301506.09999996424,A,enter,O,enter,4403,1,4414.899999976158,297091.1999999881,7186,WL,A,11.0
2,40.503000020980835,learn,19496.999979019165,Wed Jul 23 2025 16:04:06 GMT-0500 (Central Daylight Time),303322.1999999881,A,enter,O,enter,1796,1,1815.800000011921,301506.39999997616,7186,WL,A,12.0
2,41.269999980926514,learn,18730.000019073486,Wed Jul 23 2025 16:04:06 GMT-0500 (Central Daylight Time),304088.6999999881,A,enter,O,enter,748,1,766.1999999880791,303322.5,7186,WL,A,13.0
2,41.736000061035156,learn,18263.999938964844,Wed Jul 23 2025 16:04:06 GMT-0500 (Central Daylight Time),304555.1999999881,A,enter,O,enter,453,1,466.19999998807907,304089.0,7186,WL,A,14.0
2,42.2189998626709,learn,17781.0001373291,Wed Jul 23 2025 16:04:06 GMT-0500 (Central Daylight Time),305038.39999997616,A,enter,O,enter,474,1,482.80000001192093,304555.59999996424,7186,WL,A,15.0
3,1.2660000324249268,learn,58733.99996757507,Wed Jul 23 2025 16:04:06 GMT-0500 (Central Daylight Time),373216.8000000119,A,b,O,b,1239,1,1265.300000011921,371951.5,7186,WL,A,1.0
3,1.7319998741149902,learn,58268.00012588501,Wed Jul 23 2025 16:04:06 GMT-0500 (Central Daylight Time),373683.3000000119,A,bo,O,o,434,1,1731.800000011921,371951.5,7186,WL,A,1.0
3,1.8819999694824219,learn,58118.00003051758,Wed Jul 23 2025 16:04:06 GMT-0500 (Central Daylight Time),373833.3000000119,A,boo,O,o,122,1,1881.800000011921,371951.5,7186,WL,A,1.0
3,2.1649999618530273,learn,57835.00003814697,Wed Jul 23 2025 16:04:06 GMT-0500 (Central Daylight Time),374115.6999999881,A,book,O,k,250,1,2164.199999988079,371951.5,7186,WL,A,1.0
3,3.5980000495910645,learn,56401.999950408936,Wed Jul 23 2025 16:04:06 GMT-0500 (Central Daylight Time),375548.59999996424,A,bookenter,O,enter,1417,1,3597.099999964237,371951.5,7186,WL,A,1.0
3,4.332000017166138,learn,55667.99998283386,Wed Jul 23 2025 16:04:06 GMT-0500 (Central Daylight Time),376282.6999999881,A,m,O,m,714,1,733.8000000119209,375548.89999997616,7186,WL,A,2.0
3,4.565000057220459,learn,55434.99994277954,Wed Jul 23 2025 16:04:06 GMT-0500 (Central Daylight Time),376516.3000000119,A,me,O,e,209,1,967.4000000357628,375548.89999997616,7186,WL,A,2.0
3,4.881999969482422,learn,55118.00003051758,Wed Jul 23 2025 16:04:06 GMT-0500 (Central Daylight Time),376832.5,A,mea,O,a,290,1,1283.6000000238419,375548.89999997616,7186,WL,A,2.0
3,5.164999961853027,learn,54835.00003814697,Wed Jul 23 2025 16:04:06 GMT-0500 (Central Daylight Time),377116.0,A,mead,O,d,244,1,1567.1000000238419,375548.89999997616,7186,WL,A,2.0
3,5.4649999141693115,learn,54535.00008583069,Wed Jul 23 2025 16:04:06 GMT-0500 (Central Daylight Time),377415.6999999881,A,meado,O,o,265,1,1866.800000011921,375548.89999997616,7186,WL,A,2.0
3,5.898000001907349,learn,54101.99999809265,Wed Jul 23 2025 16:04:06 GMT-0500 (Central Daylight Time),377848.59999996424,A,meadow,O,w,398,1,2299.699999988079,375548.89999997616,7186,WL,A,2.0
3,6.596999883651733,learn,53403.00011634827,Wed Jul 23 2025 16:04:06 GMT-0500 (Central Daylight Time),378547.59999996424,A,meadowenter,O,enter,666,1,2998.699999988079,375548.89999997616,7186,WL,A,2.0
3,7.180999994277954,learn,52819.000005722046,Wed Jul 23 2025 16:04:06 GMT-0500 (Central Daylight Time),379131.8000000119,A,t,O,t,572,1,584.0,378547.8000000119,7186,WL,A,3.0
3,7.414999961853027,learn,52585.00003814697,Wed Jul 23 2025 16:04:06 GMT-0500 (Central Daylight Time),379365.8000000119,A,tr,O,r,210,1,818.0,378547.8000000119,7186,WL,A,3.0
3,7.828999996185303,learn,52171.0000038147,Wed Jul 23 2025 16:04:06 GMT-0500 (Central Daylight Time),379780.39999997616,A,trs,O,s,390,1,1232.5999999642372,378547.8000000119,7186,WL,A,3.0
3,8.996999979019165,learn,51003.000020980835,Wed Jul 23 2025 16:04:06 GMT-0500 (Central Daylight Time),380947.59999996424,A,tr,O,backspace,1154,1,2399.7999999523163,378547.8000000119,7186,WL,A,3.0
3,9.829999923706055,learn,50170.000076293945,Wed Jul 23 2025 16:04:06 GMT-0500 (Central Daylight Time),381780.89999997616,A,tra,O,a,805,1,3233.099999964237,378547.8000000119,7186,WL,A,3.0
3,10.147000074386597,learn,49852.9999256134,Wed Jul 23 2025 16:04:06 GMT-0500 (Central Daylight Time),382097.59999996424,A,trai,O,i,281,1,3549.7999999523163,378547.8000000119,7186,WL,A,3.0
3,10.496000051498413,learn,49503.99994850159,Wed Jul 23 2025 16:04:06 GMT-0500 (Central Daylight Time),382447.09999996424,A,train,O,n,323,1,3899.2999999523163,378547.8000000119,7186,WL,A,3.0
3,11.229000091552734,learn,48770.999908447266,Wed Jul 23 2025 16:04:06 GMT-0500 (Central Daylight Time),383179.3000000119,A,trainenter,O,enter,704,1,4631.5,378547.8000000119,7186,WL,A,3.0
3,11.796000003814697,learn,48203.9999961853,Wed Jul 23 2025 16:04:06 GMT-0500 (Central Daylight Time),383746.89999997616,A,h,O,h,556,1,567.1999999880791,383179.6999999881,7186,WL,A,4.0
3,11.961999893188477,learn,48038.00010681152,Wed Jul 23 2025 16:04:06 GMT-0500 (Central Daylight Time),383913.09999996424,A,ha,O,a,129,1,733.3999999761581,383179.6999999881,7186,WL,A,4.0
3,12.361999988555908,learn,47638.00001144409,Wed Jul 23 2025 16:04:06 GMT-0500 (Central Daylight Time),384313.39999997616,A,har,O,r,379,1,1133.699999988079,383179.6999999881,7186,WL,A,4.0
3,12.961999893188477,learn,47038.00010681152,Wed Jul 23 2025 16:04:06 GMT-0500 (Central Daylight Time),384913.1999999881,A,harp,O,p,563,1,1733.5,383179.6999999881,7186,WL,A,4.0
3,13.74399995803833,learn,46256.00004196167,Wed Jul 23 2025 16:04:06 GMT-0500 (Central Daylight Time),385695.1999999881,A,harpenter,O,enter,754,1,2515.5,383179.6999999881,7186,WL,A,4.0
3,14.861999988555908,learn,45138.00001144409,Wed Jul 23 2025 16:04:06 GMT-0500 (Central Daylight Time),386812.5,A,r,O,r,1104,1,1117.0,385695.5,7186,WL,A,5.0
3,15.496000051498413,learn,44503.99994850159,Wed Jul 23 2025 16:04:06 GMT-0500 (Central Daylight Time),387446.5,A,ru,O,u,608,1,1751.0,385695.5,7186,WL,A,5.0
3,16.09500002861023,learn,43904.99997138977,Wed Jul 23 2025 16:04:06 GMT-0500 (Central Daylight Time),388045.5,A,rug,O,g,566,1,2350.0,385695.5,7186,WL,A,5.0
3,16.927000045776367,learn,43072.99995422363,Wed Jul 23 2025 16:04:06 GMT-0500 (Central Daylight Time),388877.5,A,rugenter,O,enter,806,1,3182.0,385695.5,7186,WL,A,5.0
3,19.22699999809265,learn,40773.00000190735,Wed Jul 23 2025 16:04:06 GMT-0500 (Central Daylight Time),391177.5,A,f,O,f,2282,1,2299.800000011921,388877.6999999881,7186,WL,A,6.0
3,19.526999950408936,learn,40473.000049591064,Wed Jul 23 2025 16:04:06 GMT-0500 (Central Daylight Time),391477.6999999881,A,fl,O,l,269,1,2600.0,388877.6999999881,7186,WL,A,6.0
3,19.792999982833862,learn,40207.00001716614,Wed Jul 23 2025 16:04:06 GMT-0500 (Central Daylight Time),391744.3000000119,A,flo,O,o,234,1,2866.600000023842,388877.6999999881,7186,WL,A,6.0
3,20.375999927520752,learn,39624.00007247925,Wed Jul 23 2025 16:04:06 GMT-0500 (Central Daylight Time),392326.89999997616,A,flow,O,w,559,1,3449.199999988079,388877.6999999881,7186,WL,A,6.0
3,20.592999935150146,learn,39407.00006484985,Wed Jul 23 2025 16:04:06 GMT-0500 (Central Daylight Time),392544.1999999881,A,flowe,O,e,183,1,3666.5,388877.6999999881,7186,WL,A,6.0
3,20.776000022888184,learn,39223.99997711182,Wed Jul 23 2025 16:04:06 GMT-0500 (Central Daylight Time),392727.3000000119,A,flower,O,r,148,1,3849.600000023842,388877.6999999881,7186,WL,A,6.0
3,21.29200005531311,learn,38707.99994468689,Wed Jul 23 2025 16:04:06 GMT-0500 (Central Daylight Time),393242.8000000119,A,flowerenter,O,enter,477,1,4365.100000023842,388877.6999999881,7186,WL,A,6.0
3,21.72699999809265,learn,38273.00000190735,Wed Jul 23 2025 16:04:06 GMT-0500 (Central Daylight Time),393677.89999997616,A,f,O,f,429,1,434.89999997615814,393243.0,7186,WL,A,7.0
3,22.358999967575073,learn,37641.00003242493,Wed Jul 23 2025 16:04:06 GMT-0500 (Central Daylight Time),394310.09999996424,A,fi,O,i,600,1,1067.0999999642372,393243.0,7186,WL,A,7.0
3,22.77500009536743,learn,37224.99990463257,Wed Jul 23 2025 16:04:06 GMT-0500 (Central Daylight Time),394726.3000000119,A,fin,O,n,391,1,1483.300000011921,393243.0,7186,WL,A,7.0
3,23.22499990463257,learn,36775.00009536743,Wed Jul 23 2025 16:04:06 GMT-0500 (Central Daylight Time),395175.89999997616,A,fing,O,g,422,1,1932.8999999761581,393243.0,7186,WL,A,7.0
3,23.358999967575073,learn,36641.00003242493,Wed Jul 23 2025 16:04:06 GMT-0500 (Central Daylight Time),395310.09999996424,A,finge,O,e,120,1,2067.099999964237,393243.0,7186,WL,A,7.0
3,23.54200005531311,learn,36457.99994468689,Wed Jul 23 2025 16:04:06 GMT-0500 (Central Daylight Time),395493.1999999881,A,finger,O,r,151,1,2250.199999988079,393243.0,7186,WL,A,7.0
3,24.20799994468689,learn,35792.00005531311,Wed Jul 23 2025 16:04:06 GMT-0500 (Central Daylight Time),396158.39999997616,A,fingerenter,O,enter,632,1,2915.399999976158,393243.0,7186,WL,A,7.0
3,24.875,learn,35125.0,Wed Jul 23 2025 16:04:06 GMT-0500 (Central Daylight Time),396825.89999997616,A,g,O,g,656,1,667.0999999642372,396158.8000000119,7186,WL,A,8.0
3,25.141000032424927,learn,34858.99996757507,Wed Jul 23 2025 16:04:06 GMT-0500 (Central Daylight Time),397092.39999997616,A,go,O,o,226,1,933.5999999642372,396158.8000000119,7186,WL,A,8.0
3,25.424999952316284,learn,34575.000047683716,Wed Jul 23 2025 16:04:06 GMT-0500 (Central Daylight Time),397375.8000000119,A,gol,O,l,249,1,1217.0,396158.8000000119,7186,WL,A,8.0
3,25.841000080108643,learn,34158.99991989136,Wed Jul 23 2025 16:04:06 GMT-0500 (Central Daylight Time),397792.1999999881,A,gold,O,d,381,1,1633.3999999761581,396158.8000000119,7186,WL,A,8.0
3,26.490000009536743,learn,33509.99999046326,Wed Jul 23 2025 16:04:06 GMT-0500 (Central Daylight Time),398441.09999996424,A,goldenter,O,enter,620,1,2282.2999999523163,396158.8000000119,7186,WL,A,8.0
3,27.141000032424927,learn,32858.99996757507,Wed Jul 23 2025 16:04:06 GMT-0500 (Central Daylight Time),399092.09999996424,A,k,O,k,638,1,650.7999999523163,398441.3000000119,7186,WL,A,9.0
3,27.374000072479248,learn,32625.999927520752,Wed Jul 23 2025 16:04:06 GMT-0500 (Central Daylight Time),399324.89999997616,A,ke,O,e,194,1,883.5999999642372,398441.3000000119,7186,WL,A,9.0
3,27.808000087738037,learn,32191.999912261963,Wed Jul 23 2025 16:04:06 GMT-0500 (Central Daylight Time),399758.89999997616,A,key,O,y,409,1,1317.5999999642372,398441.3000000119,7186,WL,A,9.0
3,28.6729998588562,learn,31327.0001411438,Wed Jul 23 2025 16:04:06 GMT-0500 (Central Daylight Time),400623.6999999881,A,keyenter,O,enter,834,1,2182.399999976158,398441.3000000119,7186,WL,A,9.0
3,29.223000049591064,learn,30776.999950408936,Wed Jul 23 2025 16:04:06 GMT-0500 (Central Daylight Time),401174.3000000119,A,b,O,b,544,1,550.3000000119209,400624.0,7186,WL,A,10.0
3,29.69000005722046,learn,30309.99994277954,Wed Jul 23 2025 16:04:06 GMT-0500 (Central Daylight Time),401641.09999996424,A,bu,O,u,439,1,1017.0999999642372,400624.0,7186,WL,A,10.0
3,30.10599994659424,learn,29894.00005340576,Wed Jul 23 2025 16:04:06 GMT-0500 (Central Daylight Time),402057.3000000119,A,but,O,t,388,1,1433.300000011921,400624.0,7186,WL,A,10.0
3,30.289999961853027,learn,29710.000038146973,Wed Jul 23 2025 16:04:06 GMT-0500 (Central Daylight Time),402240.6999999881,A,butt,O,t,148,1,1616.699999988079,400624.0,7186,WL,A,10.0
3,30.58999991416931,learn,29410.00008583069,Wed Jul 23 2025 16:04:06 GMT-0500 (Central Daylight Time),402540.59999996424,A,butto,O,o,269,1,1916.5999999642372,400624.0,7186,WL,A,10.0
3,31.039999961853027,learn,28960.000038146973,Wed Jul 23 2025 16:04:06 GMT-0500 (Central Daylight Time),402990.6999999881,A,button,O,n,417,1,2366.699999988079,400624.0,7186,WL,A,10.0
3,31.57200002670288,learn,28427.99997329712,Wed Jul 23 2025 16:04:06 GMT-0500 (Central Daylight Time),403522.6999999881,A,buttonenter,O,enter,502,1,2898.699999988079,400624.0,7186,WL,A,10.0
3,32.206000089645386,learn,27793.999910354614,Wed Jul 23 2025 16:04:06 GMT-0500 (Central Daylight Time),404156.59999996424,A,c,O,c,620,1,633.6999999880791,403522.89999997616,7186,WL,A,11.0
3,32.67199993133545,learn,27328.00006866455,Wed Jul 23 2025 16:04:06 GMT-0500 (Central Daylight Time),404623.0,A,ch,O,h,441,1,1100.1000000238419,403522.89999997616,7186,WL,A,11.0
3,33.204999923706055,learn,26795.000076293945,Wed Jul 23 2025 16:04:06 GMT-0500 (Central Daylight Time),405155.39999997616,A,chi,O,i,500,1,1632.5,403522.89999997616,7186,WL,A,11.0
3,33.72099995613098,learn,26279.00004386902,Wed Jul 23 2025 16:04:06 GMT-0500 (Central Daylight Time),405671.89999997616,A,chim,O,m,505,1,2149.0,403522.89999997616,7186,WL,A,11.0
3,34.3050000667572,learn,25694.999933242798,Wed Jul 23 2025 16:04:06 GMT-0500 (Central Daylight Time),406256.3000000119,A,chimn,O,n,567,1,2733.400000035763,403522.89999997616,7186,WL,A,11.0
3,34.8050000667572,learn,25194.999933242798,Wed Jul 23 2025 16:04:06 GMT-0500 (Central Daylight Time),406755.8000000119,A,chimne,O,e,461,1,3232.900000035763,403522.89999997616,7186,WL,A,11.0
3,35.08800005912781,learn,24911.999940872192,Wed Jul 23 2025 16:04:06 GMT-0500 (Central Daylight Time),407039.1999999881,A,chimney,O,y,257,1,3516.300000011921,403522.89999997616,7186,WL,A,11.0
3,36.420000076293945,learn,23579.999923706055,Wed Jul 23 2025 16:04:06 GMT-0500 (Central Daylight Time),408371.0,A,chimneyenter,O,enter,1293,1,4848.100000023842,403522.89999997616,7186,WL,A,11.0
3,39.83699989318848,learn,20163.000106811523,Wed Jul 23 2025 16:04:06 GMT-0500 (Central Daylight Time),411787.59999996424,A,a,O,a,3404,1,3416.399999976158,408371.1999999881,7186,WL,A,12.0
3,40.3529999256134,learn,19647.000074386597,Wed Jul 23 2025 16:04:06 GMT-0500 (Central Daylight Time),412303.89999997616,A,ap,O,p,493,1,3932.699999988079,408371.1999999881,7186,WL,A,12.0
3,40.51900005340576,learn,19480.99994659424,Wed Jul 23 2025 16:04:06 GMT-0500 (Central Daylight Time),412470.3000000119,A,app,O,p,142,1,4099.100000023842,408371.1999999881,7186,WL,A,12.0
3,40.78699994087219,learn,19213.000059127808,Wed Jul 23 2025 16:04:06 GMT-0500 (Central Daylight Time),412737.5,A,appl,O,l,231,1,4366.300000011921,408371.1999999881,7186,WL,A,12.0
3,40.93599987030029,learn,19064.000129699707,Wed Jul 23 2025 16:04:06 GMT-0500 (Central Daylight Time),412887.0,A,apple,O,e,124,1,4515.800000011921,408371.1999999881,7186,WL,A,12.0
3,41.63499999046326,learn,18365.000009536743,Wed Jul 23 2025 16:04:06 GMT-0500 (Central Daylight Time),413586.09999996424,A,appleenter,O,enter,660,1,5214.899999976158,408371.1999999881,7186,WL,A,12.0
3,43.35199999809265,learn,16648.00000190735,Wed Jul 23 2025 16:04:06 GMT-0500 (Central Daylight Time),415303.3000000119,A,g,O,g,1701,1,1716.9000000357628,413586.39999997616,7186,WL,A,13.0
3,43.75200009346008,learn,16247.999906539917,Wed Jul 23 2025 16:04:06 GMT-0500 (Central Daylight Time),415702.59999996424,A,go,O,o,379,1,2116.199999988079,413586.39999997616,7186,WL,A,13.0
3,44.01900005340576,learn,15980.999946594238,Wed Jul 23 2025 16:04:06 GMT-0500 (Central Daylight Time),415969.6999999881,A,gol,O,l,239,1,2383.300000011921,413586.39999997616,7186,WL,A,13.0
3,44.28500008583069,learn,15714.999914169312,Wed Jul 23 2025 16:04:06 GMT-0500 (Central Daylight Time),416236.1999999881,A,gold,O,d,236,1,2649.800000011921,413586.39999997616,7186,WL,A,13.0
3,44.95099997520447,learn,15049.000024795532,Wed Jul 23 2025 16:04:06 GMT-0500 (Central Daylight Time),416901.6999999881,A,goldenter,O,enter,641,1,3315.300000011921,413586.39999997616,7186,WL,A,13.0
3,46.76799988746643,learn,13232.00011253357,Wed Jul 23 2025 16:04:06 GMT-0500 (Central Daylight Time),418718.39999997616,A,b,O,b,1809,1,1816.5,416901.89999997616,7186,WL,A,14.0
3,47.20099997520447,learn,12799.000024795532,Wed Jul 23 2025 16:04:06 GMT-0500 (Central Daylight Time),419151.89999997616,A,bu,O,u,403,1,2250.0,416901.89999997616,7186,WL,A,14.0
3,47.634000062942505,learn,12365.999937057495,Wed Jul 23 2025 16:04:06 GMT-0500 (Central Daylight Time),419585.09999996424,A,but,O,t,398,1,2683.199999988079,416901.89999997616,7186,WL,A,14.0
3,47.800999879837036,learn,12199.000120162964,Wed Jul 23 2025 16:04:06 GMT-0500 (Central Daylight Time),419751.89999997616,A,butt,O,t,135,1,2850.0,416901.89999997616,7186,WL,A,14.0
3,47.95099997520447,learn,12049.000024795532,Wed Jul 23 2025 16:04:06 GMT-0500 (Central Daylight Time),419901.6999999881,A,butto,O,o,118,1,2999.800000011921,416901.89999997616,7186,WL,A,14.0
3,48.33399987220764,learn,11666.000127792358,Wed Jul 23 2025 16:04:06 GMT-0500 (Central Daylight Time),420284.5,A,button,O,n,351,1,3382.600000023842,416901.89999997616,7186,WL,A,14.0
3,49.26600003242493,learn,10733.999967575073,Wed Jul 23 2025 16:04:06 GMT-0500 (Central Daylight Time),421217.0,A,buttonenter,O,enter,912,1,4315.100000023842,416901.89999997616,7186,WL,A,14.0
3,50.549999952316284,learn,9450.000047683716,Wed Jul 23 2025 16:04:06 GMT-0500 (Central Daylight Time),422500.8000000119,A,h,O,h,1270,1,1283.6000000238419,421217.1999999881,7186,WL,A,15.0
3,50.700000047683716,learn,9299.999952316284,Wed Jul 23 2025 16:04:06 GMT-0500 (Central Daylight Time),422650.8000000119,A,ha,O,a,112,1,1433.6000000238419,421217.1999999881,7186,WL,A,15.0
3,51.34999990463257,learn,8650.000095367432,Wed Jul 23 2025 16:04:06 GMT-0500 (Central Daylight Time),423300.5,A,har,O,r,619,1,2083.300000011921,421217.1999999881,7186,WL,A,15.0
3,52.34999990463257,learn,7650.000095367432,Wed Jul 23 2025 16:04:06 GMT-0500 (Central Daylight Time),424300.5,A,harp,O,p,961,1,3083.300000011921,421217.1999999881,7186,WL,A,15.0
3,52.848999977111816,learn,7151.000022888184,Wed Jul 23 2025 16:04:06 GMT-0500 (Central Daylight Time),424799.09999996424,A,harpenter,O,enter,463,1,3581.899999976158,421217.1999999881,7186,WL,A,15.0
4,1.1489999294281006,learn,58851.0000705719,Wed Jul 23 2025 16:04:06 GMT-0500 (Central Daylight Time),492211.59999996424,A,b,O,b,1113,1,1148.8999999761581,491062.6999999881,7186,WL,A,1.0
4,1.6329998970031738,learn,58367.000102996826,Wed Jul 23 2025 16:04:06 GMT-0500 (Central Daylight Time),492695.0,A,bo,O,o,458,1,1632.300000011921,491062.6999999881,7186,WL,A,1.0
4,1.7990000247955322,learn,58200.99997520447,Wed Jul 23 2025 16:04:06 GMT-0500 (Central Daylight Time),492861.39999997616,A,boo,O,o,137,1,1798.699999988079,491062.6999999881,7186,WL,A,1.0
4,1.999000072479248,learn,58000.99992752075,Wed Jul 23 2025 16:04:06 GMT-0500 (Central Daylight Time),493061.0,A,book,O,k,160,1,1998.300000011921,491062.6999999881,7186,WL,A,1.0
4,2.813999891281128,learn,57186.00010871887,Wed Jul 23 2025 16:04:06 GMT-0500 (Central Daylight Time),493876.5,A,bookenter,O,enter,784,1,2813.800000011921,491062.6999999881,7186,WL,A,1.0
4,4.015000104904175,learn,55984.999895095825,Wed Jul 23 2025 16:04:06 GMT-0500 (Central Daylight Time),495076.89999997616,A,m,O,m,1178,1,1200.0999999642372,493876.8000000119,7186,WL,A,2.0
4,4.21399998664856,learn,55786.00001335144,Wed Jul 23 2025 16:04:06 GMT-0500 (Central Daylight Time),495276.1999999881,A,me,O,e,175,1,1399.3999999761581,493876.8000000119,7186,WL,A,2.0
4,4.515000104904175,learn,55484.999895095825,Wed Jul 23 2025 16:04:06 GMT-0500 (Central Daylight Time),495576.89999997616,A,mea,O,a,285,1,1700.0999999642372,493876.8000000119,7186,WL,A,2.0
4,4.7809998989105225,learn,55219.00010108948,Wed Jul 23 2025 16:04:06 GMT-0500 (Central Daylight Time),495843.1999999881,A,mead,O,d,228,1,1966.3999999761581,493876.8000000119,7186,WL,A,2.0
4,5.447000026702881,learn,54552.99997329712,Wed Jul 23 2025 16:04:06 GMT-0500 (Central Daylight Time),496509.1999999881,A,meado,O,o,634,1,2632.399999976158,493876.8000000119,7186,WL,A,2.0
4,5.763000011444092,learn,54236.99998855591,Wed Jul 23 2025 16:04:06 GMT-0500 (Central Daylight Time),496825.59999996424,A,meadoe,O,e,291,1,2948.7999999523163,493876.8000000119,7186,WL,A,2.0
4,6.496999979019165,learn,53503.000020980835,Wed Jul 23 2025 16:04:06 GMT-0500 (Central Daylight Time),497560.0,A,meado,O,backspace,712,1,3683.199999988079,493876.8000000119,7186,WL,A,2.0
4,6.71399998664856,learn,53286.00001335144,Wed Jul 23 2025 16:04:06 GMT-0500 (Central Daylight Time),497776.3000000119,A,meadow,O,w,179,1,3899.5,493876.8000000119,7186,WL,A,2.0
4,7.379999876022339,learn,52620.00012397766,Wed Jul 23 2025 16:04:06 GMT-0500 (Central Daylight Time),498442.8000000119,A,meadowt,O,t,636,1,4566.0,493876.8000000119,7186,WL,A,2.0
4,7.61299991607666,learn,52387.00008392334,Wed Jul 23 2025 16:04:06 GMT-0500 (Central Daylight Time),498675.1999999881,A,meadowtr,O,r,202,1,4798.399999976158,493876.8000000119,7186,WL,A,2.0
4,8.04699993133545,learn,51953.00006866455,Wed Jul 23 2025 16:04:06 GMT-0500 (Central Daylight Time),499109.0,A,meadowtra,O,a,412,1,5232.199999988079,493876.8000000119,7186,WL,A,2.0
4,8.413000106811523,learn,51586.99989318848,Wed Jul 23 2025 16:04:06 GMT-0500 (Central Daylight Time),499475.39999997616,A,meadowtrai,O,i,337,1,5598.599999964237,493876.8000000119,7186,WL,A,2.0
4,8.812999963760376,learn,51187.000036239624,Wed Jul 23 2025 16:04:06 GMT-0500 (Central Daylight Time),499875.5,A,meadowtrain,O,n,363,1,5998.699999988079,493876.8000000119,7186,WL,A,2.0
4,9.628999948501587,learn,50371.00005149841,Wed Jul 23 2025 16:04:06 GMT-0500 (Central Daylight Time),500690.8000000119,A,meadowtrainenter,O,enter,785,1,6814.0,493876.8000000119,7186,WL,A,2.0
4,10.128999948501587,learn,49871.00005149841,Wed Jul 23 2025 16:04:06 GMT-0500 (Central Daylight Time),501191.59999996424,A,h,O,h,493,1,500.39999997615814,500691.1999999881,7186,WL,A,3.0
4,10.296000003814697,learn,49703.9999961853,Wed Jul 23 2025 16:04:06 GMT-0500 (Central Daylight Time),501358.5,A,ha,O,a,134,1,667.3000000119209,500691.1999999881,7186,WL,A,3.0
4,10.796000003814697,learn,49203.9999961853,Wed Jul 23 2025 16:04:06 GMT-0500 (Central Daylight Time),501858.1999999881,A,har,O,r,471,1,1167.0,500691.1999999881,7186,WL,A,3.0
4,11.779000043869019,learn,48220.99995613098,Wed Jul 23 2025 16:04:06 GMT-0500 (Central Daylight Time),502841.1999999881,A,harp,O,p,947,1,2150.0,500691.1999999881,7186,WL,A,3.0
4,12.310999870300293,learn,47689.00012969971,Wed Jul 23 2025 16:04:06 GMT-0500 (Central Daylight Time),503373.39999997616,A,harpenter,O,enter,499,1,2682.199999988079,500691.1999999881,7186,WL,A,3.0
4,13.128000020980835,learn,46871.999979019165,Wed Jul 23 2025 16:04:06 GMT-0500 (Central Daylight Time),504190.6999999881,A,s,O,s,802,1,817.1000000238419,503373.59999996424,7186,WL,A,4.0
4,13.57699990272522,learn,46423.00009727478,Wed Jul 23 2025 16:04:06 GMT-0500 (Central Daylight Time),504639.8000000119,A,sa,O,a,421,1,1266.2000000476837,503373.59999996424,7186,WL,A,4.0
4,13.861999988555908,learn,46138.00001144409,Wed Jul 23 2025 16:04:06 GMT-0500 (Central Daylight Time),504923.89999997616,A,sal,O,l,256,1,1550.300000011921,503373.59999996424,7186,WL,A,4.0
4,14.26200008392334,learn,45737.99991607666,Wed Jul 23 2025 16:04:06 GMT-0500 (Central Daylight Time),505323.8000000119,A,salt,O,t,363,1,1950.2000000476837,503373.59999996424,7186,WL,A,4.0
4,15.444000005722046,learn,44555.999994277954,Wed Jul 23 2025 16:04:06 GMT-0500 (Central Daylight Time),506505.6999999881,A,saltenter,O,enter,1145,1,3132.100000023842,503373.59999996424,7186,WL,A,4.0
4,16.043999910354614,learn,43956.000089645386,Wed Jul 23 2025 16:04:06 GMT-0500 (Central Daylight Time),507106.39999997616,A,f,O,f,582,1,600.3999999761581,506506.0,7186,WL,A,5.0
4,16.67799997329712,learn,43322.00002670288,Wed Jul 23 2025 16:04:06 GMT-0500 (Central Daylight Time),507739.89999997616,A,fl,O,l,595,1,1233.8999999761581,506506.0,7186,WL,A,5.0
4,16.927000045776367,learn,43072.99995422363,Wed Jul 23 2025 16:04:06 GMT-0500 (Central Daylight Time),507989.6999999881,A,flo,O,o,209,1,1483.699999988079,506506.0,7186,WL,A,5.0
4,17.543999910354614,learn,42456.000089645386,Wed Jul 23 2025 16:04:06 GMT-0500 (Central Daylight Time),508606.0,A,flow,O,w,583,1,2100.0,506506.0,7186,WL,A,5.0
4,17.80999994277954,learn,42190.00005722046,Wed Jul 23 2025 16:04:06 GMT-0500 (Central Daylight Time),508872.5,A,flowe,O,e,239,1,2366.5,506506.0,7186,WL,A,5.0
4,18.009999990463257,learn,41990.00000953674,Wed Jul 23 2025 16:04:06 GMT-0500 (Central Daylight Time),509072.3000000119,A,flower,O,r,165,1,2566.300000011921,506506.0,7186,WL,A,5.0
4,18.960000038146973,learn,41039.99996185303,Wed Jul 23 2025 16:04:06 GMT-0500 (Central Daylight Time),510022.39999997616,A,flowerenter,O,enter,925,1,3516.399999976158,506506.0,7186,WL,A,5.0
4,19.609999895095825,learn,40390.000104904175,Wed Jul 23 2025 16:04:06 GMT-0500 (Central Daylight Time),510671.89999997616,A,g,O,g,641,1,649.1999999880791,510022.6999999881,7186,WL,A,6.0
4,19.842999935150146,learn,40157.00006484985,Wed Jul 23 2025 16:04:06 GMT-0500 (Central Daylight Time),510905.09999996424,A,go,O,o,204,1,882.3999999761581,510022.6999999881,7186,WL,A,6.0
4,20.109999895095825,learn,39890.000104904175,Wed Jul 23 2025 16:04:06 GMT-0500 (Central Daylight Time),511171.8000000119,A,gol,O,l,239,1,1149.1000000238419,510022.6999999881,7186,WL,A,6.0
4,20.375999927520752,learn,39624.00007247925,Wed Jul 23 2025 16:04:06 GMT-0500 (Central Daylight Time),511438.5,A,gold,O,d,234,1,1415.800000011921,510022.6999999881,7186,WL,A,6.0
4,21.04200005531311,learn,38957.99994468689,Wed Jul 23 2025 16:04:06 GMT-0500 (Central Daylight Time),512103.8000000119,A,goldenter,O,enter,637,1,2081.100000023842,510022.6999999881,7186,WL,A,6.0
4,21.925999879837036,learn,38074.000120162964,Wed Jul 23 2025 16:04:06 GMT-0500 (Central Daylight Time),512988.39999997616,A,k,O,k,864,1,884.3000000119209,512104.09999996424,7186,WL,A,7.0
4,22.20899987220764,learn,37791.00012779236,Wed Jul 23 2025 16:04:06 GMT-0500 (Central Daylight Time),513271.09999996424,A,ke,O,e,248,1,1167.0,512104.09999996424,7186,WL,A,7.0
4,22.52500009536743,learn,37474.99990463257,Wed Jul 23 2025 16:04:06 GMT-0500 (Central Daylight Time),513587.39999997616,A,key,O,y,286,1,1483.300000011921,512104.09999996424,7186,WL,A,7.0
4,23.10800004005432,learn,36891.99995994568,Wed Jul 23 2025 16:04:06 GMT-0500 (Central Daylight Time),514169.89999997616,A,keyenter,O,enter,545,1,2065.800000011921,512104.09999996424,7186,WL,A,7.0
4,23.60800004005432,learn,36391.99995994568,Wed Jul 23 2025 16:04:06 GMT-0500 (Central Daylight Time),514670.59999996424,A,a,O,a,494,1,500.5,514170.09999996424,7186,WL,A,8.0
4,24.04099988937378,learn,35959.00011062622,Wed Jul 23 2025 16:04:06 GMT-0500 (Central Daylight Time),515103.8000000119,A,ap,O,p,399,1,933.7000000476837,514170.09999996424,7186,WL,A,8.0
4,24.19099998474121,learn,35809.00001525879,Wed Jul 23 2025 16:04:06 GMT-0500 (Central Daylight Time),515253.39999997616,A,app,O,p,118,1,1083.300000011921,514170.09999996424,7186,WL,A,8.0
4,24.44099998474121,learn,35559.00001525879,Wed Jul 23 2025 16:04:06 GMT-0500 (Central Daylight Time),515503.6999999881,A,appl,O,l,225,1,1333.6000000238419,514170.09999996424,7186,WL,A,8.0
4,24.60800004005432,learn,35391.99995994568,Wed Jul 23 2025 16:04:06 GMT-0500 (Central Daylight Time),515670.5,A,apple,O,e,140,1,1500.4000000357628,514170.09999996424,7186,WL,A,8.0
4,25.572999954223633,learn,34427.00004577637,Wed Jul 23 2025 16:04:06 GMT-0500 (Central Daylight Time),516635.6999999881,A,appleenter,O,enter,932,1,2465.600000023842,514170.09999996424,7186,WL,A,8.0
4,26.175999879837036,learn,33824.000120162964,Wed Jul 23 2025 16:04:06 GMT-0500 (Central Daylight Time),517238.0,A,f,O,f,596,1,602.0,516636.0,7186,WL,A,9.0
4,26.457000017166138,learn,33542.99998283386,Wed Jul 23 2025 16:04:06 GMT-0500 (Central Daylight Time),517519.6999999881,A,fi,O,i,249,1,883.6999999880791,516636.0,7186,WL,A,9.0
4,26.874000072479248,learn,33125.99992752075,Wed Jul 23 2025 16:04:06 GMT-0500 (Central Daylight Time),517936.1999999881,A,fin,O,n,389,1,1300.199999988079,516636.0,7186,WL,A,9.0
4,27.20799994468689,learn,32792.00005531311,Wed Jul 23 2025 16:04:06 GMT-0500 (Central Daylight Time),518270.0,A,fing,O,g,309,1,1634.0,516636.0,7186,WL,A,9.0
4,27.33999991416931,learn,32660.00008583069,Wed Jul 23 2025 16:04:06 GMT-0500 (Central Daylight Time),518402.1999999881,A,finge,O,e,101,1,1766.199999988079,516636.0,7186,WL,A,9.0
4,27.539999961853027,learn,32460.000038146973,Wed Jul 23 2025 16:04:06 GMT-0500 (Central Daylight Time),518602.39999997616,A,finger,O,r,173,1,1966.3999999761581,516636.0,7186,WL,A,9.0
4,28.5239999294281,learn,31476.0000705719,Wed Jul 23 2025 16:04:06 GMT-0500 (Central Daylight Time),519585.89999997616,A,fingert,O,t,948,1,2949.899999976158,516636.0,7186,WL,A,9.0
4,28.756999969482422,learn,31243.000030517578,Wed Jul 23 2025 16:04:06 GMT-0500 (Central Daylight Time),519819.0,A,fingertr,O,r,195,1,3183.0,516636.0,7186,WL,A,9.0
4,29.155999898910522,learn,30844.000101089478,Wed Jul 23 2025 16:04:06 GMT-0500 (Central Daylight Time),520218.6999999881,A,fingertrs,O,s,369,1,3582.699999988079,516636.0,7186,WL,A,9.0
4,30.155999898910522,learn,29844.000101089478,Wed Jul 23 2025 16:04:06 GMT-0500 (Central Daylight Time),521218.5,A,fingertr,O,backspace,963,1,4582.5,516636.0,7186,WL,A,9.0
4,30.456000089645386,learn,29543.999910354614,Wed Jul 23 2025 16:04:06 GMT-0500 (Central Daylight Time),521518.39999997616,A,fingertra,O,a,267,1,4882.399999976158,516636.0,7186,WL,A,9.0
4,31.07200002670288,learn,28927.99997329712,Wed Jul 23 2025 16:04:06 GMT-0500 (Central Daylight Time),522134.39999997616,A,fingertrai,O,i,590,1,5498.399999976158,516636.0,7186,WL,A,9.0
4,31.438999891281128,learn,28561.000108718872,Wed Jul 23 2025 16:04:06 GMT-0500 (Central Daylight Time),522501.0,A,fingertrain,O,n,327,1,5865.0,516636.0,7186,WL,A,9.0
4,32.456000089645386,learn,27543.999910354614,Wed Jul 23 2025 16:04:06 GMT-0500 (Central Daylight Time),523518.39999997616,A,fingertrainc,O,c,993,1,6882.399999976158,516636.0,7186,WL,A,9.0
4,32.8050000667572,learn,27194.999933242798,Wed Jul 23 2025 16:04:06 GMT-0500 (Central Daylight Time),523867.39999997616,A,fingertrainch,O,h,317,1,7231.399999976158,516636.0,7186,WL,A,9.0
4,33.204999923706055,learn,26795.000076293945,Wed Jul 23 2025 16:04:06 GMT-0500 (Central Daylight Time),524267.59999996424,A,fingertrainche,O,e,373,1,7631.599999964237,516636.0,7186,WL,A,9.0
4,33.621999979019165,learn,26378.000020980835,Wed Jul 23 2025 16:04:06 GMT-0500 (Central Daylight Time),524684.0,A,fingertrainchem,O,m,378,1,8048.0,516636.0,7186,WL,A,9.0
4,34.2720000743866,learn,25727.999925613403,Wed Jul 23 2025 16:04:06 GMT-0500 (Central Daylight Time),525334.5999999642,A,fingertrainchemn,O,n,626,1,8698.599999964237,516636.0,7186,WL,A,9.0
4,34.53800010681152,learn,25461.999893188477,Wed Jul 23 2025 16:04:06 GMT-0500 (Central Daylight Time),525600.3999999762,A,fingertrainchemne,O,e,240,1,8964.399999976158,516636.0,7186,WL,A,9.0
4,34.83800005912781,learn,25161.999940872192,Wed Jul 23 2025 16:04:06 GMT-0500 (Central Daylight Time),525900.3999999762,A,fingertrainchemney,O,y,270,1,9264.399999976158,516636.0,7186,WL,A,9.0
4,37.11999988555908,learn,22880.000114440918,Wed Jul 23 2025 16:04:06 GMT-0500 (Central Daylight Time),528181.8999999762,A,fingertrainchemneyenter,O,enter,2255,1,11545.899999976158,516636.0,7186,WL,A,9.0
4,39.47000002861023,learn,20529.99997138977,Wed Jul 23 2025 16:04:06 GMT-0500 (Central Daylight Time),530532.0,A,g,O,g,2338,1,2349.900000035763,528182.0999999642,7186,WL,A,10.0
4,39.670000076293945,learn,20329.999923706055,Wed Jul 23 2025 16:04:06 GMT-0500 (Central Daylight Time),530732.0,A,go,O,o,162,1,2549.900000035763,528182.0999999642,7186,WL,A,10.0
4,40.03600001335144,learn,19963.99998664856,Wed Jul 23 2025 16:04:06 GMT-0500 (Central Daylight Time),531098.5999999642,A,gol,O,l,338,1,2916.5,528182.0999999642,7186,WL,A,10.0
4,40.3529999256134,learn,19647.000074386597,Wed Jul 23 2025 16:04:06 GMT-0500 (Central Daylight Time),531414.8999999762,A,gold,O,d,294,1,3232.800000011921,528182.0999999642,7186,WL,A,10.0
4,41.651999950408936,learn,18348.000049591064,Wed Jul 23 2025 16:04:06 GMT-0500 (Central Daylight Time),532713.8000000119,A,goldenter,O,enter,1262,1,4531.700000047684,528182.0999999642,7186,WL,A,10.0
4,42.43499994277954,learn,17565.00005722046,Wed Jul 23 2025 16:04:06 GMT-0500 (Central Daylight Time),533497.5999999642,A,f,O,f,773,1,783.5999999642372,532714.0,7186,WL,A,11.0
4,42.70199990272522,learn,17298.00009727478,Wed Jul 23 2025 16:04:06 GMT-0500 (Central Daylight Time),533764.3999999762,A,fi,O,i,240,1,1050.3999999761581,532714.0,7186,WL,A,11.0
4,43.05200004577637,learn,16947.999954223633,Wed Jul 23 2025 16:04:06 GMT-0500 (Central Daylight Time),534114.3000000119,A,fin,O,n,322,1,1400.300000011921,532714.0,7186,WL,A,11.0
4,43.418999910354614,learn,16581.000089645386,Wed Jul 23 2025 16:04:06 GMT-0500 (Central Daylight Time),534480.8000000119,A,fing,O,g,340,1,1766.800000011921,532714.0,7186,WL,A,11.0
4,43.53600001335144,learn,16463.99998664856,Wed Jul 23 2025 16:04:06 GMT-0500 (Central Daylight Time),534598.0,A,finge,O,e,93,1,1884.0,532714.0,7186,WL,A,11.0
4,43.734999895095825,learn,16265.000104904175,Wed Jul 23 2025 16:04:06 GMT-0500 (Central Daylight Time),534797.6999999881,A,finger,O,r,160,1,2083.699999988079,532714.0,7186,WL,A,11.0
4,45.068000078201294,learn,14931.999921798706,Wed Jul 23 2025 16:04:06 GMT-0500 (Central Daylight Time),536130.5,A,fingerenter,O,enter,1296,1,3416.5,532714.0,7186,WL,A,11.0
4,46.59999990463257,learn,13400.000095367432,Wed Jul 23 2025 16:04:06 GMT-0500 (Central Daylight Time),537662.5,A,h,O,h,1525,1,1531.699999988079,536130.8000000119,7186,WL,A,12.0
4,46.73399996757507,learn,13266.000032424927,Wed Jul 23 2025 16:04:06 GMT-0500 (Central Daylight Time),537795.8999999762,A,ha,O,a,103,1,1665.0999999642372,536130.8000000119,7186,WL,A,12.0
4,47.134000062942505,learn,12865.999937057495,Wed Jul 23 2025 16:04:06 GMT-0500 (Central Daylight Time),538196.1999999881,A,har,O,r,380,1,2065.399999976158,536130.8000000119,7186,WL,A,12.0
4,47.76799988746643,learn,12232.00011253357,Wed Jul 23 2025 16:04:06 GMT-0500 (Central Daylight Time),538829.8999999762,A,harp,O,p,609,1,2699.099999964237,536130.8000000119,7186,WL,A,12.0
4,48.365999937057495,learn,11634.000062942505,Wed Jul 23 2025 16:04:06 GMT-0500 (Central Daylight Time),539428.0999999642,A,harpenter,O,enter,575,1,3297.2999999523163,536130.8000000119,7186,WL,A,12.0
4,51.865999937057495,learn,8134.000062942505,Wed Jul 23 2025 16:04:06 GMT-0500 (Central Daylight Time),542928.1999999881,A,f,O,f,3483,1,3499.800000011921,539428.3999999762,7186,WL,A,13.0
4,52.16599988937378,learn,7834.000110626221,Wed Jul 23 2025 16:04:06 GMT-0500 (Central Daylight Time),543227.6999999881,A,fl,O,l,262,1,3799.300000011921,539428.3999999762,7186,WL,A,13.0
4,52.41599988937378,learn,7584.000110626221,Wed Jul 23 2025 16:04:06 GMT-0500 (Central Daylight Time),543477.8000000119,A,flo,O,o,217,1,4049.400000035763,539428.3999999762,7186,WL,A,13.0
4,52.8989999294281,learn,7101.000070571899,Wed Jul 23 2025 16:04:06 GMT-0500 (Central Daylight Time),543960.6999999881,A,flow,O,w,456,1,4532.300000011921,539428.3999999762,7186,WL,A,13.0
4,53.1489999294281,learn,6851.000070571899,Wed Jul 23 2025 16:04:06 GMT-0500 (Central Daylight Time),544210.8999999762,A,flowe,O,e,222,1,4782.5,539428.3999999762,7186,WL,A,13.0
4,53.33200001716614,learn,6667.999982833862,Wed Jul 23 2025 16:04:06 GMT-0500 (Central Daylight Time),544394.1999999881,A,flower,O,r,154,1,4965.800000011921,539428.3999999762,7186,WL,A,13.0
4,54.21399998664856,learn,5786.00001335144,Wed Jul 23 2025 16:04:06 GMT-0500 (Central Daylight Time),545276.3000000119,A,flowerenter,O,enter,850,1,5847.900000035763,539428.3999999762,7186,WL,A,13.0
4,55.73099994659424,learn,4269.000053405762,Wed Jul 23 2025 16:04:06 GMT-0500 (Central Daylight Time),546793.3000000119,A,r,O,r,1507,1,1516.7000000476837,545276.5999999642,7186,WL,A,14.0
4,56.29800009727478,learn,3701.9999027252197,Wed Jul 23 2025 16:04:06 GMT-0500 (Central Daylight Time),547360.0,A,ra,O,a,538,1,2083.400000035763,545276.5999999642,7186,WL,A,14.0
4,56.73099994659424,learn,3269.0000534057617,Wed Jul 23 2025 16:04:06 GMT-0500 (Central Daylight Time),547793.0999999642,A,rat,O,t,403,1,2516.5,545276.5999999642,7186,WL,A,14.0
4,56.88100004196167,learn,3118.99995803833,Wed Jul 23 2025 16:04:06 GMT-0500 (Central Daylight Time),547943.0,A,ratt,O,t,116,1,2666.400000035763,545276.5999999642,7186,WL,A,14.0
4,57.44799995422363,learn,2552.000045776367,Wed Jul 23 2025 16:04:06 GMT-0500 (Central Daylight Time),548509.8000000119,A,rattl,O,l,530,1,3233.2000000476837,545276.5999999642,7186,WL,A,14.0
4,57.54800009727478,learn,2451.9999027252197,Wed Jul 23 2025 16:04:06 GMT-0500 (Central Daylight Time),548609.5,A,rattle,O,e,71,1,3332.900000035763,545276.5999999642,7186,WL,A,14.0
4,57.980000019073486,learn,2019.9999809265137,Wed Jul 23 2025 16:04:06 GMT-0500 (Central Daylight Time),549041.6999999881,A,rattleenter,O,enter,403,1,3765.100000023842,545276.5999999642,7186,WL,A,14.0
4,60.013999938964844,learn,-13.99993896484375,Wed Jul 23 2025 16:04:06 GMT-0500 (Central Daylight Time),551075.5999999642,A,None,O,None,2028,1,2033.5999999642372,549042.0,7186,WL,A,15.0
5,0.6670000553131104,learn,60000.0,Wed Jul 23 2025 16:04:06 GMT-0500 (Central Daylight Time),618886.8000000119,A,l,O,l,646,1,666.3000000119209,618220.5,7186,WL,A,1.0
5,0.8659999370574951,learn,60000.0,Wed Jul 23 2025 16:04:06 GMT-0500 (Central Daylight Time),619086.1999999881,A,lo,O,o,180,1,865.6999999880791,618220.5,7186,WL,A,1.0
5,1.2829999923706055,learn,60000.0,Wed Jul 23 2025 16:04:06 GMT-0500 (Central Daylight Time),619502.8000000119,A,log,O,g,386,1,1282.300000011921,618220.5,7186,WL,A,1.0
5,1.8489999771118164,learn,60000.0,Wed Jul 23 2025 16:04:06 GMT-0500 (Central Daylight Time),620068.3999999762,A,logenter,O,enter,527,1,1847.8999999761581,618220.5,7186,WL,A,1.0
5,2.4660000801086426,learn,60000.0,Wed Jul 23 2025 16:04:06 GMT-0500 (Central Daylight Time),620686.0999999642,A,k,O,k,611,1,617.3999999761581,620068.6999999881,7186,WL,A,2.0
5,2.6489999294281006,learn,60000.0,Wed Jul 23 2025 16:04:06 GMT-0500 (Central Daylight Time),620869.0,A,ke,O,e,143,1,800.3000000119209,620068.6999999881,7186,WL,A,2.0
5,2.8989999294281006,learn,60000.0,Wed Jul 23 2025 16:04:06 GMT-0500 (Central Daylight Time),621119.0999999642,A,key,O,y,226,1,1050.3999999761581,620068.6999999881,7186,WL,A,2.0
5,3.365000009536743,learn,60000.0,Wed Jul 23 2025 16:04:06 GMT-0500 (Central Daylight Time),621584.5999999642,A,keyenter,O,enter,437,1,1515.8999999761581,620068.6999999881,7186,WL,A,2.0
5,4.131999969482422,learn,60000.0,Wed Jul 23 2025 16:04:06 GMT-0500 (Central Daylight Time),622352.0,A,r,O,r,759,1,767.1000000238419,621584.8999999762,7186,WL,A,3.0
5,4.365999937057495,learn,60000.0,Wed Jul 23 2025 16:04:06 GMT-0500 (Central Daylight Time),622585.1999999881,A,ra,O,a,198,1,1000.3000000119209,621584.8999999762,7186,WL,A,3.0
5,5.084000110626221,learn,60000.0,Wed Jul 23 2025 16:04:06 GMT-0500 (Central Daylight Time),623303.6999999881,A,rat,O,t,694,1,1718.800000011921,621584.8999999762,7186,WL,A,3.0
5,5.249000072479248,learn,60000.0,Wed Jul 23 2025 16:04:06 GMT-0500 (Central Daylight Time),623468.8999999762,A,ratt,O,t,126,1,1884.0,621584.8999999762,7186,WL,A,3.0
5,5.749000072479248,learn,60000.0,Wed Jul 23 2025 16:04:06 GMT-0500 (Central Daylight Time),623968.5999999642,A,rattl,O,l,478,1,2383.699999988079,621584.8999999762,7186,WL,A,3.0
5,5.898000001907349,learn,60000.0,Wed Jul 23 2025 16:04:06 GMT-0500 (Central Daylight Time),624118.5,A,rattle,O,e,117,1,2533.600000023842,621584.8999999762,7186,WL,A,3.0
5,6.513999938964844,learn,60000.0,Wed Jul 23 2025 16:04:06 GMT-0500 (Central Daylight Time),624733.5999999642,A,rattleenter,O,enter,589,1,3148.699999988079,621584.8999999762,7186,WL,A,3.0
5,7.29800009727478,learn,60000.0,Wed Jul 23 2025 16:04:06 GMT-0500 (Central Daylight Time),625518.0,A,g,O,g,778,1,784.1999999880791,624733.8000000119,7186,WL,A,4.0
5,7.648000001907349,learn,60000.0,Wed Jul 23 2025 16:04:06 GMT-0500 (Central Daylight Time),625867.5,A,go,O,o,310,1,1133.699999988079,624733.8000000119,7186,WL,A,4.0
5,7.930999994277954,learn,60000.0,Wed Jul 23 2025 16:04:06 GMT-0500 (Central Daylight Time),626150.6999999881,A,gol,O,l,250,1,1416.8999999761581,624733.8000000119,7186,WL,A,4.0
5,8.263999938964844,learn,60000.0,Wed Jul 23 2025 16:04:06 GMT-0500 (Central Daylight Time),626484.0,A,gold,O,d,295,1,1750.199999988079,624733.8000000119,7186,WL,A,4.0
5,8.898000001907349,learn,60000.0,Wed Jul 23 2025 16:04:06 GMT-0500 (Central Daylight Time),627117.1999999881,A,goldenter,O,enter,602,1,2383.399999976158,624733.8000000119,7186,WL,A,4.0
5,9.263999938964844,learn,60000.0,Wed Jul 23 2025 16:04:06 GMT-0500 (Central Daylight Time),627483.1999999881,A,t,O,t,345,1,365.80000001192093,627117.3999999762,7186,WL,A,5.0
5,9.480999946594238,learn,60000.0,Wed Jul 23 2025 16:04:06 GMT-0500 (Central Daylight Time),627700.3000000119,A,tr,O,r,189,1,582.9000000357628,627117.3999999762,7186,WL,A,5.0
5,9.94700002670288,learn,60000.0,Wed Jul 23 2025 16:04:06 GMT-0500 (Central Daylight Time),628166.5999999642,A,tra,O,a,433,1,1049.199999988079,627117.3999999762,7186,WL,A,5.0
5,10.29699993133545,learn,60000.0,Wed Jul 23 2025 16:04:06 GMT-0500 (Central Daylight Time),628516.5,A,trai,O,i,311,1,1399.1000000238419,627117.3999999762,7186,WL,A,5.0
5,10.630000114440918,learn,60000.0,Wed Jul 23 2025 16:04:06 GMT-0500 (Central Daylight Time),628849.6999999881,A,train,O,n,298,1,1732.300000011921,627117.3999999762,7186,WL,A,5.0
5,11.729000091552734,learn,60000.0,Wed Jul 23 2025 16:04:06 GMT-0500 (Central Daylight Time),629948.3999999762,A,trainenter,O,enter,1074,1,2831.0,627117.3999999762,7186,WL,A,5.0
5,12.395999908447266,learn,60000.0,Wed Jul 23 2025 16:04:06 GMT-0500 (Central Daylight Time),630615.8000000119,A,m,O,m,659,1,667.2000000476837,629948.5999999642,7186,WL,A,6.0
5,12.562999963760376,learn,60000.0,Wed Jul 23 2025 16:04:06 GMT-0500 (Central Daylight Time),630782.1999999881,A,me,O,e,142,1,833.6000000238419,629948.5999999642,7186,WL,A,6.0
5,12.86299991607666,learn,60000.0,Wed Jul 23 2025 16:04:06 GMT-0500 (Central Daylight Time),631082.8000000119,A,mea,O,a,264,1,1134.2000000476837,629948.5999999642,7186,WL,A,6.0
5,13.128999948501587,learn,60000.0,Wed Jul 23 2025 16:04:06 GMT-0500 (Central Daylight Time),631348.3999999762,A,mead,O,d,226,1,1399.800000011921,629948.5999999642,7186,WL,A,6.0
5,13.713000059127808,learn,60000.0,Wed Jul 23 2025 16:04:06 GMT-0500 (Central Daylight Time),631932.1999999881,A,meado,O,o,563,1,1983.6000000238419,629948.5999999642,7186,WL,A,6.0
5,14.178999900817871,learn,60000.0,Wed Jul 23 2025 16:04:06 GMT-0500 (Central Daylight Time),632398.5999999642,A,meadow,O,w,440,1,2450.0,629948.5999999642,7186,WL,A,6.0
5,15.027999877929688,learn,60000.0,Wed Jul 23 2025 16:04:06 GMT-0500 (Central Daylight Time),633247.3999999762,A,meadowenter,O,enter,823,1,3298.800000011921,629948.5999999642,7186,WL,A,6.0
5,15.428999900817871,learn,60000.0,Wed Jul 23 2025 16:04:06 GMT-0500 (Central Daylight Time),633648.3000000119,A,a,O,a,384,1,400.60000002384186,633247.6999999881,7186,WL,A,7.0
5,15.795000076293945,learn,60000.0,Wed Jul 23 2025 16:04:06 GMT-0500 (Central Daylight Time),634014.3999999762,A,ap,O,p,342,1,766.6999999880791,633247.6999999881,7186,WL,A,7.0
5,15.961999893188477,learn,60000.0,Wed Jul 23 2025 16:04:06 GMT-0500 (Central Daylight Time),634181.3999999762,A,app,O,p,136,1,933.6999999880791,633247.6999999881,7186,WL,A,7.0
5,16.34500002861023,learn,60000.0,Wed Jul 23 2025 16:04:06 GMT-0500 (Central Daylight Time),634564.5999999642,A,appl,O,l,352,1,1316.8999999761581,633247.6999999881,7186,WL,A,7.0
5,16.57800006866455,learn,60000.0,Wed Jul 23 2025 16:04:06 GMT-0500 (Central Daylight Time),634798.0,A,apple,O,e,203,1,1550.300000011921,633247.6999999881,7186,WL,A,7.0
5,17.259999990463257,learn,60000.0,Wed Jul 23 2025 16:04:06 GMT-0500 (Central Daylight Time),635480.0,A,appleenter,O,enter,654,1,2232.300000011921,633247.6999999881,7186,WL,A,7.0
5,17.82800006866455,learn,60000.0,Wed Jul 23 2025 16:04:06 GMT-0500 (Central Daylight Time),636047.1999999881,A,s,O,s,559,1,566.8999999761581,635480.3000000119,7186,WL,A,8.0
5,18.094000101089478,learn,60000.0,Wed Jul 23 2025 16:04:06 GMT-0500 (Central Daylight Time),636313.8999999762,A,sa,O,a,231,1,833.5999999642372,635480.3000000119,7186,WL,A,8.0
5,18.844000101089478,learn,60000.0,Wed Jul 23 2025 16:04:06 GMT-0500 (Central Daylight Time),637063.3000000119,A,sal,O,l,722,1,1583.0,635480.3000000119,7186,WL,A,8.0
5,19.77900004386902,learn,60000.0,Wed Jul 23 2025 16:04:06 GMT-0500 (Central Daylight Time),637998.1999999881,A,salt,O,t,919,1,2517.899999976158,635480.3000000119,7186,WL,A,8.0
5,20.575999975204468,learn,60000.0,Wed Jul 23 2025 16:04:06 GMT-0500 (Central Daylight Time),638795.5999999642,A,saltenter,O,enter,759,1,3315.2999999523163,635480.3000000119,7186,WL,A,8.0
5,21.792999982833862,learn,60000.0,Wed Jul 23 2025 16:04:06 GMT-0500 (Central Daylight Time),640012.8999999762,A,f,O,f,1196,1,1217.0,638795.8999999762,7186,WL,A,9.0
5,22.109999895095825,learn,60000.0,Wed Jul 23 2025 16:04:06 GMT-0500 (Central Daylight Time),640329.3999999762,A,fl,O,l,281,1,1533.5,638795.8999999762,7186,WL,A,9.0
5,22.375999927520752,learn,60000.0,Wed Jul 23 2025 16:04:06 GMT-0500 (Central Daylight Time),640596.0999999642,A,flo,O,o,236,1,1800.199999988079,638795.8999999762,7186,WL,A,9.0
5,22.960000038146973,learn,60000.0,Wed Jul 23 2025 16:04:06 GMT-0500 (Central Daylight Time),641179.0999999642,A,flow,O,w,556,1,2383.199999988079,638795.8999999762,7186,WL,A,9.0
5,23.20900011062622,learn,60000.0,Wed Jul 23 2025 16:04:06 GMT-0500 (Central Daylight Time),641429.0999999642,A,flowe,O,e,210,1,2633.199999988079,638795.8999999762,7186,WL,A,9.0
5,23.408999919891357,learn,60000.0,Wed Jul 23 2025 16:04:06 GMT-0500 (Central Daylight Time),641628.8999999762,A,flower,O,r,159,1,2833.0,638795.8999999762,7186,WL,A,9.0
5,23.924999952316284,learn,60000.0,Wed Jul 23 2025 16:04:06 GMT-0500 (Central Daylight Time),642144.5999999642,A,flowerenter,O,enter,480,1,3348.699999988079,638795.8999999762,7186,WL,A,9.0
5,24.2260000705719,learn,60000.0,Wed Jul 23 2025 16:04:06 GMT-0500 (Central Daylight Time),642446.0999999642,A,t,O,t,295,1,301.2999999523163,642144.8000000119,7186,WL,A,10.0
5,24.47499990463257,learn,60000.0,Wed Jul 23 2025 16:04:06 GMT-0500 (Central Daylight Time),642695.0,A,tr,O,r,222,1,550.1999999880791,642144.8000000119,7186,WL,A,10.0
5,25.05900001525879,learn,60000.0,Wed Jul 23 2025 16:04:06 GMT-0500 (Central Daylight Time),643278.3999999762,A,tra,O,a,561,1,1133.5999999642372,642144.8000000119,7186,WL,A,10.0
5,25.407999992370605,learn,60000.0,Wed Jul 23 2025 16:04:06 GMT-0500 (Central Daylight Time),643628.0,A,trai,O,i,311,1,1483.199999988079,642144.8000000119,7186,WL,A,10.0
5,25.842000007629395,learn,60000.0,Wed Jul 23 2025 16:04:06 GMT-0500 (Central Daylight Time),644062.0,A,train,O,n,414,1,1917.199999988079,642144.8000000119,7186,WL,A,10.0
5,26.506999969482422,learn,60000.0,Wed Jul 23 2025 16:04:06 GMT-0500 (Central Daylight Time),644727.0,A,trainenter,O,enter,639,1,2582.199999988079,642144.8000000119,7186,WL,A,10.0
5,27.04099988937378,learn,60000.0,Wed Jul 23 2025 16:04:06 GMT-0500 (Central Daylight Time),645261.0999999642,A,r,O,r,521,1,533.7999999523163,644727.3000000119,7186,WL,A,11.0
5,27.47499990463257,learn,60000.0,Wed Jul 23 2025 16:04:06 GMT-0500 (Central Daylight Time),645694.5,A,ru,O,u,400,1,967.1999999880791,644727.3000000119,7186,WL,A,11.0
5,28.223999977111816,learn,60000.0,Wed Jul 23 2025 16:04:06 GMT-0500 (Central Daylight Time),646444.1999999881,A,rug,O,g,720,1,1716.8999999761581,644727.3000000119,7186,WL,A,11.0
5,28.707000017166138,learn,60000.0,Wed Jul 23 2025 16:04:06 GMT-0500 (Central Daylight Time),646926.3000000119,A,rugenter,O,enter,458,1,2199.0,644727.3000000119,7186,WL,A,11.0
5,29.174000024795532,learn,60000.0,Wed Jul 23 2025 16:04:06 GMT-0500 (Central Daylight Time),647393.8000000119,A,l,O,l,457,1,467.2000000476837,646926.5999999642,7186,WL,A,12.0
5,29.407999992370605,learn,60000.0,Wed Jul 23 2025 16:04:06 GMT-0500 (Central Daylight Time),647627.1999999881,A,lo,O,o,204,1,700.6000000238419,646926.5999999642,7186,WL,A,12.0
5,29.874000072479248,learn,60000.0,Wed Jul 23 2025 16:04:06 GMT-0500 (Central Daylight Time),648093.1999999881,A,log,O,g,427,1,1166.6000000238419,646926.5999999642,7186,WL,A,12.0
5,31.471999883651733,learn,60000.0,Wed Jul 23 2025 16:04:06 GMT-0500 (Central Daylight Time),649692.0,A,logenter,O,enter,1569,1,2765.400000035763,646926.5999999642,7186,WL,A,12.0
5,33.27300000190735,learn,60000.0,Wed Jul 23 2025 16:04:06 GMT-0500 (Central Daylight Time),651492.3000000119,A,b,O,b,1779,1,1800.0,649692.3000000119,7186,WL,A,13.0
5,33.789000034332275,learn,60000.0,Wed Jul 23 2025 16:04:06 GMT-0500 (Central Daylight Time),652008.8999999762,A,bu,O,u,489,1,2316.599999964237,649692.3000000119,7186,WL,A,13.0
5,34.138999938964844,learn,60000.0,Wed Jul 23 2025 16:04:06 GMT-0500 (Central Daylight Time),652358.6999999881,A,but,O,t,326,1,2666.399999976158,649692.3000000119,7186,WL,A,13.0
5,34.32299995422363,learn,60000.0,Wed Jul 23 2025 16:04:06 GMT-0500 (Central Daylight Time),652542.6999999881,A,butt,O,t,163,1,2850.399999976158,649692.3000000119,7186,WL,A,13.0
5,34.82200002670288,learn,60000.0,Wed Jul 23 2025 16:04:06 GMT-0500 (Central Daylight Time),653042.0999999642,A,butto,O,o,463,1,3349.7999999523163,649692.3000000119,7186,WL,A,13.0
5,35.15499997138977,learn,60000.0,Wed Jul 23 2025 16:04:06 GMT-0500 (Central Daylight Time),653374.8999999762,A,button,O,n,308,1,3682.599999964237,649692.3000000119,7186,WL,A,13.0
5,35.704999923706055,learn,60000.0,Wed Jul 23 2025 16:04:06 GMT-0500 (Central Daylight Time),653924.1999999881,A,buttonenter,O,enter,525,1,4231.899999976158,649692.3000000119,7186,WL,A,13.0
5,37.105000019073486,learn,60000.0,Wed Jul 23 2025 16:04:06 GMT-0500 (Central Daylight Time),655324.6999999881,A,s,O,s,1387,1,1400.300000011921,653924.3999999762,7186,WL,A,14.0
5,37.355000019073486,learn,60000.0,Wed Jul 23 2025 16:04:06 GMT-0500 (Central Daylight Time),655574.0999999642,A,sa,O,a,226,1,1649.699999988079,653924.3999999762,7186,WL,A,14.0
5,37.75500011444092,learn,60000.0,Wed Jul 23 2025 16:04:06 GMT-0500 (Central Daylight Time),655974.3999999762,A,sal,O,l,375,1,2050.0,653924.3999999762,7186,WL,A,14.0
5,38.187000036239624,learn,60000.0,Wed Jul 23 2025 16:04:06 GMT-0500 (Central Daylight Time),656407.0,A,salt,O,t,407,1,2482.600000023842,653924.3999999762,7186,WL,A,14.0
5,38.63700008392334,learn,60000.0,Wed Jul 23 2025 16:04:06 GMT-0500 (Central Daylight Time),656856.3999999762,A,saltenter,O,enter,418,1,2932.0,653924.3999999762,7186,WL,A,14.0
5,42.26900005340576,learn,60000.0,Wed Jul 23 2025 16:04:06 GMT-0500 (Central Daylight Time),660488.3000000119,A,h,O,h,3622,1,3631.600000023842,656856.6999999881,7186,WL,A,15.0
5,42.43600010871887,learn,60000.0,Wed Jul 23 2025 16:04:06 GMT-0500 (Central Daylight Time),660654.8999999762,A,ha,O,a,150,1,3798.199999988079,656856.6999999881,7186,WL,A,15.0
5,42.8529999256134,learn,60000.0,Wed Jul 23 2025 16:04:06 GMT-0500 (Central Daylight Time),661072.8000000119,A,har,O,r,400,1,4216.100000023842,656856.6999999881,7186,WL,A,15.0
5,43.3199999332428,learn,60000.0,Wed Jul 23 2025 16:04:06 GMT-0500 (Central Daylight Time),661539.0999999642,A,harp,O,p,436,1,4682.399999976158,656856.6999999881,7186,WL,A,15.0
5,43.76900005340576,learn,60000.0,Wed Jul 23 2025 16:04:06 GMT-0500 (Central Daylight Time),661987.8000000119,A,harpenter,O,enter,414,1,5131.100000023842,656856.6999999881,7186,WL,A,15.0
6,1.4499998092651367,distr,58550.00019073486,Wed Jul 23 2025 16:04:06 GMT-0500 (Central Daylight Time),728717.3000000119,B,p,O,p,1413,1,1449.4000000357628,727267.8999999762,7186,WL,A,1.0
6,1.7170000076293945,distr,58282.999992370605,Wed Jul 23 2025 16:04:06 GMT-0500 (Central Daylight Time),728983.8000000119,B,pe,O,e,233,1,1715.9000000357628,727267.8999999762,7186,WL,A,1.0
6,2.0,distr,58000.0,Wed Jul 23 2025 16:04:06 GMT-0500 (Central Daylight Time),729266.6999999881,B,pea,O,a,253,1,1998.800000011921,727267.8999999762,7186,WL,A,1.0
6,2.366999864578247,distr,57633.00013542175,Wed Jul 23 2025 16:04:06 GMT-0500 (Central Daylight Time),729633.5999999642,B,peac,O,c,338,1,2365.699999988079,727267.8999999762,7186,WL,A,1.0
6,2.7659997940063477,distr,57234.00020599365,Wed Jul 23 2025 16:04:06 GMT-0500 (Central Daylight Time),730033.3999999762,B,peach,O,h,374,1,2765.5,727267.8999999762,7186,WL,A,1.0
6,3.4819998741149902,distr,56518.00012588501,Wed Jul 23 2025 16:04:06 GMT-0500 (Central Daylight Time),730748.8999999762,B,peachenter,O,enter,684,1,3481.0,727267.8999999762,7186,WL,A,1.0
6,3.982999801635742,distr,56017.00019836426,Wed Jul 23 2025 16:04:06 GMT-0500 (Central Daylight Time),731249.6999999881,B,c,O,c,483,1,500.60000002384186,730749.0999999642,7186,WL,A,2.0
6,4.348999977111816,distr,55651.00002288818,Wed Jul 23 2025 16:04:06 GMT-0500 (Central Daylight Time),731616.0999999642,B,ch,O,h,340,1,867.0,730749.0999999642,7186,WL,A,2.0
6,4.73199987411499,distr,55268.00012588501,Wed Jul 23 2025 16:04:06 GMT-0500 (Central Daylight Time),731999.0,B,cha,O,a,360,1,1249.9000000357628,730749.0999999642,7186,WL,A,2.0
6,5.048999786376953,distr,54951.00021362305,Wed Jul 23 2025 16:04:06 GMT-0500 (Central Daylight Time),732315.6999999881,B,chai,O,i,287,1,1566.6000000238419,730749.0999999642,7186,WL,A,2.0
6,6.164999961853027,distr,53835.00003814697,Wed Jul 23 2025 16:04:06 GMT-0500 (Central Daylight Time),733431.8000000119,B,chair,O,r,1088,1,2682.7000000476837,730749.0999999642,7186,WL,A,2.0
6,6.696999788284302,distr,53303.0002117157,Wed Jul 23 2025 16:04:06 GMT-0500 (Central Daylight Time),733964.3000000119,B,chairenter,O,enter,509,1,3215.2000000476837,730749.0999999642,7186,WL,A,2.0
6,7.264999866485596,distr,52735.000133514404,Wed Jul 23 2025 16:04:06 GMT-0500 (Central Daylight Time),734532.0,B,b,O,b,547,1,567.5,733964.5,7186,WL,A,3.0
6,7.56499981880188,distr,52435.00018119812,Wed Jul 23 2025 16:04:06 GMT-0500 (Central Daylight Time),734831.8000000119,B,bo,O,o,274,1,867.3000000119209,733964.5,7186,WL,A,3.0
6,8.497999906539917,distr,51502.00009346008,Wed Jul 23 2025 16:04:06 GMT-0500 (Central Daylight Time),735764.6999999881,B,bow,O,w,895,1,1800.199999988079,733964.5,7186,WL,A,3.0
6,8.797999858856201,distr,51202.0001411438,Wed Jul 23 2025 16:04:06 GMT-0500 (Central Daylight Time),736064.8000000119,B,bowl,O,l,266,1,2100.300000011921,733964.5,7186,WL,A,3.0
6,9.312999963760376,distr,50687.000036239624,Wed Jul 23 2025 16:04:06 GMT-0500 (Central Daylight Time),736580.3000000119,B,bowlenter,O,enter,483,1,2615.800000011921,733964.5,7186,WL,A,3.0
6,9.696999788284302,distr,50303.0002117157,Wed Jul 23 2025 16:04:06 GMT-0500 (Central Daylight Time),736964.3999999762,B,p,O,p,371,1,383.89999997615814,736580.5,7186,WL,A,4.0
6,9.980999946594238,distr,50019.00005340576,Wed Jul 23 2025 16:04:06 GMT-0500 (Central Daylight Time),737247.5,B,po,O,o,256,1,667.0,736580.5,7186,WL,A,4.0
6,10.148000001907349,distr,49851.99999809265,Wed Jul 23 2025 16:04:06 GMT-0500 (Central Daylight Time),737414.5999999642,B,poo,O,o,143,1,834.0999999642372,736580.5,7186,WL,A,4.0
6,10.413999795913696,distr,49586.000204086304,Wed Jul 23 2025 16:04:06 GMT-0500 (Central Daylight Time),737680.8000000119,B,pool,O,l,236,1,1100.300000011921,736580.5,7186,WL,A,4.0
6,11.495999813079834,distr,48504.000186920166,Wed Jul 23 2025 16:04:06 GMT-0500 (Central Daylight Time),738762.8999999762,B,poolenter,O,enter,1052,1,2182.399999976158,736580.5,7186,WL,A,4.0
6,13.212999820709229,distr,46787.00017929077,Wed Jul 23 2025 16:04:06 GMT-0500 (Central Daylight Time),740479.8000000119,B,p,O,p,1700,1,1716.7000000476837,738763.0999999642,7186,WL,A,5.0
6,13.44599986076355,distr,46554.00013923645,Wed Jul 23 2025 16:04:06 GMT-0500 (Central Daylight Time),740713.3000000119,B,pl,O,l,205,1,1950.2000000476837,738763.0999999642,7186,WL,A,5.0
6,13.645999908447266,distr,46354.000091552734,Wed Jul 23 2025 16:04:06 GMT-0500 (Central Daylight Time),740913.3000000119,B,pla,O,a,165,1,2150.2000000476837,738763.0999999642,7186,WL,A,5.0
6,14.428999900817871,distr,45571.00009918213,Wed Jul 23 2025 16:04:06 GMT-0500 (Central Daylight Time),741696.3999999762,B,plan,O,n,757,1,2933.300000011921,738763.0999999642,7186,WL,A,5.0
6,14.645999908447266,distr,45354.000091552734,Wed Jul 23 2025 16:04:06 GMT-0500 (Central Daylight Time),741912.8999999762,B,plane,O,e,184,1,3149.800000011921,738763.0999999642,7186,WL,A,5.0
6,15.610999822616577,distr,44389.00017738342,Wed Jul 23 2025 16:04:06 GMT-0500 (Central Daylight Time),742878.1999999881,B,planeenter,O,enter,933,1,4115.100000023842,738763.0999999642,7186,WL,A,5.0
6,19.8439998626709,distr,40156.0001373291,Wed Jul 23 2025 16:04:06 GMT-0500 (Central Daylight Time),747111.0999999642,B,i,O,i,4217,1,4232.599999964237,742878.5,7186,WL,A,6.0
6,20.126999855041504,distr,39873.000144958496,Wed Jul 23 2025 16:04:06 GMT-0500 (Central Daylight Time),747394.3000000119,B,in,O,n,255,1,4515.800000011921,742878.5,7186,WL,A,6.0
6,20.526999950408936,distr,39473.000049591064,Wed Jul 23 2025 16:04:06 GMT-0500 (Central Daylight Time),747794.3000000119,B,ins,O,s,373,1,4915.800000011921,742878.5,7186,WL,A,6.0
6,20.80999994277954,distr,39190.00005722046,Wed Jul 23 2025 16:04:06 GMT-0500 (Central Daylight Time),748077.1999999881,B,inse,O,e,242,1,5198.699999988079,742878.5,7186,WL,A,6.0
6,21.459999799728394,distr,38540.00020027161,Wed Jul 23 2025 16:04:06 GMT-0500 (Central Daylight Time),748726.8000000119,B,insec,O,c,625,1,5848.300000011921,742878.5,7186,WL,A,6.0
6,21.709999799728394,distr,38290.00020027161,Wed Jul 23 2025 16:04:06 GMT-0500 (Central Daylight Time),748977.3000000119,B,insect,O,t,213,1,6098.800000011921,742878.5,7186,WL,A,6.0
6,22.825999975204468,distr,37174.00002479553,Wed Jul 23 2025 16:04:06 GMT-0500 (Central Daylight Time),750092.5,B,insectenter,O,enter,1074,1,7214.0,742878.5,7186,WL,A,6.0
6,25.525999784469604,distr,34474.000215530396,Wed Jul 23 2025 16:04:06 GMT-0500 (Central Daylight Time),752792.5999999642,B,b,O,b,2691,1,2699.7999999523163,750092.8000000119,7186,WL,A,7.0
6,25.924999952316284,distr,34075.000047683716,Wed Jul 23 2025 16:04:06 GMT-0500 (Central Daylight Time),753192.3000000119,B,bo,O,o,366,1,3099.5,750092.8000000119,7186,WL,A,7.0
6,26.223999977111816,distr,33776.00002288818,Wed Jul 23 2025 16:04:06 GMT-0500 (Central Daylight Time),753491.1999999881,B,bot,O,t,272,1,3398.399999976158,750092.8000000119,7186,WL,A,7.0
6,26.407999992370605,distr,33592.000007629395,Wed Jul 23 2025 16:04:06 GMT-0500 (Central Daylight Time),753674.5999999642,B,bott,O,t,162,1,3581.7999999523163,750092.8000000119,7186,WL,A,7.0
6,26.54099988937378,distr,33459.00011062622,Wed Jul 23 2025 16:04:06 GMT-0500 (Central Daylight Time),753807.8999999762,B,bottl,O,l,124,1,3715.099999964237,750092.8000000119,7186,WL,A,7.0
6,26.840999841690063,distr,33159.00015830994,Wed Jul 23 2025 16:04:06 GMT-0500 (Central Daylight Time),754107.8999999762,B,bottle,O,e,294,1,4015.099999964237,750092.8000000119,7186,WL,A,7.0
6,27.807999849319458,distr,32192.000150680542,Wed Jul 23 2025 16:04:06 GMT-0500 (Central Daylight Time),755075.3999999762,B,bottleenter,O,enter,946,1,4982.599999964237,750092.8000000119,7186,WL,A,7.0
6,30.972999811172485,distr,29027.000188827515,Wed Jul 23 2025 16:04:06 GMT-0500 (Central Daylight Time),758239.6999999881,B,enter,O,enter,3155,1,3164.100000023842,755075.5999999642,7186,WL,A,8.0
6,31.83899998664856,distr,28161.00001335144,Wed Jul 23 2025 16:04:06 GMT-0500 (Central Daylight Time),759106.1999999881,B,enter,O,enter,846,1,866.1999999880791,758240.0,7186,WL,A,9.0
6,32.22199988365173,distr,27778.000116348267,Wed Jul 23 2025 16:04:06 GMT-0500 (Central Daylight Time),759489.3999999762,B,enter,O,enter,372,1,382.80000001192093,759106.5999999642,7186,WL,A,10.0
6,32.93899989128113,distr,27061.000108718872,Wed Jul 23 2025 16:04:06 GMT-0500 (Central Daylight Time),760205.5999999642,B,enter,O,enter,709,1,715.8999999761581,759489.6999999881,7186,WL,A,11.0
6,33.68899989128113,distr,26311.000108718872,Wed Jul 23 2025 16:04:06 GMT-0500 (Central Daylight Time),760955.5,B,enter,O,enter,728,1,749.6000000238419,760205.8999999762,7186,WL,A,12.0
6,34.121999979019165,distr,25878.000020980835,Wed Jul 23 2025 16:04:06 GMT-0500 (Central Daylight Time),761388.8000000119,B,enter,O,enter,418,1,433.0,760955.8000000119,7186,WL,A,13.0
6,34.537999868392944,distr,25462.000131607056,Wed Jul 23 2025 16:04:06 GMT-0500 (Central Daylight Time),761805.3000000119,B,enter,O,enter,401,1,416.2000000476837,761389.0999999642,7186,WL,A,14.0
6,34.92199993133545,distr,25078.00006866455,Wed Jul 23 2025 16:04:06 GMT-0500 (Central Daylight Time),762188.5999999642,B,enter,O,enter,369,1,383.0,761805.5999999642,7186,WL,A,15.0
7,0.6160001754760742,immed,59383.999824523926,Wed Jul 23 2025 16:04:06 GMT-0500 (Central Daylight Time),773701.1999999881,A,t,O,t,609,1,616.3000000119209,773084.8999999762,7186,WL,A,1.0
7,0.817000150680542,immed,59182.99984931946,Wed Jul 23 2025 16:04:06 GMT-0500 (Central Daylight Time),773901.6999999881,A,tr,O,r,193,1,816.8000000119209,773084.8999999762,7186,WL,A,1.0
7,1.001000165939331,immed,58998.99983406067,Wed Jul 23 2025 16:04:06 GMT-0500 (Central Daylight Time),774085.5999999642,A,tra,O,a,153,1,1000.6999999880791,773084.8999999762,7186,WL,A,1.0
7,1.684000015258789,immed,58315.99998474121,Wed Jul 23 2025 16:04:06 GMT-0500 (Central Daylight Time),774768.8000000119,A,trai,O,i,647,1,1683.9000000357628,773084.8999999762,7186,WL,A,1.0
7,2.5,immed,57500.0,Wed Jul 23 2025 16:04:06 GMT-0500 (Central Daylight Time),775585.1999999881,A,train,O,n,782,1,2500.300000011921,773084.8999999762,7186,WL,A,1.0
7,3.366000175476074,immed,56633.999824523926,Wed Jul 23 2025 16:04:06 GMT-0500 (Central Daylight Time),776450.5,A,trainenter,O,enter,836,1,3365.600000023842,773084.8999999762,7186,WL,A,1.0
7,4.183000087738037,immed,55816.99991226196,Wed Jul 23 2025 16:04:06 GMT-0500 (Central Daylight Time),777267.8000000119,A,r,O,r,805,1,817.0,776450.8000000119,7186,WL,A,2.0
7,4.683000087738037,immed,55316.99991226196,Wed Jul 23 2025 16:04:06 GMT-0500 (Central Daylight Time),777767.5999999642,A,ru,O,u,473,1,1316.7999999523163,776450.8000000119,7186,WL,A,2.0
7,5.266000032424927,immed,54733.99996757507,Wed Jul 23 2025 16:04:06 GMT-0500 (Central Daylight Time),778350.1999999881,A,rug,O,g,558,1,1899.3999999761581,776450.8000000119,7186,WL,A,2.0
7,6.115000009536743,immed,53884.99999046326,Wed Jul 23 2025 16:04:06 GMT-0500 (Central Daylight Time),779199.5,A,rugenter,O,enter,833,1,2748.699999988079,776450.8000000119,7186,WL,A,2.0
7,6.89900016784668,immed,53100.99983215332,Wed Jul 23 2025 16:04:06 GMT-0500 (Central Daylight Time),779983.8000000119,A,m,O,m,768,1,784.0,779199.8000000119,7186,WL,A,3.0
7,7.116000175476074,immed,52883.999824523926,Wed Jul 23 2025 16:04:06 GMT-0500 (Central Daylight Time),780200.1999999881,A,me,O,e,189,1,1000.3999999761581,779199.8000000119,7186,WL,A,3.0
7,7.433000087738037,immed,52566.99991226196,Wed Jul 23 2025 16:04:06 GMT-0500 (Central Daylight Time),780517.0999999642,A,mea,O,a,277,1,1317.2999999523163,779199.8000000119,7186,WL,A,3.0
7,7.765000104904175,immed,52234.999895095825,Wed Jul 23 2025 16:04:06 GMT-0500 (Central Daylight Time),780849.8999999762,A,mead,O,d,307,1,1650.0999999642372,779199.8000000119,7186,WL,A,3.0
7,8.365000009536743,immed,51634.99999046326,Wed Jul 23 2025 16:04:06 GMT-0500 (Central Daylight Time),781449.8000000119,A,meado,O,o,564,1,2250.0,779199.8000000119,7186,WL,A,3.0
7,8.532000064849854,immed,51467.99993515015,Wed Jul 23 2025 16:04:06 GMT-0500 (Central Daylight Time),781616.5,A,meadow,O,w,133,1,2416.699999988079,779199.8000000119,7186,WL,A,3.0
7,9.597000122070312,immed,50402.99987792969,Wed Jul 23 2025 16:04:06 GMT-0500 (Central Daylight Time),782682.0,A,meadowenter,O,enter,1027,1,3482.199999988079,779199.8000000119,7186,WL,A,3.0
7,11.064000129699707,immed,48935.99987030029,Wed Jul 23 2025 16:04:06 GMT-0500 (Central Daylight Time),784149.1999999881,A,g,O,g,1455,1,1467.1000000238419,782682.0999999642,7186,WL,A,4.0
7,11.398000001907349,immed,48601.99999809265,Wed Jul 23 2025 16:04:06 GMT-0500 (Central Daylight Time),784482.5,A,go,O,o,301,1,1800.4000000357628,782682.0999999642,7186,WL,A,4.0
7,11.664000034332275,immed,48335.999965667725,Wed Jul 23 2025 16:04:06 GMT-0500 (Central Daylight Time),784748.6999999881,A,gol,O,l,226,1,2066.600000023842,782682.0999999642,7186,WL,A,4.0
7,12.047000169754028,immed,47952.99983024597,Wed Jul 23 2025 16:04:06 GMT-0500 (Central Daylight Time),785132.0999999642,A,gold,O,d,348,1,2450.0,782682.0999999642,7186,WL,A,4.0
7,12.562999963760376,immed,47437.000036239624,Wed Jul 23 2025 16:04:06 GMT-0500 (Central Daylight Time),785647.5,A,goldenter,O,enter,490,1,2965.400000035763,782682.0999999642,7186,WL,A,4.0
7,13.114000082015991,immed,46885.99991798401,Wed Jul 23 2025 16:04:06 GMT-0500 (Central Daylight Time),786198.3999999762,A,a,O,a,545,1,550.6999999880791,785647.6999999881,7186,WL,A,5.0
7,13.664000034332275,immed,46335.999965667725,Wed Jul 23 2025 16:04:06 GMT-0500 (Central Daylight Time),786748.3000000119,A,ap,O,p,519,1,1100.6000000238419,785647.6999999881,7186,WL,A,5.0
7,13.814000129699707,immed,46185.99987030029,Wed Jul 23 2025 16:04:06 GMT-0500 (Central Daylight Time),786898.1999999881,A,app,O,p,122,1,1250.5,785647.6999999881,7186,WL,A,5.0
7,14.097000122070312,immed,45902.99987792969,Wed Jul 23 2025 16:04:06 GMT-0500 (Central Daylight Time),787181.5999999642,A,appl,O,l,244,1,1533.8999999761581,785647.6999999881,7186,WL,A,5.0
7,14.36300015449524,immed,45636.99984550476,Wed Jul 23 2025 16:04:06 GMT-0500 (Central Daylight Time),787447.5999999642,A,apple,O,e,240,1,1799.8999999761581,785647.6999999881,7186,WL,A,5.0
7,15.513000011444092,immed,44486.99998855591,Wed Jul 23 2025 16:04:06 GMT-0500 (Central Daylight Time),788597.5999999642,A,appleenter,O,enter,1129,1,2949.899999976158,785647.6999999881,7186,WL,A,5.0
7,17.17799997329712,immed,42822.00002670288,Wed Jul 23 2025 16:04:06 GMT-0500 (Central Daylight Time),790263.0,A,f,O,f,1657,1,1665.300000011921,788597.6999999881,7186,WL,A,6.0
7,17.896000146865845,immed,42103.999853134155,Wed Jul 23 2025 16:04:06 GMT-0500 (Central Daylight Time),790980.1999999881,A,fi,O,i,688,1,2382.5,788597.6999999881,7186,WL,A,6.0
7,18.312000036239624,immed,41687.999963760376,Wed Jul 23 2025 16:04:06 GMT-0500 (Central Daylight Time),791396.6999999881,A,fin,O,n,377,1,2799.0,788597.6999999881,7186,WL,A,6.0
7,18.628000020980835,immed,41371.999979019165,Wed Jul 23 2025 16:04:06 GMT-0500 (Central Daylight Time),791713.0999999642,A,fing,O,g,289,1,3115.399999976158,788597.6999999881,7186,WL,A,6.0
7,18.76200008392334,immed,41237.99991607666,Wed Jul 23 2025 16:04:06 GMT-0500 (Central Daylight Time),791846.6999999881,A,finge,O,e,110,1,3249.0,788597.6999999881,7186,WL,A,6.0
7,18.962000131607056,immed,41037.999868392944,Wed Jul 23 2025 16:04:06 GMT-0500 (Central Daylight Time),792046.3999999762,A,finger,O,r,167,1,3448.699999988079,788597.6999999881,7186,WL,A,6.0
7,19.960000038146973,immed,40039.99996185303,Wed Jul 23 2025 16:04:06 GMT-0500 (Central Daylight Time),793045.0,A,fingerenter,O,enter,974,1,4447.300000011921,788597.6999999881,7186,WL,A,6.0
7,22.243000030517578,immed,37756.99996948242,Wed Jul 23 2025 16:04:06 GMT-0500 (Central Daylight Time),795327.5,A,t,O,t,2272,1,2282.199999988079,793045.3000000119,7186,WL,A,7.0
7,22.4760000705719,immed,37523.9999294281,Wed Jul 23 2025 16:04:06 GMT-0500 (Central Daylight Time),795560.6999999881,A,tr,O,r,214,1,2515.399999976158,793045.3000000119,7186,WL,A,7.0
7,22.960000038146973,immed,37039.99996185303,Wed Jul 23 2025 16:04:06 GMT-0500 (Central Daylight Time),796044.1999999881,A,tra,O,a,477,1,2998.899999976158,793045.3000000119,7186,WL,A,7.0
7,23.259000062942505,immed,36740.999937057495,Wed Jul 23 2025 16:04:06 GMT-0500 (Central Daylight Time),796343.8000000119,A,trai,O,i,289,1,3298.5,793045.3000000119,7186,WL,A,7.0
7,23.592000007629395,immed,36407.999992370605,Wed Jul 23 2025 16:04:06 GMT-0500 (Central Daylight Time),796677.0999999642,A,train,O,n,326,1,3631.7999999523163,793045.3000000119,7186,WL,A,7.0
7,24.62600016593933,immed,35373.99983406067,Wed Jul 23 2025 16:04:06 GMT-0500 (Central Daylight Time),797710.1999999881,A,trainenter,O,enter,1025,1,4664.899999976158,793045.3000000119,7186,WL,A,7.0
7,26.176000118255615,immed,33823.999881744385,Wed Jul 23 2025 16:04:06 GMT-0500 (Central Daylight Time),799260.5,A,r,O,r,1537,1,1550.0,797710.5,7186,WL,A,8.0
7,26.674999952316284,immed,33325.000047683716,Wed Jul 23 2025 16:04:06 GMT-0500 (Central Daylight Time),799759.5,A,ra,O,a,472,1,2049.0,797710.5,7186,WL,A,8.0
7,27.276000022888184,immed,32723.999977111816,Wed Jul 23 2025 16:04:06 GMT-0500 (Central Daylight Time),800360.6999999881,A,rad,O,d,593,1,2650.199999988079,797710.5,7186,WL,A,8.0
7,27.424999952316284,immed,32575.000047683716,Wed Jul 23 2025 16:04:06 GMT-0500 (Central Daylight Time),800509.5,A,radd,O,d,134,1,2799.0,797710.5,7186,WL,A,8.0
7,27.64199995994568,immed,32358.00004005432,Wed Jul 23 2025 16:04:06 GMT-0500 (Central Daylight Time),800726.8000000119,A,raddl,O,l,203,1,3016.300000011921,797710.5,7186,WL,A,8.0
7,27.825000047683716,immed,32174.999952316284,Wed Jul 23 2025 16:04:06 GMT-0500 (Central Daylight Time),800910.0,A,raddle,O,e,152,1,3199.5,797710.5,7186,WL,A,8.0
7,29.374000072479248,immed,30625.999927520752,Wed Jul 23 2025 16:04:06 GMT-0500 (Central Daylight Time),802458.5999999642,A,raddleenter,O,enter,1520,1,4748.099999964237,797710.5,7186,WL,A,8.0
7,31.02500009536743,immed,28974.99990463257,Wed Jul 23 2025 16:04:06 GMT-0500 (Central Daylight Time),804109.0999999642,A,c,O,c,1636,1,1650.199999988079,802458.8999999762,7186,WL,A,9.0
7,31.241000175476074,immed,28758.999824523926,Wed Jul 23 2025 16:04:06 GMT-0500 (Central Daylight Time),804325.8000000119,A,ch,O,h,176,1,1866.9000000357628,802458.8999999762,7186,WL,A,9.0
7,31.657000064849854,immed,28342.999935150146,Wed Jul 23 2025 16:04:06 GMT-0500 (Central Daylight Time),804741.8999999762,A,chi,O,i,384,1,2283.0,802458.8999999762,7186,WL,A,9.0
7,32.17400002479553,immed,27825.999975204468,Wed Jul 23 2025 16:04:06 GMT-0500 (Central Daylight Time),805258.6999999881,A,chim,O,m,492,1,2799.800000011921,802458.8999999762,7186,WL,A,9.0
7,32.741000175476074,immed,27258.999824523926,Wed Jul 23 2025 16:04:06 GMT-0500 (Central Daylight Time),805825.3999999762,A,chimn,O,n,540,1,3366.5,802458.8999999762,7186,WL,A,9.0
7,32.973999977111816,immed,27026.000022888184,Wed Jul 23 2025 16:04:06 GMT-0500 (Central Daylight Time),806058.5,A,chimne,O,e,205,1,3599.600000023842,802458.8999999762,7186,WL,A,9.0
7,33.35700011253357,immed,26642.99988746643,Wed Jul 23 2025 16:04:06 GMT-0500 (Central Daylight Time),806441.5999999642,A,chimney,O,y,354,1,3982.699999988079,802458.8999999762,7186,WL,A,9.0
7,34.32299995422363,immed,25677.000045776367,Wed Jul 23 2025 16:04:06 GMT-0500 (Central Daylight Time),807407.0999999642,A,chimneyenter,O,enter,932,1,4948.199999988079,802458.8999999762,7186,WL,A,9.0
7,36.77300000190735,immed,23226.99999809265,Wed Jul 23 2025 16:04:06 GMT-0500 (Central Daylight Time),809857.3000000119,A,d,O,d,2440,1,2449.900000035763,807407.3999999762,7186,WL,A,10.0
7,37.621999979019165,immed,22378.000020980835,Wed Jul 23 2025 16:04:06 GMT-0500 (Central Daylight Time),810707.0,A,,O,backspace,824,1,3299.600000023842,807407.3999999762,7186,WL,A,10.0
7,38.371999979019165,immed,21628.000020980835,Wed Jul 23 2025 16:04:06 GMT-0500 (Central Daylight Time),811456.6999999881,A,s,O,s,725,1,4049.300000011921,807407.3999999762,7186,WL,A,10.0
7,38.621999979019165,immed,21378.000020980835,Wed Jul 23 2025 16:04:06 GMT-0500 (Central Daylight Time),811706.5999999642,A,sa,O,a,214,1,4299.199999988079,807407.3999999762,7186,WL,A,10.0
7,39.039000034332275,immed,20960.999965667725,Wed Jul 23 2025 16:04:06 GMT-0500 (Central Daylight Time),812123.3000000119,A,sal,O,l,380,1,4715.900000035763,807407.3999999762,7186,WL,A,10.0
7,39.65499997138977,immed,20345.00002861023,Wed Jul 23 2025 16:04:06 GMT-0500 (Central Daylight Time),812739.5,A,salt,O,t,577,1,5332.100000023842,807407.3999999762,7186,WL,A,10.0
7,40.354000091552734,immed,19645.999908447266,Wed Jul 23 2025 16:04:06 GMT-0500 (Central Daylight Time),813438.3999999762,A,saltenter,O,enter,673,1,6031.0,807407.3999999762,7186,WL,A,10.0
7,41.021000146865845,immed,18978.999853134155,Wed Jul 23 2025 16:04:06 GMT-0500 (Central Daylight Time),814105.8999999762,A,l,O,l,650,1,667.1999999880791,813438.6999999881,7186,WL,A,11.0
7,41.187999963760376,immed,18812.000036239624,Wed Jul 23 2025 16:04:06 GMT-0500 (Central Daylight Time),814272.3999999762,A,lo,O,o,141,1,833.6999999880791,813438.6999999881,7186,WL,A,11.0
7,41.62100005149841,immed,18378.999948501587,Wed Jul 23 2025 16:04:06 GMT-0500 (Central Daylight Time),814705.5999999642,A,log,O,g,405,1,1266.8999999761581,813438.6999999881,7186,WL,A,11.0
7,42.170000076293945,immed,17829.999923706055,Wed Jul 23 2025 16:04:06 GMT-0500 (Central Daylight Time),815254.5999999642,A,logenter,O,enter,516,1,1815.8999999761581,813438.6999999881,7186,WL,A,11.0
7,45.43600010871887,immed,14563.999891281128,Wed Jul 23 2025 16:04:06 GMT-0500 (Central Daylight Time),818521.0,A,h,O,h,3258,1,3266.199999988079,815254.8000000119,7186,WL,A,12.0
7,45.62000012397766,immed,14379.999876022339,Wed Jul 23 2025 16:04:06 GMT-0500 (Central Daylight Time),818704.1999999881,A,ha,O,a,156,1,3449.399999976158,815254.8000000119,7186,WL,A,12.0
7,45.986000061035156,immed,14013.999938964844,Wed Jul 23 2025 16:04:06 GMT-0500 (Central Daylight Time),819070.8999999762,A,har,O,r,335,1,3816.099999964237,815254.8000000119,7186,WL,A,12.0
7,46.7020001411438,immed,13297.999858856201,Wed Jul 23 2025 16:04:06 GMT-0500 (Central Daylight Time),819787.0,A,harp,O,p,688,1,4532.199999988079,815254.8000000119,7186,WL,A,12.0
7,47.28500008583069,immed,12714.999914169312,Wed Jul 23 2025 16:04:06 GMT-0500 (Central Daylight Time),820369.5999999642,A,harpenter,O,enter,549,1,5114.799999952316,815254.8000000119,7186,WL,A,12.0
7,52.81700015068054,immed,7182.999849319458,Wed Jul 23 2025 16:04:06 GMT-0500 (Central Daylight Time),825901.8999999762,A,m,O,m,5525,1,5532.099999964237,820369.8000000119,7186,WL,A,13.0
7,53.08400011062622,immed,6915.999889373779,Wed Jul 23 2025 16:04:06 GMT-0500 (Central Daylight Time),826168.6999999881,A,me,O,e,232,1,5798.899999976158,820369.8000000119,7186,WL,A,13.0
7,53.367000102996826,immed,6632.999897003174,Wed Jul 23 2025 16:04:06 GMT-0500 (Central Daylight Time),826451.8999999762,A,mea,O,a,245,1,6082.099999964237,820369.8000000119,7186,WL,A,13.0
7,53.65000009536743,immed,6349.999904632568,Wed Jul 23 2025 16:04:06 GMT-0500 (Central Daylight Time),826734.5999999642,A,mead,O,d,258,1,6364.799999952316,820369.8000000119,7186,WL,A,13.0
7,54.40000009536743,immed,5599.999904632568,Wed Jul 23 2025 16:04:06 GMT-0500 (Central Daylight Time),827484.8000000119,A,meado,O,o,712,1,7115.0,820369.8000000119,7186,WL,A,13.0
7,54.53400015830994,immed,5465.9998416900635,Wed Jul 23 2025 16:04:06 GMT-0500 (Central Daylight Time),827618.1999999881,A,meadow,O,w,95,1,7248.399999976158,820369.8000000119,7186,WL,A,13.0
7,55.16600012779236,immed,4833.999872207642,Wed Jul 23 2025 16:04:06 GMT-0500 (Central Daylight Time),828250.3000000119,A,meadowenter,O,enter,603,1,7880.5,820369.8000000119,7186,WL,A,13.0
7,57.29900002479553,immed,2700.999975204468,Wed Jul 23 2025 16:04:06 GMT-0500 (Central Daylight Time),830383.8000000119,A,t,O,t,2118,1,2133.300000011921,828250.5,7186,WL,A,14.0
7,57.53200006484985,immed,2467.9999351501465,Wed Jul 23 2025 16:04:06 GMT-0500 (Central Daylight Time),830616.8999999762,A,tr,O,r,199,1,2366.399999976158,828250.5,7186,WL,A,14.0
7,58.015000104904175,immed,1984.9998950958252,Wed Jul 23 2025 16:04:06 GMT-0500 (Central Daylight Time),831100.0999999642,A,tra,O,a,453,1,2849.599999964237,828250.5,7186,WL,A,14.0
7,58.31500005722046,immed,1684.999942779541,Wed Jul 23 2025 16:04:06 GMT-0500 (Central Daylight Time),831400.0999999642,A,trai,O,i,278,1,3149.599999964237,828250.5,7186,WL,A,14.0
7,58.64900016784668,immed,1350.9998321533203,Wed Jul 23 2025 16:04:06 GMT-0500 (Central Daylight Time),831733.3999999762,A,train,O,n,293,1,3482.899999976158,828250.5,7186,WL,A,14.0
7,59.31400012969971,immed,685.999870300293,Wed Jul 23 2025 16:04:06 GMT-0500 (Central Daylight Time),832398.8999999762,A,trainenter,O,enter,640,1,4148.399999976158,828250.5,7186,WL,A,14.0
7,60.015000104904175,immed,-15.000104904174805,Wed Jul 23 2025 16:04:06 GMT-0500 (Central Daylight Time),833099.5,A,None,O,None,695,1,700.4000000357628,832399.0999999642,7186,WL,A,15.0
