acc_sum,block,block_c,change,condition,correct,correct_response,datetime,endtime,face,project,response,response_time,row_sel,session_number,start_end,starttime,subject_id,task,task_vers,trial
0,prac,1,,1-Back,,,Wed Mar 25 2026 15:00:24 GMT-0500 (Central Daylight Time),,097_m_f_n_a.png,O,space,18277,1,1,,,7787,NNB,B,0
1,prac,1,0.0,1-Back,1.0,m,Wed Mar 25 2026 15:00:24 GMT-0500 (Central Daylight Time),176187.5,152_y_f_n_a.png,O,m,760,2,1,1603.2999999523163,174584.20000004768,7787,NNB,B,1
2,prac,1,1.0,1-Back,1.0,z,Wed Mar 25 2026 15:00:24 GMT-0500 (Central Daylight Time),177986.5,152_y_f_n_a.png,O,z,1012,3,1,1789.2999999523163,176197.20000004768,7787,NNB,B,2
3,prac,1,0.0,1-Back,1.0,m,Wed Mar 25 2026 15:00:24 GMT-0500 (Central Daylight Time),179870.20000004768,176_o_m_n_a.png,O,m,1023,4,1,1874.7999999523163,177995.40000009537,7787,NNB,B,3
3,prac,1,0.0,1-Back,0.0,m,Wed Mar 25 2026 15:00:24 GMT-0500 (Central Daylight Time),181669.0,126_m_m_n_a.png,O,z,937,5,1,1788.5999999046326,179880.40000009537,7787,NNB,B,4
4,prac,1,1.0,1-Back,1.0,z,Wed Mar 25 2026 15:00:24 GMT-0500 (Central Daylight Time),183486.0,126_m_m_n_a.png,O,z,1034,6,1,1806.4000000953674,181679.59999990463,7787,NNB,B,5
5,prac,1,0.0,1-Back,1.0,m,Wed Mar 25 2026 15:00:24 GMT-0500 (Central Daylight Time),185469.29999995232,086_o_f_n_a.png,O,m,1128,7,1,1975.2999999523163,183494.0,7787,NNB,B,6
6,prac,1,0.0,1-Back,1.0,m,Wed Mar 25 2026 15:00:24 GMT-0500 (Central Daylight Time),187367.5,178_m_m_n_a.png,O,m,1048,8,1,1889.7000000476837,185477.79999995232,7787,NNB,B,7
7,prac,1,0.0,1-Back,1.0,m,Wed Mar 25 2026 15:00:24 GMT-0500 (Central Daylight Time),189085.09999990463,097_m_f_n_a.png,O,m,955,9,1,1709.2999999523163,187375.79999995232,7787,NNB,B,8
8,prac,1,1.0,1-Back,1.0,z,Wed Mar 25 2026 15:00:24 GMT-0500 (Central Daylight Time),190731.5,097_m_f_n_a.png,O,z,867,10,1,1637.5,189094.0,7787,NNB,B,9
9,prac,1,0.0,1-Back,1.0,m,Wed Mar 25 2026 15:00:24 GMT-0500 (Central Daylight Time),192515.20000004768,176_o_m_n_a.png,O,m,996,11,1,1775.2000000476837,190740.0,7787,NNB,B,10
10,prac,1,0.0,1-Back,1.0,m,Wed Mar 25 2026 15:00:24 GMT-0500 (Central Daylight Time),194397.40000009537,173_y_f_n_a.png,O,m,1029,12,1,1874.4000000953674,192523.0,7787,NNB,B,11
0,test,1,0.0,1-Back,,,Wed Mar 25 2026 15:00:24 GMT-0500 (Central Daylight Time),194397.40000009537,152_y_f_n_a.png,O,space,17788,1,1,1874.4000000953674,192523.0,7787,NNB,B,0
1,test,1,0.0,1-Back,1.0,m,Wed Mar 25 2026 15:00:24 GMT-0500 (Central Daylight Time),247798.79999995232,029_m_f_n_a.png,O,m,1455,2,1,2475.2000000476837,245323.59999990463,7787,NNB,B,1
2,test,1,0.0,1-Back,1.0,m,Wed Mar 25 2026 15:00:24 GMT-0500 (Central Daylight Time),250379.79999995232,173_y_f_n_a.png,O,m,1554,3,1,2576.7000000476837,247803.09999990463,7787,NNB,B,2
3,test,1,1.0,1-Back,1.0,z,Wed Mar 25 2026 15:00:24 GMT-0500 (Central Daylight Time),252445.79999995232,173_y_f_n_a.png,O,z,1044,4,1,2060.7999999523163,250385.0,7787,NNB,B,3
4,test,1,0.0,1-Back,1.0,m,Wed Mar 25 2026 15:00:24 GMT-0500 (Central Daylight Time),254396.5,029_m_f_n_a.png,O,m,917,5,1,1946.0,252450.5,7787,NNB,B,4
5,test,1,0.0,1-Back,1.0,m,Wed Mar 25 2026 15:00:24 GMT-0500 (Central Daylight Time),256311.5,176_o_m_n_a.png,O,m,895,6,1,1909.0999999046326,254402.40000009537,7787,NNB,B,5
6,test,1,1.0,1-Back,1.0,z,Wed Mar 25 2026 15:00:24 GMT-0500 (Central Daylight Time),257894.0,176_o_m_n_a.png,O,z,552,7,1,1577.5999999046326,256316.40000009537,7787,NNB,B,6
7,test,1,0.0,1-Back,1.0,m,Wed Mar 25 2026 15:00:24 GMT-0500 (Central Daylight Time),259977.0,126_m_m_n_a.png,O,m,1051,8,1,2078.7000000476837,257898.29999995232,7787,NNB,B,7
8,test,1,0.0,1-Back,1.0,m,Wed Mar 25 2026 15:00:24 GMT-0500 (Central Daylight Time),262059.5,086_o_f_n_a.png,O,m,1055,9,1,2075.9000000953674,259983.59999990463,7787,NNB,B,8
9,test,1,0.0,1-Back,1.0,m,Wed Mar 25 2026 15:00:24 GMT-0500 (Central Daylight Time),264509.0,126_m_m_n_a.png,O,m,1422,10,1,2443.9000000953674,262065.09999990463,7787,NNB,B,9
10,test,1,0.0,1-Back,1.0,m,Wed Mar 25 2026 15:00:24 GMT-0500 (Central Daylight Time),266775.09999990463,153_y_m_n_a.png,O,m,1236,11,1,2258.7999999523163,264516.2999999523,7787,NNB,B,10
11,test,1,1.0,1-Back,1.0,z,Wed Mar 25 2026 15:00:24 GMT-0500 (Central Daylight Time),268558.2000000477,153_y_m_n_a.png,O,z,755,12,1,1775.7000000476837,266782.5,7787,NNB,B,11
12,test,1,0.0,1-Back,1.0,m,Wed Mar 25 2026 15:00:24 GMT-0500 (Central Daylight Time),270674.40000009537,110_o_f_n_a.png,O,m,1093,13,1,2110.300000190735,268564.09999990463,7787,NNB,B,12
13,test,1,1.0,1-Back,1.0,z,Wed Mar 25 2026 15:00:24 GMT-0500 (Central Daylight Time),272589.59999990463,110_o_f_n_a.png,O,z,888,14,1,1909.0,270680.59999990463,7787,NNB,B,13
14,test,1,0.0,1-Back,1.0,m,Wed Mar 25 2026 15:00:24 GMT-0500 (Central Daylight Time),274589.09999990463,013_y_m_n_a.png,O,m,971,15,1,1991.1999998092651,272597.90000009537,7787,NNB,B,14
15,test,1,0.0,1-Back,1.0,m,Wed Mar 25 2026 15:00:24 GMT-0500 (Central Daylight Time),276571.90000009537,097_m_f_n_a.png,O,m,965,16,1,1978.8000001907349,274593.09999990463,7787,NNB,B,15
16,test,1,0.0,1-Back,1.0,m,Wed Mar 25 2026 15:00:24 GMT-0500 (Central Daylight Time),278487.2999999523,065_o_m_n_a.png,O,m,892,17,1,1908.7000000476837,276578.59999990463,7787,NNB,B,16
17,test,1,0.0,1-Back,1.0,m,Wed Mar 25 2026 15:00:24 GMT-0500 (Central Daylight Time),280523.0,097_m_f_n_a.png,O,m,1001,18,1,2025.9000000953674,278497.09999990463,7787,NNB,B,17
0,test,2,0.0,1-Back,,,Wed Mar 25 2026 15:00:24 GMT-0500 (Central Daylight Time),280523.0,126_m_m_n_a.png,O,space,3934,1,1,2025.9000000953674,278497.09999990463,7787,NNB,B,0
1,test,2,0.0,1-Back,1.0,m,Wed Mar 25 2026 15:00:24 GMT-0500 (Central Daylight Time),288817.7000000477,029_m_f_n_a.png,O,m,1307,2,1,2324.7999999523163,286492.90000009537,7787,NNB,B,1
1,test,2,1.0,1-Back,0.0,z,Wed Mar 25 2026 15:00:24 GMT-0500 (Central Daylight Time),290968.2999999523,029_m_f_n_a.png,O,m,1127,3,1,2144.2999999523163,288824.0,7787,NNB,B,2
2,test,2,0.0,1-Back,1.0,m,Wed Mar 25 2026 15:00:24 GMT-0500 (Central Daylight Time),292883.0,126_m_m_n_a.png,O,m,897,4,1,1906.4000000953674,290976.59999990463,7787,NNB,B,3
3,test,2,0.0,1-Back,1.0,m,Wed Mar 25 2026 15:00:24 GMT-0500 (Central Daylight Time),294849.59999990463,153_y_m_n_a.png,O,m,935,5,1,1960.5,292889.09999990463,7787,NNB,B,4
4,test,2,0.0,1-Back,1.0,m,Wed Mar 25 2026 15:00:24 GMT-0500 (Central Daylight Time),296766.0,152_y_f_n_a.png,O,m,896,6,1,1910.0,294856.0,7787,NNB,B,5
5,test,2,1.0,1-Back,1.0,z,Wed Mar 25 2026 15:00:24 GMT-0500 (Central Daylight Time),298581.7999999523,152_y_f_n_a.png,O,z,787,7,1,1807.5999999046326,296774.2000000477,7787,NNB,B,6
6,test,2,0.0,1-Back,1.0,m,Wed Mar 25 2026 15:00:24 GMT-0500 (Central Daylight Time),300447.5,153_y_m_n_a.png,O,m,844,8,1,1858.5,298589.0,7787,NNB,B,7
7,test,2,0.0,1-Back,1.0,m,Wed Mar 25 2026 15:00:24 GMT-0500 (Central Daylight Time),302263.5,110_o_f_n_a.png,O,m,797,9,1,1810.5999999046326,300452.90000009537,7787,NNB,B,8
8,test,2,0.0,1-Back,1.0,m,Wed Mar 25 2026 15:00:24 GMT-0500 (Central Daylight Time),304096.2000000477,178_m_m_n_a.png,O,m,802,10,1,1827.7000000476837,302268.5,7787,NNB,B,9
9,test,2,1.0,1-Back,1.0,z,Wed Mar 25 2026 15:00:24 GMT-0500 (Central Daylight Time),305913.0,178_m_m_n_a.png,O,z,784,11,1,1809.2999999523163,304103.7000000477,7787,NNB,B,10
10,test,2,0.0,1-Back,1.0,m,Wed Mar 25 2026 15:00:24 GMT-0500 (Central Daylight Time),307879.7000000477,110_o_f_n_a.png,O,m,936,12,1,1958.9000000953674,305920.7999999523,7787,NNB,B,11
11,test,2,0.0,1-Back,1.0,m,Wed Mar 25 2026 15:00:24 GMT-0500 (Central Daylight Time),310328.2999999523,086_o_f_n_a.png,O,m,1419,13,1,2440.2999999523163,307888.0,7787,NNB,B,12
12,test,2,0.0,1-Back,1.0,m,Wed Mar 25 2026 15:00:24 GMT-0500 (Central Daylight Time),312277.7999999523,176_o_m_n_a.png,O,m,922,14,1,1941.2999999523163,310336.5,7787,NNB,B,13
13,test,2,0.0,1-Back,1.0,m,Wed Mar 25 2026 15:00:24 GMT-0500 (Central Daylight Time),314377.59999990463,065_o_m_n_a.png,O,m,1069,15,1,2092.2999999523163,312285.2999999523,7787,NNB,B,14
14,test,2,1.0,1-Back,1.0,z,Wed Mar 25 2026 15:00:24 GMT-0500 (Central Daylight Time),316177.2999999523,065_o_m_n_a.png,O,z,778,16,1,1792.7999999523163,314384.5,7787,NNB,B,15
15,test,2,0.0,1-Back,1.0,m,Wed Mar 25 2026 15:00:24 GMT-0500 (Central Daylight Time),317975.0,013_y_m_n_a.png,O,m,777,17,1,1790.2999999523163,316184.7000000477,7787,NNB,B,16
16,test,2,1.0,1-Back,1.0,z,Wed Mar 25 2026 15:00:24 GMT-0500 (Central Daylight Time),319759.0,013_y_m_n_a.png,O,z,754,18,1,1776.7000000476837,317982.2999999523,7787,NNB,B,17
0,test,3,1.0,1-Back,,,Wed Mar 25 2026 15:00:24 GMT-0500 (Central Daylight Time),319759.0,173_y_f_n_a.png,O,space,2826,1,1,1776.7000000476837,317982.2999999523,7787,NNB,B,0
1,test,3,0.0,1-Back,1.0,m,Wed Mar 25 2026 15:00:24 GMT-0500 (Central Daylight Time),326406.40000009537,065_o_m_n_a.png,O,m,711,1,1,1727.9000000953674,324678.5,7787,NNB,B,1
2,test,3,1.0,1-Back,1.0,z,Wed Mar 25 2026 15:00:24 GMT-0500 (Central Daylight Time),328406.90000009537,065_o_m_n_a.png,O,z,966,1,1,1992.8000001907349,326414.09999990463,7787,NNB,B,2
3,test,3,0.0,1-Back,1.0,m,Wed Mar 25 2026 15:00:24 GMT-0500 (Central Daylight Time),330553.90000009537,097_m_f_n_a.png,O,m,1114,1,1,2140.9000000953674,328413.0,7787,NNB,B,3
3,test,3,1.0,1-Back,0.0,z,Wed Mar 25 2026 15:00:24 GMT-0500 (Central Daylight Time),332821.7000000477,097_m_f_n_a.png,O,m,1238,1,1,2265.2000000476837,330556.5,7787,NNB,B,4
4,test,3,0.0,1-Back,1.0,m,Wed Mar 25 2026 15:00:24 GMT-0500 (Central Daylight Time),334953.90000009537,110_o_f_n_a.png,O,m,1100,1,1,2127.7000000476837,332826.2000000477,7787,NNB,B,5
5,test,3,0.0,1-Back,1.0,m,Wed Mar 25 2026 15:00:24 GMT-0500 (Central Daylight Time),337203.40000009537,153_y_m_n_a.png,O,m,1226,1,1,2244.9000000953674,334958.5,7787,NNB,B,6
6,test,3,0.0,1-Back,1.0,m,Wed Mar 25 2026 15:00:24 GMT-0500 (Central Daylight Time),339301.09999990463,110_o_f_n_a.png,O,m,1069,1,1,2091.0999999046326,337210.0,7787,NNB,B,7
7,test,3,0.0,1-Back,1.0,m,Wed Mar 25 2026 15:00:24 GMT-0500 (Central Daylight Time),341301.2000000477,013_y_m_n_a.png,O,m,971,1,1,1991.5,339309.7000000477,7787,NNB,B,8
8,test,3,1.0,1-Back,1.0,z,Wed Mar 25 2026 15:00:24 GMT-0500 (Central Daylight Time),342818.09999990463,013_y_m_n_a.png,O,z,484,1,1,1511.2999999523163,341306.7999999523,7787,NNB,B,9
9,test,3,0.0,1-Back,1.0,m,Wed Mar 25 2026 15:00:24 GMT-0500 (Central Daylight Time),344819.09999990463,029_m_f_n_a.png,O,m,977,1,1,1994.0,342825.09999990463,7787,NNB,B,10
10,test,3,0.0,1-Back,1.0,m,Wed Mar 25 2026 15:00:24 GMT-0500 (Central Daylight Time),346933.7000000477,152_y_f_n_a.png,O,m,1088,1,1,2107.4000000953674,344826.2999999523,7787,NNB,B,11
11,test,3,1.0,1-Back,1.0,z,Wed Mar 25 2026 15:00:24 GMT-0500 (Central Daylight Time),348700.2999999523,152_y_f_n_a.png,O,z,749,1,1,1760.5999999046326,346939.7000000477,7787,NNB,B,12
12,test,3,0.0,1-Back,1.0,m,Wed Mar 25 2026 15:00:24 GMT-0500 (Central Daylight Time),350599.2000000477,029_m_f_n_a.png,O,m,869,1,1,1893.7000000476837,348705.5,7787,NNB,B,13
13,test,3,0.0,1-Back,1.0,m,Wed Mar 25 2026 15:00:24 GMT-0500 (Central Daylight Time),352797.40000009537,126_m_m_n_a.png,O,m,1171,1,1,2190.600000143051,350606.7999999523,7787,NNB,B,14
14,test,3,1.0,1-Back,1.0,z,Wed Mar 25 2026 15:00:24 GMT-0500 (Central Daylight Time),354614.90000009537,126_m_m_n_a.png,O,z,788,1,1,1813.0,352801.90000009537,7787,NNB,B,15
15,test,3,0.0,1-Back,1.0,m,Wed Mar 25 2026 15:00:24 GMT-0500 (Central Daylight Time),356678.7999999523,086_o_f_n_a.png,O,m,1044,1,1,2056.899999856949,354621.90000009537,7787,NNB,B,16
16,test,3,1.0,1-Back,1.0,z,Wed Mar 25 2026 15:00:24 GMT-0500 (Central Daylight Time),358495.7000000477,086_o_f_n_a.png,O,z,793,1,1,1811.9000000953674,356683.7999999523,7787,NNB,B,17
0,test,4,1.0,1-Back,,,Wed Mar 25 2026 15:00:24 GMT-0500 (Central Daylight Time),358495.7000000477,097_m_f_n_a.png,O,space,2308,1,1,1811.9000000953674,356683.7999999523,7787,NNB,B,0
0,test,4,0.0,1-Back,0.0,m,Wed Mar 25 2026 15:00:24 GMT-0500 (Central Daylight Time),365210.7000000477,065_o_m_n_a.png,O,z,1291,2,1,2308.600000143051,362902.09999990463,7787,NNB,B,1
1,test,4,0.0,1-Back,1.0,m,Wed Mar 25 2026 15:00:24 GMT-0500 (Central Daylight Time),367828.5,097_m_f_n_a.png,O,m,1584,3,1,2612.4000000953674,365216.09999990463,7787,NNB,B,2
2,test,4,0.0,1-Back,1.0,m,Wed Mar 25 2026 15:00:24 GMT-0500 (Central Daylight Time),369958.2999999523,110_o_f_n_a.png,O,m,1113,4,1,2123.0,367835.2999999523,7787,NNB,B,3
3,test,4,1.0,1-Back,1.0,z,Wed Mar 25 2026 15:00:24 GMT-0500 (Central Daylight Time),371808.40000009537,110_o_f_n_a.png,O,z,818,5,1,1842.5,369965.90000009537,7787,NNB,B,4
4,test,4,0.0,1-Back,1.0,m,Wed Mar 25 2026 15:00:24 GMT-0500 (Central Daylight Time),373976.09999990463,152_y_f_n_a.png,O,m,1140,6,1,2160.7999999523163,371815.2999999523,7787,NNB,B,5
5,test,4,0.0,1-Back,1.0,m,Wed Mar 25 2026 15:00:24 GMT-0500 (Central Daylight Time),376090.5,153_y_m_n_a.png,O,m,1091,7,1,2107.0,373983.5,7787,NNB,B,6
6,test,4,1.0,1-Back,1.0,z,Wed Mar 25 2026 15:00:24 GMT-0500 (Central Daylight Time),378006.2000000477,153_y_m_n_a.png,O,z,887,8,1,1908.9000000953674,376097.2999999523,7787,NNB,B,7
7,test,4,0.0,1-Back,1.0,m,Wed Mar 25 2026 15:00:24 GMT-0500 (Central Daylight Time),380039.5,152_y_f_n_a.png,O,m,1003,9,1,2026.2000000476837,378013.2999999523,7787,NNB,B,8
8,test,4,0.0,1-Back,1.0,m,Wed Mar 25 2026 15:00:24 GMT-0500 (Central Daylight Time),381971.59999990463,178_m_m_n_a.png,O,m,916,10,1,1924.8999998569489,380046.7000000477,7787,NNB,B,9
9,test,4,1.0,1-Back,1.0,z,Wed Mar 25 2026 15:00:24 GMT-0500 (Central Daylight Time),383804.7000000477,178_m_m_n_a.png,O,z,805,11,1,1824.7000000476837,381980.0,7787,NNB,B,10
10,test,4,0.0,1-Back,1.0,m,Wed Mar 25 2026 15:00:24 GMT-0500 (Central Daylight Time),386087.09999990463,086_o_f_n_a.png,O,m,1263,12,1,2275.0,383812.09999990463,7787,NNB,B,11
11,test,4,0.0,1-Back,1.0,m,Wed Mar 25 2026 15:00:24 GMT-0500 (Central Daylight Time),387986.90000009537,176_o_m_n_a.png,O,m,883,13,1,1893.0,386093.90000009537,7787,NNB,B,12
12,test,4,0.0,1-Back,1.0,m,Wed Mar 25 2026 15:00:24 GMT-0500 (Central Daylight Time),389786.0,086_o_f_n_a.png,O,m,775,14,1,1791.4000000953674,387994.59999990463,7787,NNB,B,13
13,test,4,0.0,1-Back,1.0,m,Wed Mar 25 2026 15:00:24 GMT-0500 (Central Daylight Time),391787.2000000477,173_y_f_n_a.png,O,m,975,15,1,1993.2999999523163,389793.90000009537,7787,NNB,B,14
14,test,4,1.0,1-Back,1.0,z,Wed Mar 25 2026 15:00:24 GMT-0500 (Central Daylight Time),393533.40000009537,173_y_f_n_a.png,O,z,718,16,1,1739.0,391794.40000009537,7787,NNB,B,15
15,test,4,0.0,1-Back,1.0,m,Wed Mar 25 2026 15:00:24 GMT-0500 (Central Daylight Time),395469.7000000477,029_m_f_n_a.png,O,m,906,17,1,1929.6000001430511,393540.09999990463,7787,NNB,B,16
16,test,4,1.0,1-Back,1.0,z,Wed Mar 25 2026 15:00:24 GMT-0500 (Central Daylight Time),397399.5,029_m_f_n_a.png,O,z,908,18,1,1923.0,395476.5,7787,NNB,B,17
0,test,5,1.0,1-Back,,,Wed Mar 25 2026 15:00:24 GMT-0500 (Central Daylight Time),397399.5,176_o_m_n_a.png,O,space,1788,1,1,1923.0,395476.5,7787,NNB,B,0
1,test,5,1.0,1-Back,1.0,z,Wed Mar 25 2026 15:00:24 GMT-0500 (Central Daylight Time),403282.09999990463,176_o_m_n_a.png,O,z,1039,2,1,2056.5,401225.59999990463,7787,NNB,B,1
2,test,5,0.0,1-Back,1.0,m,Wed Mar 25 2026 15:00:24 GMT-0500 (Central Daylight Time),405181.40000009537,152_y_f_n_a.png,O,m,882,3,1,1891.6000001430511,403289.7999999523,7787,NNB,B,2
3,test,5,0.0,1-Back,1.0,m,Wed Mar 25 2026 15:00:24 GMT-0500 (Central Daylight Time),407081.2000000477,153_y_m_n_a.png,O,m,869,4,1,1896.6000001430511,405184.59999990463,7787,NNB,B,3
3,test,5,0.0,1-Back,0.0,m,Wed Mar 25 2026 15:00:24 GMT-0500 (Central Daylight Time),408929.90000009537,152_y_f_n_a.png,O,z,825,5,1,1843.1000001430511,407086.7999999523,7787,NNB,B,4
4,test,5,0.0,1-Back,1.0,m,Wed Mar 25 2026 15:00:24 GMT-0500 (Central Daylight Time),411029.2000000477,126_m_m_n_a.png,O,m,1082,6,1,2091.600000143051,408937.59999990463,7787,NNB,B,5
5,test,5,1.0,1-Back,1.0,z,Wed Mar 25 2026 15:00:24 GMT-0500 (Central Daylight Time),412912.0,126_m_m_n_a.png,O,z,861,7,1,1879.2000000476837,411032.7999999523,7787,NNB,B,6
6,test,5,0.0,1-Back,1.0,m,Wed Mar 25 2026 15:00:24 GMT-0500 (Central Daylight Time),415145.09999990463,173_y_f_n_a.png,O,m,1210,8,1,2226.5,412918.59999990463,7787,NNB,B,7
7,test,5,0.0,1-Back,1.0,m,Wed Mar 25 2026 15:00:24 GMT-0500 (Central Daylight Time),417126.7000000477,013_y_m_n_a.png,O,m,961,9,1,1976.2999999523163,415150.40000009537,7787,NNB,B,8
8,test,5,0.0,1-Back,1.0,m,Wed Mar 25 2026 15:00:24 GMT-0500 (Central Daylight Time),419244.2999999523,173_y_f_n_a.png,O,m,1083,10,1,2111.399999856949,417132.90000009537,7787,NNB,B,9
9,test,5,0.0,1-Back,1.0,m,Wed Mar 25 2026 15:00:24 GMT-0500 (Central Daylight Time),421576.0,086_o_f_n_a.png,O,m,1301,11,1,2323.9000000953674,419252.09999990463,7787,NNB,B,10
10,test,5,1.0,1-Back,1.0,z,Wed Mar 25 2026 15:00:24 GMT-0500 (Central Daylight Time),423292.7000000477,086_o_f_n_a.png,O,z,691,12,1,1710.0,421582.7000000477,7787,NNB,B,11
11,test,5,0.0,1-Back,1.0,m,Wed Mar 25 2026 15:00:24 GMT-0500 (Central Daylight Time),425174.59999990463,065_o_m_n_a.png,O,m,854,13,1,1875.0999999046326,423299.5,7787,NNB,B,12
12,test,5,0.0,1-Back,1.0,m,Wed Mar 25 2026 15:00:24 GMT-0500 (Central Daylight Time),427306.59999990463,097_m_f_n_a.png,O,m,1106,14,1,2124.199999809265,425182.40000009537,7787,NNB,B,13
13,test,5,1.0,1-Back,1.0,z,Wed Mar 25 2026 15:00:24 GMT-0500 (Central Daylight Time),429073.90000009537,097_m_f_n_a.png,O,z,735,15,1,1761.8000001907349,427312.09999990463,7787,NNB,B,14
14,test,5,0.0,1-Back,1.0,m,Wed Mar 25 2026 15:00:24 GMT-0500 (Central Daylight Time),430842.09999990463,065_o_m_n_a.png,O,m,736,16,1,1762.0999999046326,429080.0,7787,NNB,B,15
15,test,5,0.0,1-Back,1.0,m,Wed Mar 25 2026 15:00:24 GMT-0500 (Central Daylight Time),432889.2000000477,029_m_f_n_a.png,O,m,1026,17,1,2044.2000000476837,430845.0,7787,NNB,B,16
16,test,5,0.0,1-Back,1.0,m,Wed Mar 25 2026 15:00:24 GMT-0500 (Central Daylight Time),434788.5,178_m_m_n_a.png,O,m,883,18,1,1893.0,432895.5,7787,NNB,B,17
0,prac,1,0.0,2-Back,,,Wed Mar 25 2026 15:00:24 GMT-0500 (Central Daylight Time),434788.5,013_y_m_n_a.png,O,space,12609,1,1,1893.0,432895.5,7787,NNB,B,0
0,prac,1,0.0,2-Back,,,Wed Mar 25 2026 15:00:24 GMT-0500 (Central Daylight Time),434788.5,029_m_f_n_a.png,O,space,12609,2,1,1893.0,432895.5,7787,NNB,B,0
1,prac,1,1.0,2-Back,1.0,m,Wed Mar 25 2026 15:00:24 GMT-0500 (Central Daylight Time),664899.2999999523,065_o_m_n_a.png,O,m,920,3,1,1773.0,663126.2999999523,7787,NNB,B,1
2,prac,1,0.0,2-Back,1.0,m,Wed Mar 25 2026 15:00:24 GMT-0500 (Central Daylight Time),667016.7999999523,086_o_f_n_a.png,O,m,1232,4,1,2106.7999999523163,664910.0,7787,NNB,B,2
3,prac,1,0.0,2-Back,1.0,z,Wed Mar 25 2026 15:00:24 GMT-0500 (Central Daylight Time),668947.7999999523,065_o_m_n_a.png,O,z,1151,5,1,1919.8999998569489,667027.9000000954,7787,NNB,B,3
4,prac,1,1.0,2-Back,1.0,z,Wed Mar 25 2026 15:00:24 GMT-0500 (Central Daylight Time),671128.7999999523,086_o_f_n_a.png,O,z,1404,6,1,2170.5,668958.2999999523,7787,NNB,B,4
5,prac,1,0.0,2-Back,1.0,m,Wed Mar 25 2026 15:00:24 GMT-0500 (Central Daylight Time),673395.7000000477,178_m_m_n_a.png,O,m,1425,7,1,2260.5,671135.2000000477,7787,NNB,B,5
6,prac,1,0.0,2-Back,1.0,m,Wed Mar 25 2026 15:00:24 GMT-0500 (Central Daylight Time),675497.0,176_o_m_n_a.png,O,m,1243,8,1,2090.2999999523163,673406.7000000477,7787,NNB,B,6
7,prac,1,0.0,2-Back,1.0,m,Wed Mar 25 2026 15:00:24 GMT-0500 (Central Daylight Time),677510.5,173_y_f_n_a.png,O,m,1170,9,1,2005.2999999523163,675505.2000000477,7787,NNB,B,7
8,prac,1,1.0,2-Back,1.0,z,Wed Mar 25 2026 15:00:24 GMT-0500 (Central Daylight Time),679493.5,176_o_m_n_a.png,O,z,1207,10,1,1979.2999999523163,677514.2000000477,7787,NNB,B,8
9,prac,1,0.0,2-Back,1.0,m,Wed Mar 25 2026 15:00:24 GMT-0500 (Central Daylight Time),681410.0,152_y_f_n_a.png,O,m,1067,11,1,1908.9000000953674,679501.0999999046,7787,NNB,B,9
9,prac,1,0.0,2-Back,0.0,m,Wed Mar 25 2026 15:00:24 GMT-0500 (Central Daylight Time),683426.9000000954,178_m_m_n_a.png,O,z,1239,12,1,2008.0,681418.9000000954,7787,NNB,B,10
0,test,1,0.0,2-Back,,,Wed Mar 25 2026 15:00:24 GMT-0500 (Central Daylight Time),683426.9000000954,153_y_m_n_a.png,O,space,22415,1,1,2008.0,681418.9000000954,7787,NNB,B,0
0,test,1,0.0,2-Back,,,Wed Mar 25 2026 15:00:24 GMT-0500 (Central Daylight Time),683426.9000000954,153_y_m_n_a.png,O,space,22415,2,1,2008.0,681418.9000000954,7787,NNB,B,0
1,test,1,0.0,2-Back,1.0,m,Wed Mar 25 2026 15:00:24 GMT-0500 (Central Daylight Time),731292.7999999523,086_o_f_n_a.png,O,m,961,3,1,1972.5,729320.2999999523,7787,NNB,B,1
2,test,1,0.0,2-Back,1.0,m,Wed Mar 25 2026 15:00:24 GMT-0500 (Central Daylight Time),733309.9000000954,126_m_m_n_a.png,O,m,988,4,1,2014.1000001430511,731295.7999999523,7787,NNB,B,2
3,test,1,1.0,2-Back,1.0,z,Wed Mar 25 2026 15:00:24 GMT-0500 (Central Daylight Time),735709.4000000954,086_o_f_n_a.png,O,z,1373,5,1,2393.9000000953674,733315.5,7787,NNB,B,3
3,test,1,0.0,2-Back,0.0,m,Wed Mar 25 2026 15:00:24 GMT-0500 (Central Daylight Time),737757.7000000477,152_y_f_n_a.png,O,z,1027,6,1,2042.2999999523163,735715.4000000954,7787,NNB,B,4
3,test,1,0.0,2-Back,0.0,m,Wed Mar 25 2026 15:00:24 GMT-0500 (Central Daylight Time),740157.7999999523,126_m_m_n_a.png,O,z,1370,7,1,2393.2999999523163,737764.5,7787,NNB,B,5
3,test,1,1.0,2-Back,0.0,z,Wed Mar 25 2026 15:00:24 GMT-0500 (Central Daylight Time),742108.4000000954,152_y_f_n_a.png,O,m,934,8,1,1944.6000001430511,740163.7999999523,7787,NNB,B,6
3,test,1,0.0,2-Back,0.0,m,Wed Mar 25 2026 15:00:24 GMT-0500 (Central Daylight Time),745139.5,013_y_m_n_a.png,O,None,2015,9,1,3023.0,742116.5,7787,NNB,B,7
3,test,1,0.0,2-Back,0.0,m,Wed Mar 25 2026 15:00:24 GMT-0500 (Central Daylight Time),748171.7999999523,110_o_f_n_a.png,O,None,2016,10,1,3026.2000000476837,745145.5999999046,7787,NNB,B,8
4,test,1,1.0,2-Back,1.0,z,Wed Mar 25 2026 15:00:24 GMT-0500 (Central Daylight Time),750571.7999999523,013_y_m_n_a.png,O,z,1381,11,1,2394.899999856949,748176.9000000954,7787,NNB,B,9
5,test,1,0.0,2-Back,1.0,m,Wed Mar 25 2026 15:00:24 GMT-0500 (Central Daylight Time),752670.0,029_m_f_n_a.png,O,m,1078,12,1,2092.4000000953674,750577.5999999046,7787,NNB,B,10
5,test,1,0.0,2-Back,0.0,m,Wed Mar 25 2026 15:00:24 GMT-0500 (Central Daylight Time),754937.5,029_m_f_n_a.png,O,z,1242,13,1,2261.5,752676.0,7787,NNB,B,11
6,test,1,0.0,2-Back,1.0,m,Wed Mar 25 2026 15:00:24 GMT-0500 (Central Daylight Time),756969.7999999523,065_o_m_n_a.png,O,m,1016,14,1,2024.5,754945.2999999523,7787,NNB,B,12
7,test,1,0.0,2-Back,1.0,m,Wed Mar 25 2026 15:00:24 GMT-0500 (Central Daylight Time),759036.4000000954,110_o_f_n_a.png,O,m,1049,15,1,2060.100000143051,756976.2999999523,7787,NNB,B,13
8,test,1,1.0,2-Back,1.0,z,Wed Mar 25 2026 15:00:24 GMT-0500 (Central Daylight Time),761150.7999999523,065_o_m_n_a.png,O,z,1094,16,1,2108.7000000476837,759042.0999999046,7787,NNB,B,14
9,test,1,0.0,2-Back,1.0,m,Wed Mar 25 2026 15:00:24 GMT-0500 (Central Daylight Time),763169.9000000954,097_m_f_n_a.png,O,m,1003,17,1,2011.8000001907349,761158.0999999046,7787,NNB,B,15
10,test,1,0.0,2-Back,1.0,m,Wed Mar 25 2026 15:00:24 GMT-0500 (Central Daylight Time),765300.4000000954,178_m_m_n_a.png,O,m,1109,18,1,2126.2000000476837,763174.2000000477,7787,NNB,B,16
0,test,2,0.0,2-Back,,,Wed Mar 25 2026 15:00:24 GMT-0500 (Central Daylight Time),765300.4000000954,178_m_m_n_a.png,O,space,11439,1,1,2126.2000000476837,763174.2000000477,7787,NNB,B,0
0,test,2,0.0,2-Back,,,Wed Mar 25 2026 15:00:24 GMT-0500 (Central Daylight Time),765300.4000000954,173_y_f_n_a.png,O,space,11439,2,1,2126.2000000476837,763174.2000000477,7787,NNB,B,0
1,test,2,1.0,2-Back,1.0,z,Wed Mar 25 2026 15:00:24 GMT-0500 (Central Daylight Time),783510.7999999523,178_m_m_n_a.png,O,z,621,3,1,1643.0999999046326,781867.7000000477,7787,NNB,B,1
2,test,2,0.0,2-Back,1.0,m,Wed Mar 25 2026 15:00:24 GMT-0500 (Central Daylight Time),785542.5,097_m_f_n_a.png,O,m,1003,4,1,2024.9000000953674,783517.5999999046,7787,NNB,B,2
2,test,2,0.0,2-Back,0.0,m,Wed Mar 25 2026 15:00:24 GMT-0500 (Central Daylight Time),788192.2000000477,173_y_f_n_a.png,O,z,1626,5,1,2642.4000000953674,785549.7999999523,7787,NNB,B,3
3,test,2,0.0,2-Back,1.0,m,Wed Mar 25 2026 15:00:24 GMT-0500 (Central Daylight Time),791174.2999999523,065_o_m_n_a.png,O,m,1962,6,1,2975.5,788198.7999999523,7787,NNB,B,4
4,test,2,0.0,2-Back,1.0,m,Wed Mar 25 2026 15:00:24 GMT-0500 (Central Daylight Time),793341.5,152_y_f_n_a.png,O,m,1146,7,1,2163.4000000953674,791178.0999999046,7787,NNB,B,5
5,test,2,1.0,2-Back,1.0,z,Wed Mar 25 2026 15:00:24 GMT-0500 (Central Daylight Time),795840.2000000477,065_o_m_n_a.png,O,z,1476,8,1,2491.7999999523163,793348.4000000954,7787,NNB,B,6
6,test,2,0.0,2-Back,1.0,m,Wed Mar 25 2026 15:00:24 GMT-0500 (Central Daylight Time),797837.5999999046,013_y_m_n_a.png,O,m,978,9,1,1988.6999998092651,795848.9000000954,7787,NNB,B,7
6,test,2,0.0,2-Back,0.0,m,Wed Mar 25 2026 15:00:24 GMT-0500 (Central Daylight Time),800872.0999999046,013_y_m_n_a.png,O,None,2016,10,1,3030.899999856949,797841.2000000477,7787,NNB,B,8
6,test,2,0.0,2-Back,0.0,m,Wed Mar 25 2026 15:00:24 GMT-0500 (Central Daylight Time),803905.2000000477,029_m_f_n_a.png,O,None,2016,11,1,3026.7000000476837,800878.5,7787,NNB,B,9
6,test,2,0.0,2-Back,0.0,m,Wed Mar 25 2026 15:00:24 GMT-0500 (Central Daylight Time),806487.5999999046,173_y_f_n_a.png,O,z,1566,12,1,2575.399999856949,803912.2000000477,7787,NNB,B,10
7,test,2,1.0,2-Back,1.0,z,Wed Mar 25 2026 15:00:24 GMT-0500 (Central Daylight Time),808319.4000000954,029_m_f_n_a.png,O,z,800,13,1,1826.6000001430511,806492.7999999523,7787,NNB,B,11
8,test,2,0.0,2-Back,1.0,m,Wed Mar 25 2026 15:00:24 GMT-0500 (Central Daylight Time),810653.5,176_o_m_n_a.png,O,m,1302,14,1,2327.5999999046326,808325.9000000954,7787,NNB,B,12
8,test,2,0.0,2-Back,0.0,m,Wed Mar 25 2026 15:00:24 GMT-0500 (Central Daylight Time),813667.7000000477,176_o_m_n_a.png,O,z,1988,15,1,3009.5,810658.2000000477,7787,NNB,B,13
8,test,2,0.0,2-Back,0.0,m,Wed Mar 25 2026 15:00:24 GMT-0500 (Central Daylight Time),816702.2000000477,110_o_f_n_a.png,O,None,2015,16,1,3031.600000143051,813670.5999999046,7787,NNB,B,14
8,test,2,0.0,2-Back,0.0,m,Wed Mar 25 2026 15:00:24 GMT-0500 (Central Daylight Time),819732.9000000954,126_m_m_n_a.png,O,None,2015,17,1,3023.4000000953674,816709.5,7787,NNB,B,15
9,test,2,1.0,2-Back,1.0,z,Wed Mar 25 2026 15:00:24 GMT-0500 (Central Daylight Time),821816.2000000477,110_o_f_n_a.png,O,z,1054,18,1,2076.5,819739.7000000477,7787,NNB,B,16
0,test,3,1.0,2-Back,,,Wed Mar 25 2026 15:00:24 GMT-0500 (Central Daylight Time),821816.2000000477,153_y_m_n_a.png,O,space,2193,1,1,2076.5,819739.7000000477,7787,NNB,B,0
0,test,3,1.0,2-Back,,,Wed Mar 25 2026 15:00:24 GMT-0500 (Central Daylight Time),821816.2000000477,153_y_m_n_a.png,O,space,2193,2,1,2076.5,819739.7000000477,7787,NNB,B,0
1,test,3,0.0,2-Back,1.0,m,Wed Mar 25 2026 15:00:24 GMT-0500 (Central Daylight Time),831146.2000000477,110_o_f_n_a.png,O,m,1000,3,1,2024.2999999523163,829121.9000000954,7787,NNB,B,1
2,test,3,0.0,2-Back,1.0,m,Wed Mar 25 2026 15:00:24 GMT-0500 (Central Daylight Time),833277.7999999523,178_m_m_n_a.png,O,m,1105,4,1,2125.0,831152.7999999523,7787,NNB,B,2
3,test,3,1.0,2-Back,1.0,z,Wed Mar 25 2026 15:00:24 GMT-0500 (Central Daylight Time),835143.5,110_o_f_n_a.png,O,z,836,5,1,1860.0,833283.5,7787,NNB,B,3
4,test,3,0.0,2-Back,1.0,m,Wed Mar 25 2026 15:00:24 GMT-0500 (Central Daylight Time),837760.7999999523,013_y_m_n_a.png,O,m,1585,6,1,2614.2000000476837,835146.5999999046,7787,NNB,B,4
5,test,3,0.0,2-Back,1.0,m,Wed Mar 25 2026 15:00:24 GMT-0500 (Central Daylight Time),840042.4000000954,178_m_m_n_a.png,O,m,1258,7,1,2274.0,837768.4000000954,7787,NNB,B,5
6,test,3,1.0,2-Back,1.0,z,Wed Mar 25 2026 15:00:24 GMT-0500 (Central Daylight Time),842424.2999999523,013_y_m_n_a.png,O,z,1350,8,1,2376.2999999523163,840048.0,7787,NNB,B,6
7,test,3,0.0,2-Back,1.0,m,Wed Mar 25 2026 15:00:24 GMT-0500 (Central Daylight Time),844940.0,173_y_f_n_a.png,O,m,1487,9,1,2511.0999999046326,842428.9000000954,7787,NNB,B,7
8,test,3,0.0,2-Back,1.0,m,Wed Mar 25 2026 15:00:24 GMT-0500 (Central Daylight Time),847540.0999999046,126_m_m_n_a.png,O,m,1572,10,1,2595.0,844945.0999999046,7787,NNB,B,8
9,test,3,1.0,2-Back,1.0,z,Wed Mar 25 2026 15:00:24 GMT-0500 (Central Daylight Time),849971.9000000954,173_y_f_n_a.png,O,z,1405,11,1,2426.4000000953674,847545.5,7787,NNB,B,9
10,test,3,1.0,2-Back,1.0,z,Wed Mar 25 2026 15:00:24 GMT-0500 (Central Daylight Time),852354.5999999046,126_m_m_n_a.png,O,z,1363,12,1,2374.899999856949,849979.7000000477,7787,NNB,B,10
11,test,3,0.0,2-Back,1.0,m,Wed Mar 25 2026 15:00:24 GMT-0500 (Central Daylight Time),854371.7999999523,110_o_f_n_a.png,O,m,992,13,1,2009.2999999523163,852362.5,7787,NNB,B,11
12,test,3,0.0,2-Back,1.0,m,Wed Mar 25 2026 15:00:24 GMT-0500 (Central Daylight Time),856503.2999999523,097_m_f_n_a.png,O,m,1111,14,1,2124.899999856949,854378.4000000954,7787,NNB,B,12
13,test,3,0.0,2-Back,1.0,m,Wed Mar 25 2026 15:00:24 GMT-0500 (Central Daylight Time),858937.2999999523,065_o_m_n_a.png,O,m,1410,15,1,2429.7000000476837,856507.5999999046,7787,NNB,B,13
14,test,3,1.0,2-Back,1.0,z,Wed Mar 25 2026 15:00:24 GMT-0500 (Central Daylight Time),861236.5,097_m_f_n_a.png,O,z,1271,16,1,2291.0999999046326,858945.4000000954,7787,NNB,B,14
15,test,3,0.0,2-Back,1.0,m,Wed Mar 25 2026 15:00:24 GMT-0500 (Central Daylight Time),863268.7000000477,086_o_f_n_a.png,O,m,1004,17,1,2025.5,861243.2000000477,7787,NNB,B,15
16,test,3,0.0,2-Back,1.0,m,Wed Mar 25 2026 15:00:24 GMT-0500 (Central Daylight Time),865517.4000000954,086_o_f_n_a.png,O,m,1226,18,1,2244.4000000953674,863273.0,7787,NNB,B,16
0,test,4,0.0,2-Back,,,Wed Mar 25 2026 15:00:24 GMT-0500 (Central Daylight Time),865517.4000000954,176_o_m_n_a.png,O,space,3958,1,1,2244.4000000953674,863273.0,7787,NNB,B,0
0,test,4,0.0,2-Back,,,Wed Mar 25 2026 15:00:24 GMT-0500 (Central Daylight Time),865517.4000000954,152_y_f_n_a.png,O,space,3958,2,1,2244.4000000953674,863273.0,7787,NNB,B,0
1,test,4,1.0,2-Back,1.0,z,Wed Mar 25 2026 15:00:24 GMT-0500 (Central Daylight Time),876748.7999999523,176_o_m_n_a.png,O,z,1058,3,1,2076.899999856949,874671.9000000954,7787,NNB,B,1
2,test,4,1.0,2-Back,1.0,z,Wed Mar 25 2026 15:00:24 GMT-0500 (Central Daylight Time),878880.4000000954,152_y_f_n_a.png,O,z,1110,4,1,2127.0,876753.4000000954,7787,NNB,B,2
3,test,4,0.0,2-Back,1.0,m,Wed Mar 25 2026 15:00:24 GMT-0500 (Central Daylight Time),880829.0999999046,110_o_f_n_a.png,O,m,924,5,1,1941.0999999046326,878888.0,7787,NNB,B,3
3,test,4,0.0,2-Back,0.0,m,Wed Mar 25 2026 15:00:24 GMT-0500 (Central Daylight Time),883295.7000000477,110_o_f_n_a.png,O,z,1435,6,1,2460.0,880835.7000000477,7787,NNB,B,4
4,test,4,0.0,2-Back,1.0,m,Wed Mar 25 2026 15:00:24 GMT-0500 (Central Daylight Time),885326.5,029_m_f_n_a.png,O,m,1009,7,1,2023.2999999523163,883303.2000000477,7787,NNB,B,5
5,test,4,0.0,2-Back,1.0,m,Wed Mar 25 2026 15:00:24 GMT-0500 (Central Daylight Time),887543.9000000954,013_y_m_n_a.png,O,m,1185,8,1,2213.0,885330.9000000954,7787,NNB,B,6
6,test,4,1.0,2-Back,1.0,z,Wed Mar 25 2026 15:00:24 GMT-0500 (Central Daylight Time),889676.7999999523,029_m_f_n_a.png,O,z,1108,9,1,2126.7000000476837,887550.0999999046,7787,NNB,B,7
7,test,4,0.0,2-Back,1.0,m,Wed Mar 25 2026 15:00:24 GMT-0500 (Central Daylight Time),892059.5999999046,126_m_m_n_a.png,O,m,1356,10,1,2374.699999809265,889684.9000000954,7787,NNB,B,8
8,test,4,0.0,2-Back,1.0,m,Wed Mar 25 2026 15:00:24 GMT-0500 (Central Daylight Time),894425.0999999046,013_y_m_n_a.png,O,m,1342,11,1,2359.199999809265,892065.9000000954,7787,NNB,B,9
9,test,4,0.0,2-Back,1.0,m,Wed Mar 25 2026 15:00:24 GMT-0500 (Central Daylight Time),896876.2000000477,086_o_f_n_a.png,O,m,1427,12,1,2445.600000143051,894430.5999999046,7787,NNB,B,10
10,test,4,0.0,2-Back,1.0,m,Wed Mar 25 2026 15:00:24 GMT-0500 (Central Daylight Time),898990.5999999046,153_y_m_n_a.png,O,m,1087,13,1,2105.7999999523163,896884.7999999523,7787,NNB,B,11
10,test,4,1.0,2-Back,0.0,z,Wed Mar 25 2026 15:00:24 GMT-0500 (Central Daylight Time),901240.2999999523,086_o_f_n_a.png,O,m,1220,14,1,2242.899999856949,898997.4000000954,7787,NNB,B,12
11,test,4,1.0,2-Back,1.0,z,Wed Mar 25 2026 15:00:24 GMT-0500 (Central Daylight Time),903421.7999999523,153_y_m_n_a.png,O,z,1152,15,1,2175.7000000476837,901246.0999999046,7787,NNB,B,13
12,test,4,0.0,2-Back,1.0,m,Wed Mar 25 2026 15:00:24 GMT-0500 (Central Daylight Time),905526.7999999523,178_m_m_n_a.png,O,m,1075,16,1,2100.0999999046326,903426.7000000477,7787,NNB,B,14
13,test,4,0.0,2-Back,1.0,m,Wed Mar 25 2026 15:00:24 GMT-0500 (Central Daylight Time),907638.4000000954,097_m_f_n_a.png,O,m,1090,17,1,2108.300000190735,905530.0999999046,7787,NNB,B,15
14,test,4,1.0,2-Back,1.0,z,Wed Mar 25 2026 15:00:24 GMT-0500 (Central Daylight Time),909638.7000000477,178_m_m_n_a.png,O,z,968,18,1,1996.1000001430511,907642.5999999046,7787,NNB,B,16
0,test,5,1.0,2-Back,,,Wed Mar 25 2026 15:00:24 GMT-0500 (Central Daylight Time),909638.7000000477,153_y_m_n_a.png,O,space,2572,1,1,1996.1000001430511,907642.5999999046,7787,NNB,B,0
0,test,5,1.0,2-Back,,,Wed Mar 25 2026 15:00:24 GMT-0500 (Central Daylight Time),909638.7000000477,097_m_f_n_a.png,O,space,2572,2,1,1996.1000001430511,907642.5999999046,7787,NNB,B,0
1,test,5,1.0,2-Back,1.0,z,Wed Mar 25 2026 15:00:24 GMT-0500 (Central Daylight Time),919333.7000000477,153_y_m_n_a.png,O,z,1045,3,1,2055.600000143051,917278.0999999046,7787,NNB,B,1
1,test,5,1.0,2-Back,0.0,z,Wed Mar 25 2026 15:00:24 GMT-0500 (Central Daylight Time),920900.5999999046,097_m_f_n_a.png,O,m,548,4,1,1558.5999999046326,919342.0,7787,NNB,B,2
2,test,5,0.0,2-Back,1.0,m,Wed Mar 25 2026 15:00:24 GMT-0500 (Central Daylight Time),923399.5999999046,086_o_f_n_a.png,O,m,1469,5,1,2492.199999809265,920907.4000000954,7787,NNB,B,3
3,test,5,0.0,2-Back,1.0,m,Wed Mar 25 2026 15:00:24 GMT-0500 (Central Daylight Time),926049.5,153_y_m_n_a.png,O,m,1618,6,1,2641.7000000476837,923407.7999999523,7787,NNB,B,4
4,test,5,0.0,2-Back,1.0,m,Wed Mar 25 2026 15:00:24 GMT-0500 (Central Daylight Time),928281.2999999523,173_y_f_n_a.png,O,m,1206,7,1,2225.0,926056.2999999523,7787,NNB,B,5
4,test,5,0.0,2-Back,0.0,m,Wed Mar 25 2026 15:00:24 GMT-0500 (Central Daylight Time),930446.5999999046,086_o_f_n_a.png,O,z,1135,8,1,2157.2999999523163,928289.2999999523,7787,NNB,B,6
5,test,5,1.0,2-Back,1.0,z,Wed Mar 25 2026 15:00:24 GMT-0500 (Central Daylight Time),933031.0,173_y_f_n_a.png,O,z,1549,9,1,2578.0999999046326,930452.9000000954,7787,NNB,B,7
6,test,5,0.0,2-Back,1.0,m,Wed Mar 25 2026 15:00:24 GMT-0500 (Central Daylight Time),935029.2000000477,065_o_m_n_a.png,O,m,971,10,1,1993.7999999523163,933035.4000000954,7787,NNB,B,8
7,test,5,0.0,2-Back,1.0,m,Wed Mar 25 2026 15:00:24 GMT-0500 (Central Daylight Time),937077.7999999523,029_m_f_n_a.png,O,m,1021,11,1,2042.5,935035.2999999523,7787,NNB,B,9
8,test,5,0.0,2-Back,1.0,m,Wed Mar 25 2026 15:00:24 GMT-0500 (Central Daylight Time),939260.7999999523,126_m_m_n_a.png,O,m,1164,12,1,2179.7999999523163,937081.0,7787,NNB,B,10
8,test,5,0.0,2-Back,0.0,m,Wed Mar 25 2026 15:00:24 GMT-0500 (Central Daylight Time),941327.0999999046,065_o_m_n_a.png,O,z,1047,13,1,2060.0,939267.0999999046,7787,NNB,B,11
9,test,5,1.0,2-Back,1.0,z,Wed Mar 25 2026 15:00:24 GMT-0500 (Central Daylight Time),943459.2999999523,126_m_m_n_a.png,O,z,1107,14,1,2125.5,941333.7999999523,7787,NNB,B,12
10,test,5,0.0,2-Back,1.0,m,Wed Mar 25 2026 15:00:24 GMT-0500 (Central Daylight Time),945426.7999999523,152_y_f_n_a.png,O,m,934,15,1,1961.8999998569489,943464.9000000954,7787,NNB,B,13
11,test,5,0.0,2-Back,1.0,m,Wed Mar 25 2026 15:00:24 GMT-0500 (Central Daylight Time),947575.7000000477,176_o_m_n_a.png,O,m,1126,16,1,2141.7000000476837,945434.0,7787,NNB,B,14
12,test,5,0.0,2-Back,1.0,m,Wed Mar 25 2026 15:00:24 GMT-0500 (Central Daylight Time),949756.9000000954,029_m_f_n_a.png,O,m,1154,17,1,2174.100000143051,947582.7999999523,7787,NNB,B,15
12,test,5,1.0,2-Back,0.0,z,Wed Mar 25 2026 15:00:24 GMT-0500 (Central Daylight Time),952239.5999999046,176_o_m_n_a.png,O,m,1460,18,1,2479.699999809265,949759.9000000954,7787,NNB,B,16
