block_c,block_dur,condition,countdown,datetime,endtime,list,multichar_response,project,response,response_time,session_number,start_end,starttime,subject_id,task,task_vers,trial
,,,,Wed Sep 03 2025 14:01:16 GMT-0500 (Central Daylight Time),,,,O,space,511,1,,,7221,WL,C,
prac,,0,,Wed Sep 03 2025 14:01:16 GMT-0500 (Central Daylight Time),,NA,b,O,b,1255,1,,,7221,WL,C,1.0
prac,,0,,Wed Sep 03 2025 14:01:16 GMT-0500 (Central Daylight Time),,NA,bo,O,o,384,1,,,7221,WL,C,1.0
prac,,0,,Wed Sep 03 2025 14:01:16 GMT-0500 (Central Daylight Time),,NA,boo,O,o,136,1,,,7221,WL,C,1.0
prac,,0,,Wed Sep 03 2025 14:01:16 GMT-0500 (Central Daylight Time),,NA,boos,O,s,219,1,,,7221,WL,C,1.0
prac,,0,,Wed Sep 03 2025 14:01:16 GMT-0500 (Central Daylight Time),,NA,boost,O,t,298,1,,,7221,WL,C,1.0
prac,,0,,Wed Sep 03 2025 14:01:16 GMT-0500 (Central Daylight Time),,NA,boostenter,O,enter,2077,1,,,7221,WL,C,1.0
1,3.8489999771118164,learn,56151.00002288818,Wed Sep 03 2025 14:01:16 GMT-0500 (Central Daylight Time),160425.70000000298,A,t,O,t,3827,1,3848.3000000044703,156577.3999999985,7221,WL,C,1.0
1,4.065000057220459,learn,55934.99994277954,Wed Sep 03 2025 14:01:16 GMT-0500 (Central Daylight Time),160642.20000000298,A,to,O,o,194,1,4064.8000000044703,156577.3999999985,7221,WL,C,1.0
1,4.499000072479248,learn,55500.99992752075,Wed Sep 03 2025 14:01:16 GMT-0500 (Central Daylight Time),161075.5,A,tow,O,w,419,1,4498.10000000149,156577.3999999985,7221,WL,C,1.0
1,4.615000009536743,learn,55384.99999046326,Wed Sep 03 2025 14:01:16 GMT-0500 (Central Daylight Time),161191.79999999702,A,towe,O,e,106,1,4614.39999999851,156577.3999999985,7221,WL,C,1.0
1,4.815000057220459,learn,55184.99994277954,Wed Sep 03 2025 14:01:16 GMT-0500 (Central Daylight Time),161391.79999999702,A,tower,O,r,181,1,4814.39999999851,156577.3999999985,7221,WL,C,1.0
1,5.148000001907349,learn,54851.99999809265,Wed Sep 03 2025 14:01:16 GMT-0500 (Central Daylight Time),161725.20000000298,A,towers,O,s,325,1,5147.80000000447,156577.3999999985,7221,WL,C,1.0
1,6.014999866485596,learn,53985.000133514404,Wed Sep 03 2025 14:01:16 GMT-0500 (Central Daylight Time),162591.6000000015,A,tower,O,backspace,857,1,6014.20000000298,156577.3999999985,7221,WL,C,1.0
1,6.46399998664856,learn,53536.00001335144,Wed Sep 03 2025 14:01:16 GMT-0500 (Central Daylight Time),163041.3999999985,A,towerenter,O,enter,429,1,6464.0,156577.3999999985,7221,WL,C,1.0
1,7.813999891281128,learn,52186.00010871887,Wed Sep 03 2025 14:01:16 GMT-0500 (Central Daylight Time),164391.1000000015,A,w,O,w,1332,1,1349.1000000014901,163042.0,7221,WL,C,2.0
1,8.013999938964844,learn,51986.000061035156,Wed Sep 03 2025 14:01:16 GMT-0500 (Central Daylight Time),164591.0,A,wh,O,h,183,1,1549.0,163042.0,7221,WL,C,2.0
1,8.164000034332275,learn,51835.999965667725,Wed Sep 03 2025 14:01:16 GMT-0500 (Central Daylight Time),164740.8999999985,A,whe,O,e,142,1,1698.8999999985099,163042.0,7221,WL,C,2.0
1,8.397000074386597,learn,51602.9999256134,Wed Sep 03 2025 14:01:16 GMT-0500 (Central Daylight Time),164973.8999999985,A,whea,O,a,216,1,1931.8999999985099,163042.0,7221,WL,C,2.0
1,8.647000074386597,learn,51352.9999256134,Wed Sep 03 2025 14:01:16 GMT-0500 (Central Daylight Time),165224.0,A,wheat,O,t,239,1,2182.0,163042.0,7221,WL,C,2.0
1,9.513000011444092,learn,50486.99998855591,Wed Sep 03 2025 14:01:16 GMT-0500 (Central Daylight Time),166090.3999999985,A,wheatenter,O,enter,852,1,3048.39999999851,163042.0,7221,WL,C,2.0
1,10.02999997138977,learn,49970.00002861023,Wed Sep 03 2025 14:01:16 GMT-0500 (Central Daylight Time),166606.8999999985,A,s,O,s,499,1,516.0,166090.8999999985,7221,WL,C,3.0
1,10.296000003814697,learn,49703.9999961853,Wed Sep 03 2025 14:01:16 GMT-0500 (Central Daylight Time),166873.20000000298,A,su,O,u,254,1,782.3000000044703,166090.8999999985,7221,WL,C,3.0
1,10.647000074386597,learn,49352.9999256134,Wed Sep 03 2025 14:01:16 GMT-0500 (Central Daylight Time),167223.6000000015,A,sug,O,g,341,1,1132.7000000029802,166090.8999999985,7221,WL,C,3.0
1,10.930000066757202,learn,49069.9999332428,Wed Sep 03 2025 14:01:16 GMT-0500 (Central Daylight Time),167506.79999999702,A,suga,O,a,277,1,1415.8999999985099,166090.8999999985,7221,WL,C,3.0
1,11.180000066757202,learn,48819.9999332428,Wed Sep 03 2025 14:01:16 GMT-0500 (Central Daylight Time),167756.6000000015,A,sugar,O,r,235,1,1665.7000000029802,166090.8999999985,7221,WL,C,3.0
1,11.763000011444092,learn,48236.99998855591,Wed Sep 03 2025 14:01:16 GMT-0500 (Central Daylight Time),168339.70000000298,A,sugarenter,O,enter,577,1,2248.8000000044703,166090.8999999985,7221,WL,C,3.0
1,12.27999997138977,learn,47720.00002861023,Wed Sep 03 2025 14:01:16 GMT-0500 (Central Daylight Time),168856.70000000298,A,c,O,c,505,1,516.4000000059605,168340.29999999702,7221,WL,C,4.0
1,12.611999988555908,learn,47388.00001144409,Wed Sep 03 2025 14:01:16 GMT-0500 (Central Daylight Time),169189.29999999702,A,co,O,o,325,1,849.0,168340.29999999702,7221,WL,C,4.0
1,12.878999948501587,learn,47121.00005149841,Wed Sep 03 2025 14:01:16 GMT-0500 (Central Daylight Time),169455.8999999985,A,cor,O,r,249,1,1115.6000000014901,168340.29999999702,7221,WL,C,4.0
1,13.161999940872192,learn,46838.00005912781,Wed Sep 03 2025 14:01:16 GMT-0500 (Central Daylight Time),169739.29999999702,A,corn,O,n,262,1,1399.0,168340.29999999702,7221,WL,C,4.0
1,13.875,learn,46125.0,Wed Sep 03 2025 14:01:16 GMT-0500 (Central Daylight Time),170451.6000000015,A,cornenter,O,enter,707,1,2111.3000000044703,168340.29999999702,7221,WL,C,4.0
1,14.994999885559082,learn,45005.00011444092,Wed Sep 03 2025 14:01:16 GMT-0500 (Central Daylight Time),171572.0,A,q,O,q,1113,1,1120.0,170452.0,7221,WL,C,5.0
1,15.361999988555908,learn,44638.00001144409,Wed Sep 03 2025 14:01:16 GMT-0500 (Central Daylight Time),171938.5,A,qu,O,u,353,1,1486.5,170452.0,7221,WL,C,5.0
1,15.611999988555908,learn,44388.00001144409,Wed Sep 03 2025 14:01:16 GMT-0500 (Central Daylight Time),172188.5,A,que,O,e,236,1,1736.5,170452.0,7221,WL,C,5.0
1,15.82800006866455,learn,44171.99993133545,Wed Sep 03 2025 14:01:16 GMT-0500 (Central Daylight Time),172405.1000000015,A,quee,O,e,201,1,1953.1000000014901,170452.0,7221,WL,C,5.0
1,16.227999925613403,learn,43772.0000743866,Wed Sep 03 2025 14:01:16 GMT-0500 (Central Daylight Time),172805.1000000015,A,queen,O,n,392,1,2353.10000000149,170452.0,7221,WL,C,5.0
1,17.0939998626709,learn,42906.0001373291,Wed Sep 03 2025 14:01:16 GMT-0500 (Central Daylight Time),173671.20000000298,A,queenenter,O,enter,848,1,3219.2000000029802,170452.0,7221,WL,C,5.0
1,18.293999910354614,learn,41706.000089645386,Wed Sep 03 2025 14:01:16 GMT-0500 (Central Daylight Time),174870.70000000298,A,l,O,l,1183,1,1199.1000000014901,173671.6000000015,7221,WL,C,6.0
1,18.460999965667725,learn,41539.000034332275,Wed Sep 03 2025 14:01:16 GMT-0500 (Central Daylight Time),175037.70000000298,A,le,O,e,159,1,1366.1000000014901,173671.6000000015,7221,WL,C,6.0
1,18.99399995803833,learn,41006.00004196167,Wed Sep 03 2025 14:01:16 GMT-0500 (Central Daylight Time),175570.5,A,let,O,t,527,1,1898.8999999985099,173671.6000000015,7221,WL,C,6.0
1,19.377000093460083,learn,40622.99990653992,Wed Sep 03 2025 14:01:16 GMT-0500 (Central Daylight Time),175953.8999999985,A,lett,O,t,370,1,2282.2999999970198,173671.6000000015,7221,WL,C,6.0
1,19.64400005340576,learn,40355.99994659424,Wed Sep 03 2025 14:01:16 GMT-0500 (Central Daylight Time),176220.70000000298,A,lette,O,e,261,1,2549.10000000149,173671.6000000015,7221,WL,C,6.0
1,19.793999910354614,learn,40206.000089645386,Wed Sep 03 2025 14:01:16 GMT-0500 (Central Daylight Time),176370.5,A,letter,O,r,144,1,2698.89999999851,173671.6000000015,7221,WL,C,6.0
1,20.32699990272522,learn,39673.00009727478,Wed Sep 03 2025 14:01:16 GMT-0500 (Central Daylight Time),176903.5,A,letterenter,O,enter,515,1,3231.89999999851,173671.6000000015,7221,WL,C,6.0
1,20.743000030517578,learn,39256.99996948242,Wed Sep 03 2025 14:01:16 GMT-0500 (Central Daylight Time),177320.20000000298,A,d,O,d,399,1,416.30000000447035,176903.8999999985,7221,WL,C,7.0
1,22.092000007629395,learn,37907.999992370605,Wed Sep 03 2025 14:01:16 GMT-0500 (Central Daylight Time),178669.79999999702,A,do,O,o,1341,1,1765.8999999985099,176903.8999999985,7221,WL,C,7.0
1,22.30900001525879,learn,37690.99998474121,Wed Sep 03 2025 14:01:16 GMT-0500 (Central Daylight Time),178886.3999999985,A,doc,O,c,200,1,1982.5,176903.8999999985,7221,WL,C,7.0
1,22.60800004005432,learn,37391.99995994568,Wed Sep 03 2025 14:01:16 GMT-0500 (Central Daylight Time),179186.20000000298,A,doct,O,t,287,1,2282.3000000044703,176903.8999999985,7221,WL,C,7.0
1,22.842000007629395,learn,37157.999992370605,Wed Sep 03 2025 14:01:16 GMT-0500 (Central Daylight Time),179419.5,A,docto,O,o,219,1,2515.60000000149,176903.8999999985,7221,WL,C,7.0
1,23.058000087738037,learn,36941.99991226196,Wed Sep 03 2025 14:01:16 GMT-0500 (Central Daylight Time),179635.79999999702,A,doctor,O,r,211,1,2731.89999999851,176903.8999999985,7221,WL,C,7.0
1,23.592000007629395,learn,36407.999992370605,Wed Sep 03 2025 14:01:16 GMT-0500 (Central Daylight Time),180169.3999999985,A,doctorenter,O,enter,514,1,3265.5,176903.8999999985,7221,WL,C,7.0
1,24.0239999294281,learn,35976.0000705719,Wed Sep 03 2025 14:01:16 GMT-0500 (Central Daylight Time),180602.29999999702,A,b,O,b,411,1,432.3999999985099,180169.8999999985,7221,WL,C,8.0
1,25.69099998474121,learn,34309.00001525879,Wed Sep 03 2025 14:01:16 GMT-0500 (Central Daylight Time),182268.5,A,bo,O,o,1650,1,2098.60000000149,180169.8999999985,7221,WL,C,8.0
1,26.5239999294281,learn,33476.0000705719,Wed Sep 03 2025 14:01:16 GMT-0500 (Central Daylight Time),183101.6000000015,A,boy,O,y,825,1,2931.7000000029802,180169.8999999985,7221,WL,C,8.0
1,28.139999866485596,learn,31860.000133514404,Wed Sep 03 2025 14:01:16 GMT-0500 (Central Daylight Time),184717.79999999702,A,boyenter,O,enter,1601,1,4547.89999999851,180169.8999999985,7221,WL,C,8.0
1,28.740000009536743,learn,31259.999990463257,Wed Sep 03 2025 14:01:16 GMT-0500 (Central Daylight Time),185317.8999999985,A,s,O,s,593,1,599.7999999970198,184718.1000000015,7221,WL,C,9.0
1,29.055999994277954,learn,30944.000005722046,Wed Sep 03 2025 14:01:16 GMT-0500 (Central Daylight Time),185634.1000000015,A,sh,O,h,303,1,916.0,184718.1000000015,7221,WL,C,9.0
1,29.322999954223633,learn,30677.000045776367,Wed Sep 03 2025 14:01:16 GMT-0500 (Central Daylight Time),185900.8999999985,A,sho,O,o,260,1,1182.7999999970198,184718.1000000015,7221,WL,C,9.0
1,29.58899998664856,learn,30411.00001335144,Wed Sep 03 2025 14:01:16 GMT-0500 (Central Daylight Time),186167.29999999702,A,shor,O,r,249,1,1449.1999999955297,184718.1000000015,7221,WL,C,9.0
1,29.73900008201599,learn,30260.99991798401,Wed Sep 03 2025 14:01:16 GMT-0500 (Central Daylight Time),186317.20000000298,A,shore,O,e,142,1,1599.1000000014901,184718.1000000015,7221,WL,C,9.0
1,30.805999994277954,learn,29194.000005722046,Wed Sep 03 2025 14:01:16 GMT-0500 (Central Daylight Time),187383.70000000298,A,shoreenter,O,enter,1049,1,2665.60000000149,184718.1000000015,7221,WL,C,9.0
1,32.22199988365173,learn,27778.000116348267,Wed Sep 03 2025 14:01:16 GMT-0500 (Central Daylight Time),188800.20000000298,A,n,O,n,1399,1,1416.1000000014901,187384.1000000015,7221,WL,C,10.0
1,32.47199988365173,learn,27528.000116348267,Wed Sep 03 2025 14:01:16 GMT-0500 (Central Daylight Time),189050.0,A,na,O,a,229,1,1665.8999999985099,187384.1000000015,7221,WL,C,10.0
1,32.65499997138977,learn,27345.00002861023,Wed Sep 03 2025 14:01:16 GMT-0500 (Central Daylight Time),189233.29999999702,A,nai,O,i,173,1,1849.1999999955297,187384.1000000015,7221,WL,C,10.0
1,32.98900008201599,learn,27010.99991798401,Wed Sep 03 2025 14:01:16 GMT-0500 (Central Daylight Time),189566.5,A,nail,O,l,316,1,2182.39999999851,187384.1000000015,7221,WL,C,10.0
1,34.0550000667572,learn,25944.999933242798,Wed Sep 03 2025 14:01:16 GMT-0500 (Central Daylight Time),190632.70000000298,A,nailenter,O,enter,1055,1,3248.60000000149,187384.1000000015,7221,WL,C,10.0
1,35.08800005912781,learn,24911.999940872192,Wed Sep 03 2025 14:01:16 GMT-0500 (Central Daylight Time),191665.8999999985,A,f,O,f,1022,1,1032.7999999970198,190633.1000000015,7221,WL,C,11.0
1,35.38800001144409,learn,24611.99998855591,Wed Sep 03 2025 14:01:16 GMT-0500 (Central Daylight Time),191965.70000000298,A,fl,O,l,284,1,1332.6000000014901,190633.1000000015,7221,WL,C,11.0
1,35.65400004386902,learn,24345.99995613098,Wed Sep 03 2025 14:01:16 GMT-0500 (Central Daylight Time),192232.20000000298,A,fla,O,a,257,1,1599.1000000014901,190633.1000000015,7221,WL,C,11.0
1,35.9539999961853,learn,24046.000003814697,Wed Sep 03 2025 14:01:16 GMT-0500 (Central Daylight Time),192532.20000000298,A,flag,O,g,293,1,1899.1000000014901,190633.1000000015,7221,WL,C,11.0
1,36.82100009918213,learn,23178.99990081787,Wed Sep 03 2025 14:01:16 GMT-0500 (Central Daylight Time),193398.5,A,flagenter,O,enter,858,1,2765.39999999851,190633.1000000015,7221,WL,C,11.0
1,38.3529999256134,learn,21647.000074386597,Wed Sep 03 2025 14:01:16 GMT-0500 (Central Daylight Time),194931.20000000298,A,h,O,h,1519,1,1532.3000000044703,193398.8999999985,7221,WL,C,12.0
1,38.97000002861023,learn,21029.99997138977,Wed Sep 03 2025 14:01:16 GMT-0500 (Central Daylight Time),195547.5,A,ho,O,o,611,1,2148.60000000149,193398.8999999985,7221,WL,C,12.0
1,39.3199999332428,learn,20680.000066757202,Wed Sep 03 2025 14:01:16 GMT-0500 (Central Daylight Time),195897.79999999702,A,hom,O,m,339,1,2498.89999999851,193398.8999999985,7221,WL,C,12.0
1,39.70300006866455,learn,20296.99993133545,Wed Sep 03 2025 14:01:16 GMT-0500 (Central Daylight Time),196281.20000000298,A,home,O,e,365,1,2882.3000000044703,193398.8999999985,7221,WL,C,12.0
1,40.38599991798401,learn,19614.00008201599,Wed Sep 03 2025 14:01:16 GMT-0500 (Central Daylight Time),196964.20000000298,A,homeenter,O,enter,669,1,3565.3000000044703,193398.8999999985,7221,WL,C,12.0
1,56.16499996185303,learn,3835.0000381469727,Wed Sep 03 2025 14:01:16 GMT-0500 (Central Daylight Time),212742.6000000015,A,enter,O,enter,15770,1,15778.0,196964.6000000015,7221,WL,C,13.0
1,56.73099994659424,learn,3269.0000534057617,Wed Sep 03 2025 14:01:16 GMT-0500 (Central Daylight Time),213308.8999999985,A,enter,O,enter,551,1,565.8999999985099,212743.0,7221,WL,C,14.0
1,57.46399998664856,learn,2536.0000133514404,Wed Sep 03 2025 14:01:16 GMT-0500 (Central Daylight Time),214042.20000000298,A,enter,O,enter,721,1,732.8000000044703,213309.3999999985,7221,WL,C,15.0
2,1.3670001029968262,learn,58632.999897003174,Wed Sep 03 2025 14:01:16 GMT-0500 (Central Daylight Time),300814.8999999985,A,c,O,c,1350,1,1366.0,299448.8999999985,7221,WL,C,1.0
2,1.7330000400543213,learn,58266.99995994568,Wed Sep 03 2025 14:01:16 GMT-0500 (Central Daylight Time),301181.5,A,ca,O,a,359,1,1732.6000000014901,299448.8999999985,7221,WL,C,1.0
2,2.0329999923706055,learn,57967.000007629395,Wed Sep 03 2025 14:01:16 GMT-0500 (Central Daylight Time),301481.5,A,cam,O,m,289,1,2032.6000000014901,299448.8999999985,7221,WL,C,1.0
2,2.365999937057495,learn,57634.000062942505,Wed Sep 03 2025 14:01:16 GMT-0500 (Central Daylight Time),301814.5,A,camp,O,p,325,1,2365.60000000149,299448.8999999985,7221,WL,C,1.0
2,3.365999937057495,learn,56634.000062942505,Wed Sep 03 2025 14:01:16 GMT-0500 (Central Daylight Time),302814.1000000015,A,campenter,O,enter,991,1,3365.2000000029802,299448.8999999985,7221,WL,C,1.0
2,4.266000032424927,learn,55733.99996757507,Wed Sep 03 2025 14:01:16 GMT-0500 (Central Daylight Time),303714.1000000015,A,c,O,c,889,1,899.6000000014901,302814.5,7221,WL,C,2.0
2,4.499000072479248,learn,55500.99992752075,Wed Sep 03 2025 14:01:16 GMT-0500 (Central Daylight Time),303947.1000000015,A,ca,O,a,228,1,1132.6000000014901,302814.5,7221,WL,C,2.0
2,4.832000017166138,learn,55167.99998283386,Wed Sep 03 2025 14:01:16 GMT-0500 (Central Daylight Time),304280.299999997,A,cat,O,t,314,1,1465.7999999970198,302814.5,7221,WL,C,2.0
2,5.015000104904175,learn,54984.999895095825,Wed Sep 03 2025 14:01:16 GMT-0500 (Central Daylight Time),304463.8999999985,A,catt,O,t,166,1,1649.3999999985099,302814.5,7221,WL,C,2.0
2,5.348999977111816,learn,54651.00002288818,Wed Sep 03 2025 14:01:16 GMT-0500 (Central Daylight Time),304797.0,A,cattl,O,l,326,1,1982.5,302814.5,7221,WL,C,2.0
2,5.549000024795532,learn,54450.99997520447,Wed Sep 03 2025 14:01:16 GMT-0500 (Central Daylight Time),304997.0,A,cattle,O,e,185,1,2182.5,302814.5,7221,WL,C,2.0
2,6.049000024795532,learn,53950.99997520447,Wed Sep 03 2025 14:01:16 GMT-0500 (Central Daylight Time),305497.200000003,A,cattleenter,O,enter,490,1,2682.7000000029802,302814.5,7221,WL,C,2.0
2,6.930999994277954,learn,53069.000005722046,Wed Sep 03 2025 14:01:16 GMT-0500 (Central Daylight Time),306379.5,A,b,O,b,870,1,882.0,305497.5,7221,WL,C,3.0
2,7.164999961853027,learn,52835.00003814697,Wed Sep 03 2025 14:01:16 GMT-0500 (Central Daylight Time),306612.8999999985,A,bo,O,o,227,1,1115.3999999985099,305497.5,7221,WL,C,3.0
2,7.331000089645386,learn,52668.999910354614,Wed Sep 03 2025 14:01:16 GMT-0500 (Central Daylight Time),306779.5,A,bod,O,d,161,1,1282.0,305497.5,7221,WL,C,3.0
2,7.615000009536743,learn,52384.99999046326,Wed Sep 03 2025 14:01:16 GMT-0500 (Central Daylight Time),307062.799999997,A,body,O,y,267,1,1565.2999999970198,305497.5,7221,WL,C,3.0
2,8.364000082015991,learn,51635.99991798401,Wed Sep 03 2025 14:01:16 GMT-0500 (Central Daylight Time),307812.700000003,A,bodyenter,O,enter,743,1,2315.2000000029802,305497.5,7221,WL,C,3.0
2,9.597000122070312,learn,50402.99987792969,Wed Sep 03 2025 14:01:16 GMT-0500 (Central Daylight Time),309045.6000000015,A,t,O,t,1226,1,1232.5,307813.1000000015,7221,WL,C,4.0
2,9.94700002670288,learn,50052.99997329712,Wed Sep 03 2025 14:01:16 GMT-0500 (Central Daylight Time),309395.700000003,A,to,O,o,337,1,1582.6000000014901,307813.1000000015,7221,WL,C,4.0
2,10.147000074386597,learn,49852.9999256134,Wed Sep 03 2025 14:01:16 GMT-0500 (Central Daylight Time),309595.3999999985,A,tow,O,w,187,1,1782.2999999970198,307813.1000000015,7221,WL,C,4.0
2,10.263999938964844,learn,49736.000061035156,Wed Sep 03 2025 14:01:16 GMT-0500 (Central Daylight Time),309712.200000003,A,towe,O,e,99,1,1899.1000000014901,307813.1000000015,7221,WL,C,4.0
2,10.397000074386597,learn,49602.9999256134,Wed Sep 03 2025 14:01:16 GMT-0500 (Central Daylight Time),309845.3999999985,A,tower,O,r,126,1,2032.2999999970198,307813.1000000015,7221,WL,C,4.0
2,10.980000019073486,learn,49019.999980926514,Wed Sep 03 2025 14:01:16 GMT-0500 (Central Daylight Time),310428.6000000015,A,towerenter,O,enter,569,1,2615.5,307813.1000000015,7221,WL,C,4.0
2,15.562000036239624,learn,44437.999963760376,Wed Sep 03 2025 14:01:16 GMT-0500 (Central Daylight Time),315010.6000000015,A,f,O,f,4569,1,4581.60000000149,310429.0,7221,WL,C,5.0
2,15.995000123977661,learn,44004.99987602234,Wed Sep 03 2025 14:01:16 GMT-0500 (Central Daylight Time),315443.299999997,A,fa,O,a,428,1,5014.29999999702,310429.0,7221,WL,C,5.0
2,16.26200008392334,learn,43737.99991607666,Wed Sep 03 2025 14:01:16 GMT-0500 (Central Daylight Time),315710.200000003,A,fag,O,g,259,1,5281.20000000298,310429.0,7221,WL,C,5.0
2,18.16100001335144,learn,41838.99998664856,Wed Sep 03 2025 14:01:16 GMT-0500 (Central Daylight Time),317609.6000000015,A,fa,O,backspace,1887,1,7180.60000000149,310429.0,7221,WL,C,5.0
2,18.477999925613403,learn,41522.0000743866,Wed Sep 03 2025 14:01:16 GMT-0500 (Central Daylight Time),317926.200000003,A,f,O,backspace,309,1,7497.20000000298,310429.0,7221,WL,C,5.0
2,19.727999925613403,learn,40272.0000743866,Wed Sep 03 2025 14:01:16 GMT-0500 (Central Daylight Time),319175.8999999985,A,fl,O,l,1240,1,8746.89999999851,310429.0,7221,WL,C,5.0
2,20.009999990463257,learn,39990.00000953674,Wed Sep 03 2025 14:01:16 GMT-0500 (Central Daylight Time),319458.799999997,A,fla,O,a,278,1,9029.79999999702,310429.0,7221,WL,C,5.0
2,20.377000093460083,learn,39622.99990653992,Wed Sep 03 2025 14:01:16 GMT-0500 (Central Daylight Time),319825.700000003,A,flag,O,g,347,1,9396.70000000298,310429.0,7221,WL,C,5.0
2,21.22699999809265,learn,38773.00000190735,Wed Sep 03 2025 14:01:16 GMT-0500 (Central Daylight Time),320675.1000000015,A,flagenter,O,enter,836,1,10246.10000000149,310429.0,7221,WL,C,5.0
2,22.426000118255615,learn,37573.999881744385,Wed Sep 03 2025 14:01:16 GMT-0500 (Central Daylight Time),321874.700000003,A,c,O,c,1194,1,1199.2000000029802,320675.5,7221,WL,C,6.0
2,22.610000133514404,learn,37389.999866485596,Wed Sep 03 2025 14:01:16 GMT-0500 (Central Daylight Time),322058.200000003,A,co,O,o,170,1,1382.7000000029802,320675.5,7221,WL,C,6.0
2,22.842999935150146,learn,37157.00006484985,Wed Sep 03 2025 14:01:16 GMT-0500 (Central Daylight Time),322291.5,A,cor,O,r,220,1,1616.0,320675.5,7221,WL,C,6.0
2,23.243000030517578,learn,36756.99996948242,Wed Sep 03 2025 14:01:16 GMT-0500 (Central Daylight Time),322691.200000003,A,corn,O,n,394,1,2015.7000000029802,320675.5,7221,WL,C,6.0
2,23.89300012588501,learn,36106.99987411499,Wed Sep 03 2025 14:01:16 GMT-0500 (Central Daylight Time),323341.299999997,A,cornenter,O,enter,635,1,2665.7999999970198,320675.5,7221,WL,C,6.0
2,24.358999967575073,learn,35641.00003242493,Wed Sep 03 2025 14:01:16 GMT-0500 (Central Daylight Time),323807.700000003,A,w,O,w,457,1,466.1000000014901,323341.6000000015,7221,WL,C,7.0
2,24.64300012588501,learn,35356.99987411499,Wed Sep 03 2025 14:01:16 GMT-0500 (Central Daylight Time),324091.0,A,wj,O,j,279,1,749.3999999985099,323341.6000000015,7221,WL,C,7.0
2,24.943000078201294,learn,35056.999921798706,Wed Sep 03 2025 14:01:16 GMT-0500 (Central Daylight Time),324390.8999999985,A,wja,O,a,291,1,1049.2999999970198,323341.6000000015,7221,WL,C,7.0
2,25.64300012588501,learn,34356.99987411499,Wed Sep 03 2025 14:01:16 GMT-0500 (Central Daylight Time),325091.1000000015,A,wj,O,backspace,687,1,1749.5,323341.6000000015,7221,WL,C,7.0
2,26.174999952316284,learn,33825.000047683716,Wed Sep 03 2025 14:01:16 GMT-0500 (Central Daylight Time),325623.700000003,A,w,O,backspace,523,1,2282.10000000149,323341.6000000015,7221,WL,C,7.0
2,27.191999912261963,learn,32808.00008773804,Wed Sep 03 2025 14:01:16 GMT-0500 (Central Daylight Time),326640.200000003,A,wh,O,h,998,1,3298.60000000149,323341.6000000015,7221,WL,C,7.0
2,27.39199995994568,learn,32608.00004005432,Wed Sep 03 2025 14:01:16 GMT-0500 (Central Daylight Time),326840.200000003,A,whe,O,e,190,1,3498.60000000149,323341.6000000015,7221,WL,C,7.0
2,27.64199995994568,learn,32358.00004005432,Wed Sep 03 2025 14:01:16 GMT-0500 (Central Daylight Time),327090.3999999985,A,whea,O,a,229,1,3748.7999999970198,323341.6000000015,7221,WL,C,7.0
2,27.85800004005432,learn,32141.99995994568,Wed Sep 03 2025 14:01:16 GMT-0500 (Central Daylight Time),327306.5,A,wheat,O,t,204,1,3964.89999999851,323341.6000000015,7221,WL,C,7.0
2,29.29200005531311,learn,30707.99994468689,Wed Sep 03 2025 14:01:16 GMT-0500 (Central Daylight Time),328740.299999997,A,wheatenter,O,enter,1428,1,5398.69999999553,323341.6000000015,7221,WL,C,7.0
2,29.674000024795532,learn,30325.999975204468,Wed Sep 03 2025 14:01:16 GMT-0500 (Central Daylight Time),329122.700000003,A,s,O,s,377,1,382.1000000014901,328740.6000000015,7221,WL,C,8.0
2,29.907999992370605,learn,30092.000007629395,Wed Sep 03 2025 14:01:16 GMT-0500 (Central Daylight Time),329356.1000000015,A,su,O,u,219,1,615.5,328740.6000000015,7221,WL,C,8.0
2,30.240999937057495,learn,29759.000062942505,Wed Sep 03 2025 14:01:16 GMT-0500 (Central Daylight Time),329689.200000003,A,sug,O,g,322,1,948.6000000014901,328740.6000000015,7221,WL,C,8.0
2,30.824000120162964,learn,29175.999879837036,Wed Sep 03 2025 14:01:16 GMT-0500 (Central Daylight Time),330272.3999999985,A,suga,O,a,573,1,1531.7999999970198,328740.6000000015,7221,WL,C,8.0
2,31.207000017166138,learn,28792.999982833862,Wed Sep 03 2025 14:01:16 GMT-0500 (Central Daylight Time),330655.3999999985,A,sugar,O,r,365,1,1914.7999999970198,328740.6000000015,7221,WL,C,8.0
2,32.19000005722046,learn,27809.99994277954,Wed Sep 03 2025 14:01:16 GMT-0500 (Central Daylight Time),331638.5,A,sugarenter,O,enter,974,1,2897.89999999851,328740.6000000015,7221,WL,C,8.0
2,34.12299990653992,learn,25877.000093460083,Wed Sep 03 2025 14:01:16 GMT-0500 (Central Daylight Time),333571.1000000015,A,b,O,b,1927,1,1932.2000000029802,331638.8999999985,7221,WL,C,9.0
2,34.42300009727478,learn,25576.99990272522,Wed Sep 03 2025 14:01:16 GMT-0500 (Central Daylight Time),333870.8999999985,A,bo,O,o,290,1,2232.0,331638.8999999985,7221,WL,C,9.0
2,34.77300000190735,learn,25226.99999809265,Wed Sep 03 2025 14:01:16 GMT-0500 (Central Daylight Time),334221.200000003,A,boy,O,y,335,1,2582.3000000044703,331638.8999999985,7221,WL,C,9.0
2,35.35599994659424,learn,24644.00005340576,Wed Sep 03 2025 14:01:16 GMT-0500 (Central Daylight Time),334804.299999997,A,boyenter,O,enter,577,1,3165.39999999851,331638.8999999985,7221,WL,C,9.0
2,35.805999994277954,learn,24194.000005722046,Wed Sep 03 2025 14:01:16 GMT-0500 (Central Daylight Time),335254.1000000015,A,d,O,d,434,1,449.3999999985099,334804.700000003,7221,WL,C,10.0
2,36.31599998474121,learn,23684.00001525879,Wed Sep 03 2025 14:01:16 GMT-0500 (Central Daylight Time),335764.6000000015,A,do,O,o,505,1,959.8999999985099,334804.700000003,7221,WL,C,10.0
2,36.605000019073486,learn,23394.999980926514,Wed Sep 03 2025 14:01:16 GMT-0500 (Central Daylight Time),336053.700000003,A,doc,O,c,273,1,1249.0,334804.700000003,7221,WL,C,10.0
2,36.92199993133545,learn,23078.00006866455,Wed Sep 03 2025 14:01:16 GMT-0500 (Central Daylight Time),336370.6000000015,A,doct,O,t,312,1,1565.8999999985099,334804.700000003,7221,WL,C,10.0
2,37.23900008201599,learn,22760.99991798401,Wed Sep 03 2025 14:01:16 GMT-0500 (Central Daylight Time),336687.0,A,docto,O,o,308,1,1882.2999999970198,334804.700000003,7221,WL,C,10.0
2,37.57200002670288,learn,22427.99997329712,Wed Sep 03 2025 14:01:16 GMT-0500 (Central Daylight Time),337019.8999999985,A,doctor,O,r,319,1,2215.1999999955297,334804.700000003,7221,WL,C,10.0
2,38.33800005912781,learn,21661.999940872192,Wed Sep 03 2025 14:01:16 GMT-0500 (Central Daylight Time),337786.5,A,doctorenter,O,enter,747,1,2981.7999999970198,334804.700000003,7221,WL,C,10.0
2,39.37100005149841,learn,20628.999948501587,Wed Sep 03 2025 14:01:16 GMT-0500 (Central Daylight Time),338819.799999997,A,l,O,l,1019,1,1032.8999999985099,337786.8999999985,7221,WL,C,11.0
2,39.5550000667572,learn,20444.999933242798,Wed Sep 03 2025 14:01:16 GMT-0500 (Central Daylight Time),339002.8999999985,A,le,O,e,178,1,1216.0,337786.8999999985,7221,WL,C,11.0
2,39.83800005912781,learn,20161.999940872192,Wed Sep 03 2025 14:01:16 GMT-0500 (Central Daylight Time),339286.5,A,let,O,t,276,1,1499.6000000014901,337786.8999999985,7221,WL,C,11.0
2,40.020999908447266,learn,19979.000091552734,Wed Sep 03 2025 14:01:16 GMT-0500 (Central Daylight Time),339469.5,A,lett,O,t,176,1,1682.6000000014901,337786.8999999985,7221,WL,C,11.0
2,40.3050000667572,learn,19694.999933242798,Wed Sep 03 2025 14:01:16 GMT-0500 (Central Daylight Time),339752.8999999985,A,lette,O,e,264,1,1966.0,337786.8999999985,7221,WL,C,11.0
2,40.4539999961853,learn,19546.000003814697,Wed Sep 03 2025 14:01:16 GMT-0500 (Central Daylight Time),339902.6000000015,A,letter,O,r,141,1,2115.7000000029802,337786.8999999985,7221,WL,C,11.0
2,41.354000091552734,learn,18645.999908447266,Wed Sep 03 2025 14:01:16 GMT-0500 (Central Daylight Time),340802.200000003,A,letterenter,O,enter,887,1,3015.3000000044703,337786.8999999985,7221,WL,C,11.0
2,46.319000005722046,learn,13680.999994277954,Wed Sep 03 2025 14:01:16 GMT-0500 (Central Daylight Time),345767.3999999985,A,s,O,s,4947,1,4964.89999999851,340802.5,7221,WL,C,12.0
2,46.46900010108948,learn,13530.999898910522,Wed Sep 03 2025 14:01:16 GMT-0500 (Central Daylight Time),345917.5,A,sh,O,h,135,1,5115.0,340802.5,7221,WL,C,12.0
2,46.68600010871887,learn,13313.999891281128,Wed Sep 03 2025 14:01:16 GMT-0500 (Central Daylight Time),346133.8999999985,A,sho,O,o,201,1,5331.39999999851,340802.5,7221,WL,C,12.0
2,46.819000005722046,learn,13180.999994277954,Wed Sep 03 2025 14:01:16 GMT-0500 (Central Daylight Time),346267.299999997,A,shor,O,r,121,1,5464.79999999702,340802.5,7221,WL,C,12.0
2,46.96900010108948,learn,13030.999898910522,Wed Sep 03 2025 14:01:16 GMT-0500 (Central Daylight Time),346417.5,A,shore,O,e,139,1,5615.0,340802.5,7221,WL,C,12.0
2,47.75200009346008,learn,12247.999906539917,Wed Sep 03 2025 14:01:16 GMT-0500 (Central Daylight Time),347200.200000003,A,shoreenter,O,enter,764,1,6397.70000000298,340802.5,7221,WL,C,12.0
2,52.33400011062622,learn,7665.999889373779,Wed Sep 03 2025 14:01:16 GMT-0500 (Central Daylight Time),351782.299999997,A,n,O,n,4574,1,4581.79999999702,347200.5,7221,WL,C,13.0
2,52.6010000705719,learn,7398.999929428101,Wed Sep 03 2025 14:01:16 GMT-0500 (Central Daylight Time),352048.8999999985,A,na,O,a,247,1,4848.39999999851,347200.5,7221,WL,C,13.0
2,52.75,learn,7250.0,Wed Sep 03 2025 14:01:16 GMT-0500 (Central Daylight Time),352198.700000003,A,nai,O,i,133,1,4998.20000000298,347200.5,7221,WL,C,13.0
2,53.00099992752075,learn,6999.000072479248,Wed Sep 03 2025 14:01:16 GMT-0500 (Central Daylight Time),352448.8999999985,A,nail,O,l,231,1,5248.39999999851,347200.5,7221,WL,C,13.0
2,53.66700005531311,learn,6332.99994468689,Wed Sep 03 2025 14:01:16 GMT-0500 (Central Daylight Time),353115.299999997,A,nailenter,O,enter,653,1,5914.79999999702,347200.5,7221,WL,C,13.0
2,58.51600003242493,learn,1483.9999675750732,Wed Sep 03 2025 14:01:16 GMT-0500 (Central Daylight Time),357964.6000000015,A,b,O,b,4843,1,4848.89999999851,353115.700000003,7221,WL,C,14.0
2,58.66499996185303,learn,1335.0000381469727,Wed Sep 03 2025 14:01:16 GMT-0500 (Central Daylight Time),358113.6000000015,A,bo,O,o,129,1,4997.89999999851,353115.700000003,7221,WL,C,14.0
2,58.848000049591064,learn,1151.9999504089355,Wed Sep 03 2025 14:01:16 GMT-0500 (Central Daylight Time),358296.8999999985,A,bod,O,d,165,1,5181.19999999553,353115.700000003,7221,WL,C,14.0
2,58.99799990653992,learn,1002.000093460083,Wed Sep 03 2025 14:01:16 GMT-0500 (Central Daylight Time),358446.799999997,A,body,O,y,133,1,5331.0999999940395,353115.700000003,7221,WL,C,14.0
2,60.013999938964844,learn,-13.99993896484375,Wed Sep 03 2025 14:01:16 GMT-0500 (Central Daylight Time),359463.200000003,A,bodyNone,O,None,1012,1,6347.5,353115.700000003,7221,WL,C,14.0
3,3.999000072479248,learn,56000.99992752075,Wed Sep 03 2025 14:01:16 GMT-0500 (Central Daylight Time),444053.5,A,t,O,t,3991,1,3998.7000000029802,440054.799999997,7221,WL,C,1.0
3,4.266000032424927,learn,55733.99996757507,Wed Sep 03 2025 14:01:16 GMT-0500 (Central Daylight Time),444320.299999997,A,to,O,o,248,1,4265.5,440054.799999997,7221,WL,C,1.0
3,4.515000104904175,learn,55484.999895095825,Wed Sep 03 2025 14:01:16 GMT-0500 (Central Daylight Time),444570.0,A,tow,O,w,229,1,4515.20000000298,440054.799999997,7221,WL,C,1.0
3,4.699000120162964,learn,55300.999879837036,Wed Sep 03 2025 14:01:16 GMT-0500 (Central Daylight Time),444753.1000000015,A,towe,O,e,163,1,4698.30000000447,440054.799999997,7221,WL,C,1.0
3,4.832000017166138,learn,55167.99998283386,Wed Sep 03 2025 14:01:16 GMT-0500 (Central Daylight Time),444886.5,A,tower,O,r,125,1,4831.70000000298,440054.799999997,7221,WL,C,1.0
3,6.565000057220459,learn,53434.99994277954,Wed Sep 03 2025 14:01:16 GMT-0500 (Central Daylight Time),446619.1000000015,A,towerenter,O,enter,1720,1,6564.30000000447,440054.799999997,7221,WL,C,1.0
3,8.164000034332275,learn,51835.999965667725,Wed Sep 03 2025 14:01:16 GMT-0500 (Central Daylight Time),448218.6000000015,A,w,O,w,1580,1,1599.3000000044703,446619.299999997,7221,WL,C,2.0
3,8.29699993133545,learn,51703.00006866455,Wed Sep 03 2025 14:01:16 GMT-0500 (Central Daylight Time),448352.0,A,wh,O,h,116,1,1732.7000000029802,446619.299999997,7221,WL,C,2.0
3,8.664000034332275,learn,51335.999965667725,Wed Sep 03 2025 14:01:16 GMT-0500 (Central Daylight Time),448718.6000000015,A,whe,O,e,351,1,2099.3000000044703,446619.299999997,7221,WL,C,2.0
3,8.88100004196167,learn,51118.99995803833,Wed Sep 03 2025 14:01:16 GMT-0500 (Central Daylight Time),448935.0,A,whea,O,a,208,1,2315.7000000029802,446619.299999997,7221,WL,C,2.0
3,9.164000034332275,learn,50835.999965667725,Wed Sep 03 2025 14:01:16 GMT-0500 (Central Daylight Time),449218.3999999985,A,wheat,O,t,262,1,2599.10000000149,446619.299999997,7221,WL,C,2.0
3,9.864000082015991,learn,50135.99991798401,Wed Sep 03 2025 14:01:16 GMT-0500 (Central Daylight Time),449918.200000003,A,wheatenter,O,enter,684,1,3298.9000000059605,446619.299999997,7221,WL,C,2.0
3,10.980000019073486,learn,49019.999980926514,Wed Sep 03 2025 14:01:16 GMT-0500 (Central Daylight Time),451034.5,A,q,O,q,1105,1,1116.0,449918.5,7221,WL,C,3.0
3,11.329999923706055,learn,48670.000076293945,Wed Sep 03 2025 14:01:16 GMT-0500 (Central Daylight Time),451384.299999997,A,qu,O,u,331,1,1465.7999999970198,449918.5,7221,WL,C,3.0
3,11.630000114440918,learn,48369.99988555908,Wed Sep 03 2025 14:01:16 GMT-0500 (Central Daylight Time),451684.1000000015,A,que,O,e,294,1,1765.6000000014901,449918.5,7221,WL,C,3.0
3,11.963000059127808,learn,48036.99994087219,Wed Sep 03 2025 14:01:16 GMT-0500 (Central Daylight Time),452017.700000003,A,quee,O,e,323,1,2099.2000000029802,449918.5,7221,WL,C,3.0
3,12.246000051498413,learn,47753.99994850159,Wed Sep 03 2025 14:01:16 GMT-0500 (Central Daylight Time),452300.700000003,A,queen,O,n,277,1,2382.2000000029802,449918.5,7221,WL,C,3.0
3,12.980000019073486,learn,47019.999980926514,Wed Sep 03 2025 14:01:16 GMT-0500 (Central Daylight Time),453035.0,A,queenenter,O,enter,713,1,3116.5,449918.5,7221,WL,C,3.0
3,14.678999900817871,learn,45321.00009918213,Wed Sep 03 2025 14:01:16 GMT-0500 (Central Daylight Time),454733.200000003,A,h,O,h,1683,1,1697.9000000059605,453035.299999997,7221,WL,C,4.0
3,14.928999900817871,learn,45071.00009918213,Wed Sep 03 2025 14:01:16 GMT-0500 (Central Daylight Time),454983.3999999985,A,ho,O,o,232,1,1948.1000000014901,453035.299999997,7221,WL,C,4.0
3,15.244999885559082,learn,44755.00011444092,Wed Sep 03 2025 14:01:16 GMT-0500 (Central Daylight Time),455299.8999999985,A,hom,O,m,303,1,2264.60000000149,453035.299999997,7221,WL,C,4.0
3,15.611999988555908,learn,44388.00001144409,Wed Sep 03 2025 14:01:16 GMT-0500 (Central Daylight Time),455666.5,A,home,O,e,345,1,2631.2000000029802,453035.299999997,7221,WL,C,4.0
3,16.312000036239624,learn,43687.999963760376,Wed Sep 03 2025 14:01:16 GMT-0500 (Central Daylight Time),456366.1000000015,A,homeenter,O,enter,684,1,3330.8000000044703,453035.299999997,7221,WL,C,4.0
3,18.210999965667725,learn,41789.000034332275,Wed Sep 03 2025 14:01:16 GMT-0500 (Central Daylight Time),458265.299999997,A,b,O,b,1887,1,1898.8999999985099,456366.3999999985,7221,WL,C,5.0
3,18.47699999809265,learn,41523.00000190735,Wed Sep 03 2025 14:01:16 GMT-0500 (Central Daylight Time),458531.8999999985,A,bo,O,o,261,1,2165.5,456366.3999999985,7221,WL,C,5.0
3,18.861000061035156,learn,41138.999938964844,Wed Sep 03 2025 14:01:16 GMT-0500 (Central Daylight Time),458915.1000000015,A,boy,O,y,370,1,2548.7000000029802,456366.3999999985,7221,WL,C,5.0
3,19.526999950408936,learn,40473.000049591064,Wed Sep 03 2025 14:01:16 GMT-0500 (Central Daylight Time),459581.799999997,A,boyenter,O,enter,659,1,3215.39999999851,456366.3999999985,7221,WL,C,5.0
3,20.094000101089478,learn,39905.99989891052,Wed Sep 03 2025 14:01:16 GMT-0500 (Central Daylight Time),460148.3999999985,A,d,O,d,560,1,566.1999999955297,459582.200000003,7221,WL,C,6.0
3,20.344000101089478,learn,39655.99989891052,Wed Sep 03 2025 14:01:16 GMT-0500 (Central Daylight Time),460398.1000000015,A,do,O,o,242,1,815.8999999985099,459582.200000003,7221,WL,C,6.0
3,20.627000093460083,learn,39372.99990653992,Wed Sep 03 2025 14:01:16 GMT-0500 (Central Daylight Time),460681.3999999985,A,doc,O,c,264,1,1099.1999999955297,459582.200000003,7221,WL,C,6.0
3,20.943000078201294,learn,39056.999921798706,Wed Sep 03 2025 14:01:16 GMT-0500 (Central Daylight Time),460998.0,A,doct,O,t,309,1,1415.7999999970198,459582.200000003,7221,WL,C,6.0
3,21.259999990463257,learn,38740.00000953674,Wed Sep 03 2025 14:01:16 GMT-0500 (Central Daylight Time),461314.799999997,A,docto,O,o,304,1,1732.5999999940395,459582.200000003,7221,WL,C,6.0
3,21.526999950408936,learn,38473.000049591064,Wed Sep 03 2025 14:01:16 GMT-0500 (Central Daylight Time),461581.200000003,A,doctor,O,r,260,1,1999.0,459582.200000003,7221,WL,C,6.0
3,22.460000038146973,learn,37539.99996185303,Wed Sep 03 2025 14:01:16 GMT-0500 (Central Daylight Time),462514.200000003,A,doctorenter,O,enter,912,1,2932.0,459582.200000003,7221,WL,C,6.0
3,23.526000022888184,learn,36473.99997711182,Wed Sep 03 2025 14:01:16 GMT-0500 (Central Daylight Time),463580.5,A,l,O,l,1051,1,1066.0,462514.5,7221,WL,C,7.0
3,23.742000102996826,learn,36257.999897003174,Wed Sep 03 2025 14:01:16 GMT-0500 (Central Daylight Time),463796.8999999985,A,le,O,e,210,1,1282.3999999985099,462514.5,7221,WL,C,7.0
3,24.026000022888184,learn,35973.99997711182,Wed Sep 03 2025 14:01:16 GMT-0500 (Central Daylight Time),464080.299999997,A,let,O,t,274,1,1565.7999999970198,462514.5,7221,WL,C,7.0
3,24.176000118255615,learn,35823.999881744385,Wed Sep 03 2025 14:01:16 GMT-0500 (Central Daylight Time),464230.200000003,A,lett,O,t,142,1,1715.7000000029802,462514.5,7221,WL,C,7.0
3,24.4760000705719,learn,35523.9999294281,Wed Sep 03 2025 14:01:16 GMT-0500 (Central Daylight Time),464530.5,A,lette,O,e,288,1,2016.0,462514.5,7221,WL,C,7.0
3,24.742000102996826,learn,35257.999897003174,Wed Sep 03 2025 14:01:16 GMT-0500 (Central Daylight Time),464797.0,A,letter,O,r,252,1,2282.5,462514.5,7221,WL,C,7.0
3,25.27500009536743,learn,34724.99990463257,Wed Sep 03 2025 14:01:16 GMT-0500 (Central Daylight Time),465329.799999997,A,letterenter,O,enter,520,1,2815.2999999970198,462514.5,7221,WL,C,7.0
3,25.691999912261963,learn,34308.00008773804,Wed Sep 03 2025 14:01:16 GMT-0500 (Central Daylight Time),465746.8999999985,A,c,O,c,396,1,416.79999999701977,465330.1000000015,7221,WL,C,8.0
3,25.97499990463257,learn,34025.00009536743,Wed Sep 03 2025 14:01:16 GMT-0500 (Central Daylight Time),466030.0,A,ca,O,a,276,1,699.8999999985099,465330.1000000015,7221,WL,C,8.0
3,26.158999919891357,learn,33841.00008010864,Wed Sep 03 2025 14:01:16 GMT-0500 (Central Daylight Time),466213.299999997,A,cam,O,m,176,1,883.1999999955297,465330.1000000015,7221,WL,C,8.0
3,26.509000062942505,learn,33490.999937057495,Wed Sep 03 2025 14:01:16 GMT-0500 (Central Daylight Time),466563.1000000015,A,camp,O,p,329,1,1233.0,465330.1000000015,7221,WL,C,8.0
3,26.907999992370605,learn,33092.000007629395,Wed Sep 03 2025 14:01:16 GMT-0500 (Central Daylight Time),466962.799999997,A,campenter,O,enter,387,1,1632.6999999955297,465330.1000000015,7221,WL,C,8.0
3,27.20799994468689,learn,32792.00005531311,Wed Sep 03 2025 14:01:16 GMT-0500 (Central Daylight Time),467262.5,A,c,O,c,291,1,299.3999999985099,466963.1000000015,7221,WL,C,9.0
3,27.507999897003174,learn,32492.000102996826,Wed Sep 03 2025 14:01:16 GMT-0500 (Central Daylight Time),467562.3999999985,A,ca,O,a,278,1,599.2999999970198,466963.1000000015,7221,WL,C,9.0
3,27.808000087738037,learn,32191.999912261963,Wed Sep 03 2025 14:01:16 GMT-0500 (Central Daylight Time),467862.299999997,A,cat,O,t,291,1,899.1999999955297,466963.1000000015,7221,WL,C,9.0
3,28.0239999294281,learn,31976.0000705719,Wed Sep 03 2025 14:01:16 GMT-0500 (Central Daylight Time),468079.0,A,catt,O,t,199,1,1115.8999999985099,466963.1000000015,7221,WL,C,9.0
3,28.2739999294281,learn,31726.0000705719,Wed Sep 03 2025 14:01:16 GMT-0500 (Central Daylight Time),468328.799999997,A,cattl,O,l,238,1,1365.6999999955297,466963.1000000015,7221,WL,C,9.0
3,28.507999897003174,learn,31492.000102996826,Wed Sep 03 2025 14:01:16 GMT-0500 (Central Daylight Time),468562.1000000015,A,cattle,O,e,221,1,1599.0,466963.1000000015,7221,WL,C,9.0
3,28.973999977111816,learn,31026.000022888184,Wed Sep 03 2025 14:01:16 GMT-0500 (Central Daylight Time),469028.799999997,A,cattleenter,O,enter,459,1,2065.6999999955297,466963.1000000015,7221,WL,C,9.0
3,29.35700011253357,learn,30642.99988746643,Wed Sep 03 2025 14:01:16 GMT-0500 (Central Daylight Time),469412.0,A,s,O,s,370,1,383.0,469029.0,7221,WL,C,10.0
3,29.558000087738037,learn,30441.999912261963,Wed Sep 03 2025 14:01:16 GMT-0500 (Central Daylight Time),469612.1000000015,A,sh,O,h,187,1,583.1000000014901,469029.0,7221,WL,C,10.0
3,29.7739999294281,learn,30226.0000705719,Wed Sep 03 2025 14:01:16 GMT-0500 (Central Daylight Time),469828.6000000015,A,sho,O,o,210,1,799.6000000014901,469029.0,7221,WL,C,10.0
3,29.957000017166138,learn,30042.999982833862,Wed Sep 03 2025 14:01:16 GMT-0500 (Central Daylight Time),470012.0,A,shor,O,r,170,1,983.0,469029.0,7221,WL,C,10.0
3,30.056999921798706,learn,29943.000078201294,Wed Sep 03 2025 14:01:16 GMT-0500 (Central Daylight Time),470111.799999997,A,shore,O,e,82,1,1082.7999999970198,469029.0,7221,WL,C,10.0
3,30.490000009536743,learn,29509.999990463257,Wed Sep 03 2025 14:01:16 GMT-0500 (Central Daylight Time),470545.0,A,shoreenter,O,enter,414,1,1516.0,469029.0,7221,WL,C,10.0
3,30.806999921798706,learn,29193.000078201294,Wed Sep 03 2025 14:01:16 GMT-0500 (Central Daylight Time),470861.700000003,A,b,O,b,309,1,316.40000000596046,470545.299999997,7221,WL,C,11.0
3,31.58999991416931,learn,28410.00008583069,Wed Sep 03 2025 14:01:16 GMT-0500 (Central Daylight Time),471644.6000000015,A,bo,O,o,769,1,1099.3000000044703,470545.299999997,7221,WL,C,11.0
3,31.83999991416931,learn,28160.00008583069,Wed Sep 03 2025 14:01:16 GMT-0500 (Central Daylight Time),471894.6000000015,A,bod,O,d,241,1,1349.3000000044703,470545.299999997,7221,WL,C,11.0
3,32.17300009727478,learn,27826.99990272522,Wed Sep 03 2025 14:01:16 GMT-0500 (Central Daylight Time),472227.6000000015,A,body,O,y,328,1,1682.3000000044703,470545.299999997,7221,WL,C,11.0
3,32.723000049591064,learn,27276.999950408936,Wed Sep 03 2025 14:01:16 GMT-0500 (Central Daylight Time),472777.799999997,A,bodyenter,O,enter,539,1,2232.5,470545.299999997,7221,WL,C,11.0
3,33.07299995422363,learn,26927.000045776367,Wed Sep 03 2025 14:01:16 GMT-0500 (Central Daylight Time),473127.5,A,s,O,s,332,1,349.29999999701977,472778.200000003,7221,WL,C,12.0
3,33.32299995422363,learn,26677.000045776367,Wed Sep 03 2025 14:01:16 GMT-0500 (Central Daylight Time),473377.200000003,A,su,O,u,230,1,599.0,472778.200000003,7221,WL,C,12.0
3,33.58999991416931,learn,26410.00008583069,Wed Sep 03 2025 14:01:16 GMT-0500 (Central Daylight Time),473644.1000000015,A,sug,O,g,253,1,865.8999999985099,472778.200000003,7221,WL,C,12.0
3,33.888999938964844,learn,26111.000061035156,Wed Sep 03 2025 14:01:16 GMT-0500 (Central Daylight Time),473943.8999999985,A,suga,O,a,289,1,1165.6999999955297,472778.200000003,7221,WL,C,12.0
3,34.15599989891052,learn,25844.000101089478,Wed Sep 03 2025 14:01:16 GMT-0500 (Central Daylight Time),474210.5,A,sugar,O,r,261,1,1432.2999999970198,472778.200000003,7221,WL,C,12.0
3,34.574000120162964,learn,25425.999879837036,Wed Sep 03 2025 14:01:16 GMT-0500 (Central Daylight Time),474628.200000003,A,sugarenter,O,enter,397,1,1850.0,472778.200000003,7221,WL,C,12.0
3,34.90599989891052,learn,25094.000101089478,Wed Sep 03 2025 14:01:16 GMT-0500 (Central Daylight Time),474960.299999997,A,c,O,c,321,1,331.79999999701977,474628.5,7221,WL,C,13.0
3,35.22200012207031,learn,24777.999877929688,Wed Sep 03 2025 14:01:16 GMT-0500 (Central Daylight Time),475277.0,A,co,O,o,302,1,648.5,474628.5,7221,WL,C,13.0
3,35.5220000743866,learn,24477.999925613403,Wed Sep 03 2025 14:01:16 GMT-0500 (Central Daylight Time),475576.799999997,A,cor,O,r,281,1,948.2999999970198,474628.5,7221,WL,C,13.0
3,35.98900008201599,learn,24010.99991798401,Wed Sep 03 2025 14:01:16 GMT-0500 (Central Daylight Time),476043.3999999985,A,corn,O,n,453,1,1414.8999999985099,474628.5,7221,WL,C,13.0
3,36.72200012207031,learn,23277.999877929688,Wed Sep 03 2025 14:01:16 GMT-0500 (Central Daylight Time),476776.299999997,A,cornenter,O,enter,715,1,2147.7999999970198,474628.5,7221,WL,C,13.0
3,39.53699994087219,learn,20463.000059127808,Wed Sep 03 2025 14:01:16 GMT-0500 (Central Daylight Time),479592.200000003,A,h,O,h,2806,1,2815.60000000149,476776.6000000015,7221,WL,C,14.0
3,39.80399990081787,learn,20196.00009918213,Wed Sep 03 2025 14:01:16 GMT-0500 (Central Daylight Time),479858.700000003,A,ho,O,o,245,1,3082.10000000149,476776.6000000015,7221,WL,C,14.0
3,40.05299997329712,learn,19947.00002670288,Wed Sep 03 2025 14:01:16 GMT-0500 (Central Daylight Time),480108.6000000015,A,hom,O,m,243,1,3332.0,476776.6000000015,7221,WL,C,14.0
3,40.28699994087219,learn,19713.000059127808,Wed Sep 03 2025 14:01:16 GMT-0500 (Central Daylight Time),480342.0,A,home,O,e,218,1,3565.39999999851,476776.6000000015,7221,WL,C,14.0
3,40.5699999332428,learn,19430.000066757202,Wed Sep 03 2025 14:01:16 GMT-0500 (Central Daylight Time),480625.3999999985,A,homeenter,O,enter,272,1,3848.7999999970198,476776.6000000015,7221,WL,C,14.0
3,56.74799990653992,learn,3252.000093460083,Wed Sep 03 2025 14:01:16 GMT-0500 (Central Daylight Time),496803.200000003,A,f,O,f,16172,1,16177.5,480625.700000003,7221,WL,C,15.0
3,57.03200006484985,learn,2967.9999351501465,Wed Sep 03 2025 14:01:16 GMT-0500 (Central Daylight Time),497086.700000003,A,fl,O,l,275,1,16461.0,480625.700000003,7221,WL,C,15.0
3,57.23200011253357,learn,2767.9998874664307,Wed Sep 03 2025 14:01:16 GMT-0500 (Central Daylight Time),497286.799999997,A,fla,O,a,192,1,16661.09999999404,480625.700000003,7221,WL,C,15.0
3,57.51600003242493,learn,2483.9999675750732,Wed Sep 03 2025 14:01:16 GMT-0500 (Central Daylight Time),497570.700000003,A,flag,O,g,272,1,16945.0,480625.700000003,7221,WL,C,15.0
3,58.013999938964844,learn,1986.0000610351562,Wed Sep 03 2025 14:01:16 GMT-0500 (Central Daylight Time),498069.6000000015,A,flagenter,O,enter,483,1,17443.89999999851,480625.700000003,7221,WL,C,15.0
4,1.3840000629425049,learn,58615.999937057495,Wed Sep 03 2025 14:01:16 GMT-0500 (Central Daylight Time),573746.3999999985,A,t,O,t,1371,1,1382.7999999970198,572363.6000000015,7221,WL,C,1.0
4,1.683000087738037,learn,58316.99991226196,Wed Sep 03 2025 14:01:16 GMT-0500 (Central Daylight Time),574046.0,A,to,O,o,291,1,1682.3999999985099,572363.6000000015,7221,WL,C,1.0
4,2.0500001907348633,learn,57949.99980926514,Wed Sep 03 2025 14:01:16 GMT-0500 (Central Daylight Time),574412.700000003,A,tow,O,w,361,1,2049.10000000149,572363.6000000015,7221,WL,C,1.0
4,2.183000087738037,learn,57816.99991226196,Wed Sep 03 2025 14:01:16 GMT-0500 (Central Daylight Time),574545.799999997,A,towe,O,e,113,1,2182.1999999955297,572363.6000000015,7221,WL,C,1.0
4,2.3500001430511475,learn,57649.99985694885,Wed Sep 03 2025 14:01:16 GMT-0500 (Central Daylight Time),574712.3999999985,A,tower,O,r,149,1,2348.7999999970198,572363.6000000015,7221,WL,C,1.0
4,3.2160000801086426,learn,56783.99991989136,Wed Sep 03 2025 14:01:16 GMT-0500 (Central Daylight Time),575578.6000000015,A,towerenter,O,enter,854,1,3215.0,572363.6000000015,7221,WL,C,1.0
4,3.866000175476074,learn,56133.999824523926,Wed Sep 03 2025 14:01:16 GMT-0500 (Central Daylight Time),576228.8999999985,A,q,O,q,636,1,649.8999999985099,575579.0,7221,WL,C,2.0
4,4.166000127792358,learn,55833.99987220764,Wed Sep 03 2025 14:01:16 GMT-0500 (Central Daylight Time),576528.700000003,A,qu,O,u,290,1,949.7000000029802,575579.0,7221,WL,C,2.0
4,4.450000047683716,learn,55549.999952316284,Wed Sep 03 2025 14:01:16 GMT-0500 (Central Daylight Time),576812.799999997,A,que,O,e,278,1,1233.7999999970198,575579.0,7221,WL,C,2.0
4,4.7820000648498535,learn,55217.99993515015,Wed Sep 03 2025 14:01:16 GMT-0500 (Central Daylight Time),577145.0,A,quee,O,e,321,1,1566.0,575579.0,7221,WL,C,2.0
4,5.848999977111816,learn,54151.00002288818,Wed Sep 03 2025 14:01:16 GMT-0500 (Central Daylight Time),578211.299999997,A,queen,O,n,1062,1,2632.2999999970198,575579.0,7221,WL,C,2.0
4,6.748000144958496,learn,53251.999855041504,Wed Sep 03 2025 14:01:16 GMT-0500 (Central Daylight Time),579111.0,A,queenenter,O,enter,890,1,3532.0,575579.0,7221,WL,C,2.0
4,7.114000082015991,learn,52885.99991798401,Wed Sep 03 2025 14:01:16 GMT-0500 (Central Daylight Time),579477.200000003,A,w,O,w,358,1,365.80000000447035,579111.3999999985,7221,WL,C,3.0
4,7.38100004196167,learn,52618.99995803833,Wed Sep 03 2025 14:01:16 GMT-0500 (Central Daylight Time),579744.1000000015,A,wh,O,h,257,1,632.7000000029802,579111.3999999985,7221,WL,C,3.0
4,7.698000192642212,learn,52301.99980735779,Wed Sep 03 2025 14:01:16 GMT-0500 (Central Daylight Time),580060.700000003,A,whe,O,e,303,1,949.3000000044703,579111.3999999985,7221,WL,C,3.0
4,7.981000185012817,learn,52018.99981498718,Wed Sep 03 2025 14:01:16 GMT-0500 (Central Daylight Time),580343.8999999985,A,whea,O,a,266,1,1232.5,579111.3999999985,7221,WL,C,3.0
4,8.314000129699707,learn,51685.99987030029,Wed Sep 03 2025 14:01:16 GMT-0500 (Central Daylight Time),580677.200000003,A,wheat,O,t,325,1,1565.8000000044703,579111.3999999985,7221,WL,C,3.0
4,8.731000185012817,learn,51268.99981498718,Wed Sep 03 2025 14:01:16 GMT-0500 (Central Daylight Time),581093.700000003,A,wheatenter,O,enter,400,1,1982.3000000044703,579111.3999999985,7221,WL,C,3.0
4,9.014000177383423,learn,50985.99982261658,Wed Sep 03 2025 14:01:16 GMT-0500 (Central Daylight Time),581377.1000000015,A,s,O,s,264,1,283.1000000014901,581094.0,7221,WL,C,4.0
4,9.297000169754028,learn,50702.99983024597,Wed Sep 03 2025 14:01:16 GMT-0500 (Central Daylight Time),581660.1000000015,A,su,O,u,270,1,566.1000000014901,581094.0,7221,WL,C,4.0
4,9.597000122070312,learn,50402.99987792969,Wed Sep 03 2025 14:01:16 GMT-0500 (Central Daylight Time),581960.0,A,sug,O,g,282,1,866.0,581094.0,7221,WL,C,4.0
4,9.914000034332275,learn,50085.999965667725,Wed Sep 03 2025 14:01:16 GMT-0500 (Central Daylight Time),582276.6000000015,A,suga,O,a,310,1,1182.6000000014901,581094.0,7221,WL,C,4.0
4,10.29800009727478,learn,49701.99990272522,Wed Sep 03 2025 14:01:16 GMT-0500 (Central Daylight Time),582660.8999999985,A,sugar,O,r,378,1,1566.8999999985099,581094.0,7221,WL,C,4.0
4,11.19700002670288,learn,48802.99997329712,Wed Sep 03 2025 14:01:16 GMT-0500 (Central Daylight Time),583559.3999999985,A,sugarenter,O,enter,889,1,2465.39999999851,581094.0,7221,WL,C,4.0
4,11.480000019073486,learn,48519.999980926514,Wed Sep 03 2025 14:01:16 GMT-0500 (Central Daylight Time),583843.0,A,c,O,c,271,1,283.29999999701977,583559.700000003,7221,WL,C,5.0
4,11.812999963760376,learn,48187.000036239624,Wed Sep 03 2025 14:01:16 GMT-0500 (Central Daylight Time),584176.1000000015,A,co,O,o,315,1,616.3999999985099,583559.700000003,7221,WL,C,5.0
4,12.09600019454956,learn,47903.99980545044,Wed Sep 03 2025 14:01:16 GMT-0500 (Central Daylight Time),584459.200000003,A,cor,O,r,269,1,899.5,583559.700000003,7221,WL,C,5.0
4,12.380000114440918,learn,47619.99988555908,Wed Sep 03 2025 14:01:16 GMT-0500 (Central Daylight Time),584742.3999999985,A,corn,O,n,274,1,1182.6999999955297,583559.700000003,7221,WL,C,5.0
4,13.17900013923645,learn,46820.99986076355,Wed Sep 03 2025 14:01:16 GMT-0500 (Central Daylight Time),585542.0,A,cornenter,O,enter,791,1,1982.2999999970198,583559.700000003,7221,WL,C,5.0
4,13.812999963760376,learn,46187.000036239624,Wed Sep 03 2025 14:01:16 GMT-0500 (Central Daylight Time),586175.5,A,h,O,h,616,1,633.2000000029802,585542.299999997,7221,WL,C,6.0
4,14.062999963760376,learn,45937.000036239624,Wed Sep 03 2025 14:01:16 GMT-0500 (Central Daylight Time),586425.3999999985,A,ho,O,o,230,1,883.1000000014901,585542.299999997,7221,WL,C,6.0
4,14.796000003814697,learn,45203.9999961853,Wed Sep 03 2025 14:01:16 GMT-0500 (Central Daylight Time),587158.3999999985,A,hom,O,m,724,1,1616.1000000014901,585542.299999997,7221,WL,C,6.0
4,15.09600019454956,learn,44903.99980545044,Wed Sep 03 2025 14:01:16 GMT-0500 (Central Daylight Time),587458.299999997,A,home,O,e,288,1,1916.0,585542.299999997,7221,WL,C,6.0
4,15.712000131607056,learn,44287.999868392944,Wed Sep 03 2025 14:01:16 GMT-0500 (Central Daylight Time),588075.1000000015,A,homeenter,O,enter,604,1,2532.8000000044703,585542.299999997,7221,WL,C,6.0
4,16.59500002861023,learn,43404.99997138977,Wed Sep 03 2025 14:01:16 GMT-0500 (Central Daylight Time),588957.8999999985,A,b,O,b,866,1,882.5,588075.3999999985,7221,WL,C,7.0
4,16.978000164031982,learn,43021.99983596802,Wed Sep 03 2025 14:01:16 GMT-0500 (Central Daylight Time),589341.0,A,bo,O,o,376,1,1265.6000000014901,588075.3999999985,7221,WL,C,7.0
4,17.361999988555908,learn,42638.00001144409,Wed Sep 03 2025 14:01:16 GMT-0500 (Central Daylight Time),589724.3999999985,A,boy,O,y,377,1,1649.0,588075.3999999985,7221,WL,C,7.0
4,18.478000164031982,learn,41521.99983596802,Wed Sep 03 2025 14:01:16 GMT-0500 (Central Daylight Time),590840.700000003,A,boyenter,O,enter,1098,1,2765.3000000044703,588075.3999999985,7221,WL,C,7.0
4,18.861000061035156,learn,41138.999938964844,Wed Sep 03 2025 14:01:16 GMT-0500 (Central Daylight Time),591224.0,A,d,O,d,373,1,383.0,590841.0,7221,WL,C,8.0
4,19.17799997329712,learn,40822.00002670288,Wed Sep 03 2025 14:01:16 GMT-0500 (Central Daylight Time),591540.5,A,do,O,o,302,1,699.5,590841.0,7221,WL,C,8.0
4,19.444000005722046,learn,40555.999994277954,Wed Sep 03 2025 14:01:16 GMT-0500 (Central Daylight Time),591807.0,A,doc,O,c,249,1,966.0,590841.0,7221,WL,C,8.0
4,19.77900004386902,learn,40220.99995613098,Wed Sep 03 2025 14:01:16 GMT-0500 (Central Daylight Time),592141.299999997,A,doct,O,t,327,1,1300.2999999970198,590841.0,7221,WL,C,8.0
4,20.011000156402588,learn,39988.99984359741,Wed Sep 03 2025 14:01:16 GMT-0500 (Central Daylight Time),592373.700000003,A,docto,O,o,225,1,1532.7000000029802,590841.0,7221,WL,C,8.0
4,20.311000108718872,learn,39688.99989128113,Wed Sep 03 2025 14:01:16 GMT-0500 (Central Daylight Time),592673.5,A,doctor,O,r,280,1,1832.5,590841.0,7221,WL,C,8.0
4,20.877000093460083,learn,39122.99990653992,Wed Sep 03 2025 14:01:16 GMT-0500 (Central Daylight Time),593240.1000000015,A,doctorenter,O,enter,549,1,2399.10000000149,590841.0,7221,WL,C,8.0
4,21.177000045776367,learn,38822.99995422363,Wed Sep 03 2025 14:01:16 GMT-0500 (Central Daylight Time),593539.799999997,A,c,O,c,293,1,299.29999999701977,593240.5,7221,WL,C,9.0
4,21.444000005722046,learn,38555.999994277954,Wed Sep 03 2025 14:01:16 GMT-0500 (Central Daylight Time),593806.5,A,ca,O,a,259,1,566.0,593240.5,7221,WL,C,9.0
4,21.627000093460083,learn,38372.99990653992,Wed Sep 03 2025 14:01:16 GMT-0500 (Central Daylight Time),593989.799999997,A,cam,O,m,176,1,749.2999999970198,593240.5,7221,WL,C,9.0
4,21.927000045776367,learn,38072.99995422363,Wed Sep 03 2025 14:01:16 GMT-0500 (Central Daylight Time),594289.6000000015,A,camp,O,p,289,1,1049.1000000014901,593240.5,7221,WL,C,9.0
4,22.606000185012817,learn,37393.99981498718,Wed Sep 03 2025 14:01:16 GMT-0500 (Central Daylight Time),594969.0,A,campenter,O,enter,675,1,1728.5,593240.5,7221,WL,C,9.0
4,22.926000118255615,learn,37073.999881744385,Wed Sep 03 2025 14:01:16 GMT-0500 (Central Daylight Time),595289.200000003,A,c,O,c,301,1,319.90000000596046,594969.299999997,7221,WL,C,10.0
4,23.276000022888184,learn,36723.99997711182,Wed Sep 03 2025 14:01:16 GMT-0500 (Central Daylight Time),595639.0,A,ca,O,a,333,1,669.7000000029802,594969.299999997,7221,WL,C,10.0
4,23.56000018119812,learn,36439.99981880188,Wed Sep 03 2025 14:01:16 GMT-0500 (Central Daylight Time),595922.5,A,cat,O,t,262,1,953.2000000029802,594969.299999997,7221,WL,C,10.0
4,23.776000022888184,learn,36223.99997711182,Wed Sep 03 2025 14:01:16 GMT-0500 (Central Daylight Time),596139.0,A,catt,O,t,196,1,1169.7000000029802,594969.299999997,7221,WL,C,10.0
4,24.110000133514404,learn,35889.999866485596,Wed Sep 03 2025 14:01:16 GMT-0500 (Central Daylight Time),596472.3999999985,A,cattl,O,l,315,1,1503.1000000014901,594969.299999997,7221,WL,C,10.0
4,24.37600016593933,learn,35623.99983406067,Wed Sep 03 2025 14:01:16 GMT-0500 (Central Daylight Time),596738.799999997,A,cattle,O,e,261,1,1769.5,594969.299999997,7221,WL,C,10.0
4,25.342000007629395,learn,34657.999992370605,Wed Sep 03 2025 14:01:16 GMT-0500 (Central Daylight Time),597705.200000003,A,cattleenter,O,enter,946,1,2735.9000000059605,594969.299999997,7221,WL,C,10.0
4,27.591000080108643,learn,32408.999919891357,Wed Sep 03 2025 14:01:16 GMT-0500 (Central Daylight Time),599954.5,A,n,O,n,2229,1,2249.0,597705.5,7221,WL,C,11.0
4,27.808000087738037,learn,32191.999912261963,Wed Sep 03 2025 14:01:16 GMT-0500 (Central Daylight Time),600170.8999999985,A,na,O,a,204,1,2465.39999999851,597705.5,7221,WL,C,11.0
4,28.008000135421753,learn,31991.999864578247,Wed Sep 03 2025 14:01:16 GMT-0500 (Central Daylight Time),600371.1000000015,A,nai,O,i,196,1,2665.60000000149,597705.5,7221,WL,C,11.0
4,28.308000087738037,learn,31691.999912261963,Wed Sep 03 2025 14:01:16 GMT-0500 (Central Daylight Time),600671.0,A,nail,O,l,284,1,2965.5,597705.5,7221,WL,C,11.0
4,28.824000120162964,learn,31175.999879837036,Wed Sep 03 2025 14:01:16 GMT-0500 (Central Daylight Time),601187.200000003,A,nailenter,O,enter,512,1,3481.7000000029802,597705.5,7221,WL,C,11.0
4,29.258000135421753,learn,30741.999864578247,Wed Sep 03 2025 14:01:16 GMT-0500 (Central Daylight Time),601620.799999997,A,f,O,f,420,1,433.3999999985099,601187.3999999985,7221,WL,C,12.0
4,29.473999977111816,learn,30526.000022888184,Wed Sep 03 2025 14:01:16 GMT-0500 (Central Daylight Time),601837.299999997,A,fl,O,l,210,1,649.8999999985099,601187.3999999985,7221,WL,C,12.0
4,29.824000120162964,learn,30175.999879837036,Wed Sep 03 2025 14:01:16 GMT-0500 (Central Daylight Time),602187.0,A,fla,O,a,345,1,999.6000000014901,601187.3999999985,7221,WL,C,12.0
4,30.174000024795532,learn,29825.999975204468,Wed Sep 03 2025 14:01:16 GMT-0500 (Central Daylight Time),602536.8999999985,A,flag,O,g,332,1,1349.5,601187.3999999985,7221,WL,C,12.0
4,30.890000104904175,learn,29109.999895095825,Wed Sep 03 2025 14:01:16 GMT-0500 (Central Daylight Time),603253.5,A,flagenter,O,enter,709,1,2066.10000000149,601187.3999999985,7221,WL,C,12.0
4,32.94000005722046,learn,27059.99994277954,Wed Sep 03 2025 14:01:16 GMT-0500 (Central Daylight Time),605303.1000000015,A,b,O,b,2033,1,2049.3000000044703,603253.799999997,7221,WL,C,13.0
4,33.17300009727478,learn,26826.99990272522,Wed Sep 03 2025 14:01:16 GMT-0500 (Central Daylight Time),605536.1000000015,A,bo,O,o,223,1,2282.3000000044703,603253.799999997,7221,WL,C,13.0
4,33.43900012969971,learn,26560.999870300293,Wed Sep 03 2025 14:01:16 GMT-0500 (Central Daylight Time),605802.700000003,A,bod,O,d,247,1,2548.9000000059605,603253.799999997,7221,WL,C,13.0
4,33.68900012969971,learn,26310.999870300293,Wed Sep 03 2025 14:01:16 GMT-0500 (Central Daylight Time),606052.5,A,body,O,y,243,1,2798.7000000029802,603253.799999997,7221,WL,C,13.0
4,34.60600018501282,learn,25393.999814987183,Wed Sep 03 2025 14:01:16 GMT-0500 (Central Daylight Time),606969.1000000015,A,bodyenter,O,enter,905,1,3715.3000000044703,603253.799999997,7221,WL,C,13.0
4,35.456000089645386,learn,24543.999910354614,Wed Sep 03 2025 14:01:16 GMT-0500 (Central Daylight Time),607818.799999997,A,s,O,s,846,1,849.3999999985099,606969.3999999985,7221,WL,C,14.0
4,35.67200016975403,learn,24327.99983024597,Wed Sep 03 2025 14:01:16 GMT-0500 (Central Daylight Time),608035.299999997,A,sh,O,h,203,1,1065.8999999985099,606969.3999999985,7221,WL,C,14.0
4,35.92200016975403,learn,24077.99983024597,Wed Sep 03 2025 14:01:16 GMT-0500 (Central Daylight Time),608285.299999997,A,sho,O,o,234,1,1315.8999999985099,606969.3999999985,7221,WL,C,14.0
4,36.13900017738342,learn,23860.999822616577,Wed Sep 03 2025 14:01:16 GMT-0500 (Central Daylight Time),608501.799999997,A,shor,O,r,201,1,1532.3999999985099,606969.3999999985,7221,WL,C,14.0
4,36.371999979019165,learn,23628.000020980835,Wed Sep 03 2025 14:01:16 GMT-0500 (Central Daylight Time),608735.1000000015,A,shore,O,e,225,1,1765.7000000029802,606969.3999999985,7221,WL,C,14.0
4,37.121999979019165,learn,22878.000020980835,Wed Sep 03 2025 14:01:16 GMT-0500 (Central Daylight Time),609484.799999997,A,shoreenter,O,enter,742,1,2515.39999999851,606969.3999999985,7221,WL,C,14.0
4,50.867000102996826,learn,9132.999897003174,Wed Sep 03 2025 14:01:16 GMT-0500 (Central Daylight Time),623230.6000000015,A,l,O,l,13736,1,13745.5,609485.1000000015,7221,WL,C,15.0
4,51.05000019073486,learn,8949.999809265137,Wed Sep 03 2025 14:01:16 GMT-0500 (Central Daylight Time),623413.700000003,A,le,O,e,176,1,13928.60000000149,609485.1000000015,7221,WL,C,15.0
4,51.33400011062622,learn,8665.99988937378,Wed Sep 03 2025 14:01:16 GMT-0500 (Central Daylight Time),623697.200000003,A,let,O,t,264,1,14212.10000000149,609485.1000000015,7221,WL,C,15.0
4,51.5,learn,8500.0,Wed Sep 03 2025 14:01:16 GMT-0500 (Central Daylight Time),623863.6000000015,A,lett,O,t,149,1,14378.5,609485.1000000015,7221,WL,C,15.0
4,51.73399996757507,learn,8266.000032424927,Wed Sep 03 2025 14:01:16 GMT-0500 (Central Daylight Time),624096.799999997,A,lette,O,e,215,1,14611.69999999553,609485.1000000015,7221,WL,C,15.0
4,51.81700015068054,learn,8182.999849319458,Wed Sep 03 2025 14:01:16 GMT-0500 (Central Daylight Time),624180.299999997,A,letter,O,r,77,1,14695.19999999553,609485.1000000015,7221,WL,C,15.0
4,52.217000007629395,learn,7782.9999923706055,Wed Sep 03 2025 14:01:16 GMT-0500 (Central Daylight Time),624580.0,A,letterenter,O,enter,386,1,15094.89999999851,609485.1000000015,7221,WL,C,15.0
5,1.1500000953674316,learn,60000.0,Wed Sep 03 2025 14:01:16 GMT-0500 (Central Daylight Time),704072.200000003,A,t,O,t,1141,1,1149.9000000059605,702922.299999997,7221,WL,C,1.0
5,1.5999999046325684,learn,60000.0,Wed Sep 03 2025 14:01:16 GMT-0500 (Central Daylight Time),704522.0,A,to,O,o,428,1,1599.7000000029802,702922.299999997,7221,WL,C,1.0
5,1.9500000476837158,learn,60000.0,Wed Sep 03 2025 14:01:16 GMT-0500 (Central Daylight Time),704871.3999999985,A,tow,O,w,333,1,1949.1000000014901,702922.299999997,7221,WL,C,1.0
5,2.049999952316284,learn,60000.0,Wed Sep 03 2025 14:01:16 GMT-0500 (Central Daylight Time),704971.299999997,A,towe,O,e,94,1,2049.0,702922.299999997,7221,WL,C,1.0
5,2.25,learn,60000.0,Wed Sep 03 2025 14:01:16 GMT-0500 (Central Daylight Time),705171.299999997,A,tower,O,r,195,1,2249.0,702922.299999997,7221,WL,C,1.0
5,3.865999937057495,learn,60000.0,Wed Sep 03 2025 14:01:16 GMT-0500 (Central Daylight Time),706787.3999999985,A,towerenter,O,enter,1612,1,3865.10000000149,702922.299999997,7221,WL,C,1.0
5,5.914999961853027,learn,60000.0,Wed Sep 03 2025 14:01:16 GMT-0500 (Central Daylight Time),708837.0,A,w,O,w,2043,1,2049.2999999970198,706787.700000003,7221,WL,C,2.0
5,6.482000112533569,learn,60000.0,Wed Sep 03 2025 14:01:16 GMT-0500 (Central Daylight Time),709403.3999999985,A,wh,O,h,553,1,2615.6999999955297,706787.700000003,7221,WL,C,2.0
5,6.7149999141693115,learn,60000.0,Wed Sep 03 2025 14:01:16 GMT-0500 (Central Daylight Time),709636.8999999985,A,whe,O,e,227,1,2849.1999999955297,706787.700000003,7221,WL,C,2.0
5,7.04800009727478,learn,60000.0,Wed Sep 03 2025 14:01:16 GMT-0500 (Central Daylight Time),709969.8999999985,A,whea,O,a,322,1,3182.1999999955297,706787.700000003,7221,WL,C,2.0
5,7.332000017166138,learn,60000.0,Wed Sep 03 2025 14:01:16 GMT-0500 (Central Daylight Time),710253.3999999985,A,wheat,O,t,269,1,3465.6999999955297,706787.700000003,7221,WL,C,2.0
5,8.265000104904175,learn,60000.0,Wed Sep 03 2025 14:01:16 GMT-0500 (Central Daylight Time),711186.200000003,A,wheatenter,O,enter,912,1,4398.5,706787.700000003,7221,WL,C,2.0
5,8.88100004196167,learn,60000.0,Wed Sep 03 2025 14:01:16 GMT-0500 (Central Daylight Time),711802.799999997,A,q,O,q,604,1,616.1999999955297,711186.6000000015,7221,WL,C,3.0
5,9.164999961853027,learn,60000.0,Wed Sep 03 2025 14:01:16 GMT-0500 (Central Daylight Time),712086.299999997,A,qu,O,u,268,1,899.6999999955297,711186.6000000015,7221,WL,C,3.0
5,9.414000034332275,learn,60000.0,Wed Sep 03 2025 14:01:16 GMT-0500 (Central Daylight Time),712336.0,A,que,O,e,241,1,1149.3999999985099,711186.6000000015,7221,WL,C,3.0
5,9.71399998664856,learn,60000.0,Wed Sep 03 2025 14:01:16 GMT-0500 (Central Daylight Time),712635.8999999985,A,quee,O,e,279,1,1449.2999999970198,711186.6000000015,7221,WL,C,3.0
5,10.098999977111816,learn,60000.0,Wed Sep 03 2025 14:01:16 GMT-0500 (Central Daylight Time),713020.3999999985,A,queen,O,n,380,1,1833.7999999970198,711186.6000000015,7221,WL,C,3.0
5,11.346999883651733,learn,60000.0,Wed Sep 03 2025 14:01:16 GMT-0500 (Central Daylight Time),714268.6000000015,A,queenenter,O,enter,1242,1,3082.0,711186.6000000015,7221,WL,C,3.0
5,11.846999883651733,learn,60000.0,Wed Sep 03 2025 14:01:16 GMT-0500 (Central Daylight Time),714768.5,A,d,O,d,489,1,499.6000000014901,714268.8999999985,7221,WL,C,4.0
5,12.230000019073486,learn,60000.0,Wed Sep 03 2025 14:01:16 GMT-0500 (Central Daylight Time),715151.799999997,A,du,O,u,373,1,882.8999999985099,714268.8999999985,7221,WL,C,4.0
5,12.562999963760376,learn,60000.0,Wed Sep 03 2025 14:01:16 GMT-0500 (Central Daylight Time),715485.1000000015,A,dug,O,g,319,1,1216.2000000029802,714268.8999999985,7221,WL,C,4.0
5,12.846999883651733,learn,60000.0,Wed Sep 03 2025 14:01:16 GMT-0500 (Central Daylight Time),715768.299999997,A,duga,O,a,273,1,1499.3999999985099,714268.8999999985,7221,WL,C,4.0
5,13.11299991607666,learn,60000.0,Wed Sep 03 2025 14:01:16 GMT-0500 (Central Daylight Time),716034.799999997,A,dugar,O,r,261,1,1765.8999999985099,714268.8999999985,7221,WL,C,4.0
5,13.629999876022339,learn,60000.0,Wed Sep 03 2025 14:01:16 GMT-0500 (Central Daylight Time),716551.299999997,A,dugarenter,O,enter,500,1,2282.39999999851,714268.8999999985,7221,WL,C,4.0
5,14.163000106811523,learn,60000.0,Wed Sep 03 2025 14:01:16 GMT-0500 (Central Daylight Time),717084.5,A,h,O,h,519,1,532.8999999985099,716551.6000000015,7221,WL,C,5.0
5,14.446000099182129,learn,60000.0,Wed Sep 03 2025 14:01:16 GMT-0500 (Central Daylight Time),717367.700000003,A,ho,O,o,266,1,816.1000000014901,716551.6000000015,7221,WL,C,5.0
5,17.144999980926514,learn,60000.0,Wed Sep 03 2025 14:01:16 GMT-0500 (Central Daylight Time),720067.0,A,hom,O,m,2687,1,3515.39999999851,716551.6000000015,7221,WL,C,5.0
5,17.561000108718872,learn,60000.0,Wed Sep 03 2025 14:01:16 GMT-0500 (Central Daylight Time),720483.3999999985,A,home,O,e,395,1,3931.7999999970198,716551.6000000015,7221,WL,C,5.0
5,18.378000020980835,learn,60000.0,Wed Sep 03 2025 14:01:16 GMT-0500 (Central Daylight Time),721299.700000003,A,homeenter,O,enter,810,1,4748.10000000149,716551.6000000015,7221,WL,C,5.0
5,20.72699999809265,learn,60000.0,Wed Sep 03 2025 14:01:16 GMT-0500 (Central Daylight Time),723649.1000000015,A,b,O,b,2330,1,2349.10000000149,721300.0,7221,WL,C,6.0
5,21.009999990463257,learn,60000.0,Wed Sep 03 2025 14:01:16 GMT-0500 (Central Daylight Time),723932.0,A,bo,O,o,277,1,2632.0,721300.0,7221,WL,C,6.0
5,21.493000030517578,learn,60000.0,Wed Sep 03 2025 14:01:16 GMT-0500 (Central Daylight Time),724415.6000000015,A,boy,O,y,467,1,3115.60000000149,721300.0,7221,WL,C,6.0
5,22.276000022888184,learn,60000.0,Wed Sep 03 2025 14:01:16 GMT-0500 (Central Daylight Time),725198.299999997,A,boyenter,O,enter,766,1,3898.2999999970198,721300.0,7221,WL,C,6.0
5,22.675999879837036,learn,60000.0,Wed Sep 03 2025 14:01:16 GMT-0500 (Central Daylight Time),725598.5,A,d,O,d,384,1,399.8999999985099,725198.6000000015,7221,WL,C,7.0
5,22.95900011062622,learn,60000.0,Wed Sep 03 2025 14:01:16 GMT-0500 (Central Daylight Time),725881.700000003,A,do,O,o,272,1,683.1000000014901,725198.6000000015,7221,WL,C,7.0
5,23.39299988746643,learn,60000.0,Wed Sep 03 2025 14:01:16 GMT-0500 (Central Daylight Time),726315.1000000015,A,doc,O,c,420,1,1116.5,725198.6000000015,7221,WL,C,7.0
5,23.858999967575073,learn,60000.0,Wed Sep 03 2025 14:01:16 GMT-0500 (Central Daylight Time),726781.3999999985,A,doct,O,t,452,1,1582.7999999970198,725198.6000000015,7221,WL,C,7.0
5,24.125999927520752,learn,60000.0,Wed Sep 03 2025 14:01:16 GMT-0500 (Central Daylight Time),727048.200000003,A,docto,O,o,249,1,1849.6000000014901,725198.6000000015,7221,WL,C,7.0
5,24.375999927520752,learn,60000.0,Wed Sep 03 2025 14:01:16 GMT-0500 (Central Daylight Time),727298.0,A,doctor,O,r,238,1,2099.39999999851,725198.6000000015,7221,WL,C,7.0
5,24.842000007629395,learn,60000.0,Wed Sep 03 2025 14:01:16 GMT-0500 (Central Daylight Time),727764.6000000015,A,doctorenter,O,enter,453,1,2566.0,725198.6000000015,7221,WL,C,7.0
5,25.375,learn,60000.0,Wed Sep 03 2025 14:01:16 GMT-0500 (Central Daylight Time),728297.6000000015,A,f,O,f,522,1,532.7000000029802,727764.8999999985,7221,WL,C,8.0
5,25.625,learn,60000.0,Wed Sep 03 2025 14:01:16 GMT-0500 (Central Daylight Time),728547.299999997,A,fl,O,l,244,1,782.3999999985099,727764.8999999985,7221,WL,C,8.0
5,26.009000062942505,learn,60000.0,Wed Sep 03 2025 14:01:16 GMT-0500 (Central Daylight Time),728930.799999997,A,fla,O,a,363,1,1165.8999999985099,727764.8999999985,7221,WL,C,8.0
5,26.29200005531311,learn,60000.0,Wed Sep 03 2025 14:01:16 GMT-0500 (Central Daylight Time),729214.1000000015,A,flag,O,g,268,1,1449.2000000029802,727764.8999999985,7221,WL,C,8.0
5,26.757999897003174,learn,60000.0,Wed Sep 03 2025 14:01:16 GMT-0500 (Central Daylight Time),729680.3999999985,A,flagenter,O,enter,449,1,1915.5,727764.8999999985,7221,WL,C,8.0
5,27.20799994468689,learn,60000.0,Wed Sep 03 2025 14:01:16 GMT-0500 (Central Daylight Time),730130.200000003,A,n,O,n,428,1,449.40000000596046,729680.799999997,7221,WL,C,9.0
5,27.52500009536743,learn,60000.0,Wed Sep 03 2025 14:01:16 GMT-0500 (Central Daylight Time),730447.0,A,na,O,a,300,1,766.2000000029802,729680.799999997,7221,WL,C,9.0
5,27.85800004005432,learn,60000.0,Wed Sep 03 2025 14:01:16 GMT-0500 (Central Daylight Time),730780.0,A,nai,O,i,320,1,1099.2000000029802,729680.799999997,7221,WL,C,9.0
5,28.174999952316284,learn,60000.0,Wed Sep 03 2025 14:01:16 GMT-0500 (Central Daylight Time),731096.8999999985,A,nail,O,l,306,1,1416.1000000014901,729680.799999997,7221,WL,C,9.0
5,28.907999992370605,learn,60000.0,Wed Sep 03 2025 14:01:16 GMT-0500 (Central Daylight Time),731830.0,A,nailenter,O,enter,726,1,2149.2000000029802,729680.799999997,7221,WL,C,9.0
5,29.756999969482422,learn,60000.0,Wed Sep 03 2025 14:01:16 GMT-0500 (Central Daylight Time),732679.6000000015,A,c,O,c,841,1,849.3000000044703,731830.299999997,7221,WL,C,10.0
5,30.04099988937378,learn,60000.0,Wed Sep 03 2025 14:01:16 GMT-0500 (Central Daylight Time),732962.799999997,A,ca,O,a,271,1,1132.5,731830.299999997,7221,WL,C,10.0
5,30.256999969482422,learn,60000.0,Wed Sep 03 2025 14:01:16 GMT-0500 (Central Daylight Time),733179.5,A,cam,O,m,212,1,1349.2000000029802,731830.299999997,7221,WL,C,10.0
5,30.591000080108643,learn,60000.0,Wed Sep 03 2025 14:01:16 GMT-0500 (Central Daylight Time),733512.700000003,A,camp,O,p,323,1,1682.4000000059605,731830.299999997,7221,WL,C,10.0
5,31.124000072479248,learn,60000.0,Wed Sep 03 2025 14:01:16 GMT-0500 (Central Daylight Time),734045.700000003,A,campenter,O,enter,518,1,2215.4000000059605,731830.299999997,7221,WL,C,10.0
5,31.424000024795532,learn,60000.0,Wed Sep 03 2025 14:01:16 GMT-0500 (Central Daylight Time),734345.799999997,A,c,O,c,280,1,299.79999999701977,734046.0,7221,WL,C,11.0
5,31.69000005722046,learn,60000.0,Wed Sep 03 2025 14:01:16 GMT-0500 (Central Daylight Time),734612.299999997,A,ca,O,a,260,1,566.2999999970198,734046.0,7221,WL,C,11.0
5,31.973000049591064,learn,60000.0,Wed Sep 03 2025 14:01:16 GMT-0500 (Central Daylight Time),734895.5,A,cat,O,t,266,1,849.5,734046.0,7221,WL,C,11.0
5,32.17300009727478,learn,60000.0,Wed Sep 03 2025 14:01:16 GMT-0500 (Central Daylight Time),735095.3999999985,A,catt,O,t,191,1,1049.3999999985099,734046.0,7221,WL,C,11.0
5,32.42300009727478,learn,60000.0,Wed Sep 03 2025 14:01:16 GMT-0500 (Central Daylight Time),735345.5,A,cattl,O,l,239,1,1299.5,734046.0,7221,WL,C,11.0
5,32.65700006484985,learn,60000.0,Wed Sep 03 2025 14:01:16 GMT-0500 (Central Daylight Time),735578.799999997,A,cattle,O,e,228,1,1532.7999999970198,734046.0,7221,WL,C,11.0
5,33.12299990653992,learn,60000.0,Wed Sep 03 2025 14:01:16 GMT-0500 (Central Daylight Time),736045.200000003,A,cattleenter,O,enter,460,1,1999.2000000029802,734046.0,7221,WL,C,11.0
5,33.63199996948242,learn,60000.0,Wed Sep 03 2025 14:01:16 GMT-0500 (Central Daylight Time),736554.200000003,A,c,O,c,358,1,508.80000000447035,736045.3999999985,7221,WL,C,12.0
5,34.138999938964844,learn,60000.0,Wed Sep 03 2025 14:01:16 GMT-0500 (Central Daylight Time),737061.5,A,co,O,o,491,1,1016.1000000014901,736045.3999999985,7221,WL,C,12.0
5,34.473000049591064,learn,60000.0,Wed Sep 03 2025 14:01:16 GMT-0500 (Central Daylight Time),737395.200000003,A,cor,O,r,321,1,1349.8000000044703,736045.3999999985,7221,WL,C,12.0
5,34.90599989891052,learn,60000.0,Wed Sep 03 2025 14:01:16 GMT-0500 (Central Daylight Time),737827.8999999985,A,corn,O,n,419,1,1782.5,736045.3999999985,7221,WL,C,12.0
5,38.270999908447266,learn,60000.0,Wed Sep 03 2025 14:01:16 GMT-0500 (Central Daylight Time),741193.5,A,cornenter,O,enter,3346,1,5148.10000000149,736045.3999999985,7221,WL,C,12.0
5,44.753000020980835,learn,60000.0,Wed Sep 03 2025 14:01:16 GMT-0500 (Central Daylight Time),747675.0,A,s,O,s,6469,1,6481.20000000298,741193.799999997,7221,WL,C,13.0
5,44.88599991798401,learn,60000.0,Wed Sep 03 2025 14:01:16 GMT-0500 (Central Daylight Time),747808.3999999985,A,sh,O,h,123,1,6614.60000000149,741193.799999997,7221,WL,C,13.0
5,45.069000005722046,learn,60000.0,Wed Sep 03 2025 14:01:16 GMT-0500 (Central Daylight Time),747991.3999999985,A,sho,O,o,174,1,6797.60000000149,741193.799999997,7221,WL,C,13.0
5,45.20300006866455,learn,60000.0,Wed Sep 03 2025 14:01:16 GMT-0500 (Central Daylight Time),748124.8999999985,A,shor,O,r,128,1,6931.10000000149,741193.799999997,7221,WL,C,13.0
5,45.319000005722046,learn,60000.0,Wed Sep 03 2025 14:01:16 GMT-0500 (Central Daylight Time),748241.3999999985,A,shore,O,e,106,1,7047.60000000149,741193.799999997,7221,WL,C,13.0
5,45.668999910354614,learn,60000.0,Wed Sep 03 2025 14:01:16 GMT-0500 (Central Daylight Time),748591.200000003,A,shoreenter,O,enter,333,1,7397.4000000059605,741193.799999997,7221,WL,C,13.0
5,45.95199990272522,learn,60000.0,Wed Sep 03 2025 14:01:16 GMT-0500 (Central Daylight Time),748874.5,A,b,O,b,272,1,282.8999999985099,748591.6000000015,7221,WL,C,14.0
5,46.18600010871887,learn,60000.0,Wed Sep 03 2025 14:01:16 GMT-0500 (Central Daylight Time),749108.0,A,bo,O,o,220,1,516.3999999985099,748591.6000000015,7221,WL,C,14.0
5,46.38499999046326,learn,60000.0,Wed Sep 03 2025 14:01:16 GMT-0500 (Central Daylight Time),749307.6000000015,A,bod,O,d,194,1,716.0,748591.6000000015,7221,WL,C,14.0
5,46.63599991798401,learn,60000.0,Wed Sep 03 2025 14:01:16 GMT-0500 (Central Daylight Time),749557.700000003,A,body,O,y,235,1,966.1000000014901,748591.6000000015,7221,WL,C,14.0
5,47.95199990272522,learn,60000.0,Wed Sep 03 2025 14:01:16 GMT-0500 (Central Daylight Time),750874.0,A,bodyenter,O,enter,1305,1,2282.39999999851,748591.6000000015,7221,WL,C,14.0
5,68.62800002098083,learn,60000.0,Wed Sep 03 2025 14:01:16 GMT-0500 (Central Daylight Time),771550.5,A,enter,O,enter,20667,1,20676.20000000298,750874.299999997,7221,WL,C,15.0
6,0.6999998092651367,distr,59300.00019073486,Wed Sep 03 2025 14:01:16 GMT-0500 (Central Daylight Time),860522.6000000015,B,s,O,s,687,1,699.6000000014901,859823.0,7221,WL,C,1.0
6,1.3489999771118164,distr,58651.00002288818,Wed Sep 03 2025 14:01:16 GMT-0500 (Central Daylight Time),861172.299999997,B,sk,O,k,642,1,1349.2999999970198,859823.0,7221,WL,C,1.0
6,1.8499999046325684,distr,58150.00009536743,Wed Sep 03 2025 14:01:16 GMT-0500 (Central Daylight Time),861672.5,B,sky,O,y,489,1,1849.5,859823.0,7221,WL,C,1.0
6,2.482999801635742,distr,57517.00019836426,Wed Sep 03 2025 14:01:16 GMT-0500 (Central Daylight Time),862305.799999997,B,skyenter,O,enter,622,1,2482.7999999970198,859823.0,7221,WL,C,1.0
6,3.3320000171661377,distr,56667.99998283386,Wed Sep 03 2025 14:01:16 GMT-0500 (Central Daylight Time),863155.200000003,B,d,O,d,828,1,849.0,862306.200000003,7221,WL,C,2.0
6,3.5820000171661377,distr,56417.99998283386,Wed Sep 03 2025 14:01:16 GMT-0500 (Central Daylight Time),863405.299999997,B,do,O,o,234,1,1099.0999999940395,862306.200000003,7221,WL,C,2.0
6,4.014999866485596,distr,55985.000133514404,Wed Sep 03 2025 14:01:16 GMT-0500 (Central Daylight Time),863838.3999999985,B,dol,O,l,425,1,1532.1999999955297,862306.200000003,7221,WL,C,2.0
6,4.264999866485596,distr,55735.000133514404,Wed Sep 03 2025 14:01:16 GMT-0500 (Central Daylight Time),864088.299999997,B,doll,O,l,231,1,1782.0999999940395,862306.200000003,7221,WL,C,2.0
6,4.447999954223633,distr,55552.00004577637,Wed Sep 03 2025 14:01:16 GMT-0500 (Central Daylight Time),864271.3999999985,B,dolla,O,a,173,1,1965.1999999955297,862306.200000003,7221,WL,C,2.0
6,4.681999921798706,distr,55318.000078201294,Wed Sep 03 2025 14:01:16 GMT-0500 (Central Daylight Time),864504.8999999985,B,dollar,O,r,222,1,2198.6999999955297,862306.200000003,7221,WL,C,2.0
6,5.31499981880188,distr,54685.00018119812,Wed Sep 03 2025 14:01:16 GMT-0500 (Central Daylight Time),865138.0,B,dollarenter,O,enter,621,1,2831.7999999970198,862306.200000003,7221,WL,C,2.0
6,5.865000009536743,distr,54134.99999046326,Wed Sep 03 2025 14:01:16 GMT-0500 (Central Daylight Time),865687.8999999985,B,v,O,v,541,1,549.6000000014901,865138.299999997,7221,WL,C,3.0
6,6.31499981880188,distr,53685.00018119812,Wed Sep 03 2025 14:01:16 GMT-0500 (Central Daylight Time),866137.799999997,B,va,O,a,430,1,999.5,865138.299999997,7221,WL,C,3.0
6,6.480999946594238,distr,53519.00005340576,Wed Sep 03 2025 14:01:16 GMT-0500 (Central Daylight Time),866304.200000003,B,val,O,l,149,1,1165.9000000059605,865138.299999997,7221,WL,C,3.0
6,6.697999954223633,distr,53302.00004577637,Wed Sep 03 2025 14:01:16 GMT-0500 (Central Daylight Time),866520.799999997,B,vall,O,l,197,1,1382.5,865138.299999997,7221,WL,C,3.0
6,6.9649999141693115,distr,53035.00008583069,Wed Sep 03 2025 14:01:16 GMT-0500 (Central Daylight Time),866787.799999997,B,valle,O,e,262,1,1649.5,865138.299999997,7221,WL,C,3.0
6,7.546999931335449,distr,52453.00006866455,Wed Sep 03 2025 14:01:16 GMT-0500 (Central Daylight Time),867370.3999999985,B,valley,O,y,561,1,2232.10000000149,865138.299999997,7221,WL,C,3.0
6,8.530999898910522,distr,51469.00010108948,Wed Sep 03 2025 14:01:16 GMT-0500 (Central Daylight Time),868354.200000003,B,valleyenter,O,enter,963,1,3215.9000000059605,865138.299999997,7221,WL,C,3.0
6,9.379999876022339,distr,50620.00012397766,Wed Sep 03 2025 14:01:16 GMT-0500 (Central Daylight Time),869203.3999999985,B,w,O,w,830,1,848.8999999985099,868354.5,7221,WL,C,4.0
6,9.579999923706055,distr,50420.000076293945,Wed Sep 03 2025 14:01:16 GMT-0500 (Central Daylight Time),869403.5,B,wi,O,i,195,1,1049.0,868354.5,7221,WL,C,4.0
6,9.879999876022339,distr,50120.00012397766,Wed Sep 03 2025 14:01:16 GMT-0500 (Central Daylight Time),869703.3999999985,B,win,O,n,283,1,1348.8999999985099,868354.5,7221,WL,C,4.0
6,10.179999828338623,distr,49820.00017166138,Wed Sep 03 2025 14:01:16 GMT-0500 (Central Daylight Time),870003.200000003,B,wint,O,t,286,1,1648.7000000029802,868354.5,7221,WL,C,4.0
6,10.479999780654907,distr,49520.00021934509,Wed Sep 03 2025 14:01:16 GMT-0500 (Central Daylight Time),870303.0,B,winte,O,e,283,1,1948.5,868354.5,7221,WL,C,4.0
6,10.646999835968018,distr,49353.00016403198,Wed Sep 03 2025 14:01:16 GMT-0500 (Central Daylight Time),870469.8999999985,B,winter,O,r,152,1,2115.39999999851,868354.5,7221,WL,C,4.0
6,11.378999948501587,distr,48621.00005149841,Wed Sep 03 2025 14:01:16 GMT-0500 (Central Daylight Time),871202.6000000015,B,winterenter,O,enter,720,1,2848.10000000149,868354.5,7221,WL,C,4.0
6,12.062999963760376,distr,47937.000036239624,Wed Sep 03 2025 14:01:16 GMT-0500 (Central Daylight Time),871886.0,B,c,O,c,675,1,683.2999999970198,871202.700000003,7221,WL,C,5.0
6,12.263000011444092,distr,47736.99998855591,Wed Sep 03 2025 14:01:16 GMT-0500 (Central Daylight Time),872086.0,B,ch,O,h,192,1,883.2999999970198,871202.700000003,7221,WL,C,5.0
6,12.461999893188477,distr,47538.00010681152,Wed Sep 03 2025 14:01:16 GMT-0500 (Central Daylight Time),872285.5,B,chr,O,r,192,1,1082.7999999970198,871202.700000003,7221,WL,C,5.0
6,12.61299991607666,distr,47387.00008392334,Wed Sep 03 2025 14:01:16 GMT-0500 (Central Daylight Time),872435.799999997,B,chri,O,i,146,1,1233.0999999940395,871202.700000003,7221,WL,C,5.0
6,12.812999963760376,distr,47187.000036239624,Wed Sep 03 2025 14:01:16 GMT-0500 (Central Daylight Time),872635.700000003,B,chris,O,s,179,1,1433.0,871202.700000003,7221,WL,C,5.0
6,13.046000003814697,distr,46953.9999961853,Wed Sep 03 2025 14:01:16 GMT-0500 (Central Daylight Time),872869.0,B,christ,O,t,227,1,1666.2999999970198,871202.700000003,7221,WL,C,5.0
6,13.561999797821045,distr,46438.000202178955,Wed Sep 03 2025 14:01:16 GMT-0500 (Central Daylight Time),873385.299999997,B,christn,O,n,497,1,2182.5999999940395,871202.700000003,7221,WL,C,5.0
6,13.76199984550476,distr,46238.00015449524,Wed Sep 03 2025 14:01:16 GMT-0500 (Central Daylight Time),873585.3999999985,B,christna,O,a,181,1,2382.6999999955297,871202.700000003,7221,WL,C,5.0
6,14.34499979019165,distr,45655.00020980835,Wed Sep 03 2025 14:01:16 GMT-0500 (Central Daylight Time),874168.3999999985,B,christn,O,backspace,573,1,2965.6999999955297,871202.700000003,7221,WL,C,5.0
6,14.578999996185303,distr,45421.0000038147,Wed Sep 03 2025 14:01:16 GMT-0500 (Central Daylight Time),874401.8999999985,B,christ,O,backspace,221,1,3199.1999999955297,871202.700000003,7221,WL,C,5.0
6,14.944999933242798,distr,45055.0000667572,Wed Sep 03 2025 14:01:16 GMT-0500 (Central Daylight Time),874768.200000003,B,christm,O,m,348,1,3565.5,871202.700000003,7221,WL,C,5.0
6,15.228999853134155,distr,44771.000146865845,Wed Sep 03 2025 14:01:16 GMT-0500 (Central Daylight Time),875051.6000000015,B,christma,O,a,270,1,3848.89999999851,871202.700000003,7221,WL,C,5.0
6,15.461999893188477,distr,44538.00010681152,Wed Sep 03 2025 14:01:16 GMT-0500 (Central Daylight Time),875284.8999999985,B,christmas,O,s,227,1,4082.1999999955297,871202.700000003,7221,WL,C,5.0
6,15.861999988555908,distr,44138.00001144409,Wed Sep 03 2025 14:01:16 GMT-0500 (Central Daylight Time),875684.700000003,B,christmasenter,O,enter,393,1,4482.0,871202.700000003,7221,WL,C,5.0
6,16.477999925613403,distr,43522.0000743866,Wed Sep 03 2025 14:01:16 GMT-0500 (Central Daylight Time),876301.299999997,B,p,O,p,609,1,616.1999999955297,875685.1000000015,7221,WL,C,6.0
6,16.82799983024597,distr,43172.00016975403,Wed Sep 03 2025 14:01:16 GMT-0500 (Central Daylight Time),876651.1000000015,B,pl,O,l,338,1,966.0,875685.1000000015,7221,WL,C,6.0
6,17.061999797821045,distr,42938.000202178955,Wed Sep 03 2025 14:01:16 GMT-0500 (Central Daylight Time),876884.799999997,B,pla,O,a,219,1,1199.6999999955297,875685.1000000015,7221,WL,C,6.0
6,17.277999877929688,distr,42722.00012207031,Wed Sep 03 2025 14:01:16 GMT-0500 (Central Daylight Time),877100.8999999985,B,plan,O,n,201,1,1415.7999999970198,875685.1000000015,7221,WL,C,6.0
6,17.527999877929688,distr,42472.00012207031,Wed Sep 03 2025 14:01:16 GMT-0500 (Central Daylight Time),877350.8999999985,B,plant,O,t,242,1,1665.7999999970198,875685.1000000015,7221,WL,C,6.0
6,18.277999877929688,distr,41722.00012207031,Wed Sep 03 2025 14:01:16 GMT-0500 (Central Daylight Time),878101.200000003,B,plantenter,O,enter,735,1,2416.10000000149,875685.1000000015,7221,WL,C,6.0
6,19.194000005722046,distr,40805.999994277954,Wed Sep 03 2025 14:01:16 GMT-0500 (Central Daylight Time),879017.0,B,m,O,m,905,1,915.5,878101.5,7221,WL,C,7.0
6,19.526999950408936,distr,40473.000049591064,Wed Sep 03 2025 14:01:16 GMT-0500 (Central Daylight Time),879350.1000000015,B,me,O,e,317,1,1248.6000000014901,878101.5,7221,WL,C,7.0
6,19.876999855041504,distr,40123.000144958496,Wed Sep 03 2025 14:01:16 GMT-0500 (Central Daylight Time),879700.0,B,mea,O,a,336,1,1598.5,878101.5,7221,WL,C,7.0
6,20.24399995803833,distr,39756.00004196167,Wed Sep 03 2025 14:01:16 GMT-0500 (Central Daylight Time),880066.6000000015,B,meat,O,t,363,1,1965.1000000014901,878101.5,7221,WL,C,7.0
6,21.14299988746643,distr,38857.00011253357,Wed Sep 03 2025 14:01:16 GMT-0500 (Central Daylight Time),880966.299999997,B,meatenter,O,enter,892,1,2864.7999999970198,878101.5,7221,WL,C,7.0
6,21.792999982833862,distr,38207.00001716614,Wed Sep 03 2025 14:01:16 GMT-0500 (Central Daylight Time),881616.1000000015,B,h,O,h,632,1,649.6000000014901,880966.5,7221,WL,C,8.0
6,22.075999975204468,distr,37924.00002479553,Wed Sep 03 2025 14:01:16 GMT-0500 (Central Daylight Time),881899.5,B,ho,O,o,270,1,933.0,880966.5,7221,WL,C,8.0
6,22.342999935150146,distr,37657.00006484985,Wed Sep 03 2025 14:01:16 GMT-0500 (Central Daylight Time),882166.1000000015,B,hot,O,t,259,1,1199.6000000014901,880966.5,7221,WL,C,8.0
6,22.64299988746643,distr,37357.00011253357,Wed Sep 03 2025 14:01:16 GMT-0500 (Central Daylight Time),882465.8999999985,B,hote,O,e,288,1,1499.3999999985099,880966.5,7221,WL,C,8.0
6,22.95899987220764,distr,37041.00012779236,Wed Sep 03 2025 14:01:16 GMT-0500 (Central Daylight Time),882782.3999999985,B,hotel,O,l,309,1,1815.8999999985099,880966.5,7221,WL,C,8.0
6,23.658999919891357,distr,36341.00008010864,Wed Sep 03 2025 14:01:16 GMT-0500 (Central Daylight Time),883482.299999997,B,hotelenter,O,enter,688,1,2515.7999999970198,880966.5,7221,WL,C,8.0
6,26.22499990463257,distr,33775.00009536743,Wed Sep 03 2025 14:01:16 GMT-0500 (Central Daylight Time),886048.1000000015,B,m,O,m,2556,1,2565.5,883482.6000000015,7221,WL,C,9.0
6,26.47499990463257,distr,33525.00009536743,Wed Sep 03 2025 14:01:16 GMT-0500 (Central Daylight Time),886297.799999997,B,mo,O,o,237,1,2815.1999999955297,883482.6000000015,7221,WL,C,9.0
6,26.658999919891357,distr,33341.00008010864,Wed Sep 03 2025 14:01:16 GMT-0500 (Central Daylight Time),886481.700000003,B,mot,O,t,165,1,2999.10000000149,883482.6000000015,7221,WL,C,9.0
6,26.79199981689453,distr,33208.00018310547,Wed Sep 03 2025 14:01:16 GMT-0500 (Central Daylight Time),886615.200000003,B,moth,O,h,122,1,3132.60000000149,883482.6000000015,7221,WL,C,9.0
6,26.924999952316284,distr,33075.000047683716,Wed Sep 03 2025 14:01:16 GMT-0500 (Central Daylight Time),886748.0,B,mothe,O,e,127,1,3265.39999999851,883482.6000000015,7221,WL,C,9.0
6,27.092000007629395,distr,32907.999992370605,Wed Sep 03 2025 14:01:16 GMT-0500 (Central Daylight Time),886914.6000000015,B,mother,O,r,155,1,3432.0,883482.6000000015,7221,WL,C,9.0
6,27.524999856948853,distr,32475.000143051147,Wed Sep 03 2025 14:01:16 GMT-0500 (Central Daylight Time),887347.700000003,B,motherenter,O,enter,427,1,3865.10000000149,883482.6000000015,7221,WL,C,9.0
6,33.95599985122681,distr,26044.000148773193,Wed Sep 03 2025 14:01:16 GMT-0500 (Central Daylight Time),893779.0,B,h,O,h,6411,1,6431.0,887348.0,7221,WL,C,10.0
6,34.17199993133545,distr,25828.00006866455,Wed Sep 03 2025 14:01:16 GMT-0500 (Central Daylight Time),893995.5,B,ha,O,a,202,1,6647.5,887348.0,7221,WL,C,10.0
6,34.371999979019165,distr,25628.000020980835,Wed Sep 03 2025 14:01:16 GMT-0500 (Central Daylight Time),894195.5,B,hal,O,l,195,1,6847.5,887348.0,7221,WL,C,10.0
6,34.621999979019165,distr,25378.000020980835,Wed Sep 03 2025 14:01:16 GMT-0500 (Central Daylight Time),894445.3999999985,B,hall,O,l,234,1,7097.39999999851,887348.0,7221,WL,C,10.0
6,35.0719997882843,distr,24928.0002117157,Wed Sep 03 2025 14:01:16 GMT-0500 (Central Daylight Time),894895.3999999985,B,hallenter,O,enter,441,1,7547.39999999851,887348.0,7221,WL,C,10.0
6,43.43599987030029,distr,16564.000129699707,Wed Sep 03 2025 14:01:16 GMT-0500 (Central Daylight Time),903259.6000000015,B,b,O,b,8350,1,8363.89999999851,894895.700000003,7221,WL,C,11.0
6,43.70299983024597,distr,16297.000169754028,Wed Sep 03 2025 14:01:16 GMT-0500 (Central Daylight Time),903526.799999997,B,bu,O,u,250,1,8631.09999999404,894895.700000003,7221,WL,C,11.0
6,43.9689998626709,distr,16031.000137329102,Wed Sep 03 2025 14:01:16 GMT-0500 (Central Daylight Time),903792.5,B,but,O,t,247,1,8896.79999999702,894895.700000003,7221,WL,C,11.0
6,44.151999950408936,distr,15848.000049591064,Wed Sep 03 2025 14:01:16 GMT-0500 (Central Daylight Time),903975.799999997,B,butt,O,t,174,1,9080.09999999404,894895.700000003,7221,WL,C,11.0
6,44.418999910354614,distr,15581.000089645386,Wed Sep 03 2025 14:01:16 GMT-0500 (Central Daylight Time),904242.5,B,butte,O,e,246,1,9346.79999999702,894895.700000003,7221,WL,C,11.0
6,44.63599991798401,distr,15364.000082015991,Wed Sep 03 2025 14:01:16 GMT-0500 (Central Daylight Time),904458.8999999985,B,butter,O,r,212,1,9563.19999999553,894895.700000003,7221,WL,C,11.0
6,44.98599982261658,distr,15014.000177383423,Wed Sep 03 2025 14:01:16 GMT-0500 (Central Daylight Time),904809.200000003,B,butterenter,O,enter,332,1,9913.5,894895.700000003,7221,WL,C,11.0
6,52.882999897003174,distr,7117.000102996826,Wed Sep 03 2025 14:01:16 GMT-0500 (Central Daylight Time),912706.6000000015,B,enter,O,enter,7876,1,7897.0,904809.6000000015,7221,WL,C,12.0
6,53.31599998474121,distr,6684.000015258789,Wed Sep 03 2025 14:01:16 GMT-0500 (Central Daylight Time),913139.6000000015,B,enter,O,enter,428,1,432.6000000014901,912707.0,7221,WL,C,13.0
6,53.66599988937378,distr,6334.000110626221,Wed Sep 03 2025 14:01:16 GMT-0500 (Central Daylight Time),913489.700000003,B,enter,O,enter,339,1,349.80000000447035,913139.8999999985,7221,WL,C,14.0
6,54.48299980163574,distr,5517.000198364258,Wed Sep 03 2025 14:01:16 GMT-0500 (Central Daylight Time),914306.1000000015,B,enter,O,enter,795,1,816.0,913490.1000000015,7221,WL,C,15.0
7,1.5329999923706055,immed,58467.000007629395,Wed Sep 03 2025 14:01:16 GMT-0500 (Central Daylight Time),936082.8999999985,A,t,O,t,1521,1,1532.8999999985099,934550.0,7221,WL,C,1.0
7,2.116000175476074,immed,57883.999824523926,Wed Sep 03 2025 14:01:16 GMT-0500 (Central Daylight Time),936665.5,A,to,O,o,562,1,2115.5,934550.0,7221,WL,C,1.0
7,2.3489999771118164,immed,57651.00002288818,Wed Sep 03 2025 14:01:16 GMT-0500 (Central Daylight Time),936898.700000003,A,tow,O,w,228,1,2348.7000000029802,934550.0,7221,WL,C,1.0
7,2.4660000801086426,immed,57533.99991989136,Wed Sep 03 2025 14:01:16 GMT-0500 (Central Daylight Time),937015.799999997,A,towe,O,e,108,1,2465.7999999970198,934550.0,7221,WL,C,1.0
7,2.6660001277923584,immed,57333.99987220764,Wed Sep 03 2025 14:01:16 GMT-0500 (Central Daylight Time),937215.5,A,tower,O,r,191,1,2665.5,934550.0,7221,WL,C,1.0
7,3.499000072479248,immed,56500.99992752075,Wed Sep 03 2025 14:01:16 GMT-0500 (Central Daylight Time),938048.6000000015,A,towerenter,O,enter,815,1,3498.60000000149,934550.0,7221,WL,C,1.0
7,3.949000120162964,immed,56050.999879837036,Wed Sep 03 2025 14:01:16 GMT-0500 (Central Daylight Time),938498.5,A,q,O,q,438,1,449.6000000014901,938048.8999999985,7221,WL,C,2.0
7,4.216000080108643,immed,55783.99991989136,Wed Sep 03 2025 14:01:16 GMT-0500 (Central Daylight Time),938765.299999997,A,qu,O,u,252,1,716.3999999985099,938048.8999999985,7221,WL,C,2.0
7,4.466000080108643,immed,55533.99991989136,Wed Sep 03 2025 14:01:16 GMT-0500 (Central Daylight Time),939015.1000000015,A,que,O,e,240,1,966.2000000029802,938048.8999999985,7221,WL,C,2.0
7,4.682000160217285,immed,55317.999839782715,Wed Sep 03 2025 14:01:16 GMT-0500 (Central Daylight Time),939231.799999997,A,quee,O,e,200,1,1182.8999999985099,938048.8999999985,7221,WL,C,2.0
7,4.914999961853027,immed,55085.00003814697,Wed Sep 03 2025 14:01:16 GMT-0500 (Central Daylight Time),939464.8999999985,A,queen,O,n,222,1,1416.0,938048.8999999985,7221,WL,C,2.0
7,5.449000120162964,immed,54550.999879837036,Wed Sep 03 2025 14:01:16 GMT-0500 (Central Daylight Time),939998.0,A,queenenter,O,enter,518,1,1949.1000000014901,938048.8999999985,7221,WL,C,2.0
7,6.015000104904175,immed,53984.999895095825,Wed Sep 03 2025 14:01:16 GMT-0500 (Central Daylight Time),940564.1000000015,A,w,O,w,551,1,565.7000000029802,939998.3999999985,7221,WL,C,3.0
7,6.265000104904175,immed,53734.999895095825,Wed Sep 03 2025 14:01:16 GMT-0500 (Central Daylight Time),940814.1000000015,A,wh,O,h,233,1,815.7000000029802,939998.3999999985,7221,WL,C,3.0
7,6.748000144958496,immed,53251.999855041504,Wed Sep 03 2025 14:01:16 GMT-0500 (Central Daylight Time),941297.200000003,A,whe,O,e,471,1,1298.8000000044703,939998.3999999985,7221,WL,C,3.0
7,7.014000177383423,immed,52985.99982261658,Wed Sep 03 2025 14:01:16 GMT-0500 (Central Daylight Time),941563.799999997,A,whea,O,a,252,1,1565.3999999985099,939998.3999999985,7221,WL,C,3.0
7,7.29800009727478,immed,52701.99990272522,Wed Sep 03 2025 14:01:16 GMT-0500 (Central Daylight Time),941847.700000003,A,wheat,O,t,266,1,1849.3000000044703,939998.3999999985,7221,WL,C,3.0
7,8.314000129699707,immed,51685.99987030029,Wed Sep 03 2025 14:01:16 GMT-0500 (Central Daylight Time),942863.799999997,A,wheatenter,O,enter,998,1,2865.39999999851,939998.3999999985,7221,WL,C,3.0
7,8.680999994277954,immed,51319.000005722046,Wed Sep 03 2025 14:01:16 GMT-0500 (Central Daylight Time),943230.3999999985,A,f,O,f,359,1,366.19999999552965,942864.200000003,7221,WL,C,4.0
7,8.847000122070312,immed,51152.99987792969,Wed Sep 03 2025 14:01:16 GMT-0500 (Central Daylight Time),943396.6000000015,A,fl,O,l,151,1,532.3999999985099,942864.200000003,7221,WL,C,4.0
7,9.147000074386597,immed,50852.9999256134,Wed Sep 03 2025 14:01:16 GMT-0500 (Central Daylight Time),943696.700000003,A,fla,O,a,282,1,832.5,942864.200000003,7221,WL,C,4.0
7,9.46399998664856,immed,50536.00001335144,Wed Sep 03 2025 14:01:16 GMT-0500 (Central Daylight Time),944013.5,A,flag,O,g,302,1,1149.2999999970198,942864.200000003,7221,WL,C,4.0
7,9.996999979019165,immed,50003.000020980835,Wed Sep 03 2025 14:01:16 GMT-0500 (Central Daylight Time),944546.3999999985,A,flagenter,O,enter,512,1,1682.1999999955297,942864.200000003,7221,WL,C,4.0
7,10.330000162124634,immed,49669.999837875366,Wed Sep 03 2025 14:01:16 GMT-0500 (Central Daylight Time),944879.700000003,A,s,O,s,316,1,333.1000000014901,944546.6000000015,7221,WL,C,5.0
7,10.597000122070312,immed,49402.99987792969,Wed Sep 03 2025 14:01:16 GMT-0500 (Central Daylight Time),945146.3999999985,A,su,O,u,255,1,599.7999999970198,944546.6000000015,7221,WL,C,5.0
7,10.812999963760376,immed,49187.000036239624,Wed Sep 03 2025 14:01:16 GMT-0500 (Central Daylight Time),945362.5,A,sug,O,g,211,1,815.8999999985099,944546.6000000015,7221,WL,C,5.0
7,11.080000162124634,immed,48919.999837875366,Wed Sep 03 2025 14:01:16 GMT-0500 (Central Daylight Time),945629.200000003,A,suga,O,a,251,1,1082.6000000014901,944546.6000000015,7221,WL,C,5.0
7,11.264000177383423,immed,48735.99982261658,Wed Sep 03 2025 14:01:16 GMT-0500 (Central Daylight Time),945813.0,A,sugar,O,r,169,1,1266.3999999985099,944546.6000000015,7221,WL,C,5.0
7,11.647000074386597,immed,48352.9999256134,Wed Sep 03 2025 14:01:16 GMT-0500 (Central Daylight Time),946196.299999997,A,sugarenter,O,enter,370,1,1649.6999999955297,944546.6000000015,7221,WL,C,5.0
7,12.147000074386597,immed,47852.9999256134,Wed Sep 03 2025 14:01:16 GMT-0500 (Central Daylight Time),946695.8999999985,A,h,O,h,490,1,499.29999999701977,946196.6000000015,7221,WL,C,6.0
7,12.52999997138977,immed,47470.00002861023,Wed Sep 03 2025 14:01:16 GMT-0500 (Central Daylight Time),947079.200000003,A,ho,O,o,375,1,882.6000000014901,946196.6000000015,7221,WL,C,6.0
7,12.880000114440918,immed,47119.99988555908,Wed Sep 03 2025 14:01:16 GMT-0500 (Central Daylight Time),947429.200000003,A,hom,O,m,335,1,1232.6000000014901,946196.6000000015,7221,WL,C,6.0
7,13.146000146865845,immed,46853.999853134155,Wed Sep 03 2025 14:01:16 GMT-0500 (Central Daylight Time),947695.6000000015,A,home,O,e,249,1,1499.0,946196.6000000015,7221,WL,C,6.0
7,13.479000091552734,immed,46520.999908447266,Wed Sep 03 2025 14:01:16 GMT-0500 (Central Daylight Time),948028.5,A,homeenter,O,enter,326,1,1831.8999999985099,946196.6000000015,7221,WL,C,6.0
7,13.913000106811523,immed,46086.99989318848,Wed Sep 03 2025 14:01:16 GMT-0500 (Central Daylight Time),948461.8999999985,A,c,O,c,418,1,433.1000000014901,948028.799999997,7221,WL,C,7.0
7,14.092000007629395,immed,45907.999992370605,Wed Sep 03 2025 14:01:16 GMT-0500 (Central Daylight Time),948641.799999997,A,co,O,o,176,1,613.0,948028.799999997,7221,WL,C,7.0
7,14.331000089645386,immed,45668.999910354614,Wed Sep 03 2025 14:01:16 GMT-0500 (Central Daylight Time),948880.1000000015,A,cor,O,r,220,1,851.3000000044703,948028.799999997,7221,WL,C,7.0
7,14.529000043869019,immed,45470.99995613098,Wed Sep 03 2025 14:01:16 GMT-0500 (Central Daylight Time),949078.0,A,corn,O,n,181,1,1049.2000000029802,948028.799999997,7221,WL,C,7.0
7,15.029000043869019,immed,44970.99995613098,Wed Sep 03 2025 14:01:16 GMT-0500 (Central Daylight Time),949578.299999997,A,cornenter,O,enter,480,1,1549.5,948028.799999997,7221,WL,C,7.0
7,16.59500002861023,immed,43404.99997138977,Wed Sep 03 2025 14:01:16 GMT-0500 (Central Daylight Time),951144.6000000015,A,d,O,d,1549,1,1566.0,949578.6000000015,7221,WL,C,8.0
7,16.92799997329712,immed,43072.00002670288,Wed Sep 03 2025 14:01:16 GMT-0500 (Central Daylight Time),951477.6000000015,A,do,O,o,317,1,1899.0,949578.6000000015,7221,WL,C,8.0
7,17.128000020980835,immed,42871.999979019165,Wed Sep 03 2025 14:01:16 GMT-0500 (Central Daylight Time),951677.5,A,doc,O,c,192,1,2098.89999999851,949578.6000000015,7221,WL,C,8.0
7,17.42799997329712,immed,42572.00002670288,Wed Sep 03 2025 14:01:16 GMT-0500 (Central Daylight Time),951977.6000000015,A,doct,O,t,289,1,2399.0,949578.6000000015,7221,WL,C,8.0
7,17.67799997329712,immed,42322.00002670288,Wed Sep 03 2025 14:01:16 GMT-0500 (Central Daylight Time),952227.6000000015,A,docto,O,o,237,1,2649.0,949578.6000000015,7221,WL,C,8.0
7,17.91100001335144,immed,42088.99998664856,Wed Sep 03 2025 14:01:16 GMT-0500 (Central Daylight Time),952460.8999999985,A,doctor,O,r,218,1,2882.2999999970198,949578.6000000015,7221,WL,C,8.0
7,18.278000116348267,immed,41721.99988365173,Wed Sep 03 2025 14:01:16 GMT-0500 (Central Daylight Time),952827.200000003,A,doctorenter,O,enter,362,1,3248.60000000149,949578.6000000015,7221,WL,C,8.0
7,18.66100001335144,immed,41338.99998664856,Wed Sep 03 2025 14:01:16 GMT-0500 (Central Daylight Time),953210.6000000015,A,b,O,b,372,1,383.20000000298023,952827.3999999985,7221,WL,C,9.0
7,18.878000020980835,immed,41121.999979019165,Wed Sep 03 2025 14:01:16 GMT-0500 (Central Daylight Time),953427.200000003,A,bo,O,o,204,1,599.8000000044703,952827.3999999985,7221,WL,C,9.0
7,19.210999965667725,immed,40789.000034332275,Wed Sep 03 2025 14:01:16 GMT-0500 (Central Daylight Time),953760.1000000015,A,boy,O,y,324,1,932.7000000029802,952827.3999999985,7221,WL,C,9.0
7,20.427000045776367,immed,39572.99995422363,Wed Sep 03 2025 14:01:16 GMT-0500 (Central Daylight Time),954976.299999997,A,boyenter,O,enter,1197,1,2148.89999999851,952827.3999999985,7221,WL,C,9.0
7,20.960999965667725,immed,39039.000034332275,Wed Sep 03 2025 14:01:16 GMT-0500 (Central Daylight Time),955509.8999999985,A,f,O,f,517,1,533.2999999970198,954976.6000000015,7221,WL,C,10.0
7,21.177000045776367,immed,38822.99995422363,Wed Sep 03 2025 14:01:16 GMT-0500 (Central Daylight Time),955726.3999999985,A,fl,O,l,201,1,749.7999999970198,954976.6000000015,7221,WL,C,10.0
7,21.41000008583069,immed,38589.99991416931,Wed Sep 03 2025 14:01:16 GMT-0500 (Central Daylight Time),955959.3999999985,A,fla,O,a,215,1,982.7999999970198,954976.6000000015,7221,WL,C,10.0
7,21.64300012588501,immed,38356.99987411499,Wed Sep 03 2025 14:01:16 GMT-0500 (Central Daylight Time),956192.700000003,A,flag,O,g,222,1,1216.1000000014901,954976.6000000015,7221,WL,C,10.0
7,22.193000078201294,immed,37806.999921798706,Wed Sep 03 2025 14:01:16 GMT-0500 (Central Daylight Time),956742.6000000015,A,flagenter,O,enter,540,1,1766.0,954976.6000000015,7221,WL,C,10.0
7,22.56000018119812,immed,37439.99981880188,Wed Sep 03 2025 14:01:16 GMT-0500 (Central Daylight Time),957109.200000003,A,c,O,c,360,1,366.30000000447035,956742.8999999985,7221,WL,C,11.0
7,22.81000018119812,immed,37189.99981880188,Wed Sep 03 2025 14:01:16 GMT-0500 (Central Daylight Time),957358.8999999985,A,ca,O,a,232,1,616.0,956742.8999999985,7221,WL,C,11.0
7,22.993000030517578,immed,37006.99996948242,Wed Sep 03 2025 14:01:16 GMT-0500 (Central Daylight Time),957542.700000003,A,cam,O,m,175,1,799.8000000044703,956742.8999999985,7221,WL,C,11.0
7,23.360000133514404,immed,36639.999866485596,Wed Sep 03 2025 14:01:16 GMT-0500 (Central Daylight Time),957909.299999997,A,camp,O,p,352,1,1166.3999999985099,956742.8999999985,7221,WL,C,11.0
7,23.942000150680542,immed,36057.99984931946,Wed Sep 03 2025 14:01:16 GMT-0500 (Central Daylight Time),958492.1000000015,A,campenter,O,enter,568,1,1749.2000000029802,956742.8999999985,7221,WL,C,11.0
7,24.87600016593933,immed,35123.99983406067,Wed Sep 03 2025 14:01:16 GMT-0500 (Central Daylight Time),959425.3999999985,A,c,O,c,923,1,933.1000000014901,958492.299999997,7221,WL,C,12.0
