acc_sum,block,block_c,change,condition,correct,correct_response,datetime,endtime,face,project,response,response_time,row_sel,session_number,start_end,starttime,subject_id,task,task_vers,trial
0,prac,1,,1-Back,,,Mon Aug 25 2025 16:47:52 GMT-0500 (Central Daylight Time),,005_o_f_d_a.png,I,space,954,1,1,,,8063,VNB,B,0
1,prac,1,0.0,1-Back,1.0,m,Mon Aug 25 2025 16:47:52 GMT-0500 (Central Daylight Time),86513.20000004768,020_y_f_n_a.png,I,m,1189,2,1,2041.2000000476837,84472.0,8063,VNB,B,1
2,prac,1,0.0,1-Back,1.0,m,Mon Aug 25 2025 16:47:52 GMT-0500 (Central Daylight Time),88446.29999995232,007_m_m_h_a.png,I,m,1061,3,1,1928.2999999523163,86518.0,8063,VNB,B,2
3,prac,1,0.0,1-Back,1.0,m,Mon Aug 25 2025 16:47:52 GMT-0500 (Central Daylight Time),90212.59999990463,016_y_m_d_a.png,I,m,903,4,1,1758.8999998569489,88453.70000004768,8063,VNB,B,3
4,prac,1,0.0,1-Back,1.0,m,Mon Aug 25 2025 16:47:52 GMT-0500 (Central Daylight Time),92195.79999995232,005_o_f_n_a.png,I,m,1115,5,1,1977.9000000953674,90217.89999985695,8063,VNB,B,4
5,prac,1,1.0,1-Back,1.0,z,Mon Aug 25 2025 16:47:52 GMT-0500 (Central Daylight Time),94244.29999995232,016_y_m_n_a.png,I,z,1178,6,1,2041.2000000476837,92203.09999990463,8063,VNB,B,5
6,prac,1,0.0,1-Back,1.0,m,Mon Aug 25 2025 16:47:52 GMT-0500 (Central Daylight Time),95843.20000004768,004_o_m_h_a.png,I,m,760,7,1,1594.0,94249.20000004768,8063,VNB,B,6
6,prac,1,0.0,1-Back,0.0,m,Mon Aug 25 2025 16:47:52 GMT-0500 (Central Daylight Time),97809.5,011_m_f_d_a.png,I,z,1097,8,1,1960.7000000476837,95848.79999995232,8063,VNB,B,7
7,prac,1,1.0,1-Back,1.0,z,Mon Aug 25 2025 16:47:52 GMT-0500 (Central Daylight Time),100375.09999990463,020_y_f_d_a.png,I,z,1705,9,1,2561.2000000476837,97813.89999985695,8063,VNB,B,8
8,prac,1,0.0,1-Back,1.0,m,Mon Aug 25 2025 16:47:52 GMT-0500 (Central Daylight Time),102275.20000004768,007_m_m_n_a.png,I,m,1026,10,1,1894.1000001430511,100381.09999990463,8063,VNB,B,9
9,prac,1,0.0,1-Back,1.0,m,Mon Aug 25 2025 16:47:52 GMT-0500 (Central Daylight Time),104357.39999985695,005_o_f_h_a.png,I,m,1224,11,1,2073.899999856949,102283.5,8063,VNB,B,10
10,prac,1,0.0,1-Back,1.0,m,Mon Aug 25 2025 16:47:52 GMT-0500 (Central Daylight Time),106190.89999985695,016_y_m_d_a.png,I,m,970,12,1,1827.5,104363.39999985695,8063,VNB,B,11
0,test,1,0.0,1-Back,,,Mon Aug 25 2025 16:47:52 GMT-0500 (Central Daylight Time),106190.89999985695,020_y_f_d_a.png,I,space,3915,1,1,1827.5,104363.39999985695,8063,VNB,B,0
1,test,1,0.0,1-Back,1.0,m,Mon Aug 25 2025 16:47:52 GMT-0500 (Central Daylight Time),118902.59999990463,011_m_f_n_a.png,I,m,1871,2,1,2895.2999999523163,116007.29999995232,8063,VNB,B,1
2,test,1,0.0,1-Back,1.0,m,Mon Aug 25 2025 16:47:52 GMT-0500 (Central Daylight Time),121052.29999995232,004_o_m_h_a.png,I,m,1125,3,1,2146.5,118905.79999995232,8063,VNB,B,2
3,test,1,1.0,1-Back,1.0,z,Mon Aug 25 2025 16:47:52 GMT-0500 (Central Daylight Time),123118.0,007_m_m_h_a.png,I,z,1047,4,1,2061.9000000953674,121056.09999990463,8063,VNB,B,3
4,test,1,0.0,1-Back,1.0,m,Mon Aug 25 2025 16:47:52 GMT-0500 (Central Daylight Time),124851.0,005_o_f_n_a.png,I,m,709,5,1,1730.1000001430511,123120.89999985695,8063,VNB,B,4
5,test,1,0.0,1-Back,1.0,m,Mon Aug 25 2025 16:47:52 GMT-0500 (Central Daylight Time),126984.70000004768,016_y_m_d_a.png,I,m,1107,6,1,2129.7000000476837,124855.0,8063,VNB,B,5
6,test,1,1.0,1-Back,1.0,z,Mon Aug 25 2025 16:47:52 GMT-0500 (Central Daylight Time),129032.29999995232,011_m_f_d_a.png,I,z,1027,7,1,2038.4000000953674,126993.89999985695,8063,VNB,B,6
7,test,1,0.0,1-Back,1.0,m,Mon Aug 25 2025 16:47:52 GMT-0500 (Central Daylight Time),130865.29999995232,020_y_f_h_a.png,I,m,811,8,1,1829.7999999523163,129035.5,8063,VNB,B,7
8,test,1,0.0,1-Back,1.0,m,Mon Aug 25 2025 16:47:52 GMT-0500 (Central Daylight Time),133147.89999985695,004_o_m_n_a.png,I,m,1258,9,1,2277.7999999523163,130870.09999990463,8063,VNB,B,8
9,test,1,0.0,1-Back,1.0,m,Mon Aug 25 2025 16:47:52 GMT-0500 (Central Daylight Time),135297.59999990463,016_y_m_h_a.png,I,m,1119,10,1,2146.0,133151.59999990463,8063,VNB,B,9
10,test,1,0.0,1-Back,1.0,m,Mon Aug 25 2025 16:47:52 GMT-0500 (Central Daylight Time),137163.5,004_o_m_d_a.png,I,m,833,11,1,1859.5,135304.0,8063,VNB,B,10
11,test,1,1.0,1-Back,1.0,z,Mon Aug 25 2025 16:47:52 GMT-0500 (Central Daylight Time),139213.20000004768,005_o_f_d_a.png,I,z,1033,12,1,2046.2000000476837,137167.0,8063,VNB,B,11
12,test,1,0.0,1-Back,1.0,m,Mon Aug 25 2025 16:47:52 GMT-0500 (Central Daylight Time),141112.70000004768,007_m_m_n_a.png,I,m,878,13,1,1895.9000000953674,139216.79999995232,8063,VNB,B,12
13,test,1,1.0,1-Back,1.0,z,Mon Aug 25 2025 16:47:52 GMT-0500 (Central Daylight Time),143211.0,020_y_f_n_a.png,I,z,1065,14,1,2093.0,141118.0,8063,VNB,B,13
14,test,1,0.0,1-Back,1.0,m,Mon Aug 25 2025 16:47:52 GMT-0500 (Central Daylight Time),145344.09999990463,011_m_f_h_a.png,I,m,1104,15,1,2130.2000000476837,143213.89999985695,8063,VNB,B,14
15,test,1,0.0,1-Back,1.0,m,Mon Aug 25 2025 16:47:52 GMT-0500 (Central Daylight Time),147510.09999990463,007_m_m_d_a.png,I,m,1138,16,1,2160.5999999046326,145349.5,8063,VNB,B,15
16,test,1,0.0,1-Back,1.0,m,Mon Aug 25 2025 16:47:52 GMT-0500 (Central Daylight Time),149443.39999985695,016_y_m_n_a.png,I,m,910,17,1,1930.0,147513.39999985695,8063,VNB,B,16
17,test,1,0.0,1-Back,1.0,m,Mon Aug 25 2025 16:47:52 GMT-0500 (Central Daylight Time),151642.5,005_o_f_h_a.png,I,m,1176,18,1,2196.100000143051,149446.39999985695,8063,VNB,B,17
0,test,2,0.0,1-Back,,,Mon Aug 25 2025 16:47:52 GMT-0500 (Central Daylight Time),151642.5,016_y_m_n_a.png,I,space,888,1,1,2196.100000143051,149446.39999985695,8063,VNB,B,0
1,test,2,0.0,1-Back,1.0,m,Mon Aug 25 2025 16:47:52 GMT-0500 (Central Daylight Time),156474.20000004768,020_y_f_h_a.png,I,m,911,2,1,1927.0,154547.20000004768,8063,VNB,B,1
2,test,2,1.0,1-Back,1.0,m,Mon Aug 25 2025 16:47:52 GMT-0500 (Central Daylight Time),158256.20000004768,004_o_m_n_a.png,I,m,761,3,1,1775.9000000953674,156480.29999995232,8063,VNB,B,2
3,test,2,0.0,1-Back,1.0,m,Mon Aug 25 2025 16:47:52 GMT-0500 (Central Daylight Time),160423.09999990463,011_m_f_d_a.png,I,m,1146,4,1,2161.399999856949,158261.70000004768,8063,VNB,B,3
4,test,2,0.0,1-Back,1.0,z,Mon Aug 25 2025 16:47:52 GMT-0500 (Central Daylight Time),162439.70000004768,007_m_m_d_a.png,I,z,988,5,1,2012.1000001430511,160427.59999990463,8063,VNB,B,4
5,test,2,0.0,1-Back,1.0,m,Mon Aug 25 2025 16:47:52 GMT-0500 (Central Daylight Time),164220.89999985695,016_y_m_h_a.png,I,m,765,6,1,1774.3999998569489,162446.5,8063,VNB,B,5
6,test,2,1.0,1-Back,1.0,z,Mon Aug 25 2025 16:47:52 GMT-0500 (Central Daylight Time),166353.70000004768,005_o_f_h_a.png,I,z,1109,7,1,2129.7000000476837,164224.0,8063,VNB,B,6
7,test,2,0.0,1-Back,1.0,m,Mon Aug 25 2025 16:47:52 GMT-0500 (Central Daylight Time),168120.89999985695,011_m_f_n_a.png,I,m,746,8,1,1764.5999999046326,166356.29999995232,8063,VNB,B,7
8,test,2,0.0,1-Back,1.0,m,Mon Aug 25 2025 16:47:52 GMT-0500 (Central Daylight Time),170303.29999995232,020_y_f_d_a.png,I,m,1154,9,1,2178.2000000476837,168125.09999990463,8063,VNB,B,8
9,test,2,0.0,1-Back,1.0,m,Mon Aug 25 2025 16:47:52 GMT-0500 (Central Daylight Time),172619.59999990463,007_m_m_n_a.png,I,m,1291,10,1,2313.0,170306.59999990463,8063,VNB,B,9
10,test,2,1.0,1-Back,1.0,m,Mon Aug 25 2025 16:47:52 GMT-0500 (Central Daylight Time),174551.89999985695,011_m_f_h_a.png,I,m,912,11,1,1929.3999998569489,172622.5,8063,VNB,B,10
10,test,2,0.0,1-Back,0.0,z,Mon Aug 25 2025 16:47:52 GMT-0500 (Central Daylight Time),176801.29999995232,004_o_m_h_a.png,I,m,1227,12,1,2242.4000000953674,174558.89999985695,8063,VNB,B,11
11,test,2,0.0,1-Back,1.0,m,Mon Aug 25 2025 16:47:52 GMT-0500 (Central Daylight Time),179150.39999985695,016_y_m_d_a.png,I,m,1321,13,1,2345.2999999523163,176805.09999990463,8063,VNB,B,12
11,test,2,0.0,1-Back,0.0,m,Mon Aug 25 2025 16:47:52 GMT-0500 (Central Daylight Time),181533.59999990463,005_o_f_n_a.png,I,z,1367,14,1,2379.899999856949,179153.70000004768,8063,VNB,B,13
12,test,2,0.0,1-Back,1.0,z,Mon Aug 25 2025 16:47:52 GMT-0500 (Central Daylight Time),183532.09999990463,020_y_f_n_a.png,I,z,974,15,1,1994.0999999046326,181538.0,8063,VNB,B,14
13,test,2,1.0,1-Back,1.0,m,Mon Aug 25 2025 16:47:52 GMT-0500 (Central Daylight Time),185281.09999990463,007_m_m_h_a.png,I,m,718,16,1,1744.3999998569489,183536.70000004768,8063,VNB,B,15
14,test,2,0.0,1-Back,1.0,m,Mon Aug 25 2025 16:47:52 GMT-0500 (Central Daylight Time),187314.79999995232,005_o_f_d_a.png,I,m,1000,17,1,2029.5,185285.29999995232,8063,VNB,B,16
15,test,2,1.0,1-Back,1.0,z,Mon Aug 25 2025 16:47:52 GMT-0500 (Central Daylight Time),189363.79999995232,004_o_m_d_a.png,I,z,1032,18,1,2045.7000000476837,187318.09999990463,8063,VNB,B,17
0,test,3,1.0,1-Back,,,Mon Aug 25 2025 16:47:52 GMT-0500 (Central Daylight Time),189363.79999995232,005_o_f_h_a.png,I,space,6856,1,1,2045.7000000476837,187318.09999990463,8063,VNB,B,0
1,test,3,0.0,1-Back,1.0,m,Mon Aug 25 2025 16:47:52 GMT-0500 (Central Daylight Time),200110.29999995232,011_m_f_d_a.png,I,m,756,2,1,1776.2000000476837,198334.09999990463,8063,VNB,B,1
2,test,3,1.0,1-Back,1.0,m,Mon Aug 25 2025 16:47:52 GMT-0500 (Central Daylight Time),202093.89999985695,007_m_m_n_a.png,I,m,950,3,1,1979.7999999523163,200114.09999990463,8063,VNB,B,2
3,test,3,0.0,1-Back,1.0,z,Mon Aug 25 2025 16:47:52 GMT-0500 (Central Daylight Time),204025.89999985695,005_o_f_n_a.png,I,z,911,4,1,1928.2999999523163,202097.59999990463,8063,VNB,B,3
4,test,3,1.0,1-Back,1.0,m,Mon Aug 25 2025 16:47:52 GMT-0500 (Central Daylight Time),205874.89999985695,004_o_m_d_a.png,I,m,817,5,1,1844.6999998092651,204030.20000004768,8063,VNB,B,4
4,test,3,0.0,1-Back,0.0,m,Mon Aug 25 2025 16:47:52 GMT-0500 (Central Daylight Time),207774.5,020_y_f_h_a.png,I,z,873,6,1,1896.1000001430511,205878.39999985695,8063,VNB,B,5
5,test,3,0.0,1-Back,1.0,z,Mon Aug 25 2025 16:47:52 GMT-0500 (Central Daylight Time),209573.20000004768,016_y_m_h_a.png,I,z,781,7,1,1795.7000000476837,207777.5,8063,VNB,B,6
6,test,3,0.0,1-Back,1.0,m,Mon Aug 25 2025 16:47:52 GMT-0500 (Central Daylight Time),211889.89999985695,011_m_f_n_a.png,I,m,1285,8,1,2314.0,209575.89999985695,8063,VNB,B,7
7,test,3,0.0,1-Back,1.0,m,Mon Aug 25 2025 16:47:52 GMT-0500 (Central Daylight Time),214039.89999985695,020_y_f_d_a.png,I,m,1121,9,1,2144.7999999523163,211895.09999990463,8063,VNB,B,8
8,test,3,1.0,1-Back,1.0,m,Mon Aug 25 2025 16:47:52 GMT-0500 (Central Daylight Time),216188.70000004768,004_o_m_n_a.png,I,m,1117,10,1,2146.2000000476837,214042.5,8063,VNB,B,9
9,test,3,0.0,1-Back,1.0,m,Mon Aug 25 2025 16:47:52 GMT-0500 (Central Daylight Time),218504.39999985695,007_m_m_h_a.png,I,m,1287,11,1,2309.2999999523163,216195.09999990463,8063,VNB,B,10
10,test,3,0.0,1-Back,1.0,z,Mon Aug 25 2025 16:47:52 GMT-0500 (Central Daylight Time),220386.89999985695,011_m_f_h_a.png,I,z,849,12,1,1876.7999999523163,218510.09999990463,8063,VNB,B,11
11,test,3,1.0,1-Back,1.0,m,Mon Aug 25 2025 16:47:52 GMT-0500 (Central Daylight Time),222052.70000004768,005_o_f_d_a.png,I,m,648,13,1,1662.6000001430511,220390.09999990463,8063,VNB,B,12
12,test,3,0.0,1-Back,1.0,z,Mon Aug 25 2025 16:47:52 GMT-0500 (Central Daylight Time),224018.89999985695,007_m_m_d_a.png,I,z,942,14,1,1963.5,222055.39999985695,8063,VNB,B,13
13,test,3,0.0,1-Back,1.0,m,Mon Aug 25 2025 16:47:52 GMT-0500 (Central Daylight Time),225785.29999995232,016_y_m_n_a.png,I,m,736,15,1,1762.5,224022.79999995232,8063,VNB,B,14
14,test,3,1.0,1-Back,1.0,m,Mon Aug 25 2025 16:47:52 GMT-0500 (Central Daylight Time),227751.59999990463,004_o_m_h_a.png,I,m,945,16,1,1962.2000000476837,225789.39999985695,8063,VNB,B,15
15,test,3,0.0,1-Back,1.0,m,Mon Aug 25 2025 16:47:52 GMT-0500 (Central Daylight Time),229734.0,016_y_m_d_a.png,I,m,956,17,1,1979.1000001430511,227754.89999985695,8063,VNB,B,16
16,test,3,1.0,1-Back,1.0,m,Mon Aug 25 2025 16:47:52 GMT-0500 (Central Daylight Time),231799.20000004768,020_y_f_n_a.png,I,m,1044,18,1,2061.9000000953674,229737.29999995232,8063,VNB,B,17
0,test,4,1.0,1-Back,,,Mon Aug 25 2025 16:47:52 GMT-0500 (Central Daylight Time),231799.20000004768,007_m_m_d_a.png,I,space,860,1,1,2061.9000000953674,229737.29999995232,8063,VNB,B,0
1,test,4,0.0,1-Back,1.0,z,Mon Aug 25 2025 16:47:52 GMT-0500 (Central Daylight Time),236965.39999985695,004_o_m_d_a.png,I,z,1265,2,1,2275.699999809265,234689.70000004768,8063,VNB,B,1
2,test,4,0.0,1-Back,1.0,m,Mon Aug 25 2025 16:47:52 GMT-0500 (Central Daylight Time),238781.20000004768,016_y_m_h_a.png,I,m,799,3,1,1811.3000001907349,236969.89999985695,8063,VNB,B,2
3,test,4,0.0,1-Back,1.0,m,Mon Aug 25 2025 16:47:52 GMT-0500 (Central Daylight Time),240813.59999990463,011_m_f_n_a.png,I,m,1006,4,1,2028.7999999523163,238784.79999995232,8063,VNB,B,3
4,test,4,1.0,1-Back,1.0,m,Mon Aug 25 2025 16:47:52 GMT-0500 (Central Daylight Time),242896.39999985695,005_o_f_h_a.png,I,m,1054,5,1,2079.2999999523163,240817.09999990463,8063,VNB,B,4
5,test,4,0.0,1-Back,1.0,m,Mon Aug 25 2025 16:47:52 GMT-0500 (Central Daylight Time),245179.5,007_m_m_n_a.png,I,m,1249,6,1,2280.2000000476837,242899.29999995232,8063,VNB,B,5
6,test,4,0.0,1-Back,1.0,m,Mon Aug 25 2025 16:47:52 GMT-0500 (Central Daylight Time),247195.09999990463,016_y_m_d_a.png,I,m,983,7,1,2012.7999999523163,245182.29999995232,8063,VNB,B,6
7,test,4,1.0,1-Back,1.0,z,Mon Aug 25 2025 16:47:52 GMT-0500 (Central Daylight Time),249211.79999995232,020_y_f_d_a.png,I,z,984,8,1,2011.2999999523163,247200.5,8063,VNB,B,7
8,test,4,0.0,1-Back,1.0,m,Mon Aug 25 2025 16:47:52 GMT-0500 (Central Daylight Time),251043.59999990463,011_m_f_h_a.png,I,m,809,9,1,1827.8999998569489,249215.70000004768,8063,VNB,B,8
9,test,4,0.0,1-Back,1.0,z,Mon Aug 25 2025 16:47:52 GMT-0500 (Central Daylight Time),252943.70000004768,004_o_m_h_a.png,I,z,881,10,1,1897.3000001907349,251046.39999985695,8063,VNB,B,9
10,test,4,1.0,1-Back,1.0,m,Mon Aug 25 2025 16:47:52 GMT-0500 (Central Daylight Time),254777.79999995232,005_o_f_n_a.png,I,m,812,11,1,1828.5999999046326,252949.20000004768,8063,VNB,B,10
11,test,4,0.0,1-Back,1.0,m,Mon Aug 25 2025 16:47:52 GMT-0500 (Central Daylight Time),256958.39999985695,011_m_f_d_a.png,I,m,1154,12,1,2176.899999856949,254781.5,8063,VNB,B,11
12,test,4,0.0,1-Back,1.0,m,Mon Aug 25 2025 16:47:52 GMT-0500 (Central Daylight Time),259674.89999985695,020_y_f_n_a.png,I,m,1694,13,1,2713.2999999523163,256961.59999990463,8063,VNB,B,12
13,test,4,0.0,1-Back,1.0,m,Mon Aug 25 2025 16:47:52 GMT-0500 (Central Daylight Time),261440.89999985695,005_o_f_d_a.png,I,m,736,14,1,1761.0,259679.89999985695,8063,VNB,B,13
14,test,4,0.0,1-Back,1.0,m,Mon Aug 25 2025 16:47:52 GMT-0500 (Central Daylight Time),263622.2999999523,020_y_f_h_a.png,I,m,1163,15,1,2177.2999999523163,261445.0,8063,VNB,B,14
15,test,4,1.0,1-Back,1.0,z,Mon Aug 25 2025 16:47:52 GMT-0500 (Central Daylight Time),265523.09999990463,007_m_m_h_a.png,I,z,867,16,1,1897.2000000476837,263625.89999985695,8063,VNB,B,15
16,test,4,0.0,1-Back,1.0,m,Mon Aug 25 2025 16:47:52 GMT-0500 (Central Daylight Time),267423.2999999523,004_o_m_n_a.png,I,m,873,17,1,1897.0,265526.2999999523,8063,VNB,B,16
17,test,4,1.0,1-Back,1.0,z,Mon Aug 25 2025 16:47:52 GMT-0500 (Central Daylight Time),269571.89999985695,016_y_m_n_a.png,I,z,1126,18,1,2142.5,267429.39999985695,8063,VNB,B,17
0,test,5,1.0,1-Back,,,Mon Aug 25 2025 16:47:52 GMT-0500 (Central Daylight Time),269571.89999985695,004_o_m_n_a.png,I,space,1112,1,1,2142.5,267429.39999985695,8063,VNB,B,0
1,test,5,1.0,1-Back,1.0,m,Mon Aug 25 2025 16:47:52 GMT-0500 (Central Daylight Time),274619.2999999523,005_o_f_h_a.png,I,m,891,2,1,1911.7999999523163,272707.5,8063,VNB,B,1
2,test,5,0.0,1-Back,1.0,m,Mon Aug 25 2025 16:47:52 GMT-0500 (Central Daylight Time),276386.09999990463,016_y_m_d_a.png,I,m,735,3,1,1762.3999998569489,274623.7000000477,8063,VNB,B,2
3,test,5,0.0,1-Back,1.0,z,Mon Aug 25 2025 16:47:52 GMT-0500 (Central Daylight Time),278301.7999999523,004_o_m_d_a.png,I,z,900,4,1,1912.4000000953674,276389.39999985695,8063,VNB,B,3
4,test,5,0.0,1-Back,1.0,m,Mon Aug 25 2025 16:47:52 GMT-0500 (Central Daylight Time),280152.0,011_m_f_h_a.png,I,m,821,5,1,1845.0,278307.0,8063,VNB,B,4
5,test,5,0.0,1-Back,1.0,m,Mon Aug 25 2025 16:47:52 GMT-0500 (Central Daylight Time),282150.59999990463,020_y_f_n_a.png,I,m,980,6,1,1994.0,280156.59999990463,8063,VNB,B,5
6,test,5,1.0,1-Back,1.0,z,Mon Aug 25 2025 16:47:52 GMT-0500 (Central Daylight Time),284199.89999985695,005_o_f_n_a.png,I,z,1029,7,1,2045.0999999046326,282154.7999999523,8063,VNB,B,6
7,test,5,0.0,1-Back,1.0,m,Mon Aug 25 2025 16:47:52 GMT-0500 (Central Daylight Time),286067.0,011_m_f_d_a.png,I,m,843,8,1,1863.5,284203.5,8063,VNB,B,7
8,test,5,0.0,1-Back,1.0,m,Mon Aug 25 2025 16:47:52 GMT-0500 (Central Daylight Time),288465.89999985695,016_y_m_h_a.png,I,m,1368,9,1,2394.699999809265,286071.2000000477,8063,VNB,B,8
9,test,5,0.0,1-Back,1.0,m,Mon Aug 25 2025 16:47:52 GMT-0500 (Central Daylight Time),290298.09999990463,020_y_f_d_a.png,I,m,800,10,1,1829.0999999046326,288469.0,8063,VNB,B,9
10,test,5,0.0,1-Back,1.0,m,Mon Aug 25 2025 16:47:52 GMT-0500 (Central Daylight Time),293264.2000000477,007_m_m_n_a.png,I,m,1945,11,1,2962.600000143051,290301.59999990463,8063,VNB,B,10
11,test,5,1.0,1-Back,1.0,z,Mon Aug 25 2025 16:47:52 GMT-0500 (Central Daylight Time),295280.0,011_m_f_n_a.png,I,z,996,12,1,2012.5,293267.5,8063,VNB,B,11
12,test,5,0.0,1-Back,1.0,m,Mon Aug 25 2025 16:47:52 GMT-0500 (Central Daylight Time),297079.5,004_o_m_h_a.png,I,m,781,13,1,1797.1000001430511,295282.39999985695,8063,VNB,B,12
13,test,5,0.0,1-Back,1.0,z,Mon Aug 25 2025 16:47:52 GMT-0500 (Central Daylight Time),298978.7999999523,007_m_m_h_a.png,I,z,877,14,1,1894.7000000476837,297084.09999990463,8063,VNB,B,13
14,test,5,1.0,1-Back,1.0,m,Mon Aug 25 2025 16:47:52 GMT-0500 (Central Daylight Time),300778.0,005_o_f_d_a.png,I,m,776,15,1,1794.7999999523163,298983.2000000477,8063,VNB,B,14
15,test,5,0.0,1-Back,1.0,m,Mon Aug 25 2025 16:47:52 GMT-0500 (Central Daylight Time),302777.59999990463,016_y_m_n_a.png,I,m,969,16,1,1995.7999999523163,300781.7999999523,8063,VNB,B,15
16,test,5,0.0,1-Back,1.0,m,Mon Aug 25 2025 16:47:52 GMT-0500 (Central Daylight Time),304910.2999999523,020_y_f_h_a.png,I,m,1114,17,1,2128.4000000953674,302781.89999985695,8063,VNB,B,16
17,test,5,0.0,1-Back,1.0,m,Mon Aug 25 2025 16:47:52 GMT-0500 (Central Daylight Time),307176.0,007_m_m_d_a.png,I,m,1245,18,1,2262.4000000953674,304913.59999990463,8063,VNB,B,17
0,prac,1,0.0,2-Back,,,Mon Aug 25 2025 16:47:52 GMT-0500 (Central Daylight Time),307176.0,011_m_f_n_a.png,I,space,4814,1,1,2262.4000000953674,304913.59999990463,8063,VNB,B,0
0,prac,1,0.0,2-Back,,,Mon Aug 25 2025 16:47:52 GMT-0500 (Central Daylight Time),307176.0,005_o_f_h_a.png,I,space,4814,2,1,2262.4000000953674,304913.59999990463,8063,VNB,B,0
1,prac,1,0.0,2-Back,1.0,m,Mon Aug 25 2025 16:47:52 GMT-0500 (Central Daylight Time),377487.09999990463,004_o_m_d_a.png,I,m,1430,3,1,2277.899999856949,375209.2000000477,8063,VNB,B,1
2,prac,1,1.0,2-Back,1.0,z,Mon Aug 25 2025 16:47:52 GMT-0500 (Central Daylight Time),379386.09999990463,007_m_m_h_a.png,I,z,1032,4,1,1894.2999999523163,377491.7999999523,8063,VNB,B,2
2,prac,1,0.0,2-Back,0.0,m,Mon Aug 25 2025 16:47:52 GMT-0500 (Central Daylight Time),381586.09999990463,020_y_f_n_a.png,I,z,1342,5,1,2193.7000000476837,379392.39999985695,8063,VNB,B,3
2,prac,1,1.0,2-Back,0.0,z,Mon Aug 25 2025 16:47:52 GMT-0500 (Central Daylight Time),384135.0,004_o_m_h_a.png,I,m,1762,6,1,2542.600000143051,381592.39999985695,8063,VNB,B,4
2,prac,1,1.0,2-Back,0.0,z,Mon Aug 25 2025 16:47:52 GMT-0500 (Central Daylight Time),386834.7999999523,016_y_m_n_a.png,I,m,1831,7,1,2693.4000000953674,384141.39999985695,8063,VNB,B,5
3,prac,1,0.0,2-Back,1.0,m,Mon Aug 25 2025 16:47:52 GMT-0500 (Central Daylight Time),389550.2999999523,011_m_f_d_a.png,I,m,1859,8,1,2709.9000000953674,386840.39999985695,8063,VNB,B,6
3,prac,1,0.0,2-Back,0.0,m,Mon Aug 25 2025 16:47:52 GMT-0500 (Central Daylight Time),392415.89999985695,005_o_f_d_a.png,I,None,2013,9,1,2860.899999856949,389555.0,8063,VNB,B,7
4,prac,1,0.0,2-Back,1.0,m,Mon Aug 25 2025 16:47:52 GMT-0500 (Central Daylight Time),394465.5,007_m_m_h_a.png,I,m,1272,10,1,2045.4000000953674,392420.09999990463,8063,VNB,B,8
5,prac,1,1.0,2-Back,1.0,z,Mon Aug 25 2025 16:47:52 GMT-0500 (Central Daylight Time),396830.2999999523,020_y_f_d_a.png,I,z,1519,11,1,2360.2999999523163,394470.0,8063,VNB,B,9
6,prac,1,0.0,2-Back,1.0,m,Mon Aug 25 2025 16:47:52 GMT-0500 (Central Daylight Time),398713.89999985695,004_o_m_n_a.png,I,m,1036,12,1,1878.5,396835.39999985695,8063,VNB,B,10
0,prac,2,0.0,2-Back,,,Mon Aug 25 2025 16:47:52 GMT-0500 (Central Daylight Time),398713.89999985695,011_m_f_n_a.png,I,a,3288,1,1,1878.5,396835.39999985695,8063,VNB,B,0
0,prac,2,0.0,2-Back,,,Mon Aug 25 2025 16:47:52 GMT-0500 (Central Daylight Time),398713.89999985695,005_o_f_h_a.png,I,a,3288,2,1,1878.5,396835.39999985695,8063,VNB,B,0
1,prac,2,0.0,2-Back,1.0,m,Mon Aug 25 2025 16:47:52 GMT-0500 (Central Daylight Time),409761.2999999523,004_o_m_d_a.png,I,m,1710,3,1,2545.0,407216.2999999523,8063,VNB,B,1
2,prac,2,1.0,2-Back,1.0,z,Mon Aug 25 2025 16:47:52 GMT-0500 (Central Daylight Time),412359.09999990463,007_m_m_h_a.png,I,z,1821,4,1,2593.399999856949,409765.7000000477,8063,VNB,B,2
2,prac,2,0.0,2-Back,0.0,m,Mon Aug 25 2025 16:47:52 GMT-0500 (Central Daylight Time),415191.59999990463,020_y_f_n_a.png,I,z,1987,5,1,2827.399999856949,412364.2000000477,8063,VNB,B,3
2,prac,2,1.0,2-Back,0.0,z,Mon Aug 25 2025 16:47:52 GMT-0500 (Central Daylight Time),417857.7000000477,004_o_m_h_a.png,I,m,1810,6,1,2659.600000143051,415198.09999990463,8063,VNB,B,4
2,prac,2,1.0,2-Back,0.0,z,Mon Aug 25 2025 16:47:52 GMT-0500 (Central Daylight Time),420190.09999990463,016_y_m_n_a.png,I,m,1469,7,1,2327.2999999523163,417862.7999999523,8063,VNB,B,5
2,prac,2,0.0,2-Back,0.0,m,Mon Aug 25 2025 16:47:52 GMT-0500 (Central Daylight Time),423055.59999990463,011_m_f_d_a.png,I,None,2016,8,1,2860.7999999523163,420194.7999999523,8063,VNB,B,6
2,prac,2,0.0,2-Back,0.0,m,Mon Aug 25 2025 16:47:52 GMT-0500 (Central Daylight Time),425655.09999990463,005_o_f_d_a.png,I,z,1742,9,1,2593.7999999523163,423061.2999999523,8063,VNB,B,7
3,prac,2,0.0,2-Back,1.0,m,Mon Aug 25 2025 16:47:52 GMT-0500 (Central Daylight Time),427037.7000000477,007_m_m_h_a.png,I,m,604,10,1,1374.4000000953674,425663.2999999523,8063,VNB,B,8
3,prac,2,1.0,2-Back,0.0,z,Mon Aug 25 2025 16:47:52 GMT-0500 (Central Daylight Time),428920.5,020_y_f_d_a.png,I,m,1020,11,1,1875.1000001430511,427045.39999985695,8063,VNB,B,9
4,prac,2,0.0,2-Back,1.0,m,Mon Aug 25 2025 16:47:52 GMT-0500 (Central Daylight Time),431003.2000000477,004_o_m_n_a.png,I,m,1242,12,1,2076.5,428926.7000000477,8063,VNB,B,10
0,test,1,0.0,2-Back,,,Mon Aug 25 2025 16:47:52 GMT-0500 (Central Daylight Time),431003.2000000477,016_y_m_h_a.png,I,space,3465,1,1,2076.5,428926.7000000477,8063,VNB,B,0
0,test,1,0.0,2-Back,,,Mon Aug 25 2025 16:47:52 GMT-0500 (Central Daylight Time),431003.2000000477,005_o_f_n_a.png,I,space,3465,2,1,2076.5,428926.7000000477,8063,VNB,B,0
1,test,1,0.0,2-Back,1.0,z,Mon Aug 25 2025 16:47:52 GMT-0500 (Central Daylight Time),447715.2999999523,004_o_m_h_a.png,I,z,958,3,1,1973.5999999046326,445741.7000000477,8063,VNB,B,1
2,test,1,0.0,2-Back,1.0,m,Mon Aug 25 2025 16:47:52 GMT-0500 (Central Daylight Time),450397.7000000477,011_m_f_d_a.png,I,m,1664,4,1,2678.600000143051,447719.09999990463,8063,VNB,B,2
3,test,1,1.0,2-Back,1.0,m,Mon Aug 25 2025 16:47:52 GMT-0500 (Central Daylight Time),452596.7000000477,016_y_m_n_a.png,I,m,1166,5,1,2196.300000190735,450400.39999985695,8063,VNB,B,3
4,test,1,0.0,2-Back,1.0,z,Mon Aug 25 2025 16:47:52 GMT-0500 (Central Daylight Time),454662.7000000477,020_y_f_d_a.png,I,z,1047,6,1,2062.9000000953674,452599.7999999523,8063,VNB,B,4
5,test,1,0.0,2-Back,1.0,m,Mon Aug 25 2025 16:47:52 GMT-0500 (Central Daylight Time),456878.59999990463,007_m_m_h_a.png,I,m,1189,7,1,2213.0999999046326,454665.5,8063,VNB,B,5
5,test,1,1.0,2-Back,0.0,m,Mon Aug 25 2025 16:47:52 GMT-0500 (Central Daylight Time),458978.59999990463,020_y_f_n_a.png,I,z,1066,8,1,2096.2999999523163,456882.2999999523,8063,VNB,B,6
5,test,1,0.0,2-Back,0.0,z,Mon Aug 25 2025 16:47:52 GMT-0500 (Central Daylight Time),461260.09999990463,005_o_f_h_a.png,I,m,1248,9,1,2275.899999856949,458984.2000000477,8063,VNB,B,7
6,test,1,0.0,2-Back,1.0,m,Mon Aug 25 2025 16:47:52 GMT-0500 (Central Daylight Time),463560.5,004_o_m_d_a.png,I,m,1279,10,1,2296.7999999523163,461263.7000000477,8063,VNB,B,8
6,test,1,1.0,2-Back,0.0,m,Mon Aug 25 2025 16:47:52 GMT-0500 (Central Daylight Time),466592.2000000477,007_m_m_d_a.png,I,None,2016,11,1,3028.0,463564.2000000477,8063,VNB,B,9
6,test,1,0.0,2-Back,0.0,m,Mon Aug 25 2025 16:47:52 GMT-0500 (Central Daylight Time),469091.5,011_m_f_n_a.png,I,z,1483,12,1,2495.2000000476837,466596.2999999523,8063,VNB,B,10
7,test,1,0.0,2-Back,1.0,m,Mon Aug 25 2025 16:47:52 GMT-0500 (Central Daylight Time),471090.7000000477,020_y_f_h_a.png,I,m,969,13,1,1995.1000001430511,469095.59999990463,8063,VNB,B,11
8,test,1,0.0,2-Back,1.0,z,Mon Aug 25 2025 16:47:52 GMT-0500 (Central Daylight Time),473205.59999990463,007_m_m_n_a.png,I,z,1089,14,1,2109.0,471096.59999990463,8063,VNB,B,12
9,test,1,0.0,2-Back,1.0,m,Mon Aug 25 2025 16:47:52 GMT-0500 (Central Daylight Time),475339.7000000477,016_y_m_d_a.png,I,m,1099,15,1,2130.300000190735,473209.39999985695,8063,VNB,B,13
9,test,1,1.0,2-Back,0.0,m,Mon Aug 25 2025 16:47:52 GMT-0500 (Central Daylight Time),477654.39999985695,011_m_f_h_a.png,I,z,1288,16,1,2309.2999999523163,475345.09999990463,8063,VNB,B,14
9,test,1,0.0,2-Back,0.0,z,Mon Aug 25 2025 16:47:52 GMT-0500 (Central Daylight Time),479737.7999999523,005_o_f_d_a.png,I,m,1051,17,1,2077.4000000953674,477660.39999985695,8063,VNB,B,15
9,test,1,0.0,2-Back,0.0,m,Mon Aug 25 2025 16:47:52 GMT-0500 (Central Daylight Time),482186.89999985695,004_o_m_n_a.png,I,z,1417,18,1,2445.7999999523163,479741.09999990463,8063,VNB,B,16
0,test,2,0.0,2-Back,,,Mon Aug 25 2025 16:47:52 GMT-0500 (Central Daylight Time),482186.89999985695,007_m_m_h_a.png,I,space,873,1,1,2445.7999999523163,479741.09999990463,8063,VNB,B,0
0,test,2,0.0,2-Back,,,Mon Aug 25 2025 16:47:52 GMT-0500 (Central Daylight Time),482186.89999985695,020_y_f_n_a.png,I,space,873,2,1,2445.7999999523163,479741.09999990463,8063,VNB,B,0
1,test,2,1.0,2-Back,1.0,z,Mon Aug 25 2025 16:47:52 GMT-0500 (Central Daylight Time),490167.0,005_o_f_h_a.png,I,z,879,3,1,1894.2999999523163,488272.7000000477,8063,VNB,B,1
2,test,2,0.0,2-Back,1.0,m,Mon Aug 25 2025 16:47:52 GMT-0500 (Central Daylight Time),492284.39999985695,004_o_m_d_a.png,I,m,1091,4,1,2111.5,490172.89999985695,8063,VNB,B,2
3,test,2,0.0,2-Back,1.0,m,Mon Aug 25 2025 16:47:52 GMT-0500 (Central Daylight Time),494233.7000000477,011_m_f_d_a.png,I,m,920,5,1,1944.0,492289.7000000477,8063,VNB,B,3
4,test,2,0.0,2-Back,1.0,m,Mon Aug 25 2025 16:47:52 GMT-0500 (Central Daylight Time),496599.89999985695,016_y_m_h_a.png,I,m,1339,6,1,2361.5999999046326,494238.2999999523,8063,VNB,B,4
4,test,2,0.0,2-Back,0.0,m,Mon Aug 25 2025 16:47:52 GMT-0500 (Central Daylight Time),498798.0,005_o_f_n_a.png,I,z,1173,7,1,2194.0,496604.0,8063,VNB,B,5
5,test,2,1.0,2-Back,1.0,z,Mon Aug 25 2025 16:47:52 GMT-0500 (Central Daylight Time),501630.7999999523,004_o_m_h_a.png,I,z,1814,8,1,2830.2000000476837,498800.59999990463,8063,VNB,B,6
6,test,2,0.0,2-Back,1.0,m,Mon Aug 25 2025 16:47:52 GMT-0500 (Central Daylight Time),503696.0,020_y_f_d_a.png,I,m,1044,9,1,2060.600000143051,501635.39999985695,8063,VNB,B,7
7,test,2,0.0,2-Back,1.0,m,Mon Aug 25 2025 16:47:52 GMT-0500 (Central Daylight Time),505579.7000000477,016_y_m_d_a.png,I,m,859,10,1,1879.7000000476837,503700.0,8063,VNB,B,8
8,test,2,0.0,2-Back,1.0,m,Mon Aug 25 2025 16:47:52 GMT-0500 (Central Daylight Time),508079.7000000477,007_m_m_n_a.png,I,m,1471,11,1,2494.800000190735,505584.89999985695,8063,VNB,B,9
9,test,2,0.0,2-Back,1.0,m,Mon Aug 25 2025 16:47:52 GMT-0500 (Central Daylight Time),510297.0,011_m_f_h_a.png,I,m,1184,12,1,2212.5,508084.5,8063,VNB,B,10
10,test,2,1.0,2-Back,1.0,z,Mon Aug 25 2025 16:47:52 GMT-0500 (Central Daylight Time),512860.59999990463,004_o_m_n_a.png,I,z,1549,13,1,2554.0999999046326,510306.5,8063,VNB,B,11
10,test,2,0.0,2-Back,0.0,m,Mon Aug 25 2025 16:47:52 GMT-0500 (Central Daylight Time),515027.59999990463,005_o_f_d_a.png,I,z,1134,14,1,2162.5999999046326,512865.0,8063,VNB,B,12
11,test,2,0.0,2-Back,1.0,m,Mon Aug 25 2025 16:47:52 GMT-0500 (Central Daylight Time),517842.2000000477,020_y_f_h_a.png,I,m,1792,15,1,2811.5,515030.7000000477,8063,VNB,B,13
12,test,2,0.0,2-Back,1.0,z,Mon Aug 25 2025 16:47:52 GMT-0500 (Central Daylight Time),519859.2000000477,007_m_m_d_a.png,I,z,993,16,1,2013.3000001907349,517845.89999985695,8063,VNB,B,14
13,test,2,0.0,2-Back,1.0,m,Mon Aug 25 2025 16:47:52 GMT-0500 (Central Daylight Time),522324.0,016_y_m_n_a.png,I,m,1449,17,1,2462.0,519862.0,8063,VNB,B,15
14,test,2,1.0,2-Back,1.0,m,Mon Aug 25 2025 16:47:52 GMT-0500 (Central Daylight Time),525057.2999999523,011_m_f_n_a.png,I,m,1703,18,1,2730.7999999523163,522326.5,8063,VNB,B,16
0,test,3,1.0,2-Back,,,Mon Aug 25 2025 16:47:52 GMT-0500 (Central Daylight Time),525057.2999999523,004_o_m_n_a.png,I,space,874,1,1,2730.7999999523163,522326.5,8063,VNB,B,0
0,test,3,1.0,2-Back,,,Mon Aug 25 2025 16:47:52 GMT-0500 (Central Daylight Time),525057.2999999523,005_o_f_d_a.png,I,space,874,2,1,2730.7999999523163,522326.5,8063,VNB,B,0
1,test,3,0.0,2-Back,1.0,m,Mon Aug 25 2025 16:47:52 GMT-0500 (Central Daylight Time),533136.899999857,020_y_f_h_a.png,I,m,1128,3,1,2145.5,530991.399999857,8063,VNB,B,1
2,test,3,0.0,2-Back,1.0,z,Mon Aug 25 2025 16:47:52 GMT-0500 (Central Daylight Time),535339.0999999046,011_m_f_d_a.png,I,z,1178,4,1,2197.2999999523163,533141.7999999523,8063,VNB,B,2
3,test,3,1.0,2-Back,1.0,m,Mon Aug 25 2025 16:47:52 GMT-0500 (Central Daylight Time),537452.7999999523,016_y_m_n_a.png,I,m,1084,5,1,2111.0,535341.7999999523,8063,VNB,B,3
4,test,3,0.0,2-Back,1.0,m,Mon Aug 25 2025 16:47:52 GMT-0500 (Central Daylight Time),539684.7999999523,004_o_m_h_a.png,I,m,1207,6,1,2227.7000000476837,537457.0999999046,8063,VNB,B,4
4,test,3,0.0,2-Back,0.0,z,Mon Aug 25 2025 16:47:52 GMT-0500 (Central Daylight Time),541934.2999999523,020_y_f_n_a.png,I,m,1221,7,1,2241.2999999523163,539693.0,8063,VNB,B,5
5,test,3,1.0,2-Back,1.0,m,Mon Aug 25 2025 16:47:52 GMT-0500 (Central Daylight Time),544866.0999999046,007_m_m_d_a.png,I,m,1909,8,1,2929.0999999046326,541937.0,8063,VNB,B,6
6,test,3,0.0,2-Back,1.0,m,Mon Aug 25 2025 16:47:52 GMT-0500 (Central Daylight Time),547882.399999857,016_y_m_d_a.png,I,m,1983,9,1,3007.699999809265,544874.7000000477,8063,VNB,B,7
7,test,3,0.0,2-Back,1.0,m,Mon Aug 25 2025 16:47:52 GMT-0500 (Central Daylight Time),550448.2999999523,005_o_f_h_a.png,I,m,1536,10,1,2562.7999999523163,547885.5,8063,VNB,B,8
7,test,3,1.0,2-Back,0.0,m,Mon Aug 25 2025 16:47:52 GMT-0500 (Central Daylight Time),553465.5999999046,011_m_f_n_a.png,I,None,2001,11,1,3012.7000000476837,550452.899999857,8063,VNB,B,9
8,test,3,1.0,2-Back,1.0,z,Mon Aug 25 2025 16:47:52 GMT-0500 (Central Daylight Time),555613.399999857,007_m_m_h_a.png,I,z,1120,12,1,2144.199999809265,553469.2000000477,8063,VNB,B,10
9,test,3,0.0,2-Back,1.0,m,Mon Aug 25 2025 16:47:52 GMT-0500 (Central Daylight Time),557597.0999999046,020_y_f_d_a.png,I,m,950,13,1,1980.5999999046326,555616.5,8063,VNB,B,11
10,test,3,0.0,2-Back,1.0,m,Mon Aug 25 2025 16:47:52 GMT-0500 (Central Daylight Time),560212.399999857,005_o_f_n_a.png,I,m,1591,14,1,2611.399999856949,557601.0,8063,VNB,B,12
11,test,3,0.0,2-Back,1.0,z,Mon Aug 25 2025 16:47:52 GMT-0500 (Central Daylight Time),562461.2000000477,004_o_m_d_a.png,I,z,1232,15,1,2244.7000000476837,560216.5,8063,VNB,B,13
11,test,3,1.0,2-Back,0.0,m,Mon Aug 25 2025 16:47:52 GMT-0500 (Central Daylight Time),565010.5,011_m_f_h_a.png,I,z,1527,16,1,2546.4000000953674,562464.0999999046,8063,VNB,B,14
12,test,3,0.0,2-Back,1.0,m,Mon Aug 25 2025 16:47:52 GMT-0500 (Central Daylight Time),566760.899999857,007_m_m_n_a.png,I,m,720,17,1,1747.7999999523163,565013.0999999046,8063,VNB,B,15
13,test,3,0.0,2-Back,1.0,z,Mon Aug 25 2025 16:47:52 GMT-0500 (Central Daylight Time),569058.7000000477,016_y_m_h_a.png,I,z,1267,18,1,2294.9000000953674,566763.7999999523,8063,VNB,B,16
0,test,4,0.0,2-Back,,,Mon Aug 25 2025 16:47:52 GMT-0500 (Central Daylight Time),569058.7000000477,011_m_f_n_a.png,I,space,856,1,1,2294.9000000953674,566763.7999999523,8063,VNB,B,0
0,test,4,0.0,2-Back,,,Mon Aug 25 2025 16:47:52 GMT-0500 (Central Daylight Time),569058.7000000477,004_o_m_n_a.png,I,space,856,2,1,2294.9000000953674,566763.7999999523,8063,VNB,B,0
1,test,4,1.0,2-Back,1.0,m,Mon Aug 25 2025 16:47:52 GMT-0500 (Central Daylight Time),577106.7000000477,016_y_m_h_a.png,I,m,984,3,1,2011.9000000953674,575094.7999999523,8063,VNB,B,1
2,test,4,1.0,2-Back,1.0,m,Mon Aug 25 2025 16:47:52 GMT-0500 (Central Daylight Time),579205.5999999046,005_o_f_d_a.png,I,m,1081,4,1,2095.0999999046326,577110.5,8063,VNB,B,2
3,test,4,0.0,2-Back,1.0,z,Mon Aug 25 2025 16:47:52 GMT-0500 (Central Daylight Time),581337.7000000477,004_o_m_h_a.png,I,z,1108,5,1,2127.9000000953674,579209.7999999523,8063,VNB,B,3
4,test,4,0.0,2-Back,1.0,m,Mon Aug 25 2025 16:47:52 GMT-0500 (Central Daylight Time),583271.2999999523,007_m_m_n_a.png,I,m,905,6,1,1930.5,581340.7999999523,8063,VNB,B,4
4,test,4,0.0,2-Back,0.0,m,Mon Aug 25 2025 16:47:52 GMT-0500 (Central Daylight Time),585419.7000000477,011_m_f_d_a.png,I,z,1123,7,1,2144.2000000476837,583275.5,8063,VNB,B,5
4,test,4,0.0,2-Back,0.0,z,Mon Aug 25 2025 16:47:52 GMT-0500 (Central Daylight Time),587353.5999999046,020_y_f_n_a.png,I,m,902,8,1,1931.2999999523163,585422.2999999523,8063,VNB,B,6
4,test,4,1.0,2-Back,0.0,m,Mon Aug 25 2025 16:47:52 GMT-0500 (Central Daylight Time),589701.899999857,005_o_f_h_a.png,I,z,1331,9,1,2345.399999856949,587356.5,8063,VNB,B,7
5,test,4,0.0,2-Back,1.0,m,Mon Aug 25 2025 16:47:52 GMT-0500 (Central Daylight Time),591802.2000000477,007_m_m_h_a.png,I,m,1067,10,1,2096.7000000476837,589705.5,8063,VNB,B,8
6,test,4,0.0,2-Back,1.0,m,Mon Aug 25 2025 16:47:52 GMT-0500 (Central Daylight Time),593668.399999857,020_y_f_d_a.png,I,m,850,11,1,1862.2999999523163,591806.0999999046,8063,VNB,B,9
7,test,4,0.0,2-Back,1.0,m,Mon Aug 25 2025 16:47:52 GMT-0500 (Central Daylight Time),595501.7999999523,016_y_m_n_a.png,I,m,807,12,1,1830.4000000953674,593671.399999857,8063,VNB,B,10
8,test,4,0.0,2-Back,1.0,z,Mon Aug 25 2025 16:47:52 GMT-0500 (Central Daylight Time),597450.0999999046,004_o_m_d_a.png,I,z,916,13,1,1942.8999998569489,595507.2000000477,8063,VNB,B,11
9,test,4,1.0,2-Back,1.0,m,Mon Aug 25 2025 16:47:52 GMT-0500 (Central Daylight Time),599434.0,011_m_f_h_a.png,I,m,953,14,1,1981.1000001430511,597452.899999857,8063,VNB,B,12
10,test,4,1.0,2-Back,1.0,m,Mon Aug 25 2025 16:47:52 GMT-0500 (Central Daylight Time),601549.2000000477,020_y_f_h_a.png,I,m,1100,15,1,2111.100000143051,599438.0999999046,8063,VNB,B,13
11,test,4,0.0,2-Back,1.0,m,Mon Aug 25 2025 16:47:52 GMT-0500 (Central Daylight Time),603498.0999999046,005_o_f_n_a.png,I,m,925,16,1,1946.2000000476837,601551.899999857,8063,VNB,B,14
11,test,4,0.0,2-Back,0.0,m,Mon Aug 25 2025 16:47:52 GMT-0500 (Central Daylight Time),605798.399999857,016_y_m_d_a.png,I,z,1271,17,1,2297.0999999046326,603501.2999999523,8063,VNB,B,15
11,test,4,1.0,2-Back,0.0,m,Mon Aug 25 2025 16:47:52 GMT-0500 (Central Daylight Time),607747.5999999046,007_m_m_d_a.png,I,z,918,18,1,1946.2000000476837,605801.399999857,8063,VNB,B,16
0,test,5,1.0,2-Back,,,Mon Aug 25 2025 16:47:52 GMT-0500 (Central Daylight Time),607747.5999999046,020_y_f_d_a.png,I,space,759,1,1,1946.2000000476837,605801.399999857,8063,VNB,B,0
0,test,5,1.0,2-Back,,,Mon Aug 25 2025 16:47:52 GMT-0500 (Central Daylight Time),607747.5999999046,005_o_f_h_a.png,I,space,759,2,1,1946.2000000476837,605801.399999857,8063,VNB,B,0
1,test,5,1.0,2-Back,1.0,z,Mon Aug 25 2025 16:47:52 GMT-0500 (Central Daylight Time),615760.0999999046,004_o_m_d_a.png,I,z,1043,3,1,2060.5999999046326,613699.5,8063,VNB,B,1
2,test,5,1.0,2-Back,1.0,m,Mon Aug 25 2025 16:47:52 GMT-0500 (Central Daylight Time),617727.0999999046,011_m_f_n_a.png,I,m,937,4,1,1963.7000000476837,615763.399999857,8063,VNB,B,2
2,test,5,0.0,2-Back,0.0,m,Mon Aug 25 2025 16:47:52 GMT-0500 (Central Daylight Time),620243.2000000477,007_m_m_h_a.png,I,z,1485,5,1,2513.0,617730.2000000477,8063,VNB,B,3
2,test,5,0.0,2-Back,0.0,z,Mon Aug 25 2025 16:47:52 GMT-0500 (Central Daylight Time),622442.0,020_y_f_n_a.png,I,m,1168,6,1,2196.2999999523163,620245.7000000477,8063,VNB,B,4
3,test,5,0.0,2-Back,1.0,m,Mon Aug 25 2025 16:47:52 GMT-0500 (Central Daylight Time),624560.2999999523,005_o_f_d_a.png,I,m,1102,7,1,2114.0,622446.2999999523,8063,VNB,B,5
3,test,5,0.0,2-Back,0.0,m,Mon Aug 25 2025 16:47:52 GMT-0500 (Central Daylight Time),626407.7999999523,004_o_m_h_a.png,I,z,829,8,1,1843.2000000476837,624564.5999999046,8063,VNB,B,6
4,test,5,1.0,2-Back,1.0,z,Mon Aug 25 2025 16:47:52 GMT-0500 (Central Daylight Time),628690.899999857,011_m_f_d_a.png,I,z,1250,9,1,2280.2999999523163,626410.5999999046,8063,VNB,B,7
5,test,5,0.0,2-Back,1.0,m,Mon Aug 25 2025 16:47:52 GMT-0500 (Central Daylight Time),630639.399999857,016_y_m_n_a.png,I,m,930,10,1,1945.8999998569489,628693.5,8063,VNB,B,8
6,test,5,0.0,2-Back,1.0,m,Mon Aug 25 2025 16:47:52 GMT-0500 (Central Daylight Time),632655.0999999046,007_m_m_n_a.png,I,m,987,11,1,2012.7999999523163,630642.2999999523,8063,VNB,B,9
6,test,5,0.0,2-Back,0.0,m,Mon Aug 25 2025 16:47:52 GMT-0500 (Central Daylight Time),634455.5,020_y_f_h_a.png,I,z,780,12,1,1797.9000000953674,632657.5999999046,8063,VNB,B,10
7,test,5,0.0,2-Back,1.0,m,Mon Aug 25 2025 16:47:52 GMT-0500 (Central Daylight Time),636238.7999999523,016_y_m_d_a.png,I,m,757,13,1,1779.7999999523163,634459.0,8063,VNB,B,11
7,test,5,1.0,2-Back,0.0,z,Mon Aug 25 2025 16:47:52 GMT-0500 (Central Daylight Time),638053.899999857,011_m_f_h_a.png,I,m,797,14,1,1811.0,636242.899999857,8063,VNB,B,12
7,test,5,0.0,2-Back,0.0,m,Mon Aug 25 2025 16:47:52 GMT-0500 (Central Daylight Time),640087.2000000477,004_o_m_n_a.png,I,z,1015,15,1,2030.5,638056.7000000477,8063,VNB,B,13
8,test,5,0.0,2-Back,1.0,m,Mon Aug 25 2025 16:47:52 GMT-0500 (Central Daylight Time),641920.399999857,007_m_m_d_a.png,I,m,806,16,1,1830.1999998092651,640090.2000000477,8063,VNB,B,14
8,test,5,0.0,2-Back,0.0,z,Mon Aug 25 2025 16:47:52 GMT-0500 (Central Daylight Time),643885.5,005_o_f_n_a.png,I,m,934,17,1,1961.4000000953674,641924.0999999046,8063,VNB,B,15
8,test,5,1.0,2-Back,0.0,m,Mon Aug 25 2025 16:47:52 GMT-0500 (Central Daylight Time),645968.2000000477,016_y_m_h_a.png,I,z,1053,18,1,2079.4000000953674,643888.7999999523,8063,VNB,B,16
