acc_sum,block,block_c,condition,correct,correct_response,datetime,endtime,flanker,jitter,project,response,response_test_buffer_response,response_test_target_response,response_time,response_time_test_buffer_response,response_time_test_target_response,row_sel,session_number,start_end,starttime,subject_id,target,task,task_vers,time_test_buffer,time_test_buffer_response,time_test_constants,time_test_flanker,time_test_jitter,time_test_logger,time_test_target,time_test_target_response,time_test_variables,trial
1,prac,1,con,1,z,Mon Jan 05 2026 09:40:38 GMT-0600 (Central Standard Time),121586.5,orange,1000,I,z,,,529,,,3,1,2827.7999999523163,118758.70000004768,8085,orange,NF,C,,,,,,,,,,1
1,prac,1,inc,0,z,Mon Jan 05 2026 09:40:38 GMT-0600 (Central Standard Time),124435.80000007153,lead,1100,I,m,,,436,,,8,1,2844.3000000715256,121591.5,8085,plum,NF,C,,,,,,,,,,2
2,prac,1,inc,1,m,Mon Jan 05 2026 09:40:38 GMT-0600 (Central Standard Time),127567.90000009537,raisin,1100,I,m,,,722,,,12,1,3127.3000000715256,124440.60000002384,8085,cobalt,NF,C,,,,,,,,,,3
3,prac,1,con,1,z,Mon Jan 05 2026 09:40:38 GMT-0600 (Central Standard Time),130183.70000004768,banana,800,I,z,,,515,,,1,1,2611.2999999523163,127572.40000009537,8085,banana,NF,C,,,,,,,,,,4
4,prac,1,inc,1,m,Mon Jan 05 2026 09:40:38 GMT-0600 (Central Standard Time),133149.40000009537,plum,1100,I,m,,,567,,,16,1,2961.2000000476837,130188.20000004768,8085,lead,NF,C,,,,,,,,,,5
5,prac,1,inc,1,m,Mon Jan 05 2026 09:40:38 GMT-0600 (Central Standard Time),136015.40000009537,cherry,900,I,m,,,657,,,10,1,2861.4000000953674,133154.0,8085,copper,NF,C,,,,,,,,,,6
6,prac,1,con,1,z,Mon Jan 05 2026 09:40:38 GMT-0600 (Central Standard Time),138631.10000002384,lime,800,I,z,,,509,,,5,1,2611.1999999284744,136019.90000009537,8085,lime,NF,C,,,,,,,,,,7
7,prac,1,inc,1,z,Mon Jan 05 2026 09:40:38 GMT-0600 (Central Standard Time),141430.30000007153,copper,900,I,z,,,584,,,2,1,2794.5,138635.80000007153,8085,cherry,NF,C,,,,,,,,,,8
8,prac,1,con,1,m,Mon Jan 05 2026 09:40:38 GMT-0600 (Central Standard Time),144396.0,bronze,800,I,m,,,853,,,9,1,2961.5,141434.5,8085,bronze,NF,C,,,,,,,,,,9
9,prac,1,con,1,m,Mon Jan 05 2026 09:40:38 GMT-0600 (Central Standard Time),147211.70000004768,zinc,1000,I,m,,,511,,,15,1,2811.0,144400.70000004768,8085,zinc,NF,C,,,,,,,,,,10
10,prac,1,inc,1,m,Mon Jan 05 2026 09:40:38 GMT-0600 (Central Standard Time),149977.40000009537,pear,900,I,m,,,554,,,14,1,2760.8000000715256,147216.60000002384,8085,iron,NF,C,,,,,,,,,,11
11,prac,1,con,1,m,Mon Jan 05 2026 09:40:38 GMT-0600 (Central Standard Time),152793.40000009537,silver,1000,I,m,,,505,,,11,1,2811.3000000715256,149982.10000002384,8085,silver,NF,C,,,,,,,,,,12
12,prac,1,inc,1,z,Mon Jan 05 2026 09:40:38 GMT-0600 (Central Standard Time),155792.5,cobalt,1100,I,z,,,562,,,4,1,2994.5999999046326,152797.90000009537,8085,raisin,NF,C,,,,,,,,,,13
13,prac,1,con,1,m,Mon Jan 05 2026 09:40:38 GMT-0600 (Central Standard Time),158491.20000004768,gold,800,I,m,,,593,,,13,1,2694.5,155796.70000004768,8085,gold,NF,C,,,,,,,,,,14
14,prac,1,con,1,z,Mon Jan 05 2026 09:40:38 GMT-0600 (Central Standard Time),161273.60000002384,kiwi,1000,I,z,,,472,,,7,1,2774.100000023842,158499.5,8085,kiwi,NF,C,,,,,,,,,,15
15,prac,1,inc,1,z,Mon Jan 05 2026 09:40:38 GMT-0600 (Central Standard Time),164139.5,iron,900,I,z,,,652,,,6,1,2860.5999999046326,161278.90000009537,8085,pear,NF,C,,,,,,,,,,16
1,test,1,con,1,m,Mon Jan 05 2026 09:40:38 GMT-0600 (Central Standard Time),179451.20000004768,iron,800,I,m,m,None,513,313.0,200.0,105,1,1845.7000000476837,177605.5,8085,iron,NF,C,173844,173844,172315,173128,172315,174160,173644,173644,174160,1
2,test,1,con,1,m,Mon Jan 05 2026 09:40:38 GMT-0600 (Central Standard Time),181367.20000004768,gold,900,I,m,m,None,467,268.0,199.0,98,1,1911.6000000238419,179455.60000002384,8085,gold,NF,C,175793,175793,174165,175077,174165,176076,175593,175594,176076,2
3,test,1,inc,1,z,Mon Jan 05 2026 09:40:38 GMT-0600 (Central Standard Time),183383.30000007153,silver,1000,I,z,z,None,476,276.0,200.0,23,1,2011.0,181372.30000007153,8085,orange,NF,C,177809,177809,176081,177093,176082,178092,177609,177609,178092,3
4,test,1,inc,1,z,Mon Jan 05 2026 09:40:38 GMT-0600 (Central Standard Time),185632.5,lead,1100,I,z,z,None,615,415.0,200.0,64,1,2244.0999999046326,183388.40000009537,8085,plum,NF,C,179926,179926,178097,179209,178098,180342,179725,179725,180342,4
5,test,1,inc,1,m,Mon Jan 05 2026 09:40:38 GMT-0600 (Central Standard Time),187499.0,banana,800,I,m,m,None,530,330.0,200.0,85,1,1862.0,185637.0,8085,silver,NF,C,181875,181875,180346,181158,180346,182208,181675,181675,182208,5
6,test,1,inc,1,z,Mon Jan 05 2026 09:40:38 GMT-0600 (Central Standard Time),189665.0,zinc,1000,I,z,z,None,633,433.0,200.0,47,1,2162.0,187503.0,8085,pear,NF,C,183941,183941,182212,183225,182212,184374,183741,183741,184374,6
7,test,1,inc,1,z,Mon Jan 05 2026 09:40:38 GMT-0600 (Central Standard Time),191631.0,gold,800,I,z,z,None,626,426.0,200.0,61,1,1960.5999999046326,189670.40000009537,8085,plum,NF,C,185907,185907,184379,185191,184380,186340,185707,185707,186340,7
8,test,1,inc,1,z,Mon Jan 05 2026 09:40:38 GMT-0600 (Central Standard Time),193780.5,copper,900,I,z,z,None,704,504.0,200.0,22,1,2145.1999999284744,191635.30000007153,8085,orange,NF,C,187973,187973,186344,187257,186344,188490,187773,187773,188490,8
9,test,1,inc,1,m,Mon Jan 05 2026 09:40:38 GMT-0600 (Central Standard Time),195896.20000004768,pear,900,I,m,m,None,676,476.0,200.0,102,1,2111.600000023842,193784.60000002384,8085,gold,NF,C,190122,190122,188494,189406,188494,190605,189922,189922,190605,9
10,test,1,con,1,z,Mon Jan 05 2026 09:40:38 GMT-0600 (Central Standard Time),197912.20000004768,orange,800,I,z,z,None,675,475.0,200.0,17,1,2012.2000000476837,195900.0,8085,orange,NF,C,192138,192138,190609,191422,190609,192621,191938,191938,192621,10
11,test,1,con,1,m,Mon Jan 05 2026 09:40:38 GMT-0600 (Central Standard Time),200195.0,iron,1000,I,m,m,None,739,539.0,200.0,107,1,2278.0999999046326,197916.90000009537,8085,iron,NF,C,194354,194354,192626,193640,192626,194904,194154,194154,194904,11
12,test,1,con,1,z,Mon Jan 05 2026 09:40:38 GMT-0600 (Central Standard Time),202477.90000009537,raisin,900,I,z,z,None,766,561.0,205.0,26,1,2278.7000000476837,200199.20000004768,8085,raisin,NF,C,196620,196620,194908,195821,194908,197187,196415,196415,197187,12
13,test,1,con,1,m,Mon Jan 05 2026 09:40:38 GMT-0600 (Central Standard Time),204693.40000009537,iron,900,I,m,m,None,769,570.0,199.0,106,1,2211.9000000953674,202481.5,8085,iron,NF,C,198820,198820,197191,198103,197191,199402,198620,198620,199402,13
14,test,1,con,1,m,Mon Jan 05 2026 09:40:38 GMT-0600 (Central Standard Time),207376.0,gold,1100,I,m,m,None,1042,842.0,200.0,100,1,2678.7999999523163,204697.20000004768,8085,gold,NF,C,201236,201236,199406,200519,199407,202085,201035,201035,202085,14
15,test,1,inc,1,m,Mon Jan 05 2026 09:40:38 GMT-0600 (Central Standard Time),209541.60000002384,kiwi,1000,I,m,m,None,619,419.0,200.0,111,1,2161.6999999284744,207379.90000009537,8085,iron,NF,C,203818,203818,202089,203102,202089,204251,203618,203618,204251,15
16,test,1,inc,1,z,Mon Jan 05 2026 09:40:38 GMT-0600 (Central Standard Time),211807.70000004768,cobalt,1100,I,z,z,None,617,417.0,200.0,8,1,2262.0,209545.70000004768,8085,banana,NF,C,206084,206084,204255,205368,204255,206517,205884,205884,206517,16
17,test,1,con,1,z,Mon Jan 05 2026 09:40:38 GMT-0600 (Central Standard Time),214040.5,lime,1000,I,z,z,None,692,492.0,200.0,35,1,2228.899999976158,211811.60000002384,8085,lime,NF,C,208250,208250,206521,207533,206521,208750,208050,208050,208750,17
18,test,1,inc,1,m,Mon Jan 05 2026 09:40:38 GMT-0600 (Central Standard Time),216156.70000004768,pear,900,I,m,m,None,670,471.0,199.0,110,1,2112.100000023842,214044.60000002384,8085,iron,NF,C,210383,210383,208754,209666,208754,210866,210183,210183,210866,18
19,test,1,con,1,z,Mon Jan 05 2026 09:40:38 GMT-0600 (Central Standard Time),218105.70000004768,cherry,800,I,z,z,None,614,415.0,199.0,9,1,1944.8999999761581,216160.80000007153,8085,cherry,NF,C,212399,212399,210870,211683,210870,212815,212199,212199,212815,19
20,test,1,inc,1,m,Mon Jan 05 2026 09:40:38 GMT-0600 (Central Standard Time),220038.5,banana,800,I,m,m,None,584,384.0,200.0,77,1,1928.5999999046326,218109.90000009537,8085,copper,NF,C,214348,214348,212819,213632,212819,214748,214148,214148,214748,20
21,test,1,inc,1,z,Mon Jan 05 2026 09:40:38 GMT-0600 (Central Standard Time),222104.70000004768,bronze,800,I,z,z,None,723,524.0,199.0,5,1,2062.100000023842,220042.60000002384,8085,banana,NF,C,216281,216281,214752,215564,214752,216814,216081,216081,216814,21
22,test,1,con,1,m,Mon Jan 05 2026 09:40:38 GMT-0600 (Central Standard Time),224437.10000002384,cobalt,1100,I,m,m,None,686,487.0,199.0,92,1,2327.1999999284744,222109.90000009537,8085,cobalt,NF,C,218647,218647,216819,217930,216819,219146,218447,218447,219146,22
23,test,1,con,1,m,Mon Jan 05 2026 09:40:38 GMT-0600 (Central Standard Time),226520.0,cobalt,1000,I,m,m,None,534,334.0,200.0,91,1,2078.2999999523163,224441.70000004768,8085,cobalt,NF,C,220879,220879,219151,220163,219151,221229,220679,220679,221229,23
24,test,1,con,1,z,Mon Jan 05 2026 09:40:38 GMT-0600 (Central Standard Time),228785.5,kiwi,1100,I,z,z,None,632,432.0,200.0,52,1,2261.399999976158,226524.10000002384,8085,kiwi,NF,C,223062,223062,221233,222345,221233,223495,222862,222862,223494,24
25,test,1,inc,1,m,Mon Jan 05 2026 09:40:38 GMT-0600 (Central Standard Time),231001.70000004768,raisin,1100,I,m,m,None,572,373.0,199.0,72,1,2212.600000023842,228789.10000002384,8085,bronze,NF,C,225328,225328,223498,224612,223498,225711,225128,225128,225711,25
26,test,1,inc,1,z,Mon Jan 05 2026 09:40:38 GMT-0600 (Central Standard Time),233134.40000009537,zinc,1000,I,z,z,None,585,384.0,201.0,63,1,2128.8000000715256,231005.60000002384,8085,plum,NF,C,227445,227445,225715,226728,225715,227844,227244,227244,227843,26
27,test,1,con,1,z,Mon Jan 05 2026 09:40:38 GMT-0600 (Central Standard Time),235549.90000009537,pear,1000,I,z,z,None,875,676.0,199.0,43,1,2411.4000000953674,233138.5,8085,pear,NF,C,229577,229577,227848,228861,227848,230259,229377,229377,230259,27
28,test,1,inc,1,m,Mon Jan 05 2026 09:40:38 GMT-0600 (Central Standard Time),237416.30000007153,lime,800,I,m,m,None,531,332.0,199.0,101,1,1862.3999999761581,235553.90000009537,8085,gold,NF,C,231792,231793,230263,231076,230263,232125,231592,231593,232125,28
29,test,1,inc,1,m,Mon Jan 05 2026 09:40:38 GMT-0600 (Central Standard Time),239616.20000004768,plum,1100,I,m,m,None,566,366.0,200.0,104,1,2196.2000000476837,237420.0,8085,gold,NF,C,233959,233959,232129,233242,232129,234325,233759,233759,234325,29
30,test,1,inc,1,z,Mon Jan 05 2026 09:40:38 GMT-0600 (Central Standard Time),241648.30000007153,gold,800,I,z,z,None,682,483.0,199.0,37,1,2028.0,239620.30000007153,8085,lime,NF,C,235858,235858,234329,235142,234330,236357,235658,235658,236357,30
31,test,1,inc,1,z,Mon Jan 05 2026 09:40:38 GMT-0600 (Central Standard Time),243814.5,iron,900,I,z,z,None,717,518.0,199.0,38,1,2161.2999999523163,241653.20000004768,8085,lime,NF,C,237991,237991,236362,237274,236363,238524,237791,237791,238524,31
32,test,1,con,1,z,Mon Jan 05 2026 09:40:38 GMT-0600 (Central Standard Time),246013.80000007153,lime,1100,I,z,z,None,551,352.0,199.0,36,1,2195.3000000715256,243818.5,8085,lime,NF,C,240357,240357,238528,239640,238528,240723,240157,240157,240723,32
33,test,1,con,1,m,Mon Jan 05 2026 09:40:38 GMT-0600 (Central Standard Time),248462.90000009537,iron,1100,I,m,m,None,809,609.0,200.0,108,1,2445.2000000476837,246017.70000004768,8085,iron,NF,C,242556,242556,240727,241839,240727,243172,242356,242356,243172,33
34,test,1,inc,1,z,Mon Jan 05 2026 09:40:38 GMT-0600 (Central Standard Time),250745.60000002384,lead,1100,I,z,z,None,648,448.0,200.0,40,1,2279.100000023842,248466.5,8085,lime,NF,C,245005,245005,243176,244289,243176,245455,244805,244805,245455,34
35,test,1,inc,1,m,Mon Jan 05 2026 09:40:38 GMT-0600 (Central Standard Time),252828.10000002384,pear,900,I,m,m,None,636,437.0,199.0,126,1,2078.899999976158,250749.20000004768,8085,lead,NF,C,247088,247088,245458,246371,245459,247537,246888,246888,247537,35
36,test,1,con,1,z,Mon Jan 05 2026 09:40:38 GMT-0600 (Central Standard Time),255077.70000004768,plum,1100,I,z,z,None,604,404.0,200.0,60,1,2245.600000023842,252832.10000002384,8085,plum,NF,C,249370,249370,247541,248654,247541,249787,249170,249170,249787,36
37,test,1,inc,1,z,Mon Jan 05 2026 09:40:38 GMT-0600 (Central Standard Time),257410.20000004768,cobalt,1100,I,z,z,None,697,497.0,200.0,16,1,2328.7000000476837,255081.5,8085,cherry,NF,C,251620,251620,249791,250903,249791,252119,251420,251420,252119,37
38,test,1,con,1,m,Mon Jan 05 2026 09:40:38 GMT-0600 (Central Standard Time),259409.5,silver,900,I,m,m,None,557,357.0,200.0,82,1,1995.3999999761581,257414.10000002384,8085,silver,NF,C,253752,253752,252123,253036,252123,254119,253552,253552,254119,38
39,test,1,inc,1,z,Mon Jan 05 2026 09:40:38 GMT-0600 (Central Standard Time),261325.5,gold,800,I,z,z,None,568,369.0,199.0,53,1,1912.0999999046326,259413.40000009537,8085,kiwi,NF,C,255651,255652,254122,254935,254123,256035,255452,255452,256035,39
40,test,1,con,1,m,Mon Jan 05 2026 09:40:38 GMT-0600 (Central Standard Time),263541.60000002384,silver,1000,I,m,m,None,669,470.0,199.0,83,1,2212.0,261329.60000002384,8085,silver,NF,C,257767,257767,256039,257051,256039,258251,257568,257568,258251,40
41,test,1,inc,1,z,Mon Jan 05 2026 09:40:38 GMT-0600 (Central Standard Time),265624.2000000477,silver,1000,I,z,z,None,543,343.0,200.0,15,1,2078.7000000476837,263545.5,8085,cherry,NF,C,259983,259983,258255,259267,258255,260333,259783,259783,260333,41
42,test,1,inc,1,m,Mon Jan 05 2026 09:40:38 GMT-0600 (Central Standard Time),267473.5,lime,800,I,m,m,None,514,315.0,199.0,109,1,1845.3999999761581,265628.10000002384,8085,iron,NF,C,261866,261866,260337,261150,260337,262183,261667,261667,262183,42
43,test,1,inc,1,z,Mon Jan 05 2026 09:40:38 GMT-0600 (Central Standard Time),269440.0,bronze,800,I,z,z,None,616,417.0,199.0,13,1,1961.2999999523163,267478.7000000477,8085,cherry,NF,C,263716,263716,262188,262999,262188,264149,263516,263516,264149,43
44,test,1,con,1,z,Mon Jan 05 2026 09:40:38 GMT-0600 (Central Standard Time),271705.5,banana,1100,I,z,z,None,622,423.0,199.0,4,1,2261.7999999523163,269443.7000000477,8085,banana,NF,C,265982,265982,264153,265265,264153,266415,265782,265782,266415,44
45,test,1,inc,1,z,Mon Jan 05 2026 09:40:38 GMT-0600 (Central Standard Time),273688.2000000477,gold,800,I,z,z,None,641,442.0,199.0,45,1,1978.7000000476837,271709.5,8085,pear,NF,C,267948,267948,266419,267231,266419,268397,267748,267748,268397,45
46,test,1,con,1,m,Mon Jan 05 2026 09:40:38 GMT-0600 (Central Standard Time),275754.5,gold,1000,I,m,m,None,521,322.0,199.0,99,1,2062.7999999523163,273691.7000000477,8085,gold,NF,C,270131,270131,268401,269414,268401,270464,269931,269931,270463,46
46,test,1,inc,0,m,Mon Jan 05 2026 09:40:38 GMT-0600 (Central Standard Time),277570.40000009537,banana,800,I,z,z,None,480,281.0,199.0,93,1,1812.0,275758.40000009537,8085,cobalt,NF,C,271996,271996,270467,271280,270468,272279,271797,271797,272279,47
47,test,1,inc,1,m,Mon Jan 05 2026 09:40:38 GMT-0600 (Central Standard Time),279570.0,lime,800,I,m,m,None,655,456.0,199.0,125,1,1995.6999999284744,277574.3000000715,8085,lead,NF,C,273813,273813,272283,273097,272284,274279,273613,273613,274279,48
48,test,1,con,1,z,Mon Jan 05 2026 09:40:38 GMT-0600 (Central Standard Time),281552.40000009537,banana,900,I,z,z,None,548,349.0,199.0,2,1,1978.8000000715256,279573.60000002384,8085,banana,NF,C,275912,275912,274283,275195,274283,276261,275712,275712,276261,49
49,test,1,con,1,z,Mon Jan 05 2026 09:40:38 GMT-0600 (Central Standard Time),283818.60000002384,pear,1100,I,z,z,None,631,432.0,199.0,44,1,2262.600000023842,281556.0,8085,pear,NF,C,278094,278094,276265,277378,276265,278528,277895,277895,278528,50
50,test,1,inc,1,z,Mon Jan 05 2026 09:40:38 GMT-0600 (Central Standard Time),286034.10000002384,lead,1100,I,z,z,None,571,372.0,199.0,48,1,2211.600000023842,283822.5,8085,pear,NF,C,280361,280361,278532,279644,278532,280743,280161,280161,280743,51
51,test,1,con,1,m,Mon Jan 05 2026 09:40:38 GMT-0600 (Central Standard Time),288167.0,lead,1000,I,m,m,None,594,394.0,200.0,123,1,2128.899999976158,286038.10000002384,8085,lead,NF,C,282476,282476,280747,281760,280747,282876,282276,282276,282876,52
52,test,1,inc,1,m,Mon Jan 05 2026 09:40:38 GMT-0600 (Central Standard Time),290249.60000002384,orange,1000,I,m,m,None,540,340.0,200.0,71,1,2078.600000023842,288171.0,8085,bronze,NF,C,284609,284609,282880,283893,282880,284959,284409,284409,284959,53
53,test,1,inc,1,z,Mon Jan 05 2026 09:40:38 GMT-0600 (Central Standard Time),292365.8000000715,silver,1000,I,z,z,None,569,369.0,200.0,31,1,2112.2000000476837,290253.60000002384,8085,raisin,NF,C,286692,286692,284963,285975,284963,287075,286492,286492,287075,54
54,test,1,con,1,z,Mon Jan 05 2026 09:40:38 GMT-0600 (Central Standard Time),294381.60000002384,lime,800,I,z,z,None,677,478.0,199.0,33,1,2012.1999999284744,292369.40000009537,8085,lime,NF,C,288608,288608,287078,287891,287079,289091,288408,288408,289091,55
55,test,1,con,1,z,Mon Jan 05 2026 09:40:38 GMT-0600 (Central Standard Time),296931.2000000477,raisin,1100,I,z,z,None,914,714.0,200.0,28,1,2545.7999999523163,294385.40000009537,8085,raisin,NF,C,290924,290924,289094,290207,289095,291640,290724,290724,291640,56
56,test,1,con,1,z,Mon Jan 05 2026 09:40:38 GMT-0600 (Central Standard Time),298997.0,plum,1000,I,z,z,None,520,320.0,200.0,59,1,2061.5999999046326,296935.40000009537,8085,plum,NF,C,293373,293373,291644,292657,291645,293706,293173,293173,293706,57
57,test,1,con,1,z,Mon Jan 05 2026 09:40:38 GMT-0600 (Central Standard Time),300962.90000009537,cherry,900,I,z,z,None,521,321.0,200.0,10,1,1962.2000000476837,299000.7000000477,8085,cherry,NF,C,295340,295340,293710,294623,293710,295672,295139,295139,295672,58
58,test,1,inc,1,m,Mon Jan 05 2026 09:40:38 GMT-0600 (Central Standard Time),302945.8000000715,kiwi,1000,I,m,m,None,448,248.0,200.0,103,1,1979.3000000715256,300966.5,8085,gold,NF,C,297405,297405,295676,296689,295676,297655,297205,297205,297655,59
59,test,1,inc,1,m,Mon Jan 05 2026 09:40:38 GMT-0600 (Central Standard Time),304995.0,cherry,900,I,m,m,None,613,413.0,200.0,78,1,2045.0,302950.0,8085,copper,NF,C,299288,299288,297659,298571,297659,299704,299088,299088,299704,60
60,test,1,con,1,z,Mon Jan 05 2026 09:40:38 GMT-0600 (Central Standard Time),307227.8000000715,cherry,1100,I,z,z,None,597,397.0,200.0,12,1,2228.8000000715256,304999.0,8085,cherry,NF,C,301537,301537,299708,300821,299708,301937,301337,301337,301937,61
61,test,1,inc,1,m,Mon Jan 05 2026 09:40:38 GMT-0600 (Central Standard Time),309178.40000009537,lime,800,I,m,m,None,615,415.0,200.0,117,1,1946.4000000953674,307232.0,8085,zinc,NF,C,303470,303470,301941,302754,301941,303887,303270,303270,303887,62
62,test,1,con,1,m,Mon Jan 05 2026 09:40:38 GMT-0600 (Central Standard Time),311026.5,gold,800,I,m,m,None,506,306.0,200.0,97,1,1843.8999999761581,309182.60000002384,8085,gold,NF,C,305419,305419,303892,304703,303892,305736,305219,305219,305736,63
63,test,1,con,1,z,Mon Jan 05 2026 09:40:38 GMT-0600 (Central Standard Time),313042.7000000477,banana,1000,I,z,z,None,473,273.0,200.0,3,1,2012.1000000238419,311030.60000002384,8085,banana,NF,C,307468,307468,305740,306752,305740,307752,307268,307268,307752,64
64,test,1,inc,1,z,Mon Jan 05 2026 09:40:38 GMT-0600 (Central Standard Time),315341.90000009537,lead,1100,I,z,z,None,651,452.0,199.0,56,1,2295.600000023842,313046.3000000715,8085,kiwi,NF,C,309585,309585,307755,308868,307756,310051,309385,309385,310051,65
65,test,1,inc,1,z,Mon Jan 05 2026 09:40:38 GMT-0600 (Central Standard Time),317324.60000002384,iron,900,I,z,z,None,546,346.0,200.0,62,1,1978.8999999761581,315345.7000000477,8085,plum,NF,C,311684,311684,310055,310968,310055,312034,311484,311484,312034,66
66,test,1,con,1,m,Mon Jan 05 2026 09:40:38 GMT-0600 (Central Standard Time),319355.40000009537,copper,900,I,m,m,None,596,397.0,199.0,74,1,2026.9000000953674,317328.5,8085,copper,NF,C,313667,313667,312038,312950,312038,314064,313467,313467,314064,67
67,test,1,con,1,m,Mon Jan 05 2026 09:40:38 GMT-0600 (Central Standard Time),321623.5,lead,1100,I,m,m,None,618,418.0,200.0,124,1,2263.6999999284744,319359.8000000715,8085,lead,NF,C,315899,315899,314069,315183,314069,316333,315699,315699,316333,68
68,test,1,con,1,m,Mon Jan 05 2026 09:40:38 GMT-0600 (Central Standard Time),323472.7000000477,lead,900,I,m,m,None,408,208.0,200.0,122,1,1845.2999999523163,321627.40000009537,8085,lead,NF,C,317965,317965,316336,317249,316337,318182,317765,317765,318182,69
69,test,1,inc,1,z,Mon Jan 05 2026 09:40:38 GMT-0600 (Central Standard Time),325622.10000002384,iron,900,I,z,z,None,702,502.0,200.0,54,1,2145.7999999523163,323476.3000000715,8085,kiwi,NF,C,319815,319815,318185,319098,318186,320331,319614,319615,320331,70
70,test,1,inc,1,m,Mon Jan 05 2026 09:40:38 GMT-0600 (Central Standard Time),327854.60000002384,plum,1100,I,m,m,None,593,393.0,200.0,112,1,2229.0,325625.60000002384,8085,iron,NF,C,322164,322164,320335,321447,320335,322564,321964,321964,322564,71
71,test,1,inc,1,m,Mon Jan 05 2026 09:40:38 GMT-0600 (Central Standard Time),329970.3000000715,raisin,1100,I,m,m,None,480,280.0,200.0,88,1,2111.899999976158,327858.40000009537,8085,silver,NF,C,324397,324397,322567,323680,322568,324679,324197,324197,324679,72
72,test,1,inc,1,z,Mon Jan 05 2026 09:40:38 GMT-0600 (Central Standard Time),331853.5,bronze,800,I,z,z,None,536,337.0,199.0,29,1,1879.3999999761581,329974.10000002384,8085,raisin,NF,C,326213,326213,324683,325496,324683,326563,326013,326013,326563,73
73,test,1,con,1,z,Mon Jan 05 2026 09:40:38 GMT-0600 (Central Standard Time),334152.5,kiwi,1000,I,z,z,None,750,549.0,201.0,51,1,2295.399999976158,331857.10000002384,8085,kiwi,NF,C,328296,328296,326566,327579,326567,328862,328095,328095,328862,74
74,test,1,con,1,m,Mon Jan 05 2026 09:40:38 GMT-0600 (Central Standard Time),336018.7000000477,lead,800,I,m,m,None,521,322.0,199.0,121,1,1862.2000000476837,334156.5,8085,lead,NF,C,330395,330395,328866,329678,328866,330728,330195,330195,330728,75
75,test,1,con,1,m,Mon Jan 05 2026 09:40:38 GMT-0600 (Central Standard Time),338184.8000000715,copper,1000,I,m,m,None,616,416.0,200.0,75,1,2162.3000000715256,336022.5,8085,copper,NF,C,332461,332461,330732,331744,330732,332894,332261,332261,332894,76
76,test,1,inc,1,z,Mon Jan 05 2026 09:40:38 GMT-0600 (Central Standard Time),340483.8000000715,cobalt,1100,I,z,z,None,661,462.0,199.0,24,1,2294.899999976158,338188.90000009537,8085,orange,NF,C,334727,334727,332898,334010,332898,335193,334527,334527,335193,77
77,test,1,con,1,m,Mon Jan 05 2026 09:40:38 GMT-0600 (Central Standard Time),342783.5,zinc,1100,I,m,m,None,651,451.0,200.0,116,1,2296.0999999046326,340487.40000009537,8085,zinc,NF,C,337026,337026,335196,336310,335197,337493,336826,336826,337492,78
78,test,1,con,1,z,Mon Jan 05 2026 09:40:38 GMT-0600 (Central Standard Time),344799.2000000477,kiwi,800,I,z,z,None,668,468.0,200.0,49,1,2012.1000000238419,342787.10000002384,8085,kiwi,NF,C,339025,339025,337496,338309,337496,339508,338825,338825,339508,79
79,test,1,inc,1,m,Mon Jan 05 2026 09:40:38 GMT-0600 (Central Standard Time),346848.5,pear,900,I,m,m,None,607,408.0,199.0,118,1,2045.5,344803.0,8085,zinc,NF,C,341141,341141,339512,340425,339512,341558,340941,340942,341558,80
80,test,1,con,1,z,Mon Jan 05 2026 09:40:38 GMT-0600 (Central Standard Time),348964.60000002384,plum,900,I,z,z,None,669,470.0,199.0,58,1,2112.100000023842,346852.5,8085,plum,NF,C,343191,343191,341562,342474,341562,343674,342991,342991,343674,81
81,test,1,con,1,z,Mon Jan 05 2026 09:40:38 GMT-0600 (Central Standard Time),351047.3000000715,pear,900,I,z,z,None,641,442.0,199.0,42,1,2079.0,348968.3000000715,8085,pear,NF,C,345307,345307,343677,344590,343678,345756,345107,345107,345756,82
82,test,1,con,1,m,Mon Jan 05 2026 09:40:38 GMT-0600 (Central Standard Time),352963.40000009537,bronze,1000,I,m,m,None,380,180.0,200.0,67,1,1912.5,351050.90000009537,8085,bronze,NF,C,347489,347489,345760,346773,345760,347672,347289,347289,347672,83
83,test,1,con,1,z,Mon Jan 05 2026 09:40:38 GMT-0600 (Central Standard Time),355129.10000002384,raisin,1000,I,z,z,None,623,422.0,201.0,27,1,2161.6999999284744,352967.40000009537,8085,raisin,NF,C,349407,349407,347676,348689,347677,349838,349205,349205,349838,84
84,test,1,inc,1,z,Mon Jan 05 2026 09:40:38 GMT-0600 (Central Standard Time),357261.90000009537,copper,900,I,z,z,None,685,486.0,199.0,14,1,2128.8000000715256,355133.10000002384,8085,cherry,NF,C,351471,351471,349842,350755,349842,351971,351272,351272,351971,85
85,test,1,inc,1,z,Mon Jan 05 2026 09:40:38 GMT-0600 (Central Standard Time),359394.60000002384,zinc,1000,I,z,z,None,597,397.0,200.0,39,1,2129.100000023842,357265.5,8085,lime,NF,C,353704,353704,351975,352987,351975,354104,353504,353504,354104,86
86,test,1,con,1,m,Mon Jan 05 2026 09:40:38 GMT-0600 (Central Standard Time),361260.60000002384,bronze,900,I,m,m,None,428,229.0,199.0,66,1,1861.8999999761581,359398.7000000477,8085,bronze,NF,C,355737,355737,354108,355020,354108,355970,355537,355537,355970,87
87,test,1,con,1,z,Mon Jan 05 2026 09:40:38 GMT-0600 (Central Standard Time),363243.5,orange,1000,I,z,z,None,445,245.0,200.0,19,1,1979.0,361264.5,8085,orange,NF,C,357703,357704,355974,356986,355974,357953,357503,357503,357953,88
88,test,1,con,1,m,Mon Jan 05 2026 09:40:38 GMT-0600 (Central Standard Time),365109.60000002384,bronze,800,I,m,m,None,527,328.0,199.0,65,1,1861.6999999284744,363247.90000009537,8085,bronze,NF,C,359486,359486,357957,358769,357957,359819,359286,359286,359819,89
89,test,1,con,1,m,Mon Jan 05 2026 09:40:38 GMT-0600 (Central Standard Time),367225.3000000715,copper,800,I,m,m,None,693,490.0,203.0,73,1,2112.2000000476837,365113.10000002384,8085,copper,NF,C,361435,361435,359822,360635,359822,361934,361232,361232,361934,90
90,test,1,inc,1,m,Mon Jan 05 2026 09:40:38 GMT-0600 (Central Standard Time),369425.10000002384,plum,1100,I,m,m,None,557,356.0,201.0,128,1,2196.100000023842,367229.0,8085,lead,NF,C,363769,363769,361938,363051,361938,364134,363567,363567,364134,91
91,test,1,inc,1,z,Mon Jan 05 2026 09:40:38 GMT-0600 (Central Standard Time),371441.60000002384,iron,900,I,z,z,None,582,382.0,200.0,46,1,2012.5,369429.10000002384,8085,pear,NF,C,365767,365767,364138,365050,364138,366151,365567,365567,366151,92
92,test,1,con,1,m,Mon Jan 05 2026 09:40:38 GMT-0600 (Central Standard Time),373440.5,cobalt,800,I,m,m,None,650,450.0,200.0,89,1,1995.0999999046326,371445.40000009537,8085,cobalt,NF,C,367683,367683,366154,366966,366155,368150,367483,367483,368150,93
93,test,1,con,1,z,Mon Jan 05 2026 09:40:38 GMT-0600 (Central Standard Time),375256.3000000715,raisin,800,I,z,z,None,482,267.0,215.0,25,1,1812.3000000715256,373444.0,8085,raisin,NF,C,369682,369682,368153,368966,368153,369965,369467,369467,369965,94
94,test,1,con,1,z,Mon Jan 05 2026 09:40:38 GMT-0600 (Central Standard Time),377105.7000000477,kiwi,900,I,z,z,None,408,208.0,200.0,50,1,1844.2999999523163,375261.40000009537,8085,kiwi,NF,C,371598,371598,369970,370882,369971,371815,371398,371398,371815,95
95,test,1,inc,1,m,Mon Jan 05 2026 09:40:38 GMT-0600 (Central Standard Time),379188.3000000715,orange,1000,I,m,m,None,561,362.0,199.0,87,1,2079.0,377109.3000000715,8085,silver,NF,C,373531,373531,371818,372831,371819,373897,373332,373332,373897,96
96,test,1,con,1,m,Mon Jan 05 2026 09:40:38 GMT-0600 (Central Standard Time),381370.90000009537,copper,1100,I,m,m,None,539,339.0,200.0,76,1,2178.7000000476837,379192.2000000477,8085,copper,NF,C,375730,375730,373901,375014,373901,376080,375530,375530,376080,97
97,test,1,con,1,z,Mon Jan 05 2026 09:40:38 GMT-0600 (Central Standard Time),383570.0,cherry,1000,I,z,z,None,665,465.0,200.0,11,1,2195.2999999523163,381374.7000000477,8085,cherry,NF,C,377813,377813,376084,377096,376084,378279,377613,377613,378279,98
98,test,1,inc,1,m,Mon Jan 05 2026 09:40:38 GMT-0600 (Central Standard Time),385719.7000000477,orange,1000,I,m,m,None,599,400.0,199.0,95,1,2146.100000023842,383573.60000002384,8085,cobalt,NF,C,380013,380013,378283,379297,378283,380429,379813,379813,380429,99
98,test,1,con,0,z,Mon Jan 05 2026 09:40:38 GMT-0600 (Central Standard Time),387535.8000000715,pear,800,I,m,m,None,466,267.0,199.0,41,1,1812.3999999761581,385723.40000009537,8085,pear,NF,C,381962,381962,380432,381245,380433,382245,381762,381762,382245,100
99,test,1,inc,1,z,Mon Jan 05 2026 09:40:38 GMT-0600 (Central Standard Time),389518.60000002384,silver,1000,I,z,z,None,443,243.0,200.0,7,1,1978.8999999761581,387539.7000000477,8085,banana,NF,C,383978,383978,382249,383261,382249,384228,383778,383778,384228,101
100,test,1,inc,1,m,Mon Jan 05 2026 09:40:38 GMT-0600 (Central Standard Time),391467.90000009537,cherry,900,I,m,m,None,512,313.0,199.0,70,1,1945.7000000476837,389522.2000000477,8085,bronze,NF,C,385861,385861,384231,385144,384232,386177,385661,385661,386177,102
101,test,1,inc,1,m,Mon Jan 05 2026 09:40:38 GMT-0600 (Central Standard Time),393517.3000000715,cherry,900,I,m,m,None,611,411.0,200.0,94,1,2045.5,391471.8000000715,8085,cobalt,NF,C,387810,387810,386181,387094,386181,388226,387610,387610,388226,103
101,test,1,con,0,m,Mon Jan 05 2026 09:40:38 GMT-0600 (Central Standard Time),395316.7000000477,silver,800,I,z,z,None,463,263.0,200.0,81,1,1795.7000000476837,393521.0,8085,silver,NF,C,389759,389759,388230,389043,388230,390026,389559,389559,390026,104
102,test,1,inc,1,m,Mon Jan 05 2026 09:40:38 GMT-0600 (Central Standard Time),397466.2000000477,raisin,1100,I,m,m,None,506,306.0,200.0,80,1,2145.7000000476837,395320.5,8085,copper,NF,C,391859,391859,390030,391142,390030,392175,391659,391659,392175,105
103,test,1,con,1,z,Mon Jan 05 2026 09:40:38 GMT-0600 (Central Standard Time),399448.40000009537,orange,900,I,z,z,None,549,349.0,200.0,18,1,1978.6000000238419,397469.8000000715,8085,orange,NF,C,393808,393808,392179,393091,392179,394157,393608,393608,394157,106
104,test,1,con,1,m,Mon Jan 05 2026 09:40:38 GMT-0600 (Central Standard Time),401547.8000000715,cobalt,900,I,m,m,None,654,455.0,199.0,90,1,2095.399999976158,399452.40000009537,8085,cobalt,NF,C,395790,395790,394161,395074,394162,396257,395590,395591,396257,107
105,test,1,inc,1,z,Mon Jan 05 2026 09:40:38 GMT-0600 (Central Standard Time),403764.10000002384,zinc,1000,I,z,z,None,671,471.0,200.0,55,1,2211.899999976158,401552.2000000477,8085,kiwi,NF,C,397990,397990,396261,397273,396261,398473,397790,397790,398473,108
106,test,1,inc,1,m,Mon Jan 05 2026 09:40:38 GMT-0600 (Central Standard Time),405830.0,kiwi,1000,I,m,m,None,527,327.0,200.0,119,1,2062.0,403768.0,8085,zinc,NF,C,400206,400206,398477,399490,398477,400539,400006,400006,400539,109
107,test,1,inc,1,m,Mon Jan 05 2026 09:40:38 GMT-0600 (Central Standard Time),407796.2000000477,cherry,900,I,m,m,None,529,329.0,200.0,86,1,1961.8999999761581,405834.3000000715,8085,silver,NF,C,402172,402172,400543,401455,400544,402505,401972,401972,402505,110
108,test,1,con,1,z,Mon Jan 05 2026 09:40:38 GMT-0600 (Central Standard Time),409895.7000000477,orange,1100,I,z,z,None,459,259.0,200.0,20,1,2095.2000000476837,407800.5,8085,orange,NF,C,404338,404338,402510,403622,402510,404605,404138,404138,404605,111
109,test,1,con,1,m,Mon Jan 05 2026 09:40:38 GMT-0600 (Central Standard Time),411711.2000000477,zinc,800,I,m,m,None,476,277.0,199.0,113,1,1811.5,409899.7000000477,8085,zinc,NF,C,406137,406137,404609,405421,404609,406420,405938,405938,406420,112
110,test,1,inc,1,z,Mon Jan 05 2026 09:40:38 GMT-0600 (Central Standard Time),413821.8000000715,bronze,800,I,z,z,None,629,429.0,200.0,21,1,2106.8000000715256,411715.0,8085,orange,NF,C,407955,407955,406424,407237,406424,408531,407754,407754,408531,113
111,test,1,con,1,m,Mon Jan 05 2026 09:40:38 GMT-0600 (Central Standard Time),415943.7000000477,silver,1100,I,m,m,None,493,293.0,200.0,84,1,2118.399999976158,413825.3000000715,8085,silver,NF,C,410353,410353,408534,409636,408535,410653,410152,410153,410653,114
112,test,1,inc,1,z,Mon Jan 05 2026 09:40:38 GMT-0600 (Central Standard Time),417926.3000000715,copper,900,I,z,z,None,543,344.0,199.0,6,1,1979.0,415947.3000000715,8085,banana,NF,C,412285,412285,410656,411569,410657,412635,412086,412086,412635,115
112,test,1,inc,0,z,Mon Jan 05 2026 09:40:38 GMT-0600 (Central Standard Time),419808.8000000715,copper,900,I,m,m,None,448,248.0,200.0,30,1,1878.6000000238419,417930.2000000477,8085,raisin,NF,C,414269,414269,412639,413551,412639,414518,414068,414068,414518,116
112,test,1,con,0,m,Mon Jan 05 2026 09:40:38 GMT-0600 (Central Standard Time),421874.7000000477,zinc,900,I,z,z,None,630,430.0,200.0,114,1,2062.399999976158,419812.3000000715,8085,zinc,NF,C,416151,416151,414521,415434,414522,416584,415951,415951,416584,117
113,test,1,con,1,m,Mon Jan 05 2026 09:40:38 GMT-0600 (Central Standard Time),424024.3000000715,zinc,1000,I,m,m,None,600,400.0,200.0,115,1,2145.899999976158,421878.40000009537,8085,zinc,NF,C,418317,418317,416587,417601,416588,418733,418117,418117,418733,118
114,test,1,inc,1,m,Mon Jan 05 2026 09:40:38 GMT-0600 (Central Standard Time),426290.2000000477,raisin,1100,I,m,m,None,631,431.0,200.0,96,1,2261.399999976158,424028.8000000715,8085,cobalt,NF,C,420566,420566,418738,419850,418738,420999,420366,420366,420999,119
115,test,1,inc,1,z,Mon Jan 05 2026 09:40:38 GMT-0600 (Central Standard Time),428539.60000002384,cobalt,1100,I,z,z,None,613,413.0,200.0,32,1,2245.600000023842,426294.0,8085,raisin,NF,C,422832,422832,421003,422116,421003,423249,422632,422632,423249,120
116,test,1,inc,1,m,Mon Jan 05 2026 09:40:38 GMT-0600 (Central Standard Time),430455.5,banana,800,I,m,m,None,575,375.0,200.0,69,1,1912.3999999761581,428543.10000002384,8085,bronze,NF,C,424782,424782,423252,424065,423252,425165,424581,424581,425165,121
117,test,1,con,1,z,Mon Jan 05 2026 09:40:38 GMT-0600 (Central Standard Time),432538.3000000715,lime,900,I,z,z,None,647,447.0,200.0,34,1,2079.0,430459.3000000715,8085,lime,NF,C,426798,426798,425168,426082,425168,427247,426597,426598,427247,122
118,test,1,inc,1,m,Mon Jan 05 2026 09:40:38 GMT-0600 (Central Standard Time),434820.90000009537,plum,1100,I,m,m,None,660,445.0,215.0,120,1,2278.600000023842,432542.3000000715,8085,zinc,NF,C,429080,429080,427251,428364,427252,429530,428865,428865,429530,123
119,test,1,inc,1,m,Mon Jan 05 2026 09:40:38 GMT-0600 (Central Standard Time),436953.10000002384,kiwi,1000,I,m,m,None,590,390.0,200.0,127,1,2128.600000023842,434824.5,8085,lead,NF,C,431263,431263,429534,430546,429534,431662,431063,431063,431662,124
120,test,1,con,1,m,Mon Jan 05 2026 09:40:38 GMT-0600 (Central Standard Time),439119.10000002384,bronze,1100,I,m,m,None,517,317.0,200.0,68,1,2162.399999976158,436956.7000000477,8085,bronze,NF,C,433495,433495,431666,432779,431666,433828,433295,433295,433828,125
121,test,1,con,1,z,Mon Jan 05 2026 09:40:38 GMT-0600 (Central Standard Time),441052.0,plum,800,I,z,z,None,587,388.0,199.0,57,1,1929.5,439122.5,8085,plum,NF,C,435361,435361,433832,434645,433832,435761,435162,435162,435761,126
122,test,1,inc,1,m,Mon Jan 05 2026 09:40:38 GMT-0600 (Central Standard Time),443184.60000002384,orange,1000,I,m,m,None,598,399.0,199.0,79,1,2129.100000023842,441055.5,8085,copper,NF,C,437494,437494,435765,436778,435765,437894,437295,437295,437894,127
123,test,1,con,1,z,Mon Jan 05 2026 09:40:38 GMT-0600 (Central Standard Time),445134.40000009537,banana,800,I,z,z,None,610,410.0,200.0,1,1,1946.1000000238419,443188.3000000715,8085,banana,NF,C,439427,439427,437897,438711,437898,439843,439227,439227,439843,128
