acc_sum,block,block_c,change,condition,correct,correct_response,datetime,endtime,face,project,response,response_time,row_sel,session_number,start_end,starttime,subject_id,task,task_vers,trial
0,prac,1,,1-Back,,,Mon Jul 14 2025 13:21:31 GMT-0500 (Central Daylight Time),,050_m_f_n_a.png,I,space,7191,1,2,,,8039,NNB,A,0
1,prac,1,0.0,1-Back,1,m,Mon Jul 14 2025 13:21:31 GMT-0500 (Central Daylight Time),96255.59999999404,063_y_f_n_a.png,I,m,784,2,2,1590.5,94665.09999999404,8039,NNB,A,1
2,prac,1,1.0,1-Back,1,z,Mon Jul 14 2025 13:21:31 GMT-0500 (Central Daylight Time),97605.40000000596,063_y_f_n_a.png,I,z,562,3,2,1342.7000000178814,96262.69999998808,8039,NNB,A,2
3,prac,1,0.0,1-Back,1,m,Mon Jul 14 2025 13:21:31 GMT-0500 (Central Daylight Time),98838.09999999404,053_o_m_n_a.png,I,m,421,4,2,1225.0,97613.09999999404,8039,NNB,A,3
4,prac,1,0.0,1-Back,1,m,Mon Jul 14 2025 13:21:31 GMT-0500 (Central Daylight Time),100104.40000000596,058_m_m_n_a.png,I,m,460,5,2,1259.4000000059605,98845.0,8039,NNB,A,4
5,prac,1,1.0,1-Back,1,z,Mon Jul 14 2025 13:21:31 GMT-0500 (Central Daylight Time),101254.40000000596,058_m_m_n_a.png,I,z,369,6,2,1143.4000000059605,100111.0,8039,NNB,A,5
6,prac,1,0.0,1-Back,1,m,Mon Jul 14 2025 13:21:31 GMT-0500 (Central Daylight Time),102453.90000000596,047_o_f_n_a.png,I,m,411,7,2,1192.6000000238419,101261.29999998212,8039,NNB,A,6
7,prac,1,0.0,1-Back,1,m,Mon Jul 14 2025 13:21:31 GMT-0500 (Central Daylight Time),103653.29999998212,045_m_m_n_a.png,I,m,412,8,2,1192.3999999761581,102460.90000000596,8039,NNB,A,7
8,prac,1,0.0,1-Back,1,m,Mon Jul 14 2025 13:21:31 GMT-0500 (Central Daylight Time),104919.5,050_m_f_n_a.png,I,m,476,9,2,1259.300000011921,103660.19999998808,8039,NNB,A,8
9,prac,1,1.0,1-Back,1,z,Mon Jul 14 2025 13:21:31 GMT-0500 (Central Daylight Time),106069.19999998808,050_m_f_n_a.png,I,z,363,10,2,1142.5,104926.69999998808,8039,NNB,A,9
10,prac,1,0.0,1-Back,1,m,Mon Jul 14 2025 13:21:31 GMT-0500 (Central Daylight Time),107285.29999998212,053_o_m_n_a.png,I,m,438,11,2,1209.3999999761581,106075.90000000596,8039,NNB,A,10
11,prac,1,0.0,1-Back,1,m,Mon Jul 14 2025 13:21:31 GMT-0500 (Central Daylight Time),108518.29999998212,010_y_f_n_a.png,I,m,401,12,2,1226.199999988079,107292.09999999404,8039,NNB,A,11
0,test,1,0.0,1-Back,,,Mon Jul 14 2025 13:21:31 GMT-0500 (Central Daylight Time),108518.29999998212,063_y_f_n_a.png,I,space,7287,1,2,1226.199999988079,107292.09999999404,8039,NNB,A,0
1,test,1,0.0,1-Back,1,m,Mon Jul 14 2025 13:21:31 GMT-0500 (Central Daylight Time),126129.90000000596,043_m_f_n_a.png,I,m,508,2,2,1527.2000000178814,124602.69999998808,8039,NNB,A,1
2,test,1,0.0,1-Back,1,m,Mon Jul 14 2025 13:21:31 GMT-0500 (Central Daylight Time),127612.59999999404,010_y_f_n_a.png,I,m,455,3,2,1476.9000000059605,126135.69999998808,8039,NNB,A,2
3,test,1,1.0,1-Back,1,z,Mon Jul 14 2025 13:21:31 GMT-0500 (Central Daylight Time),128995.40000000596,010_y_f_n_a.png,I,z,357,4,2,1376.800000011921,127618.59999999404,8039,NNB,A,3
4,test,1,0.0,1-Back,1,m,Mon Jul 14 2025 13:21:31 GMT-0500 (Central Daylight Time),130411.40000000596,043_m_f_n_a.png,I,m,389,5,2,1410.2000000178814,129001.19999998808,8039,NNB,A,4
5,test,1,0.0,1-Back,1,m,Mon Jul 14 2025 13:21:31 GMT-0500 (Central Daylight Time),131810.69999998808,053_o_m_n_a.png,I,m,372,6,2,1393.199999988079,130417.5,8039,NNB,A,5
6,test,1,1.0,1-Back,1,z,Mon Jul 14 2025 13:21:31 GMT-0500 (Central Daylight Time),133227.29999998212,053_o_m_n_a.png,I,z,397,7,2,1409.699999988079,131817.59999999404,8039,NNB,A,6
7,test,1,0.0,1-Back,1,m,Mon Jul 14 2025 13:21:31 GMT-0500 (Central Daylight Time),134611.19999998808,058_m_m_n_a.png,I,m,365,8,2,1378.0999999940395,133233.09999999404,8039,NNB,A,7
7,test,1,0.0,1-Back,0,m,Mon Jul 14 2025 13:21:31 GMT-0500 (Central Daylight Time),136109.90000000596,047_o_f_n_a.png,I,z,479,9,2,1492.800000011921,134617.09999999404,8039,NNB,A,8
8,test,1,0.0,1-Back,1,m,Mon Jul 14 2025 13:21:31 GMT-0500 (Central Daylight Time),137725.79999998212,058_m_m_n_a.png,I,m,587,10,2,1610.0999999940395,136115.69999998808,8039,NNB,A,9
9,test,1,0.0,1-Back,1,m,Mon Jul 14 2025 13:21:31 GMT-0500 (Central Daylight Time),139292.0,041_y_m_n_a.png,I,m,538,11,2,1560.4000000059605,137731.59999999404,8039,NNB,A,10
10,test,1,1.0,1-Back,1,z,Mon Jul 14 2025 13:21:31 GMT-0500 (Central Daylight Time),140674.69999998808,041_y_m_n_a.png,I,z,364,12,2,1376.7999999821186,139297.90000000596,8039,NNB,A,11
11,test,1,0.0,1-Back,1,m,Mon Jul 14 2025 13:21:31 GMT-0500 (Central Daylight Time),142091.09999999404,044_o_f_n_a.png,I,m,390,13,2,1410.300000011921,140680.79999998212,8039,NNB,A,12
12,test,1,1.0,1-Back,1,z,Mon Jul 14 2025 13:21:31 GMT-0500 (Central Daylight Time),143574.0,044_o_f_n_a.png,I,z,454,14,2,1477.0999999940395,142096.90000000596,8039,NNB,A,13
13,test,1,0.0,1-Back,1,m,Mon Jul 14 2025 13:21:31 GMT-0500 (Central Daylight Time),144957.0,008_y_m_n_a.png,I,m,363,15,2,1377.2000000178814,143579.79999998212,8039,NNB,A,14
14,test,1,0.0,1-Back,1,m,Mon Jul 14 2025 13:21:31 GMT-0500 (Central Daylight Time),146356.5,050_m_f_n_a.png,I,m,380,16,2,1393.800000011921,144962.69999998808,8039,NNB,A,15
15,test,1,0.0,1-Back,1,m,Mon Jul 14 2025 13:21:31 GMT-0500 (Central Daylight Time),147872.59999999404,046_o_m_n_a.png,I,m,493,17,2,1509.699999988079,146362.90000000596,8039,NNB,A,16
16,test,1,0.0,1-Back,1,m,Mon Jul 14 2025 13:21:31 GMT-0500 (Central Daylight Time),149355.69999998808,050_m_f_n_a.png,I,m,456,18,2,1477.0,147878.69999998808,8039,NNB,A,17
0,test,2,0.0,1-Back,,,Mon Jul 14 2025 13:21:31 GMT-0500 (Central Daylight Time),149355.69999998808,058_m_m_n_a.png,I,space,3158,1,2,1477.0,147878.69999998808,8039,NNB,A,0
1,test,2,0.0,1-Back,1,m,Mon Jul 14 2025 13:21:31 GMT-0500 (Central Daylight Time),156370.0,043_m_f_n_a.png,I,m,816,2,2,1825.9000000059605,154544.09999999404,8039,NNB,A,1
2,test,2,1.0,1-Back,1,z,Mon Jul 14 2025 13:21:31 GMT-0500 (Central Daylight Time),157869.40000000596,043_m_f_n_a.png,I,z,478,3,2,1493.300000011921,156376.09999999404,8039,NNB,A,2
3,test,2,0.0,1-Back,1,m,Mon Jul 14 2025 13:21:31 GMT-0500 (Central Daylight Time),159485.79999998212,058_m_m_n_a.png,I,m,588,4,2,1610.7999999821186,157875.0,8039,NNB,A,3
4,test,2,0.0,1-Back,1,m,Mon Jul 14 2025 13:21:31 GMT-0500 (Central Daylight Time),161168.69999998808,041_y_m_n_a.png,I,m,651,5,2,1677.0,159491.69999998808,8039,NNB,A,4
5,test,2,0.0,1-Back,1,m,Mon Jul 14 2025 13:21:31 GMT-0500 (Central Daylight Time),162634.5,063_y_f_n_a.png,I,m,448,6,2,1460.0,161174.5,8039,NNB,A,5
6,test,2,1.0,1-Back,1,z,Mon Jul 14 2025 13:21:31 GMT-0500 (Central Daylight Time),164018.19999998808,063_y_f_n_a.png,I,z,365,7,2,1377.7999999821186,162640.40000000596,8039,NNB,A,6
7,test,2,0.0,1-Back,1,m,Mon Jul 14 2025 13:21:31 GMT-0500 (Central Daylight Time),165433.79999998212,041_y_m_n_a.png,I,m,383,8,2,1409.7999999821186,164024.0,8039,NNB,A,7
8,test,2,0.0,1-Back,1,m,Mon Jul 14 2025 13:21:31 GMT-0500 (Central Daylight Time),166849.79999998212,044_o_f_n_a.png,I,m,398,9,2,1410.199999988079,165439.59999999404,8039,NNB,A,8
9,test,2,0.0,1-Back,1,m,Mon Jul 14 2025 13:21:31 GMT-0500 (Central Daylight Time),168316.19999998808,045_m_m_n_a.png,I,m,447,10,2,1460.5,166855.69999998808,8039,NNB,A,9
10,test,2,1.0,1-Back,1,z,Mon Jul 14 2025 13:21:31 GMT-0500 (Central Daylight Time),169699.09999999404,045_m_m_n_a.png,I,z,364,11,2,1376.800000011921,168322.29999998212,8039,NNB,A,10
11,test,2,0.0,1-Back,1,m,Mon Jul 14 2025 13:21:31 GMT-0500 (Central Daylight Time),171132.0,044_o_f_n_a.png,I,m,405,12,2,1427.0999999940395,169704.90000000596,8039,NNB,A,11
12,test,2,0.0,1-Back,1,m,Mon Jul 14 2025 13:21:31 GMT-0500 (Central Daylight Time),172598.40000000596,047_o_f_n_a.png,I,m,445,13,2,1460.800000011921,171137.59999999404,8039,NNB,A,12
13,test,2,0.0,1-Back,1,m,Mon Jul 14 2025 13:21:31 GMT-0500 (Central Daylight Time),174131.29999998212,053_o_m_n_a.png,I,m,515,14,2,1525.5999999940395,172605.69999998808,8039,NNB,A,13
14,test,2,0.0,1-Back,1,m,Mon Jul 14 2025 13:21:31 GMT-0500 (Central Daylight Time),175647.29999998212,046_o_m_n_a.png,I,m,486,15,2,1510.0999999940395,174137.19999998808,8039,NNB,A,14
15,test,2,1.0,1-Back,1,z,Mon Jul 14 2025 13:21:31 GMT-0500 (Central Daylight Time),177046.90000000596,046_o_m_n_a.png,I,z,370,16,2,1393.800000011921,175653.09999999404,8039,NNB,A,15
16,test,2,0.0,1-Back,1,m,Mon Jul 14 2025 13:21:31 GMT-0500 (Central Daylight Time),178313.09999999404,008_y_m_n_a.png,I,m,241,17,2,1260.5,177052.59999999404,8039,NNB,A,16
17,test,2,1.0,1-Back,1,z,Mon Jul 14 2025 13:21:31 GMT-0500 (Central Daylight Time),179862.79999998212,008_y_m_n_a.png,I,z,520,18,2,1543.5,178319.29999998212,8039,NNB,A,17
0,test,3,1.0,1-Back,,,Mon Jul 14 2025 13:21:31 GMT-0500 (Central Daylight Time),179862.79999998212,010_y_f_n_a.png,I,space,1411,1,2,1543.5,178319.29999998212,8039,NNB,A,0
1,test,3,0.0,1-Back,1,m,Mon Jul 14 2025 13:21:31 GMT-0500 (Central Daylight Time),184927.79999998212,046_o_m_n_a.png,I,m,551,2,2,1576.0,183351.79999998212,8039,NNB,A,1
2,test,3,1.0,1-Back,1,z,Mon Jul 14 2025 13:21:31 GMT-0500 (Central Daylight Time),186410.59999999404,046_o_m_n_a.png,I,z,457,3,2,1477.0,184933.59999999404,8039,NNB,A,2
3,test,3,0.0,1-Back,1,m,Mon Jul 14 2025 13:21:31 GMT-0500 (Central Daylight Time),187934.19999998808,050_m_f_n_a.png,I,m,360,4,2,1517.5,186416.69999998808,8039,NNB,A,3
4,test,3,1.0,1-Back,1,z,Mon Jul 14 2025 13:21:31 GMT-0500 (Central Daylight Time),189426.40000000596,050_m_f_n_a.png,I,z,472,5,2,1486.0,187940.40000000596,8039,NNB,A,4
5,test,3,0.0,1-Back,1,m,Mon Jul 14 2025 13:21:31 GMT-0500 (Central Daylight Time),190742.59999999404,044_o_f_n_a.png,I,m,295,6,2,1310.5,189432.09999999404,8039,NNB,A,5
6,test,3,0.0,1-Back,1,m,Mon Jul 14 2025 13:21:31 GMT-0500 (Central Daylight Time),192141.69999998808,041_y_m_n_a.png,I,m,370,7,2,1393.0999999940395,190748.59999999404,8039,NNB,A,6
7,test,3,0.0,1-Back,1,m,Mon Jul 14 2025 13:21:31 GMT-0500 (Central Daylight Time),193591.69999998808,044_o_f_n_a.png,I,m,426,8,2,1442.9000000059605,192148.79999998212,8039,NNB,A,7
8,test,3,0.0,1-Back,1,m,Mon Jul 14 2025 13:21:31 GMT-0500 (Central Daylight Time),195074.40000000596,008_y_m_n_a.png,I,m,466,9,2,1477.1000000238419,193597.29999998212,8039,NNB,A,8
9,test,3,1.0,1-Back,1,z,Mon Jul 14 2025 13:21:31 GMT-0500 (Central Daylight Time),196490.5,008_y_m_n_a.png,I,z,399,10,2,1410.5,195080.0,8039,NNB,A,9
10,test,3,0.0,1-Back,1,m,Mon Jul 14 2025 13:21:31 GMT-0500 (Central Daylight Time),197840.40000000596,043_m_f_n_a.png,I,m,326,11,2,1344.1000000238419,196496.29999998212,8039,NNB,A,10
11,test,3,0.0,1-Back,1,m,Mon Jul 14 2025 13:21:31 GMT-0500 (Central Daylight Time),199223.19999998808,063_y_f_n_a.png,I,m,361,12,2,1376.5999999940395,197846.59999999404,8039,NNB,A,11
12,test,3,1.0,1-Back,1,z,Mon Jul 14 2025 13:21:31 GMT-0500 (Central Daylight Time),200589.5,063_y_f_n_a.png,I,z,345,13,2,1360.2000000178814,199229.29999998212,8039,NNB,A,12
13,test,3,0.0,1-Back,1,m,Mon Jul 14 2025 13:21:31 GMT-0500 (Central Daylight Time),202055.5,043_m_f_n_a.png,I,m,436,14,2,1460.0,200595.5,8039,NNB,A,13
14,test,3,0.0,1-Back,1,m,Mon Jul 14 2025 13:21:31 GMT-0500 (Central Daylight Time),203522.0,058_m_m_n_a.png,I,m,432,15,2,1460.300000011921,202061.69999998808,8039,NNB,A,14
15,test,3,1.0,1-Back,1,z,Mon Jul 14 2025 13:21:31 GMT-0500 (Central Daylight Time),205004.79999998212,058_m_m_n_a.png,I,z,463,16,2,1477.0,203527.79999998212,8039,NNB,A,15
16,test,3,0.0,1-Back,1,m,Mon Jul 14 2025 13:21:31 GMT-0500 (Central Daylight Time),206337.59999999404,047_o_f_n_a.png,I,m,308,17,2,1326.699999988079,205010.90000000596,8039,NNB,A,16
17,test,3,1.0,1-Back,1,z,Mon Jul 14 2025 13:21:31 GMT-0500 (Central Daylight Time),208053.69999998808,047_o_f_n_a.png,I,z,687,18,2,1710.2999999821186,206343.40000000596,8039,NNB,A,17
0,test,4,1.0,1-Back,,,Mon Jul 14 2025 13:21:31 GMT-0500 (Central Daylight Time),208053.69999998808,050_m_f_n_a.png,I,space,1675,1,2,1710.2999999821186,206343.40000000596,8039,NNB,A,0
1,test,4,0.0,1-Back,1,m,Mon Jul 14 2025 13:21:31 GMT-0500 (Central Daylight Time),213635.40000000596,046_o_m_n_a.png,I,m,865,2,2,1877.0,211758.40000000596,8039,NNB,A,1
2,test,4,0.0,1-Back,1,m,Mon Jul 14 2025 13:21:31 GMT-0500 (Central Daylight Time),215051.69999998808,050_m_f_n_a.png,I,m,398,3,2,1410.699999988079,213641.0,8039,NNB,A,2
3,test,4,0.0,1-Back,1,m,Mon Jul 14 2025 13:21:31 GMT-0500 (Central Daylight Time),216467.79999998212,044_o_f_n_a.png,I,m,398,4,2,1410.0999999940395,215057.69999998808,8039,NNB,A,3
4,test,4,1.0,1-Back,1,z,Mon Jul 14 2025 13:21:31 GMT-0500 (Central Daylight Time),217850.40000000596,044_o_f_n_a.png,I,z,365,5,2,1376.0,216474.40000000596,8039,NNB,A,4
5,test,4,0.0,1-Back,1,m,Mon Jul 14 2025 13:21:31 GMT-0500 (Central Daylight Time),219133.69999998808,063_y_f_n_a.png,I,m,254,6,2,1277.199999988079,217856.5,8039,NNB,A,5
6,test,4,0.0,1-Back,1,m,Mon Jul 14 2025 13:21:31 GMT-0500 (Central Daylight Time),220549.79999998212,041_y_m_n_a.png,I,m,395,7,2,1410.199999988079,219139.59999999404,8039,NNB,A,6
7,test,4,1.0,1-Back,1,z,Mon Jul 14 2025 13:21:31 GMT-0500 (Central Daylight Time),221932.40000000596,041_y_m_n_a.png,I,z,362,8,2,1376.7000000178814,220555.69999998808,8039,NNB,A,7
8,test,4,0.0,1-Back,1,m,Mon Jul 14 2025 13:21:31 GMT-0500 (Central Daylight Time),223215.5,063_y_f_n_a.png,I,m,252,9,2,1276.7000000178814,221938.79999998212,8039,NNB,A,8
9,test,4,0.0,1-Back,1,m,Mon Jul 14 2025 13:21:31 GMT-0500 (Central Daylight Time),224648.40000000596,045_m_m_n_a.png,I,m,400,10,2,1426.9000000059605,223221.5,8039,NNB,A,9
10,test,4,1.0,1-Back,1,z,Mon Jul 14 2025 13:21:31 GMT-0500 (Central Daylight Time),226031.5,045_m_m_n_a.png,I,z,353,11,2,1376.9000000059605,224654.59999999404,8039,NNB,A,10
11,test,4,0.0,1-Back,1,m,Mon Jul 14 2025 13:21:31 GMT-0500 (Central Daylight Time),227281.09999999404,047_o_f_n_a.png,I,m,226,12,2,1243.800000011921,226037.29999998212,8039,NNB,A,11
12,test,4,0.0,1-Back,1,m,Mon Jul 14 2025 13:21:31 GMT-0500 (Central Daylight Time),228714.0,053_o_m_n_a.png,I,m,415,13,2,1426.2000000178814,227287.79999998212,8039,NNB,A,12
13,test,4,0.0,1-Back,1,m,Mon Jul 14 2025 13:21:31 GMT-0500 (Central Daylight Time),230180.19999998808,047_o_f_n_a.png,I,m,447,14,2,1460.0,228720.19999998808,8039,NNB,A,13
14,test,4,0.0,1-Back,1,m,Mon Jul 14 2025 13:21:31 GMT-0500 (Central Daylight Time),231663.19999998808,010_y_f_n_a.png,I,m,461,15,2,1476.9000000059605,230186.29999998212,8039,NNB,A,14
15,test,4,1.0,1-Back,1,z,Mon Jul 14 2025 13:21:31 GMT-0500 (Central Daylight Time),233012.69999998808,010_y_f_n_a.png,I,z,330,16,2,1343.5,231669.19999998808,8039,NNB,A,15
16,test,4,0.0,1-Back,1,m,Mon Jul 14 2025 13:21:31 GMT-0500 (Central Daylight Time),234329.19999998808,043_m_f_n_a.png,I,m,292,17,2,1310.2999999821186,233018.90000000596,8039,NNB,A,16
17,test,4,1.0,1-Back,1,z,Mon Jul 14 2025 13:21:31 GMT-0500 (Central Daylight Time),235811.79999998212,043_m_f_n_a.png,I,z,464,18,2,1476.5,234335.29999998212,8039,NNB,A,17
0,test,5,1.0,1-Back,,,Mon Jul 14 2025 13:21:31 GMT-0500 (Central Daylight Time),235811.79999998212,053_o_m_n_a.png,I,space,1381,1,2,1476.5,234335.29999998212,8039,NNB,A,0
1,test,5,1.0,1-Back,1,z,Mon Jul 14 2025 13:21:31 GMT-0500 (Central Daylight Time),240943.59999999404,053_o_m_n_a.png,I,z,701,2,2,1726.9000000059605,239216.69999998808,8039,NNB,A,1
2,test,5,0.0,1-Back,1,m,Mon Jul 14 2025 13:21:31 GMT-0500 (Central Daylight Time),242226.40000000596,063_y_f_n_a.png,I,m,257,3,2,1277.0,240949.40000000596,8039,NNB,A,2
3,test,5,0.0,1-Back,1,m,Mon Jul 14 2025 13:21:31 GMT-0500 (Central Daylight Time),243625.90000000596,041_y_m_n_a.png,I,m,367,4,2,1393.7000000178814,242232.19999998808,8039,NNB,A,3
4,test,5,0.0,1-Back,1,m,Mon Jul 14 2025 13:21:31 GMT-0500 (Central Daylight Time),245025.5,063_y_f_n_a.png,I,m,367,5,2,1393.5,243632.0,8039,NNB,A,4
5,test,5,0.0,1-Back,1,m,Mon Jul 14 2025 13:21:31 GMT-0500 (Central Daylight Time),246491.59999999404,058_m_m_n_a.png,I,m,440,6,2,1460.300000011921,245031.29999998212,8039,NNB,A,5
6,test,5,1.0,1-Back,1,z,Mon Jul 14 2025 13:21:31 GMT-0500 (Central Daylight Time),247841.19999998808,058_m_m_n_a.png,I,z,325,7,2,1343.699999988079,246497.5,8039,NNB,A,6
7,test,5,0.0,1-Back,1,m,Mon Jul 14 2025 13:21:31 GMT-0500 (Central Daylight Time),249174.19999998808,010_y_f_n_a.png,I,m,312,8,2,1327.199999988079,247847.0,8039,NNB,A,7
8,test,5,0.0,1-Back,1,m,Mon Jul 14 2025 13:21:31 GMT-0500 (Central Daylight Time),250690.29999998212,008_y_m_n_a.png,I,m,491,9,2,1510.199999988079,249180.09999999404,8039,NNB,A,8
9,test,5,0.0,1-Back,1,m,Mon Jul 14 2025 13:21:31 GMT-0500 (Central Daylight Time),252189.90000000596,010_y_f_n_a.png,I,m,470,10,2,1493.6000000238419,250696.29999998212,8039,NNB,A,9
10,test,5,0.0,1-Back,1,m,Mon Jul 14 2025 13:21:31 GMT-0500 (Central Daylight Time),253672.69999998808,047_o_f_n_a.png,I,m,459,11,2,1476.4000000059605,252196.29999998212,8039,NNB,A,10
11,test,5,1.0,1-Back,1,z,Mon Jul 14 2025 13:21:31 GMT-0500 (Central Daylight Time),255022.40000000596,047_o_f_n_a.png,I,z,328,12,2,1343.5,253678.90000000596,8039,NNB,A,11
12,test,5,0.0,1-Back,1,m,Mon Jul 14 2025 13:21:31 GMT-0500 (Central Daylight Time),256405.40000000596,046_o_m_n_a.png,I,m,362,13,2,1377.0,255028.40000000596,8039,NNB,A,12
13,test,5,0.0,1-Back,1,m,Mon Jul 14 2025 13:21:31 GMT-0500 (Central Daylight Time),257821.59999999404,050_m_f_n_a.png,I,m,396,14,2,1410.300000011921,256411.29999998212,8039,NNB,A,13
14,test,5,1.0,1-Back,1,z,Mon Jul 14 2025 13:21:31 GMT-0500 (Central Daylight Time),259204.40000000596,050_m_f_n_a.png,I,z,356,15,2,1376.7000000178814,257827.69999998808,8039,NNB,A,14
15,test,5,0.0,1-Back,1,m,Mon Jul 14 2025 13:21:31 GMT-0500 (Central Daylight Time),260704.0,046_o_m_n_a.png,I,m,468,16,2,1493.5999999940395,259210.40000000596,8039,NNB,A,15
16,test,5,0.0,1-Back,1,m,Mon Jul 14 2025 13:21:31 GMT-0500 (Central Daylight Time),262186.40000000596,043_m_f_n_a.png,I,m,465,17,2,1476.5,260709.90000000596,8039,NNB,A,16
17,test,5,0.0,1-Back,1,m,Mon Jul 14 2025 13:21:31 GMT-0500 (Central Daylight Time),263620.7999999821,045_m_m_n_a.png,I,m,413,18,2,1428.3999999761581,262192.40000000596,8039,NNB,A,17
0,prac,1,0.0,2-Back,,,Mon Jul 14 2025 13:21:31 GMT-0500 (Central Daylight Time),263620.7999999821,008_y_m_n_a.png,I,space,6831,1,2,1428.3999999761581,262192.40000000596,8039,NNB,A,0
0,prac,1,0.0,2-Back,,,Mon Jul 14 2025 13:21:31 GMT-0500 (Central Daylight Time),263620.7999999821,043_m_f_n_a.png,I,space,6831,2,2,1428.3999999761581,262192.40000000596,8039,NNB,A,0
1,prac,1,1.0,2-Back,1,m,Mon Jul 14 2025 13:21:31 GMT-0500 (Central Daylight Time),353541.5,046_o_m_n_a.png,I,m,864,3,2,1642.7000000178814,351898.7999999821,8039,NNB,A,1
2,prac,1,0.0,2-Back,1,m,Mon Jul 14 2025 13:21:31 GMT-0500 (Central Daylight Time),354907.6999999881,047_o_f_n_a.png,I,m,525,4,2,1359.0,353548.6999999881,8039,NNB,A,2
3,prac,1,0.0,2-Back,1,z,Mon Jul 14 2025 13:21:31 GMT-0500 (Central Daylight Time),356108.40000000596,046_o_m_n_a.png,I,z,414,5,2,1193.5,354914.90000000596,8039,NNB,A,3
4,prac,1,1.0,2-Back,1,z,Mon Jul 14 2025 13:21:31 GMT-0500 (Central Daylight Time),357440.2999999821,047_o_f_n_a.png,I,z,557,6,2,1324.8999999761581,356115.40000000596,8039,NNB,A,4
5,prac,1,0.0,2-Back,1,m,Mon Jul 14 2025 13:21:31 GMT-0500 (Central Daylight Time),358823.0,045_m_m_n_a.png,I,m,571,7,2,1375.5,357447.5,8039,NNB,A,5
6,prac,1,0.0,2-Back,1,m,Mon Jul 14 2025 13:21:31 GMT-0500 (Central Daylight Time),360222.59999999404,053_o_m_n_a.png,I,m,596,8,2,1393.0,358829.59999999404,8039,NNB,A,6
7,prac,1,0.0,2-Back,1,m,Mon Jul 14 2025 13:21:31 GMT-0500 (Central Daylight Time),361622.1999999881,010_y_f_n_a.png,I,m,567,9,2,1391.7999999821186,360230.40000000596,8039,NNB,A,7
8,prac,1,1.0,2-Back,1,z,Mon Jul 14 2025 13:21:31 GMT-0500 (Central Daylight Time),362855.5,053_o_m_n_a.png,I,z,443,10,2,1226.2000000178814,361629.2999999821,8039,NNB,A,8
9,prac,1,0.0,2-Back,1,m,Mon Jul 14 2025 13:21:31 GMT-0500 (Central Daylight Time),364438.1999999881,063_y_f_n_a.png,I,m,763,11,2,1576.0,362862.1999999881,8039,NNB,A,9
10,prac,1,0.0,2-Back,1,m,Mon Jul 14 2025 13:21:31 GMT-0500 (Central Daylight Time),366254.09999999404,045_m_m_n_a.png,I,m,1037,12,2,1809.300000011921,364444.7999999821,8039,NNB,A,10
0,test,1,0.0,2-Back,,,Mon Jul 14 2025 13:21:31 GMT-0500 (Central Daylight Time),366254.09999999404,041_y_m_n_a.png,I,space,5790,1,2,1809.300000011921,364444.7999999821,8039,NNB,A,0
0,test,1,0.0,2-Back,,,Mon Jul 14 2025 13:21:31 GMT-0500 (Central Daylight Time),366254.09999999404,041_y_m_n_a.png,I,space,5790,2,2,1809.300000011921,364444.7999999821,8039,NNB,A,0
1,test,1,0.0,2-Back,1,m,Mon Jul 14 2025 13:21:31 GMT-0500 (Central Daylight Time),385548.0,047_o_f_n_a.png,I,m,647,3,2,1659.9000000059605,383888.09999999404,8039,NNB,A,1
2,test,1,0.0,2-Back,1,m,Mon Jul 14 2025 13:21:31 GMT-0500 (Central Daylight Time),387081.0,058_m_m_n_a.png,I,m,509,4,2,1527.0,385554.0,8039,NNB,A,2
3,test,1,1.0,2-Back,1,z,Mon Jul 14 2025 13:21:31 GMT-0500 (Central Daylight Time),388513.6999999881,047_o_f_n_a.png,I,z,408,5,2,1426.5999999940395,387087.09999999404,8039,NNB,A,3
4,test,1,0.0,2-Back,1,m,Mon Jul 14 2025 13:21:31 GMT-0500 (Central Daylight Time),389979.7999999821,063_y_f_n_a.png,I,m,440,6,2,1459.7999999821186,388520.0,8039,NNB,A,4
5,test,1,0.0,2-Back,1,m,Mon Jul 14 2025 13:21:31 GMT-0500 (Central Daylight Time),391529.2999999821,058_m_m_n_a.png,I,m,525,7,2,1543.3999999761581,389985.90000000596,8039,NNB,A,5
6,test,1,1.0,2-Back,1,z,Mon Jul 14 2025 13:21:31 GMT-0500 (Central Daylight Time),393145.59999999404,063_y_f_n_a.png,I,z,582,8,2,1610.199999988079,391535.40000000596,8039,NNB,A,6
7,test,1,0.0,2-Back,1,m,Mon Jul 14 2025 13:21:31 GMT-0500 (Central Daylight Time),394778.5,008_y_m_n_a.png,I,m,607,9,2,1626.7000000178814,393151.7999999821,8039,NNB,A,7
8,test,1,0.0,2-Back,1,m,Mon Jul 14 2025 13:21:31 GMT-0500 (Central Daylight Time),396361.59999999404,044_o_f_n_a.png,I,m,551,10,2,1576.5,394785.09999999404,8039,NNB,A,8
9,test,1,1.0,2-Back,1,z,Mon Jul 14 2025 13:21:31 GMT-0500 (Central Daylight Time),397760.6999999881,008_y_m_n_a.png,I,z,367,11,2,1393.0999999940395,396367.59999999404,8039,NNB,A,9
10,test,1,0.0,2-Back,1,m,Mon Jul 14 2025 13:21:31 GMT-0500 (Central Daylight Time),399293.7999999821,043_m_f_n_a.png,I,m,512,12,2,1527.0,397766.7999999821,8039,NNB,A,10
11,test,1,0.0,2-Back,1,m,Mon Jul 14 2025 13:21:31 GMT-0500 (Central Daylight Time),401076.40000000596,043_m_f_n_a.png,I,m,764,13,2,1776.800000011921,399299.59999999404,8039,NNB,A,11
12,test,1,0.0,2-Back,1,m,Mon Jul 14 2025 13:21:31 GMT-0500 (Central Daylight Time),402759.1999999881,046_o_m_n_a.png,I,m,661,14,2,1676.5,401082.6999999881,8039,NNB,A,12
12,test,1,0.0,2-Back,0,m,Mon Jul 14 2025 13:21:31 GMT-0500 (Central Daylight Time),404425.40000000596,044_o_f_n_a.png,I,z,641,15,2,1660.2000000178814,402765.1999999881,8039,NNB,A,13
13,test,1,1.0,2-Back,1,z,Mon Jul 14 2025 13:21:31 GMT-0500 (Central Daylight Time),406208.09999999404,046_o_m_n_a.png,I,z,760,16,2,1776.5,404431.59999999404,8039,NNB,A,14
14,test,1,0.0,2-Back,1,m,Mon Jul 14 2025 13:21:31 GMT-0500 (Central Daylight Time),407724.2999999821,050_m_f_n_a.png,I,m,497,17,2,1509.8999999761581,406214.40000000596,8039,NNB,A,15
15,test,1,0.0,2-Back,1,m,Mon Jul 14 2025 13:21:31 GMT-0500 (Central Daylight Time),409290.2999999821,045_m_m_n_a.png,I,m,549,18,2,1559.3999999761581,407730.90000000596,8039,NNB,A,16
0,test,2,0.0,2-Back,,,Mon Jul 14 2025 13:21:31 GMT-0500 (Central Daylight Time),409290.2999999821,045_m_m_n_a.png,I,space,1670,1,2,1559.3999999761581,407730.90000000596,8039,NNB,A,0
0,test,2,0.0,2-Back,,,Mon Jul 14 2025 13:21:31 GMT-0500 (Central Daylight Time),409290.2999999821,010_y_f_n_a.png,I,space,1670,2,2,1559.3999999761581,407730.90000000596,8039,NNB,A,0
1,test,2,1.0,2-Back,1,z,Mon Jul 14 2025 13:21:31 GMT-0500 (Central Daylight Time),417654.59999999404,045_m_m_n_a.png,I,z,545,3,2,1559.5999999940395,416095.0,8039,NNB,A,1
2,test,2,0.0,2-Back,1,m,Mon Jul 14 2025 13:21:31 GMT-0500 (Central Daylight Time),419220.40000000596,050_m_f_n_a.png,I,m,546,4,2,1559.4000000059605,417661.0,8039,NNB,A,2
3,test,2,0.0,2-Back,1,m,Mon Jul 14 2025 13:21:31 GMT-0500 (Central Daylight Time),420703.7999999821,010_y_f_n_a.png,I,m,452,5,2,1477.0999999940395,419226.6999999881,8039,NNB,A,3
4,test,2,0.0,2-Back,1,m,Mon Jul 14 2025 13:21:31 GMT-0500 (Central Daylight Time),422236.5,046_o_m_n_a.png,I,m,513,6,2,1526.7000000178814,420709.7999999821,8039,NNB,A,4
4,test,2,0.0,2-Back,0,m,Mon Jul 14 2025 13:21:31 GMT-0500 (Central Daylight Time),424085.7999999821,063_y_f_n_a.png,I,z,797,7,2,1843.0999999940395,422242.6999999881,8039,NNB,A,5
5,test,2,1.0,2-Back,1,z,Mon Jul 14 2025 13:21:31 GMT-0500 (Central Daylight Time),425552.40000000596,046_o_m_n_a.png,I,z,434,8,2,1460.300000011921,424092.09999999404,8039,NNB,A,6
6,test,2,0.0,2-Back,1,m,Mon Jul 14 2025 13:21:31 GMT-0500 (Central Daylight Time),427134.7999999821,008_y_m_n_a.png,I,m,561,9,2,1576.2999999821186,425558.5,8039,NNB,A,7
7,test,2,0.0,2-Back,1,m,Mon Jul 14 2025 13:21:31 GMT-0500 (Central Daylight Time),428850.90000000596,008_y_m_n_a.png,I,m,698,10,2,1710.0,427140.90000000596,8039,NNB,A,8
8,test,2,0.0,2-Back,1,m,Mon Jul 14 2025 13:21:31 GMT-0500 (Central Daylight Time),430567.1999999881,043_m_f_n_a.png,I,m,694,11,2,1710.199999988079,428857.0,8039,NNB,A,9
9,test,2,0.0,2-Back,1,m,Mon Jul 14 2025 13:21:31 GMT-0500 (Central Daylight Time),432199.7999999821,010_y_f_n_a.png,I,m,601,12,2,1626.2999999821186,430573.5,8039,NNB,A,10
10,test,2,1.0,2-Back,1,z,Mon Jul 14 2025 13:21:31 GMT-0500 (Central Daylight Time),433566.2999999821,043_m_f_n_a.png,I,z,344,13,2,1360.199999988079,432206.09999999404,8039,NNB,A,11
11,test,2,0.0,2-Back,1,m,Mon Jul 14 2025 13:21:31 GMT-0500 (Central Daylight Time),435082.2999999821,053_o_m_n_a.png,I,m,498,14,2,1509.8999999761581,433572.40000000596,8039,NNB,A,12
12,test,2,0.0,2-Back,1,m,Mon Jul 14 2025 13:21:31 GMT-0500 (Central Daylight Time),436698.59999999404,053_o_m_n_a.png,I,m,591,15,2,1609.9000000059605,435088.6999999881,8039,NNB,A,13
13,test,2,0.0,2-Back,1,m,Mon Jul 14 2025 13:21:31 GMT-0500 (Central Daylight Time),438398.1999999881,044_o_f_n_a.png,I,m,671,16,2,1693.4000000059605,436704.7999999821,8039,NNB,A,14
13,test,2,0.0,2-Back,0,m,Mon Jul 14 2025 13:21:31 GMT-0500 (Central Daylight Time),440364.09999999404,058_m_m_n_a.png,I,z,939,17,2,1959.5,438404.59999999404,8039,NNB,A,15
14,test,2,1.0,2-Back,1,z,Mon Jul 14 2025 13:21:31 GMT-0500 (Central Daylight Time),442163.59999999404,044_o_f_n_a.png,I,z,781,18,2,1793.0999999940395,440370.5,8039,NNB,A,16
0,test,3,1.0,2-Back,,,Mon Jul 14 2025 13:21:31 GMT-0500 (Central Daylight Time),442163.59999999404,041_y_m_n_a.png,I,space,1909,1,2,1793.0999999940395,440370.5,8039,NNB,A,0
0,test,3,1.0,2-Back,,,Mon Jul 14 2025 13:21:31 GMT-0500 (Central Daylight Time),442163.59999999404,041_y_m_n_a.png,I,space,1909,2,2,1793.0999999940395,440370.5,8039,NNB,A,0
1,test,3,0.0,2-Back,1,m,Mon Jul 14 2025 13:21:31 GMT-0500 (Central Daylight Time),450610.6999999881,044_o_f_n_a.png,I,m,465,3,2,1476.699999988079,449134.0,8039,NNB,A,1
2,test,3,0.0,2-Back,1,m,Mon Jul 14 2025 13:21:31 GMT-0500 (Central Daylight Time),452193.90000000596,045_m_m_n_a.png,I,m,558,4,2,1577.4000000059605,450616.5,8039,NNB,A,2
3,test,3,1.0,2-Back,1,z,Mon Jul 14 2025 13:21:31 GMT-0500 (Central Daylight Time),453609.7999999821,044_o_f_n_a.png,I,z,400,5,2,1409.7999999821186,452200.0,8039,NNB,A,3
4,test,3,0.0,2-Back,1,m,Mon Jul 14 2025 13:21:31 GMT-0500 (Central Daylight Time),455426.1999999881,008_y_m_n_a.png,I,m,799,6,2,1810.0999999940395,453616.09999999404,8039,NNB,A,4
5,test,3,0.0,2-Back,1,m,Mon Jul 14 2025 13:21:31 GMT-0500 (Central Daylight Time),457110.0,045_m_m_n_a.png,I,m,654,7,2,1677.4000000059605,455432.59999999404,8039,NNB,A,5
6,test,3,1.0,2-Back,1,z,Mon Jul 14 2025 13:21:31 GMT-0500 (Central Daylight Time),458541.6999999881,008_y_m_n_a.png,I,z,404,8,2,1425.2999999821186,457116.40000000596,8039,NNB,A,6
7,test,3,0.0,2-Back,1,m,Mon Jul 14 2025 13:21:31 GMT-0500 (Central Daylight Time),460041.2999999821,010_y_f_n_a.png,I,m,475,9,2,1493.3999999761581,458547.90000000596,8039,NNB,A,7
8,test,3,0.0,2-Back,1,m,Mon Jul 14 2025 13:21:31 GMT-0500 (Central Daylight Time),461674.09999999404,058_m_m_n_a.png,I,m,616,10,2,1626.199999988079,460047.90000000596,8039,NNB,A,8
9,test,3,1.0,2-Back,1,z,Mon Jul 14 2025 13:21:31 GMT-0500 (Central Daylight Time),463057.1999999881,010_y_f_n_a.png,I,z,350,11,2,1377.0,461680.1999999881,8039,NNB,A,9
9,test,3,1.0,2-Back,0,z,Mon Jul 14 2025 13:21:31 GMT-0500 (Central Daylight Time),464656.90000000596,058_m_m_n_a.png,I,m,576,12,2,1593.800000011921,463063.09999999404,8039,NNB,A,10
10,test,3,0.0,2-Back,1,m,Mon Jul 14 2025 13:21:31 GMT-0500 (Central Daylight Time),466356.0,044_o_f_n_a.png,I,m,680,13,2,1693.0999999940395,464662.90000000596,8039,NNB,A,11
11,test,3,0.0,2-Back,1,m,Mon Jul 14 2025 13:21:31 GMT-0500 (Central Daylight Time),467955.6999999881,050_m_f_n_a.png,I,m,581,14,2,1593.5,466362.1999999881,8039,NNB,A,12
12,test,3,0.0,2-Back,1,m,Mon Jul 14 2025 13:21:31 GMT-0500 (Central Daylight Time),469588.2999999821,046_o_m_n_a.png,I,m,613,15,2,1626.699999988079,467961.59999999404,8039,NNB,A,13
13,test,3,1.0,2-Back,1,z,Mon Jul 14 2025 13:21:31 GMT-0500 (Central Daylight Time),471171.09999999404,050_m_f_n_a.png,I,z,564,16,2,1576.199999988079,469594.90000000596,8039,NNB,A,14
14,test,3,0.0,2-Back,1,m,Mon Jul 14 2025 13:21:31 GMT-0500 (Central Daylight Time),472787.40000000596,047_o_f_n_a.png,I,m,589,17,2,1610.0,471177.40000000596,8039,NNB,A,15
15,test,3,0.0,2-Back,1,m,Mon Jul 14 2025 13:21:31 GMT-0500 (Central Daylight Time),474570.0,047_o_f_n_a.png,I,m,758,18,2,1776.5,472793.5,8039,NNB,A,16
0,test,4,0.0,2-Back,,,Mon Jul 14 2025 13:21:31 GMT-0500 (Central Daylight Time),474570.0,053_o_m_n_a.png,I,space,3846,1,2,1776.5,472793.5,8039,NNB,A,0
0,test,4,0.0,2-Back,,,Mon Jul 14 2025 13:21:31 GMT-0500 (Central Daylight Time),474570.0,063_y_f_n_a.png,I,space,3846,2,2,1776.5,472793.5,8039,NNB,A,0
1,test,4,1.0,2-Back,1,z,Mon Jul 14 2025 13:21:31 GMT-0500 (Central Daylight Time),485266.40000000596,053_o_m_n_a.png,I,z,715,3,2,1726.1000000238419,483540.2999999821,8039,NNB,A,1
2,test,4,1.0,2-Back,1,z,Mon Jul 14 2025 13:21:31 GMT-0500 (Central Daylight Time),486866.0,063_y_f_n_a.png,I,z,583,4,2,1593.0,485273.0,8039,NNB,A,2
3,test,4,0.0,2-Back,1,m,Mon Jul 14 2025 13:21:31 GMT-0500 (Central Daylight Time),488365.5,044_o_f_n_a.png,I,m,470,5,2,1493.4000000059605,486872.09999999404,8039,NNB,A,3
4,test,4,0.0,2-Back,1,m,Mon Jul 14 2025 13:21:31 GMT-0500 (Central Daylight Time),489865.09999999404,044_o_f_n_a.png,I,m,466,6,2,1493.4000000059605,488371.6999999881,8039,NNB,A,4
5,test,4,0.0,2-Back,1,m,Mon Jul 14 2025 13:21:31 GMT-0500 (Central Daylight Time),491598.0,043_m_f_n_a.png,I,m,704,7,2,1726.800000011921,489871.1999999881,8039,NNB,A,5
6,test,4,0.0,2-Back,1,m,Mon Jul 14 2025 13:21:31 GMT-0500 (Central Daylight Time),493082.0,008_y_m_n_a.png,I,m,459,8,2,1477.5999999940395,491604.40000000596,8039,NNB,A,6
7,test,4,1.0,2-Back,1,z,Mon Jul 14 2025 13:21:31 GMT-0500 (Central Daylight Time),494530.40000000596,043_m_f_n_a.png,I,z,432,9,2,1442.4000000059605,493088.0,8039,NNB,A,7
8,test,4,0.0,2-Back,1,m,Mon Jul 14 2025 13:21:31 GMT-0500 (Central Daylight Time),496013.2999999821,058_m_m_n_a.png,I,m,455,10,2,1477.0,494536.2999999821,8039,NNB,A,8
8,test,4,0.0,2-Back,0,m,Mon Jul 14 2025 13:21:31 GMT-0500 (Central Daylight Time),497862.90000000596,008_y_m_n_a.png,I,z,828,11,2,1843.6000000238419,496019.2999999821,8039,NNB,A,9
9,test,4,0.0,2-Back,1,m,Mon Jul 14 2025 13:21:31 GMT-0500 (Central Daylight Time),499562.09999999404,047_o_f_n_a.png,I,m,675,12,2,1693.4000000059605,497868.6999999881,8039,NNB,A,10
10,test,4,0.0,2-Back,1,m,Mon Jul 14 2025 13:21:31 GMT-0500 (Central Daylight Time),501195.0,041_y_m_n_a.png,I,m,607,13,2,1626.800000011921,499568.1999999881,8039,NNB,A,11
11,test,4,1.0,2-Back,1,z,Mon Jul 14 2025 13:21:31 GMT-0500 (Central Daylight Time),503077.6999999881,047_o_f_n_a.png,I,z,854,14,2,1876.7999999821186,501200.90000000596,8039,NNB,A,12
12,test,4,1.0,2-Back,1,z,Mon Jul 14 2025 13:21:31 GMT-0500 (Central Daylight Time),504627.1999999881,041_y_m_n_a.png,I,z,531,15,2,1543.0999999940395,503084.09999999404,8039,NNB,A,13
13,test,4,0.0,2-Back,1,m,Mon Jul 14 2025 13:21:31 GMT-0500 (Central Daylight Time),506126.6999999881,045_m_m_n_a.png,I,m,478,16,2,1493.699999988079,504633.0,8039,NNB,A,14
14,test,4,0.0,2-Back,1,m,Mon Jul 14 2025 13:21:31 GMT-0500 (Central Daylight Time),507692.90000000596,050_m_f_n_a.png,I,m,546,17,2,1560.2000000178814,506132.6999999881,8039,NNB,A,15
15,test,4,1.0,2-Back,1,z,Mon Jul 14 2025 13:21:31 GMT-0500 (Central Daylight Time),509075.6999999881,045_m_m_n_a.png,I,z,363,18,2,1376.699999988079,507699.0,8039,NNB,A,16
0,test,5,1.0,2-Back,,,Mon Jul 14 2025 13:21:31 GMT-0500 (Central Daylight Time),509075.6999999881,041_y_m_n_a.png,I,space,2142,1,2,1376.699999988079,507699.0,8039,NNB,A,0
0,test,5,1.0,2-Back,,,Mon Jul 14 2025 13:21:31 GMT-0500 (Central Daylight Time),509075.6999999881,050_m_f_n_a.png,I,space,2142,2,2,1376.699999988079,507699.0,8039,NNB,A,0
1,test,5,1.0,2-Back,1,z,Mon Jul 14 2025 13:21:31 GMT-0500 (Central Daylight Time),517906.5,041_y_m_n_a.png,I,z,599,3,2,1626.800000011921,516279.6999999881,8039,NNB,A,1
2,test,5,1.0,2-Back,1,z,Mon Jul 14 2025 13:21:31 GMT-0500 (Central Daylight Time),519489.0,050_m_f_n_a.png,I,z,550,4,2,1576.0,517913.0,8039,NNB,A,2
3,test,5,0.0,2-Back,1,m,Mon Jul 14 2025 13:21:31 GMT-0500 (Central Daylight Time),520988.59999999404,047_o_f_n_a.png,I,m,471,5,2,1493.0999999940395,519495.5,8039,NNB,A,3
4,test,5,0.0,2-Back,1,m,Mon Jul 14 2025 13:21:31 GMT-0500 (Central Daylight Time),522638.2999999821,041_y_m_n_a.png,I,m,629,6,2,1643.699999988079,520994.59999999404,8039,NNB,A,4
5,test,5,0.0,2-Back,1,m,Mon Jul 14 2025 13:21:31 GMT-0500 (Central Daylight Time),524204.40000000596,010_y_f_n_a.png,I,m,547,7,2,1560.0,522644.40000000596,8039,NNB,A,5
5,test,5,0.0,2-Back,0,m,Mon Jul 14 2025 13:21:31 GMT-0500 (Central Daylight Time),525737.400000006,047_o_f_n_a.png,I,z,516,8,2,1527.1000000238419,524210.2999999821,8039,NNB,A,6
6,test,5,1.0,2-Back,1,z,Mon Jul 14 2025 13:21:31 GMT-0500 (Central Daylight Time),527203.7999999821,010_y_f_n_a.png,I,z,440,9,2,1459.699999988079,525744.099999994,8039,NNB,A,7
7,test,5,0.0,2-Back,1,m,Mon Jul 14 2025 13:21:31 GMT-0500 (Central Daylight Time),528769.5,046_o_m_n_a.png,I,m,534,10,2,1559.7000000178814,527209.7999999821,8039,NNB,A,8
8,test,5,0.0,2-Back,1,m,Mon Jul 14 2025 13:21:31 GMT-0500 (Central Daylight Time),530252.599999994,043_m_f_n_a.png,I,m,463,11,2,1477.300000011921,528775.2999999821,8039,NNB,A,9
9,test,5,0.0,2-Back,1,m,Mon Jul 14 2025 13:21:31 GMT-0500 (Central Daylight Time),531802.1999999881,058_m_m_n_a.png,I,m,516,12,2,1543.199999988079,530259.0,8039,NNB,A,10
10,test,5,0.0,2-Back,1,m,Mon Jul 14 2025 13:21:31 GMT-0500 (Central Daylight Time),533384.6999999881,046_o_m_n_a.png,I,m,558,13,2,1576.199999988079,531808.5,8039,NNB,A,11
11,test,5,1.0,2-Back,1,z,Mon Jul 14 2025 13:21:31 GMT-0500 (Central Daylight Time),534917.6999999881,058_m_m_n_a.png,I,z,511,14,2,1527.0999999940395,533390.599999994,8039,NNB,A,12
12,test,5,0.0,2-Back,1,m,Mon Jul 14 2025 13:21:31 GMT-0500 (Central Daylight Time),536467.1999999881,063_y_f_n_a.png,I,m,531,15,2,1542.5999999940395,534924.599999994,8039,NNB,A,13
13,test,5,0.0,2-Back,1,m,Mon Jul 14 2025 13:21:31 GMT-0500 (Central Daylight Time),538149.900000006,053_o_m_n_a.png,I,m,653,16,2,1676.5,536473.400000006,8039,NNB,A,14
14,test,5,0.0,2-Back,1,m,Mon Jul 14 2025 13:21:31 GMT-0500 (Central Daylight Time),539666.2999999821,043_m_f_n_a.png,I,m,499,17,2,1510.199999988079,538156.099999994,8039,NNB,A,15
15,test,5,1.0,2-Back,1,z,Mon Jul 14 2025 13:21:31 GMT-0500 (Central Daylight Time),541194.099999994,053_o_m_n_a.png,I,z,364,18,2,1521.5999999940395,539672.5,8039,NNB,A,16
