acc_sum,block,block_c,change,condition,correct,correct_response,datetime,endtime,face,project,response,response_time,row_sel,session_number,start_end,starttime,subject_id,task,task_vers,trial
0,prac,1,,1-Back,,,Tue Nov 04 2025 11:37:41 GMT-0600 (Central Standard Time),,097_m_f_n_a.png,I,space,26056,1,3,,,8039,NNB,B,0
1,prac,1,0.0,1-Back,1.0,m,Tue Nov 04 2025 11:37:41 GMT-0600 (Central Standard Time),251820.59999999404,152_y_f_n_a.png,I,m,977,2,3,1840.7999999970198,249979.79999999702,8039,NNB,B,1
2,prac,1,1.0,1-Back,1.0,z,Tue Nov 04 2025 11:37:41 GMT-0600 (Central Standard Time),253103.70000000298,152_y_f_n_a.png,I,z,500,3,3,1275.4000000059605,251828.29999999702,8039,NNB,B,2
3,prac,1,0.0,1-Back,1.0,m,Tue Nov 04 2025 11:37:41 GMT-0600 (Central Standard Time),254386.59999999404,176_o_m_n_a.png,I,m,404,4,3,1275.0,253111.59999999404,8039,NNB,B,3
4,prac,1,0.0,1-Back,1.0,m,Tue Nov 04 2025 11:37:41 GMT-0600 (Central Standard Time),255919.0,126_m_m_n_a.png,I,m,660,5,3,1523.7000000029802,254395.29999999702,8039,NNB,B,4
5,prac,1,1.0,1-Back,1.0,z,Tue Nov 04 2025 11:37:41 GMT-0600 (Central Standard Time),257052.29999999702,126_m_m_n_a.png,I,z,346,6,3,1125.5999999940395,255926.70000000298,8039,NNB,B,5
6,prac,1,0.0,1-Back,1.0,m,Tue Nov 04 2025 11:37:41 GMT-0600 (Central Standard Time),258385.20000000298,086_o_f_n_a.png,I,m,442,7,3,1325.1000000089407,257060.09999999404,8039,NNB,B,6
7,prac,1,0.0,1-Back,1.0,m,Tue Nov 04 2025 11:37:41 GMT-0600 (Central Standard Time),259718.0,178_m_m_n_a.png,I,m,454,8,3,1324.7000000029802,258393.29999999702,8039,NNB,B,7
7,prac,1,0.0,1-Back,0.0,m,Tue Nov 04 2025 11:37:41 GMT-0600 (Central Standard Time),260818.79999999702,097_m_f_n_a.png,I,z,339,9,3,1092.2000000029802,259726.59999999404,8039,NNB,B,8
8,prac,1,1.0,1-Back,1.0,z,Tue Nov 04 2025 11:37:41 GMT-0600 (Central Standard Time),262184.200000003,097_m_f_n_a.png,I,z,573,10,3,1356.9000000059605,260827.29999999702,8039,NNB,B,9
9,prac,1,0.0,1-Back,1.0,m,Tue Nov 04 2025 11:37:41 GMT-0600 (Central Standard Time),263650.200000003,176_o_m_n_a.png,I,m,679,11,3,1456.9000000059605,262193.299999997,8039,NNB,B,10
10,prac,1,0.0,1-Back,1.0,m,Tue Nov 04 2025 11:37:41 GMT-0600 (Central Standard Time),265016.39999999106,173_y_f_n_a.png,I,m,503,12,3,1357.2999999970198,263659.09999999404,8039,NNB,B,11
0,test,1,0.0,1-Back,,,Tue Nov 04 2025 11:37:41 GMT-0600 (Central Standard Time),265016.39999999106,152_y_f_n_a.png,I,space,20733,1,3,1357.2999999970198,263659.09999999404,8039,NNB,B,0
1,test,1,0.0,1-Back,1.0,m,Tue Nov 04 2025 11:37:41 GMT-0600 (Central Standard Time),306086.700000003,029_m_f_n_a.png,I,m,594,2,3,1609.2000000029802,304477.5,8039,NNB,B,1
2,test,1,0.0,1-Back,1.0,m,Tue Nov 04 2025 11:37:41 GMT-0600 (Central Standard Time),307569.299999997,173_y_f_n_a.png,I,m,466,3,3,1474.9000000059605,306094.39999999106,8039,NNB,B,2
3,test,1,1.0,1-Back,1.0,z,Tue Nov 04 2025 11:37:41 GMT-0600 (Central Standard Time),309047.200000003,173_y_f_n_a.png,I,z,461,4,3,1471.5,307575.700000003,8039,NNB,B,3
4,test,1,0.0,1-Back,1.0,m,Tue Nov 04 2025 11:37:41 GMT-0600 (Central Standard Time),310401.799999997,029_m_f_n_a.png,I,m,324,5,3,1349.0,309052.799999997,8039,NNB,B,4
5,test,1,0.0,1-Back,1.0,m,Tue Nov 04 2025 11:37:41 GMT-0600 (Central Standard Time),311818.0,176_o_m_n_a.png,I,m,398,6,3,1409.4000000059605,310408.59999999404,8039,NNB,B,5
6,test,1,1.0,1-Back,1.0,z,Tue Nov 04 2025 11:37:41 GMT-0600 (Central Standard Time),313200.89999999106,176_o_m_n_a.png,I,z,350,7,3,1375.699999988079,311825.200000003,8039,NNB,B,6
7,test,1,0.0,1-Back,1.0,m,Tue Nov 04 2025 11:37:41 GMT-0600 (Central Standard Time),314567.200000003,126_m_m_n_a.png,I,m,336,8,3,1360.0,313207.200000003,8039,NNB,B,7
8,test,1,0.0,1-Back,1.0,m,Tue Nov 04 2025 11:37:41 GMT-0600 (Central Standard Time),316000.09999999404,086_o_f_n_a.png,I,m,409,9,3,1426.8999999910593,314573.200000003,8039,NNB,B,8
9,test,1,0.0,1-Back,1.0,m,Tue Nov 04 2025 11:37:41 GMT-0600 (Central Standard Time),317449.59999999404,126_m_m_n_a.png,I,m,424,10,3,1444.0,316005.59999999404,8039,NNB,B,9
10,test,1,0.0,1-Back,1.0,m,Tue Nov 04 2025 11:37:41 GMT-0600 (Central Standard Time),318950.200000003,153_y_m_n_a.png,I,m,479,11,3,1494.6000000089407,317455.59999999404,8039,NNB,B,10
11,test,1,1.0,1-Back,1.0,z,Tue Nov 04 2025 11:37:41 GMT-0600 (Central Standard Time),320365.39999999106,153_y_m_n_a.png,I,z,387,12,3,1408.7999999970198,318956.59999999404,8039,NNB,B,11
12,test,1,0.0,1-Back,1.0,m,Tue Nov 04 2025 11:37:41 GMT-0600 (Central Standard Time),321781.59999999404,110_o_f_n_a.png,I,m,387,13,3,1410.0,320371.59999999404,8039,NNB,B,12
13,test,1,1.0,1-Back,1.0,z,Tue Nov 04 2025 11:37:41 GMT-0600 (Central Standard Time),323314.39999999106,110_o_f_n_a.png,I,z,507,14,3,1526.5,321787.89999999106,8039,NNB,B,13
14,test,1,0.0,1-Back,1.0,m,Tue Nov 04 2025 11:37:41 GMT-0600 (Central Standard Time),324697.299999997,013_y_m_n_a.png,I,m,358,15,3,1376.7000000029802,323320.59999999404,8039,NNB,B,14
15,test,1,0.0,1-Back,1.0,m,Tue Nov 04 2025 11:37:41 GMT-0600 (Central Standard Time),326130.200000003,097_m_f_n_a.png,I,m,415,16,3,1426.6000000089407,324703.59999999404,8039,NNB,B,15
16,test,1,0.0,1-Back,1.0,m,Tue Nov 04 2025 11:37:41 GMT-0600 (Central Standard Time),327563.200000003,065_o_m_n_a.png,I,m,415,17,3,1426.7000000029802,326136.5,8039,NNB,B,16
17,test,1,0.0,1-Back,1.0,m,Tue Nov 04 2025 11:37:41 GMT-0600 (Central Standard Time),328979.700000003,097_m_f_n_a.png,I,m,398,18,3,1409.7000000029802,327570.0,8039,NNB,B,17
0,test,2,0.0,1-Back,,,Tue Nov 04 2025 11:37:41 GMT-0600 (Central Standard Time),328979.700000003,126_m_m_n_a.png,I,space,1933,1,3,1409.7000000029802,327570.0,8039,NNB,B,0
1,test,2,0.0,1-Back,1.0,m,Tue Nov 04 2025 11:37:41 GMT-0600 (Central Standard Time),334644.799999997,029_m_f_n_a.png,I,m,680,2,3,1693.5,332951.299999997,8039,NNB,B,1
2,test,2,1.0,1-Back,1.0,z,Tue Nov 04 2025 11:37:41 GMT-0600 (Central Standard Time),336044.09999999404,029_m_f_n_a.png,I,z,380,3,3,1394.0,334650.09999999404,8039,NNB,B,2
3,test,2,0.0,1-Back,1.0,m,Tue Nov 04 2025 11:37:41 GMT-0600 (Central Standard Time),337327.0,126_m_m_n_a.png,I,m,252,4,3,1277.6000000089407,336049.39999999106,8039,NNB,B,3
4,test,2,0.0,1-Back,1.0,m,Tue Nov 04 2025 11:37:41 GMT-0600 (Central Standard Time),338826.5,153_y_m_n_a.png,I,m,481,5,3,1494.0,337332.5,8039,NNB,B,4
5,test,2,0.0,1-Back,1.0,m,Tue Nov 04 2025 11:37:41 GMT-0600 (Central Standard Time),340276.09999999404,152_y_f_n_a.png,I,m,431,6,3,1445.5999999940395,338830.5,8039,NNB,B,5
6,test,2,1.0,1-Back,1.0,z,Tue Nov 04 2025 11:37:41 GMT-0600 (Central Standard Time),341675.700000003,152_y_f_n_a.png,I,z,381,7,3,1393.6000000089407,340282.09999999404,8039,NNB,B,6
7,test,2,0.0,1-Back,1.0,m,Tue Nov 04 2025 11:37:41 GMT-0600 (Central Standard Time),343091.59999999404,153_y_m_n_a.png,I,m,397,8,3,1410.5,341681.09999999404,8039,NNB,B,7
8,test,2,0.0,1-Back,1.0,m,Tue Nov 04 2025 11:37:41 GMT-0600 (Central Standard Time),344524.799999997,110_o_f_n_a.png,I,m,405,9,3,1429.2999999970198,343095.5,8039,NNB,B,8
9,test,2,0.0,1-Back,1.0,m,Tue Nov 04 2025 11:37:41 GMT-0600 (Central Standard Time),345990.799999997,178_m_m_n_a.png,I,m,445,10,3,1461.2000000029802,344529.59999999404,8039,NNB,B,9
10,test,2,1.0,1-Back,1.0,z,Tue Nov 04 2025 11:37:41 GMT-0600 (Central Standard Time),347341.700000003,178_m_m_n_a.png,I,z,322,11,3,1346.0,345995.700000003,8039,NNB,B,10
11,test,2,0.0,1-Back,1.0,m,Tue Nov 04 2025 11:37:41 GMT-0600 (Central Standard Time),348656.89999999106,110_o_f_n_a.png,I,m,284,12,3,1309.5,347347.39999999106,8039,NNB,B,11
12,test,2,0.0,1-Back,1.0,m,Tue Nov 04 2025 11:37:41 GMT-0600 (Central Standard Time),350139.700000003,086_o_f_n_a.png,I,m,457,13,3,1477.5,348662.200000003,8039,NNB,B,12
13,test,2,0.0,1-Back,1.0,m,Tue Nov 04 2025 11:37:41 GMT-0600 (Central Standard Time),351589.200000003,176_o_m_n_a.png,I,m,430,14,3,1443.7000000029802,350145.5,8039,NNB,B,13
14,test,2,0.0,1-Back,1.0,m,Tue Nov 04 2025 11:37:41 GMT-0600 (Central Standard Time),353055.39999999106,065_o_m_n_a.png,I,m,443,15,3,1461.199999988079,351594.200000003,8039,NNB,B,14
15,test,2,1.0,1-Back,1.0,z,Tue Nov 04 2025 11:37:41 GMT-0600 (Central Standard Time),354405.0,065_o_m_n_a.png,I,z,321,16,3,1345.1000000089407,353059.89999999106,8039,NNB,B,15
16,test,2,0.0,1-Back,1.0,m,Tue Nov 04 2025 11:37:41 GMT-0600 (Central Standard Time),355771.39999999106,013_y_m_n_a.png,I,m,347,17,3,1362.2999999970198,354409.09999999404,8039,NNB,B,16
16,test,2,1.0,1-Back,0.0,z,Tue Nov 04 2025 11:37:41 GMT-0600 (Central Standard Time),357153.89999999106,013_y_m_n_a.png,I,m,365,18,3,1378.3999999910593,355775.5,8039,NNB,B,17
0,test,3,1.0,1-Back,,,Tue Nov 04 2025 11:37:41 GMT-0600 (Central Standard Time),357153.89999999106,173_y_f_n_a.png,I,space,1424,1,3,1378.3999999910593,355775.5,8039,NNB,B,0
1,test,3,0.0,1-Back,1.0,m,Tue Nov 04 2025 11:37:41 GMT-0600 (Central Standard Time),362152.39999999106,065_o_m_n_a.png,I,m,442,1,3,1460.3999999910593,360692.0,8039,NNB,B,1
2,test,3,1.0,1-Back,1.0,z,Tue Nov 04 2025 11:37:41 GMT-0600 (Central Standard Time),363568.799999997,065_o_m_n_a.png,I,z,392,1,3,1410.7999999970198,362158.0,8039,NNB,B,2
3,test,3,0.0,1-Back,1.0,m,Tue Nov 04 2025 11:37:41 GMT-0600 (Central Standard Time),364851.59999999404,097_m_f_n_a.png,I,m,263,1,3,1278.5,363573.09999999404,8039,NNB,B,3
4,test,3,1.0,1-Back,1.0,z,Tue Nov 04 2025 11:37:41 GMT-0600 (Central Standard Time),366301.0,097_m_f_n_a.png,I,z,421,1,3,1442.5,364858.5,8039,NNB,B,4
5,test,3,0.0,1-Back,1.0,m,Tue Nov 04 2025 11:37:41 GMT-0600 (Central Standard Time),367667.200000003,110_o_f_n_a.png,I,m,347,1,3,1362.4000000059605,366304.799999997,8039,NNB,B,5
6,test,3,0.0,1-Back,1.0,m,Tue Nov 04 2025 11:37:41 GMT-0600 (Central Standard Time),369150.299999997,153_y_m_n_a.png,I,m,454,1,3,1477.5999999940395,367672.700000003,8039,NNB,B,6
7,test,3,0.0,1-Back,1.0,m,Tue Nov 04 2025 11:37:41 GMT-0600 (Central Standard Time),370616.59999999404,110_o_f_n_a.png,I,m,443,1,3,1460.3999999910593,369156.200000003,8039,NNB,B,7
8,test,3,0.0,1-Back,1.0,m,Tue Nov 04 2025 11:37:41 GMT-0600 (Central Standard Time),372132.700000003,013_y_m_n_a.png,I,m,496,1,3,1512.4000000059605,370620.299999997,8039,NNB,B,8
9,test,3,1.0,1-Back,1.0,z,Tue Nov 04 2025 11:37:41 GMT-0600 (Central Standard Time),373465.799999997,013_y_m_n_a.png,I,z,308,1,3,1327.7000000029802,372138.09999999404,8039,NNB,B,9
10,test,3,0.0,1-Back,1.0,m,Tue Nov 04 2025 11:37:41 GMT-0600 (Central Standard Time),374948.5,029_m_f_n_a.png,I,m,463,1,3,1475.6000000089407,373472.89999999106,8039,NNB,B,10
11,test,3,0.0,1-Back,1.0,m,Tue Nov 04 2025 11:37:41 GMT-0600 (Central Standard Time),376414.700000003,152_y_f_n_a.png,I,m,435,1,3,1462.0,374952.700000003,8039,NNB,B,11
12,test,3,1.0,1-Back,1.0,z,Tue Nov 04 2025 11:37:41 GMT-0600 (Central Standard Time),377814.5,152_y_f_n_a.png,I,z,370,1,3,1395.0,376419.5,8039,NNB,B,12
13,test,3,0.0,1-Back,1.0,m,Tue Nov 04 2025 11:37:41 GMT-0600 (Central Standard Time),379113.59999999404,029_m_f_n_a.png,I,m,282,1,3,1293.8999999910593,377819.700000003,8039,NNB,B,13
14,test,3,0.0,1-Back,1.0,m,Tue Nov 04 2025 11:37:41 GMT-0600 (Central Standard Time),380746.5,126_m_m_n_a.png,I,m,606,1,3,1629.4000000059605,379117.09999999404,8039,NNB,B,14
15,test,3,1.0,1-Back,1.0,z,Tue Nov 04 2025 11:37:41 GMT-0600 (Central Standard Time),382129.59999999404,126_m_m_n_a.png,I,z,357,1,3,1376.5,380753.09999999404,8039,NNB,B,15
16,test,3,0.0,1-Back,1.0,m,Tue Nov 04 2025 11:37:41 GMT-0600 (Central Standard Time),383496.0,086_o_f_n_a.png,I,m,344,1,3,1361.7999999970198,382134.200000003,8039,NNB,B,16
17,test,3,1.0,1-Back,1.0,z,Tue Nov 04 2025 11:37:41 GMT-0600 (Central Standard Time),384945.5,086_o_f_n_a.png,I,z,416,1,3,1444.5,383501.0,8039,NNB,B,17
0,test,4,1.0,1-Back,,,Tue Nov 04 2025 11:37:41 GMT-0600 (Central Standard Time),384945.5,097_m_f_n_a.png,I,space,1496,1,3,1444.5,383501.0,8039,NNB,B,0
1,test,4,0.0,1-Back,1.0,m,Tue Nov 04 2025 11:37:41 GMT-0600 (Central Standard Time),389960.59999999404,065_o_m_n_a.png,I,m,393,2,3,1410.5999999940395,388550.0,8039,NNB,B,1
2,test,4,0.0,1-Back,1.0,m,Tue Nov 04 2025 11:37:41 GMT-0600 (Central Standard Time),391393.299999997,097_m_f_n_a.png,I,m,401,3,3,1427.0,389966.299999997,8039,NNB,B,2
3,test,4,0.0,1-Back,1.0,m,Tue Nov 04 2025 11:37:41 GMT-0600 (Central Standard Time),392876.39999999106,110_o_f_n_a.png,I,m,463,4,3,1478.8999999910593,391397.5,8039,NNB,B,3
4,test,4,1.0,1-Back,1.0,z,Tue Nov 04 2025 11:37:41 GMT-0600 (Central Standard Time),394259.5,110_o_f_n_a.png,I,z,356,5,3,1379.4000000059605,392880.09999999404,8039,NNB,B,4
5,test,4,0.0,1-Back,1.0,m,Tue Nov 04 2025 11:37:41 GMT-0600 (Central Standard Time),395592.09999999404,152_y_f_n_a.png,I,m,301,6,3,1327.7000000029802,394264.39999999106,8039,NNB,B,5
6,test,4,0.0,1-Back,1.0,m,Tue Nov 04 2025 11:37:41 GMT-0600 (Central Standard Time),397058.200000003,153_y_m_n_a.png,I,m,448,7,3,1462.6000000089407,395595.59999999404,8039,NNB,B,6
7,test,4,1.0,1-Back,1.0,z,Tue Nov 04 2025 11:37:41 GMT-0600 (Central Standard Time),398407.799999997,153_y_m_n_a.png,I,z,318,8,3,1344.5999999940395,397063.200000003,8039,NNB,B,7
8,test,4,0.0,1-Back,1.0,m,Tue Nov 04 2025 11:37:41 GMT-0600 (Central Standard Time),399757.09999999404,152_y_f_n_a.png,I,m,329,9,3,1345.0999999940395,398412.0,8039,NNB,B,8
9,test,4,0.0,1-Back,1.0,m,Tue Nov 04 2025 11:37:41 GMT-0600 (Central Standard Time),401273.89999999106,178_m_m_n_a.png,I,m,500,10,3,1510.699999988079,399763.200000003,8039,NNB,B,9
10,test,4,1.0,1-Back,1.0,z,Tue Nov 04 2025 11:37:41 GMT-0600 (Central Standard Time),402639.89999999106,178_m_m_n_a.png,I,z,335,11,3,1360.3999999910593,401279.5,8039,NNB,B,10
11,test,4,0.0,1-Back,1.0,m,Tue Nov 04 2025 11:37:41 GMT-0600 (Central Standard Time),403939.39999999106,086_o_f_n_a.png,I,m,281,12,3,1295.3999999910593,402644.0,8039,NNB,B,11
12,test,4,0.0,1-Back,1.0,m,Tue Nov 04 2025 11:37:41 GMT-0600 (Central Standard Time),405472.39999999106,176_o_m_n_a.png,I,m,484,13,3,1529.199999988079,403943.200000003,8039,NNB,B,12
13,test,4,0.0,1-Back,1.0,m,Tue Nov 04 2025 11:37:41 GMT-0600 (Central Standard Time),406905.200000003,086_o_f_n_a.png,I,m,409,14,3,1424.300000011921,405480.89999999106,8039,NNB,B,13
14,test,4,0.0,1-Back,1.0,m,Tue Nov 04 2025 11:37:41 GMT-0600 (Central Standard Time),408338.299999997,173_y_f_n_a.png,I,m,408,15,3,1426.5,406911.799999997,8039,NNB,B,14
15,test,4,1.0,1-Back,1.0,z,Tue Nov 04 2025 11:37:41 GMT-0600 (Central Standard Time),409671.0,173_y_f_n_a.png,I,z,311,16,3,1327.7999999970198,408343.200000003,8039,NNB,B,15
16,test,4,0.0,1-Back,1.0,m,Tue Nov 04 2025 11:37:41 GMT-0600 (Central Standard Time),411120.5,029_m_f_n_a.png,I,m,417,17,3,1443.6000000089407,409676.89999999106,8039,NNB,B,16
17,test,4,1.0,1-Back,1.0,z,Tue Nov 04 2025 11:37:41 GMT-0600 (Central Standard Time),412653.299999997,029_m_f_n_a.png,I,z,504,18,3,1527.4000000059605,411125.89999999106,8039,NNB,B,17
0,test,5,1.0,1-Back,,,Tue Nov 04 2025 11:37:41 GMT-0600 (Central Standard Time),412653.299999997,176_o_m_n_a.png,I,space,1539,1,3,1527.4000000059605,411125.89999999106,8039,NNB,B,0
1,test,5,1.0,1-Back,1.0,z,Tue Nov 04 2025 11:37:41 GMT-0600 (Central Standard Time),417685.09999999404,176_o_m_n_a.png,I,z,438,2,3,1461.2999999970198,416223.799999997,8039,NNB,B,1
2,test,5,0.0,1-Back,1.0,m,Tue Nov 04 2025 11:37:41 GMT-0600 (Central Standard Time),418934.89999999106,152_y_f_n_a.png,I,m,228,3,3,1245.0,417689.89999999106,8039,NNB,B,2
3,test,5,0.0,1-Back,1.0,m,Tue Nov 04 2025 11:37:41 GMT-0600 (Central Standard Time),420417.59999999404,153_y_m_n_a.png,I,m,466,4,3,1476.7000000029802,418940.89999999106,8039,NNB,B,3
4,test,5,0.0,1-Back,1.0,m,Tue Nov 04 2025 11:37:41 GMT-0600 (Central Standard Time),421883.89999999106,152_y_f_n_a.png,I,m,448,5,3,1462.5999999940395,420421.299999997,8039,NNB,B,4
5,test,5,0.0,1-Back,1.0,m,Tue Nov 04 2025 11:37:41 GMT-0600 (Central Standard Time),423316.59999999404,126_m_m_n_a.png,I,m,405,6,3,1428.3999999910593,421888.200000003,8039,NNB,B,5
6,test,5,1.0,1-Back,1.0,z,Tue Nov 04 2025 11:37:41 GMT-0600 (Central Standard Time),424649.700000003,126_m_m_n_a.png,I,z,298,7,3,1328.5,423321.200000003,8039,NNB,B,6
7,test,5,0.0,1-Back,1.0,m,Tue Nov 04 2025 11:37:41 GMT-0600 (Central Standard Time),425915.89999999106,173_y_f_n_a.png,I,m,248,8,3,1261.0,424654.89999999106,8039,NNB,B,7
8,test,5,0.0,1-Back,1.0,m,Tue Nov 04 2025 11:37:41 GMT-0600 (Central Standard Time),427798.89999999106,013_y_m_n_a.png,I,m,850,9,3,1877.0,425921.89999999106,8039,NNB,B,8
8,test,5,0.0,1-Back,0.0,m,Tue Nov 04 2025 11:37:41 GMT-0600 (Central Standard Time),429181.700000003,173_y_f_n_a.png,I,z,354,10,3,1379.0,427802.700000003,8039,NNB,B,9
9,test,5,0.0,1-Back,1.0,m,Tue Nov 04 2025 11:37:41 GMT-0600 (Central Standard Time),430714.200000003,086_o_f_n_a.png,I,m,515,11,3,1528.1000000089407,429186.09999999404,8039,NNB,B,10
9,test,5,1.0,1-Back,0.0,z,Tue Nov 04 2025 11:37:41 GMT-0600 (Central Standard Time),432197.299999997,086_o_f_n_a.png,I,m,455,12,3,1478.5,430718.799999997,8039,NNB,B,11
10,test,5,0.0,1-Back,1.0,m,Tue Nov 04 2025 11:37:41 GMT-0600 (Central Standard Time),433647.0,065_o_m_n_a.png,I,m,420,13,3,1446.1000000089407,432200.89999999106,8039,NNB,B,12
11,test,5,0.0,1-Back,1.0,m,Tue Nov 04 2025 11:37:41 GMT-0600 (Central Standard Time),435113.5,097_m_f_n_a.png,I,m,433,14,3,1461.2999999970198,433652.200000003,8039,NNB,B,13
12,test,5,1.0,1-Back,1.0,z,Tue Nov 04 2025 11:37:41 GMT-0600 (Central Standard Time),436562.39999999106,097_m_f_n_a.png,I,z,431,15,3,1445.2999999970198,435117.09999999404,8039,NNB,B,14
13,test,5,0.0,1-Back,1.0,m,Tue Nov 04 2025 11:37:41 GMT-0600 (Central Standard Time),437962.299999997,065_o_m_n_a.png,I,m,375,16,3,1394.0999999940395,436568.200000003,8039,NNB,B,15
14,test,5,0.0,1-Back,1.0,m,Tue Nov 04 2025 11:37:41 GMT-0600 (Central Standard Time),439411.59999999404,029_m_f_n_a.png,I,m,423,17,3,1445.0999999940395,437966.5,8039,NNB,B,16
15,test,5,0.0,1-Back,1.0,m,Tue Nov 04 2025 11:37:41 GMT-0600 (Central Standard Time),440894.799999997,178_m_m_n_a.png,I,m,452,18,3,1477.2999999970198,439417.5,8039,NNB,B,17
0,prac,1,0.0,2-Back,,,Tue Nov 04 2025 11:37:41 GMT-0600 (Central Standard Time),440894.799999997,013_y_m_n_a.png,I,space,21597,1,3,1477.2999999970198,439417.5,8039,NNB,B,0
0,prac,1,0.0,2-Back,,,Tue Nov 04 2025 11:37:41 GMT-0600 (Central Standard Time),440894.799999997,029_m_f_n_a.png,I,space,21597,2,3,1477.2999999970198,439417.5,8039,NNB,B,0
1,prac,1,1.0,2-Back,1.0,m,Tue Nov 04 2025 11:37:41 GMT-0600 (Central Standard Time),588165.200000003,065_o_m_n_a.png,I,m,886,3,3,1757.2000000029802,586408.0,8039,NNB,B,1
2,prac,1,0.0,2-Back,1.0,m,Tue Nov 04 2025 11:37:41 GMT-0600 (Central Standard Time),589597.799999997,086_o_f_n_a.png,I,m,547,4,3,1424.2000000029802,588173.599999994,8039,NNB,B,2
3,prac,1,0.0,2-Back,1.0,z,Tue Nov 04 2025 11:37:41 GMT-0600 (Central Standard Time),590781.0,065_o_m_n_a.png,I,z,403,5,3,1175.0,589606.0,8039,NNB,B,3
4,prac,1,1.0,2-Back,1.0,z,Tue Nov 04 2025 11:37:41 GMT-0600 (Central Standard Time),591997.099999994,086_o_f_n_a.png,I,z,429,6,3,1208.2999999970198,590788.799999997,8039,NNB,B,4
5,prac,1,0.0,2-Back,1.0,m,Tue Nov 04 2025 11:37:41 GMT-0600 (Central Standard Time),593330.5,178_m_m_n_a.png,I,m,458,7,3,1326.0,592004.5,8039,NNB,B,5
6,prac,1,0.0,2-Back,1.0,m,Tue Nov 04 2025 11:37:41 GMT-0600 (Central Standard Time),594746.599999994,176_o_m_n_a.png,I,m,531,8,3,1408.8999999910593,593337.700000003,8039,NNB,B,6
7,prac,1,0.0,2-Back,1.0,m,Tue Nov 04 2025 11:37:41 GMT-0600 (Central Standard Time),596146.200000003,173_y_f_n_a.png,I,m,538,9,3,1391.9000000059605,594754.299999997,8039,NNB,B,7
8,prac,1,1.0,2-Back,1.0,z,Tue Nov 04 2025 11:37:41 GMT-0600 (Central Standard Time),597379.099999994,176_o_m_n_a.png,I,z,447,10,3,1225.3999999910593,596153.700000003,8039,NNB,B,8
9,prac,1,0.0,2-Back,1.0,m,Tue Nov 04 2025 11:37:41 GMT-0600 (Central Standard Time),598761.700000003,152_y_f_n_a.png,I,m,519,11,3,1374.800000011921,597386.8999999911,8039,NNB,B,9
9,prac,1,0.0,2-Back,0.0,m,Tue Nov 04 2025 11:37:41 GMT-0600 (Central Standard Time),600278.099999994,178_m_m_n_a.png,I,z,728,12,3,1508.5999999940395,598769.5,8039,NNB,B,10
0,test,1,0.0,2-Back,,,Tue Nov 04 2025 11:37:41 GMT-0600 (Central Standard Time),600278.099999994,153_y_m_n_a.png,I,space,23322,1,3,1508.5999999940395,598769.5,8039,NNB,B,0
0,test,1,0.0,2-Back,,,Tue Nov 04 2025 11:37:41 GMT-0600 (Central Standard Time),600278.099999994,153_y_m_n_a.png,I,space,23322,2,3,1508.5999999940395,598769.5,8039,NNB,B,0
1,test,1,0.0,2-Back,1.0,m,Tue Nov 04 2025 11:37:41 GMT-0600 (Central Standard Time),645030.799999997,086_o_f_n_a.png,I,m,511,3,3,1526.7000000029802,643504.099999994,8039,NNB,B,1
2,test,1,0.0,2-Back,1.0,m,Tue Nov 04 2025 11:37:41 GMT-0600 (Central Standard Time),646563.700000003,126_m_m_n_a.png,I,m,506,4,3,1526.7000000029802,645037.0,8039,NNB,B,2
3,test,1,1.0,2-Back,1.0,z,Tue Nov 04 2025 11:37:41 GMT-0600 (Central Standard Time),647979.700000003,086_o_f_n_a.png,I,z,396,5,3,1410.800000011921,646568.8999999911,8039,NNB,B,3
4,test,1,0.0,2-Back,1.0,m,Tue Nov 04 2025 11:37:41 GMT-0600 (Central Standard Time),649446.0,152_y_f_n_a.png,I,m,445,6,3,1460.6000000089407,647985.3999999911,8039,NNB,B,4
4,test,1,0.0,2-Back,0.0,m,Tue Nov 04 2025 11:37:41 GMT-0600 (Central Standard Time),651145.700000003,126_m_m_n_a.png,I,z,683,7,3,1695.0,649450.700000003,8039,NNB,B,5
5,test,1,1.0,2-Back,1.0,z,Tue Nov 04 2025 11:37:41 GMT-0600 (Central Standard Time),652828.299999997,152_y_f_n_a.png,I,z,656,8,3,1679.2999999970198,651149.0,8039,NNB,B,6
6,test,1,0.0,2-Back,1.0,m,Tue Nov 04 2025 11:37:41 GMT-0600 (Central Standard Time),654361.200000003,013_y_m_n_a.png,I,m,509,9,3,1528.300000011921,652832.8999999911,8039,NNB,B,7
7,test,1,0.0,2-Back,1.0,m,Tue Nov 04 2025 11:37:41 GMT-0600 (Central Standard Time),656143.700000003,110_o_f_n_a.png,I,m,759,10,3,1778.6000000089407,654365.099999994,8039,NNB,B,8
8,test,1,1.0,2-Back,1.0,z,Tue Nov 04 2025 11:37:41 GMT-0600 (Central Standard Time),657593.5,013_y_m_n_a.png,I,z,417,11,3,1444.1000000089407,656149.3999999911,8039,NNB,B,9
9,test,1,0.0,2-Back,1.0,m,Tue Nov 04 2025 11:37:41 GMT-0600 (Central Standard Time),659059.5,029_m_f_n_a.png,I,m,447,12,3,1460.2999999970198,657599.200000003,8039,NNB,B,10
9,test,1,0.0,2-Back,0.0,m,Tue Nov 04 2025 11:37:41 GMT-0600 (Central Standard Time),661525.8999999911,029_m_f_n_a.png,I,z,1445,13,3,2461.699999988079,659064.200000003,8039,NNB,B,11
10,test,1,0.0,2-Back,1.0,m,Tue Nov 04 2025 11:37:41 GMT-0600 (Central Standard Time),663308.200000003,065_o_m_n_a.png,I,m,754,14,3,1778.300000011921,661529.8999999911,8039,NNB,B,12
11,test,1,0.0,2-Back,1.0,m,Tue Nov 04 2025 11:37:41 GMT-0600 (Central Standard Time),664957.799999997,110_o_f_n_a.png,I,m,620,15,3,1645.0999999940395,663312.700000003,8039,NNB,B,13
12,test,1,1.0,2-Back,1.0,z,Tue Nov 04 2025 11:37:41 GMT-0600 (Central Standard Time),666373.8999999911,065_o_m_n_a.png,I,z,396,16,3,1411.5999999940395,664962.299999997,8039,NNB,B,14
13,test,1,0.0,2-Back,1.0,m,Tue Nov 04 2025 11:37:41 GMT-0600 (Central Standard Time),668073.599999994,097_m_f_n_a.png,I,m,682,17,3,1695.7000000029802,666377.8999999911,8039,NNB,B,15
14,test,1,0.0,2-Back,1.0,m,Tue Nov 04 2025 11:37:41 GMT-0600 (Central Standard Time),669939.3999999911,178_m_m_n_a.png,I,m,839,18,3,1861.699999988079,668077.700000003,8039,NNB,B,16
0,test,2,0.0,2-Back,,,Tue Nov 04 2025 11:37:41 GMT-0600 (Central Standard Time),669939.3999999911,178_m_m_n_a.png,I,space,2198,1,3,1861.699999988079,668077.700000003,8039,NNB,B,0
0,test,2,0.0,2-Back,,,Tue Nov 04 2025 11:37:41 GMT-0600 (Central Standard Time),669939.3999999911,173_y_f_n_a.png,I,space,2198,2,3,1861.699999988079,668077.700000003,8039,NNB,B,0
1,test,2,1.0,2-Back,1.0,z,Tue Nov 04 2025 11:37:41 GMT-0600 (Central Standard Time),678953.3999999911,178_m_m_n_a.png,I,z,659,3,3,1677.5,677275.8999999911,8039,NNB,B,1
2,test,2,0.0,2-Back,1.0,m,Tue Nov 04 2025 11:37:41 GMT-0600 (Central Standard Time),680653.0,097_m_f_n_a.png,I,m,680,4,3,1695.2999999970198,678957.700000003,8039,NNB,B,2
3,test,2,0.0,2-Back,1.0,m,Tue Nov 04 2025 11:37:41 GMT-0600 (Central Standard Time),682335.3999999911,173_y_f_n_a.png,I,m,652,5,3,1678.8999999910593,680656.5,8039,NNB,B,3
4,test,2,0.0,2-Back,1.0,m,Tue Nov 04 2025 11:37:41 GMT-0600 (Central Standard Time),683901.799999997,065_o_m_n_a.png,I,m,546,6,3,1562.2000000029802,682339.599999994,8039,NNB,B,4
5,test,2,0.0,2-Back,1.0,m,Tue Nov 04 2025 11:37:41 GMT-0600 (Central Standard Time),685635.700000003,152_y_f_n_a.png,I,m,715,7,3,1729.6000000089407,683906.099999994,8039,NNB,B,5
6,test,2,1.0,2-Back,1.0,z,Tue Nov 04 2025 11:37:41 GMT-0600 (Central Standard Time),687084.200000003,065_o_m_n_a.png,I,z,429,8,3,1442.9000000059605,685641.299999997,8039,NNB,B,6
7,test,2,0.0,2-Back,1.0,m,Tue Nov 04 2025 11:37:41 GMT-0600 (Central Standard Time),688600.5,013_y_m_n_a.png,I,m,484,9,3,1512.6000000089407,687087.8999999911,8039,NNB,B,7
8,test,2,0.0,2-Back,1.0,m,Tue Nov 04 2025 11:37:41 GMT-0600 (Central Standard Time),690749.8999999911,013_y_m_n_a.png,I,m,1129,10,3,2145.7999999970198,688604.099999994,8039,NNB,B,8
9,test,2,0.0,2-Back,1.0,m,Tue Nov 04 2025 11:37:41 GMT-0600 (Central Standard Time),692515.700000003,029_m_f_n_a.png,I,m,746,11,3,1761.300000011921,690754.3999999911,8039,NNB,B,9
10,test,2,0.0,2-Back,1.0,m,Tue Nov 04 2025 11:37:41 GMT-0600 (Central Standard Time),694315.3999999911,173_y_f_n_a.png,I,m,780,12,3,1792.3999999910593,692523.0,8039,NNB,B,10
11,test,2,1.0,2-Back,1.0,z,Tue Nov 04 2025 11:37:41 GMT-0600 (Central Standard Time),695698.0,029_m_f_n_a.png,I,z,365,13,3,1378.2999999970198,694319.700000003,8039,NNB,B,11
12,test,2,0.0,2-Back,1.0,m,Tue Nov 04 2025 11:37:41 GMT-0600 (Central Standard Time),697197.8999999911,176_o_m_n_a.png,I,m,470,14,3,1494.699999988079,695703.200000003,8039,NNB,B,12
13,test,2,0.0,2-Back,1.0,m,Tue Nov 04 2025 11:37:41 GMT-0600 (Central Standard Time),698930.5,176_o_m_n_a.png,I,m,707,15,3,1728.7999999970198,697201.700000003,8039,NNB,B,13
14,test,2,0.0,2-Back,1.0,m,Tue Nov 04 2025 11:37:41 GMT-0600 (Central Standard Time),700746.200000003,110_o_f_n_a.png,I,m,799,16,3,1810.9000000059605,698935.299999997,8039,NNB,B,14
15,test,2,0.0,2-Back,1.0,m,Tue Nov 04 2025 11:37:41 GMT-0600 (Central Standard Time),702496.099999994,126_m_m_n_a.png,I,m,727,17,3,1744.0999999940395,700752.0,8039,NNB,B,15
16,test,2,1.0,2-Back,1.0,z,Tue Nov 04 2025 11:37:41 GMT-0600 (Central Standard Time),703945.599999994,110_o_f_n_a.png,I,z,425,18,3,1444.5999999940395,702501.0,8039,NNB,B,16
0,test,3,1.0,2-Back,,,Tue Nov 04 2025 11:37:41 GMT-0600 (Central Standard Time),703945.599999994,153_y_m_n_a.png,I,space,1759,1,3,1444.5999999940395,702501.0,8039,NNB,B,0
0,test,3,1.0,2-Back,,,Tue Nov 04 2025 11:37:41 GMT-0600 (Central Standard Time),703945.599999994,153_y_m_n_a.png,I,space,1759,2,3,1444.5999999940395,702501.0,8039,NNB,B,0
1,test,3,0.0,2-Back,1.0,m,Tue Nov 04 2025 11:37:41 GMT-0600 (Central Standard Time),712426.5,110_o_f_n_a.png,I,m,558,3,3,1575.4000000059605,710851.099999994,8039,NNB,B,1
2,test,3,0.0,2-Back,1.0,m,Tue Nov 04 2025 11:37:41 GMT-0600 (Central Standard Time),714059.200000003,178_m_m_n_a.png,I,m,606,4,3,1628.0,712431.200000003,8039,NNB,B,2
3,test,3,1.0,2-Back,1.0,z,Tue Nov 04 2025 11:37:41 GMT-0600 (Central Standard Time),715575.299999997,110_o_f_n_a.png,I,z,486,5,3,1510.0,714065.299999997,8039,NNB,B,3
4,test,3,0.0,2-Back,1.0,m,Tue Nov 04 2025 11:37:41 GMT-0600 (Central Standard Time),717108.299999997,013_y_m_n_a.png,I,m,505,6,3,1529.2000000029802,715579.099999994,8039,NNB,B,4
5,test,3,0.0,2-Back,1.0,m,Tue Nov 04 2025 11:37:41 GMT-0600 (Central Standard Time),718974.099999994,178_m_m_n_a.png,I,m,836,7,3,1861.8999999910593,717112.200000003,8039,NNB,B,5
6,test,3,1.0,2-Back,1.0,z,Tue Nov 04 2025 11:37:41 GMT-0600 (Central Standard Time),720457.200000003,013_y_m_n_a.png,I,z,450,8,3,1477.2000000029802,718980.0,8039,NNB,B,6
7,test,3,0.0,2-Back,1.0,m,Tue Nov 04 2025 11:37:41 GMT-0600 (Central Standard Time),722339.700000003,173_y_f_n_a.png,I,m,864,9,3,1878.800000011921,720460.8999999911,8039,NNB,B,7
8,test,3,0.0,2-Back,1.0,m,Tue Nov 04 2025 11:37:41 GMT-0600 (Central Standard Time),723906.200000003,126_m_m_n_a.png,I,m,540,10,3,1562.2000000029802,722344.0,8039,NNB,B,8
9,test,3,1.0,2-Back,1.0,z,Tue Nov 04 2025 11:37:41 GMT-0600 (Central Standard Time),725372.599999994,173_y_f_n_a.png,I,z,439,11,3,1461.8999999910593,723910.700000003,8039,NNB,B,9
10,test,3,1.0,2-Back,1.0,z,Tue Nov 04 2025 11:37:41 GMT-0600 (Central Standard Time),727005.200000003,126_m_m_n_a.png,I,z,605,12,3,1627.1000000089407,725378.099999994,8039,NNB,B,10
11,test,3,0.0,2-Back,1.0,m,Tue Nov 04 2025 11:37:41 GMT-0600 (Central Standard Time),728521.099999994,110_o_f_n_a.png,I,m,483,13,3,1512.0999999940395,727009.0,8039,NNB,B,11
12,test,3,0.0,2-Back,1.0,m,Tue Nov 04 2025 11:37:41 GMT-0600 (Central Standard Time),730104.299999997,097_m_f_n_a.png,I,m,552,14,3,1579.7000000029802,728524.599999994,8039,NNB,B,12
13,test,3,0.0,2-Back,1.0,m,Tue Nov 04 2025 11:37:41 GMT-0600 (Central Standard Time),731653.599999994,065_o_m_n_a.png,I,m,529,15,3,1544.0999999940395,730109.5,8039,NNB,B,13
14,test,3,1.0,2-Back,1.0,z,Tue Nov 04 2025 11:37:41 GMT-0600 (Central Standard Time),733195.799999997,097_m_f_n_a.png,I,z,526,16,3,1538.5,731657.299999997,8039,NNB,B,14
15,test,3,0.0,2-Back,1.0,m,Tue Nov 04 2025 11:37:41 GMT-0600 (Central Standard Time),734702.8999999911,086_o_f_n_a.png,I,m,494,17,3,1502.5999999940395,733200.299999997,8039,NNB,B,15
16,test,3,0.0,2-Back,1.0,m,Tue Nov 04 2025 11:37:41 GMT-0600 (Central Standard Time),736335.799999997,086_o_f_n_a.png,I,m,609,18,3,1628.5,734707.299999997,8039,NNB,B,16
0,test,4,0.0,2-Back,,,Tue Nov 04 2025 11:37:41 GMT-0600 (Central Standard Time),736335.799999997,176_o_m_n_a.png,I,space,1633,1,3,1628.5,734707.299999997,8039,NNB,B,0
0,test,4,0.0,2-Back,,,Tue Nov 04 2025 11:37:41 GMT-0600 (Central Standard Time),736335.799999997,152_y_f_n_a.png,I,space,1633,2,3,1628.5,734707.299999997,8039,NNB,B,0
1,test,4,1.0,2-Back,1.0,z,Tue Nov 04 2025 11:37:41 GMT-0600 (Central Standard Time),744765.8999999911,176_o_m_n_a.png,I,z,537,3,3,1561.699999988079,743204.200000003,8039,NNB,B,1
2,test,4,1.0,2-Back,1.0,z,Tue Nov 04 2025 11:37:41 GMT-0600 (Central Standard Time),746499.0,152_y_f_n_a.png,I,z,700,4,3,1727.6000000089407,744771.3999999911,8039,NNB,B,2
3,test,4,0.0,2-Back,1.0,m,Tue Nov 04 2025 11:37:41 GMT-0600 (Central Standard Time),747931.8999999911,110_o_f_n_a.png,I,m,406,5,3,1427.199999988079,746504.700000003,8039,NNB,B,3
4,test,4,0.0,2-Back,1.0,m,Tue Nov 04 2025 11:37:41 GMT-0600 (Central Standard Time),749431.3999999911,110_o_f_n_a.png,I,m,477,6,3,1495.7999999970198,747935.599999994,8039,NNB,B,4
5,test,4,0.0,2-Back,1.0,m,Tue Nov 04 2025 11:37:41 GMT-0600 (Central Standard Time),751247.5,029_m_f_n_a.png,I,m,794,7,3,1810.7000000029802,749436.799999997,8039,NNB,B,5
6,test,4,0.0,2-Back,1.0,m,Tue Nov 04 2025 11:37:41 GMT-0600 (Central Standard Time),753013.599999994,013_y_m_n_a.png,I,m,746,8,3,1761.0,751252.599999994,8039,NNB,B,6
7,test,4,1.0,2-Back,1.0,z,Tue Nov 04 2025 11:37:41 GMT-0600 (Central Standard Time),754430.0,029_m_f_n_a.png,I,z,388,9,3,1411.1000000089407,753018.8999999911,8039,NNB,B,7
8,test,4,0.0,2-Back,1.0,m,Tue Nov 04 2025 11:37:41 GMT-0600 (Central Standard Time),755896.200000003,126_m_m_n_a.png,I,m,434,10,3,1461.800000011921,754434.3999999911,8039,NNB,B,8
9,test,4,0.0,2-Back,1.0,m,Tue Nov 04 2025 11:37:41 GMT-0600 (Central Standard Time),758078.599999994,013_y_m_n_a.png,I,m,1162,11,3,2178.3999999910593,755900.200000003,8039,NNB,B,9
10,test,4,0.0,2-Back,1.0,m,Tue Nov 04 2025 11:37:41 GMT-0600 (Central Standard Time),759711.3999999911,086_o_f_n_a.png,I,m,610,12,3,1628.3999999910593,758083.0,8039,NNB,B,10
11,test,4,0.0,2-Back,1.0,m,Tue Nov 04 2025 11:37:41 GMT-0600 (Central Standard Time),761544.299999997,153_y_m_n_a.png,I,m,802,13,3,1829.5,759714.799999997,8039,NNB,B,11
12,test,4,1.0,2-Back,1.0,z,Tue Nov 04 2025 11:37:41 GMT-0600 (Central Standard Time),763027.0,086_o_f_n_a.png,I,z,457,14,3,1478.7999999970198,761548.200000003,8039,NNB,B,12
13,test,4,1.0,2-Back,1.0,z,Tue Nov 04 2025 11:37:41 GMT-0600 (Central Standard Time),765126.5,153_y_m_n_a.png,I,z,1069,15,3,2095.9000000059605,763030.599999994,8039,NNB,B,13
14,test,4,0.0,2-Back,1.0,m,Tue Nov 04 2025 11:37:41 GMT-0600 (Central Standard Time),766842.5,178_m_m_n_a.png,I,m,690,16,3,1712.0,765130.5,8039,NNB,B,14
15,test,4,0.0,2-Back,1.0,m,Tue Nov 04 2025 11:37:41 GMT-0600 (Central Standard Time),768608.799999997,097_m_f_n_a.png,I,m,734,17,3,1759.7000000029802,766849.099999994,8039,NNB,B,15
16,test,4,1.0,2-Back,1.0,z,Tue Nov 04 2025 11:37:41 GMT-0600 (Central Standard Time),770708.200000003,178_m_m_n_a.png,I,z,1081,18,3,2095.2000000029802,768613.0,8039,NNB,B,16
0,test,5,1.0,2-Back,,,Tue Nov 04 2025 11:37:41 GMT-0600 (Central Standard Time),770708.200000003,153_y_m_n_a.png,I,space,6989,1,3,2095.2000000029802,768613.0,8039,NNB,B,0
0,test,5,1.0,2-Back,,,Tue Nov 04 2025 11:37:41 GMT-0600 (Central Standard Time),770708.200000003,097_m_f_n_a.png,I,space,6989,2,3,2095.2000000029802,768613.0,8039,NNB,B,0
1,test,5,1.0,2-Back,1.0,z,Tue Nov 04 2025 11:37:41 GMT-0600 (Central Standard Time),784370.200000003,153_y_m_n_a.png,I,z,598,3,3,1610.4000000059605,782759.799999997,8039,NNB,B,1
2,test,5,1.0,2-Back,1.0,z,Tue Nov 04 2025 11:37:41 GMT-0600 (Central Standard Time),786070.0,097_m_f_n_a.png,I,z,679,4,3,1696.0,784374.0,8039,NNB,B,2
3,test,5,0.0,2-Back,1.0,m,Tue Nov 04 2025 11:37:41 GMT-0600 (Central Standard Time),787569.5,086_o_f_n_a.png,I,m,466,5,3,1495.2999999970198,786074.200000003,8039,NNB,B,3
4,test,5,0.0,2-Back,1.0,m,Tue Nov 04 2025 11:37:41 GMT-0600 (Central Standard Time),789102.3999999911,153_y_m_n_a.png,I,m,512,6,3,1528.7999999970198,787573.599999994,8039,NNB,B,4
5,test,5,0.0,2-Back,1.0,m,Tue Nov 04 2025 11:37:41 GMT-0600 (Central Standard Time),790668.599999994,173_y_f_n_a.png,I,m,539,7,3,1561.8999999910593,789106.700000003,8039,NNB,B,5
6,test,5,0.0,2-Back,1.0,m,Tue Nov 04 2025 11:37:41 GMT-0600 (Central Standard Time),792217.8999999911,086_o_f_n_a.png,I,m,533,8,3,1545.2999999970198,790672.599999994,8039,NNB,B,6
7,test,5,1.0,2-Back,1.0,z,Tue Nov 04 2025 11:37:41 GMT-0600 (Central Standard Time),793984.099999994,173_y_f_n_a.png,I,z,735,9,3,1761.8999999910593,792222.200000003,8039,NNB,B,7
8,test,5,0.0,2-Back,1.0,m,Tue Nov 04 2025 11:37:41 GMT-0600 (Central Standard Time),795617.099999994,065_o_m_n_a.png,I,m,609,10,3,1629.0999999940395,793988.0,8039,NNB,B,8
9,test,5,0.0,2-Back,1.0,m,Tue Nov 04 2025 11:37:41 GMT-0600 (Central Standard Time),797316.3999999911,029_m_f_n_a.png,I,m,681,11,3,1695.5999999940395,795620.799999997,8039,NNB,B,9
10,test,5,0.0,2-Back,1.0,m,Tue Nov 04 2025 11:37:41 GMT-0600 (Central Standard Time),798966.0,126_m_m_n_a.png,I,m,629,12,3,1645.2999999970198,797320.700000003,8039,NNB,B,10
11,test,5,0.0,2-Back,1.0,m,Tue Nov 04 2025 11:37:41 GMT-0600 (Central Standard Time),800798.700000003,065_o_m_n_a.png,I,m,810,13,3,1828.1000000089407,798970.599999994,8039,NNB,B,11
12,test,5,1.0,2-Back,1.0,z,Tue Nov 04 2025 11:37:41 GMT-0600 (Central Standard Time),802348.099999994,126_m_m_n_a.png,I,z,531,14,3,1544.0999999940395,800804.0,8039,NNB,B,12
13,test,5,0.0,2-Back,1.0,m,Tue Nov 04 2025 11:37:41 GMT-0600 (Central Standard Time),804030.599999994,152_y_f_n_a.png,I,m,660,15,3,1676.7999999970198,802353.799999997,8039,NNB,B,13
14,test,5,0.0,2-Back,1.0,m,Tue Nov 04 2025 11:37:41 GMT-0600 (Central Standard Time),805813.799999997,176_o_m_n_a.png,I,m,754,16,3,1779.5,804034.299999997,8039,NNB,B,14
15,test,5,0.0,2-Back,1.0,m,Tue Nov 04 2025 11:37:41 GMT-0600 (Central Standard Time),807596.5,029_m_f_n_a.png,I,m,756,17,3,1778.7999999970198,805817.700000003,8039,NNB,B,15
16,test,5,1.0,2-Back,1.0,z,Tue Nov 04 2025 11:37:41 GMT-0600 (Central Standard Time),809329.3999999911,176_o_m_n_a.png,I,z,708,18,3,1729.0999999940395,807600.299999997,8039,NNB,B,16
