acc_sum,block,block_c,block_cond,con_img,correct,correct_response,datetime,endtime,face,jitter,line,project,response,response_time,row_sel,session_number,start_end,starttime,subject_id,task,task_vers,trial
1,prac,1,A,haborder.png,1,z,Thu Dec 04 2025 15:42:36 GMT-0500 (Eastern Standard Time),106884.5,CFD-BM-043-014-A.jpg,1600,solid,I,z,986,2,1,3400.2000000476837,103484.29999995232,9035,ATS,C,1
2,prac,1,A,haborder.png,1,z,Thu Dec 04 2025 15:42:36 GMT-0500 (Eastern Standard Time),109401.10000014305,CFD-WF-023-013-A.jpg,1000,solid,I,z,711,12,1,5916.800000190735,103484.29999995232,9035,ATS,C,2
3,prac,1,A,haborder.png,1,m,Thu Dec 04 2025 15:42:36 GMT-0500 (Eastern Standard Time),112334.20000004768,CFD-BM-022-004-HC.jpg,1500,solid,I,m,622,3,1,8849.900000095367,103484.29999995232,9035,ATS,C,3
4,prac,1,A,haborder.png,1,z,Thu Dec 04 2025 15:42:36 GMT-0500 (Eastern Standard Time),115751.10000014305,CFD-WM-036-018-A.jpg,1900,solid,I,z,714,8,1,12266.800000190735,103484.29999995232,9035,ATS,C,4
5,prac,1,A,haborder.png,1,m,Thu Dec 04 2025 15:42:36 GMT-0500 (Eastern Standard Time),118984.20000004768,CFD-WM-035-036-HC.jpg,1700,solid,I,m,728,9,1,15499.900000095367,103484.29999995232,9035,ATS,C,5
6,prac,1,A,haborder.png,1,z,Thu Dec 04 2025 15:42:36 GMT-0500 (Eastern Standard Time),121600.90000009537,CFD-BF-002-018-A.jpg,1200,solid,I,z,603,6,1,18116.60000014305,103484.29999995232,9035,ATS,C,6
7,prac,1,A,haborder.png,1,m,Thu Dec 04 2025 15:42:36 GMT-0500 (Eastern Standard Time),124501.20000004768,CFD-WM-028-005-HC.jpg,1400,solid,I,m,699,7,1,21016.900000095367,103484.29999995232,9035,ATS,C,7
8,prac,1,A,haborder.png,1,z,Thu Dec 04 2025 15:42:36 GMT-0500 (Eastern Standard Time),127600.90000009537,CFD-WF-037-016-A.jpg,1600,solid,I,z,686,10,1,24116.60000014305,103484.29999995232,9035,ATS,C,8
9,prac,1,A,haborder.png,1,z,Thu Dec 04 2025 15:42:36 GMT-0500 (Eastern Standard Time),130217.5,CFD-BF-031-020-A.jpg,1000,solid,I,z,810,4,1,26733.200000047684,103484.29999995232,9035,ATS,C,9
10,prac,1,A,haborder.png,1,m,Thu Dec 04 2025 15:42:36 GMT-0500 (Eastern Standard Time),133367.5,CFD-BM-034-035-HC.jpg,1700,solid,I,m,629,1,1,29883.200000047684,103484.29999995232,9035,ATS,C,10
11,prac,1,A,haborder.png,1,m,Thu Dec 04 2025 15:42:36 GMT-0500 (Eastern Standard Time),136933.90000009537,CFD-BF-019-004-HC.jpg,2000,solid,I,m,763,5,1,33449.60000014305,103484.29999995232,9035,ATS,C,11
12,prac,1,A,haborder.png,1,m,Thu Dec 04 2025 15:42:36 GMT-0500 (Eastern Standard Time),139934.10000014305,CFD-WF-013-009-HC.jpg,1500,solid,I,m,690,11,1,36449.800000190735,103484.29999995232,9035,ATS,C,12
1,prac,1,B,mfborder.png,1,m,Thu Dec 04 2025 15:42:36 GMT-0500 (Eastern Standard Time),169867.40000009537,CFD-BM-021-026-A.jpg,1600,2,I,m,608,dash,1,3016.4000000953674,166851.0,9035,ATS,C,1
2,prac,1,B,mfborder.png,1,z,Thu Dec 04 2025 15:42:36 GMT-0500 (Eastern Standard Time),172184.29999995232,CFD-WF-013-009-HC.jpg,1000,12,I,z,511,dash,1,5333.299999952316,166851.0,9035,ATS,C,2
3,prac,1,B,mfborder.png,1,m,Thu Dec 04 2025 15:42:36 GMT-0500 (Eastern Standard Time),175300.90000009537,CFD-WM-036-018-A.jpg,1700,9,I,m,615,dash,1,8449.900000095367,166851.0,9035,ATS,C,3
4,prac,1,B,mfborder.png,1,z,Thu Dec 04 2025 15:42:36 GMT-0500 (Eastern Standard Time),178200.70000004768,CFD-WF-037-016-A.jpg,1500,11,I,z,594,dash,1,11349.700000047684,166851.0,9035,ATS,C,4
5,prac,1,B,mfborder.png,1,m,Thu Dec 04 2025 15:42:36 GMT-0500 (Eastern Standard Time),181567.40000009537,CFD-BM-043-014-A.jpg,2000,5,I,m,554,dash,1,14716.400000095367,166851.0,9035,ATS,C,5
6,prac,1,B,mfborder.png,1,m,Thu Dec 04 2025 15:42:36 GMT-0500 (Eastern Standard Time),184767.5,CFD-BM-022-004-HC.jpg,1700,1,I,m,686,dash,1,17916.5,166851.0,9035,ATS,C,6
7,prac,1,B,mfborder.png,1,m,Thu Dec 04 2025 15:42:36 GMT-0500 (Eastern Standard Time),187734.20000004768,CFD-WM-035-036-HC.jpg,1600,10,I,m,563,dash,1,20883.200000047684,166851.0,9035,ATS,C,7
8,prac,1,B,mfborder.png,1,z,Thu Dec 04 2025 15:42:36 GMT-0500 (Eastern Standard Time),190917.60000014305,CFD-WF-001-010-HC.jpg,1900,8,I,z,482,dash,1,24066.60000014305,166851.0,9035,ATS,C,8
9,prac,1,B,mfborder.png,1,z,Thu Dec 04 2025 15:42:36 GMT-0500 (Eastern Standard Time),193734.29999995232,CFD-BF-019-004-HC.jpg,1400,7,I,z,613,dash,1,26883.299999952316,166851.0,9035,ATS,C,9
10,prac,1,B,mfborder.png,1,m,Thu Dec 04 2025 15:42:36 GMT-0500 (Eastern Standard Time),196467.10000014305,CFD-WM-034-040-A.jpg,1200,6,I,m,717,dash,1,29616.10000014305,166851.0,9035,ATS,C,10
11,prac,1,B,mfborder.png,1,z,Thu Dec 04 2025 15:42:36 GMT-0500 (Eastern Standard Time),199400.79999995232,CFD-BF-042-031-HC.jpg,1500,3,I,z,627,dash,1,32549.799999952316,166851.0,9035,ATS,C,11
12,prac,1,B,mfborder.png,1,z,Thu Dec 04 2025 15:42:36 GMT-0500 (Eastern Standard Time),201900.79999995232,CFD-BF-031-020-A.jpg,1000,4,I,z,692,dash,1,35049.799999952316,166851.0,9035,ATS,C,12
1,test,1,A,haborder.png,1,m,Thu Dec 04 2025 15:42:36 GMT-0500 (Eastern Standard Time),225913.79999995232,CFD-BF-019-004-HC.jpg,2000,solid,I,m,942,5,1,2979.199999809265,222934.60000014305,9035,ATS,C,1
2,test,1,A,haborder.png,1,m,Thu Dec 04 2025 15:42:36 GMT-0500 (Eastern Standard Time),228584.0,CFD-WM-035-036-HC.jpg,1700,solid,I,m,946,9,1,5649.399999856949,222934.60000014305,9035,ATS,C,2
3,test,1,A,haborder.png,1,m,Thu Dec 04 2025 15:42:36 GMT-0500 (Eastern Standard Time),230983.5,CFD-BM-034-035-HC.jpg,1700,solid,I,m,678,1,1,8048.899999856949,222934.60000014305,9035,ATS,C,3
4,test,1,A,haborder.png,1,z,Thu Dec 04 2025 15:42:36 GMT-0500 (Eastern Standard Time),233084.0,CFD-BM-043-014-A.jpg,1600,solid,I,z,477,2,1,10149.399999856949,222934.60000014305,9035,ATS,C,4
5,test,1,A,haborder.png,1,z,Thu Dec 04 2025 15:42:36 GMT-0500 (Eastern Standard Time),235300.70000004768,CFD-WF-037-016-A.jpg,1600,solid,I,z,567,10,1,12366.099999904633,222934.60000014305,9035,ATS,C,5
6,test,1,A,haborder.png,1,z,Thu Dec 04 2025 15:42:36 GMT-0500 (Eastern Standard Time),237133.90000009537,CFD-BF-002-018-A.jpg,1200,solid,I,z,607,6,1,14199.299999952316,222934.60000014305,9035,ATS,C,6
7,test,1,A,haborder.png,1,z,Thu Dec 04 2025 15:42:36 GMT-0500 (Eastern Standard Time),238750.60000014305,CFD-BF-031-020-A.jpg,1000,solid,I,z,590,4,1,15816.0,222934.60000014305,9035,ATS,C,7
8,test,1,A,haborder.png,1,m,Thu Dec 04 2025 15:42:36 GMT-0500 (Eastern Standard Time),240834.0,CFD-WF-013-009-HC.jpg,1500,solid,I,m,536,11,1,17899.39999985695,222934.60000014305,9035,ATS,C,8
9,test,1,A,haborder.png,1,z,Thu Dec 04 2025 15:42:36 GMT-0500 (Eastern Standard Time),243217.20000004768,CFD-BM-043-014-A.jpg,1600,solid,I,z,754,2,1,20282.599999904633,222934.60000014305,9035,ATS,C,9
10,test,1,A,haborder.png,1,m,Thu Dec 04 2025 15:42:36 GMT-0500 (Eastern Standard Time),245433.90000009537,CFD-BM-022-004-HC.jpg,1500,solid,I,m,678,3,1,22499.299999952316,222934.60000014305,9035,ATS,C,10
11,test,1,A,haborder.png,1,z,Thu Dec 04 2025 15:42:36 GMT-0500 (Eastern Standard Time),248234.0,CFD-WM-036-018-A.jpg,1900,solid,I,z,877,8,1,25299.39999985695,222934.60000014305,9035,ATS,C,11
12,test,1,A,haborder.png,1,z,Thu Dec 04 2025 15:42:36 GMT-0500 (Eastern Standard Time),250350.60000014305,CFD-WF-037-016-A.jpg,1600,solid,I,z,490,10,1,27416.0,222934.60000014305,9035,ATS,C,12
13,test,1,A,haborder.png,1,z,Thu Dec 04 2025 15:42:36 GMT-0500 (Eastern Standard Time),251983.90000009537,CFD-WF-023-013-A.jpg,1000,solid,I,z,588,12,1,29049.299999952316,222934.60000014305,9035,ATS,C,13
14,test,1,A,haborder.png,1,z,Thu Dec 04 2025 15:42:36 GMT-0500 (Eastern Standard Time),254517.29999995232,CFD-WM-036-018-A.jpg,1900,solid,I,z,600,8,1,31582.699999809265,222934.60000014305,9035,ATS,C,14
15,test,1,A,haborder.png,1,z,Thu Dec 04 2025 15:42:36 GMT-0500 (Eastern Standard Time),256133.79999995232,CFD-BF-031-020-A.jpg,1000,solid,I,z,582,4,1,33199.199999809265,222934.60000014305,9035,ATS,C,15
16,test,1,A,haborder.png,1,m,Thu Dec 04 2025 15:42:36 GMT-0500 (Eastern Standard Time),258250.5,CFD-WM-028-005-HC.jpg,1400,solid,I,m,694,7,1,35315.89999985695,222934.60000014305,9035,ATS,C,16
17,test,1,A,haborder.png,1,z,Thu Dec 04 2025 15:42:36 GMT-0500 (Eastern Standard Time),260133.90000009537,CFD-BF-002-018-A.jpg,1200,solid,I,z,648,6,1,37199.299999952316,222934.60000014305,9035,ATS,C,17
18,test,1,A,haborder.png,1,z,Thu Dec 04 2025 15:42:36 GMT-0500 (Eastern Standard Time),261834.0,CFD-WF-023-013-A.jpg,1000,solid,I,z,678,12,1,38899.39999985695,222934.60000014305,9035,ATS,C,18
19,test,1,A,haborder.png,1,m,Thu Dec 04 2025 15:42:36 GMT-0500 (Eastern Standard Time),263950.2000000477,CFD-WM-028-005-HC.jpg,1400,solid,I,m,672,7,1,41015.59999990463,222934.60000014305,9035,ATS,C,19
20,test,1,A,haborder.png,1,m,Thu Dec 04 2025 15:42:36 GMT-0500 (Eastern Standard Time),266317.40000009537,CFD-WM-035-036-HC.jpg,1700,solid,I,m,641,9,1,43382.799999952316,222934.60000014305,9035,ATS,C,20
21,test,1,A,haborder.png,1,m,Thu Dec 04 2025 15:42:36 GMT-0500 (Eastern Standard Time),268717.10000014305,CFD-BM-034-035-HC.jpg,1700,solid,I,m,674,1,1,45782.5,222934.60000014305,9035,ATS,C,21
22,test,1,A,haborder.png,1,m,Thu Dec 04 2025 15:42:36 GMT-0500 (Eastern Standard Time),271450.40000009537,CFD-BF-019-004-HC.jpg,2000,solid,I,m,694,5,1,48515.799999952316,222934.60000014305,9035,ATS,C,22
23,test,1,A,haborder.png,1,m,Thu Dec 04 2025 15:42:36 GMT-0500 (Eastern Standard Time),273450.5,CFD-WF-013-009-HC.jpg,1500,solid,I,m,478,11,1,50515.89999985695,222934.60000014305,9035,ATS,C,23
24,test,1,A,haborder.png,1,m,Thu Dec 04 2025 15:42:36 GMT-0500 (Eastern Standard Time),275533.5,CFD-BM-022-004-HC.jpg,1500,solid,I,m,556,3,1,52598.89999985695,222934.60000014305,9035,ATS,C,24
1,test,1,B,mfborder.png,1,z,Thu Dec 04 2025 15:42:36 GMT-0500 (Eastern Standard Time),295334.0,CFD-WF-013-009-HC.jpg,1000,dash,I,z,649,12,1,1683.7000000476837,293650.2999999523,9035,ATS,C,1
2,test,1,B,mfborder.png,1,z,Thu Dec 04 2025 15:42:36 GMT-0500 (Eastern Standard Time),297600.5,CFD-WF-037-016-A.jpg,1500,dash,I,z,721,11,1,3950.2000000476837,293650.2999999523,9035,ATS,C,2
3,test,1,B,mfborder.png,1,m,Thu Dec 04 2025 15:42:36 GMT-0500 (Eastern Standard Time),299300.2999999523,CFD-WM-034-040-A.jpg,1200,dash,I,m,466,6,1,5650.0,293650.2999999523,9035,ATS,C,3
4,test,1,B,mfborder.png,1,z,Thu Dec 04 2025 15:42:36 GMT-0500 (Eastern Standard Time),301850.5,CFD-WF-001-010-HC.jpg,1900,dash,I,z,610,8,1,8200.200000047684,293650.2999999523,9035,ATS,C,4
5,test,1,B,mfborder.png,1,m,Thu Dec 04 2025 15:42:36 GMT-0500 (Eastern Standard Time),304083.90000009537,CFD-BM-021-026-A.jpg,1600,dash,I,m,601,2,1,10433.600000143051,293650.2999999523,9035,ATS,C,5
6,test,1,B,mfborder.png,1,m,Thu Dec 04 2025 15:42:36 GMT-0500 (Eastern Standard Time),306567.2999999523,CFD-WM-036-018-A.jpg,1700,dash,I,m,737,9,1,12917.0,293650.2999999523,9035,ATS,C,6
7,test,1,B,mfborder.png,1,m,Thu Dec 04 2025 15:42:36 GMT-0500 (Eastern Standard Time),308850.60000014305,CFD-WM-036-018-A.jpg,1700,dash,I,m,552,9,1,15200.300000190735,293650.2999999523,9035,ATS,C,7
8,test,1,B,mfborder.png,1,z,Thu Dec 04 2025 15:42:36 GMT-0500 (Eastern Standard Time),310950.40000009537,CFD-BF-042-031-HC.jpg,1500,dash,I,z,548,3,1,17300.10000014305,293650.2999999523,9035,ATS,C,8
9,test,1,B,mfborder.png,1,m,Thu Dec 04 2025 15:42:36 GMT-0500 (Eastern Standard Time),312783.90000009537,CFD-WM-034-040-A.jpg,1200,dash,I,m,605,6,1,19133.60000014305,293650.2999999523,9035,ATS,C,9
10,test,1,B,mfborder.png,1,z,Thu Dec 04 2025 15:42:36 GMT-0500 (Eastern Standard Time),315000.60000014305,CFD-WF-037-016-A.jpg,1500,dash,I,z,679,11,1,21350.300000190735,293650.2999999523,9035,ATS,C,10
11,test,1,B,mfborder.png,1,m,Thu Dec 04 2025 15:42:36 GMT-0500 (Eastern Standard Time),317250.40000009537,CFD-WM-035-036-HC.jpg,1600,dash,I,m,619,10,1,23600.10000014305,293650.2999999523,9035,ATS,C,11
12,test,1,B,mfborder.png,1,m,Thu Dec 04 2025 15:42:36 GMT-0500 (Eastern Standard Time),319567.2000000477,CFD-BM-022-004-HC.jpg,1700,dash,I,m,572,1,1,25916.900000095367,293650.2999999523,9035,ATS,C,12
13,test,1,B,mfborder.png,1,m,Thu Dec 04 2025 15:42:36 GMT-0500 (Eastern Standard Time),321667.2999999523,CFD-WM-035-036-HC.jpg,1600,dash,I,m,469,10,1,28017.0,293650.2999999523,9035,ATS,C,13
14,test,1,B,mfborder.png,1,z,Thu Dec 04 2025 15:42:36 GMT-0500 (Eastern Standard Time),323983.90000009537,CFD-BF-019-004-HC.jpg,1400,dash,I,z,873,7,1,30333.60000014305,293650.2999999523,9035,ATS,C,14
15,test,1,B,mfborder.png,1,m,Thu Dec 04 2025 15:42:36 GMT-0500 (Eastern Standard Time),326483.2999999523,CFD-BM-021-026-A.jpg,1600,dash,I,m,850,2,1,32833.0,293650.2999999523,9035,ATS,C,15
16,test,1,B,mfborder.png,1,z,Thu Dec 04 2025 15:42:36 GMT-0500 (Eastern Standard Time),328133.2999999523,CFD-WF-013-009-HC.jpg,1000,dash,I,z,631,12,1,34483.0,293650.2999999523,9035,ATS,C,16
17,test,1,B,mfborder.png,1,z,Thu Dec 04 2025 15:42:36 GMT-0500 (Eastern Standard Time),329667.0,CFD-BF-031-020-A.jpg,1000,dash,I,z,501,4,1,36016.700000047684,293650.2999999523,9035,ATS,C,17
18,test,1,B,mfborder.png,1,z,Thu Dec 04 2025 15:42:36 GMT-0500 (Eastern Standard Time),331733.40000009537,CFD-BF-019-004-HC.jpg,1400,dash,I,z,631,7,1,38083.10000014305,293650.2999999523,9035,ATS,C,18
19,test,1,B,mfborder.png,1,m,Thu Dec 04 2025 15:42:36 GMT-0500 (Eastern Standard Time),334100.5,CFD-BM-022-004-HC.jpg,1700,dash,I,m,633,1,1,40450.200000047684,293650.2999999523,9035,ATS,C,19
20,test,1,B,mfborder.png,1,m,Thu Dec 04 2025 15:42:36 GMT-0500 (Eastern Standard Time),336800.2000000477,CFD-BM-043-014-A.jpg,2000,dash,I,m,671,5,1,43149.90000009537,293650.2999999523,9035,ATS,C,20
21,test,1,B,mfborder.png,1,m,Thu Dec 04 2025 15:42:36 GMT-0500 (Eastern Standard Time),339400.60000014305,CFD-BM-043-014-A.jpg,2000,dash,I,m,580,5,1,45750.300000190735,293650.2999999523,9035,ATS,C,21
22,test,1,B,mfborder.png,1,z,Thu Dec 04 2025 15:42:36 GMT-0500 (Eastern Standard Time),341400.2000000477,CFD-BF-042-031-HC.jpg,1500,dash,I,z,478,3,1,47749.90000009537,293650.2999999523,9035,ATS,C,22
23,test,1,B,mfborder.png,1,z,Thu Dec 04 2025 15:42:36 GMT-0500 (Eastern Standard Time),342917.60000014305,CFD-BF-031-020-A.jpg,1000,dash,I,z,482,4,1,49267.300000190735,293650.2999999523,9035,ATS,C,23
24,test,1,B,mfborder.png,1,z,Thu Dec 04 2025 15:42:36 GMT-0500 (Eastern Standard Time),345483.5,CFD-WF-001-010-HC.jpg,1900,dash,I,z,641,8,1,51833.200000047684,293650.2999999523,9035,ATS,C,24
1,prac,1,C,mfborder.png,1,z,Thu Dec 04 2025 15:42:36 GMT-0500 (Eastern Standard Time),401500.7000000477,CFD-BF-019-004-HC.jpg,1000,dash,I,z,1157,8,1,2966.7999999523163,398533.90000009537,9035,ATS,C,1
2,prac,1,C,haborder.png,1,z,Thu Dec 04 2025 15:42:36 GMT-0500 (Eastern Standard Time),405333.90000009537,CFD-WF-037-016-A.jpg,1600,dash,I,z,1430,8,1,6800.0,398533.90000009537,9035,ATS,C,2
3,prac,1,C,haborder.png,1,m,Thu Dec 04 2025 15:42:36 GMT-0500 (Eastern Standard Time),408467.2999999523,CFD-BM-022-004-HC.jpg,1500,solid,I,m,818,8,1,9933.399999856949,398533.90000009537,9035,ATS,C,3
3,prac,1,C,mfborder.png,0,z,Thu Dec 04 2025 15:42:36 GMT-0500 (Eastern Standard Time),412383.7000000477,CFD-WF-013-009-HC.jpg,1600,dash,I,None,1516,8,1,13849.799999952316,398533.90000009537,9035,ATS,C,4
4,prac,1,C,mfborder.png,1,m,Thu Dec 04 2025 15:42:36 GMT-0500 (Eastern Standard Time),415800.5,CFD-WM-036-018-A.jpg,1700,solid,I,m,911,8,1,17266.599999904633,398533.90000009537,9035,ATS,C,5
5,prac,1,C,mfborder.png,1,z,Thu Dec 04 2025 15:42:36 GMT-0500 (Eastern Standard Time),419184.0,CFD-WF-023-013-A.jpg,1500,solid,I,z,1070,8,1,20650.099999904633,398533.90000009537,9035,ATS,C,6
6,prac,1,C,haborder.png,1,m,Thu Dec 04 2025 15:42:36 GMT-0500 (Eastern Standard Time),422033.7000000477,CFD-WM-028-005-HC.jpg,1400,solid,I,m,652,8,1,23499.799999952316,398533.90000009537,9035,ATS,C,7
7,prac,1,C,mfborder.png,1,m,Thu Dec 04 2025 15:42:36 GMT-0500 (Eastern Standard Time),425916.90000009537,CFD-BM-034-035-HC.jpg,2000,solid,I,m,1073,8,1,27383.0,398533.90000009537,9035,ATS,C,8
8,prac,1,C,haborder.png,1,m,Thu Dec 04 2025 15:42:36 GMT-0500 (Eastern Standard Time),428433.90000009537,CFD-WM-028-005-HC.jpg,1000,dash,I,m,702,8,1,29900.0,398533.90000009537,9035,ATS,C,9
9,prac,1,C,mfborder.png,1,m,Thu Dec 04 2025 15:42:36 GMT-0500 (Eastern Standard Time),431467.2000000477,CFD-BM-043-014-A.jpg,1200,dash,I,m,1025,8,1,32933.299999952316,398533.90000009537,9035,ATS,C,10
10,prac,1,C,haborder.png,1,z,Thu Dec 04 2025 15:42:36 GMT-0500 (Eastern Standard Time),435283.90000009537,CFD-BF-031-020-A.jpg,1900,dash,I,z,1116,8,1,36750.0,398533.90000009537,9035,ATS,C,11
10,prac,1,C,haborder.png,0,z,Thu Dec 04 2025 15:42:36 GMT-0500 (Eastern Standard Time),439300.40000009537,CFD-BF-002-018-A.jpg,1700,solid,I,None,1516,8,1,40766.5,398533.90000009537,9035,ATS,C,12
1,test,1,C,mfborder.png,1,m,Thu Dec 04 2025 15:42:36 GMT-0500 (Eastern Standard Time),466367.2999999523,CFD-BM-022-004-HC.jpg,1200,dash,I,m,1123,6,1,2350.0,464017.2999999523,9035,ATS,C,1
2,test,1,C,haborder.png,1,z,Thu Dec 04 2025 15:42:36 GMT-0500 (Eastern Standard Time),469433.7000000477,CFD-BM-021-026-A.jpg,1700,solid,I,z,1345,9,1,5416.400000095367,464017.2999999523,9035,ATS,C,2
3,test,1,C,haborder.png,1,z,Thu Dec 04 2025 15:42:36 GMT-0500 (Eastern Standard Time),472383.60000014305,CFD-BM-043-014-A.jpg,1900,solid,I,z,1022,8,1,8366.300000190735,464017.2999999523,9035,ATS,C,3
4,test,1,C,mfborder.png,1,m,Thu Dec 04 2025 15:42:36 GMT-0500 (Eastern Standard Time),475183.60000014305,CFD-WM-034-040-A.jpg,2000,dash,I,m,772,5,1,11166.300000190735,464017.2999999523,9035,ATS,C,4
5,test,1,C,mfborder.png,1,m,Thu Dec 04 2025 15:42:36 GMT-0500 (Eastern Standard Time),477150.2999999523,CFD-BM-022-004-HC.jpg,1200,dash,I,m,740,6,1,13133.0,464017.2999999523,9035,ATS,C,5
6,test,1,C,mfborder.png,1,m,Thu Dec 04 2025 15:42:36 GMT-0500 (Eastern Standard Time),479000.2999999523,CFD-WM-035-036-HC.jpg,1000,dash,I,m,829,4,1,14983.0,464017.2999999523,9035,ATS,C,6
6,test,1,C,haborder.png,0,m,Thu Dec 04 2025 15:42:36 GMT-0500 (Eastern Standard Time),481563.90000009537,CFD-WF-013-009-HC.jpg,1000,solid,I,None,1516,12,1,17546.60000014305,464017.2999999523,9035,ATS,C,7
6,test,1,C,haborder.png,0,z,Thu Dec 04 2025 15:42:36 GMT-0500 (Eastern Standard Time),484800.40000009537,CFD-BM-021-026-A.jpg,1700,solid,I,None,1516,9,1,20783.10000014305,464017.2999999523,9035,ATS,C,8
7,test,1,C,haborder.png,1,z,Thu Dec 04 2025 15:42:36 GMT-0500 (Eastern Standard Time),487466.60000014305,CFD-WM-036-018-A.jpg,1400,solid,I,z,1244,7,1,23449.300000190735,464017.2999999523,9035,ATS,C,9
8,test,1,C,mfborder.png,1,z,Thu Dec 04 2025 15:42:36 GMT-0500 (Eastern Standard Time),490117.2999999523,CFD-BF-042-031-HC.jpg,1700,dash,I,z,899,1,1,26100.0,464017.2999999523,9035,ATS,C,10
9,test,1,C,mfborder.png,1,m,Thu Dec 04 2025 15:42:36 GMT-0500 (Eastern Standard Time),491917.10000014305,CFD-WM-035-036-HC.jpg,1000,dash,I,m,775,4,1,27899.800000190735,464017.2999999523,9035,ATS,C,11
9,test,1,C,haborder.png,0,m,Thu Dec 04 2025 15:42:36 GMT-0500 (Eastern Standard Time),493900.2000000477,CFD-WF-013-009-HC.jpg,1000,solid,I,z,942,12,1,29882.900000095367,464017.2999999523,9035,ATS,C,12
9,test,1,C,mfborder.png,0,m,Thu Dec 04 2025 15:42:36 GMT-0500 (Eastern Standard Time),497267.10000014305,CFD-WM-034-040-A.jpg,2000,dash,I,z,1335,5,1,33249.800000190735,464017.2999999523,9035,ATS,C,13
9,test,1,C,haborder.png,0,z,Thu Dec 04 2025 15:42:36 GMT-0500 (Eastern Standard Time),500700.40000009537,CFD-BM-043-014-A.jpg,1900,solid,I,None,1516,8,1,36683.10000014305,464017.2999999523,9035,ATS,C,14
10,test,1,C,mfborder.png,1,z,Thu Dec 04 2025 15:42:36 GMT-0500 (Eastern Standard Time),503383.7000000477,CFD-BF-031-020-A.jpg,1600,dash,I,z,1063,2,1,39366.40000009537,464017.2999999523,9035,ATS,C,15
10,test,1,C,haborder.png,0,m,Thu Dec 04 2025 15:42:36 GMT-0500 (Eastern Standard Time),505833.40000009537,CFD-WF-001-010-HC.jpg,1500,solid,I,z,927,11,1,41816.10000014305,464017.2999999523,9035,ATS,C,16
10,test,1,C,haborder.png,0,m,Thu Dec 04 2025 15:42:36 GMT-0500 (Eastern Standard Time),508967.0,CFD-BF-019-004-HC.jpg,1600,solid,I,None,1517,10,1,44949.700000047684,464017.2999999523,9035,ATS,C,17
11,test,1,C,mfborder.png,1,z,Thu Dec 04 2025 15:42:36 GMT-0500 (Eastern Standard Time),511717.0,CFD-BF-042-031-HC.jpg,1700,dash,I,z,1000,1,1,47699.700000047684,464017.2999999523,9035,ATS,C,18
12,test,1,C,haborder.png,1,m,Thu Dec 04 2025 15:42:36 GMT-0500 (Eastern Standard Time),514550.10000014305,CFD-BF-019-004-HC.jpg,1600,solid,I,m,1215,10,1,50532.800000190735,464017.2999999523,9035,ATS,C,19
13,test,1,C,mfborder.png,1,z,Thu Dec 04 2025 15:42:36 GMT-0500 (Eastern Standard Time),516983.40000009537,CFD-WF-037-016-A.jpg,1500,dash,I,z,915,3,1,52966.10000014305,464017.2999999523,9035,ATS,C,20
14,test,1,C,haborder.png,1,m,Thu Dec 04 2025 15:42:36 GMT-0500 (Eastern Standard Time),520000.40000009537,CFD-WF-001-010-HC.jpg,1500,solid,I,m,1471,11,1,55983.10000014305,464017.2999999523,9035,ATS,C,21
15,test,1,C,mfborder.png,1,z,Thu Dec 04 2025 15:42:36 GMT-0500 (Eastern Standard Time),522367.0,CFD-WF-037-016-A.jpg,1500,dash,I,z,824,3,1,58349.700000047684,464017.2999999523,9035,ATS,C,22
15,test,1,C,mfborder.png,0,z,Thu Dec 04 2025 15:42:36 GMT-0500 (Eastern Standard Time),525514.100000143,CFD-BF-031-020-A.jpg,1600,dash,I,None,1516,2,1,61496.800000190735,464017.2999999523,9035,ATS,C,23
15,test,1,C,haborder.png,0,z,Thu Dec 04 2025 15:42:36 GMT-0500 (Eastern Standard Time),527850.2000000477,CFD-WM-036-018-A.jpg,1400,solid,I,m,911,7,1,63832.90000009537,464017.2999999523,9035,ATS,C,24
0,test,2,C,haborder.png,0,z,Thu Dec 04 2025 15:42:36 GMT-0500 (Eastern Standard Time),540417.100000143,CFD-WF-037-016-A.jpg,1700,solid,I,None,1516,9,1,3233.5,537183.600000143,9035,ATS,C,1
1,test,2,C,haborder.png,1,m,Thu Dec 04 2025 15:42:36 GMT-0500 (Eastern Standard Time),543117.0,CFD-BM-022-004-HC.jpg,1600,solid,I,m,1074,10,1,5933.399999856949,537183.600000143,9035,ATS,C,2
1,test,2,C,mfborder.png,0,z,Thu Dec 04 2025 15:42:36 GMT-0500 (Eastern Standard Time),546367.100000143,CFD-WF-013-009-HC.jpg,1700,dash,I,None,1516,1,1,9183.5,537183.600000143,9035,ATS,C,3
2,test,2,C,mfborder.png,1,z,Thu Dec 04 2025 15:42:36 GMT-0500 (Eastern Standard Time),548600.2000000477,CFD-BF-019-004-HC.jpg,1500,dash,I,z,713,3,1,11416.599999904633,537183.600000143,9035,ATS,C,4
2,test,2,C,haborder.png,0,z,Thu Dec 04 2025 15:42:36 GMT-0500 (Eastern Standard Time),551016.7000000477,CFD-BF-031-020-A.jpg,1400,solid,I,m,979,7,1,13833.099999904633,537183.600000143,9035,ATS,C,5
3,test,2,C,haborder.png,1,m,Thu Dec 04 2025 15:42:36 GMT-0500 (Eastern Standard Time),553266.600000143,CFD-BM-022-004-HC.jpg,1600,solid,I,m,620,10,1,16083.0,537183.600000143,9035,ATS,C,6
4,test,2,C,haborder.png,1,z,Thu Dec 04 2025 15:42:36 GMT-0500 (Eastern Standard Time),555500.2000000477,CFD-BF-031-020-A.jpg,1400,solid,I,z,809,7,1,18316.599999904633,537183.600000143,9035,ATS,C,7
5,test,2,C,mfborder.png,1,m,Thu Dec 04 2025 15:42:36 GMT-0500 (Eastern Standard Time),558150.100000143,CFD-BM-043-014-A.jpg,2000,dash,I,m,632,5,1,20966.5,537183.600000143,9035,ATS,C,8
5,test,2,C,mfborder.png,0,z,Thu Dec 04 2025 15:42:36 GMT-0500 (Eastern Standard Time),561400.5,CFD-WF-013-009-HC.jpg,1700,dash,I,None,1516,1,1,24216.89999985695,537183.600000143,9035,ATS,C,9
6,test,2,C,haborder.png,1,m,Thu Dec 04 2025 15:42:36 GMT-0500 (Eastern Standard Time),563600.2000000477,CFD-WM-028-005-HC.jpg,1000,solid,I,m,1171,12,1,26416.599999904633,537183.600000143,9035,ATS,C,10
7,test,2,C,mfborder.png,1,m,Thu Dec 04 2025 15:42:36 GMT-0500 (Eastern Standard Time),565783.600000143,CFD-BM-034-035-HC.jpg,1000,dash,I,m,1130,4,1,28600.0,537183.600000143,9035,ATS,C,11
7,test,2,C,haborder.png,0,z,Thu Dec 04 2025 15:42:36 GMT-0500 (Eastern Standard Time),569217.0,CFD-BF-002-018-A.jpg,1900,solid,I,None,1516,8,1,32033.39999985695,537183.600000143,9035,ATS,C,12
8,test,2,C,mfborder.png,1,z,Thu Dec 04 2025 15:42:36 GMT-0500 (Eastern Standard Time),572250.100000143,CFD-WF-023-013-A.jpg,1600,dash,I,z,1394,2,1,35066.5,537183.600000143,9035,ATS,C,13
9,test,2,C,haborder.png,1,m,Thu Dec 04 2025 15:42:36 GMT-0500 (Eastern Standard Time),574100.2000000477,CFD-WM-028-005-HC.jpg,1000,solid,I,m,818,12,1,36916.59999990463,537183.600000143,9035,ATS,C,14
10,test,2,C,mfborder.png,1,m,Thu Dec 04 2025 15:42:36 GMT-0500 (Eastern Standard Time),576117.5,CFD-WM-036-018-A.jpg,1200,dash,I,m,783,6,1,38933.89999985695,537183.600000143,9035,ATS,C,15
11,test,2,C,mfborder.png,1,m,Thu Dec 04 2025 15:42:36 GMT-0500 (Eastern Standard Time),578066.9000000954,CFD-WM-036-018-A.jpg,1200,dash,I,m,719,6,1,40883.299999952316,537183.600000143,9035,ATS,C,16
12,test,2,C,haborder.png,1,m,Thu Dec 04 2025 15:42:36 GMT-0500 (Eastern Standard Time),580350.2000000477,CFD-WM-028-005-HC.jpg,1500,solid,I,m,757,11,1,43166.59999990463,537183.600000143,9035,ATS,C,17
13,test,2,C,haborder.png,1,m,Thu Dec 04 2025 15:42:36 GMT-0500 (Eastern Standard Time),582533.7999999523,CFD-WM-028-005-HC.jpg,1500,solid,I,m,649,11,1,45350.199999809265,537183.600000143,9035,ATS,C,18
14,test,2,C,mfborder.png,1,z,Thu Dec 04 2025 15:42:36 GMT-0500 (Eastern Standard Time),584900.4000000954,CFD-WF-023-013-A.jpg,1600,dash,I,z,735,2,1,47716.799999952316,537183.600000143,9035,ATS,C,19
15,test,2,C,mfborder.png,1,m,Thu Dec 04 2025 15:42:36 GMT-0500 (Eastern Standard Time),586783.5,CFD-BM-034-035-HC.jpg,1000,dash,I,m,856,4,1,49599.89999985695,537183.600000143,9035,ATS,C,20
16,test,2,C,mfborder.png,1,m,Thu Dec 04 2025 15:42:36 GMT-0500 (Eastern Standard Time),590050.100000143,CFD-BM-043-014-A.jpg,2000,dash,I,m,1219,5,1,52866.5,537183.600000143,9035,ATS,C,21
17,test,2,C,haborder.png,1,z,Thu Dec 04 2025 15:42:36 GMT-0500 (Eastern Standard Time),593100.100000143,CFD-BF-002-018-A.jpg,1900,solid,I,z,1126,8,1,55916.5,537183.600000143,9035,ATS,C,22
18,test,2,C,haborder.png,1,z,Thu Dec 04 2025 15:42:36 GMT-0500 (Eastern Standard Time),595683.2000000477,CFD-WF-037-016-A.jpg,1700,solid,I,z,817,9,1,58499.59999990463,537183.600000143,9035,ATS,C,23
19,test,2,C,mfborder.png,1,z,Thu Dec 04 2025 15:42:36 GMT-0500 (Eastern Standard Time),598116.7000000477,CFD-BF-019-004-HC.jpg,1500,dash,I,z,899,3,1,60933.09999990463,537183.600000143,9035,ATS,C,24
0,test,3,C,haborder.png,0,z,Thu Dec 04 2025 15:42:36 GMT-0500 (Eastern Standard Time),608883.9000000954,CFD-BM-043-014-A.jpg,1900,solid,I,None,1515,8,1,3450.100000143051,605433.7999999523,9035,ATS,C,1
1,test,3,C,mfborder.png,1,z,Thu Dec 04 2025 15:42:36 GMT-0500 (Eastern Standard Time),611500.2000000477,CFD-BF-031-020-A.jpg,1600,dash,I,z,992,2,1,6066.400000095367,605433.7999999523,9035,ATS,C,2
2,test,3,C,mfborder.png,1,z,Thu Dec 04 2025 15:42:36 GMT-0500 (Eastern Standard Time),613833.2999999523,CFD-BF-031-020-A.jpg,1600,dash,I,z,694,2,1,8399.5,605433.7999999523,9035,ATS,C,3
2,test,3,C,haborder.png,0,z,Thu Dec 04 2025 15:42:36 GMT-0500 (Eastern Standard Time),616133.600000143,CFD-WM-036-018-A.jpg,1400,solid,I,m,866,7,1,10699.800000190735,605433.7999999523,9035,ATS,C,4
2,test,3,C,haborder.png,0,m,Thu Dec 04 2025 15:42:36 GMT-0500 (Eastern Standard Time),618700.2000000477,CFD-WF-001-010-HC.jpg,1500,solid,I,z,1026,11,1,13266.400000095367,605433.7999999523,9035,ATS,C,5
2,test,3,C,mfborder.png,0,m,Thu Dec 04 2025 15:42:36 GMT-0500 (Eastern Standard Time),621433.7000000477,CFD-BM-022-004-HC.jpg,1200,dash,I,None,1516,6,1,15999.900000095367,605433.7999999523,9035,ATS,C,6
3,test,3,C,mfborder.png,1,z,Thu Dec 04 2025 15:42:36 GMT-0500 (Eastern Standard Time),623700.0,CFD-WF-037-016-A.jpg,1500,dash,I,z,734,3,1,18266.200000047684,605433.7999999523,9035,ATS,C,7
4,test,3,C,haborder.png,1,z,Thu Dec 04 2025 15:42:36 GMT-0500 (Eastern Standard Time),626500.2000000477,CFD-BM-043-014-A.jpg,1900,solid,I,z,851,8,1,21066.400000095367,605433.7999999523,9035,ATS,C,8
5,test,3,C,haborder.png,1,z,Thu Dec 04 2025 15:42:36 GMT-0500 (Eastern Standard Time),629100.2000000477,CFD-BM-021-026-A.jpg,1700,solid,I,z,875,9,1,23666.400000095367,605433.7999999523,9035,ATS,C,9
6,test,3,C,haborder.png,1,m,Thu Dec 04 2025 15:42:36 GMT-0500 (Eastern Standard Time),631783.4000000954,CFD-BF-019-004-HC.jpg,1600,solid,I,m,1063,10,1,26349.60000014305,605433.7999999523,9035,ATS,C,10
7,test,3,C,mfborder.png,1,m,Thu Dec 04 2025 15:42:36 GMT-0500 (Eastern Standard Time),635266.7000000477,CFD-WM-034-040-A.jpg,2000,dash,I,m,1436,5,1,29832.900000095367,605433.7999999523,9035,ATS,C,11
8,test,3,C,mfborder.png,1,m,Thu Dec 04 2025 15:42:36 GMT-0500 (Eastern Standard Time),636983.4000000954,CFD-WM-035-036-HC.jpg,1000,dash,I,m,697,4,1,31549.60000014305,605433.7999999523,9035,ATS,C,12
9,test,3,C,haborder.png,1,m,Thu Dec 04 2025 15:42:36 GMT-0500 (Eastern Standard Time),639016.7999999523,CFD-WF-013-009-HC.jpg,1000,solid,I,m,1013,12,1,33583.0,605433.7999999523,9035,ATS,C,13
9,test,3,C,mfborder.png,0,z,Thu Dec 04 2025 15:42:36 GMT-0500 (Eastern Standard Time),641749.9000000954,CFD-BF-042-031-HC.jpg,1700,dash,I,m,997,1,1,36316.10000014305,605433.7999999523,9035,ATS,C,14
10,test,3,C,mfborder.png,1,z,Thu Dec 04 2025 15:42:36 GMT-0500 (Eastern Standard Time),643950.0,CFD-WF-037-016-A.jpg,1500,dash,I,z,674,3,1,38516.200000047684,605433.7999999523,9035,ATS,C,15
10,test,3,C,mfborder.png,0,m,Thu Dec 04 2025 15:42:36 GMT-0500 (Eastern Standard Time),647183.5,CFD-WM-034-040-A.jpg,2000,dash,I,z,1206,5,1,41749.700000047684,605433.7999999523,9035,ATS,C,16
11,test,3,C,mfborder.png,1,m,Thu Dec 04 2025 15:42:36 GMT-0500 (Eastern Standard Time),649050.100000143,CFD-WM-035-036-HC.jpg,1000,dash,I,m,844,4,1,43616.300000190735,605433.7999999523,9035,ATS,C,17
12,test,3,C,haborder.png,1,m,Thu Dec 04 2025 15:42:36 GMT-0500 (Eastern Standard Time),651116.7999999523,CFD-WF-013-009-HC.jpg,1000,solid,I,m,1042,12,1,45683.0,605433.7999999523,9035,ATS,C,18
13,test,3,C,haborder.png,1,z,Thu Dec 04 2025 15:42:36 GMT-0500 (Eastern Standard Time),653500.2000000477,CFD-WM-036-018-A.jpg,1400,solid,I,z,942,7,1,48066.40000009537,605433.7999999523,9035,ATS,C,19
14,test,3,C,haborder.png,1,m,Thu Dec 04 2025 15:42:36 GMT-0500 (Eastern Standard Time),656083.4000000954,CFD-BF-019-004-HC.jpg,1600,solid,I,m,952,10,1,50649.60000014305,605433.7999999523,9035,ATS,C,20
15,test,3,C,mfborder.png,1,z,Thu Dec 04 2025 15:42:36 GMT-0500 (Eastern Standard Time),658749.9000000954,CFD-BF-042-031-HC.jpg,1700,dash,I,z,940,1,1,53316.10000014305,605433.7999999523,9035,ATS,C,21
16,test,3,C,mfborder.png,1,m,Thu Dec 04 2025 15:42:36 GMT-0500 (Eastern Standard Time),660750.2000000477,CFD-BM-022-004-HC.jpg,1200,dash,I,m,741,6,1,55316.40000009537,605433.7999999523,9035,ATS,C,22
17,test,3,C,haborder.png,1,z,Thu Dec 04 2025 15:42:36 GMT-0500 (Eastern Standard Time),663349.7999999523,CFD-BM-021-026-A.jpg,1700,solid,I,z,882,9,1,57916.0,605433.7999999523,9035,ATS,C,23
18,test,3,C,haborder.png,1,m,Thu Dec 04 2025 15:42:36 GMT-0500 (Eastern Standard Time),665916.9000000954,CFD-WF-001-010-HC.jpg,1500,solid,I,m,1042,11,1,60483.10000014305,605433.7999999523,9035,ATS,C,24
1,test,4,C,mfborder.png,1,m,Thu Dec 04 2025 15:42:36 GMT-0500 (Eastern Standard Time),674717.0,CFD-WM-036-018-A.jpg,1200,dash,I,m,1308,6,1,2550.2999999523163,672166.7000000477,9035,ATS,C,1
2,test,4,C,mfborder.png,1,m,Thu Dec 04 2025 15:42:36 GMT-0500 (Eastern Standard Time),676733.4000000954,CFD-BM-034-035-HC.jpg,1000,dash,I,m,991,4,1,4566.700000047684,672166.7000000477,9035,ATS,C,2
3,test,4,C,mfborder.png,1,z,Thu Dec 04 2025 15:42:36 GMT-0500 (Eastern Standard Time),679167.0,CFD-BF-019-004-HC.jpg,1500,dash,I,z,890,3,1,7000.299999952316,672166.7000000477,9035,ATS,C,3
4,test,4,C,haborder.png,1,z,Thu Dec 04 2025 15:42:36 GMT-0500 (Eastern Standard Time),681466.9000000954,CFD-BF-031-020-A.jpg,1400,solid,I,z,877,7,1,9300.200000047684,672166.7000000477,9035,ATS,C,4
5,test,4,C,mfborder.png,1,z,Thu Dec 04 2025 15:42:36 GMT-0500 (Eastern Standard Time),684250.2000000477,CFD-WF-013-009-HC.jpg,1700,dash,I,z,1044,1,1,12083.5,672166.7000000477,9035,ATS,C,5
6,test,4,C,haborder.png,1,m,Thu Dec 04 2025 15:42:36 GMT-0500 (Eastern Standard Time),685883.5,CFD-WM-028-005-HC.jpg,1000,solid,I,m,610,12,1,13716.799999952316,672166.7000000477,9035,ATS,C,6
7,test,4,C,mfborder.png,1,z,Thu Dec 04 2025 15:42:36 GMT-0500 (Eastern Standard Time),688366.7999999523,CFD-WF-023-013-A.jpg,1600,dash,I,z,840,2,1,16200.099999904633,672166.7000000477,9035,ATS,C,7
8,test,4,C,mfborder.png,1,z,Thu Dec 04 2025 15:42:36 GMT-0500 (Eastern Standard Time),690599.9000000954,CFD-BF-019-004-HC.jpg,1500,dash,I,z,713,3,1,18433.200000047684,672166.7000000477,9035,ATS,C,8
9,test,4,C,mfborder.png,1,m,Thu Dec 04 2025 15:42:36 GMT-0500 (Eastern Standard Time),692266.9000000954,CFD-BM-034-035-HC.jpg,1000,dash,I,m,644,4,1,20100.200000047684,672166.7000000477,9035,ATS,C,9
10,test,4,C,haborder.png,1,z,Thu Dec 04 2025 15:42:36 GMT-0500 (Eastern Standard Time),694999.7999999523,CFD-BF-002-018-A.jpg,1900,solid,I,z,796,8,1,22833.099999904633,672166.7000000477,9035,ATS,C,10
11,test,4,C,haborder.png,1,z,Thu Dec 04 2025 15:42:36 GMT-0500 (Eastern Standard Time),697749.9000000954,CFD-BF-002-018-A.jpg,1900,solid,I,z,832,8,1,25583.200000047684,672166.7000000477,9035,ATS,C,11
12,test,4,C,mfborder.png,1,m,Thu Dec 04 2025 15:42:36 GMT-0500 (Eastern Standard Time),701283.2999999523,CFD-BM-043-014-A.jpg,2000,dash,I,m,1485,5,1,29116.599999904633,672166.7000000477,9035,ATS,C,12
13,test,4,C,mfborder.png,1,z,Thu Dec 04 2025 15:42:36 GMT-0500 (Eastern Standard Time),703633.4000000954,CFD-WF-023-013-A.jpg,1600,dash,I,z,720,2,1,31466.700000047684,672166.7000000477,9035,ATS,C,13
14,test,4,C,haborder.png,1,z,Thu Dec 04 2025 15:42:36 GMT-0500 (Eastern Standard Time),705966.4000000954,CFD-BF-031-020-A.jpg,1400,solid,I,z,906,7,1,33799.700000047684,672166.7000000477,9035,ATS,C,14
15,test,4,C,mfborder.png,1,m,Thu Dec 04 2025 15:42:36 GMT-0500 (Eastern Standard Time),708999.9000000954,CFD-BM-043-014-A.jpg,2000,dash,I,m,1014,5,1,36833.200000047684,672166.7000000477,9035,ATS,C,15
16,test,4,C,haborder.png,1,m,Thu Dec 04 2025 15:42:36 GMT-0500 (Eastern Standard Time),711216.7999999523,CFD-WM-028-005-HC.jpg,1500,solid,I,m,654,11,1,39050.09999990463,672166.7000000477,9035,ATS,C,16
17,test,4,C,haborder.png,1,m,Thu Dec 04 2025 15:42:36 GMT-0500 (Eastern Standard Time),713566.7999999523,CFD-BM-022-004-HC.jpg,1600,solid,I,m,723,10,1,41400.09999990463,672166.7000000477,9035,ATS,C,17
18,test,4,C,haborder.png,1,m,Thu Dec 04 2025 15:42:36 GMT-0500 (Eastern Standard Time),715333.0,CFD-WM-028-005-HC.jpg,1000,solid,I,m,731,12,1,43166.299999952316,672166.7000000477,9035,ATS,C,18
19,test,4,C,haborder.png,1,z,Thu Dec 04 2025 15:42:36 GMT-0500 (Eastern Standard Time),718083.5,CFD-WF-037-016-A.jpg,1700,solid,I,z,1002,9,1,45916.799999952316,672166.7000000477,9035,ATS,C,19
20,test,4,C,haborder.png,1,m,Thu Dec 04 2025 15:42:36 GMT-0500 (Eastern Standard Time),720633.2999999523,CFD-WM-028-005-HC.jpg,1500,solid,I,m,1012,11,1,48466.59999990463,672166.7000000477,9035,ATS,C,20
21,test,4,C,haborder.png,1,z,Thu Dec 04 2025 15:42:36 GMT-0500 (Eastern Standard Time),723283.2999999523,CFD-WF-037-016-A.jpg,1700,solid,I,z,918,9,1,51116.59999990463,672166.7000000477,9035,ATS,C,21
22,test,4,C,mfborder.png,1,m,Thu Dec 04 2025 15:42:36 GMT-0500 (Eastern Standard Time),725783.2999999523,CFD-WM-036-018-A.jpg,1200,dash,I,m,1263,6,1,53616.59999990463,672166.7000000477,9035,ATS,C,22
23,test,4,C,mfborder.png,1,z,Thu Dec 04 2025 15:42:36 GMT-0500 (Eastern Standard Time),728150.100000143,CFD-WF-013-009-HC.jpg,1700,dash,I,z,649,1,1,55983.40000009537,672166.7000000477,9035,ATS,C,23
24,test,4,C,haborder.png,1,m,Thu Dec 04 2025 15:42:36 GMT-0500 (Eastern Standard Time),730583.5,CFD-BM-022-004-HC.jpg,1600,solid,I,m,814,10,1,58416.799999952316,672166.7000000477,9035,ATS,C,24
