block_c,block_dur,condition,countdown,datetime,endtime,list,multichar_response,project,response,response_time,session_number,start_end,starttime,subject_id,task,task_vers,trial
,,,,Fri Jun 05 2026 11:19:14 GMT-0400 (Eastern Daylight Time),,,,I,space,125,3,,,9035,WL,B,
prac,,0,,Fri Jun 05 2026 11:19:14 GMT-0400 (Eastern Daylight Time),,NA,b,I,b,4600,3,,,9035,WL,B,1.0
prac,,0,,Fri Jun 05 2026 11:19:14 GMT-0400 (Eastern Daylight Time),,NA,bo,I,o,178,3,,,9035,WL,B,1.0
prac,,0,,Fri Jun 05 2026 11:19:14 GMT-0400 (Eastern Daylight Time),,NA,boo,I,o,173,3,,,9035,WL,B,1.0
prac,,0,,Fri Jun 05 2026 11:19:14 GMT-0400 (Eastern Daylight Time),,NA,boos,I,s,77,3,,,9035,WL,B,1.0
prac,,0,,Fri Jun 05 2026 11:19:14 GMT-0400 (Eastern Daylight Time),,NA,boost,I,t,252,3,,,9035,WL,B,1.0
prac,,0,,Fri Jun 05 2026 11:19:14 GMT-0400 (Eastern Daylight Time),,NA,boostenter,I,enter,1109,3,,,9035,WL,B,1.0
1,0.6669998168945312,learn,59333.00018310547,Fri Jun 05 2026 11:19:14 GMT-0400 (Eastern Daylight Time),114170.20000000298,A,s,I,s,651,3,666.0999999940395,113504.10000000894,9035,WL,B,1.0
1,0.9499998092651367,learn,59050.00019073486,Fri Jun 05 2026 11:19:14 GMT-0400 (Eastern Daylight Time),114453.20000000298,A,st,I,t,255,3,949.0999999940395,113504.10000000894,9035,WL,B,1.0
1,1.1669998168945312,learn,58833.00018310547,Fri Jun 05 2026 11:19:14 GMT-0400 (Eastern Daylight Time),114669.79999999702,A,str,I,r,197,3,1165.699999988079,113504.10000000894,9035,WL,B,1.0
1,1.2999999523162842,learn,58700.000047683716,Fri Jun 05 2026 11:19:14 GMT-0400 (Eastern Daylight Time),114803.29999999702,A,stre,I,e,105,3,1299.199999988079,113504.10000000894,9035,WL,B,1.0
1,1.5,learn,58500.0,Fri Jun 05 2026 11:19:14 GMT-0400 (Eastern Daylight Time),115003.29999999702,A,stree,I,e,170,3,1499.199999988079,113504.10000000894,9035,WL,B,1.0
1,1.6999998092651367,learn,58300.00019073486,Fri Jun 05 2026 11:19:14 GMT-0400 (Eastern Daylight Time),115203.20000000298,A,street,I,t,173,3,1699.0999999940395,113504.10000000894,9035,WL,B,1.0
1,2.132999897003174,learn,57867.000102996826,Fri Jun 05 2026 11:19:14 GMT-0400 (Eastern Daylight Time),115636.0,A,streetenter,I,enter,395,3,2131.8999999910593,113504.10000000894,9035,WL,B,1.0
1,2.6499998569488525,learn,57350.00014305115,Fri Jun 05 2026 11:19:14 GMT-0400 (Eastern Daylight Time),116153.10000000894,A,g,I,g,505,3,516.4000000059605,115636.70000000298,9035,WL,B,2.0
1,2.882999897003174,learn,57117.000102996826,Fri Jun 05 2026 11:19:14 GMT-0400 (Eastern Daylight Time),116386.10000000894,A,gr,I,r,208,3,749.4000000059605,115636.70000000298,9035,WL,B,2.0
1,3.0339999198913574,learn,56966.00008010864,Fri Jun 05 2026 11:19:14 GMT-0400 (Eastern Daylight Time),116536.5,A,gra,I,a,139,3,899.7999999970198,115636.70000000298,9035,WL,B,2.0
1,3.299999952316284,learn,56700.000047683716,Fri Jun 05 2026 11:19:14 GMT-0400 (Eastern Daylight Time),116803.0,A,gras,I,s,242,3,1166.2999999970198,115636.70000000298,9035,WL,B,2.0
1,3.5169999599456787,learn,56483.00004005432,Fri Jun 05 2026 11:19:14 GMT-0400 (Eastern Daylight Time),117019.90000000596,A,grass,I,s,198,3,1383.2000000029802,115636.70000000298,9035,WL,B,2.0
1,3.75,learn,56250.0,Fri Jun 05 2026 11:19:14 GMT-0400 (Eastern Daylight Time),117252.70000000298,A,grassenter,I,enter,217,3,1616.0,115636.70000000298,9035,WL,B,2.0
1,4.166999816894531,learn,55833.00018310547,Fri Jun 05 2026 11:19:14 GMT-0400 (Eastern Daylight Time),117669.79999999702,A,d,I,d,393,3,416.69999998807907,117253.10000000894,9035,WL,B,3.0
1,4.299999952316284,learn,55700.000047683716,Fri Jun 05 2026 11:19:14 GMT-0400 (Eastern Daylight Time),117803.20000000298,A,do,I,o,116,3,550.0999999940395,117253.10000000894,9035,WL,B,3.0
1,4.4670000076293945,learn,55532.999992370605,Fri Jun 05 2026 11:19:14 GMT-0400 (Eastern Daylight Time),117969.79999999702,A,dor,I,r,130,3,716.6999999880791,117253.10000000894,9035,WL,B,3.0
1,5.5,learn,54500.0,Fri Jun 05 2026 11:19:14 GMT-0400 (Eastern Daylight Time),119003.20000000298,A,do,I,backspace,1015,3,1750.0999999940395,117253.10000000894,9035,WL,B,3.0
1,6.132999897003174,learn,53867.000102996826,Fri Jun 05 2026 11:19:14 GMT-0400 (Eastern Daylight Time),119636.5,A,doo,I,o,608,3,2383.3999999910593,117253.10000000894,9035,WL,B,3.0
1,6.299999952316284,learn,53700.000047683716,Fri Jun 05 2026 11:19:14 GMT-0400 (Eastern Daylight Time),119803.10000000894,A,door,I,r,150,3,2550.0,117253.10000000894,9035,WL,B,3.0
1,6.75,learn,53250.0,Fri Jun 05 2026 11:19:14 GMT-0400 (Eastern Daylight Time),120252.70000000298,A,doorenter,I,enter,421,3,2999.5999999940395,117253.10000000894,9035,WL,B,3.0
1,7.116999864578247,learn,52883.00013542175,Fri Jun 05 2026 11:19:14 GMT-0400 (Eastern Daylight Time),120619.90000000596,A,a,I,a,352,3,366.6000000089407,120253.29999999702,9035,WL,B,4.0
1,7.2829999923706055,learn,52717.000007629395,Fri Jun 05 2026 11:19:14 GMT-0400 (Eastern Daylight Time),120786.5,A,ar,I,r,140,3,533.2000000029802,120253.29999999702,9035,WL,B,4.0
1,7.516999959945679,learn,52483.00004005432,Fri Jun 05 2026 11:19:14 GMT-0400 (Eastern Daylight Time),121019.70000000298,A,arm,I,m,216,3,766.4000000059605,120253.29999999702,9035,WL,B,4.0
1,8.065999984741211,learn,51934.00001525879,Fri Jun 05 2026 11:19:14 GMT-0400 (Eastern Daylight Time),121569.40000000596,A,armenter,I,enter,524,3,1316.1000000089407,120253.29999999702,9035,WL,B,4.0
1,8.566999912261963,learn,51433.00008773804,Fri Jun 05 2026 11:19:14 GMT-0400 (Eastern Daylight Time),122069.79999999702,A,s,I,s,476,3,500.0,121569.79999999702,9035,WL,B,5.0
1,8.833999872207642,learn,51166.00012779236,Fri Jun 05 2026 11:19:14 GMT-0400 (Eastern Daylight Time),122336.70000000298,A,st,I,t,244,3,766.9000000059605,121569.79999999702,9035,WL,B,5.0
1,9.016999959945679,learn,50983.00004005432,Fri Jun 05 2026 11:19:14 GMT-0400 (Eastern Daylight Time),122519.79999999702,A,sta,I,a,168,3,950.0,121569.79999999702,9035,WL,B,5.0
1,9.266999959945679,learn,50733.00004005432,Fri Jun 05 2026 11:19:14 GMT-0400 (Eastern Daylight Time),122769.79999999702,A,star,I,r,225,3,1200.0,121569.79999999702,9035,WL,B,5.0
1,9.599999904632568,learn,50400.00009536743,Fri Jun 05 2026 11:19:14 GMT-0400 (Eastern Daylight Time),123102.70000000298,A,starenter,I,enter,310,3,1532.9000000059605,121569.79999999702,9035,WL,B,5.0
1,9.916999816894531,learn,50083.00018310547,Fri Jun 05 2026 11:19:14 GMT-0400 (Eastern Daylight Time),123419.70000000298,A,w,I,w,303,3,316.5,123103.20000000298,9035,WL,B,6.0
1,10.08299994468689,learn,49917.00005531311,Fri Jun 05 2026 11:19:14 GMT-0400 (Eastern Daylight Time),123586.5,A,wi,I,i,143,3,483.29999999701977,123103.20000000298,9035,WL,B,6.0
1,10.232999801635742,learn,49767.00019836426,Fri Jun 05 2026 11:19:14 GMT-0400 (Eastern Daylight Time),123736.40000000596,A,wif,I,f,134,3,633.2000000029802,123103.20000000298,9035,WL,B,6.0
1,10.449999809265137,learn,49550.00019073486,Fri Jun 05 2026 11:19:14 GMT-0400 (Eastern Daylight Time),123953.10000000894,A,wife,I,e,194,3,849.9000000059605,123103.20000000298,9035,WL,B,6.0
1,11.049999952316284,learn,48950.000047683716,Fri Jun 05 2026 11:19:14 GMT-0400 (Eastern Daylight Time),124552.60000000894,A,wifeenter,I,enter,582,3,1449.4000000059605,123103.20000000298,9035,WL,B,6.0
1,12.016999959945679,learn,47983.00004005432,Fri Jun 05 2026 11:19:14 GMT-0400 (Eastern Daylight Time),125519.90000000596,A,c,I,c,946,3,966.7999999970198,124553.10000000894,9035,WL,B,7.0
1,12.199999809265137,learn,47800.00019073486,Fri Jun 05 2026 11:19:14 GMT-0400 (Eastern Daylight Time),125703.0,A,ca,I,a,169,3,1149.8999999910593,124553.10000000894,9035,WL,B,7.0
1,12.383999824523926,learn,47616.000175476074,Fri Jun 05 2026 11:19:14 GMT-0400 (Eastern Daylight Time),125886.5,A,cab,I,b,153,3,1333.3999999910593,124553.10000000894,9035,WL,B,7.0
1,12.632999897003174,learn,47367.000102996826,Fri Jun 05 2026 11:19:14 GMT-0400 (Eastern Daylight Time),126136.40000000596,A,cabi,I,i,226,3,1583.2999999970198,124553.10000000894,9035,WL,B,7.0
1,12.866999864578247,learn,47133.00013542175,Fri Jun 05 2026 11:19:14 GMT-0400 (Eastern Daylight Time),126369.79999999702,A,cabin,I,n,208,3,1816.699999988079,124553.10000000894,9035,WL,B,7.0
1,13.449999809265137,learn,46550.00019073486,Fri Jun 05 2026 11:19:14 GMT-0400 (Eastern Daylight Time),126952.70000000298,A,cabinenter,I,enter,558,3,2399.5999999940395,124553.10000000894,9035,WL,B,7.0
1,14.166999816894531,learn,45833.00018310547,Fri Jun 05 2026 11:19:14 GMT-0400 (Eastern Daylight Time),127669.60000000894,A,l,I,l,709,3,716.4000000059605,126953.20000000298,9035,WL,B,8.0
1,14.299999952316284,learn,45700.000047683716,Fri Jun 05 2026 11:19:14 GMT-0400 (Eastern Daylight Time),127803.20000000298,A,la,I,a,115,3,850.0,126953.20000000298,9035,WL,B,8.0
1,14.434000015258789,learn,45565.99998474121,Fri Jun 05 2026 11:19:14 GMT-0400 (Eastern Daylight Time),127936.5,A,lak,I,k,103,3,983.2999999970198,126953.20000000298,9035,WL,B,8.0
1,14.58299994468689,learn,45417.00005531311,Fri Jun 05 2026 11:19:14 GMT-0400 (Eastern Daylight Time),128086.5,A,lake,I,e,113,3,1133.2999999970198,126953.20000000298,9035,WL,B,8.0
1,14.899999856948853,learn,45100.00014305115,Fri Jun 05 2026 11:19:14 GMT-0400 (Eastern Daylight Time),128402.60000000894,A,lakeenter,I,enter,291,3,1449.4000000059605,126953.20000000298,9035,WL,B,8.0
1,15.449999809265137,learn,44550.00019073486,Fri Jun 05 2026 11:19:14 GMT-0400 (Eastern Daylight Time),128953.10000000894,A,w,I,w,539,3,550.0,128403.10000000894,9035,WL,B,9.0
1,15.583999872207642,learn,44416.00012779236,Fri Jun 05 2026 11:19:14 GMT-0400 (Eastern Daylight Time),129086.60000000894,A,wi,I,i,114,3,683.5,128403.10000000894,9035,WL,B,9.0
1,15.766999959945679,learn,44233.00004005432,Fri Jun 05 2026 11:19:14 GMT-0400 (Eastern Daylight Time),129269.79999999702,A,win,I,n,152,3,866.6999999880791,128403.10000000894,9035,WL,B,9.0
1,15.849999904632568,learn,44150.00009536743,Fri Jun 05 2026 11:19:14 GMT-0400 (Eastern Daylight Time),129353.0,A,wind,I,d,70,3,949.8999999910593,128403.10000000894,9035,WL,B,9.0
1,15.982999801635742,learn,44017.00019836426,Fri Jun 05 2026 11:19:14 GMT-0400 (Eastern Daylight Time),129486.40000000596,A,windo,I,o,106,3,1083.2999999970198,128403.10000000894,9035,WL,B,9.0
1,16.149999856948853,learn,43850.00014305115,Fri Jun 05 2026 11:19:14 GMT-0400 (Eastern Daylight Time),129653.20000000298,A,window,I,w,130,3,1250.0999999940395,128403.10000000894,9035,WL,B,9.0
1,16.632999897003174,learn,43367.000102996826,Fri Jun 05 2026 11:19:14 GMT-0400 (Eastern Daylight Time),130136.0,A,windowenter,I,enter,469,3,1732.8999999910593,128403.10000000894,9035,WL,B,9.0
1,17.366999864578247,learn,42633.00013542175,Fri Jun 05 2026 11:19:14 GMT-0400 (Eastern Daylight Time),130869.60000000894,A,s,I,s,726,3,733.2000000029802,130136.40000000596,9035,WL,B,10.0
1,17.91699981689453,learn,42083.00018310547,Fri Jun 05 2026 11:19:14 GMT-0400 (Eastern Daylight Time),131419.70000000298,A,st,I,t,535,3,1283.2999999970198,130136.40000000596,9035,WL,B,10.0
1,18.316999912261963,learn,41683.00008773804,Fri Jun 05 2026 11:19:14 GMT-0400 (Eastern Daylight Time),131819.79999999702,A,sta,I,a,382,3,1683.3999999910593,130136.40000000596,9035,WL,B,10.0
1,18.566999912261963,learn,41433.00008773804,Fri Jun 05 2026 11:19:14 GMT-0400 (Eastern Daylight Time),132069.60000000894,A,star,I,r,240,3,1933.2000000029802,130136.40000000596,9035,WL,B,10.0
1,19.682999849319458,learn,40317.00015068054,Fri Jun 05 2026 11:19:14 GMT-0400 (Eastern Daylight Time),133186.0,A,starenter,I,enter,1092,3,3049.5999999940395,130136.40000000596,9035,WL,B,10.0
1,20.16699981689453,learn,39833.00018310547,Fri Jun 05 2026 11:19:14 GMT-0400 (Eastern Daylight Time),133669.90000000596,A,p,I,p,476,3,483.6000000089407,133186.29999999702,9035,WL,B,11.0
1,20.41699981689453,learn,39583.00018310547,Fri Jun 05 2026 11:19:14 GMT-0400 (Eastern Daylight Time),133919.90000000596,A,pu,I,u,229,3,733.6000000089407,133186.29999999702,9035,WL,B,11.0
1,20.649999856948853,learn,39350.00014305115,Fri Jun 05 2026 11:19:14 GMT-0400 (Eastern Daylight Time),134153.10000000894,A,pup,I,p,219,3,966.8000000119209,133186.29999999702,9035,WL,B,11.0
1,20.967000007629395,learn,39032.999992370605,Fri Jun 05 2026 11:19:14 GMT-0400 (Eastern Daylight Time),134469.79999999702,A,pupi,I,i,290,3,1283.5,133186.29999999702,9035,WL,B,11.0
1,21.366999864578247,learn,38633.00013542175,Fri Jun 05 2026 11:19:14 GMT-0400 (Eastern Daylight Time),134869.60000000894,A,pupil,I,l,389,3,1683.300000011921,133186.29999999702,9035,WL,B,11.0
1,22.08299994468689,learn,37917.00005531311,Fri Jun 05 2026 11:19:14 GMT-0400 (Eastern Daylight Time),135586.0,A,pupilenter,I,enter,691,3,2399.7000000029802,133186.29999999702,9035,WL,B,11.0
1,41.282999992370605,learn,18717.000007629395,Fri Jun 05 2026 11:19:14 GMT-0400 (Eastern Daylight Time),154786.40000000596,A,w,I,w,19179,3,19200.10000000894,135586.29999999702,9035,WL,B,12.0
1,41.41699981689453,learn,18583.00018310547,Fri Jun 05 2026 11:19:14 GMT-0400 (Eastern Daylight Time),154919.5,A,wi,I,i,120,3,19333.20000000298,135586.29999999702,9035,WL,B,12.0
1,41.58299994468689,learn,18417.00005531311,Fri Jun 05 2026 11:19:14 GMT-0400 (Eastern Daylight Time),155086.5,A,wif,I,f,146,3,19500.20000000298,135586.29999999702,9035,WL,B,12.0
1,41.73299980163574,learn,18267.000198364258,Fri Jun 05 2026 11:19:14 GMT-0400 (Eastern Daylight Time),155236.40000000596,A,wife,I,e,125,3,19650.10000000894,135586.29999999702,9035,WL,B,12.0
1,42.032999992370605,learn,17967.000007629395,Fri Jun 05 2026 11:19:14 GMT-0400 (Eastern Daylight Time),155536.0,A,wifeenter,I,enter,278,3,19949.70000000298,135586.29999999702,9035,WL,B,12.0
1,48.217000007629395,learn,11782.999992370605,Fri Jun 05 2026 11:19:14 GMT-0400 (Eastern Daylight Time),161719.60000000894,A,a,I,a,6174,3,6183.100000008941,155536.5,9035,WL,B,13.0
1,48.43299984931946,learn,11567.000150680542,Fri Jun 05 2026 11:19:14 GMT-0400 (Eastern Daylight Time),161936.5,A,ar,I,r,196,3,6400.0,155536.5,9035,WL,B,13.0
1,48.56699991226196,learn,11433.000087738037,Fri Jun 05 2026 11:19:14 GMT-0400 (Eastern Daylight Time),162069.5,A,arm,I,m,120,3,6533.0,155536.5,9035,WL,B,13.0
1,48.865999937057495,learn,11134.000062942505,Fri Jun 05 2026 11:19:14 GMT-0400 (Eastern Daylight Time),162369.29999999702,A,armenter,I,enter,277,3,6832.79999999702,155536.5,9035,WL,B,13.0
1,60.01699995994568,learn,-16.99995994567871,Fri Jun 05 2026 11:19:14 GMT-0400 (Eastern Daylight Time),173519.79999999702,A,None,I,None,11143,3,11150.09999999404,162369.70000000298,9035,WL,B,14.0
2,0.75,learn,59250.0,Fri Jun 05 2026 11:19:14 GMT-0400 (Eastern Daylight Time),250269.70000000298,A,s,I,s,732,3,749.5999999940395,249520.10000000894,9035,WL,B,1.0
2,1.0,learn,59000.0,Fri Jun 05 2026 11:19:14 GMT-0400 (Eastern Daylight Time),250519.60000000894,A,st,I,t,237,3,999.5,249520.10000000894,9035,WL,B,1.0
2,1.25,learn,58750.0,Fri Jun 05 2026 11:19:14 GMT-0400 (Eastern Daylight Time),250769.60000000894,A,str,I,r,228,3,1249.5,249520.10000000894,9035,WL,B,1.0
2,1.366999864578247,learn,58633.00013542175,Fri Jun 05 2026 11:19:14 GMT-0400 (Eastern Daylight Time),250887.20000000298,A,stre,I,e,106,3,1367.0999999940395,249520.10000000894,9035,WL,B,1.0
2,1.6159999370574951,learn,58384.000062942505,Fri Jun 05 2026 11:19:14 GMT-0400 (Eastern Daylight Time),251136.29999999702,A,stree,I,e,227,3,1616.199999988079,249520.10000000894,9035,WL,B,1.0
2,1.7999999523162842,learn,58200.000047683716,Fri Jun 05 2026 11:19:14 GMT-0400 (Eastern Daylight Time),251319.60000000894,A,street,I,t,169,3,1799.5,249520.10000000894,9035,WL,B,1.0
2,2.132999897003174,learn,57867.000102996826,Fri Jun 05 2026 11:19:14 GMT-0400 (Eastern Daylight Time),251652.5,A,streetenter,I,enter,297,3,2132.3999999910593,249520.10000000894,9035,WL,B,1.0
2,2.549999952316284,learn,57450.000047683716,Fri Jun 05 2026 11:19:14 GMT-0400 (Eastern Daylight Time),252069.60000000894,A,g,I,g,393,3,416.80000001192093,251652.79999999702,9035,WL,B,2.0
2,2.865999937057495,learn,57134.000062942505,Fri Jun 05 2026 11:19:14 GMT-0400 (Eastern Daylight Time),252386.5,A,gr,I,r,291,3,733.7000000029802,251652.79999999702,9035,WL,B,2.0
2,3.065999984741211,learn,56934.00001525879,Fri Jun 05 2026 11:19:14 GMT-0400 (Eastern Daylight Time),252586.10000000894,A,gra,I,a,185,3,933.3000000119209,251652.79999999702,9035,WL,B,2.0
2,3.315999984741211,learn,56684.00001525879,Fri Jun 05 2026 11:19:14 GMT-0400 (Eastern Daylight Time),252836.29999999702,A,gras,I,s,225,3,1183.5,251652.79999999702,9035,WL,B,2.0
2,3.5160000324249268,learn,56483.99996757507,Fri Jun 05 2026 11:19:14 GMT-0400 (Eastern Daylight Time),253036.20000000298,A,grass,I,s,181,3,1383.4000000059605,251652.79999999702,9035,WL,B,2.0
2,3.7330000400543213,learn,56266.99995994568,Fri Jun 05 2026 11:19:14 GMT-0400 (Eastern Daylight Time),253252.5,A,grassenter,I,enter,189,3,1599.7000000029802,251652.79999999702,9035,WL,B,2.0
2,4.1499998569488525,learn,55850.00014305115,Fri Jun 05 2026 11:19:14 GMT-0400 (Eastern Daylight Time),253669.70000000298,A,d,I,d,394,3,416.79999999701977,253252.90000000596,9035,WL,B,3.0
2,4.266000032424927,learn,55733.99996757507,Fri Jun 05 2026 11:19:14 GMT-0400 (Eastern Daylight Time),253786.20000000298,A,do,I,o,101,3,533.2999999970198,253252.90000000596,9035,WL,B,3.0
2,4.5,learn,55500.0,Fri Jun 05 2026 11:19:14 GMT-0400 (Eastern Daylight Time),254019.60000000894,A,doo,I,o,205,3,766.7000000029802,253252.90000000596,9035,WL,B,3.0
2,4.733000040054321,learn,55266.99995994568,Fri Jun 05 2026 11:19:14 GMT-0400 (Eastern Daylight Time),254253.0,A,door,I,r,216,3,1000.0999999940395,253252.90000000596,9035,WL,B,3.0
2,5.115999937057495,learn,54884.000062942505,Fri Jun 05 2026 11:19:14 GMT-0400 (Eastern Daylight Time),254635.79999999702,A,doorenter,I,enter,365,3,1382.8999999910593,253252.90000000596,9035,WL,B,3.0
2,5.483000040054321,learn,54516.99995994568,Fri Jun 05 2026 11:19:14 GMT-0400 (Eastern Daylight Time),255002.90000000596,A,a,I,a,354,3,366.79999999701977,254636.10000000894,9035,WL,B,4.0
2,5.6499998569488525,learn,54350.00014305115,Fri Jun 05 2026 11:19:14 GMT-0400 (Eastern Daylight Time),255169.70000000298,A,ar,I,r,143,3,533.5999999940395,254636.10000000894,9035,WL,B,4.0
2,6.0,learn,54000.0,Fri Jun 05 2026 11:19:14 GMT-0400 (Eastern Daylight Time),255519.60000000894,A,arm,I,m,320,3,883.5,254636.10000000894,9035,WL,B,4.0
2,6.415999889373779,learn,53584.00011062622,Fri Jun 05 2026 11:19:14 GMT-0400 (Eastern Daylight Time),255935.79999999702,A,armenter,I,enter,393,3,1299.699999988079,254636.10000000894,9035,WL,B,4.0
2,6.733000040054321,learn,53266.99995994568,Fri Jun 05 2026 11:19:14 GMT-0400 (Eastern Daylight Time),256252.79999999702,A,s,I,s,302,3,316.59999999403954,255936.20000000298,9035,WL,B,5.0
2,6.948999881744385,learn,53051.000118255615,Fri Jun 05 2026 11:19:14 GMT-0400 (Eastern Daylight Time),256469.40000000596,A,st,I,t,207,3,533.2000000029802,255936.20000000298,9035,WL,B,5.0
2,7.2159998416900635,learn,52784.00015830994,Fri Jun 05 2026 11:19:14 GMT-0400 (Eastern Daylight Time),256736.29999999702,A,sta,I,a,235,3,800.0999999940395,255936.20000000298,9035,WL,B,5.0
2,7.365999937057495,learn,52634.000062942505,Fri Jun 05 2026 11:19:14 GMT-0400 (Eastern Daylight Time),256885.90000000596,A,star,I,r,138,3,949.7000000029802,255936.20000000298,9035,WL,B,5.0
2,7.799000024795532,learn,52200.99997520447,Fri Jun 05 2026 11:19:14 GMT-0400 (Eastern Daylight Time),257319.20000000298,A,starenter,I,enter,410,3,1383.0,255936.20000000298,9035,WL,B,5.0
2,9.115999937057495,learn,50884.000062942505,Fri Jun 05 2026 11:19:14 GMT-0400 (Eastern Daylight Time),258636.20000000298,A,w,I,w,1303,3,1316.5999999940395,257319.60000000894,9035,WL,B,6.0
2,9.532999992370605,learn,50467.000007629395,Fri Jun 05 2026 11:19:14 GMT-0400 (Eastern Daylight Time),259052.90000000596,A,wi,I,i,397,3,1733.2999999970198,257319.60000000894,9035,WL,B,6.0
2,9.899999856948853,learn,50100.00014305115,Fri Jun 05 2026 11:19:14 GMT-0400 (Eastern Daylight Time),259419.70000000298,A,wif,I,f,350,3,2100.0999999940395,257319.60000000894,9035,WL,B,6.0
2,10.065999984741211,learn,49934.00001525879,Fri Jun 05 2026 11:19:14 GMT-0400 (Eastern Daylight Time),259586.40000000596,A,wife,I,e,142,3,2266.7999999970198,257319.60000000894,9035,WL,B,6.0
2,10.299000024795532,learn,49700.99997520447,Fri Jun 05 2026 11:19:14 GMT-0400 (Eastern Daylight Time),259819.0,A,wifeenter,I,enter,213,3,2499.3999999910593,257319.60000000894,9035,WL,B,6.0
2,10.549000024795532,learn,49450.99997520447,Fri Jun 05 2026 11:19:14 GMT-0400 (Eastern Daylight Time),260069.40000000596,A,w,I,w,243,3,249.90000000596046,259819.5,9035,WL,B,7.0
2,10.832000017166138,learn,49167.99998283386,Fri Jun 05 2026 11:19:14 GMT-0400 (Eastern Daylight Time),260352.20000000298,A,wi,I,i,261,3,532.7000000029802,259819.5,9035,WL,B,7.0
2,11.032999992370605,learn,48967.000007629395,Fri Jun 05 2026 11:19:14 GMT-0400 (Eastern Daylight Time),260552.90000000596,A,win,I,n,190,3,733.4000000059605,259819.5,9035,WL,B,7.0
2,11.215999841690063,learn,48784.00015830994,Fri Jun 05 2026 11:19:14 GMT-0400 (Eastern Daylight Time),260736.20000000298,A,wind,I,d,159,3,916.7000000029802,259819.5,9035,WL,B,7.0
2,11.282999992370605,learn,48717.000007629395,Fri Jun 05 2026 11:19:14 GMT-0400 (Eastern Daylight Time),260802.70000000298,A,windo,I,o,40,3,983.2000000029802,259819.5,9035,WL,B,7.0
2,11.532999992370605,learn,48467.000007629395,Fri Jun 05 2026 11:19:14 GMT-0400 (Eastern Daylight Time),261052.90000000596,A,window,I,w,230,3,1233.4000000059605,259819.5,9035,WL,B,7.0
2,11.848999977111816,learn,48151.00002288818,Fri Jun 05 2026 11:19:14 GMT-0400 (Eastern Daylight Time),261369.10000000894,A,windowenter,I,enter,294,3,1549.6000000089407,259819.5,9035,WL,B,7.0
2,12.450000047683716,learn,47549.999952316284,Fri Jun 05 2026 11:19:14 GMT-0400 (Eastern Daylight Time),261969.5,A,c,I,c,581,3,600.0,261369.5,9035,WL,B,8.0
2,12.58299994468689,learn,47417.00005531311,Fri Jun 05 2026 11:19:14 GMT-0400 (Eastern Daylight Time),262102.70000000298,A,ci,I,i,121,3,733.2000000029802,261369.5,9035,WL,B,8.0
2,12.766000032424927,learn,47233.99996757507,Fri Jun 05 2026 11:19:14 GMT-0400 (Eastern Daylight Time),262286.299999997,A,cit,I,t,154,3,916.7999999970198,261369.5,9035,WL,B,8.0
2,12.948999881744385,learn,47051.000118255615,Fri Jun 05 2026 11:19:14 GMT-0400 (Eastern Daylight Time),262469.40000000596,A,city,I,y,164,3,1099.9000000059605,261369.5,9035,WL,B,8.0
2,13.681999921798706,learn,46318.000078201294,Fri Jun 05 2026 11:19:14 GMT-0400 (Eastern Daylight Time),263202.40000000596,A,cityenter,I,enter,709,3,1832.9000000059605,261369.5,9035,WL,B,8.0
2,14.132999897003174,learn,45867.000102996826,Fri Jun 05 2026 11:19:14 GMT-0400 (Eastern Daylight Time),263652.90000000596,A,s,I,s,427,3,450.1000000089407,263202.799999997,9035,WL,B,9.0
2,15.5,learn,44500.0,Fri Jun 05 2026 11:19:14 GMT-0400 (Eastern Daylight Time),265019.5,A,st,I,t,1350,3,1816.7000000029802,263202.799999997,9035,WL,B,9.0
2,15.965999841690063,learn,44034.00015830994,Fri Jun 05 2026 11:19:14 GMT-0400 (Eastern Daylight Time),265486.299999997,A,sta,I,a,447,3,2283.5,263202.799999997,9035,WL,B,9.0
2,16.282999992370605,learn,43717.000007629395,Fri Jun 05 2026 11:19:14 GMT-0400 (Eastern Daylight Time),265802.90000000596,A,star,I,r,300,3,2600.1000000089407,263202.799999997,9035,WL,B,9.0
2,18.23199987411499,learn,41768.00012588501,Fri Jun 05 2026 11:19:14 GMT-0400 (Eastern Daylight Time),267752.40000000596,A,starenter,I,enter,1935,3,4549.600000008941,263202.799999997,9035,WL,B,9.0
2,18.950000047683716,learn,41049.999952316284,Fri Jun 05 2026 11:19:14 GMT-0400 (Eastern Daylight Time),268469.60000000894,A,c,I,c,693,3,716.9000000059605,267752.700000003,9035,WL,B,10.0
2,19.215999841690063,learn,40784.00015830994,Fri Jun 05 2026 11:19:14 GMT-0400 (Eastern Daylight Time),268736.299999997,A,ca,I,a,246,3,983.5999999940395,267752.700000003,9035,WL,B,10.0
2,19.41599988937378,learn,40584.00011062622,Fri Jun 05 2026 11:19:14 GMT-0400 (Eastern Daylight Time),268936.299999997,A,cab,I,b,175,3,1183.5999999940395,267752.700000003,9035,WL,B,10.0
2,19.549999952316284,learn,40450.000047683716,Fri Jun 05 2026 11:19:14 GMT-0400 (Eastern Daylight Time),269069.60000000894,A,cabi,I,i,113,3,1316.9000000059605,267752.700000003,9035,WL,B,10.0
2,19.75,learn,40250.0,Fri Jun 05 2026 11:19:14 GMT-0400 (Eastern Daylight Time),269269.5,A,cabin,I,n,189,3,1516.7999999970198,267752.700000003,9035,WL,B,10.0
2,20.48300004005432,learn,39516.99995994568,Fri Jun 05 2026 11:19:14 GMT-0400 (Eastern Daylight Time),270002.5,A,cabinenter,I,enter,707,3,2249.7999999970198,267752.700000003,9035,WL,B,10.0
2,21.700000047683716,learn,38299.999952316284,Fri Jun 05 2026 11:19:14 GMT-0400 (Eastern Daylight Time),271219.60000000894,A,l,I,l,1195,3,1216.800000011921,270002.799999997,9035,WL,B,11.0
2,21.950000047683716,learn,38049.999952316284,Fri Jun 05 2026 11:19:14 GMT-0400 (Eastern Daylight Time),271469.60000000894,A,li,I,i,232,3,1466.800000011921,270002.799999997,9035,WL,B,11.0
2,22.16599988937378,learn,37834.00011062622,Fri Jun 05 2026 11:19:14 GMT-0400 (Eastern Daylight Time),271686.0,A,lik,I,k,203,3,1683.2000000029802,270002.799999997,9035,WL,B,11.0
2,22.66599988937378,learn,37334.00011062622,Fri Jun 05 2026 11:19:14 GMT-0400 (Eastern Daylight Time),272186.200000003,A,li,I,backspace,475,3,2183.4000000059605,270002.799999997,9035,WL,B,11.0
2,22.899999856948853,learn,37100.00014305115,Fri Jun 05 2026 11:19:14 GMT-0400 (Eastern Daylight Time),272419.5,A,l,I,backspace,207,3,2416.7000000029802,270002.799999997,9035,WL,B,11.0
2,23.382999897003174,learn,36617.000102996826,Fri Jun 05 2026 11:19:14 GMT-0400 (Eastern Daylight Time),272902.799999997,A,la,I,a,460,3,2900.0,270002.799999997,9035,WL,B,11.0
2,23.74899983406067,learn,36251.00016593933,Fri Jun 05 2026 11:19:14 GMT-0400 (Eastern Daylight Time),273269.299999997,A,lak,I,k,356,3,3266.5,270002.799999997,9035,WL,B,11.0
2,23.932999849319458,learn,36067.00015068054,Fri Jun 05 2026 11:19:14 GMT-0400 (Eastern Daylight Time),273453.0,A,lake,I,e,164,3,3450.2000000029802,270002.799999997,9035,WL,B,11.0
2,24.266000032424927,learn,35733.99996757507,Fri Jun 05 2026 11:19:14 GMT-0400 (Eastern Daylight Time),273785.700000003,A,lakeenter,I,enter,307,3,3782.9000000059605,270002.799999997,9035,WL,B,11.0
2,24.932999849319458,learn,35067.00015068054,Fri Jun 05 2026 11:19:14 GMT-0400 (Eastern Daylight Time),274452.90000000596,A,c,I,c,644,3,666.7999999970198,273786.10000000894,9035,WL,B,12.0
2,25.06599998474121,learn,34934.00001525879,Fri Jun 05 2026 11:19:14 GMT-0400 (Eastern Daylight Time),274586.200000003,A,ci,I,i,119,3,800.0999999940395,273786.10000000894,9035,WL,B,12.0
2,25.266000032424927,learn,34733.99996757507,Fri Jun 05 2026 11:19:14 GMT-0400 (Eastern Daylight Time),274786.200000003,A,cit,I,t,169,3,1000.0999999940395,273786.10000000894,9035,WL,B,12.0
2,25.3989999294281,learn,34601.0000705719,Fri Jun 05 2026 11:19:14 GMT-0400 (Eastern Daylight Time),274919.40000000596,A,city,I,y,122,3,1133.2999999970198,273786.10000000894,9035,WL,B,12.0
2,25.698999881744385,learn,34301.000118255615,Fri Jun 05 2026 11:19:14 GMT-0400 (Eastern Daylight Time),275219.10000000894,A,cityenter,I,enter,273,3,1433.0,273786.10000000894,9035,WL,B,12.0
2,26.99899983406067,learn,33001.00016593933,Fri Jun 05 2026 11:19:14 GMT-0400 (Eastern Daylight Time),276519.0,A,p,I,p,1292,3,1299.5,275219.5,9035,WL,B,13.0
2,27.23300004005432,learn,32766.99995994568,Fri Jun 05 2026 11:19:14 GMT-0400 (Eastern Daylight Time),276752.90000000596,A,pi,I,i,215,3,1533.4000000059605,275219.5,9035,WL,B,13.0
2,27.3989999294281,learn,32601.0000705719,Fri Jun 05 2026 11:19:14 GMT-0400 (Eastern Daylight Time),276919.10000000894,A,pip,I,p,152,3,1699.6000000089407,275219.5,9035,WL,B,13.0
2,27.715999841690063,learn,32284.000158309937,Fri Jun 05 2026 11:19:14 GMT-0400 (Eastern Daylight Time),277236.299999997,A,pipe,I,e,290,3,2016.7999999970198,275219.5,9035,WL,B,13.0
2,28.06599998474121,learn,31934.00001525879,Fri Jun 05 2026 11:19:14 GMT-0400 (Eastern Daylight Time),277585.799999997,A,pipeenter,I,enter,325,3,2366.2999999970198,275219.5,9035,WL,B,13.0
2,28.549000024795532,learn,31450.999975204468,Fri Jun 05 2026 11:19:14 GMT-0400 (Eastern Daylight Time),278069.40000000596,A,s,I,s,476,3,483.20000000298023,277586.200000003,9035,WL,B,14.0
2,28.700000047683716,learn,31299.999952316284,Fri Jun 05 2026 11:19:14 GMT-0400 (Eastern Daylight Time),278219.60000000894,A,sk,I,k,134,3,633.4000000059605,277586.200000003,9035,WL,B,14.0
2,28.932999849319458,learn,31067.000150680542,Fri Jun 05 2026 11:19:14 GMT-0400 (Eastern Daylight Time),278453.0,A,ski,I,i,198,3,866.7999999970198,277586.200000003,9035,WL,B,14.0
2,29.149999856948853,learn,30850.000143051147,Fri Jun 05 2026 11:19:14 GMT-0400 (Eastern Daylight Time),278669.60000000894,A,skin,I,n,198,3,1083.4000000059605,277586.200000003,9035,WL,B,14.0
2,29.782000064849854,learn,30217.999935150146,Fri Jun 05 2026 11:19:14 GMT-0400 (Eastern Daylight Time),279302.40000000596,A,skinenter,I,enter,619,3,1716.2000000029802,277586.200000003,9035,WL,B,14.0
2,30.715999841690063,learn,29284.000158309937,Fri Jun 05 2026 11:19:14 GMT-0400 (Eastern Daylight Time),280236.200000003,A,f,I,f,919,3,933.4000000059605,279302.799999997,9035,WL,B,15.0
2,30.91599988937378,learn,29084.00011062622,Fri Jun 05 2026 11:19:14 GMT-0400 (Eastern Daylight Time),280436.299999997,A,fi,I,i,175,3,1133.5,279302.799999997,9035,WL,B,15.0
2,31.182999849319458,learn,28817.000150680542,Fri Jun 05 2026 11:19:14 GMT-0400 (Eastern Daylight Time),280702.90000000596,A,fir,I,r,238,3,1400.1000000089407,279302.799999997,9035,WL,B,15.0
2,31.348999977111816,learn,28651.000022888184,Fri Jun 05 2026 11:19:14 GMT-0400 (Eastern Daylight Time),280869.299999997,A,fire,I,e,154,3,1566.5,279302.799999997,9035,WL,B,15.0
2,32.41599988937378,learn,27584.00011062622,Fri Jun 05 2026 11:19:14 GMT-0400 (Eastern Daylight Time),281935.799999997,A,fireenter,I,enter,1034,3,2633.0,279302.799999997,9035,WL,B,15.0
3,0.7010002136230469,learn,59298.99978637695,Fri Jun 05 2026 11:19:14 GMT-0400 (Eastern Daylight Time),354469.5,A,s,I,s,675,3,699.5999999940395,353769.90000000596,9035,WL,B,1.0
3,0.9670000076293945,learn,59032.999992370605,Fri Jun 05 2026 11:19:14 GMT-0400 (Eastern Daylight Time),354736.10000000894,A,st,I,t,244,3,966.2000000029802,353769.90000000596,9035,WL,B,1.0
3,1.2000000476837158,learn,58799.999952316284,Fri Jun 05 2026 11:19:14 GMT-0400 (Eastern Daylight Time),354969.5,A,str,I,r,219,3,1199.5999999940395,353769.90000000596,9035,WL,B,1.0
3,1.317000150680542,learn,58682.99984931946,Fri Jun 05 2026 11:19:14 GMT-0400 (Eastern Daylight Time),355086.200000003,A,stre,I,e,91,3,1316.2999999970198,353769.90000000596,9035,WL,B,1.0
3,1.5500001907348633,learn,58449.99980926514,Fri Jun 05 2026 11:19:14 GMT-0400 (Eastern Daylight Time),355319.40000000596,A,stree,I,e,211,3,1549.5,353769.90000000596,9035,WL,B,1.0
3,1.7840001583099365,learn,58215.99984169006,Fri Jun 05 2026 11:19:14 GMT-0400 (Eastern Daylight Time),355552.700000003,A,street,I,t,211,3,1782.7999999970198,353769.90000000596,9035,WL,B,1.0
3,2.1500000953674316,learn,57849.99990463257,Fri Jun 05 2026 11:19:14 GMT-0400 (Eastern Daylight Time),355919.10000000894,A,streetenter,I,enter,343,3,2149.2000000029802,353769.90000000596,9035,WL,B,1.0
3,2.517000198364258,learn,57482.99980163574,Fri Jun 05 2026 11:19:14 GMT-0400 (Eastern Daylight Time),356286.10000000894,A,g,I,g,351,3,366.70000000298023,355919.40000000596,9035,WL,B,2.0
3,2.751000165939331,learn,57248.99983406067,Fri Jun 05 2026 11:19:14 GMT-0400 (Eastern Daylight Time),356519.5,A,gr,I,r,221,3,600.0999999940395,355919.40000000596,9035,WL,B,2.0
3,2.950000047683716,learn,57049.999952316284,Fri Jun 05 2026 11:19:14 GMT-0400 (Eastern Daylight Time),356719.40000000596,A,gra,I,a,177,3,800.0,355919.40000000596,9035,WL,B,2.0
3,3.200000047683716,learn,56799.999952316284,Fri Jun 05 2026 11:19:14 GMT-0400 (Eastern Daylight Time),356969.40000000596,A,gras,I,s,236,3,1050.0,355919.40000000596,9035,WL,B,2.0
3,3.4170000553131104,learn,56582.99994468689,Fri Jun 05 2026 11:19:14 GMT-0400 (Eastern Daylight Time),357186.10000000894,A,grass,I,s,192,3,1266.7000000029802,355919.40000000596,9035,WL,B,2.0
3,3.683000087738037,learn,56316.99991226196,Fri Jun 05 2026 11:19:14 GMT-0400 (Eastern Daylight Time),357452.299999997,A,grassenter,I,enter,246,3,1532.8999999910593,355919.40000000596,9035,WL,B,2.0
3,4.067000150680542,learn,55932.99984931946,Fri Jun 05 2026 11:19:14 GMT-0400 (Eastern Daylight Time),357836.10000000894,A,d,I,d,370,3,383.5,357452.60000000894,9035,WL,B,3.0
3,4.201000213623047,learn,55798.99978637695,Fri Jun 05 2026 11:19:14 GMT-0400 (Eastern Daylight Time),357969.5,A,do,I,o,111,3,516.8999999910593,357452.60000000894,9035,WL,B,3.0
3,4.400000095367432,learn,55599.99990463257,Fri Jun 05 2026 11:19:14 GMT-0400 (Eastern Daylight Time),358169.40000000596,A,doo,I,o,175,3,716.7999999970198,357452.60000000894,9035,WL,B,3.0
3,4.684000015258789,learn,55315.99998474121,Fri Jun 05 2026 11:19:14 GMT-0400 (Eastern Daylight Time),358452.799999997,A,door,I,r,258,3,1000.1999999880791,357452.60000000894,9035,WL,B,3.0
3,5.283000230789185,learn,54716.999769210815,Fri Jun 05 2026 11:19:14 GMT-0400 (Eastern Daylight Time),359052.299999997,A,doorenter,I,enter,582,3,1599.699999988079,357452.60000000894,9035,WL,B,3.0
3,5.66700005531311,learn,54332.99994468689,Fri Jun 05 2026 11:19:14 GMT-0400 (Eastern Daylight Time),359436.10000000894,A,a,I,a,370,3,383.5,359052.60000000894,9035,WL,B,4.0
3,5.834000110626221,learn,54165.99988937378,Fri Jun 05 2026 11:19:14 GMT-0400 (Eastern Daylight Time),359602.700000003,A,ar,I,r,143,3,550.0999999940395,359052.60000000894,9035,WL,B,4.0
3,6.1000001430511475,learn,53899.99985694885,Fri Jun 05 2026 11:19:14 GMT-0400 (Eastern Daylight Time),359869.5,A,arm,I,m,246,3,816.8999999910593,359052.60000000894,9035,WL,B,4.0
3,6.483000040054321,learn,53516.99995994568,Fri Jun 05 2026 11:19:14 GMT-0400 (Eastern Daylight Time),360252.299999997,A,armenter,I,enter,364,3,1199.699999988079,359052.60000000894,9035,WL,B,4.0
3,6.817000150680542,learn,53182.99984931946,Fri Jun 05 2026 11:19:14 GMT-0400 (Eastern Daylight Time),360586.10000000894,A,s,I,s,322,3,333.5,360252.60000000894,9035,WL,B,5.0
3,7.101000070571899,learn,52898.9999294281,Fri Jun 05 2026 11:19:14 GMT-0400 (Eastern Daylight Time),360869.5,A,st,I,t,255,3,616.8999999910593,360252.60000000894,9035,WL,B,5.0
3,7.301000118255615,learn,52698.999881744385,Fri Jun 05 2026 11:19:14 GMT-0400 (Eastern Daylight Time),361069.5,A,sta,I,a,180,3,816.8999999910593,360252.60000000894,9035,WL,B,5.0
3,7.484000205993652,learn,52515.99979400635,Fri Jun 05 2026 11:19:14 GMT-0400 (Eastern Daylight Time),361252.60000000894,A,star,I,r,147,3,1000.0,360252.60000000894,9035,WL,B,5.0
3,7.9670000076293945,learn,52032.999992370605,Fri Jun 05 2026 11:19:14 GMT-0400 (Eastern Daylight Time),361735.60000000894,A,starenter,I,enter,467,3,1483.0,360252.60000000894,9035,WL,B,5.0
3,8.400000095367432,learn,51599.99990463257,Fri Jun 05 2026 11:19:14 GMT-0400 (Eastern Daylight Time),362169.40000000596,A,w,I,w,422,3,433.40000000596046,361736.0,9035,WL,B,6.0
3,8.58400011062622,learn,51415.99988937378,Fri Jun 05 2026 11:19:14 GMT-0400 (Eastern Daylight Time),362352.5,A,wi,I,i,159,3,616.5,361736.0,9035,WL,B,6.0
3,8.717000007629395,learn,51282.999992370605,Fri Jun 05 2026 11:19:14 GMT-0400 (Eastern Daylight Time),362485.90000000596,A,wif,I,f,122,3,749.9000000059605,361736.0,9035,WL,B,6.0
3,8.884000062942505,learn,51115.999937057495,Fri Jun 05 2026 11:19:14 GMT-0400 (Eastern Daylight Time),362652.700000003,A,wife,I,e,147,3,916.7000000029802,361736.0,9035,WL,B,6.0
3,9.16700005531311,learn,50832.99994468689,Fri Jun 05 2026 11:19:14 GMT-0400 (Eastern Daylight Time),362935.60000000894,A,wifeenter,I,enter,270,3,1199.6000000089407,361736.0,9035,WL,B,6.0
3,9.517000198364258,learn,50482.99980163574,Fri Jun 05 2026 11:19:14 GMT-0400 (Eastern Daylight Time),363285.799999997,A,w,I,w,342,3,349.8999999910593,362935.90000000596,9035,WL,B,7.0
3,9.684000015258789,learn,50315.99998474121,Fri Jun 05 2026 11:19:14 GMT-0400 (Eastern Daylight Time),363452.799999997,A,wi,I,i,149,3,516.8999999910593,362935.90000000596,9035,WL,B,7.0
3,9.867000102996826,learn,50132.999897003174,Fri Jun 05 2026 11:19:14 GMT-0400 (Eastern Daylight Time),363636.200000003,A,win,I,n,149,3,700.2999999970198,362935.90000000596,9035,WL,B,7.0
3,9.967000007629395,learn,50032.999992370605,Fri Jun 05 2026 11:19:14 GMT-0400 (Eastern Daylight Time),363736.10000000894,A,wind,I,d,87,3,800.2000000029802,362935.90000000596,9035,WL,B,7.0
3,10.134000062942505,learn,49865.999937057495,Fri Jun 05 2026 11:19:14 GMT-0400 (Eastern Daylight Time),363902.700000003,A,windo,I,o,145,3,966.7999999970198,362935.90000000596,9035,WL,B,7.0
3,10.300000190734863,learn,49699.99980926514,Fri Jun 05 2026 11:19:14 GMT-0400 (Eastern Daylight Time),364069.200000003,A,window,I,w,146,3,1133.2999999970198,362935.90000000596,9035,WL,B,7.0
3,10.783000230789185,learn,49216.999769210815,Fri Jun 05 2026 11:19:14 GMT-0400 (Eastern Daylight Time),364552.299999997,A,windowenter,I,enter,468,3,1616.3999999910593,362935.90000000596,9035,WL,B,7.0
3,11.467000007629395,learn,48532.999992370605,Fri Jun 05 2026 11:19:14 GMT-0400 (Eastern Daylight Time),365236.10000000894,A,c,I,c,662,3,683.5,364552.60000000894,9035,WL,B,8.0
3,11.600000143051147,learn,48399.99985694885,Fri Jun 05 2026 11:19:14 GMT-0400 (Eastern Daylight Time),365369.40000000596,A,ci,I,i,119,3,816.7999999970198,364552.60000000894,9035,WL,B,8.0
3,11.800000190734863,learn,48199.99980926514,Fri Jun 05 2026 11:19:14 GMT-0400 (Eastern Daylight Time),365569.299999997,A,cit,I,t,168,3,1016.6999999880791,364552.60000000894,9035,WL,B,8.0
3,11.984000205993652,learn,48015.99979400635,Fri Jun 05 2026 11:19:14 GMT-0400 (Eastern Daylight Time),365752.700000003,A,city,I,y,168,3,1200.0999999940395,364552.60000000894,9035,WL,B,8.0
3,12.651000022888184,learn,47348.99997711182,Fri Jun 05 2026 11:19:14 GMT-0400 (Eastern Daylight Time),366420.0,A,cityenter,I,enter,632,3,1867.3999999910593,364552.60000000894,9035,WL,B,8.0
3,13.300000190734863,learn,46699.99980926514,Fri Jun 05 2026 11:19:14 GMT-0400 (Eastern Daylight Time),367069.5,A,p,I,p,634,3,649.2000000029802,366420.299999997,9035,WL,B,9.0
3,13.534000158309937,learn,46465.99984169006,Fri Jun 05 2026 11:19:14 GMT-0400 (Eastern Daylight Time),367302.700000003,A,pu,I,u,221,3,882.4000000059605,366420.299999997,9035,WL,B,9.0
3,13.800000190734863,learn,46199.99980926514,Fri Jun 05 2026 11:19:14 GMT-0400 (Eastern Daylight Time),367569.5,A,pup,I,p,243,3,1149.2000000029802,366420.299999997,9035,WL,B,9.0
3,14.200000047683716,learn,45799.999952316284,Fri Jun 05 2026 11:19:14 GMT-0400 (Eastern Daylight Time),367969.40000000596,A,pupi,I,i,378,3,1549.1000000089407,366420.299999997,9035,WL,B,9.0
3,14.5,learn,45500.0,Fri Jun 05 2026 11:19:14 GMT-0400 (Eastern Daylight Time),368269.40000000596,A,pupil,I,l,282,3,1849.1000000089407,366420.299999997,9035,WL,B,9.0
3,15.283000230789185,learn,44716.999769210815,Fri Jun 05 2026 11:19:14 GMT-0400 (Eastern Daylight Time),369052.299999997,A,pupilenter,I,enter,764,3,2632.0,366420.299999997,9035,WL,B,9.0
3,19.75,learn,40250.0,Fri Jun 05 2026 11:19:14 GMT-0400 (Eastern Daylight Time),373519.40000000596,A,c,I,c,4450,3,4466.79999999702,369052.60000000894,9035,WL,B,10.0
3,20.034000158309937,learn,39965.99984169006,Fri Jun 05 2026 11:19:14 GMT-0400 (Eastern Daylight Time),373802.700000003,A,ca,I,a,266,3,4750.0999999940395,369052.60000000894,9035,WL,B,10.0
3,20.234000205993652,learn,39765.99979400635,Fri Jun 05 2026 11:19:14 GMT-0400 (Eastern Daylight Time),374002.799999997,A,cab,I,b,174,3,4950.199999988079,369052.60000000894,9035,WL,B,10.0
3,20.467000007629395,learn,39532.999992370605,Fri Jun 05 2026 11:19:14 GMT-0400 (Eastern Daylight Time),374236.10000000894,A,cabi,I,i,214,3,5183.5,369052.60000000894,9035,WL,B,10.0
3,20.800000190734863,learn,39199.99980926514,Fri Jun 05 2026 11:19:14 GMT-0400 (Eastern Daylight Time),374569.40000000596,A,cabin,I,n,316,3,5516.79999999702,369052.60000000894,9035,WL,B,10.0
3,21.58300018310547,learn,38416.99981689453,Fri Jun 05 2026 11:19:14 GMT-0400 (Eastern Daylight Time),375352.299999997,A,cabinenter,I,enter,767,3,6299.699999988079,369052.60000000894,9035,WL,B,10.0
3,24.217000007629395,learn,35782.999992370605,Fri Jun 05 2026 11:19:14 GMT-0400 (Eastern Daylight Time),377986.10000000894,A,p,I,p,2614,3,2633.5,375352.60000000894,9035,WL,B,11.0
3,24.450000047683716,learn,35549.999952316284,Fri Jun 05 2026 11:19:14 GMT-0400 (Eastern Daylight Time),378219.5,A,pi,I,i,215,3,2866.8999999910593,375352.60000000894,9035,WL,B,11.0
3,24.734000205993652,learn,35265.99979400635,Fri Jun 05 2026 11:19:14 GMT-0400 (Eastern Daylight Time),378502.700000003,A,pip,I,p,261,3,3150.0999999940395,375352.60000000894,9035,WL,B,11.0
3,25.034000158309937,learn,34965.99984169006,Fri Jun 05 2026 11:19:14 GMT-0400 (Eastern Daylight Time),378802.700000003,A,pipe,I,e,276,3,3450.0999999940395,375352.60000000894,9035,WL,B,11.0
3,25.767000198364258,learn,34232.99980163574,Fri Jun 05 2026 11:19:14 GMT-0400 (Eastern Daylight Time),379535.60000000894,A,pipeenter,I,enter,711,3,4183.0,375352.60000000894,9035,WL,B,11.0
3,29.767000198364258,learn,30232.999801635742,Fri Jun 05 2026 11:19:14 GMT-0400 (Eastern Daylight Time),383536.10000000894,A,f,I,f,3983,3,4000.1000000089407,379536.0,9035,WL,B,12.0
3,29.91700005531311,learn,30082.99994468689,Fri Jun 05 2026 11:19:14 GMT-0400 (Eastern Daylight Time),383685.799999997,A,fi,I,i,139,3,4149.79999999702,379536.0,9035,WL,B,12.0
3,30.117000102996826,learn,29882.999897003174,Fri Jun 05 2026 11:19:14 GMT-0400 (Eastern Daylight Time),383886.0,A,fir,I,r,172,3,4350.0,379536.0,9035,WL,B,12.0
3,30.284000158309937,learn,29715.999841690063,Fri Jun 05 2026 11:19:14 GMT-0400 (Eastern Daylight Time),384052.799999997,A,fire,I,e,143,3,4516.79999999702,379536.0,9035,WL,B,12.0
3,31.517000198364258,learn,28482.999801635742,Fri Jun 05 2026 11:19:14 GMT-0400 (Eastern Daylight Time),385285.5,A,fireenter,I,enter,1220,3,5749.5,379536.0,9035,WL,B,12.0
3,31.90000009536743,learn,28099.99990463257,Fri Jun 05 2026 11:19:14 GMT-0400 (Eastern Daylight Time),385669.40000000596,A,s,I,s,360,3,383.6000000089407,385285.799999997,9035,WL,B,13.0
3,32.01700019836426,learn,27982.999801635742,Fri Jun 05 2026 11:19:14 GMT-0400 (Eastern Daylight Time),385786.0,A,sk,I,k,101,3,500.20000000298023,385285.799999997,9035,WL,B,13.0
3,32.28400015830994,learn,27715.999841690063,Fri Jun 05 2026 11:19:14 GMT-0400 (Eastern Daylight Time),386052.90000000596,A,ski,I,i,240,3,767.1000000089407,385285.799999997,9035,WL,B,13.0
3,32.51700019836426,learn,27482.999801635742,Fri Jun 05 2026 11:19:14 GMT-0400 (Eastern Daylight Time),386286.0,A,skin,I,n,213,3,1000.2000000029802,385285.799999997,9035,WL,B,13.0
3,33.117000102996826,learn,26882.999897003174,Fri Jun 05 2026 11:19:14 GMT-0400 (Eastern Daylight Time),386885.5,A,skinenter,I,enter,589,3,1599.7000000029802,385285.799999997,9035,WL,B,13.0
3,33.75,learn,26250.0,Fri Jun 05 2026 11:19:14 GMT-0400 (Eastern Daylight Time),387519.40000000596,A,c,I,c,617,3,633.6000000089407,386885.799999997,9035,WL,B,14.0
3,33.90000009536743,learn,26099.99990463257,Fri Jun 05 2026 11:19:14 GMT-0400 (Eastern Daylight Time),387669.40000000596,A,cl,I,l,124,3,783.6000000089407,386885.799999997,9035,WL,B,14.0
3,34.134000062942505,learn,25865.999937057495,Fri Jun 05 2026 11:19:14 GMT-0400 (Eastern Daylight Time),387902.700000003,A,clo,I,o,212,3,1016.9000000059605,386885.799999997,9035,WL,B,14.0
3,34.33400011062622,learn,25665.99988937378,Fri Jun 05 2026 11:19:14 GMT-0400 (Eastern Daylight Time),388102.60000000894,A,cloc,I,c,189,3,1216.800000011921,386885.799999997,9035,WL,B,14.0
3,34.467000007629395,learn,25532.999992370605,Fri Jun 05 2026 11:19:14 GMT-0400 (Eastern Daylight Time),388235.799999997,A,clock,I,k,107,3,1350.0,386885.799999997,9035,WL,B,14.0
3,35.65000009536743,learn,24349.99990463257,Fri Jun 05 2026 11:19:14 GMT-0400 (Eastern Daylight Time),389419.0,A,clockenter,I,enter,1165,3,2533.2000000029802,386885.799999997,9035,WL,B,14.0
3,48.73400020599365,learn,11265.999794006348,Fri Jun 05 2026 11:19:14 GMT-0400 (Eastern Daylight Time),402502.60000000894,A,w,I,w,13074,3,13083.40000000596,389419.200000003,9035,WL,B,15.0
3,49.06700015068054,learn,10932.999849319458,Fri Jun 05 2026 11:19:14 GMT-0400 (Eastern Daylight Time),402836.0,A,wi,I,i,308,3,13416.79999999702,389419.200000003,9035,WL,B,15.0
3,49.43400001525879,learn,10565.999984741211,Fri Jun 05 2026 11:19:14 GMT-0400 (Eastern Daylight Time),403202.700000003,A,win,I,n,342,3,13783.5,389419.200000003,9035,WL,B,15.0
3,49.60000014305115,learn,10399.999856948853,Fri Jun 05 2026 11:19:14 GMT-0400 (Eastern Daylight Time),403369.40000000596,A,wind,I,d,152,3,13950.20000000298,389419.200000003,9035,WL,B,15.0
3,49.85000014305115,learn,10149.999856948853,Fri Jun 05 2026 11:19:14 GMT-0400 (Eastern Daylight Time),403619.299999997,A,windo,I,o,215,3,14200.09999999404,389419.200000003,9035,WL,B,15.0
3,49.950000047683716,learn,10049.999952316284,Fri Jun 05 2026 11:19:14 GMT-0400 (Eastern Daylight Time),403719.299999997,A,window,I,w,85,3,14300.09999999404,389419.200000003,9035,WL,B,15.0
3,50.301000118255615,learn,9698.999881744385,Fri Jun 05 2026 11:19:14 GMT-0400 (Eastern Daylight Time),404069.90000000596,A,windowenter,I,enter,339,3,14650.70000000298,389419.200000003,9035,WL,B,15.0
4,0.6670000553131104,learn,59332.99994468689,Fri Jun 05 2026 11:19:14 GMT-0400 (Eastern Daylight Time),476336.10000000894,A,s,I,s,647,3,666.3000000119209,475669.799999997,9035,WL,B,1.0
4,1.0,learn,59000.0,Fri Jun 05 2026 11:19:14 GMT-0400 (Eastern Daylight Time),476669.299999997,A,st,I,t,314,3,999.5,475669.799999997,9035,WL,B,1.0
4,1.25,learn,58750.0,Fri Jun 05 2026 11:19:14 GMT-0400 (Eastern Daylight Time),476919.299999997,A,str,I,r,237,3,1249.5,475669.799999997,9035,WL,B,1.0
4,1.4500000476837158,learn,58549.999952316284,Fri Jun 05 2026 11:19:14 GMT-0400 (Eastern Daylight Time),477119.200000003,A,stre,I,e,180,3,1449.4000000059605,475669.799999997,9035,WL,B,1.0
4,1.684000015258789,learn,58315.99998474121,Fri Jun 05 2026 11:19:14 GMT-0400 (Eastern Daylight Time),477352.60000000894,A,stree,I,e,208,3,1682.800000011921,475669.799999997,9035,WL,B,1.0
4,2.1500000953674316,learn,57849.99990463257,Fri Jun 05 2026 11:19:14 GMT-0400 (Eastern Daylight Time),477819.299999997,A,street,I,t,448,3,2149.5,475669.799999997,9035,WL,B,1.0
4,2.75,learn,57250.0,Fri Jun 05 2026 11:19:14 GMT-0400 (Eastern Daylight Time),478418.799999997,A,streetenter,I,enter,574,3,2749.0,475669.799999997,9035,WL,B,1.0
4,3.5,learn,56500.0,Fri Jun 05 2026 11:19:14 GMT-0400 (Eastern Daylight Time),479169.200000003,A,g,I,g,731,3,750.0999999940395,478419.10000000894,9035,WL,B,2.0
4,3.75,learn,56250.0,Fri Jun 05 2026 11:19:14 GMT-0400 (Eastern Daylight Time),479419.299999997,A,gr,I,r,230,3,1000.1999999880791,478419.10000000894,9035,WL,B,2.0
4,3.950000047683716,learn,56049.999952316284,Fri Jun 05 2026 11:19:14 GMT-0400 (Eastern Daylight Time),479619.299999997,A,gra,I,a,176,3,1200.199999988079,478419.10000000894,9035,WL,B,2.0
4,4.200000047683716,learn,55799.999952316284,Fri Jun 05 2026 11:19:14 GMT-0400 (Eastern Daylight Time),479869.40000000596,A,gras,I,s,221,3,1450.2999999970198,478419.10000000894,9035,WL,B,2.0
4,4.400000095367432,learn,55599.99990463257,Fri Jun 05 2026 11:19:14 GMT-0400 (Eastern Daylight Time),480069.10000000894,A,grass,I,s,189,3,1650.0,478419.10000000894,9035,WL,B,2.0
4,4.933000087738037,learn,55066.99991226196,Fri Jun 05 2026 11:19:14 GMT-0400 (Eastern Daylight Time),480602.200000003,A,grassenter,I,enter,508,3,2183.0999999940395,478419.10000000894,9035,WL,B,2.0
4,5.434000015258789,learn,54565.99998474121,Fri Jun 05 2026 11:19:14 GMT-0400 (Eastern Daylight Time),481102.60000000894,A,d,I,d,484,3,500.20000000298023,480602.40000000596,9035,WL,B,3.0
4,5.75,learn,54250.0,Fri Jun 05 2026 11:19:14 GMT-0400 (Eastern Daylight Time),481419.299999997,A,do,I,o,299,3,816.8999999910593,480602.40000000596,9035,WL,B,3.0
4,5.9670000076293945,learn,54032.999992370605,Fri Jun 05 2026 11:19:14 GMT-0400 (Eastern Daylight Time),481635.60000000894,A,doo,I,o,190,3,1033.2000000029802,480602.40000000596,9035,WL,B,3.0
4,6.134000062942505,learn,53865.999937057495,Fri Jun 05 2026 11:19:14 GMT-0400 (Eastern Daylight Time),481802.5,A,door,I,r,152,3,1200.0999999940395,480602.40000000596,9035,WL,B,3.0
4,6.650000095367432,learn,53349.99990463257,Fri Jun 05 2026 11:19:14 GMT-0400 (Eastern Daylight Time),482318.799999997,A,doorenter,I,enter,485,3,1716.3999999910593,480602.40000000596,9035,WL,B,3.0
4,6.983999967575073,learn,53016.00003242493,Fri Jun 05 2026 11:19:14 GMT-0400 (Eastern Daylight Time),482652.5,A,a,I,a,319,3,333.3999999910593,482319.10000000894,9035,WL,B,4.0
4,7.2170000076293945,learn,52782.999992370605,Fri Jun 05 2026 11:19:14 GMT-0400 (Eastern Daylight Time),482885.60000000894,A,ar,I,r,220,3,566.5,482319.10000000894,9035,WL,B,4.0
4,7.5,learn,52500.0,Fri Jun 05 2026 11:19:14 GMT-0400 (Eastern Daylight Time),483169.200000003,A,arm,I,m,259,3,850.0999999940395,482319.10000000894,9035,WL,B,4.0
4,7.867000102996826,learn,52132.999897003174,Fri Jun 05 2026 11:19:14 GMT-0400 (Eastern Daylight Time),483535.5,A,armenter,I,enter,342,3,1216.3999999910593,482319.10000000894,9035,WL,B,4.0
4,8.283999919891357,learn,51716.00008010864,Fri Jun 05 2026 11:19:14 GMT-0400 (Eastern Daylight Time),483952.5,A,s,I,s,398,3,416.59999999403954,483535.90000000596,9035,WL,B,5.0
4,8.516999959945679,learn,51483.00004005432,Fri Jun 05 2026 11:19:14 GMT-0400 (Eastern Daylight Time),484185.90000000596,A,st,I,t,218,3,650.0,483535.90000000596,9035,WL,B,5.0
4,8.733000040054321,learn,51266.99995994568,Fri Jun 05 2026 11:19:14 GMT-0400 (Eastern Daylight Time),484402.5,A,sta,I,a,193,3,866.5999999940395,483535.90000000596,9035,WL,B,5.0
4,8.983999967575073,learn,51016.00003242493,Fri Jun 05 2026 11:19:14 GMT-0400 (Eastern Daylight Time),484652.5,A,star,I,r,223,3,1116.5999999940395,483535.90000000596,9035,WL,B,5.0
4,9.615999937057495,learn,50384.000062942505,Fri Jun 05 2026 11:19:14 GMT-0400 (Eastern Daylight Time),485285.40000000596,A,starenter,I,enter,621,3,1749.5,483535.90000000596,9035,WL,B,5.0
4,10.099999904632568,learn,49900.00009536743,Fri Jun 05 2026 11:19:14 GMT-0400 (Eastern Daylight Time),485769.200000003,A,w,I,w,472,3,483.5,485285.700000003,9035,WL,B,6.0
4,10.233000040054321,learn,49766.99995994568,Fri Jun 05 2026 11:19:14 GMT-0400 (Eastern Daylight Time),485902.5,A,wi,I,i,112,3,616.7999999970198,485285.700000003,9035,WL,B,6.0
4,10.384000062942505,learn,49615.999937057495,Fri Jun 05 2026 11:19:14 GMT-0400 (Eastern Daylight Time),486052.60000000894,A,wif,I,f,123,3,766.9000000059605,485285.700000003,9035,WL,B,6.0
4,10.533999919891357,learn,49466.00008010864,Fri Jun 05 2026 11:19:14 GMT-0400 (Eastern Daylight Time),486202.60000000894,A,wife,I,e,124,3,916.9000000059605,485285.700000003,9035,WL,B,6.0
4,10.933000087738037,learn,49066.99991226196,Fri Jun 05 2026 11:19:14 GMT-0400 (Eastern Daylight Time),486602.10000000894,A,wifeenter,I,enter,373,3,1316.4000000059605,485285.700000003,9035,WL,B,6.0
4,11.533999919891357,learn,48466.00008010864,Fri Jun 05 2026 11:19:14 GMT-0400 (Eastern Daylight Time),487202.700000003,A,w,I,w,580,3,600.2999999970198,486602.40000000596,9035,WL,B,7.0
4,11.633000135421753,learn,48366.99986457825,Fri Jun 05 2026 11:19:14 GMT-0400 (Eastern Daylight Time),487302.5,A,wi,I,i,88,3,700.0999999940395,486602.40000000596,9035,WL,B,7.0
4,11.867000102996826,learn,48132.999897003174,Fri Jun 05 2026 11:19:14 GMT-0400 (Eastern Daylight Time),487535.90000000596,A,win,I,n,209,3,933.5,486602.40000000596,9035,WL,B,7.0
4,11.967000007629395,learn,48032.999992370605,Fri Jun 05 2026 11:19:14 GMT-0400 (Eastern Daylight Time),487636.0,A,wind,I,d,73,3,1033.5999999940395,486602.40000000596,9035,WL,B,7.0
4,12.117000102996826,learn,47882.999897003174,Fri Jun 05 2026 11:19:14 GMT-0400 (Eastern Daylight Time),487785.90000000596,A,windo,I,o,125,3,1183.5,486602.40000000596,9035,WL,B,7.0
4,12.450000047683716,learn,47549.999952316284,Fri Jun 05 2026 11:19:14 GMT-0400 (Eastern Daylight Time),488119.200000003,A,window,I,w,321,3,1516.7999999970198,486602.40000000596,9035,WL,B,7.0
4,12.933000087738037,learn,47066.99991226196,Fri Jun 05 2026 11:19:14 GMT-0400 (Eastern Daylight Time),488602.200000003,A,windowenter,I,enter,467,3,1999.7999999970198,486602.40000000596,9035,WL,B,7.0
4,13.618000030517578,learn,46381.99996948242,Fri Jun 05 2026 11:19:14 GMT-0400 (Eastern Daylight Time),489286.799999997,A,c,I,c,676,3,684.2999999970198,488602.5,9035,WL,B,8.0
4,13.717000007629395,learn,46282.999992370605,Fri Jun 05 2026 11:19:14 GMT-0400 (Eastern Daylight Time),489385.90000000596,A,ci,I,i,84,3,783.4000000059605,488602.5,9035,WL,B,8.0
4,13.950000047683716,learn,46049.999952316284,Fri Jun 05 2026 11:19:14 GMT-0400 (Eastern Daylight Time),489619.10000000894,A,cit,I,t,198,3,1016.6000000089407,488602.5,9035,WL,B,8.0
4,14.117000102996826,learn,45882.999897003174,Fri Jun 05 2026 11:19:14 GMT-0400 (Eastern Daylight Time),489785.90000000596,A,city,I,y,152,3,1183.4000000059605,488602.5,9035,WL,B,8.0
4,14.483000040054321,learn,45516.99995994568,Fri Jun 05 2026 11:19:14 GMT-0400 (Eastern Daylight Time),490152.200000003,A,cityenter,I,enter,351,3,1549.7000000029802,488602.5,9035,WL,B,8.0
4,15.066999912261963,learn,44933.00008773804,Fri Jun 05 2026 11:19:14 GMT-0400 (Eastern Daylight Time),490735.90000000596,A,p,I,p,566,3,583.2999999970198,490152.60000000894,9035,WL,B,9.0
4,15.316999912261963,learn,44683.00008773804,Fri Jun 05 2026 11:19:14 GMT-0400 (Eastern Daylight Time),490985.90000000596,A,pu,I,u,233,3,833.2999999970198,490152.60000000894,9035,WL,B,9.0
4,15.549999952316284,learn,44450.000047683716,Fri Jun 05 2026 11:19:14 GMT-0400 (Eastern Daylight Time),491219.200000003,A,pup,I,p,200,3,1066.5999999940395,490152.60000000894,9035,WL,B,9.0
4,15.934000015258789,learn,44065.99998474121,Fri Jun 05 2026 11:19:14 GMT-0400 (Eastern Daylight Time),491602.60000000894,A,pupi,I,i,359,3,1450.0,490152.60000000894,9035,WL,B,9.0
4,16.26699995994568,learn,43733.00004005432,Fri Jun 05 2026 11:19:14 GMT-0400 (Eastern Daylight Time),491936.0,A,pupil,I,l,312,3,1783.3999999910593,490152.60000000894,9035,WL,B,9.0
4,17.0,learn,43000.0,Fri Jun 05 2026 11:19:14 GMT-0400 (Eastern Daylight Time),492668.799999997,A,pupilenter,I,enter,713,3,2516.199999988079,490152.60000000894,9035,WL,B,9.0
4,18.08400011062622,learn,41915.99988937378,Fri Jun 05 2026 11:19:14 GMT-0400 (Eastern Daylight Time),493752.5,A,c,I,c,1072,3,1083.3999999910593,492669.10000000894,9035,WL,B,10.0
4,18.316999912261963,learn,41683.00008773804,Fri Jun 05 2026 11:19:14 GMT-0400 (Eastern Daylight Time),493985.90000000596,A,ca,I,a,209,3,1316.7999999970198,492669.10000000894,9035,WL,B,10.0
4,18.51699995994568,learn,41483.00004005432,Fri Jun 05 2026 11:19:14 GMT-0400 (Eastern Daylight Time),494185.90000000596,A,cab,I,b,174,3,1516.7999999970198,492669.10000000894,9035,WL,B,10.0
4,18.683000087738037,learn,41316.99991226196,Fri Jun 05 2026 11:19:14 GMT-0400 (Eastern Daylight Time),494352.40000000596,A,cabi,I,i,142,3,1683.2999999970198,492669.10000000894,9035,WL,B,10.0
4,18.93400001525879,learn,41065.99998474121,Fri Jun 05 2026 11:19:14 GMT-0400 (Eastern Daylight Time),494602.60000000894,A,cabin,I,n,222,3,1933.5,492669.10000000894,9035,WL,B,10.0
4,19.933000087738037,learn,40066.99991226196,Fri Jun 05 2026 11:19:14 GMT-0400 (Eastern Daylight Time),495602.10000000894,A,cabinenter,I,enter,975,3,2933.0,492669.10000000894,9035,WL,B,10.0
4,20.65000009536743,learn,39349.99990463257,Fri Jun 05 2026 11:19:14 GMT-0400 (Eastern Daylight Time),496319.200000003,A,l,I,l,700,3,716.7000000029802,495602.5,9035,WL,B,11.0
4,20.818000078201294,learn,39181.999921798706,Fri Jun 05 2026 11:19:14 GMT-0400 (Eastern Daylight Time),496486.90000000596,A,la,I,a,154,3,884.4000000059605,495602.5,9035,WL,B,11.0
4,21.01699995994568,learn,38983.00004005432,Fri Jun 05 2026 11:19:14 GMT-0400 (Eastern Daylight Time),496685.799999997,A,lak,I,k,170,3,1083.2999999970198,495602.5,9035,WL,B,11.0
4,21.200000047683716,learn,38799.999952316284,Fri Jun 05 2026 11:19:14 GMT-0400 (Eastern Daylight Time),496869.200000003,A,lake,I,e,158,3,1266.7000000029802,495602.5,9035,WL,B,11.0
4,21.716000080108643,learn,38283.99991989136,Fri Jun 05 2026 11:19:14 GMT-0400 (Eastern Daylight Time),497385.5,A,lakeenter,I,enter,492,3,1783.0,495602.5,9035,WL,B,11.0
4,22.283999919891357,learn,37716.00008010864,Fri Jun 05 2026 11:19:14 GMT-0400 (Eastern Daylight Time),497952.5,A,p,I,p,548,3,566.7000000029802,497385.799999997,9035,WL,B,12.0
4,22.533999919891357,learn,37466.00008010864,Fri Jun 05 2026 11:19:14 GMT-0400 (Eastern Daylight Time),498202.60000000894,A,pi,I,i,233,3,816.8000000119209,497385.799999997,9035,WL,B,12.0
4,22.733999967575073,learn,37266.00003242493,Fri Jun 05 2026 11:19:14 GMT-0400 (Eastern Daylight Time),498402.5,A,pip,I,p,173,3,1016.7000000029802,497385.799999997,9035,WL,B,12.0
4,22.93400001525879,learn,37065.99998474121,Fri Jun 05 2026 11:19:14 GMT-0400 (Eastern Daylight Time),498602.60000000894,A,pipe,I,e,182,3,1216.800000011921,497385.799999997,9035,WL,B,12.0
4,23.31599998474121,learn,36684.00001525879,Fri Jun 05 2026 11:19:14 GMT-0400 (Eastern Daylight Time),498985.40000000596,A,pipeenter,I,enter,366,3,1599.6000000089407,497385.799999997,9035,WL,B,12.0
4,23.700000047683716,learn,36299.999952316284,Fri Jun 05 2026 11:19:14 GMT-0400 (Eastern Daylight Time),499369.10000000894,A,s,I,s,372,3,383.40000000596046,498985.700000003,9035,WL,B,13.0
4,23.91700005531311,learn,36082.99994468689,Fri Jun 05 2026 11:19:14 GMT-0400 (Eastern Daylight Time),499585.90000000596,A,sk,I,k,193,3,600.2000000029802,498985.700000003,9035,WL,B,13.0
4,24.15000009536743,learn,35849.99990463257,Fri Jun 05 2026 11:19:14 GMT-0400 (Eastern Daylight Time),499819.299999997,A,ski,I,i,215,3,833.5999999940395,498985.700000003,9035,WL,B,13.0
4,24.384000062942505,learn,35615.999937057495,Fri Jun 05 2026 11:19:14 GMT-0400 (Eastern Daylight Time),500052.60000000894,A,skin,I,n,208,3,1066.9000000059605,498985.700000003,9035,WL,B,13.0
4,25.08299994468689,learn,34917.00005531311,Fri Jun 05 2026 11:19:14 GMT-0400 (Eastern Daylight Time),500752.10000000894,A,skinenter,I,enter,677,3,1766.4000000059605,498985.700000003,9035,WL,B,13.0
4,25.700000047683716,learn,34299.999952316284,Fri Jun 05 2026 11:19:14 GMT-0400 (Eastern Daylight Time),501369.200000003,A,f,I,f,605,3,616.7999999970198,500752.40000000596,9035,WL,B,14.0
4,25.84999990463257,learn,34150.00009536743,Fri Jun 05 2026 11:19:14 GMT-0400 (Eastern Daylight Time),501519.10000000894,A,fi,I,i,129,3,766.7000000029802,500752.40000000596,9035,WL,B,14.0
4,26.09999990463257,learn,33900.00009536743,Fri Jun 05 2026 11:19:14 GMT-0400 (Eastern Daylight Time),501769.299999997,A,fir,I,r,235,3,1016.8999999910593,500752.40000000596,9035,WL,B,14.0
4,26.26699995994568,learn,33733.00004005432,Fri Jun 05 2026 11:19:14 GMT-0400 (Eastern Daylight Time),501935.90000000596,A,fire,I,e,135,3,1183.5,500752.40000000596,9035,WL,B,14.0
4,26.84999990463257,learn,33150.00009536743,Fri Jun 05 2026 11:19:14 GMT-0400 (Eastern Daylight Time),502518.700000003,A,fireenter,I,enter,569,3,1766.2999999970198,500752.40000000596,9035,WL,B,14.0
4,28.617000102996826,learn,31382.999897003174,Fri Jun 05 2026 11:19:14 GMT-0400 (Eastern Daylight Time),504286.0,A,c,I,c,1750,3,1766.8999999910593,502519.10000000894,9035,WL,B,15.0
4,28.76699995994568,learn,31233.00004005432,Fri Jun 05 2026 11:19:14 GMT-0400 (Eastern Daylight Time),504435.799999997,A,cl,I,l,124,3,1916.699999988079,502519.10000000894,9035,WL,B,15.0
4,28.967000007629395,learn,31032.999992370605,Fri Jun 05 2026 11:19:14 GMT-0400 (Eastern Daylight Time),504635.90000000596,A,clo,I,o,182,3,2116.7999999970198,502519.10000000894,9035,WL,B,15.0
4,29.117000102996826,learn,30882.999897003174,Fri Jun 05 2026 11:19:14 GMT-0400 (Eastern Daylight Time),504785.90000000596,A,cloc,I,c,127,3,2266.7999999970198,502519.10000000894,9035,WL,B,15.0
4,29.200000047683716,learn,30799.999952316284,Fri Jun 05 2026 11:19:14 GMT-0400 (Eastern Daylight Time),504868.90000000596,A,clock,I,k,72,3,2349.7999999970198,502519.10000000894,9035,WL,B,15.0
4,29.58299994468689,learn,30417.00005531311,Fri Jun 05 2026 11:19:14 GMT-0400 (Eastern Daylight Time),505252.0,A,clockenter,I,enter,348,3,2732.8999999910593,502519.10000000894,9035,WL,B,15.0
5,1.066999912261963,learn,60000.0,Fri Jun 05 2026 11:19:14 GMT-0400 (Eastern Daylight Time),578102.700000003,A,s,I,s,1056,3,1066.5999999940395,577036.1000000089,9035,WL,B,1.0
5,1.3499999046325684,learn,60000.0,Fri Jun 05 2026 11:19:14 GMT-0400 (Eastern Daylight Time),578385.799999997,A,st,I,t,259,3,1349.699999988079,577036.1000000089,9035,WL,B,1.0
5,1.5999999046325684,learn,60000.0,Fri Jun 05 2026 11:19:14 GMT-0400 (Eastern Daylight Time),578635.6000000089,A,str,I,r,233,3,1599.5,577036.1000000089,9035,WL,B,1.0
5,1.7660000324249268,learn,60000.0,Fri Jun 05 2026 11:19:14 GMT-0400 (Eastern Daylight Time),578802.5,A,stre,I,e,141,3,1766.3999999910593,577036.1000000089,9035,WL,B,1.0
5,1.9829998016357422,learn,60000.0,Fri Jun 05 2026 11:19:14 GMT-0400 (Eastern Daylight Time),579019.1000000089,A,stree,I,e,199,3,1983.0,577036.1000000089,9035,WL,B,1.0
5,2.299999952316284,learn,60000.0,Fri Jun 05 2026 11:19:14 GMT-0400 (Eastern Daylight Time),579335.700000003,A,street,I,t,303,3,2299.5999999940395,577036.1000000089,9035,WL,B,1.0
5,2.865999937057495,learn,60000.0,Fri Jun 05 2026 11:19:14 GMT-0400 (Eastern Daylight Time),579902.0,A,streetenter,I,enter,547,3,2865.8999999910593,577036.1000000089,9035,WL,B,1.0
5,3.1999998092651367,learn,60000.0,Fri Jun 05 2026 11:19:14 GMT-0400 (Eastern Daylight Time),580235.700000003,A,g,I,g,319,3,333.40000000596046,579902.299999997,9035,WL,B,2.0
5,3.4659998416900635,learn,60000.0,Fri Jun 05 2026 11:19:14 GMT-0400 (Eastern Daylight Time),580502.299999997,A,gr,I,r,251,3,600.0,579902.299999997,9035,WL,B,2.0
5,3.7170000076293945,learn,60000.0,Fri Jun 05 2026 11:19:14 GMT-0400 (Eastern Daylight Time),580752.6000000089,A,gra,I,a,227,3,850.3000000119209,579902.299999997,9035,WL,B,2.0
5,3.9499998092651367,learn,60000.0,Fri Jun 05 2026 11:19:14 GMT-0400 (Eastern Daylight Time),580985.799999997,A,gras,I,s,216,3,1083.5,579902.299999997,9035,WL,B,2.0
5,4.182999849319458,learn,60000.0,Fri Jun 05 2026 11:19:14 GMT-0400 (Eastern Daylight Time),581219.200000003,A,grass,I,s,197,3,1316.9000000059605,579902.299999997,9035,WL,B,2.0
5,4.932999849319458,learn,60000.0,Fri Jun 05 2026 11:19:14 GMT-0400 (Eastern Daylight Time),581968.6000000089,A,grassenter,I,enter,726,3,2066.300000011921,579902.299999997,9035,WL,B,2.0
5,6.199999809265137,learn,60000.0,Fri Jun 05 2026 11:19:14 GMT-0400 (Eastern Daylight Time),583235.799999997,A,d,I,d,1245,3,1266.7999999970198,581969.0,9035,WL,B,3.0
5,6.365999937057495,learn,60000.0,Fri Jun 05 2026 11:19:14 GMT-0400 (Eastern Daylight Time),583402.400000006,A,do,I,o,150,3,1433.4000000059605,581969.0,9035,WL,B,3.0
5,6.5329999923706055,learn,60000.0,Fri Jun 05 2026 11:19:14 GMT-0400 (Eastern Daylight Time),583569.0,A,doo,I,o,143,3,1600.0,581969.0,9035,WL,B,3.0
5,6.6499998569488525,learn,60000.0,Fri Jun 05 2026 11:19:14 GMT-0400 (Eastern Daylight Time),583685.5,A,door,I,r,97,3,1716.5,581969.0,9035,WL,B,3.0
5,6.948999881744385,learn,60000.0,Fri Jun 05 2026 11:19:14 GMT-0400 (Eastern Daylight Time),583985.200000003,A,doorenter,I,enter,268,3,2016.2000000029802,581969.0,9035,WL,B,3.0
5,7.266000032424927,learn,60000.0,Fri Jun 05 2026 11:19:14 GMT-0400 (Eastern Daylight Time),584302.5,A,a,I,a,299,3,316.8999999910593,583985.6000000089,9035,WL,B,4.0
5,7.448999881744385,learn,60000.0,Fri Jun 05 2026 11:19:14 GMT-0400 (Eastern Daylight Time),584485.5,A,ar,I,r,172,3,499.8999999910593,583985.6000000089,9035,WL,B,4.0
5,7.699999809265137,learn,60000.0,Fri Jun 05 2026 11:19:14 GMT-0400 (Eastern Daylight Time),584735.700000003,A,arm,I,m,219,3,750.0999999940395,583985.6000000089,9035,WL,B,4.0
5,8.08299994468689,learn,60000.0,Fri Jun 05 2026 11:19:14 GMT-0400 (Eastern Daylight Time),585118.700000003,A,armenter,I,enter,360,3,1133.0999999940395,583985.6000000089,9035,WL,B,4.0
5,10.215999841690063,learn,60000.0,Fri Jun 05 2026 11:19:14 GMT-0400 (Eastern Daylight Time),587252.5,A,s,I,s,2112,3,2133.5,585119.0,9035,WL,B,5.0
5,10.5,learn,60000.0,Fri Jun 05 2026 11:19:14 GMT-0400 (Eastern Daylight Time),587535.700000003,A,st,I,t,261,3,2416.7000000029802,585119.0,9035,WL,B,5.0
5,10.715999841690063,learn,60000.0,Fri Jun 05 2026 11:19:14 GMT-0400 (Eastern Daylight Time),587752.5,A,sta,I,a,201,3,2633.5,585119.0,9035,WL,B,5.0
5,10.91599988937378,learn,60000.0,Fri Jun 05 2026 11:19:14 GMT-0400 (Eastern Daylight Time),587952.5,A,star,I,r,179,3,2833.5,585119.0,9035,WL,B,5.0
5,11.215999841690063,learn,60000.0,Fri Jun 05 2026 11:19:14 GMT-0400 (Eastern Daylight Time),588251.799999997,A,starenter,I,enter,273,3,3132.7999999970198,585119.0,9035,WL,B,5.0
5,11.549999952316284,learn,60000.0,Fri Jun 05 2026 11:19:14 GMT-0400 (Eastern Daylight Time),588585.799999997,A,w,I,w,321,3,333.59999999403954,588252.200000003,9035,WL,B,6.0
5,11.83299994468689,learn,60000.0,Fri Jun 05 2026 11:19:14 GMT-0400 (Eastern Daylight Time),588868.900000006,A,wi,I,i,272,3,616.7000000029802,588252.200000003,9035,WL,B,6.0
5,11.965999841690063,learn,60000.0,Fri Jun 05 2026 11:19:14 GMT-0400 (Eastern Daylight Time),589002.400000006,A,wif,I,f,116,3,750.2000000029802,588252.200000003,9035,WL,B,6.0
5,12.182999849319458,learn,60000.0,Fri Jun 05 2026 11:19:14 GMT-0400 (Eastern Daylight Time),589219.1000000089,A,wife,I,e,189,3,966.9000000059605,588252.200000003,9035,WL,B,6.0
5,12.66599988937378,learn,60000.0,Fri Jun 05 2026 11:19:14 GMT-0400 (Eastern Daylight Time),589701.900000006,A,wifeenter,I,enter,471,3,1449.7000000029802,588252.200000003,9035,WL,B,6.0
5,13.199999809265137,learn,60000.0,Fri Jun 05 2026 11:19:14 GMT-0400 (Eastern Daylight Time),590235.900000006,A,w,I,w,520,3,533.7000000029802,589702.200000003,9035,WL,B,7.0
5,13.33299994468689,learn,60000.0,Fri Jun 05 2026 11:19:14 GMT-0400 (Eastern Daylight Time),590369.1000000089,A,wi,I,i,112,3,666.9000000059605,589702.200000003,9035,WL,B,7.0
5,13.532999992370605,learn,60000.0,Fri Jun 05 2026 11:19:14 GMT-0400 (Eastern Daylight Time),590569.1000000089,A,win,I,n,175,3,866.9000000059605,589702.200000003,9035,WL,B,7.0
5,13.66599988937378,learn,60000.0,Fri Jun 05 2026 11:19:14 GMT-0400 (Eastern Daylight Time),590702.400000006,A,wind,I,d,114,3,1000.2000000029802,589702.200000003,9035,WL,B,7.0
5,13.85099983215332,learn,60000.0,Fri Jun 05 2026 11:19:14 GMT-0400 (Eastern Daylight Time),590886.700000003,A,windo,I,o,173,3,1184.5,589702.200000003,9035,WL,B,7.0
5,13.982999801635742,learn,60000.0,Fri Jun 05 2026 11:19:14 GMT-0400 (Eastern Daylight Time),591019.1000000089,A,window,I,w,114,3,1316.9000000059605,589702.200000003,9035,WL,B,7.0
5,14.299000024795532,learn,60000.0,Fri Jun 05 2026 11:19:14 GMT-0400 (Eastern Daylight Time),591335.299999997,A,windowenter,I,enter,294,3,1633.0999999940395,589702.200000003,9035,WL,B,7.0
5,14.699999809265137,learn,60000.0,Fri Jun 05 2026 11:19:14 GMT-0400 (Eastern Daylight Time),591735.700000003,A,c,I,c,390,3,399.79999999701977,591335.900000006,9035,WL,B,8.0
5,14.849999904632568,learn,60000.0,Fri Jun 05 2026 11:19:14 GMT-0400 (Eastern Daylight Time),591885.700000003,A,ci,I,i,131,3,549.7999999970198,591335.900000006,9035,WL,B,8.0
5,15.032999992370605,learn,60000.0,Fri Jun 05 2026 11:19:14 GMT-0400 (Eastern Daylight Time),592069.0,A,cit,I,t,171,3,733.0999999940395,591335.900000006,9035,WL,B,8.0
5,15.215999841690063,learn,60000.0,Fri Jun 05 2026 11:19:14 GMT-0400 (Eastern Daylight Time),592252.299999997,A,city,I,y,156,3,916.3999999910593,591335.900000006,9035,WL,B,8.0
5,16.06599998474121,learn,60000.0,Fri Jun 05 2026 11:19:14 GMT-0400 (Eastern Daylight Time),593102.0,A,cityenter,I,enter,829,3,1766.0999999940395,591335.900000006,9035,WL,B,8.0
5,16.965999841690063,learn,60000.0,Fri Jun 05 2026 11:19:14 GMT-0400 (Eastern Daylight Time),594002.400000006,A,p,I,p,878,3,900.1000000089407,593102.299999997,9035,WL,B,9.0
5,17.182999849319458,learn,60000.0,Fri Jun 05 2026 11:19:14 GMT-0400 (Eastern Daylight Time),594219.1000000089,A,pu,I,u,199,3,1116.800000011921,593102.299999997,9035,WL,B,9.0
5,17.399999856948853,learn,60000.0,Fri Jun 05 2026 11:19:14 GMT-0400 (Eastern Daylight Time),594435.700000003,A,pup,I,p,182,3,1333.4000000059605,593102.299999997,9035,WL,B,9.0
5,17.865999937057495,learn,60000.0,Fri Jun 05 2026 11:19:14 GMT-0400 (Eastern Daylight Time),594902.299999997,A,pupi,I,i,455,3,1800.0,593102.299999997,9035,WL,B,9.0
5,18.24899983406067,learn,60000.0,Fri Jun 05 2026 11:19:14 GMT-0400 (Eastern Daylight Time),595285.5,A,pupil,I,l,372,3,2183.2000000029802,593102.299999997,9035,WL,B,9.0
5,18.615999937057495,learn,60000.0,Fri Jun 05 2026 11:19:14 GMT-0400 (Eastern Daylight Time),595651.900000006,A,pupilenter,I,enter,341,3,2549.6000000089407,593102.299999997,9035,WL,B,9.0
5,19.949999809265137,learn,60000.0,Fri Jun 05 2026 11:19:14 GMT-0400 (Eastern Daylight Time),596985.700000003,A,c,I,c,1321,3,1333.4000000059605,595652.299999997,9035,WL,B,10.0
5,20.182999849319458,learn,60000.0,Fri Jun 05 2026 11:19:14 GMT-0400 (Eastern Daylight Time),597219.1000000089,A,ca,I,a,206,3,1566.800000011921,595652.299999997,9035,WL,B,10.0
5,20.432999849319458,learn,60000.0,Fri Jun 05 2026 11:19:14 GMT-0400 (Eastern Daylight Time),597469.1000000089,A,cab,I,b,222,3,1816.800000011921,595652.299999997,9035,WL,B,10.0
5,20.782999992370605,learn,60000.0,Fri Jun 05 2026 11:19:14 GMT-0400 (Eastern Daylight Time),597819.1000000089,A,cabi,I,i,334,3,2166.800000011921,595652.299999997,9035,WL,B,10.0
5,21.0,learn,60000.0,Fri Jun 05 2026 11:19:14 GMT-0400 (Eastern Daylight Time),598035.700000003,A,cabin,I,n,190,3,2383.4000000059605,595652.299999997,9035,WL,B,10.0
5,21.31599998474121,learn,60000.0,Fri Jun 05 2026 11:19:14 GMT-0400 (Eastern Daylight Time),598352.0,A,cabinenter,I,enter,295,3,2699.7000000029802,595652.299999997,9035,WL,B,10.0
5,21.649999856948853,learn,60000.0,Fri Jun 05 2026 11:19:14 GMT-0400 (Eastern Daylight Time),598685.700000003,A,l,I,l,317,3,333.40000000596046,598352.299999997,9035,WL,B,11.0
5,21.81599998474121,learn,60000.0,Fri Jun 05 2026 11:19:14 GMT-0400 (Eastern Daylight Time),598852.400000006,A,la,I,a,141,3,500.1000000089407,598352.299999997,9035,WL,B,11.0
5,21.949999809265137,learn,60000.0,Fri Jun 05 2026 11:19:14 GMT-0400 (Eastern Daylight Time),598985.700000003,A,lak,I,k,109,3,633.4000000059605,598352.299999997,9035,WL,B,11.0
5,22.115999937057495,learn,60000.0,Fri Jun 05 2026 11:19:14 GMT-0400 (Eastern Daylight Time),599152.299999997,A,lake,I,e,136,3,800.0,598352.299999997,9035,WL,B,11.0
5,22.41599988937378,learn,60000.0,Fri Jun 05 2026 11:19:14 GMT-0400 (Eastern Daylight Time),599451.900000006,A,lakeenter,I,enter,272,3,1099.6000000089407,598352.299999997,9035,WL,B,11.0
5,22.83299994468689,learn,60000.0,Fri Jun 05 2026 11:19:14 GMT-0400 (Eastern Daylight Time),599869.0,A,p,I,p,401,3,416.79999999701977,599452.200000003,9035,WL,B,12.0
5,23.08299994468689,learn,60000.0,Fri Jun 05 2026 11:19:14 GMT-0400 (Eastern Daylight Time),600119.1000000089,A,pi,I,i,235,3,666.9000000059605,599452.200000003,9035,WL,B,12.0
5,23.299999952316284,learn,60000.0,Fri Jun 05 2026 11:19:14 GMT-0400 (Eastern Daylight Time),600335.700000003,A,pip,I,p,196,3,883.5,599452.200000003,9035,WL,B,12.0
5,23.448999881744385,learn,60000.0,Fri Jun 05 2026 11:19:14 GMT-0400 (Eastern Daylight Time),600485.5,A,pipe,I,e,137,3,1033.2999999970198,599452.200000003,9035,WL,B,12.0
5,24.198999881744385,learn,60000.0,Fri Jun 05 2026 11:19:14 GMT-0400 (Eastern Daylight Time),601235.1000000089,A,pipeenter,I,enter,723,3,1782.9000000059605,599452.200000003,9035,WL,B,12.0
5,26.882999897003174,learn,60000.0,Fri Jun 05 2026 11:19:14 GMT-0400 (Eastern Daylight Time),603918.799999997,A,f,I,f,2666,3,2683.2999999970198,601235.5,9035,WL,B,13.0
5,27.06599998474121,learn,60000.0,Fri Jun 05 2026 11:19:14 GMT-0400 (Eastern Daylight Time),604102.200000003,A,fi,I,i,168,3,2866.7000000029802,601235.5,9035,WL,B,13.0
5,27.282999992370605,learn,60000.0,Fri Jun 05 2026 11:19:14 GMT-0400 (Eastern Daylight Time),604319.0,A,fir,I,r,186,3,3083.5,601235.5,9035,WL,B,13.0
5,27.399999856948853,learn,60000.0,Fri Jun 05 2026 11:19:14 GMT-0400 (Eastern Daylight Time),604435.700000003,A,fire,I,e,88,3,3200.2000000029802,601235.5,9035,WL,B,13.0
5,28.16599988937378,learn,60000.0,Fri Jun 05 2026 11:19:14 GMT-0400 (Eastern Daylight Time),605201.799999997,A,fireenter,I,enter,732,3,3966.2999999970198,601235.5,9035,WL,B,13.0
5,28.465999841690063,learn,60000.0,Fri Jun 05 2026 11:19:14 GMT-0400 (Eastern Daylight Time),605502.400000006,A,s,I,s,283,3,300.20000000298023,605202.200000003,9035,WL,B,14.0
5,28.615999937057495,learn,60000.0,Fri Jun 05 2026 11:19:14 GMT-0400 (Eastern Daylight Time),605652.200000003,A,sk,I,k,123,3,450.0,605202.200000003,9035,WL,B,14.0
5,28.899999856948853,learn,60000.0,Fri Jun 05 2026 11:19:14 GMT-0400 (Eastern Daylight Time),605935.799999997,A,ski,I,i,261,3,733.5999999940395,605202.200000003,9035,WL,B,14.0
5,29.232999801635742,learn,60000.0,Fri Jun 05 2026 11:19:14 GMT-0400 (Eastern Daylight Time),606269.1000000089,A,skin,I,n,314,3,1066.9000000059605,605202.200000003,9035,WL,B,14.0
5,29.882999897003174,learn,60000.0,Fri Jun 05 2026 11:19:14 GMT-0400 (Eastern Daylight Time),606918.6000000089,A,skinenter,I,enter,634,3,1716.4000000059605,605202.200000003,9035,WL,B,14.0
5,30.782999992370605,learn,60000.0,Fri Jun 05 2026 11:19:14 GMT-0400 (Eastern Daylight Time),607819.1000000089,A,c,I,c,888,3,900.2000000029802,606918.900000006,9035,WL,B,15.0
5,32.06599998474121,learn,60000.0,Fri Jun 05 2026 11:19:14 GMT-0400 (Eastern Daylight Time),609102.299999997,A,cl,I,l,1262,3,2183.3999999910593,606918.900000006,9035,WL,B,15.0
5,32.34999990463257,learn,60000.0,Fri Jun 05 2026 11:19:14 GMT-0400 (Eastern Daylight Time),609385.799999997,A,clo,I,o,268,3,2466.8999999910593,606918.900000006,9035,WL,B,15.0
5,32.69999980926514,learn,60000.0,Fri Jun 05 2026 11:19:14 GMT-0400 (Eastern Daylight Time),609735.6000000089,A,cloc,I,c,336,3,2816.7000000029802,606918.900000006,9035,WL,B,15.0
5,32.81599998474121,learn,60000.0,Fri Jun 05 2026 11:19:14 GMT-0400 (Eastern Daylight Time),609852.299999997,A,clock,I,k,97,3,2933.3999999910593,606918.900000006,9035,WL,B,15.0
5,33.41699981689453,learn,60000.0,Fri Jun 05 2026 11:19:14 GMT-0400 (Eastern Daylight Time),610453.1000000089,A,clockenter,I,enter,574,3,3534.2000000029802,606918.900000006,9035,WL,B,15.0
6,0.9660000801086426,distr,59033.99991989136,Fri Jun 05 2026 11:19:14 GMT-0400 (Eastern Daylight Time),686052.299999997,B,b,I,b,942,3,966.3999999910593,685085.900000006,9035,WL,B,1.0
6,1.1159999370574951,distr,58884.000062942505,Fri Jun 05 2026 11:19:14 GMT-0400 (Eastern Daylight Time),686201.900000006,B,ba,I,a,134,3,1116.0,685085.900000006,9035,WL,B,1.0
6,1.2160000801086426,distr,58783.99991989136,Fri Jun 05 2026 11:19:14 GMT-0400 (Eastern Daylight Time),686302.200000003,B,bab,I,b,80,3,1216.2999999970198,685085.900000006,9035,WL,B,1.0
6,1.4660000801086426,distr,58533.99991989136,Fri Jun 05 2026 11:19:14 GMT-0400 (Eastern Daylight Time),686552.200000003,B,baby,I,y,225,3,1466.2999999970198,685085.900000006,9035,WL,B,1.0
6,1.8489999771118164,distr,58151.00002288818,Fri Jun 05 2026 11:19:14 GMT-0400 (Eastern Daylight Time),686935.1000000089,B,babyenter,I,enter,370,3,1849.2000000029802,685085.900000006,9035,WL,B,1.0
6,2.3999998569488525,distr,57600.00014305115,Fri Jun 05 2026 11:19:14 GMT-0400 (Eastern Daylight Time),687485.6000000089,B,o,I,o,534,3,550.2000000029802,686935.400000006,9035,WL,B,2.0
6,2.5820000171661377,distr,57417.99998283386,Fri Jun 05 2026 11:19:14 GMT-0400 (Eastern Daylight Time),687668.299999997,B,oc,I,c,173,3,732.8999999910593,686935.400000006,9035,WL,B,2.0
6,2.882999897003174,distr,57117.000102996826,Fri Jun 05 2026 11:19:14 GMT-0400 (Eastern Daylight Time),687968.799999997,B,oce,I,e,280,3,1033.3999999910593,686935.400000006,9035,WL,B,2.0
6,3.049999952316284,distr,56950.000047683716,Fri Jun 05 2026 11:19:14 GMT-0400 (Eastern Daylight Time),688135.5,B,ocea,I,a,152,3,1200.0999999940395,686935.400000006,9035,WL,B,2.0
6,3.2160000801086426,distr,56783.99991989136,Fri Jun 05 2026 11:19:14 GMT-0400 (Eastern Daylight Time),688302.400000006,B,ocean,I,n,147,3,1367.0,686935.400000006,9035,WL,B,2.0
6,3.5329999923706055,distr,56467.000007629395,Fri Jun 05 2026 11:19:14 GMT-0400 (Eastern Daylight Time),688618.400000006,B,oceanenter,I,enter,290,3,1683.0,686935.400000006,9035,WL,B,2.0
6,4.065999984741211,distr,55934.00001525879,Fri Jun 05 2026 11:19:14 GMT-0400 (Eastern Daylight Time),689152.299999997,B,p,I,p,514,3,533.5999999940395,688618.700000003,9035,WL,B,3.0
6,4.25,distr,55750.0,Fri Jun 05 2026 11:19:14 GMT-0400 (Eastern Daylight Time),689335.6000000089,B,pa,I,a,170,3,716.9000000059605,688618.700000003,9035,WL,B,3.0
6,4.365999937057495,distr,55634.000062942505,Fri Jun 05 2026 11:19:14 GMT-0400 (Eastern Daylight Time),689452.200000003,B,pal,I,l,89,3,833.5,688618.700000003,9035,WL,B,3.0
6,4.549999952316284,distr,55450.000047683716,Fri Jun 05 2026 11:19:14 GMT-0400 (Eastern Daylight Time),689635.6000000089,B,pala,I,a,147,3,1016.9000000059605,688618.700000003,9035,WL,B,3.0
6,4.815999984741211,distr,55184.00001525879,Fri Jun 05 2026 11:19:14 GMT-0400 (Eastern Daylight Time),689902.299999997,B,palac,I,c,245,3,1283.5999999940395,688618.700000003,9035,WL,B,3.0
6,5.08299994468689,distr,54917.00005531311,Fri Jun 05 2026 11:19:14 GMT-0400 (Eastern Daylight Time),690168.900000006,B,palace,I,e,253,3,1550.2000000029802,688618.700000003,9035,WL,B,3.0
6,5.33299994468689,distr,54667.00005531311,Fri Jun 05 2026 11:19:14 GMT-0400 (Eastern Daylight Time),690418.5,B,palaceenter,I,enter,223,3,1799.7999999970198,688618.700000003,9035,WL,B,3.0
6,5.615999937057495,distr,54384.000062942505,Fri Jun 05 2026 11:19:14 GMT-0400 (Eastern Daylight Time),690702.1000000089,B,a,I,a,266,3,283.30000001192093,690418.799999997,9035,WL,B,4.0
6,5.815999984741211,distr,54184.00001525879,Fri Jun 05 2026 11:19:14 GMT-0400 (Eastern Daylight Time),690902.1000000089,B,ar,I,r,187,3,483.30000001192093,690418.799999997,9035,WL,B,4.0
6,6.099999904632568,distr,53900.00009536743,Fri Jun 05 2026 11:19:14 GMT-0400 (Eastern Daylight Time),691185.6000000089,B,arm,I,m,250,3,766.8000000119209,690418.799999997,9035,WL,B,4.0
6,6.5,distr,53500.0,Fri Jun 05 2026 11:19:14 GMT-0400 (Eastern Daylight Time),691585.799999997,B,army,I,y,376,3,1167.0,690418.799999997,9035,WL,B,4.0
6,7.132999897003174,distr,52867.000102996826,Fri Jun 05 2026 11:19:14 GMT-0400 (Eastern Daylight Time),692218.5,B,armyenter,I,enter,617,3,1799.7000000029802,690418.799999997,9035,WL,B,4.0
6,7.599999904632568,distr,52400.00009536743,Fri Jun 05 2026 11:19:14 GMT-0400 (Eastern Daylight Time),692685.6000000089,B,v,I,v,451,3,466.80000001192093,692218.799999997,9035,WL,B,5.0
6,7.682999849319458,distr,52317.00015068054,Fri Jun 05 2026 11:19:14 GMT-0400 (Eastern Daylight Time),692768.900000006,B,vi,I,i,60,3,550.1000000089407,692218.799999997,9035,WL,B,5.0
6,7.882999897003174,distr,52117.000102996826,Fri Jun 05 2026 11:19:14 GMT-0400 (Eastern Daylight Time),692968.900000006,B,vil,I,l,177,3,750.1000000089407,692218.799999997,9035,WL,B,5.0
6,8.032999992370605,distr,51967.000007629395,Fri Jun 05 2026 11:19:14 GMT-0400 (Eastern Daylight Time),693118.900000006,B,vill,I,l,127,3,900.1000000089407,692218.799999997,9035,WL,B,5.0
6,8.16599988937378,distr,51834.00011062622,Fri Jun 05 2026 11:19:14 GMT-0400 (Eastern Daylight Time),693252.200000003,B,villa,I,a,108,3,1033.4000000059605,692218.799999997,9035,WL,B,5.0
6,8.299999952316284,distr,51700.000047683716,Fri Jun 05 2026 11:19:14 GMT-0400 (Eastern Daylight Time),693385.6000000089,B,villag,I,g,107,3,1166.800000011921,692218.799999997,9035,WL,B,5.0
6,8.5,distr,51500.0,Fri Jun 05 2026 11:19:14 GMT-0400 (Eastern Daylight Time),693585.6000000089,B,village,I,e,167,3,1366.800000011921,692218.799999997,9035,WL,B,5.0
6,9.182999849319458,distr,50817.00015068054,Fri Jun 05 2026 11:19:14 GMT-0400 (Eastern Daylight Time),694268.5,B,villageenter,I,enter,665,3,2049.7000000029802,692218.799999997,9035,WL,B,5.0
6,10.182999849319458,distr,49817.00015068054,Fri Jun 05 2026 11:19:14 GMT-0400 (Eastern Daylight Time),695268.900000006,B,r,I,r,977,3,1000.1000000089407,694268.799999997,9035,WL,B,6.0
6,10.299999952316284,distr,49700.000047683716,Fri Jun 05 2026 11:19:14 GMT-0400 (Eastern Daylight Time),695385.6000000089,B,ro,I,o,100,3,1116.800000011921,694268.799999997,9035,WL,B,6.0
6,10.565999984741211,distr,49434.00001525879,Fri Jun 05 2026 11:19:14 GMT-0400 (Eastern Daylight Time),695652.299999997,B,roc,I,c,231,3,1383.5,694268.799999997,9035,WL,B,6.0
6,10.66599988937378,distr,49334.00011062622,Fri Jun 05 2026 11:19:14 GMT-0400 (Eastern Daylight Time),695752.200000003,B,rock,I,k,86,3,1483.4000000059605,694268.799999997,9035,WL,B,6.0
6,11.08299994468689,distr,48917.00005531311,Fri Jun 05 2026 11:19:14 GMT-0400 (Eastern Daylight Time),696168.5,B,rockenter,I,enter,391,3,1899.7000000029802,694268.799999997,9035,WL,B,6.0
6,13.382999897003174,distr,46617.000102996826,Fri Jun 05 2026 11:19:14 GMT-0400 (Eastern Daylight Time),698469.0,B,f,I,f,2277,3,2300.2000000029802,696168.799999997,9035,WL,B,7.0
6,13.632999897003174,distr,46367.000102996826,Fri Jun 05 2026 11:19:14 GMT-0400 (Eastern Daylight Time),698718.900000006,B,fr,I,r,230,3,2550.1000000089407,696168.799999997,9035,WL,B,7.0
6,13.75,distr,46250.0,Fri Jun 05 2026 11:19:14 GMT-0400 (Eastern Daylight Time),698835.6000000089,B,fri,I,i,89,3,2666.800000011921,696168.799999997,9035,WL,B,7.0
6,13.833999872207642,distr,46166.00012779236,Fri Jun 05 2026 11:19:14 GMT-0400 (Eastern Daylight Time),698919.6000000089,B,frie,I,e,62,3,2750.800000011921,696168.799999997,9035,WL,B,7.0
6,13.966000080108643,distr,46033.99991989136,Fri Jun 05 2026 11:19:14 GMT-0400 (Eastern Daylight Time),699052.299999997,B,frien,I,n,114,3,2883.5,696168.799999997,9035,WL,B,7.0
6,14.115999937057495,distr,45884.000062942505,Fri Jun 05 2026 11:19:14 GMT-0400 (Eastern Daylight Time),699202.200000003,B,friend,I,d,119,3,3033.4000000059605,696168.799999997,9035,WL,B,7.0
6,14.516000032424927,distr,45483.99996757507,Fri Jun 05 2026 11:19:14 GMT-0400 (Eastern Daylight Time),699601.799999997,B,friendenter,I,enter,376,3,3433.0,696168.799999997,9035,WL,B,7.0
6,17.115999937057495,distr,42884.000062942505,Fri Jun 05 2026 11:19:14 GMT-0400 (Eastern Daylight Time),702202.299999997,B,c,I,c,2588,3,2600.199999988079,699602.1000000089,9035,WL,B,8.0
6,17.41599988937378,distr,42584.00011062622,Fri Jun 05 2026 11:19:14 GMT-0400 (Eastern Daylight Time),702502.1000000089,B,ce,I,e,287,3,2900.0,699602.1000000089,9035,WL,B,8.0
6,17.516000032424927,distr,42483.99996757507,Fri Jun 05 2026 11:19:14 GMT-0400 (Eastern Daylight Time),702602.299999997,B,cel,I,l,85,3,3000.199999988079,699602.1000000089,9035,WL,B,8.0
6,17.700000047683716,distr,42299.999952316284,Fri Jun 05 2026 11:19:14 GMT-0400 (Eastern Daylight Time),702785.6000000089,B,cell,I,l,151,3,3183.5,699602.1000000089,9035,WL,B,8.0
6,18.016000032424927,distr,41983.99996757507,Fri Jun 05 2026 11:19:14 GMT-0400 (Eastern Daylight Time),703101.799999997,B,cellenter,I,enter,288,3,3499.699999988079,699602.1000000089,9035,WL,B,8.0
6,31.216000080108643,distr,28783.999919891357,Fri Jun 05 2026 11:19:14 GMT-0400 (Eastern Daylight Time),716302.299999997,B,l,I,l,13185,3,13200.199999988079,703102.1000000089,9035,WL,B,9.0
6,31.41599988937378,distr,28584.00011062622,Fri Jun 05 2026 11:19:14 GMT-0400 (Eastern Daylight Time),716502.1000000089,B,li,I,i,188,3,13400.0,703102.1000000089,9035,WL,B,9.0
6,31.66599988937378,distr,28334.00011062622,Fri Jun 05 2026 11:19:14 GMT-0400 (Eastern Daylight Time),716751.799999997,B,lip,I,p,220,3,13649.699999988079,703102.1000000089,9035,WL,B,9.0
6,32.16599988937378,distr,27834.00011062622,Fri Jun 05 2026 11:19:14 GMT-0400 (Eastern Daylight Time),717251.799999997,B,lipenter,I,enter,490,3,14149.699999988079,703102.1000000089,9035,WL,B,9.0
6,33.299999952316284,distr,26700.000047683716,Fri Jun 05 2026 11:19:14 GMT-0400 (Eastern Daylight Time),718385.5,B,c,I,c,1114,3,1133.3999999910593,717252.1000000089,9035,WL,B,10.0
6,33.365999937057495,distr,26634.000062942505,Fri Jun 05 2026 11:19:14 GMT-0400 (Eastern Daylight Time),718451.799999997,B,co,I,o,57,3,1199.699999988079,717252.1000000089,9035,WL,B,10.0
6,33.48300004005432,distr,26516.99995994568,Fri Jun 05 2026 11:19:14 GMT-0400 (Eastern Daylight Time),718568.900000006,B,coi,I,i,106,3,1316.7999999970198,717252.1000000089,9035,WL,B,10.0
6,33.75,distr,26250.0,Fri Jun 05 2026 11:19:14 GMT-0400 (Eastern Daylight Time),718835.5,B,coin,I,n,232,3,1583.3999999910593,717252.1000000089,9035,WL,B,10.0
6,34.08200001716614,distr,25917.999982833862,Fri Jun 05 2026 11:19:14 GMT-0400 (Eastern Daylight Time),719168.400000006,B,coinenter,I,enter,312,3,1916.2999999970198,717252.1000000089,9035,WL,B,10.0
6,42.79900002479553,distr,17200.999975204468,Fri Jun 05 2026 11:19:14 GMT-0400 (Eastern Daylight Time),727885.5,B,b,I,b,8702,3,8716.79999999702,719168.700000003,9035,WL,B,11.0
6,43.115999937057495,distr,16884.000062942505,Fri Jun 05 2026 11:19:14 GMT-0400 (Eastern Daylight Time),728202.200000003,B,bu,I,u,301,3,9033.5,719168.700000003,9035,WL,B,11.0
6,43.299999952316284,distr,16700.000047683716,Fri Jun 05 2026 11:19:14 GMT-0400 (Eastern Daylight Time),728385.5,B,bui,I,i,158,3,9216.79999999702,719168.700000003,9035,WL,B,11.0
6,43.48300004005432,distr,16516.99995994568,Fri Jun 05 2026 11:19:14 GMT-0400 (Eastern Daylight Time),728568.799999997,B,buil,I,l,167,3,9400.09999999404,719168.700000003,9035,WL,B,11.0
6,43.615999937057495,distr,16384.000062942505,Fri Jun 05 2026 11:19:14 GMT-0400 (Eastern Daylight Time),728702.1000000089,B,build,I,d,115,3,9533.40000000596,719168.700000003,9035,WL,B,11.0
6,43.73300004005432,distr,16266.999959945679,Fri Jun 05 2026 11:19:14 GMT-0400 (Eastern Daylight Time),728818.799999997,B,buildi,I,i,91,3,9650.09999999404,719168.700000003,9035,WL,B,11.0
6,43.91599988937378,distr,16084.00011062622,Fri Jun 05 2026 11:19:14 GMT-0400 (Eastern Daylight Time),729002.200000003,B,buildin,I,n,158,3,9833.5,719168.700000003,9035,WL,B,11.0
6,44.01600003242493,distr,15983.999967575073,Fri Jun 05 2026 11:19:14 GMT-0400 (Eastern Daylight Time),729102.200000003,B,building,I,g,79,3,9933.5,719168.700000003,9035,WL,B,11.0
6,44.26600003242493,distr,15733.999967575073,Fri Jun 05 2026 11:19:14 GMT-0400 (Eastern Daylight Time),729351.700000003,B,buildingenter,I,enter,225,3,10183.0,719168.700000003,9035,WL,B,11.0
6,60.01600003242493,distr,-16.000032424926758,Fri Jun 05 2026 11:19:14 GMT-0400 (Eastern Daylight Time),745102.299999997,B,None,I,None,15744,3,15750.29999999702,729352.0,9035,WL,B,12.0
7,4.25,immed,55750.0,Fri Jun 05 2026 11:19:14 GMT-0400 (Eastern Daylight Time),763368.799999997,A,s,I,s,4235,3,4249.5999999940395,759119.200000003,9035,WL,B,1.0
7,4.58299994468689,immed,55417.00005531311,Fri Jun 05 2026 11:19:14 GMT-0400 (Eastern Daylight Time),763702.1000000089,A,st,I,t,321,3,4582.9000000059605,759119.200000003,9035,WL,B,1.0
7,4.83299994468689,immed,55167.00005531311,Fri Jun 05 2026 11:19:14 GMT-0400 (Eastern Daylight Time),763952.1000000089,A,str,I,r,229,3,4832.9000000059605,759119.200000003,9035,WL,B,1.0
7,4.966000080108643,immed,55033.99991989136,Fri Jun 05 2026 11:19:14 GMT-0400 (Eastern Daylight Time),764085.5,A,stre,I,e,112,3,4966.29999999702,759119.200000003,9035,WL,B,1.0
7,5.233000040054321,immed,54766.99995994568,Fri Jun 05 2026 11:19:14 GMT-0400 (Eastern Daylight Time),764352.200000003,A,stree,I,e,245,3,5233.0,759119.200000003,9035,WL,B,1.0
7,5.599999904632568,immed,54400.00009536743,Fri Jun 05 2026 11:19:14 GMT-0400 (Eastern Daylight Time),764718.799999997,A,street,I,t,345,3,5599.5999999940395,759119.200000003,9035,WL,B,1.0
7,6.933000087738037,immed,53066.99991226196,Fri Jun 05 2026 11:19:14 GMT-0400 (Eastern Daylight Time),766051.700000003,A,streetenter,I,enter,1307,3,6932.5,759119.200000003,9035,WL,B,1.0
7,7.5,immed,52500.0,Fri Jun 05 2026 11:19:14 GMT-0400 (Eastern Daylight Time),766618.700000003,A,g,I,g,553,3,566.5999999940395,766052.1000000089,9035,WL,B,2.0
7,7.75,immed,52250.0,Fri Jun 05 2026 11:19:14 GMT-0400 (Eastern Daylight Time),766868.700000003,A,gr,I,r,240,3,816.5999999940395,766052.1000000089,9035,WL,B,2.0
7,7.950000047683716,immed,52049.999952316284,Fri Jun 05 2026 11:19:14 GMT-0400 (Eastern Daylight Time),767068.799999997,A,gra,I,a,182,3,1016.6999999880791,766052.1000000089,9035,WL,B,2.0
7,8.200000047683716,immed,51799.999952316284,Fri Jun 05 2026 11:19:14 GMT-0400 (Eastern Daylight Time),767318.6000000089,A,gras,I,s,237,3,1266.5,766052.1000000089,9035,WL,B,2.0
7,8.41700005531311,immed,51582.99994468689,Fri Jun 05 2026 11:19:14 GMT-0400 (Eastern Daylight Time),767535.5,A,grass,I,s,195,3,1483.3999999910593,766052.1000000089,9035,WL,B,2.0
7,9.532999992370605,immed,50467.000007629395,Fri Jun 05 2026 11:19:14 GMT-0400 (Eastern Daylight Time),768651.700000003,A,grassenter,I,enter,1098,3,2599.5999999940395,766052.1000000089,9035,WL,B,2.0
7,12.899999856948853,immed,47100.00014305115,Fri Jun 05 2026 11:19:14 GMT-0400 (Eastern Daylight Time),772018.900000006,A,w,I,w,3346,3,3366.9000000059605,768652.0,9035,WL,B,3.0
7,13.016000032424927,immed,46983.99996757507,Fri Jun 05 2026 11:19:14 GMT-0400 (Eastern Daylight Time),772135.400000006,A,wi,I,i,105,3,3483.4000000059605,768652.0,9035,WL,B,3.0
7,13.200000047683716,immed,46799.999952316284,Fri Jun 05 2026 11:19:14 GMT-0400 (Eastern Daylight Time),772318.700000003,A,wif,I,f,163,3,3666.7000000029802,768652.0,9035,WL,B,3.0
7,13.349999904632568,immed,46650.00009536743,Fri Jun 05 2026 11:19:14 GMT-0400 (Eastern Daylight Time),772468.700000003,A,wife,I,e,140,3,3816.7000000029802,768652.0,9035,WL,B,3.0
7,13.749000072479248,immed,46250.99992752075,Fri Jun 05 2026 11:19:14 GMT-0400 (Eastern Daylight Time),772868.200000003,A,wifeenter,I,enter,389,3,4216.20000000298,768652.0,9035,WL,B,3.0
7,14.032999992370605,immed,45967.000007629395,Fri Jun 05 2026 11:19:14 GMT-0400 (Eastern Daylight Time),773152.299999997,A,a,I,a,265,3,283.8999999910593,772868.400000006,9035,WL,B,4.0
7,14.200000047683716,immed,45799.999952316284,Fri Jun 05 2026 11:19:14 GMT-0400 (Eastern Daylight Time),773318.799999997,A,ar,I,r,153,3,450.3999999910593,772868.400000006,9035,WL,B,4.0
7,14.365999937057495,immed,45634.000062942505,Fri Jun 05 2026 11:19:14 GMT-0400 (Eastern Daylight Time),773485.5,A,arm,I,m,145,3,617.0999999940395,772868.400000006,9035,WL,B,4.0
7,15.132999897003174,immed,44867.000102996826,Fri Jun 05 2026 11:19:14 GMT-0400 (Eastern Daylight Time),774251.700000003,A,armenter,I,enter,745,3,1383.2999999970198,772868.400000006,9035,WL,B,4.0
7,15.532999992370605,immed,44467.000007629395,Fri Jun 05 2026 11:19:14 GMT-0400 (Eastern Daylight Time),774652.1000000089,A,s,I,s,386,3,400.1000000089407,774252.0,9035,WL,B,5.0
7,15.799999952316284,immed,44200.000047683716,Fri Jun 05 2026 11:19:14 GMT-0400 (Eastern Daylight Time),774918.799999997,A,st,I,t,254,3,666.7999999970198,774252.0,9035,WL,B,5.0
7,16.01699995994568,immed,43983.00004005432,Fri Jun 05 2026 11:19:14 GMT-0400 (Eastern Daylight Time),775135.5,A,sta,I,a,196,3,883.5,774252.0,9035,WL,B,5.0
7,16.16599988937378,immed,43834.00011062622,Fri Jun 05 2026 11:19:14 GMT-0400 (Eastern Daylight Time),775285.1000000089,A,star,I,r,130,3,1033.1000000089407,774252.0,9035,WL,B,5.0
7,16.716000080108643,immed,43283.99991989136,Fri Jun 05 2026 11:19:14 GMT-0400 (Eastern Daylight Time),775835.0,A,starenter,I,enter,533,3,1583.0,774252.0,9035,WL,B,5.0
7,17.132999897003174,immed,42867.000102996826,Fri Jun 05 2026 11:19:14 GMT-0400 (Eastern Daylight Time),776252.1000000089,A,w,I,w,402,3,416.80000001192093,775835.299999997,9035,WL,B,6.0
7,17.282999992370605,immed,42717.000007629395,Fri Jun 05 2026 11:19:14 GMT-0400 (Eastern Daylight Time),776402.1000000089,A,wi,I,i,125,3,566.8000000119209,775835.299999997,9035,WL,B,6.0
7,17.450000047683716,immed,42549.999952316284,Fri Jun 05 2026 11:19:14 GMT-0400 (Eastern Daylight Time),776568.900000006,A,win,I,n,141,3,733.6000000089407,775835.299999997,9035,WL,B,6.0
7,17.566999912261963,immed,42433.00008773804,Fri Jun 05 2026 11:19:14 GMT-0400 (Eastern Daylight Time),776685.6000000089,A,wind,I,d,86,3,850.3000000119209,775835.299999997,9035,WL,B,6.0
7,17.66700005531311,immed,42332.99994468689,Fri Jun 05 2026 11:19:14 GMT-0400 (Eastern Daylight Time),776785.5,A,windo,I,o,67,3,950.2000000029802,775835.299999997,9035,WL,B,6.0
7,17.84999990463257,immed,42150.00009536743,Fri Jun 05 2026 11:19:14 GMT-0400 (Eastern Daylight Time),776968.799999997,A,window,I,w,165,3,1133.5,775835.299999997,9035,WL,B,6.0
7,18.33299994468689,immed,41667.00005531311,Fri Jun 05 2026 11:19:14 GMT-0400 (Eastern Daylight Time),777451.6000000089,A,windowenter,I,enter,465,3,1616.300000011921,775835.299999997,9035,WL,B,6.0
7,18.716000080108643,immed,41283.99991989136,Fri Jun 05 2026 11:19:14 GMT-0400 (Eastern Daylight Time),777835.400000006,A,c,I,c,369,3,383.40000000596046,777452.0,9035,WL,B,7.0
7,18.865999937057495,immed,41134.000062942505,Fri Jun 05 2026 11:19:14 GMT-0400 (Eastern Daylight Time),777985.5,A,ci,I,i,127,3,533.5,777452.0,9035,WL,B,7.0
7,19.049999952316284,immed,40950.000047683716,Fri Jun 05 2026 11:19:14 GMT-0400 (Eastern Daylight Time),778168.799999997,A,cit,I,t,167,3,716.7999999970198,777452.0,9035,WL,B,7.0
7,19.217000007629395,immed,40782.999992370605,Fri Jun 05 2026 11:19:14 GMT-0400 (Eastern Daylight Time),778335.5,A,city,I,y,145,3,883.5,777452.0,9035,WL,B,7.0
7,19.933000087738037,immed,40066.99991226196,Fri Jun 05 2026 11:19:14 GMT-0400 (Eastern Daylight Time),779051.700000003,A,cityenter,I,enter,696,3,1599.7000000029802,777452.0,9035,WL,B,7.0
7,20.5,immed,39500.0,Fri Jun 05 2026 11:19:14 GMT-0400 (Eastern Daylight Time),779618.799999997,A,c,I,c,546,3,566.6999999880791,779052.1000000089,9035,WL,B,8.0
7,20.700000047683716,immed,39299.999952316284,Fri Jun 05 2026 11:19:14 GMT-0400 (Eastern Daylight Time),779818.900000006,A,ca,I,a,183,3,766.7999999970198,779052.1000000089,9035,WL,B,8.0
7,20.899999856948853,immed,39100.00014305115,Fri Jun 05 2026 11:19:14 GMT-0400 (Eastern Daylight Time),780018.700000003,A,cab,I,b,165,3,966.5999999940395,779052.1000000089,9035,WL,B,8.0
7,21.032999992370605,immed,38967.000007629395,Fri Jun 05 2026 11:19:14 GMT-0400 (Eastern Daylight Time),780152.1000000089,A,cabi,I,i,117,3,1100.0,779052.1000000089,9035,WL,B,8.0
7,21.23300004005432,immed,38766.99995994568,Fri Jun 05 2026 11:19:14 GMT-0400 (Eastern Daylight Time),780352.0,A,cabin,I,n,168,3,1299.8999999910593,779052.1000000089,9035,WL,B,8.0
7,21.782999992370605,immed,38217.000007629395,Fri Jun 05 2026 11:19:14 GMT-0400 (Eastern Daylight Time),780901.6000000089,A,cabinenter,I,enter,536,3,1849.5,779052.1000000089,9035,WL,B,8.0
7,22.433000087738037,immed,37566.99991226196,Fri Jun 05 2026 11:19:14 GMT-0400 (Eastern Daylight Time),781552.1000000089,A,l,I,l,632,3,650.2000000029802,780901.900000006,9035,WL,B,9.0
7,22.683000087738037,immed,37316.99991226196,Fri Jun 05 2026 11:19:14 GMT-0400 (Eastern Daylight Time),781802.1000000089,A,la,I,a,232,3,900.2000000029802,780901.900000006,9035,WL,B,9.0
7,22.782999992370605,immed,37217.000007629395,Fri Jun 05 2026 11:19:14 GMT-0400 (Eastern Daylight Time),781902.1000000089,A,lak,I,k,78,3,1000.2000000029802,780901.900000006,9035,WL,B,9.0
7,22.91599988937378,immed,37084.00011062622,Fri Jun 05 2026 11:19:14 GMT-0400 (Eastern Daylight Time),782035.5,A,lake,I,e,105,3,1133.5999999940395,780901.900000006,9035,WL,B,9.0
7,23.1489999294281,immed,36851.0000705719,Fri Jun 05 2026 11:19:14 GMT-0400 (Eastern Daylight Time),782268.400000006,A,lakeenter,I,enter,204,3,1366.5,780901.900000006,9035,WL,B,9.0
7,24.48300004005432,immed,35516.99995994568,Fri Jun 05 2026 11:19:14 GMT-0400 (Eastern Daylight Time),783602.200000003,A,s,I,s,1313,3,1333.5999999940395,782268.6000000089,9035,WL,B,10.0
7,25.382999897003174,immed,34617.000102996826,Fri Jun 05 2026 11:19:14 GMT-0400 (Eastern Daylight Time),784502.0,A,sk,I,k,888,3,2233.3999999910593,782268.6000000089,9035,WL,B,10.0
7,26.26699995994568,immed,33733.00004005432,Fri Jun 05 2026 11:19:14 GMT-0400 (Eastern Daylight Time),785385.5,A,ski,I,i,866,3,3116.8999999910593,782268.6000000089,9035,WL,B,10.0
7,26.532999992370605,immed,33467.000007629395,Fri Jun 05 2026 11:19:14 GMT-0400 (Eastern Daylight Time),785652.1000000089,A,skin,I,n,240,3,3383.5,782268.6000000089,9035,WL,B,10.0
7,27.299000024795532,immed,32700.999975204468,Fri Jun 05 2026 11:19:14 GMT-0400 (Eastern Daylight Time),786418.299999997,A,skinenter,I,enter,741,3,4149.699999988079,782268.6000000089,9035,WL,B,10.0
7,27.632999897003174,immed,32367.000102996826,Fri Jun 05 2026 11:19:14 GMT-0400 (Eastern Daylight Time),786752.0,A,f,I,f,315,3,333.3999999910593,786418.6000000089,9035,WL,B,11.0
7,27.73300004005432,immed,32266.99995994568,Fri Jun 05 2026 11:19:14 GMT-0400 (Eastern Daylight Time),786852.200000003,A,fi,I,i,74,3,433.59999999403954,786418.6000000089,9035,WL,B,11.0
7,27.933000087738037,immed,32066.999912261963,Fri Jun 05 2026 11:19:14 GMT-0400 (Eastern Daylight Time),787052.0,A,fir,I,r,182,3,633.3999999910593,786418.6000000089,9035,WL,B,11.0
7,28.516000032424927,immed,31483.999967575073,Fri Jun 05 2026 11:19:14 GMT-0400 (Eastern Daylight Time),787635.400000006,A,fire,I,e,557,3,1216.7999999970198,786418.6000000089,9035,WL,B,11.0
7,28.933000087738037,immed,31066.999912261963,Fri Jun 05 2026 11:19:14 GMT-0400 (Eastern Daylight Time),788051.6000000089,A,fireenter,I,enter,390,3,1633.0,786418.6000000089,9035,WL,B,11.0
7,29.31599998474121,immed,30684.00001525879,Fri Jun 05 2026 11:19:14 GMT-0400 (Eastern Daylight Time),788435.5,A,p,I,p,362,3,383.59999999403954,788051.900000006,9035,WL,B,12.0
7,29.549999952316284,immed,30450.000047683716,Fri Jun 05 2026 11:19:14 GMT-0400 (Eastern Daylight Time),788668.900000006,A,pi,I,i,215,3,617.0,788051.900000006,9035,WL,B,12.0
7,29.73300004005432,immed,30266.99995994568,Fri Jun 05 2026 11:19:14 GMT-0400 (Eastern Daylight Time),788852.1000000089,A,pip,I,p,148,3,800.2000000029802,788051.900000006,9035,WL,B,12.0
7,29.882999897003174,immed,30117.000102996826,Fri Jun 05 2026 11:19:14 GMT-0400 (Eastern Daylight Time),789001.700000003,A,pipe,I,e,132,3,949.7999999970198,788051.900000006,9035,WL,B,12.0
7,30.183000087738037,immed,29816.999912261963,Fri Jun 05 2026 11:19:14 GMT-0400 (Eastern Daylight Time),789301.6000000089,A,pipeenter,I,enter,291,3,1249.7000000029802,788051.900000006,9035,WL,B,12.0
7,30.516000032424927,immed,29483.999967575073,Fri Jun 05 2026 11:19:14 GMT-0400 (Eastern Daylight Time),789635.400000006,A,c,I,c,312,3,333.40000000596046,789302.0,9035,WL,B,13.0
7,30.58299994468689,immed,29417.00005531311,Fri Jun 05 2026 11:19:14 GMT-0400 (Eastern Daylight Time),789701.700000003,A,cl,I,l,54,3,399.70000000298023,789302.0,9035,WL,B,13.0
7,30.816999912261963,immed,29183.000087738037,Fri Jun 05 2026 11:19:14 GMT-0400 (Eastern Daylight Time),789935.5,A,clo,I,o,212,3,633.5,789302.0,9035,WL,B,13.0
7,31.0,immed,29000.0,Fri Jun 05 2026 11:19:14 GMT-0400 (Eastern Daylight Time),790118.799999997,A,cloc,I,c,171,3,816.7999999970198,789302.0,9035,WL,B,13.0
7,31.09999990463257,immed,28900.00009536743,Fri Jun 05 2026 11:19:14 GMT-0400 (Eastern Daylight Time),790218.900000006,A,clock,I,k,83,3,916.9000000059605,789302.0,9035,WL,B,13.0
7,32.132999897003174,immed,27867.000102996826,Fri Jun 05 2026 11:19:14 GMT-0400 (Eastern Daylight Time),791251.6000000089,A,clockenter,I,enter,1005,3,1949.6000000089407,789302.0,9035,WL,B,13.0
7,37.0,immed,23000.0,Fri Jun 05 2026 11:19:14 GMT-0400 (Eastern Daylight Time),796118.700000003,A,g,I,g,4858,3,4866.70000000298,791252.0,9035,WL,B,14.0
7,37.26600003242493,immed,22733.999967575073,Fri Jun 05 2026 11:19:14 GMT-0400 (Eastern Daylight Time),796385.400000006,A,gr,I,r,241,3,5133.4000000059605,791252.0,9035,WL,B,14.0
7,37.450000047683716,immed,22549.999952316284,Fri Jun 05 2026 11:19:14 GMT-0400 (Eastern Daylight Time),796568.799999997,A,gra,I,a,168,3,5316.79999999702,791252.0,9035,WL,B,14.0
7,37.700000047683716,immed,22299.999952316284,Fri Jun 05 2026 11:19:14 GMT-0400 (Eastern Daylight Time),796818.799999997,A,gras,I,s,225,3,5566.79999999702,791252.0,9035,WL,B,14.0
