block_c,block_dur,condition,countdown,datetime,endtime,list,multichar_response,project,response,response_time,session_number,start_end,starttime,subject_id,task,task_vers,trial
,,,,Thu Dec 04 2025 16:23:45 GMT-0500 (Eastern Standard Time),,,,I,space,860,1,,,9035,WL,C,
prac,,0,,Thu Dec 04 2025 16:23:45 GMT-0500 (Eastern Standard Time),,NA,b,I,b,4636,1,,,9035,WL,C,1.0
prac,,0,,Thu Dec 04 2025 16:23:45 GMT-0500 (Eastern Standard Time),,NA,bo,I,o,117,1,,,9035,WL,C,1.0
prac,,0,,Thu Dec 04 2025 16:23:45 GMT-0500 (Eastern Standard Time),,NA,boo,I,o,154,1,,,9035,WL,C,1.0
prac,,0,,Thu Dec 04 2025 16:23:45 GMT-0500 (Eastern Standard Time),,NA,boos,I,s,112,1,,,9035,WL,C,1.0
prac,,0,,Thu Dec 04 2025 16:23:45 GMT-0500 (Eastern Standard Time),,NA,boost,I,t,309,1,,,9035,WL,C,1.0
prac,,0,,Thu Dec 04 2025 16:23:45 GMT-0500 (Eastern Standard Time),,NA,boostenter,I,enter,1830,1,,,9035,WL,C,1.0
1,2.4670000076293945,learn,57532.999992370605,Thu Dec 04 2025 16:23:45 GMT-0500 (Eastern Standard Time),191325.0,A,t,I,t,2439,1,2465.7000000476837,188859.29999995232,9035,WL,C,1.0
1,2.616999864578247,learn,57383.00013542175,Thu Dec 04 2025 16:23:45 GMT-0500 (Eastern Standard Time),191474.89999985695,A,to,I,o,129,1,2615.5999999046326,188859.29999995232,9035,WL,C,1.0
1,2.816999912261963,learn,57183.00008773804,Thu Dec 04 2025 16:23:45 GMT-0500 (Eastern Standard Time),191675.09999990463,A,tow,I,w,165,1,2815.7999999523163,188859.29999995232,9035,WL,C,1.0
1,3.4169998168945312,learn,56583.00018310547,Thu Dec 04 2025 16:23:45 GMT-0500 (Eastern Standard Time),192274.89999985695,A,towe,I,e,582,1,3415.5999999046326,188859.29999995232,9035,WL,C,1.0
1,3.6499998569488525,learn,56350.00014305115,Thu Dec 04 2025 16:23:45 GMT-0500 (Eastern Standard Time),192508.0,A,tower,I,r,207,1,3648.7000000476837,188859.29999995232,9035,WL,C,1.0
1,4.748999834060669,learn,55251.00016593933,Thu Dec 04 2025 16:23:45 GMT-0500 (Eastern Standard Time),193607.59999990463,A,towerenter,I,enter,1066,1,4748.299999952316,188859.29999995232,9035,WL,C,1.0
1,5.766000032424927,learn,54233.99996757507,Thu Dec 04 2025 16:23:45 GMT-0500 (Eastern Standard Time),194624.19999980927,A,w,I,w,1003,1,1016.0999999046326,193608.09999990463,9035,WL,C,2.0
1,5.932999849319458,learn,54067.00015068054,Thu Dec 04 2025 16:23:45 GMT-0500 (Eastern Standard Time),194790.79999995232,A,wh,I,h,147,1,1182.7000000476837,193608.09999990463,9035,WL,C,2.0
1,6.098999977111816,learn,53901.00002288818,Thu Dec 04 2025 16:23:45 GMT-0500 (Eastern Standard Time),194957.39999985695,A,whe,I,e,156,1,1349.2999999523163,193608.09999990463,9035,WL,C,2.0
1,6.516000032424927,learn,53483.99996757507,Thu Dec 04 2025 16:23:45 GMT-0500 (Eastern Standard Time),195374.39999985695,A,whea,I,a,406,1,1766.2999999523163,193608.09999990463,9035,WL,C,2.0
1,6.799999952316284,learn,53200.000047683716,Thu Dec 04 2025 16:23:45 GMT-0500 (Eastern Standard Time),195658.09999990463,A,wheat,I,t,260,1,2050.0,193608.09999990463,9035,WL,C,2.0
1,7.098999977111816,learn,52901.00002288818,Thu Dec 04 2025 16:23:45 GMT-0500 (Eastern Standard Time),195957.69999980927,A,wheatenter,I,enter,279,1,2349.5999999046326,193608.09999990463,9035,WL,C,2.0
1,8.232999801635742,learn,51767.00019836426,Thu Dec 04 2025 16:23:45 GMT-0500 (Eastern Standard Time),197091.5,A,q,I,q,1119,1,1133.1000001430511,195958.39999985695,9035,WL,C,3.0
1,8.432999849319458,learn,51567.00015068054,Thu Dec 04 2025 16:23:45 GMT-0500 (Eastern Standard Time),197291.5,A,qu,I,u,175,1,1333.1000001430511,195958.39999985695,9035,WL,C,3.0
1,8.599999904632568,learn,51400.00009536743,Thu Dec 04 2025 16:23:45 GMT-0500 (Eastern Standard Time),197458.09999990463,A,que,I,e,151,1,1499.7000000476837,195958.39999985695,9035,WL,C,3.0
1,9.099999904632568,learn,50900.00009536743,Thu Dec 04 2025 16:23:45 GMT-0500 (Eastern Standard Time),197958.09999990463,A,quee,I,e,480,1,1999.7000000476837,195958.39999985695,9035,WL,C,3.0
1,9.349999904632568,learn,50650.00009536743,Thu Dec 04 2025 16:23:45 GMT-0500 (Eastern Standard Time),198208.09999990463,A,queen,I,n,235,1,2249.7000000476837,195958.39999985695,9035,WL,C,3.0
1,9.865999937057495,learn,50134.000062942505,Thu Dec 04 2025 16:23:45 GMT-0500 (Eastern Standard Time),198724.5,A,queenenter,I,enter,497,1,2766.100000143051,195958.39999985695,9035,WL,C,3.0
1,10.416999816894531,learn,49583.00018310547,Thu Dec 04 2025 16:23:45 GMT-0500 (Eastern Standard Time),199275.0,A,s,I,s,528,1,550.0,198725.0,9035,WL,C,4.0
1,10.516999959945679,learn,49483.00004005432,Thu Dec 04 2025 16:23:45 GMT-0500 (Eastern Standard Time),199374.89999985695,A,su,I,u,87,1,649.8999998569489,198725.0,9035,WL,C,4.0
1,10.717000007629395,learn,49282.999992370605,Thu Dec 04 2025 16:23:45 GMT-0500 (Eastern Standard Time),199575.0,A,sug,I,g,180,1,850.0,198725.0,9035,WL,C,4.0
1,11.266000032424927,learn,48733.99996757507,Thu Dec 04 2025 16:23:45 GMT-0500 (Eastern Standard Time),200124.69999980927,A,suga,I,a,521,1,1399.6999998092651,198725.0,9035,WL,C,4.0
1,11.516000032424927,learn,48483.99996757507,Thu Dec 04 2025 16:23:45 GMT-0500 (Eastern Standard Time),200374.69999980927,A,sugar,I,r,226,1,1649.6999998092651,198725.0,9035,WL,C,4.0
1,11.782999992370605,learn,48217.000007629395,Thu Dec 04 2025 16:23:45 GMT-0500 (Eastern Standard Time),200641.09999990463,A,sugarenter,I,enter,251,1,1916.0999999046326,198725.0,9035,WL,C,4.0
1,12.449999809265137,learn,47550.00019073486,Thu Dec 04 2025 16:23:45 GMT-0500 (Eastern Standard Time),201308.19999980927,A,h,I,h,643,1,666.6999998092651,200641.5,9035,WL,C,5.0
1,12.566999912261963,learn,47433.00008773804,Thu Dec 04 2025 16:23:45 GMT-0500 (Eastern Standard Time),201424.89999985695,A,ho,I,o,101,1,783.3999998569489,200641.5,9035,WL,C,5.0
1,12.83299994468689,learn,47167.00005531311,Thu Dec 04 2025 16:23:45 GMT-0500 (Eastern Standard Time),201691.59999990463,A,hom,I,m,240,1,1050.0999999046326,200641.5,9035,WL,C,5.0
1,12.932999849319458,learn,47067.00015068054,Thu Dec 04 2025 16:23:45 GMT-0500 (Eastern Standard Time),201790.89999985695,A,home,I,e,86,1,1149.3999998569489,200641.5,9035,WL,C,5.0
1,13.615999937057495,learn,46384.000062942505,Thu Dec 04 2025 16:23:45 GMT-0500 (Eastern Standard Time),202474.5,A,homeenter,I,enter,662,1,1833.0,200641.5,9035,WL,C,5.0
1,14.132999897003174,learn,45867.000102996826,Thu Dec 04 2025 16:23:45 GMT-0500 (Eastern Standard Time),202991.69999980927,A,b,I,b,506,1,516.8999998569489,202474.79999995232,9035,WL,C,6.0
1,14.266999959945679,learn,45733.00004005432,Thu Dec 04 2025 16:23:45 GMT-0500 (Eastern Standard Time),203124.79999995232,A,bo,I,o,115,1,650.0,202474.79999995232,9035,WL,C,6.0
1,14.532999992370605,learn,45467.000007629395,Thu Dec 04 2025 16:23:45 GMT-0500 (Eastern Standard Time),203391.5,A,boy,I,y,251,1,916.7000000476837,202474.79999995232,9035,WL,C,6.0
1,14.899999856948853,learn,45100.00014305115,Thu Dec 04 2025 16:23:45 GMT-0500 (Eastern Standard Time),203758.39999985695,A,boyenter,I,enter,344,1,1283.5999999046326,202474.79999995232,9035,WL,C,6.0
1,15.482999801635742,learn,44517.00019836426,Thu Dec 04 2025 16:23:45 GMT-0500 (Eastern Standard Time),204341.5,A,d,I,d,566,1,582.6000001430511,203758.89999985695,9035,WL,C,7.0
1,15.666999816894531,learn,44333.00018310547,Thu Dec 04 2025 16:23:45 GMT-0500 (Eastern Standard Time),204524.89999985695,A,do,I,o,153,1,766.0,203758.89999985695,9035,WL,C,7.0
1,15.799999952316284,learn,44200.000047683716,Thu Dec 04 2025 16:23:45 GMT-0500 (Eastern Standard Time),204658.09999990463,A,doc,I,c,116,1,899.2000000476837,203758.89999985695,9035,WL,C,7.0
1,16.049999952316284,learn,43950.000047683716,Thu Dec 04 2025 16:23:45 GMT-0500 (Eastern Standard Time),204908.0,A,doct,I,t,215,1,1149.1000001430511,203758.89999985695,9035,WL,C,7.0
1,16.182999849319458,learn,43817.00015068054,Thu Dec 04 2025 16:23:45 GMT-0500 (Eastern Standard Time),205041.5,A,docto,I,o,109,1,1282.6000001430511,203758.89999985695,9035,WL,C,7.0
1,16.282999992370605,learn,43717.000007629395,Thu Dec 04 2025 16:23:45 GMT-0500 (Eastern Standard Time),205141.39999985695,A,doctor,I,r,72,1,1382.5,203758.89999985695,9035,WL,C,7.0
1,16.6489999294281,learn,43351.0000705719,Thu Dec 04 2025 16:23:45 GMT-0500 (Eastern Standard Time),205507.69999980927,A,doctorenter,I,enter,340,1,1748.7999999523163,203758.89999985695,9035,WL,C,7.0
1,17.532999992370605,learn,42467.000007629395,Thu Dec 04 2025 16:23:45 GMT-0500 (Eastern Standard Time),206391.5,A,l,I,l,865,1,883.3000001907349,205508.19999980927,9035,WL,C,8.0
1,17.682999849319458,learn,42317.00015068054,Thu Dec 04 2025 16:23:45 GMT-0500 (Eastern Standard Time),206541.29999995232,A,le,I,e,137,1,1033.1000001430511,205508.19999980927,9035,WL,C,8.0
1,17.866999864578247,learn,42133.00013542175,Thu Dec 04 2025 16:23:45 GMT-0500 (Eastern Standard Time),206724.89999985695,A,let,I,t,157,1,1216.7000000476837,205508.19999980927,9035,WL,C,8.0
1,18.066999912261963,learn,41933.00008773804,Thu Dec 04 2025 16:23:45 GMT-0500 (Eastern Standard Time),206924.79999995232,A,lett,I,t,164,1,1416.6000001430511,205508.19999980927,9035,WL,C,8.0
1,18.199999809265137,learn,41800.00019073486,Thu Dec 04 2025 16:23:45 GMT-0500 (Eastern Standard Time),207058.09999990463,A,lette,I,e,117,1,1549.9000000953674,205508.19999980927,9035,WL,C,8.0
1,18.282999992370605,learn,41717.000007629395,Thu Dec 04 2025 16:23:45 GMT-0500 (Eastern Standard Time),207141.59999990463,A,letter,I,r,64,1,1633.4000000953674,205508.19999980927,9035,WL,C,8.0
1,18.632999897003174,learn,41367.000102996826,Thu Dec 04 2025 16:23:45 GMT-0500 (Eastern Standard Time),207491.09999990463,A,letterenter,I,enter,332,1,1982.9000000953674,205508.19999980927,9035,WL,C,8.0
1,22.09999990463257,learn,37900.00009536743,Thu Dec 04 2025 16:23:45 GMT-0500 (Eastern Standard Time),210957.89999985695,A,s,I,s,3459,1,3466.5,207491.39999985695,9035,WL,C,9.0
1,22.266000032424927,learn,37733.99996757507,Thu Dec 04 2025 16:23:45 GMT-0500 (Eastern Standard Time),211124.79999995232,A,su,I,u,149,1,3633.4000000953674,207491.39999985695,9035,WL,C,9.0
1,23.0,learn,37000.0,Thu Dec 04 2025 16:23:45 GMT-0500 (Eastern Standard Time),211858.19999980927,A,sug,I,g,718,1,4366.799999952316,207491.39999985695,9035,WL,C,9.0
1,23.232999801635742,learn,36767.00019836426,Thu Dec 04 2025 16:23:45 GMT-0500 (Eastern Standard Time),212091.59999990463,A,suga,I,a,207,1,4600.200000047684,207491.39999985695,9035,WL,C,9.0
1,23.482999801635742,learn,36517.00019836426,Thu Dec 04 2025 16:23:45 GMT-0500 (Eastern Standard Time),212341.5,A,sugar,I,r,231,1,4850.100000143051,207491.39999985695,9035,WL,C,9.0
1,26.09999990463257,learn,33900.00009536743,Thu Dec 04 2025 16:23:45 GMT-0500 (Eastern Standard Time),214958.09999990463,A,suga,I,backspace,2597,1,7466.700000047684,207491.39999985695,9035,WL,C,9.0
1,26.282999992370605,learn,33717.000007629395,Thu Dec 04 2025 16:23:45 GMT-0500 (Eastern Standard Time),215141.39999985695,A,sug,I,backspace,163,1,7650.0,207491.39999985695,9035,WL,C,9.0
1,26.467000007629395,learn,33532.999992370605,Thu Dec 04 2025 16:23:45 GMT-0500 (Eastern Standard Time),215324.89999985695,A,su,I,backspace,158,1,7833.5,207491.39999985695,9035,WL,C,9.0
1,26.615999937057495,learn,33384.000062942505,Thu Dec 04 2025 16:23:45 GMT-0500 (Eastern Standard Time),215474.19999980927,A,s,I,backspace,125,1,7982.799999952316,207491.39999985695,9035,WL,C,9.0
1,26.816999912261963,learn,33183.00008773804,Thu Dec 04 2025 16:23:45 GMT-0500 (Eastern Standard Time),215674.89999985695,A,,I,backspace,178,1,8183.5,207491.39999985695,9035,WL,C,9.0
1,26.967000007629395,learn,33032.999992370605,Thu Dec 04 2025 16:23:45 GMT-0500 (Eastern Standard Time),215824.89999985695,A,,I,backspace,136,1,8333.5,207491.39999985695,9035,WL,C,9.0
1,32.782999992370605,learn,27217.000007629395,Thu Dec 04 2025 16:23:45 GMT-0500 (Eastern Standard Time),221641.5,A,s,I,s,5788,1,14150.100000143051,207491.39999985695,9035,WL,C,9.0
1,32.882999897003174,learn,27117.000102996826,Thu Dec 04 2025 16:23:45 GMT-0500 (Eastern Standard Time),221741.19999980927,A,sh,I,h,88,1,14249.799999952316,207491.39999985695,9035,WL,C,9.0
1,33.0,learn,27000.0,Thu Dec 04 2025 16:23:45 GMT-0500 (Eastern Standard Time),221858.0,A,sho,I,o,93,1,14366.600000143051,207491.39999985695,9035,WL,C,9.0
1,33.18299984931946,learn,26817.000150680542,Thu Dec 04 2025 16:23:45 GMT-0500 (Eastern Standard Time),222041.39999985695,A,shor,I,r,161,1,14550.0,207491.39999985695,9035,WL,C,9.0
1,33.299999952316284,learn,26700.000047683716,Thu Dec 04 2025 16:23:45 GMT-0500 (Eastern Standard Time),222157.89999985695,A,shore,I,e,106,1,14666.5,207491.39999985695,9035,WL,C,9.0
1,33.58299994468689,learn,26417.00005531311,Thu Dec 04 2025 16:23:45 GMT-0500 (Eastern Standard Time),222441.0,A,shoreenter,I,enter,248,1,14949.600000143051,207491.39999985695,9035,WL,C,9.0
1,44.34999990463257,learn,15650.000095367432,Thu Dec 04 2025 16:23:45 GMT-0500 (Eastern Standard Time),233208.19999980927,A,s,I,s,10750,1,10766.699999809265,222441.5,9035,WL,C,10.0
1,44.44999980926514,learn,15550.000190734863,Thu Dec 04 2025 16:23:45 GMT-0500 (Eastern Standard Time),233308.19999980927,A,su,I,u,73,1,10866.699999809265,222441.5,9035,WL,C,10.0
1,44.86699986457825,learn,15133.000135421753,Thu Dec 04 2025 16:23:45 GMT-0500 (Eastern Standard Time),233724.79999995232,A,sug,I,g,388,1,11283.299999952316,222441.5,9035,WL,C,10.0
1,45.01699995994568,learn,14983.000040054321,Thu Dec 04 2025 16:23:45 GMT-0500 (Eastern Standard Time),233874.89999985695,A,suga,I,a,133,1,11433.399999856949,222441.5,9035,WL,C,10.0
1,45.54900002479553,learn,14450.999975204468,Thu Dec 04 2025 16:23:45 GMT-0500 (Eastern Standard Time),234407.5,A,sugaenter,I,enter,510,1,11966.0,222441.5,9035,WL,C,10.0
1,60.01699995994568,learn,-16.99995994567871,Thu Dec 04 2025 16:23:45 GMT-0500 (Eastern Standard Time),248875.09999990463,A,None,I,None,14461,1,14467.200000047684,234407.89999985695,9035,WL,C,11.0
2,2.3340001106262207,learn,57665.99988937378,Thu Dec 04 2025 16:23:45 GMT-0500 (Eastern Standard Time),331158.09999990463,A,c,I,c,2314,1,2332.7999999523163,328825.2999999523,9035,WL,C,1.0
2,2.75,learn,57250.0,Thu Dec 04 2025 16:23:45 GMT-0500 (Eastern Standard Time),331574.69999980927,A,ca,I,a,397,1,2749.399999856949,328825.2999999523,9035,WL,C,1.0
2,3.3000001907348633,learn,56699.99980926514,Thu Dec 04 2025 16:23:45 GMT-0500 (Eastern Standard Time),332124.59999990463,A,cat,I,t,524,1,3299.2999999523163,328825.2999999523,9035,WL,C,1.0
2,3.5169999599456787,learn,56483.00004005432,Thu Dec 04 2025 16:23:45 GMT-0500 (Eastern Standard Time),332341.2999999523,A,catt,I,t,195,1,3516.0,328825.2999999523,9035,WL,C,1.0
2,3.7170000076293945,learn,56282.999992370605,Thu Dec 04 2025 16:23:45 GMT-0500 (Eastern Standard Time),332541.09999990463,A,cattl,I,l,190,1,3715.7999999523163,328825.2999999523,9035,WL,C,1.0
2,3.9670000076293945,learn,56032.999992370605,Thu Dec 04 2025 16:23:45 GMT-0500 (Eastern Standard Time),332791.5,A,cattle,I,e,222,1,3966.2000000476837,328825.2999999523,9035,WL,C,1.0
2,4.75,learn,55250.0,Thu Dec 04 2025 16:23:45 GMT-0500 (Eastern Standard Time),333574.2999999523,A,cattleenter,I,enter,763,1,4749.0,328825.2999999523,9035,WL,C,1.0
2,5.300000190734863,learn,54699.99980926514,Thu Dec 04 2025 16:23:45 GMT-0500 (Eastern Standard Time),334124.69999980927,A,s,I,s,527,1,549.8999998569489,333574.7999999523,9035,WL,C,2.0
2,5.450000047683716,learn,54549.999952316284,Thu Dec 04 2025 16:23:45 GMT-0500 (Eastern Standard Time),334274.7999999523,A,sh,I,h,135,1,700.0,333574.7999999523,9035,WL,C,2.0
2,5.66700005531311,learn,54332.99994468689,Thu Dec 04 2025 16:23:45 GMT-0500 (Eastern Standard Time),334490.89999985695,A,sho,I,o,182,1,916.0999999046326,333574.7999999523,9035,WL,C,2.0
2,5.867000102996826,learn,54132.999897003174,Thu Dec 04 2025 16:23:45 GMT-0500 (Eastern Standard Time),334691.2999999523,A,shor,I,r,187,1,1116.5,333574.7999999523,9035,WL,C,2.0
2,6.016999959945679,learn,53983.00004005432,Thu Dec 04 2025 16:23:45 GMT-0500 (Eastern Standard Time),334841.39999985695,A,shore,I,e,129,1,1266.5999999046326,333574.7999999523,9035,WL,C,2.0
2,6.4670000076293945,learn,53532.999992370605,Thu Dec 04 2025 16:23:45 GMT-0500 (Eastern Standard Time),335291.0,A,shoreenter,I,enter,415,1,1716.2000000476837,333574.7999999523,9035,WL,C,2.0
2,7.067000150680542,learn,52932.99984931946,Thu Dec 04 2025 16:23:45 GMT-0500 (Eastern Standard Time),335891.2999999523,A,n,I,n,587,1,600.0,335291.2999999523,9035,WL,C,3.0
2,7.2170000076293945,learn,52782.999992370605,Thu Dec 04 2025 16:23:45 GMT-0500 (Eastern Standard Time),336041.39999985695,A,na,I,a,126,1,750.0999999046326,335291.2999999523,9035,WL,C,3.0
2,7.800000190734863,learn,52199.99980926514,Thu Dec 04 2025 16:23:45 GMT-0500 (Eastern Standard Time),336624.59999990463,A,nai,I,i,569,1,1333.2999999523163,335291.2999999523,9035,WL,C,3.0
2,8.100000143051147,learn,51899.99985694885,Thu Dec 04 2025 16:23:45 GMT-0500 (Eastern Standard Time),336924.5,A,nail,I,l,276,1,1633.2000000476837,335291.2999999523,9035,WL,C,3.0
2,8.5,learn,51500.0,Thu Dec 04 2025 16:23:45 GMT-0500 (Eastern Standard Time),337324.0,A,nailenter,I,enter,390,1,2032.7000000476837,335291.2999999523,9035,WL,C,3.0
2,8.983999967575073,learn,51016.00003242493,Thu Dec 04 2025 16:23:45 GMT-0500 (Eastern Standard Time),337807.89999985695,A,d,I,d,474,1,483.59999990463257,337324.2999999523,9035,WL,C,4.0
2,9.33400011062622,learn,50665.99988937378,Thu Dec 04 2025 16:23:45 GMT-0500 (Eastern Standard Time),338157.7999999523,A,do,I,o,338,1,833.5,337324.2999999523,9035,WL,C,4.0
2,9.6010000705719,learn,50398.9999294281,Thu Dec 04 2025 16:23:45 GMT-0500 (Eastern Standard Time),338424.7999999523,A,doc,I,c,244,1,1100.5,337324.2999999523,9035,WL,C,4.0
2,9.91700005531311,learn,50082.99994468689,Thu Dec 04 2025 16:23:45 GMT-0500 (Eastern Standard Time),338741.39999985695,A,doct,I,t,298,1,1417.0999999046326,337324.2999999523,9035,WL,C,4.0
2,10.08400011062622,learn,49915.99988937378,Thu Dec 04 2025 16:23:45 GMT-0500 (Eastern Standard Time),338908.09999990463,A,docto,I,o,140,1,1583.7999999523163,337324.2999999523,9035,WL,C,4.0
2,10.25,learn,49750.0,Thu Dec 04 2025 16:23:45 GMT-0500 (Eastern Standard Time),339074.7999999523,A,doctor,I,r,142,1,1750.5,337324.2999999523,9035,WL,C,4.0
2,10.733999967575073,learn,49266.00003242493,Thu Dec 04 2025 16:23:45 GMT-0500 (Eastern Standard Time),339558.19999980927,A,doctorenter,I,enter,463,1,2233.899999856949,337324.2999999523,9035,WL,C,4.0
2,12.134000062942505,learn,47865.999937057495,Thu Dec 04 2025 16:23:45 GMT-0500 (Eastern Standard Time),340957.89999985695,A,w,I,w,1391,1,1399.5,339558.39999985695,9035,WL,C,5.0
2,12.317000150680542,learn,47682.99984931946,Thu Dec 04 2025 16:23:45 GMT-0500 (Eastern Standard Time),341141.39999985695,A,wh,I,h,164,1,1583.0,339558.39999985695,9035,WL,C,5.0
2,12.483999967575073,learn,47516.00003242493,Thu Dec 04 2025 16:23:45 GMT-0500 (Eastern Standard Time),341308.0,A,whe,I,e,142,1,1749.6000001430511,339558.39999985695,9035,WL,C,5.0
2,12.617000102996826,learn,47382.999897003174,Thu Dec 04 2025 16:23:45 GMT-0500 (Eastern Standard Time),341441.2999999523,A,whea,I,a,110,1,1882.9000000953674,339558.39999985695,9035,WL,C,5.0
2,12.901000022888184,learn,47098.99997711182,Thu Dec 04 2025 16:23:45 GMT-0500 (Eastern Standard Time),341724.7999999523,A,wheat,I,t,274,1,2166.4000000953674,339558.39999985695,9035,WL,C,5.0
2,13.333000183105469,learn,46666.99981689453,Thu Dec 04 2025 16:23:45 GMT-0500 (Eastern Standard Time),342157.39999985695,A,wheatenter,I,enter,418,1,2599.0,339558.39999985695,9035,WL,C,5.0
2,14.983000040054321,learn,45016.99995994568,Thu Dec 04 2025 16:23:45 GMT-0500 (Eastern Standard Time),343807.7999999523,A,c,I,c,1640,1,1650.0,342157.7999999523,9035,WL,C,6.0
2,15.266999959945679,learn,44733.00004005432,Thu Dec 04 2025 16:23:45 GMT-0500 (Eastern Standard Time),344091.5,A,ca,I,a,256,1,1933.7000000476837,342157.7999999523,9035,WL,C,6.0
2,15.650000095367432,learn,44349.99990463257,Thu Dec 04 2025 16:23:45 GMT-0500 (Eastern Standard Time),344474.69999980927,A,cam,I,m,359,1,2316.899999856949,342157.7999999523,9035,WL,C,6.0
2,15.91700005531311,learn,44082.99994468689,Thu Dec 04 2025 16:23:45 GMT-0500 (Eastern Standard Time),344741.39999985695,A,camp,I,p,248,1,2583.5999999046326,342157.7999999523,9035,WL,C,6.0
2,16.700000047683716,learn,43299.999952316284,Thu Dec 04 2025 16:23:45 GMT-0500 (Eastern Standard Time),345524.2999999523,A,campenter,I,enter,765,1,3366.5,342157.7999999523,9035,WL,C,6.0
2,17.134000062942505,learn,42865.999937057495,Thu Dec 04 2025 16:23:45 GMT-0500 (Eastern Standard Time),345957.7999999523,A,f,I,f,418,1,433.2000000476837,345524.59999990463,9035,WL,C,7.0
2,17.300000190734863,learn,42699.99980926514,Thu Dec 04 2025 16:23:45 GMT-0500 (Eastern Standard Time),346124.69999980927,A,fl,I,l,138,1,600.0999999046326,345524.59999990463,9035,WL,C,7.0
2,17.467000007629395,learn,42532.999992370605,Thu Dec 04 2025 16:23:45 GMT-0500 (Eastern Standard Time),346291.5,A,fla,I,a,150,1,766.9000000953674,345524.59999990463,9035,WL,C,7.0
2,17.700000047683716,learn,42299.999952316284,Thu Dec 04 2025 16:23:45 GMT-0500 (Eastern Standard Time),346524.7999999523,A,flag,I,g,200,1,1000.2000000476837,345524.59999990463,9035,WL,C,7.0
2,18.050000190734863,learn,41949.99980926514,Thu Dec 04 2025 16:23:45 GMT-0500 (Eastern Standard Time),346874.19999980927,A,flagenter,I,enter,326,1,1349.5999999046326,345524.59999990463,9035,WL,C,7.0
2,18.483999967575073,learn,41516.00003242493,Thu Dec 04 2025 16:23:45 GMT-0500 (Eastern Standard Time),347307.7999999523,A,s,I,s,411,1,433.2999999523163,346874.5,9035,WL,C,8.0
2,18.65000009536743,learn,41349.99990463257,Thu Dec 04 2025 16:23:45 GMT-0500 (Eastern Standard Time),347474.7999999523,A,su,I,u,148,1,600.2999999523163,346874.5,9035,WL,C,8.0
2,18.817000150680542,learn,41182.99984931946,Thu Dec 04 2025 16:23:45 GMT-0500 (Eastern Standard Time),347641.39999985695,A,sug,I,g,134,1,766.8999998569489,346874.5,9035,WL,C,8.0
2,19.050000190734863,learn,40949.99980926514,Thu Dec 04 2025 16:23:45 GMT-0500 (Eastern Standard Time),347874.69999980927,A,suga,I,a,217,1,1000.1999998092651,346874.5,9035,WL,C,8.0
2,19.300000190734863,learn,40699.99980926514,Thu Dec 04 2025 16:23:45 GMT-0500 (Eastern Standard Time),348124.69999980927,A,sugar,I,r,223,1,1250.1999998092651,346874.5,9035,WL,C,8.0
2,19.48300004005432,learn,40516.99995994568,Thu Dec 04 2025 16:23:45 GMT-0500 (Eastern Standard Time),348307.59999990463,A,sugarenter,I,enter,164,1,1433.0999999046326,346874.5,9035,WL,C,8.0
2,20.784000158309937,learn,39215.99984169006,Thu Dec 04 2025 16:23:45 GMT-0500 (Eastern Standard Time),349607.89999985695,A,h,I,h,1282,1,1300.0,348307.89999985695,9035,WL,C,9.0
2,20.90000009536743,learn,39099.99990463257,Thu Dec 04 2025 16:23:45 GMT-0500 (Eastern Standard Time),349724.7999999523,A,ho,I,o,91,1,1416.9000000953674,348307.89999985695,9035,WL,C,9.0
2,21.134000062942505,learn,38865.999937057495,Thu Dec 04 2025 16:23:45 GMT-0500 (Eastern Standard Time),349957.89999985695,A,hom,I,m,205,1,1650.0,348307.89999985695,9035,WL,C,9.0
2,21.25,learn,38750.0,Thu Dec 04 2025 16:23:45 GMT-0500 (Eastern Standard Time),350074.5,A,home,I,e,93,1,1766.6000001430511,348307.89999985695,9035,WL,C,9.0
2,21.466000080108643,learn,38533.99991989136,Thu Dec 04 2025 16:23:45 GMT-0500 (Eastern Standard Time),350290.69999980927,A,homeenter,I,enter,197,1,1982.7999999523163,348307.89999985695,9035,WL,C,9.0
2,21.884000062942505,learn,38115.999937057495,Thu Dec 04 2025 16:23:45 GMT-0500 (Eastern Standard Time),350707.89999985695,A,b,I,b,403,1,416.7000000476837,350291.19999980927,9035,WL,C,10.0
2,22.01699995994568,learn,37983.00004005432,Thu Dec 04 2025 16:23:45 GMT-0500 (Eastern Standard Time),350841.39999985695,A,bo,I,o,110,1,550.2000000476837,350291.19999980927,9035,WL,C,10.0
2,22.350000143051147,learn,37649.99985694885,Thu Dec 04 2025 16:23:45 GMT-0500 (Eastern Standard Time),351174.69999980927,A,boy,I,y,310,1,883.5,350291.19999980927,9035,WL,C,10.0
2,23.117000102996826,learn,36882.999897003174,Thu Dec 04 2025 16:23:45 GMT-0500 (Eastern Standard Time),351940.89999985695,A,boyenter,I,enter,746,1,1649.7000000476837,350291.19999980927,9035,WL,C,10.0
2,24.41700005531311,learn,35582.99994468689,Thu Dec 04 2025 16:23:45 GMT-0500 (Eastern Standard Time),353241.39999985695,A,w,I,w,1281,1,1300.0999999046326,351941.2999999523,9035,WL,C,11.0
2,25.483999967575073,learn,34516.00003242493,Thu Dec 04 2025 16:23:45 GMT-0500 (Eastern Standard Time),354308.0,A,wh,I,h,1048,1,2366.7000000476837,351941.2999999523,9035,WL,C,11.0
2,25.75,learn,34250.0,Thu Dec 04 2025 16:23:45 GMT-0500 (Eastern Standard Time),354574.59999990463,A,whe,I,e,255,1,2633.2999999523163,351941.2999999523,9035,WL,C,11.0
2,26.034000158309937,learn,33965.99984169006,Thu Dec 04 2025 16:23:45 GMT-0500 (Eastern Standard Time),354857.89999985695,A,whea,I,a,260,1,2916.5999999046326,351941.2999999523,9035,WL,C,11.0
2,26.600000143051147,learn,33399.99985694885,Thu Dec 04 2025 16:23:45 GMT-0500 (Eastern Standard Time),355424.69999980927,A,wheat,I,t,552,1,3483.399999856949,351941.2999999523,9035,WL,C,11.0
2,27.15000009536743,learn,32849.99990463257,Thu Dec 04 2025 16:23:45 GMT-0500 (Eastern Standard Time),355974.2999999523,A,wheatenter,I,enter,531,1,4033.0,351941.2999999523,9035,WL,C,11.0
2,27.784000158309937,learn,32215.999841690063,Thu Dec 04 2025 16:23:45 GMT-0500 (Eastern Standard Time),356607.89999985695,A,q,I,q,623,1,633.2999999523163,355974.59999990463,9035,WL,C,12.0
2,28.034000158309937,learn,31965.999841690063,Thu Dec 04 2025 16:23:45 GMT-0500 (Eastern Standard Time),356857.89999985695,A,qu,I,u,226,1,883.2999999523163,355974.59999990463,9035,WL,C,12.0
2,28.43400001525879,learn,31565.99998474121,Thu Dec 04 2025 16:23:45 GMT-0500 (Eastern Standard Time),357257.7999999523,A,que,I,e,377,1,1283.2000000476837,355974.59999990463,9035,WL,C,12.0
2,28.600000143051147,learn,31399.999856948853,Thu Dec 04 2025 16:23:45 GMT-0500 (Eastern Standard Time),357424.89999985695,A,quee,I,e,152,1,1450.2999999523163,355974.59999990463,9035,WL,C,12.0
2,28.83300018310547,learn,31166.99981689453,Thu Dec 04 2025 16:23:45 GMT-0500 (Eastern Standard Time),357657.7999999523,A,queen,I,n,200,1,1683.2000000476837,355974.59999990463,9035,WL,C,12.0
2,29.183000087738037,learn,30816.999912261963,Thu Dec 04 2025 16:23:45 GMT-0500 (Eastern Standard Time),358007.39999985695,A,queenenter,I,enter,327,1,2032.7999999523163,355974.59999990463,9035,WL,C,12.0
2,29.50100016593933,learn,30498.99983406067,Thu Dec 04 2025 16:23:45 GMT-0500 (Eastern Standard Time),358324.7999999523,A,s,I,s,302,1,317.10000014305115,358007.69999980927,9035,WL,C,13.0
2,29.66700005531311,learn,30332.99994468689,Thu Dec 04 2025 16:23:45 GMT-0500 (Eastern Standard Time),358491.2999999523,A,su,I,u,141,1,483.60000014305115,358007.69999980927,9035,WL,C,13.0
2,29.884000062942505,learn,30115.999937057495,Thu Dec 04 2025 16:23:45 GMT-0500 (Eastern Standard Time),358708.0,A,sug,I,g,192,1,700.3000001907349,358007.69999980927,9035,WL,C,13.0
2,30.100000143051147,learn,29899.999856948853,Thu Dec 04 2025 16:23:45 GMT-0500 (Eastern Standard Time),358924.7999999523,A,suga,I,a,191,1,917.1000001430511,358007.69999980927,9035,WL,C,13.0
2,30.33400011062622,learn,29665.99988937378,Thu Dec 04 2025 16:23:45 GMT-0500 (Eastern Standard Time),359158.0,A,sugar,I,r,213,1,1150.3000001907349,358007.69999980927,9035,WL,C,13.0
2,30.933000087738037,learn,29066.999912261963,Thu Dec 04 2025 16:23:45 GMT-0500 (Eastern Standard Time),359757.39999985695,A,sugarenter,I,enter,581,1,1749.7000000476837,358007.69999980927,9035,WL,C,13.0
2,43.967000007629395,learn,16032.999992370605,Thu Dec 04 2025 16:23:45 GMT-0500 (Eastern Standard Time),372791.19999980927,A,d,I,d,13017,1,13033.399999856949,359757.7999999523,9035,WL,C,14.0
2,44.117000102996826,learn,15882.999897003174,Thu Dec 04 2025 16:23:45 GMT-0500 (Eastern Standard Time),372940.89999985695,A,do,I,o,138,1,13183.099999904633,359757.7999999523,9035,WL,C,14.0
2,44.31700015068054,learn,15682.999849319458,Thu Dec 04 2025 16:23:45 GMT-0500 (Eastern Standard Time),373141.2999999523,A,doc,I,c,183,1,13383.5,359757.7999999523,9035,WL,C,14.0
2,44.76699995994568,learn,15233.000040054321,Thu Dec 04 2025 16:23:45 GMT-0500 (Eastern Standard Time),373591.2999999523,A,doct,I,t,430,1,13833.5,359757.7999999523,9035,WL,C,14.0
2,44.98399996757507,learn,15016.000032424927,Thu Dec 04 2025 16:23:45 GMT-0500 (Eastern Standard Time),373807.89999985695,A,docto,I,o,203,1,14050.099999904633,359757.7999999523,9035,WL,C,14.0
2,45.06700015068054,learn,14932.999849319458,Thu Dec 04 2025 16:23:45 GMT-0500 (Eastern Standard Time),373891.0,A,doctor,I,r,57,1,14133.200000047684,359757.7999999523,9035,WL,C,14.0
2,45.43400001525879,learn,14565.999984741211,Thu Dec 04 2025 16:23:45 GMT-0500 (Eastern Standard Time),374258.19999980927,A,doctorenter,I,enter,353,1,14500.399999856949,359757.7999999523,9035,WL,C,14.0
2,57.950000047683716,learn,2049.999952316284,Thu Dec 04 2025 16:23:45 GMT-0500 (Eastern Standard Time),386774.7999999523,A,w,I,w,12500,1,12516.200000047684,374258.59999990463,9035,WL,C,15.0
2,58.18400001525879,learn,1815.999984741211,Thu Dec 04 2025 16:23:45 GMT-0500 (Eastern Standard Time),387007.89999985695,A,wh,I,h,218,1,12749.299999952316,374258.59999990463,9035,WL,C,15.0
2,58.384000062942505,learn,1615.9999370574951,Thu Dec 04 2025 16:23:45 GMT-0500 (Eastern Standard Time),387207.89999985695,A,whe,I,e,180,1,12949.299999952316,374258.59999990463,9035,WL,C,15.0
2,58.58400011062622,learn,1415.9998893737793,Thu Dec 04 2025 16:23:45 GMT-0500 (Eastern Standard Time),387408.19999980927,A,whea,I,a,187,1,13149.599999904633,374258.59999990463,9035,WL,C,15.0
2,58.83400011062622,learn,1165.9998893737793,Thu Dec 04 2025 16:23:45 GMT-0500 (Eastern Standard Time),387657.89999985695,A,wheat,I,t,228,1,13399.299999952316,374258.59999990463,9035,WL,C,15.0
2,59.0,learn,1000.0,Thu Dec 04 2025 16:23:45 GMT-0500 (Eastern Standard Time),387824.19999980927,A,wheatenter,I,enter,141,1,13565.599999904633,374258.59999990463,9035,WL,C,15.0
3,0.7830002307891846,learn,59216.999769210815,Thu Dec 04 2025 16:23:45 GMT-0500 (Eastern Standard Time),457374.59999990463,A,b,I,b,772,1,782.9000000953674,456591.69999980927,9035,WL,C,1.0
3,1.0,learn,59000.0,Thu Dec 04 2025 16:23:45 GMT-0500 (Eastern Standard Time),457591.19999980927,A,bo,I,o,196,1,999.5,456591.69999980927,9035,WL,C,1.0
3,1.3500001430511475,learn,58649.99985694885,Thu Dec 04 2025 16:23:45 GMT-0500 (Eastern Standard Time),457941.19999980927,A,bod,I,d,331,1,1349.5,456591.69999980927,9035,WL,C,1.0
3,1.5500001907348633,learn,58449.99980926514,Thu Dec 04 2025 16:23:45 GMT-0500 (Eastern Standard Time),458140.89999985695,A,body,I,y,189,1,1549.2000000476837,456591.69999980927,9035,WL,C,1.0
3,2.1500000953674316,learn,57849.99990463257,Thu Dec 04 2025 16:23:45 GMT-0500 (Eastern Standard Time),458740.7999999523,A,bodyenter,I,enter,580,1,2149.100000143051,456591.69999980927,9035,WL,C,1.0
3,3.7330000400543213,learn,56266.99995994568,Thu Dec 04 2025 16:23:45 GMT-0500 (Eastern Standard Time),460324.59999990463,A,c,I,c,1569,1,1583.5,458741.09999990463,9035,WL,C,2.0
3,4.133000135421753,learn,55866.99986457825,Thu Dec 04 2025 16:23:45 GMT-0500 (Eastern Standard Time),460724.5,A,cm,I,m,382,1,1983.4000000953674,458741.09999990463,9035,WL,C,2.0
3,4.383000135421753,learn,55616.99986457825,Thu Dec 04 2025 16:23:45 GMT-0500 (Eastern Standard Time),460974.59999990463,A,cma,I,a,238,1,2233.5,458741.09999990463,9035,WL,C,2.0
3,4.533000230789185,learn,55466.999769210815,Thu Dec 04 2025 16:23:45 GMT-0500 (Eastern Standard Time),461124.5,A,cmap,I,p,131,1,2383.4000000953674,458741.09999990463,9035,WL,C,2.0
3,5.433000087738037,learn,54566.99991226196,Thu Dec 04 2025 16:23:45 GMT-0500 (Eastern Standard Time),462024.59999990463,A,cma,I,backspace,877,1,3283.5,458741.09999990463,9035,WL,C,2.0
3,5.617000102996826,learn,54382.999897003174,Thu Dec 04 2025 16:23:45 GMT-0500 (Eastern Standard Time),462208.2999999523,A,cm,I,backspace,169,1,3467.2000000476837,458741.09999990463,9035,WL,C,2.0
3,5.800000190734863,learn,54199.99980926514,Thu Dec 04 2025 16:23:45 GMT-0500 (Eastern Standard Time),462391.09999990463,A,c,I,backspace,156,1,3650.0,458741.09999990463,9035,WL,C,2.0
3,6.050000190734863,learn,53949.99980926514,Thu Dec 04 2025 16:23:45 GMT-0500 (Eastern Standard Time),462641.19999980927,A,,I,backspace,236,1,3900.0999999046326,458741.09999990463,9035,WL,C,2.0
3,7.1000001430511475,learn,52899.99985694885,Thu Dec 04 2025 16:23:45 GMT-0500 (Eastern Standard Time),463690.89999985695,A,c,I,c,1024,1,4949.799999952316,458741.09999990463,9035,WL,C,2.0
3,7.366000175476074,learn,52633.999824523926,Thu Dec 04 2025 16:23:45 GMT-0500 (Eastern Standard Time),463957.69999980927,A,ca,I,a,244,1,5216.599999904633,458741.09999990463,9035,WL,C,2.0
3,7.517000198364258,learn,52482.99980163574,Thu Dec 04 2025 16:23:45 GMT-0500 (Eastern Standard Time),464108.0,A,cam,I,m,124,1,5366.900000095367,458741.09999990463,9035,WL,C,2.0
3,7.766000032424927,learn,52233.99996757507,Thu Dec 04 2025 16:23:45 GMT-0500 (Eastern Standard Time),464357.7999999523,A,camp,I,p,230,1,5616.700000047684,458741.09999990463,9035,WL,C,2.0
3,8.450000047683716,learn,51549.999952316284,Thu Dec 04 2025 16:23:45 GMT-0500 (Eastern Standard Time),465040.7999999523,A,campenter,I,enter,667,1,6299.700000047684,458741.09999990463,9035,WL,C,2.0
3,10.233000040054321,learn,49766.99995994568,Thu Dec 04 2025 16:23:45 GMT-0500 (Eastern Standard Time),466824.39999985695,A,n,I,n,1764,1,1783.2000000476837,465041.19999980927,9035,WL,C,3.0
3,10.400000095367432,learn,49599.99990463257,Thu Dec 04 2025 16:23:45 GMT-0500 (Eastern Standard Time),466991.19999980927,A,na,I,a,154,1,1950.0,465041.19999980927,9035,WL,C,3.0
3,10.56600022315979,learn,49433.99977684021,Thu Dec 04 2025 16:23:45 GMT-0500 (Eastern Standard Time),467157.69999980927,A,nai,I,i,147,1,2116.5,465041.19999980927,9035,WL,C,3.0
3,10.783000230789185,learn,49216.999769210815,Thu Dec 04 2025 16:23:45 GMT-0500 (Eastern Standard Time),467374.69999980927,A,nail,I,l,200,1,2333.5,465041.19999980927,9035,WL,C,3.0
3,11.466000080108643,learn,48533.99991989136,Thu Dec 04 2025 16:23:45 GMT-0500 (Eastern Standard Time),468057.2999999523,A,nailenter,I,enter,649,1,3016.100000143051,465041.19999980927,9035,WL,C,3.0
3,12.233000040054321,learn,47766.99995994568,Thu Dec 04 2025 16:23:45 GMT-0500 (Eastern Standard Time),468824.59999990463,A,f,I,f,748,1,766.9000000953674,468057.69999980927,9035,WL,C,4.0
3,12.416000127792358,learn,47583.99987220764,Thu Dec 04 2025 16:23:45 GMT-0500 (Eastern Standard Time),469007.69999980927,A,fl,I,l,163,1,950.0,468057.69999980927,9035,WL,C,4.0
3,12.567000150680542,learn,47432.99984931946,Thu Dec 04 2025 16:23:45 GMT-0500 (Eastern Standard Time),469158.19999980927,A,fla,I,a,123,1,1100.5,468057.69999980927,9035,WL,C,4.0
3,12.850000143051147,learn,47149.99985694885,Thu Dec 04 2025 16:23:45 GMT-0500 (Eastern Standard Time),469441.19999980927,A,flag,I,g,268,1,1383.5,468057.69999980927,9035,WL,C,4.0
3,13.283000230789185,learn,46716.999769210815,Thu Dec 04 2025 16:23:45 GMT-0500 (Eastern Standard Time),469874.09999990463,A,flagenter,I,enter,409,1,1816.4000000953674,468057.69999980927,9035,WL,C,4.0
3,14.25,learn,45750.0,Thu Dec 04 2025 16:23:45 GMT-0500 (Eastern Standard Time),470841.19999980927,A,c,I,c,947,1,966.6999998092651,469874.5,9035,WL,C,5.0
3,14.383000135421753,learn,45616.99986457825,Thu Dec 04 2025 16:23:45 GMT-0500 (Eastern Standard Time),470974.39999985695,A,co,I,o,121,1,1099.8999998569489,469874.5,9035,WL,C,5.0
3,14.633000135421753,learn,45366.99986457825,Thu Dec 04 2025 16:23:45 GMT-0500 (Eastern Standard Time),471224.59999990463,A,cor,I,r,228,1,1350.0999999046326,469874.5,9035,WL,C,5.0
3,14.81600022315979,learn,45183.99977684021,Thu Dec 04 2025 16:23:45 GMT-0500 (Eastern Standard Time),471407.89999985695,A,corn,I,n,167,1,1533.3999998569489,469874.5,9035,WL,C,5.0
3,15.116000175476074,learn,44883.999824523926,Thu Dec 04 2025 16:23:45 GMT-0500 (Eastern Standard Time),471707.59999990463,A,cornenter,I,enter,282,1,1833.0999999046326,469874.5,9035,WL,C,5.0
3,17.217000007629395,learn,42782.999992370605,Thu Dec 04 2025 16:23:45 GMT-0500 (Eastern Standard Time),473807.7999999523,A,t,I,t,2090,1,2099.9000000953674,471707.89999985695,9035,WL,C,6.0
3,17.367000102996826,learn,42632.999897003174,Thu Dec 04 2025 16:23:45 GMT-0500 (Eastern Standard Time),473958.39999985695,A,to,I,o,130,1,2250.5,471707.89999985695,9035,WL,C,6.0
3,17.58300018310547,learn,42416.99981689453,Thu Dec 04 2025 16:23:45 GMT-0500 (Eastern Standard Time),474174.5,A,tow,I,w,195,1,2466.600000143051,471707.89999985695,9035,WL,C,6.0
3,17.73300004005432,learn,42266.99995994568,Thu Dec 04 2025 16:23:45 GMT-0500 (Eastern Standard Time),474324.59999990463,A,towe,I,e,124,1,2616.7000000476837,471707.89999985695,9035,WL,C,6.0
3,17.850000143051147,learn,42149.99985694885,Thu Dec 04 2025 16:23:45 GMT-0500 (Eastern Standard Time),474441.2999999523,A,tower,I,r,87,1,2733.4000000953674,471707.89999985695,9035,WL,C,6.0
3,18.14900016784668,learn,41850.99983215332,Thu Dec 04 2025 16:23:45 GMT-0500 (Eastern Standard Time),474740.69999980927,A,towerenter,I,enter,281,1,3032.7999999523163,471707.89999985695,9035,WL,C,6.0
3,18.700000047683716,learn,41299.999952316284,Thu Dec 04 2025 16:23:45 GMT-0500 (Eastern Standard Time),475291.09999990463,A,w,I,w,529,1,550.0,474741.09999990463,9035,WL,C,7.0
3,18.83300018310547,learn,41166.99981689453,Thu Dec 04 2025 16:23:45 GMT-0500 (Eastern Standard Time),475424.5,A,wh,I,h,116,1,683.4000000953674,474741.09999990463,9035,WL,C,7.0
3,18.91600012779236,learn,41083.99987220764,Thu Dec 04 2025 16:23:45 GMT-0500 (Eastern Standard Time),475507.69999980927,A,whe,I,e,64,1,766.5999999046326,474741.09999990463,9035,WL,C,7.0
3,19.116000175476074,learn,40883.999824523926,Thu Dec 04 2025 16:23:45 GMT-0500 (Eastern Standard Time),475707.59999990463,A,whea,I,a,175,1,966.5,474741.09999990463,9035,WL,C,7.0
3,19.433000087738037,learn,40566.99991226196,Thu Dec 04 2025 16:23:45 GMT-0500 (Eastern Standard Time),476023.7999999523,A,wheat,I,t,294,1,1282.7000000476837,474741.09999990463,9035,WL,C,7.0
3,19.66600012779236,learn,40333.99987220764,Thu Dec 04 2025 16:23:45 GMT-0500 (Eastern Standard Time),476257.2999999523,A,wheatenter,I,enter,221,1,1516.2000000476837,474741.09999990463,9035,WL,C,7.0
3,20.350000143051147,learn,39649.99985694885,Thu Dec 04 2025 16:23:45 GMT-0500 (Eastern Standard Time),476941.2999999523,A,q,I,q,661,1,683.7000000476837,476257.59999990463,9035,WL,C,8.0
3,20.517000198364258,learn,39482.99980163574,Thu Dec 04 2025 16:23:45 GMT-0500 (Eastern Standard Time),477107.7999999523,A,qu,I,u,149,1,850.2000000476837,476257.59999990463,9035,WL,C,8.0
3,20.716000080108643,learn,39283.99991989136,Thu Dec 04 2025 16:23:45 GMT-0500 (Eastern Standard Time),477307.39999985695,A,que,I,e,167,1,1049.7999999523163,476257.59999990463,9035,WL,C,8.0
3,20.933000087738037,learn,39066.99991226196,Thu Dec 04 2025 16:23:45 GMT-0500 (Eastern Standard Time),477524.69999980927,A,quee,I,e,201,1,1267.0999999046326,476257.59999990463,9035,WL,C,8.0
3,21.133000135421753,learn,38866.99986457825,Thu Dec 04 2025 16:23:45 GMT-0500 (Eastern Standard Time),477724.69999980927,A,queen,I,n,181,1,1467.0999999046326,476257.59999990463,9035,WL,C,8.0
3,21.549000024795532,learn,38450.99997520447,Thu Dec 04 2025 16:23:45 GMT-0500 (Eastern Standard Time),478140.5,A,queenenter,I,enter,406,1,1882.9000000953674,476257.59999990463,9035,WL,C,8.0
3,21.950000047683716,learn,38049.999952316284,Thu Dec 04 2025 16:23:45 GMT-0500 (Eastern Standard Time),478541.0,A,s,I,s,393,1,400.2000000476837,478140.7999999523,9035,WL,C,9.0
3,22.133000135421753,learn,37866.99986457825,Thu Dec 04 2025 16:23:45 GMT-0500 (Eastern Standard Time),478724.2999999523,A,su,I,u,166,1,583.5,478140.7999999523,9035,WL,C,9.0
3,22.317000150680542,learn,37682.99984931946,Thu Dec 04 2025 16:23:45 GMT-0500 (Eastern Standard Time),478907.89999985695,A,sug,I,g,158,1,767.0999999046326,478140.7999999523,9035,WL,C,9.0
3,22.48300004005432,learn,37516.99995994568,Thu Dec 04 2025 16:23:45 GMT-0500 (Eastern Standard Time),479073.7999999523,A,suga,I,a,147,1,933.0,478140.7999999523,9035,WL,C,9.0
3,22.716000080108643,learn,37283.99991989136,Thu Dec 04 2025 16:23:45 GMT-0500 (Eastern Standard Time),479307.2999999523,A,sugar,I,r,211,1,1166.5,478140.7999999523,9035,WL,C,9.0
3,23.383000135421753,learn,36616.99986457825,Thu Dec 04 2025 16:23:45 GMT-0500 (Eastern Standard Time),479974.19999980927,A,sugarenter,I,enter,647,1,1833.3999998569489,478140.7999999523,9035,WL,C,9.0
3,24.267000198364258,learn,35732.99980163574,Thu Dec 04 2025 16:23:45 GMT-0500 (Eastern Standard Time),480857.89999985695,A,h,I,h,864,1,883.5,479974.39999985695,9035,WL,C,10.0
3,24.40000009536743,learn,35599.99990463257,Thu Dec 04 2025 16:23:45 GMT-0500 (Eastern Standard Time),480991.19999980927,A,ho,I,o,120,1,1016.7999999523163,479974.39999985695,9035,WL,C,10.0
3,24.616000175476074,learn,35383.999824523926,Thu Dec 04 2025 16:23:45 GMT-0500 (Eastern Standard Time),481207.69999980927,A,hom,I,m,193,1,1233.2999999523163,479974.39999985695,9035,WL,C,10.0
3,24.73300004005432,learn,35266.99995994568,Thu Dec 04 2025 16:23:45 GMT-0500 (Eastern Standard Time),481324.59999990463,A,home,I,e,100,1,1350.2000000476837,479974.39999985695,9035,WL,C,10.0
3,24.98300004005432,learn,35016.99995994568,Thu Dec 04 2025 16:23:45 GMT-0500 (Eastern Standard Time),481574.09999990463,A,homeenter,I,enter,221,1,1599.7000000476837,479974.39999985695,9035,WL,C,10.0
3,25.300000190734863,learn,34699.99980926514,Thu Dec 04 2025 16:23:45 GMT-0500 (Eastern Standard Time),481891.09999990463,A,b,I,b,304,1,316.59999990463257,481574.5,9035,WL,C,11.0
3,25.433000087738037,learn,34566.99991226196,Thu Dec 04 2025 16:23:45 GMT-0500 (Eastern Standard Time),482024.5,A,bo,I,o,109,1,450.0,481574.5,9035,WL,C,11.0
3,25.73300004005432,learn,34266.99995994568,Thu Dec 04 2025 16:23:45 GMT-0500 (Eastern Standard Time),482324.5,A,boy,I,y,282,1,750.0,481574.5,9035,WL,C,11.0
3,26.033000230789185,learn,33966.999769210815,Thu Dec 04 2025 16:23:45 GMT-0500 (Eastern Standard Time),482624.09999990463,A,boyenter,I,enter,285,1,1049.5999999046326,481574.5,9035,WL,C,11.0
3,26.366000175476074,learn,33633.999824523926,Thu Dec 04 2025 16:23:45 GMT-0500 (Eastern Standard Time),482957.59999990463,A,d,I,d,325,1,333.09999990463257,482624.5,9035,WL,C,12.0
3,26.450000047683716,learn,33549.999952316284,Thu Dec 04 2025 16:23:45 GMT-0500 (Eastern Standard Time),483040.89999985695,A,do,I,o,69,1,416.39999985694885,482624.5,9035,WL,C,12.0
3,26.717000007629395,learn,33282.999992370605,Thu Dec 04 2025 16:23:45 GMT-0500 (Eastern Standard Time),483308.0,A,doc,I,c,242,1,683.5,482624.5,9035,WL,C,12.0
3,26.950000047683716,learn,33049.999952316284,Thu Dec 04 2025 16:23:45 GMT-0500 (Eastern Standard Time),483541.09999990463,A,doct,I,t,205,1,916.5999999046326,482624.5,9035,WL,C,12.0
3,27.06600022315979,learn,32933.99977684021,Thu Dec 04 2025 16:23:45 GMT-0500 (Eastern Standard Time),483657.7999999523,A,docto,I,o,94,1,1033.2999999523163,482624.5,9035,WL,C,12.0
3,27.183000087738037,learn,32816.99991226196,Thu Dec 04 2025 16:23:45 GMT-0500 (Eastern Standard Time),483774.5,A,doctor,I,r,96,1,1150.0,482624.5,9035,WL,C,12.0
3,27.91600012779236,learn,32083.99987220764,Thu Dec 04 2025 16:23:45 GMT-0500 (Eastern Standard Time),484507.2999999523,A,doctorenter,I,enter,699,1,1882.7999999523163,482624.5,9035,WL,C,12.0
3,28.41600012779236,learn,31583.99987220764,Thu Dec 04 2025 16:23:45 GMT-0500 (Eastern Standard Time),485007.69999980927,A,l,I,l,490,1,500.0,484507.69999980927,9035,WL,C,13.0
3,28.58300018310547,learn,31416.99981689453,Thu Dec 04 2025 16:23:45 GMT-0500 (Eastern Standard Time),485174.39999985695,A,le,I,e,146,1,666.7000000476837,484507.69999980927,9035,WL,C,13.0
3,28.766000032424927,learn,31233.999967575073,Thu Dec 04 2025 16:23:45 GMT-0500 (Eastern Standard Time),485357.59999990463,A,let,I,t,171,1,849.9000000953674,484507.69999980927,9035,WL,C,13.0
3,28.98300004005432,learn,31016.99995994568,Thu Dec 04 2025 16:23:45 GMT-0500 (Eastern Standard Time),485574.39999985695,A,lett,I,t,196,1,1066.7000000476837,484507.69999980927,9035,WL,C,13.0
3,29.550000190734863,learn,30449.999809265137,Thu Dec 04 2025 16:23:45 GMT-0500 (Eastern Standard Time),486141.0,A,lette,I,e,556,1,1633.3000001907349,484507.69999980927,9035,WL,C,13.0
3,29.75,learn,30250.0,Thu Dec 04 2025 16:23:45 GMT-0500 (Eastern Standard Time),486341.19999980927,A,letter,I,r,181,1,1833.5,484507.69999980927,9035,WL,C,13.0
3,30.48300004005432,learn,29516.99995994568,Thu Dec 04 2025 16:23:45 GMT-0500 (Eastern Standard Time),487074.0,A,letterenter,I,enter,716,1,2566.300000190735,484507.69999980927,9035,WL,C,13.0
3,30.90000009536743,learn,29099.99990463257,Thu Dec 04 2025 16:23:45 GMT-0500 (Eastern Standard Time),487491.39999985695,A,c,I,c,404,1,417.0,487074.39999985695,9035,WL,C,14.0
3,31.133000135421753,learn,28866.999864578247,Thu Dec 04 2025 16:23:45 GMT-0500 (Eastern Standard Time),487724.7999999523,A,ca,I,a,221,1,650.4000000953674,487074.39999985695,9035,WL,C,14.0
3,31.366000175476074,learn,28633.999824523926,Thu Dec 04 2025 16:23:45 GMT-0500 (Eastern Standard Time),487957.69999980927,A,cat,I,t,214,1,883.2999999523163,487074.39999985695,9035,WL,C,14.0
3,31.533000230789185,learn,28466.999769210815,Thu Dec 04 2025 16:23:45 GMT-0500 (Eastern Standard Time),488124.69999980927,A,catt,I,t,156,1,1050.2999999523163,487074.39999985695,9035,WL,C,14.0
3,31.633000135421753,learn,28366.999864578247,Thu Dec 04 2025 16:23:45 GMT-0500 (Eastern Standard Time),488224.59999990463,A,cattl,I,l,77,1,1150.2000000476837,487074.39999985695,9035,WL,C,14.0
3,31.73300004005432,learn,28266.99995994568,Thu Dec 04 2025 16:23:45 GMT-0500 (Eastern Standard Time),488324.39999985695,A,cattle,I,e,72,1,1250.0,487074.39999985695,9035,WL,C,14.0
3,32.16600012779236,learn,27833.99987220764,Thu Dec 04 2025 16:23:45 GMT-0500 (Eastern Standard Time),488757.39999985695,A,cattleenter,I,enter,414,1,1683.0,487074.39999985695,9035,WL,C,14.0
3,42.23300004005432,learn,17766.99995994568,Thu Dec 04 2025 16:23:45 GMT-0500 (Eastern Standard Time),498824.59999990463,A,f,I,f,10048,1,10066.900000095367,488757.69999980927,9035,WL,C,15.0
3,42.56600022315979,learn,17433.99977684021,Thu Dec 04 2025 16:23:45 GMT-0500 (Eastern Standard Time),499157.7999999523,A,fl,I,l,304,1,10400.100000143051,488757.69999980927,9035,WL,C,15.0
3,42.68300008773804,learn,17316.999912261963,Thu Dec 04 2025 16:23:45 GMT-0500 (Eastern Standard Time),499274.59999990463,A,fla,I,a,92,1,10516.900000095367,488757.69999980927,9035,WL,C,15.0
3,42.98300004005432,learn,17016.99995994568,Thu Dec 04 2025 16:23:45 GMT-0500 (Eastern Standard Time),499574.5,A,flag,I,g,279,1,10816.800000190735,488757.69999980927,9035,WL,C,15.0
3,44.283000230789185,learn,15716.999769210815,Thu Dec 04 2025 16:23:45 GMT-0500 (Eastern Standard Time),500874.09999990463,A,flagenter,I,enter,1276,1,12116.400000095367,488757.69999980927,9035,WL,C,15.0
4,1.750999927520752,learn,58249.00007247925,Thu Dec 04 2025 16:23:45 GMT-0500 (Eastern Standard Time),572457.899999857,A,t,I,t,1726,1,1749.5999999046326,570708.2999999523,9035,WL,C,1.0
4,1.934000015258789,learn,58065.99998474121,Thu Dec 04 2025 16:23:45 GMT-0500 (Eastern Standard Time),572641.0999999046,A,to,I,o,166,1,1932.7999999523163,570708.2999999523,9035,WL,C,1.0
4,2.116999864578247,learn,57883.00013542175,Thu Dec 04 2025 16:23:45 GMT-0500 (Eastern Standard Time),572824.399999857,A,tow,I,w,162,1,2116.0999999046326,570708.2999999523,9035,WL,C,1.0
4,2.3339998722076416,learn,57666.00012779236,Thu Dec 04 2025 16:23:45 GMT-0500 (Eastern Standard Time),573041.0999999046,A,towe,I,e,193,1,2332.7999999523163,570708.2999999523,9035,WL,C,1.0
4,2.616999864578247,learn,57383.00013542175,Thu Dec 04 2025 16:23:45 GMT-0500 (Eastern Standard Time),573324.5999999046,A,tower,I,r,273,1,2616.2999999523163,570708.2999999523,9035,WL,C,1.0
4,2.9509999752044678,learn,57049.00002479553,Thu Dec 04 2025 16:23:45 GMT-0500 (Eastern Standard Time),573658.0,A,towerenter,I,enter,310,1,2949.7000000476837,570708.2999999523,9035,WL,C,1.0
4,4.099999904632568,learn,55900.00009536743,Thu Dec 04 2025 16:23:45 GMT-0500 (Eastern Standard Time),574807.5999999046,A,w,I,w,1122,1,1149.2000000476837,573658.399999857,9035,WL,C,2.0
4,4.383999824523926,learn,55616.000175476074,Thu Dec 04 2025 16:23:45 GMT-0500 (Eastern Standard Time),575091.0999999046,A,wh,I,h,267,1,1432.7000000476837,573658.399999857,9035,WL,C,2.0
4,4.566999912261963,learn,55433.00008773804,Thu Dec 04 2025 16:23:45 GMT-0500 (Eastern Standard Time),575274.5,A,whe,I,e,159,1,1616.1000001430511,573658.399999857,9035,WL,C,2.0
4,4.766999959945679,learn,55233.00004005432,Thu Dec 04 2025 16:23:45 GMT-0500 (Eastern Standard Time),575474.5,A,whea,I,a,184,1,1816.1000001430511,573658.399999857,9035,WL,C,2.0
4,5.066999912261963,learn,54933.00008773804,Thu Dec 04 2025 16:23:45 GMT-0500 (Eastern Standard Time),575774.1999998093,A,wheat,I,t,286,1,2115.7999999523163,573658.399999857,9035,WL,C,2.0
4,5.549999952316284,learn,54450.000047683716,Thu Dec 04 2025 16:23:45 GMT-0500 (Eastern Standard Time),576257.1999998093,A,wheatenter,I,enter,465,1,2598.7999999523163,573658.399999857,9035,WL,C,2.0
4,6.333999872207642,learn,53666.00012779236,Thu Dec 04 2025 16:23:45 GMT-0500 (Eastern Standard Time),577041.0999999046,A,q,I,q,772,1,783.5999999046326,576257.5,9035,WL,C,3.0
4,6.483999967575073,learn,53516.00003242493,Thu Dec 04 2025 16:23:45 GMT-0500 (Eastern Standard Time),577191.0,A,qu,I,u,128,1,933.5,576257.5,9035,WL,C,3.0
4,6.700000047683716,learn,53299.999952316284,Thu Dec 04 2025 16:23:45 GMT-0500 (Eastern Standard Time),577407.6999998093,A,que,I,e,201,1,1150.1999998092651,576257.5,9035,WL,C,3.0
4,6.8999998569488525,learn,53100.00014305115,Thu Dec 04 2025 16:23:45 GMT-0500 (Eastern Standard Time),577607.6999998093,A,quee,I,e,179,1,1350.1999998092651,576257.5,9035,WL,C,3.0
4,7.133999824523926,learn,52866.000175476074,Thu Dec 04 2025 16:23:45 GMT-0500 (Eastern Standard Time),577841.0,A,queen,I,n,217,1,1583.5,576257.5,9035,WL,C,3.0
4,7.483000040054321,learn,52516.99995994568,Thu Dec 04 2025 16:23:45 GMT-0500 (Eastern Standard Time),578190.6999998093,A,queenenter,I,enter,338,1,1933.1999998092651,576257.5,9035,WL,C,3.0
4,7.934000015258789,learn,52065.99998474121,Thu Dec 04 2025 16:23:45 GMT-0500 (Eastern Standard Time),578641.0999999046,A,s,I,s,439,1,450.0,578191.0999999046,9035,WL,C,4.0
4,8.116999864578247,learn,51883.00013542175,Thu Dec 04 2025 16:23:45 GMT-0500 (Eastern Standard Time),578824.2999999523,A,su,I,u,163,1,633.2000000476837,578191.0999999046,9035,WL,C,4.0
4,8.299999952316284,learn,51700.000047683716,Thu Dec 04 2025 16:23:45 GMT-0500 (Eastern Standard Time),579007.5999999046,A,sug,I,g,170,1,816.5,578191.0999999046,9035,WL,C,4.0
4,8.5,learn,51500.0,Thu Dec 04 2025 16:23:45 GMT-0500 (Eastern Standard Time),579207.6999998093,A,suga,I,a,178,1,1016.5999999046326,578191.0999999046,9035,WL,C,4.0
4,8.717000007629395,learn,51282.999992370605,Thu Dec 04 2025 16:23:45 GMT-0500 (Eastern Standard Time),579424.399999857,A,sugar,I,r,203,1,1233.2999999523163,578191.0999999046,9035,WL,C,4.0
4,9.382999897003174,learn,50617.000102996826,Thu Dec 04 2025 16:23:45 GMT-0500 (Eastern Standard Time),580090.6999998093,A,sugarenter,I,enter,631,1,1899.5999999046326,578191.0999999046,9035,WL,C,4.0
4,10.283999919891357,learn,49716.00008010864,Thu Dec 04 2025 16:23:45 GMT-0500 (Eastern Standard Time),580991.0,A,h,I,h,891,1,900.0,580091.0,9035,WL,C,5.0
4,10.5,learn,49500.0,Thu Dec 04 2025 16:23:45 GMT-0500 (Eastern Standard Time),581207.5999999046,A,ho,I,o,196,1,1116.5999999046326,580091.0,9035,WL,C,5.0
4,10.733999967575073,learn,49266.00003242493,Thu Dec 04 2025 16:23:45 GMT-0500 (Eastern Standard Time),581441.0,A,hom,I,m,220,1,1350.0,580091.0,9035,WL,C,5.0
4,10.849999904632568,learn,49150.00009536743,Thu Dec 04 2025 16:23:45 GMT-0500 (Eastern Standard Time),581557.5999999046,A,home,I,e,95,1,1466.5999999046326,580091.0,9035,WL,C,5.0
4,11.099999904632568,learn,48900.00009536743,Thu Dec 04 2025 16:23:45 GMT-0500 (Eastern Standard Time),581807.2999999523,A,homeenter,I,enter,228,1,1716.2999999523163,580091.0,9035,WL,C,5.0
4,11.550999879837036,learn,48449.000120162964,Thu Dec 04 2025 16:23:45 GMT-0500 (Eastern Standard Time),582257.7999999523,A,b,I,b,439,1,450.2000000476837,581807.5999999046,9035,WL,C,6.0
4,11.733999967575073,learn,48266.00003242493,Thu Dec 04 2025 16:23:45 GMT-0500 (Eastern Standard Time),582441.0,A,bo,I,o,157,1,633.4000000953674,581807.5999999046,9035,WL,C,6.0
4,11.934000015258789,learn,48065.99998474121,Thu Dec 04 2025 16:23:45 GMT-0500 (Eastern Standard Time),582641.0,A,boy,I,y,177,1,833.4000000953674,581807.5999999046,9035,WL,C,6.0
4,12.25,learn,47750.0,Thu Dec 04 2025 16:23:45 GMT-0500 (Eastern Standard Time),582957.1999998093,A,boyenter,I,enter,302,1,1149.5999999046326,581807.5999999046,9035,WL,C,6.0
4,13.25,learn,46750.0,Thu Dec 04 2025 16:23:45 GMT-0500 (Eastern Standard Time),583957.5999999046,A,d,I,d,985,1,1000.0999999046326,582957.5,9035,WL,C,7.0
4,13.41700005531311,learn,46582.99994468689,Thu Dec 04 2025 16:23:45 GMT-0500 (Eastern Standard Time),584124.5,A,do,I,o,149,1,1167.0,582957.5,9035,WL,C,7.0
4,13.684000015258789,learn,46315.99998474121,Thu Dec 04 2025 16:23:45 GMT-0500 (Eastern Standard Time),584391.0999999046,A,doc,I,c,242,1,1433.5999999046326,582957.5,9035,WL,C,7.0
4,13.934000015258789,learn,46065.99998474121,Thu Dec 04 2025 16:23:45 GMT-0500 (Eastern Standard Time),584641.0999999046,A,doct,I,t,235,1,1683.5999999046326,582957.5,9035,WL,C,7.0
4,14.066999912261963,learn,45933.00008773804,Thu Dec 04 2025 16:23:45 GMT-0500 (Eastern Standard Time),584774.399999857,A,docto,I,o,114,1,1816.8999998569489,582957.5,9035,WL,C,7.0
4,14.200000047683716,learn,45799.999952316284,Thu Dec 04 2025 16:23:45 GMT-0500 (Eastern Standard Time),584907.5999999046,A,doctor,I,r,101,1,1950.0999999046326,582957.5,9035,WL,C,7.0
4,15.032999992370605,learn,44967.000007629395,Thu Dec 04 2025 16:23:45 GMT-0500 (Eastern Standard Time),585740.5,A,doctorenter,I,enter,813,1,2783.0,582957.5,9035,WL,C,7.0
4,15.700000047683716,learn,44299.999952316284,Thu Dec 04 2025 16:23:45 GMT-0500 (Eastern Standard Time),586407.6999998093,A,c,I,c,649,1,666.7999999523163,585740.899999857,9035,WL,C,8.0
4,15.983999967575073,learn,44016.00003242493,Thu Dec 04 2025 16:23:45 GMT-0500 (Eastern Standard Time),586691.0999999046,A,ca,I,a,266,1,950.2000000476837,585740.899999857,9035,WL,C,8.0
4,16.18400001525879,learn,43815.99998474121,Thu Dec 04 2025 16:23:45 GMT-0500 (Eastern Standard Time),586891.0,A,cam,I,m,168,1,1150.1000001430511,585740.899999857,9035,WL,C,8.0
4,16.91700005531311,learn,43082.99994468689,Thu Dec 04 2025 16:23:45 GMT-0500 (Eastern Standard Time),587624.399999857,A,camp,I,p,704,1,1883.5,585740.899999857,9035,WL,C,8.0
4,17.73300004005432,learn,42266.99995994568,Thu Dec 04 2025 16:23:45 GMT-0500 (Eastern Standard Time),588440.5,A,campenter,I,enter,790,1,2699.600000143051,585740.899999857,9035,WL,C,8.0
4,18.483999967575073,learn,41516.00003242493,Thu Dec 04 2025 16:23:45 GMT-0500 (Eastern Standard Time),589191.0999999046,A,f,I,f,733,1,750.2000000476837,588440.899999857,9035,WL,C,9.0
4,18.59999990463257,learn,41400.00009536743,Thu Dec 04 2025 16:23:45 GMT-0500 (Eastern Standard Time),589307.6999998093,A,fl,I,l,89,1,866.7999999523163,588440.899999857,9035,WL,C,9.0
4,19.116999864578247,learn,40883.00013542175,Thu Dec 04 2025 16:23:45 GMT-0500 (Eastern Standard Time),589824.5,A,fla,I,a,498,1,1383.6000001430511,588440.899999857,9035,WL,C,9.0
4,19.43499994277954,learn,40565.00005722046,Thu Dec 04 2025 16:23:45 GMT-0500 (Eastern Standard Time),590142.0999999046,A,flag,I,g,306,1,1701.2000000476837,588440.899999857,9035,WL,C,9.0
4,19.76699995994568,learn,40233.00004005432,Thu Dec 04 2025 16:23:45 GMT-0500 (Eastern Standard Time),590473.899999857,A,flagenter,I,enter,307,1,2033.0,588440.899999857,9035,WL,C,9.0
4,20.18400001525879,learn,39815.99998474121,Thu Dec 04 2025 16:23:45 GMT-0500 (Eastern Standard Time),590891.0,A,n,I,n,396,1,416.7000000476837,590474.2999999523,9035,WL,C,10.0
4,20.366999864578247,learn,39633.00013542175,Thu Dec 04 2025 16:23:45 GMT-0500 (Eastern Standard Time),591074.399999857,A,na,I,a,160,1,600.0999999046326,590474.2999999523,9035,WL,C,10.0
4,20.533999919891357,learn,39466.00008010864,Thu Dec 04 2025 16:23:45 GMT-0500 (Eastern Standard Time),591240.899999857,A,nai,I,i,143,1,766.5999999046326,590474.2999999523,9035,WL,C,10.0
4,20.75,learn,39250.0,Thu Dec 04 2025 16:23:45 GMT-0500 (Eastern Standard Time),591457.7999999523,A,nail,I,l,202,1,983.5,590474.2999999523,9035,WL,C,10.0
4,21.23300004005432,learn,38766.99995994568,Thu Dec 04 2025 16:23:45 GMT-0500 (Eastern Standard Time),591940.5,A,nailenter,I,enter,454,1,1466.2000000476837,590474.2999999523,9035,WL,C,10.0
4,21.59999990463257,learn,38400.00009536743,Thu Dec 04 2025 16:23:45 GMT-0500 (Eastern Standard Time),592307.5,A,c,I,c,353,1,366.60000014305115,591940.899999857,9035,WL,C,11.0
4,21.816999912261963,learn,38183.00008773804,Thu Dec 04 2025 16:23:45 GMT-0500 (Eastern Standard Time),592524.399999857,A,ca,I,a,206,1,583.5,591940.899999857,9035,WL,C,11.0
4,22.09999990463257,learn,37900.00009536743,Thu Dec 04 2025 16:23:45 GMT-0500 (Eastern Standard Time),592807.5999999046,A,cat,I,t,263,1,866.7000000476837,591940.899999857,9035,WL,C,11.0
4,22.299999952316284,learn,37700.000047683716,Thu Dec 04 2025 16:23:45 GMT-0500 (Eastern Standard Time),593007.5999999046,A,catt,I,t,187,1,1066.7000000476837,591940.899999857,9035,WL,C,11.0
4,22.717000007629395,learn,37282.999992370605,Thu Dec 04 2025 16:23:45 GMT-0500 (Eastern Standard Time),593424.5999999046,A,cattl,I,l,395,1,1483.7000000476837,591940.899999857,9035,WL,C,11.0
4,22.93400001525879,learn,37065.99998474121,Thu Dec 04 2025 16:23:45 GMT-0500 (Eastern Standard Time),593641.0999999046,A,cattle,I,e,194,1,1700.2000000476837,591940.899999857,9035,WL,C,11.0
4,23.700999975204468,learn,36299.00002479553,Thu Dec 04 2025 16:23:45 GMT-0500 (Eastern Standard Time),594408.0999999046,A,cattleenter,I,enter,743,1,2467.2000000476837,591940.899999857,9035,WL,C,11.0
4,24.217000007629395,learn,35782.999992370605,Thu Dec 04 2025 16:23:45 GMT-0500 (Eastern Standard Time),594924.6999998093,A,c,I,c,510,1,516.2999999523163,594408.399999857,9035,WL,C,12.0
4,24.366999864578247,learn,35633.00013542175,Thu Dec 04 2025 16:23:45 GMT-0500 (Eastern Standard Time),595074.399999857,A,co,I,o,133,1,666.0,594408.399999857,9035,WL,C,12.0
4,24.58399987220764,learn,35416.00012779236,Thu Dec 04 2025 16:23:45 GMT-0500 (Eastern Standard Time),595291.0999999046,A,cor,I,r,188,1,882.7000000476837,594408.399999857,9035,WL,C,12.0
4,24.799999952316284,learn,35200.000047683716,Thu Dec 04 2025 16:23:45 GMT-0500 (Eastern Standard Time),595507.5999999046,A,corn,I,n,199,1,1099.2000000476837,594408.399999857,9035,WL,C,12.0
4,25.217000007629395,learn,34782.999992370605,Thu Dec 04 2025 16:23:45 GMT-0500 (Eastern Standard Time),595924.0,A,cornenter,I,enter,398,1,1515.6000001430511,594408.399999857,9035,WL,C,12.0
4,25.59999990463257,learn,34400.00009536743,Thu Dec 04 2025 16:23:45 GMT-0500 (Eastern Standard Time),596307.5999999046,A,s,I,s,370,1,383.40000009536743,595924.1999998093,9035,WL,C,13.0
4,25.75,learn,34250.0,Thu Dec 04 2025 16:23:45 GMT-0500 (Eastern Standard Time),596457.6999998093,A,sh,I,h,126,1,533.5,595924.1999998093,9035,WL,C,13.0
4,25.866999864578247,learn,34133.00013542175,Thu Dec 04 2025 16:23:45 GMT-0500 (Eastern Standard Time),596574.399999857,A,sho,I,o,103,1,650.2000000476837,595924.1999998093,9035,WL,C,13.0
4,26.066999912261963,learn,33933.00008773804,Thu Dec 04 2025 16:23:45 GMT-0500 (Eastern Standard Time),596774.2999999523,A,shor,I,r,180,1,850.1000001430511,595924.1999998093,9035,WL,C,13.0
4,26.217000007629395,learn,33782.999992370605,Thu Dec 04 2025 16:23:45 GMT-0500 (Eastern Standard Time),596924.5,A,shore,I,e,136,1,1000.3000001907349,595924.1999998093,9035,WL,C,13.0
4,26.59999990463257,learn,33400.00009536743,Thu Dec 04 2025 16:23:45 GMT-0500 (Eastern Standard Time),597307.399999857,A,shoreenter,I,enter,365,1,1383.2000000476837,595924.1999998093,9035,WL,C,13.0
4,26.967000007629395,learn,33032.999992370605,Thu Dec 04 2025 16:23:45 GMT-0500 (Eastern Standard Time),597674.399999857,A,b,I,b,345,1,366.7999999523163,597307.5999999046,9035,WL,C,14.0
4,27.09999990463257,learn,32900.00009536743,Thu Dec 04 2025 16:23:45 GMT-0500 (Eastern Standard Time),597807.6999998093,A,bo,I,o,120,1,500.09999990463257,597307.5999999046,9035,WL,C,14.0
4,27.33399987220764,learn,32666.00012779236,Thu Dec 04 2025 16:23:45 GMT-0500 (Eastern Standard Time),598041.0,A,bod,I,d,211,1,733.4000000953674,597307.5999999046,9035,WL,C,14.0
4,27.83299994468689,learn,32167.00005531311,Thu Dec 04 2025 16:23:45 GMT-0500 (Eastern Standard Time),598540.6999998093,A,body,I,y,487,1,1233.0999999046326,597307.5999999046,9035,WL,C,14.0
4,29.382999897003174,learn,30617.000102996826,Thu Dec 04 2025 16:23:45 GMT-0500 (Eastern Standard Time),600090.6999998093,A,bodyenter,I,enter,1525,1,2783.0999999046326,597307.5999999046,9035,WL,C,14.0
4,32.0,learn,28000.0,Thu Dec 04 2025 16:23:45 GMT-0500 (Eastern Standard Time),602707.5999999046,A,n,I,n,2602,1,2616.5,600091.0999999046,9035,WL,C,15.0
4,32.58399987220764,learn,27416.00012779236,Thu Dec 04 2025 16:23:45 GMT-0500 (Eastern Standard Time),603291.0,A,na,I,a,561,1,3199.9000000953674,600091.0999999046,9035,WL,C,15.0
4,32.73399996757507,learn,27266.000032424927,Thu Dec 04 2025 16:23:45 GMT-0500 (Eastern Standard Time),603441.0,A,nai,I,i,135,1,3349.9000000953674,600091.0999999046,9035,WL,C,15.0
4,32.98399996757507,learn,27016.000032424927,Thu Dec 04 2025 16:23:45 GMT-0500 (Eastern Standard Time),603691.0,A,nail,I,l,217,1,3599.9000000953674,600091.0999999046,9035,WL,C,15.0
4,33.950000047683716,learn,26049.999952316284,Thu Dec 04 2025 16:23:45 GMT-0500 (Eastern Standard Time),604657.1999998093,A,nailenter,I,enter,951,1,4566.099999904633,600091.0999999046,9035,WL,C,15.0
5,1.066999912261963,learn,60000.0,Thu Dec 04 2025 16:23:45 GMT-0500 (Eastern Standard Time),674991.399999857,A,t,I,t,1056,1,1066.5,673924.899999857,9035,WL,C,1.0
5,1.3999998569488525,learn,60000.0,Thu Dec 04 2025 16:23:45 GMT-0500 (Eastern Standard Time),675324.5,A,to,I,o,323,1,1399.6000001430511,673924.899999857,9035,WL,C,1.0
5,1.5829999446868896,learn,60000.0,Thu Dec 04 2025 16:23:45 GMT-0500 (Eastern Standard Time),675507.5,A,tow,I,w,167,1,1582.6000001430511,673924.899999857,9035,WL,C,1.0
5,1.8499999046325684,learn,60000.0,Thu Dec 04 2025 16:23:45 GMT-0500 (Eastern Standard Time),675773.899999857,A,towe,I,e,254,1,1849.0,673924.899999857,9035,WL,C,1.0
5,2.0160000324249268,learn,60000.0,Thu Dec 04 2025 16:23:45 GMT-0500 (Eastern Standard Time),675940.7999999523,A,tower,I,r,151,1,2015.9000000953674,673924.899999857,9035,WL,C,1.0
5,2.549999952316284,learn,60000.0,Thu Dec 04 2025 16:23:45 GMT-0500 (Eastern Standard Time),676473.899999857,A,towerenter,I,enter,500,1,2549.0,673924.899999857,9035,WL,C,1.0
5,2.9659998416900635,learn,60000.0,Thu Dec 04 2025 16:23:45 GMT-0500 (Eastern Standard Time),676890.7999999523,A,w,I,w,398,1,416.60000014305115,676474.1999998093,9035,WL,C,2.0
5,3.182999849319458,learn,60000.0,Thu Dec 04 2025 16:23:45 GMT-0500 (Eastern Standard Time),677107.5,A,wh,I,h,200,1,633.3000001907349,676474.1999998093,9035,WL,C,2.0
5,3.3329999446868896,learn,60000.0,Thu Dec 04 2025 16:23:45 GMT-0500 (Eastern Standard Time),677257.5,A,whe,I,e,127,1,783.3000001907349,676474.1999998093,9035,WL,C,2.0
5,3.4670000076293945,learn,60000.0,Thu Dec 04 2025 16:23:45 GMT-0500 (Eastern Standard Time),677390.899999857,A,whea,I,a,113,1,916.7000000476837,676474.1999998093,9035,WL,C,2.0
5,3.7330000400543213,learn,60000.0,Thu Dec 04 2025 16:23:45 GMT-0500 (Eastern Standard Time),677657.5999999046,A,wheat,I,t,234,1,1183.4000000953674,676474.1999998093,9035,WL,C,2.0
5,3.9830000400543213,learn,60000.0,Thu Dec 04 2025 16:23:45 GMT-0500 (Eastern Standard Time),677907.1999998093,A,wheatenter,I,enter,233,1,1433.0,676474.1999998093,9035,WL,C,2.0
5,4.950000047683716,learn,60000.0,Thu Dec 04 2025 16:23:45 GMT-0500 (Eastern Standard Time),678873.7999999523,A,q,I,q,945,1,966.1000001430511,677907.6999998093,9035,WL,C,3.0
5,5.08299994468689,learn,60000.0,Thu Dec 04 2025 16:23:45 GMT-0500 (Eastern Standard Time),679007.5999999046,A,qu,I,u,124,1,1099.9000000953674,677907.6999998093,9035,WL,C,3.0
5,5.299999952316284,learn,60000.0,Thu Dec 04 2025 16:23:45 GMT-0500 (Eastern Standard Time),679224.0999999046,A,que,I,e,187,1,1316.4000000953674,677907.6999998093,9035,WL,C,3.0
5,5.4670000076293945,learn,60000.0,Thu Dec 04 2025 16:23:45 GMT-0500 (Eastern Standard Time),679391.0,A,quee,I,e,155,1,1483.3000001907349,677907.6999998093,9035,WL,C,3.0
5,5.75,learn,60000.0,Thu Dec 04 2025 16:23:45 GMT-0500 (Eastern Standard Time),679674.399999857,A,queen,I,n,250,1,1766.7000000476837,677907.6999998093,9035,WL,C,3.0
5,6.099999904632568,learn,60000.0,Thu Dec 04 2025 16:23:45 GMT-0500 (Eastern Standard Time),680023.7999999523,A,queenenter,I,enter,325,1,2116.100000143051,677907.6999998093,9035,WL,C,3.0
5,6.4670000076293945,learn,60000.0,Thu Dec 04 2025 16:23:45 GMT-0500 (Eastern Standard Time),680391.0,A,s,I,s,350,1,366.90000009536743,680024.0999999046,9035,WL,C,4.0
5,6.700000047683716,learn,60000.0,Thu Dec 04 2025 16:23:45 GMT-0500 (Eastern Standard Time),680624.2999999523,A,su,I,u,217,1,600.2000000476837,680024.0999999046,9035,WL,C,4.0
5,6.882999897003174,learn,60000.0,Thu Dec 04 2025 16:23:45 GMT-0500 (Eastern Standard Time),680807.5,A,sug,I,g,161,1,783.4000000953674,680024.0999999046,9035,WL,C,4.0
5,7.0329999923706055,learn,60000.0,Thu Dec 04 2025 16:23:45 GMT-0500 (Eastern Standard Time),680957.6999998093,A,suga,I,a,131,1,933.5999999046326,680024.0999999046,9035,WL,C,4.0
5,7.266999959945679,learn,60000.0,Thu Dec 04 2025 16:23:45 GMT-0500 (Eastern Standard Time),681191.0,A,sugar,I,r,205,1,1166.9000000953674,680024.0999999046,9035,WL,C,4.0
5,7.565999984741211,learn,60000.0,Thu Dec 04 2025 16:23:45 GMT-0500 (Eastern Standard Time),681490.399999857,A,sugarenter,I,enter,284,1,1466.2999999523163,680024.0999999046,9035,WL,C,4.0
5,9.016000032424927,learn,60000.0,Thu Dec 04 2025 16:23:45 GMT-0500 (Eastern Standard Time),682940.6999998093,A,h,I,h,1443,1,1450.0,681490.6999998093,9035,WL,C,5.0
5,9.200000047683716,learn,60000.0,Thu Dec 04 2025 16:23:45 GMT-0500 (Eastern Standard Time),683124.1999998093,A,ho,I,o,167,1,1633.5,681490.6999998093,9035,WL,C,5.0
5,9.41599988937378,learn,60000.0,Thu Dec 04 2025 16:23:45 GMT-0500 (Eastern Standard Time),683340.6999998093,A,hom,I,m,207,1,1850.0,681490.6999998093,9035,WL,C,5.0
5,9.58299994468689,learn,60000.0,Thu Dec 04 2025 16:23:45 GMT-0500 (Eastern Standard Time),683507.2999999523,A,home,I,e,148,1,2016.6000001430511,681490.6999998093,9035,WL,C,5.0
5,9.815999984741211,learn,60000.0,Thu Dec 04 2025 16:23:45 GMT-0500 (Eastern Standard Time),683740.399999857,A,homeenter,I,enter,222,1,2249.7000000476837,681490.6999998093,9035,WL,C,5.0
5,10.149999856948853,learn,60000.0,Thu Dec 04 2025 16:23:45 GMT-0500 (Eastern Standard Time),684074.2999999523,A,b,I,b,313,1,333.60000014305115,683740.6999998093,9035,WL,C,6.0
5,10.25,learn,60000.0,Thu Dec 04 2025 16:23:45 GMT-0500 (Eastern Standard Time),684174.1999998093,A,bo,I,o,89,1,433.5,683740.6999998093,9035,WL,C,6.0
5,10.566999912261963,learn,60000.0,Thu Dec 04 2025 16:23:45 GMT-0500 (Eastern Standard Time),684490.899999857,A,boy,I,y,290,1,750.2000000476837,683740.6999998093,9035,WL,C,6.0
5,10.899999856948853,learn,60000.0,Thu Dec 04 2025 16:23:45 GMT-0500 (Eastern Standard Time),684823.7999999523,A,boyenter,I,enter,308,1,1083.1000001430511,683740.6999998093,9035,WL,C,6.0
5,11.316999912261963,learn,60000.0,Thu Dec 04 2025 16:23:45 GMT-0500 (Eastern Standard Time),685240.899999857,A,d,I,d,398,1,416.7000000476837,684824.1999998093,9035,WL,C,7.0
5,11.483000040054321,learn,60000.0,Thu Dec 04 2025 16:23:45 GMT-0500 (Eastern Standard Time),685407.5999999046,A,do,I,o,154,1,583.4000000953674,684824.1999998093,9035,WL,C,7.0
5,11.682999849319458,learn,60000.0,Thu Dec 04 2025 16:23:45 GMT-0500 (Eastern Standard Time),685607.5,A,doc,I,c,170,1,783.3000001907349,684824.1999998093,9035,WL,C,7.0
5,12.049999952316284,learn,60000.0,Thu Dec 04 2025 16:23:45 GMT-0500 (Eastern Standard Time),685974.5,A,doct,I,t,347,1,1150.3000001907349,684824.1999998093,9035,WL,C,7.0
5,12.416999816894531,learn,60000.0,Thu Dec 04 2025 16:23:45 GMT-0500 (Eastern Standard Time),686341.0,A,docto,I,o,348,1,1516.8000001907349,684824.1999998093,9035,WL,C,7.0
5,12.583999872207642,learn,60000.0,Thu Dec 04 2025 16:23:45 GMT-0500 (Eastern Standard Time),686508.5999999046,A,doctor,I,r,139,1,1684.4000000953674,684824.1999998093,9035,WL,C,7.0
5,12.899999856948853,learn,60000.0,Thu Dec 04 2025 16:23:45 GMT-0500 (Eastern Standard Time),686823.7999999523,A,doctorenter,I,enter,291,1,1999.6000001430511,684824.1999998093,9035,WL,C,7.0
5,13.233000040054321,learn,60000.0,Thu Dec 04 2025 16:23:45 GMT-0500 (Eastern Standard Time),687157.5,A,c,I,c,318,1,333.30000019073486,686824.1999998093,9035,WL,C,8.0
5,13.450000047683716,learn,60000.0,Thu Dec 04 2025 16:23:45 GMT-0500 (Eastern Standard Time),687374.1999998093,A,cm,I,m,205,1,550.0,686824.1999998093,9035,WL,C,8.0
5,13.632999897003174,learn,60000.0,Thu Dec 04 2025 16:23:45 GMT-0500 (Eastern Standard Time),687557.5999999046,A,cma,I,a,164,1,733.4000000953674,686824.1999998093,9035,WL,C,8.0
5,14.932999849319458,learn,60000.0,Thu Dec 04 2025 16:23:45 GMT-0500 (Eastern Standard Time),688857.5999999046,A,cm,I,backspace,1277,1,2033.4000000953674,686824.1999998093,9035,WL,C,8.0
5,15.149999856948853,learn,60000.0,Thu Dec 04 2025 16:23:45 GMT-0500 (Eastern Standard Time),689074.399999857,A,c,I,backspace,199,1,2250.2000000476837,686824.1999998093,9035,WL,C,8.0
5,15.899999856948853,learn,60000.0,Thu Dec 04 2025 16:23:45 GMT-0500 (Eastern Standard Time),689824.399999857,A,ca,I,a,727,1,3000.2000000476837,686824.1999998093,9035,WL,C,8.0
5,16.299999952316284,learn,60000.0,Thu Dec 04 2025 16:23:45 GMT-0500 (Eastern Standard Time),690224.399999857,A,cam,I,m,386,1,3400.2000000476837,686824.1999998093,9035,WL,C,8.0
5,16.682999849319458,learn,60000.0,Thu Dec 04 2025 16:23:45 GMT-0500 (Eastern Standard Time),690607.5999999046,A,camp,I,p,370,1,3783.4000000953674,686824.1999998093,9035,WL,C,8.0
5,17.41599988937378,learn,60000.0,Thu Dec 04 2025 16:23:45 GMT-0500 (Eastern Standard Time),691340.5,A,campenter,I,enter,720,1,4516.300000190735,686824.1999998093,9035,WL,C,8.0
5,18.066999912261963,learn,60000.0,Thu Dec 04 2025 16:23:45 GMT-0500 (Eastern Standard Time),691990.899999857,A,n,I,n,633,1,650.0,691340.899999857,9035,WL,C,9.0
5,18.23300004005432,learn,60000.0,Thu Dec 04 2025 16:23:45 GMT-0500 (Eastern Standard Time),692157.399999857,A,na,I,a,155,1,816.5,691340.899999857,9035,WL,C,9.0
5,18.399999856948853,learn,60000.0,Thu Dec 04 2025 16:23:45 GMT-0500 (Eastern Standard Time),692323.7999999523,A,nai,I,i,148,1,982.9000000953674,691340.899999857,9035,WL,C,9.0
5,18.76699995994568,learn,60000.0,Thu Dec 04 2025 16:23:45 GMT-0500 (Eastern Standard Time),692690.899999857,A,nail,I,l,354,1,1350.0,691340.899999857,9035,WL,C,9.0
5,19.299999952316284,learn,60000.0,Thu Dec 04 2025 16:23:45 GMT-0500 (Eastern Standard Time),693223.899999857,A,nailenter,I,enter,509,1,1883.0,691340.899999857,9035,WL,C,9.0
5,19.84999990463257,learn,60000.0,Thu Dec 04 2025 16:23:45 GMT-0500 (Eastern Standard Time),693773.899999857,A,f,I,f,541,1,549.7000000476837,693224.1999998093,9035,WL,C,10.0
5,19.98300004005432,learn,60000.0,Thu Dec 04 2025 16:23:45 GMT-0500 (Eastern Standard Time),693907.5,A,fl,I,l,114,1,683.3000001907349,693224.1999998093,9035,WL,C,10.0
5,20.616999864578247,learn,60000.0,Thu Dec 04 2025 16:23:45 GMT-0500 (Eastern Standard Time),694540.7999999523,A,fla,I,a,606,1,1316.6000001430511,693224.1999998093,9035,WL,C,10.0
5,20.882999897003174,learn,60000.0,Thu Dec 04 2025 16:23:45 GMT-0500 (Eastern Standard Time),694807.399999857,A,flag,I,g,245,1,1583.2000000476837,693224.1999998093,9035,WL,C,10.0
5,21.5,learn,60000.0,Thu Dec 04 2025 16:23:45 GMT-0500 (Eastern Standard Time),695423.899999857,A,flagenter,I,enter,602,1,2199.7000000476837,693224.1999998093,9035,WL,C,10.0
5,21.799999952316284,learn,60000.0,Thu Dec 04 2025 16:23:45 GMT-0500 (Eastern Standard Time),695724.399999857,A,s,I,s,278,1,300.09999990463257,695424.2999999523,9035,WL,C,11.0
5,21.932999849319458,learn,60000.0,Thu Dec 04 2025 16:23:45 GMT-0500 (Eastern Standard Time),695857.399999857,A,sh,I,h,117,1,433.09999990463257,695424.2999999523,9035,WL,C,11.0
5,22.132999897003174,learn,60000.0,Thu Dec 04 2025 16:23:45 GMT-0500 (Eastern Standard Time),696057.399999857,A,sho,I,o,176,1,633.0999999046326,695424.2999999523,9035,WL,C,11.0
5,22.25,learn,60000.0,Thu Dec 04 2025 16:23:45 GMT-0500 (Eastern Standard Time),696174.2999999523,A,shor,I,r,98,1,750.0,695424.2999999523,9035,WL,C,11.0
5,22.467000007629395,learn,60000.0,Thu Dec 04 2025 16:23:45 GMT-0500 (Eastern Standard Time),696391.0,A,shore,I,e,188,1,966.7000000476837,695424.2999999523,9035,WL,C,11.0
5,23.049999952316284,learn,60000.0,Thu Dec 04 2025 16:23:45 GMT-0500 (Eastern Standard Time),696973.899999857,A,shoreenter,I,enter,570,1,1549.5999999046326,695424.2999999523,9035,WL,C,11.0
5,23.967000007629395,learn,60000.0,Thu Dec 04 2025 16:23:45 GMT-0500 (Eastern Standard Time),697890.899999857,A,c,I,c,904,1,916.7000000476837,696974.1999998093,9035,WL,C,12.0
5,24.200000047683716,learn,60000.0,Thu Dec 04 2025 16:23:45 GMT-0500 (Eastern Standard Time),698124.5,A,ca,I,a,222,1,1150.3000001907349,696974.1999998093,9035,WL,C,12.0
5,24.48300004005432,learn,60000.0,Thu Dec 04 2025 16:23:45 GMT-0500 (Eastern Standard Time),698407.5,A,cat,I,t,252,1,1433.3000001907349,696974.1999998093,9035,WL,C,12.0
5,24.682999849319458,learn,60000.0,Thu Dec 04 2025 16:23:45 GMT-0500 (Eastern Standard Time),698607.5,A,catt,I,t,187,1,1633.3000001907349,696974.1999998093,9035,WL,C,12.0
5,24.75,learn,60000.0,Thu Dec 04 2025 16:23:45 GMT-0500 (Eastern Standard Time),698674.0,A,cattl,I,l,50,1,1699.8000001907349,696974.1999998093,9035,WL,C,12.0
5,25.06599998474121,learn,60000.0,Thu Dec 04 2025 16:23:45 GMT-0500 (Eastern Standard Time),698990.5999999046,A,cattle,I,e,304,1,2016.4000000953674,696974.1999998093,9035,WL,C,12.0
5,25.848999977111816,learn,60000.0,Thu Dec 04 2025 16:23:45 GMT-0500 (Eastern Standard Time),699773.5999999046,A,cattleenter,I,enter,774,1,2799.4000000953674,696974.1999998093,9035,WL,C,12.0
5,26.566999912261963,learn,60000.0,Thu Dec 04 2025 16:23:45 GMT-0500 (Eastern Standard Time),700491.0,A,n,I,n,695,1,717.0,699774.0,9035,WL,C,13.0
5,26.700000047683716,learn,60000.0,Thu Dec 04 2025 16:23:45 GMT-0500 (Eastern Standard Time),700624.1999998093,A,na,I,a,121,1,850.1999998092651,699774.0,9035,WL,C,13.0
5,26.899999856948853,learn,60000.0,Thu Dec 04 2025 16:23:45 GMT-0500 (Eastern Standard Time),700824.5999999046,A,nai,I,i,179,1,1050.5999999046326,699774.0,9035,WL,C,13.0
5,27.182999849319458,learn,60000.0,Thu Dec 04 2025 16:23:45 GMT-0500 (Eastern Standard Time),701107.5,A,nail,I,l,267,1,1333.5,699774.0,9035,WL,C,13.0
5,28.382999897003174,learn,60000.0,Thu Dec 04 2025 16:23:45 GMT-0500 (Eastern Standard Time),702307.1999998093,A,nailenter,I,enter,1182,1,2533.199999809265,699774.0,9035,WL,C,13.0
5,31.132999897003174,learn,60000.0,Thu Dec 04 2025 16:23:45 GMT-0500 (Eastern Standard Time),705057.399999857,A,l,I,l,2739,1,2749.899999856949,702307.5,9035,WL,C,14.0
5,31.41599988937378,learn,60000.0,Thu Dec 04 2025 16:23:45 GMT-0500 (Eastern Standard Time),705340.5999999046,A,le,I,e,265,1,3033.0999999046326,702307.5,9035,WL,C,14.0
5,31.682999849319458,learn,60000.0,Thu Dec 04 2025 16:23:45 GMT-0500 (Eastern Standard Time),705607.5,A,let,I,t,243,1,3300.0,702307.5,9035,WL,C,14.0
5,31.848999977111816,learn,60000.0,Thu Dec 04 2025 16:23:45 GMT-0500 (Eastern Standard Time),705773.7999999523,A,lett,I,t,154,1,3466.2999999523163,702307.5,9035,WL,C,14.0
5,32.01699995994568,learn,60000.0,Thu Dec 04 2025 16:23:45 GMT-0500 (Eastern Standard Time),705941.0,A,lette,I,e,151,1,3633.5,702307.5,9035,WL,C,14.0
5,32.08299994468689,learn,60000.0,Thu Dec 04 2025 16:23:45 GMT-0500 (Eastern Standard Time),706007.1999998093,A,letter,I,r,45,1,3699.699999809265,702307.5,9035,WL,C,14.0
5,32.450000047683716,learn,60000.0,Thu Dec 04 2025 16:23:45 GMT-0500 (Eastern Standard Time),706373.7999999523,A,letterenter,I,enter,349,1,4066.2999999523163,702307.5,9035,WL,C,14.0
5,33.93299984931946,learn,60000.0,Thu Dec 04 2025 16:23:45 GMT-0500 (Eastern Standard Time),707857.5999999046,A,b,I,b,1470,1,1483.5,706374.0999999046,9035,WL,C,15.0
5,34.200000047683716,learn,60000.0,Thu Dec 04 2025 16:23:45 GMT-0500 (Eastern Standard Time),708124.5,A,bo,I,o,257,1,1750.4000000953674,706374.0999999046,9035,WL,C,15.0
5,34.36699986457825,learn,60000.0,Thu Dec 04 2025 16:23:45 GMT-0500 (Eastern Standard Time),708291.0,A,bod,I,d,146,1,1916.9000000953674,706374.0999999046,9035,WL,C,15.0
5,34.632999897003174,learn,60000.0,Thu Dec 04 2025 16:23:45 GMT-0500 (Eastern Standard Time),708557.399999857,A,body,I,y,255,1,2183.2999999523163,706374.0999999046,9035,WL,C,15.0
5,34.96599984169006,learn,60000.0,Thu Dec 04 2025 16:23:45 GMT-0500 (Eastern Standard Time),708890.2999999523,A,bodyenter,I,enter,308,1,2516.2000000476837,706374.0999999046,9035,WL,C,15.0
6,0.5829999446868896,distr,59417.00005531311,Thu Dec 04 2025 16:23:45 GMT-0500 (Eastern Standard Time),789224.399999857,B,h,I,h,562,1,583.0,788641.399999857,9035,WL,C,1.0
6,0.7660000324249268,distr,59233.99996757507,Thu Dec 04 2025 16:23:45 GMT-0500 (Eastern Standard Time),789407.399999857,B,ho,I,o,169,1,766.0,788641.399999857,9035,WL,C,1.0
6,1.0329999923706055,distr,58967.000007629395,Thu Dec 04 2025 16:23:45 GMT-0500 (Eastern Standard Time),789674.1999998093,B,hot,I,t,234,1,1032.7999999523163,788641.399999857,9035,WL,C,1.0
6,1.248999834060669,distr,58751.00016593933,Thu Dec 04 2025 16:23:45 GMT-0500 (Eastern Standard Time),789890.7999999523,B,hote,I,e,202,1,1249.4000000953674,788641.399999857,9035,WL,C,1.0
6,1.3999998569488525,distr,58600.00014305115,Thu Dec 04 2025 16:23:45 GMT-0500 (Eastern Standard Time),790040.7999999523,B,hotel,I,l,120,1,1399.4000000953674,788641.399999857,9035,WL,C,1.0
6,2.1489999294281006,distr,57851.0000705719,Thu Dec 04 2025 16:23:45 GMT-0500 (Eastern Standard Time),790790.399999857,B,hotelenter,I,enter,729,1,2149.0,788641.399999857,9035,WL,C,1.0
6,2.748999834060669,distr,57251.00016593933,Thu Dec 04 2025 16:23:45 GMT-0500 (Eastern Standard Time),791390.1999998093,B,m,I,m,589,1,599.3999998569489,790790.7999999523,9035,WL,C,2.0
6,2.9659998416900635,distr,57034.00015830994,Thu Dec 04 2025 16:23:45 GMT-0500 (Eastern Standard Time),791607.0999999046,B,mo,I,o,198,1,816.2999999523163,790790.7999999523,9035,WL,C,2.0
6,3.2159998416900635,distr,56784.00015830994,Thu Dec 04 2025 16:23:45 GMT-0500 (Eastern Standard Time),791856.899999857,B,mon,I,n,238,1,1066.0999999046326,790790.7999999523,9035,WL,C,2.0
6,3.5329999923706055,distr,56467.000007629395,Thu Dec 04 2025 16:23:45 GMT-0500 (Eastern Standard Time),792174.0999999046,B,mone,I,e,308,1,1383.2999999523163,790790.7999999523,9035,WL,C,2.0
6,3.6999998092651367,distr,56300.00019073486,Thu Dec 04 2025 16:23:45 GMT-0500 (Eastern Standard Time),792340.899999857,B,money,I,y,140,1,1550.0999999046326,790790.7999999523,9035,WL,C,2.0
6,4.082000017166138,distr,55917.99998283386,Thu Dec 04 2025 16:23:45 GMT-0500 (Eastern Standard Time),792723.7999999523,B,moneyenter,I,enter,357,1,1933.0,790790.7999999523,9035,WL,C,2.0
6,4.7159998416900635,distr,55284.00015830994,Thu Dec 04 2025 16:23:45 GMT-0500 (Eastern Standard Time),793357.1999998093,B,m,I,m,626,1,633.0999999046326,792724.0999999046,9035,WL,C,3.0
6,4.898999929428101,distr,55101.0000705719,Thu Dec 04 2025 16:23:45 GMT-0500 (Eastern Standard Time),793540.7999999523,B,mo,I,o,165,1,816.7000000476837,792724.0999999046,9035,WL,C,3.0
6,5.065999984741211,distr,54934.00001525879,Thu Dec 04 2025 16:23:45 GMT-0500 (Eastern Standard Time),793707.2999999523,B,mot,I,t,135,1,983.2000000476837,792724.0999999046,9035,WL,C,3.0
6,5.182999849319458,distr,54817.00015068054,Thu Dec 04 2025 16:23:45 GMT-0500 (Eastern Standard Time),793824.0999999046,B,moth,I,h,103,1,1100.0,792724.0999999046,9035,WL,C,3.0
6,5.33299994468689,distr,54667.00005531311,Thu Dec 04 2025 16:23:45 GMT-0500 (Eastern Standard Time),793973.899999857,B,mothe,I,e,131,1,1249.7999999523163,792724.0999999046,9035,WL,C,3.0
6,6.266000032424927,distr,53733.99996757507,Thu Dec 04 2025 16:23:45 GMT-0500 (Eastern Standard Time),794907.2999999523,B,mother,I,r,900,1,2183.2000000476837,792724.0999999046,9035,WL,C,3.0
6,6.7170000076293945,distr,53282.999992370605,Thu Dec 04 2025 16:23:45 GMT-0500 (Eastern Standard Time),795358.6999998093,B,motherenter,I,enter,437,1,2634.5999999046326,792724.0999999046,9035,WL,C,3.0
6,7.2829999923706055,distr,52717.000007629395,Thu Dec 04 2025 16:23:45 GMT-0500 (Eastern Standard Time),795924.0,B,s,I,s,551,1,565.0,795359.0,9035,WL,C,4.0
6,7.448999881744385,distr,52551.000118255615,Thu Dec 04 2025 16:23:45 GMT-0500 (Eastern Standard Time),796090.7999999523,B,sk,I,k,142,1,731.7999999523163,795359.0,9035,WL,C,4.0
6,7.766000032424927,distr,52233.99996757507,Thu Dec 04 2025 16:23:45 GMT-0500 (Eastern Standard Time),796407.399999857,B,sky,I,y,287,1,1048.3999998569489,795359.0,9035,WL,C,4.0
6,8.082000017166138,distr,51917.99998283386,Thu Dec 04 2025 16:23:45 GMT-0500 (Eastern Standard Time),796723.6999998093,B,skyenter,I,enter,297,1,1364.6999998092651,795359.0,9035,WL,C,4.0
6,9.182999849319458,distr,50817.00015068054,Thu Dec 04 2025 16:23:45 GMT-0500 (Eastern Standard Time),797824.1999998093,B,c,I,c,1090,1,1100.0,796724.1999998093,9035,WL,C,5.0
6,9.299000024795532,distr,50700.99997520447,Thu Dec 04 2025 16:23:45 GMT-0500 (Eastern Standard Time),797940.6999998093,B,ch,I,h,98,1,1216.5,796724.1999998093,9035,WL,C,5.0
6,9.516000032424927,distr,50483.99996757507,Thu Dec 04 2025 16:23:45 GMT-0500 (Eastern Standard Time),798157.2999999523,B,chr,I,r,206,1,1433.1000001430511,796724.1999998093,9035,WL,C,5.0
6,9.649999856948853,distr,50350.00014305115,Thu Dec 04 2025 16:23:45 GMT-0500 (Eastern Standard Time),798290.899999857,B,chri,I,i,117,1,1566.7000000476837,796724.1999998093,9035,WL,C,5.0
6,9.782999992370605,distr,50217.000007629395,Thu Dec 04 2025 16:23:45 GMT-0500 (Eastern Standard Time),798424.0999999046,B,chris,I,s,113,1,1699.9000000953674,796724.1999998093,9035,WL,C,5.0
6,10.182999849319458,distr,49817.00015068054,Thu Dec 04 2025 16:23:45 GMT-0500 (Eastern Standard Time),798824.1999998093,B,christ,I,t,376,1,2100.0,796724.1999998093,9035,WL,C,5.0
6,10.41599988937378,distr,49584.00011062622,Thu Dec 04 2025 16:23:45 GMT-0500 (Eastern Standard Time),799057.5999999046,B,christm,I,m,217,1,2333.4000000953674,796724.1999998093,9035,WL,C,5.0
6,10.549999952316284,distr,49450.000047683716,Thu Dec 04 2025 16:23:45 GMT-0500 (Eastern Standard Time),799190.899999857,B,christma,I,a,112,1,2466.7000000476837,796724.1999998093,9035,WL,C,5.0
6,11.049000024795532,distr,48950.99997520447,Thu Dec 04 2025 16:23:45 GMT-0500 (Eastern Standard Time),799690.2999999523,B,christmaenter,I,enter,474,1,2966.100000143051,796724.1999998093,9035,WL,C,5.0
6,12.3989999294281,distr,47601.0000705719,Thu Dec 04 2025 16:23:45 GMT-0500 (Eastern Standard Time),801040.7999999523,B,m,I,m,1339,1,1350.1000001430511,799690.6999998093,9035,WL,C,6.0
6,13.198999881744385,distr,46801.000118255615,Thu Dec 04 2025 16:23:45 GMT-0500 (Eastern Standard Time),801840.1999998093,B,me,I,e,785,1,2149.5,799690.6999998093,9035,WL,C,6.0
6,13.399999856948853,distr,46600.00014305115,Thu Dec 04 2025 16:23:45 GMT-0500 (Eastern Standard Time),802041.0999999046,B,mea,I,a,181,1,2350.4000000953674,799690.6999998093,9035,WL,C,6.0
6,13.766000032424927,distr,46233.99996757507,Thu Dec 04 2025 16:23:45 GMT-0500 (Eastern Standard Time),802407.5,B,meat,I,t,335,1,2716.800000190735,799690.6999998093,9035,WL,C,6.0
6,14.1489999294281,distr,45851.0000705719,Thu Dec 04 2025 16:23:45 GMT-0500 (Eastern Standard Time),802790.399999857,B,meatenter,I,enter,363,1,3099.7000000476837,799690.6999998093,9035,WL,C,6.0
6,14.532999992370605,distr,45467.000007629395,Thu Dec 04 2025 16:23:45 GMT-0500 (Eastern Standard Time),803174.0999999046,B,p,I,p,368,1,383.40000009536743,802790.6999998093,9035,WL,C,7.0
6,14.799999952316284,distr,45200.000047683716,Thu Dec 04 2025 16:23:45 GMT-0500 (Eastern Standard Time),803440.7999999523,B,pl,I,l,251,1,650.1000001430511,802790.6999998093,9035,WL,C,7.0
6,14.932999849319458,distr,45067.00015068054,Thu Dec 04 2025 16:23:45 GMT-0500 (Eastern Standard Time),803574.1999998093,B,pla,I,a,111,1,783.5,802790.6999998093,9035,WL,C,7.0
6,15.115999937057495,distr,44884.000062942505,Thu Dec 04 2025 16:23:45 GMT-0500 (Eastern Standard Time),803757.399999857,B,plan,I,n,163,1,966.7000000476837,802790.6999998093,9035,WL,C,7.0
6,15.382999897003174,distr,44617.000102996826,Thu Dec 04 2025 16:23:45 GMT-0500 (Eastern Standard Time),804024.0999999046,B,plant,I,t,236,1,1233.4000000953674,802790.6999998093,9035,WL,C,7.0
6,15.882999897003174,distr,44117.000102996826,Thu Dec 04 2025 16:23:45 GMT-0500 (Eastern Standard Time),804524.399999857,B,plantenter,I,enter,490,1,1733.7000000476837,802790.6999998093,9035,WL,C,7.0
6,19.965999841690063,distr,40034.00015830994,Thu Dec 04 2025 16:23:45 GMT-0500 (Eastern Standard Time),808607.5,B,c,I,c,4073,1,4082.800000190735,804524.6999998093,9035,WL,C,8.0
6,20.049000024795532,distr,39950.99997520447,Thu Dec 04 2025 16:23:45 GMT-0500 (Eastern Standard Time),808690.7999999523,B,ch,I,h,66,1,4166.100000143051,804524.6999998093,9035,WL,C,8.0
6,20.33299994468689,distr,39667.00005531311,Thu Dec 04 2025 16:23:45 GMT-0500 (Eastern Standard Time),808974.0,B,chr,I,r,271,1,4449.300000190735,804524.6999998093,9035,WL,C,8.0
6,20.449999809265137,distr,39550.00019073486,Thu Dec 04 2025 16:23:45 GMT-0500 (Eastern Standard Time),809090.899999857,B,chri,I,i,92,1,4566.200000047684,804524.6999998093,9035,WL,C,8.0
6,20.598999977111816,distr,39401.00002288818,Thu Dec 04 2025 16:23:45 GMT-0500 (Eastern Standard Time),809240.6999998093,B,chris,I,s,119,1,4716.0,804524.6999998093,9035,WL,C,8.0
6,20.74899983406067,distr,39251.00016593933,Thu Dec 04 2025 16:23:45 GMT-0500 (Eastern Standard Time),809390.7999999523,B,christ,I,t,131,1,4866.100000143051,804524.6999998093,9035,WL,C,8.0
6,21.115999937057495,distr,38884.000062942505,Thu Dec 04 2025 16:23:45 GMT-0500 (Eastern Standard Time),809757.1999998093,B,christm,I,m,357,1,5232.5,804524.6999998093,9035,WL,C,8.0
6,21.266000032424927,distr,38733.99996757507,Thu Dec 04 2025 16:23:45 GMT-0500 (Eastern Standard Time),809907.2999999523,B,christma,I,a,132,1,5382.600000143051,804524.6999998093,9035,WL,C,8.0
6,21.682999849319458,distr,38317.00015068054,Thu Dec 04 2025 16:23:45 GMT-0500 (Eastern Standard Time),810324.0999999046,B,christmas,I,s,399,1,5799.400000095367,804524.6999998093,9035,WL,C,8.0
6,22.031999826431274,distr,37968.000173568726,Thu Dec 04 2025 16:23:45 GMT-0500 (Eastern Standard Time),810673.6999998093,B,christmasenter,I,enter,332,1,6149.0,804524.6999998093,9035,WL,C,8.0
6,60.01600003242493,distr,-16.000032424926758,Thu Dec 04 2025 16:23:45 GMT-0500 (Eastern Standard Time),848657.6999998093,B,None,I,None,37977,1,37983.59999990463,810674.0999999046,9035,WL,C,9.0
7,0.6999998092651367,immed,59300.00019073486,Thu Dec 04 2025 16:23:45 GMT-0500 (Eastern Standard Time),862607.5,A,t,I,t,681,1,699.9000000953674,861907.5999999046,9035,WL,C,1.0
7,0.9499998092651367,immed,59050.00019073486,Thu Dec 04 2025 16:23:45 GMT-0500 (Eastern Standard Time),862856.899999857,A,to,I,o,226,1,949.2999999523163,861907.5999999046,9035,WL,C,1.0
7,1.18399977684021,immed,58816.00022315979,Thu Dec 04 2025 16:23:45 GMT-0500 (Eastern Standard Time),863090.7999999523,A,tow,I,w,220,1,1183.2000000476837,861907.5999999046,9035,WL,C,1.0
7,1.4670000076293945,immed,58532.999992370605,Thu Dec 04 2025 16:23:45 GMT-0500 (Eastern Standard Time),863373.899999857,A,towe,I,e,270,1,1466.2999999523163,861907.5999999046,9035,WL,C,1.0
7,1.7170000076293945,immed,58282.999992370605,Thu Dec 04 2025 16:23:45 GMT-0500 (Eastern Standard Time),863624.0,A,tower,I,r,218,1,1716.4000000953674,861907.5999999046,9035,WL,C,1.0
7,2.132999897003174,immed,57867.000102996826,Thu Dec 04 2025 16:23:45 GMT-0500 (Eastern Standard Time),864040.2999999523,A,towerenter,I,enter,394,1,2132.7000000476837,861907.5999999046,9035,WL,C,1.0
7,2.5999999046325684,immed,57400.00009536743,Thu Dec 04 2025 16:23:45 GMT-0500 (Eastern Standard Time),864507.399999857,A,w,I,w,444,1,466.7999999523163,864040.5999999046,9035,WL,C,2.0
7,2.816999912261963,immed,57183.00008773804,Thu Dec 04 2025 16:23:45 GMT-0500 (Eastern Standard Time),864724.0999999046,A,wh,I,h,199,1,683.5,864040.5999999046,9035,WL,C,2.0
7,2.9839999675750732,immed,57016.00003242493,Thu Dec 04 2025 16:23:45 GMT-0500 (Eastern Standard Time),864890.7999999523,A,whe,I,e,133,1,850.2000000476837,864040.5999999046,9035,WL,C,2.0
7,3.0829999446868896,immed,56917.00005531311,Thu Dec 04 2025 16:23:45 GMT-0500 (Eastern Standard Time),864990.6999998093,A,whea,I,a,86,1,950.0999999046326,864040.5999999046,9035,WL,C,2.0
7,3.3999998569488525,immed,56600.00014305115,Thu Dec 04 2025 16:23:45 GMT-0500 (Eastern Standard Time),865307.6999998093,A,wheat,I,t,283,1,1267.0999999046326,864040.5999999046,9035,WL,C,2.0
7,3.932999849319458,immed,56067.00015068054,Thu Dec 04 2025 16:23:45 GMT-0500 (Eastern Standard Time),865840.2999999523,A,wheatenter,I,enter,517,1,1799.7000000476837,864040.5999999046,9035,WL,C,2.0
7,5.7829999923706055,immed,54217.000007629395,Thu Dec 04 2025 16:23:45 GMT-0500 (Eastern Standard Time),867690.7999999523,A,s,I,s,1828,1,1850.2000000476837,865840.5999999046,9035,WL,C,3.0
7,6.08299994468689,immed,53917.00005531311,Thu Dec 04 2025 16:23:45 GMT-0500 (Eastern Standard Time),867990.5,A,su,I,u,277,1,2149.9000000953674,865840.5999999046,9035,WL,C,3.0
7,6.266999959945679,immed,53733.00004005432,Thu Dec 04 2025 16:23:45 GMT-0500 (Eastern Standard Time),868174.0,A,sug,I,g,172,1,2333.4000000953674,865840.5999999046,9035,WL,C,3.0
7,6.483999967575073,immed,53516.00003242493,Thu Dec 04 2025 16:23:45 GMT-0500 (Eastern Standard Time),868390.7999999523,A,suga,I,a,193,1,2550.2000000476837,865840.5999999046,9035,WL,C,3.0
7,6.799999952316284,immed,53200.000047683716,Thu Dec 04 2025 16:23:45 GMT-0500 (Eastern Standard Time),868707.1999998093,A,sugar,I,r,293,1,2866.5999999046326,865840.5999999046,9035,WL,C,3.0
7,8.33299994468689,immed,51667.00005531311,Thu Dec 04 2025 16:23:45 GMT-0500 (Eastern Standard Time),870240.1999998093,A,sugarenter,I,enter,1511,1,4399.599999904633,865840.5999999046,9035,WL,C,3.0
7,8.965999841690063,immed,51034.00015830994,Thu Dec 04 2025 16:23:45 GMT-0500 (Eastern Standard Time),870873.5,A,q,I,q,612,1,633.0,870240.5,9035,WL,C,4.0
7,9.25,immed,50750.0,Thu Dec 04 2025 16:23:45 GMT-0500 (Eastern Standard Time),871157.399999857,A,qu,I,u,267,1,916.8999998569489,870240.5,9035,WL,C,4.0
7,9.416999816894531,immed,50583.00018310547,Thu Dec 04 2025 16:23:45 GMT-0500 (Eastern Standard Time),871324.1999998093,A,que,I,e,158,1,1083.6999998092651,870240.5,9035,WL,C,4.0
7,9.616999864578247,immed,50383.00013542175,Thu Dec 04 2025 16:23:45 GMT-0500 (Eastern Standard Time),871524.0999999046,A,quee,I,e,182,1,1283.5999999046326,870240.5,9035,WL,C,4.0
7,9.883999824523926,immed,50116.000175476074,Thu Dec 04 2025 16:23:45 GMT-0500 (Eastern Standard Time),871790.899999857,A,queen,I,n,252,1,1550.3999998569489,870240.5,9035,WL,C,4.0
7,10.515999794006348,immed,49484.00020599365,Thu Dec 04 2025 16:23:45 GMT-0500 (Eastern Standard Time),872423.5999999046,A,queenenter,I,enter,609,1,2183.0999999046326,870240.5,9035,WL,C,4.0
7,11.599999904632568,immed,48400.00009536743,Thu Dec 04 2025 16:23:45 GMT-0500 (Eastern Standard Time),873507.5,A,c,I,c,1069,1,1083.5,872424.0,9035,WL,C,5.0
7,12.5,immed,47500.0,Thu Dec 04 2025 16:23:45 GMT-0500 (Eastern Standard Time),874407.399999857,A,,I,backspace,878,1,1983.3999998569489,872424.0,9035,WL,C,5.0
7,12.899999856948853,immed,47100.00014305115,Thu Dec 04 2025 16:23:45 GMT-0500 (Eastern Standard Time),874807.2999999523,A,d,I,d,380,1,2383.2999999523163,872424.0,9035,WL,C,5.0
7,13.132999897003174,immed,46867.000102996826,Thu Dec 04 2025 16:23:45 GMT-0500 (Eastern Standard Time),875040.7999999523,A,do,I,o,219,1,2616.7999999523163,872424.0,9035,WL,C,5.0
7,13.316999912261963,immed,46683.00008773804,Thu Dec 04 2025 16:23:45 GMT-0500 (Eastern Standard Time),875224.1999998093,A,doc,I,c,161,1,2800.199999809265,872424.0,9035,WL,C,5.0
7,13.599999904632568,immed,46400.00009536743,Thu Dec 04 2025 16:23:45 GMT-0500 (Eastern Standard Time),875507.2999999523,A,doct,I,t,266,1,3083.2999999523163,872424.0,9035,WL,C,5.0
7,13.816999912261963,immed,46183.00008773804,Thu Dec 04 2025 16:23:45 GMT-0500 (Eastern Standard Time),875724.399999857,A,docto,I,o,205,1,3300.399999856949,872424.0,9035,WL,C,5.0
7,13.949999809265137,immed,46050.00019073486,Thu Dec 04 2025 16:23:45 GMT-0500 (Eastern Standard Time),875857.399999857,A,doctor,I,r,114,1,3433.399999856949,872424.0,9035,WL,C,5.0
7,14.432999849319458,immed,45567.00015068054,Thu Dec 04 2025 16:23:45 GMT-0500 (Eastern Standard Time),876340.2999999523,A,doctorenter,I,enter,453,1,3916.2999999523163,872424.0,9035,WL,C,5.0
7,14.932999849319458,immed,45067.00015068054,Thu Dec 04 2025 16:23:45 GMT-0500 (Eastern Standard Time),876840.6999998093,A,c,I,c,481,1,500.0,876340.6999998093,9035,WL,C,6.0
7,15.182999849319458,immed,44817.00015068054,Thu Dec 04 2025 16:23:45 GMT-0500 (Eastern Standard Time),877090.6999998093,A,ca,I,a,233,1,750.0,876340.6999998093,9035,WL,C,6.0
7,15.432999849319458,immed,44567.00015068054,Thu Dec 04 2025 16:23:45 GMT-0500 (Eastern Standard Time),877340.399999857,A,cam,I,m,230,1,999.7000000476837,876340.6999998093,9035,WL,C,6.0
7,15.899999856948853,immed,44100.00014305115,Thu Dec 04 2025 16:23:45 GMT-0500 (Eastern Standard Time),877807.5,A,camp,I,p,454,1,1466.8000001907349,876340.6999998093,9035,WL,C,6.0
7,16.382999897003174,immed,43617.000102996826,Thu Dec 04 2025 16:23:45 GMT-0500 (Eastern Standard Time),878290.2999999523,A,campenter,I,enter,465,1,1949.6000001430511,876340.6999998093,9035,WL,C,6.0
7,16.76699995994568,immed,43233.00004005432,Thu Dec 04 2025 16:23:45 GMT-0500 (Eastern Standard Time),878674.0999999046,A,f,I,f,372,1,383.5,878290.5999999046,9035,WL,C,7.0
7,16.899999856948853,immed,43100.00014305115,Thu Dec 04 2025 16:23:45 GMT-0500 (Eastern Standard Time),878807.2999999523,A,fl,I,l,112,1,516.7000000476837,878290.5999999046,9035,WL,C,7.0
7,17.01699995994568,immed,42983.00004005432,Thu Dec 04 2025 16:23:45 GMT-0500 (Eastern Standard Time),878924.1999998093,A,fla,I,a,108,1,633.5999999046326,878290.5999999046,9035,WL,C,7.0
7,17.232999801635742,immed,42767.00019836426,Thu Dec 04 2025 16:23:45 GMT-0500 (Eastern Standard Time),879140.7999999523,A,flag,I,g,191,1,850.2000000476837,878290.5999999046,9035,WL,C,7.0
7,17.75,immed,42250.0,Thu Dec 04 2025 16:23:45 GMT-0500 (Eastern Standard Time),879657.0,A,flagenter,I,enter,492,1,1366.4000000953674,878290.5999999046,9035,WL,C,7.0
7,19.5,immed,40500.0,Thu Dec 04 2025 16:23:45 GMT-0500 (Eastern Standard Time),881407.1999998093,A,c,I,c,1741,1,1749.8999998569489,879657.2999999523,9035,WL,C,8.0
7,19.717000007629395,immed,40282.999992370605,Thu Dec 04 2025 16:23:45 GMT-0500 (Eastern Standard Time),881623.7999999523,A,ca,I,a,194,1,1966.5,879657.2999999523,9035,WL,C,8.0
7,19.983999967575073,immed,40016.00003242493,Thu Dec 04 2025 16:23:45 GMT-0500 (Eastern Standard Time),881890.7999999523,A,cat,I,t,246,1,2233.5,879657.2999999523,9035,WL,C,8.0
7,20.16699981689453,immed,39833.00018310547,Thu Dec 04 2025 16:23:45 GMT-0500 (Eastern Standard Time),882074.0,A,catt,I,t,160,1,2416.7000000476837,879657.2999999523,9035,WL,C,8.0
7,20.26699995994568,immed,39733.00004005432,Thu Dec 04 2025 16:23:45 GMT-0500 (Eastern Standard Time),882173.899999857,A,cattl,I,l,81,1,2516.5999999046326,879657.2999999523,9035,WL,C,8.0
7,20.399999856948853,immed,39600.00014305115,Thu Dec 04 2025 16:23:45 GMT-0500 (Eastern Standard Time),882307.2999999523,A,cattle,I,e,117,1,2650.0,879657.2999999523,9035,WL,C,8.0
7,20.715999841690063,immed,39284.00015830994,Thu Dec 04 2025 16:23:45 GMT-0500 (Eastern Standard Time),882623.6999998093,A,cattleenter,I,enter,294,1,2966.399999856949,879657.2999999523,9035,WL,C,8.0
7,21.049999952316284,immed,38950.000047683716,Thu Dec 04 2025 16:23:45 GMT-0500 (Eastern Standard Time),882957.2999999523,A,l,I,l,326,1,333.2999999523163,882624.0,9035,WL,C,9.0
7,21.217000007629395,immed,38782.999992370605,Thu Dec 04 2025 16:23:45 GMT-0500 (Eastern Standard Time),883124.0999999046,A,le,I,e,147,1,500.09999990463257,882624.0,9035,WL,C,9.0
7,21.41699981689453,immed,38583.00018310547,Thu Dec 04 2025 16:23:45 GMT-0500 (Eastern Standard Time),883324.2999999523,A,let,I,t,190,1,700.2999999523163,882624.0,9035,WL,C,9.0
7,21.616999864578247,immed,38383.00013542175,Thu Dec 04 2025 16:23:45 GMT-0500 (Eastern Standard Time),883524.0999999046,A,lett,I,t,182,1,900.0999999046326,882624.0,9035,WL,C,9.0
7,21.75,immed,38250.0,Thu Dec 04 2025 16:23:45 GMT-0500 (Eastern Standard Time),883657.5,A,lette,I,e,102,1,1033.5,882624.0,9035,WL,C,9.0
7,21.81599998474121,immed,38184.00001525879,Thu Dec 04 2025 16:23:45 GMT-0500 (Eastern Standard Time),883723.6999998093,A,letter,I,r,56,1,1099.6999998092651,882624.0,9035,WL,C,9.0
7,22.16599988937378,immed,37834.00011062622,Thu Dec 04 2025 16:23:45 GMT-0500 (Eastern Standard Time),884073.5999999046,A,letterenter,I,enter,322,1,1449.5999999046326,882624.0,9035,WL,C,9.0
7,22.41699981689453,immed,37583.00018310547,Thu Dec 04 2025 16:23:45 GMT-0500 (Eastern Standard Time),884324.0999999046,A,b,I,b,236,1,250.20000004768372,884073.899999857,9035,WL,C,10.0
7,22.649999856948853,immed,37350.00014305115,Thu Dec 04 2025 16:23:45 GMT-0500 (Eastern Standard Time),884557.2999999523,A,bo,I,o,221,1,483.40000009536743,884073.899999857,9035,WL,C,10.0
7,22.83399987220764,immed,37166.00012779236,Thu Dec 04 2025 16:23:45 GMT-0500 (Eastern Standard Time),884740.7999999523,A,bod,I,d,164,1,666.9000000953674,884073.899999857,9035,WL,C,10.0
7,23.066999912261963,immed,36933.00008773804,Thu Dec 04 2025 16:23:45 GMT-0500 (Eastern Standard Time),884973.899999857,A,body,I,y,213,1,900.0,884073.899999857,9035,WL,C,10.0
7,23.465999841690063,immed,36534.00015830994,Thu Dec 04 2025 16:23:45 GMT-0500 (Eastern Standard Time),885373.5,A,bodyenter,I,enter,380,1,1299.6000001430511,884073.899999857,9035,WL,C,10.0
7,23.84999990463257,immed,36150.00009536743,Thu Dec 04 2025 16:23:45 GMT-0500 (Eastern Standard Time),885757.2999999523,A,n,I,n,376,1,383.40000009536743,885373.899999857,9035,WL,C,11.0
7,24.41699981689453,immed,35583.00018310547,Thu Dec 04 2025 16:23:45 GMT-0500 (Eastern Standard Time),886323.7999999523,A,na,I,a,548,1,949.9000000953674,885373.899999857,9035,WL,C,11.0
7,24.616999864578247,immed,35383.00013542175,Thu Dec 04 2025 16:23:45 GMT-0500 (Eastern Standard Time),886524.1999998093,A,nai,I,i,178,1,1150.2999999523163,885373.899999857,9035,WL,C,11.0
7,24.899999856948853,immed,35100.00014305115,Thu Dec 04 2025 16:23:45 GMT-0500 (Eastern Standard Time),886807.2999999523,A,nail,I,l,262,1,1433.4000000953674,885373.899999857,9035,WL,C,11.0
7,25.765999794006348,immed,34234.00020599365,Thu Dec 04 2025 16:23:45 GMT-0500 (Eastern Standard Time),887673.6999998093,A,nailenter,I,enter,843,1,2299.7999999523163,885373.899999857,9035,WL,C,11.0
7,31.616999864578247,immed,28383.000135421753,Thu Dec 04 2025 16:23:45 GMT-0500 (Eastern Standard Time),893524.0999999046,A,c,I,c,5836,1,5850.099999904633,887674.0,9035,WL,C,12.0
7,31.75,immed,28250.0,Thu Dec 04 2025 16:23:45 GMT-0500 (Eastern Standard Time),893657.5,A,co,I,o,109,1,5983.5,887674.0,9035,WL,C,12.0
7,31.982999801635742,immed,28017.000198364258,Thu Dec 04 2025 16:23:45 GMT-0500 (Eastern Standard Time),893890.5,A,cor,I,r,210,1,6216.5,887674.0,9035,WL,C,12.0
7,32.217000007629395,immed,27782.999992370605,Thu Dec 04 2025 16:23:45 GMT-0500 (Eastern Standard Time),894124.0999999046,A,corn,I,n,211,1,6450.099999904633,887674.0,9035,WL,C,12.0
7,32.75,immed,27250.0,Thu Dec 04 2025 16:23:45 GMT-0500 (Eastern Standard Time),894656.899999857,A,cornenter,I,enter,509,1,6982.899999856949,887674.0,9035,WL,C,12.0
