acc_sum,block,block_c,condition,correct,correct_response,datetime,endtime,flanker,jitter,project,response,response_test_buffer_response,response_test_target_response,response_time,response_time_test_buffer_response,response_time_test_target_response,row_sel,session_number,start_end,starttime,subject_id,target,task,task_vers,time_test_buffer,time_test_buffer_response,time_test_constants,time_test_flanker,time_test_jitter,time_test_logger,time_test_target,time_test_target_response,time_test_variables,trial
0,prac,1,con,0,z,Wed Jul 09 2025 15:40:47 GMT-0400 (Eastern Daylight Time),169212.10000000894,banana,800,I,m,,,691,,,1,1,2790.7000000029802,166421.40000000596,9023,banana,NF,C,,,,,,,,,,1
0,prac,1,inc,0,z,Wed Jul 09 2025 15:40:47 GMT-0400 (Eastern Daylight Time),172111.70000000298,cobalt,1100,I,m,,,487,,,4,1,2885.3999999910593,169226.30000001192,9023,raisin,NF,C,,,,,,,,,,2
0,prac,1,inc,0,m,Wed Jul 09 2025 15:40:47 GMT-0400 (Eastern Daylight Time),174495.10000000894,pear,900,I,z,,,172,,,14,1,2370.7999999970198,172124.30000001192,9023,iron,NF,C,,,,,,,,,,3
1,prac,1,con,1,m,Wed Jul 09 2025 15:40:47 GMT-0400 (Eastern Daylight Time),176694.80000001192,gold,800,I,m,,,97,,,13,1,2190.9000000059605,174503.90000000596,9023,gold,NF,C,,,,,,,,,,4
1,prac,1,inc,0,z,Wed Jul 09 2025 15:40:47 GMT-0400 (Eastern Daylight Time),179111.80000001192,iron,900,I,m,,,212,,,6,1,2410.6000000089407,176701.20000000298,9023,pear,NF,C,,,,,,,,,,5
2,prac,1,con,1,m,Wed Jul 09 2025 15:40:47 GMT-0400 (Eastern Daylight Time),181461.90000000596,silver,1000,I,m,,,49,,,11,1,2340.7999999970198,179121.10000000894,9023,silver,NF,C,,,,,,,,,,6
3,prac,1,inc,1,m,Wed Jul 09 2025 15:40:47 GMT-0400 (Eastern Daylight Time),183978.5,plum,1100,I,m,,,109,,,16,1,2507.0,181471.5,9023,lead,NF,C,,,,,,,,,,7
4,prac,1,inc,1,z,Wed Jul 09 2025 15:40:47 GMT-0400 (Eastern Daylight Time),186995.10000000894,lead,1100,I,z,,,617,,,8,1,3008.1000000089407,183987.0,9023,plum,NF,C,,,,,,,,,,8
5,prac,1,inc,1,m,Wed Jul 09 2025 15:40:47 GMT-0400 (Eastern Daylight Time),189711.70000000298,cherry,900,I,m,,,504,,,10,1,2707.2000000029802,187004.5,9023,copper,NF,C,,,,,,,,,,9
6,prac,1,con,1,m,Wed Jul 09 2025 15:40:47 GMT-0400 (Eastern Daylight Time),192645.10000000894,zinc,1000,I,m,,,631,,,15,1,2922.9000000059605,189722.20000000298,9023,zinc,NF,C,,,,,,,,,,10
7,prac,1,con,1,z,Wed Jul 09 2025 15:40:47 GMT-0400 (Eastern Daylight Time),195395.10000000894,orange,1000,I,z,,,435,,,3,1,2737.5,192657.60000000894,9023,orange,NF,C,,,,,,,,,,11
8,prac,1,con,1,m,Wed Jul 09 2025 15:40:47 GMT-0400 (Eastern Daylight Time),197678.60000000894,bronze,800,I,m,,,156,,,9,1,2267.2000000029802,195411.40000000596,9023,bronze,NF,C,,,,,,,,,,12
9,prac,1,con,1,z,Wed Jul 09 2025 15:40:47 GMT-0400 (Eastern Daylight Time),200245.10000000894,lime,800,I,z,,,449,,,5,1,2554.2999999970198,197690.80000001192,9023,lime,NF,C,,,,,,,,,,13
10,prac,1,con,1,z,Wed Jul 09 2025 15:40:47 GMT-0400 (Eastern Daylight Time),203061.80000001192,kiwi,1000,I,z,,,514,,,7,1,2807.1000000089407,200254.70000000298,9023,kiwi,NF,C,,,,,,,,,,14
11,prac,1,inc,1,m,Wed Jul 09 2025 15:40:47 GMT-0400 (Eastern Daylight Time),205911.80000001192,raisin,1100,I,m,,,445,,,12,1,2839.800000011921,203072.0,9023,cobalt,NF,C,,,,,,,,,,15
12,prac,1,inc,1,z,Wed Jul 09 2025 15:40:47 GMT-0400 (Eastern Daylight Time),208645.10000000894,copper,900,I,z,,,515,,,2,1,2724.4000000059605,205920.70000000298,9023,cherry,NF,C,,,,,,,,,,16
0,test,1,inc,0,z,Wed Jul 09 2025 15:40:47 GMT-0400 (Eastern Daylight Time),239595.40000000596,lead,1100,I,m,,m,111,,111.0,56,1,1741.9000000059605,237853.5,9023,kiwi,NF,C,,,234326,235435,234327,236068,235952,235952,236068,1
1,test,1,inc,1,m,Wed Jul 09 2025 15:40:47 GMT-0400 (Eastern Daylight Time),241511.5,lime,800,I,m,m,None,580,381.0,199.0,117,1,1903.699999988079,239607.80000001192,9023,zinc,NF,C,237602,237602,236081,236885,236081,237985,237402,237402,237985,2
2,test,1,inc,1,m,Wed Jul 09 2025 15:40:47 GMT-0400 (Eastern Daylight Time),243778.40000000596,raisin,1100,I,m,m,None,619,420.0,199.0,96,1,2256.7999999970198,241521.60000000894,9023,cobalt,NF,C,239819,239819,237995,239102,237995,240252,239619,239619,240251,3
3,test,1,con,1,z,Wed Jul 09 2025 15:40:47 GMT-0400 (Eastern Daylight Time),245828.5,orange,1000,I,z,z,None,501,301.0,200.0,19,1,2038.699999988079,243789.80000001192,9023,orange,NF,C,241986,241986,240263,241269,240263,242302,241785,241785,242302,4
4,test,1,inc,1,m,Wed Jul 09 2025 15:40:47 GMT-0400 (Eastern Daylight Time),247778.5,banana,800,I,m,m,None,604,404.0,200.0,77,1,1941.3999999910593,245837.10000000894,9023,copper,NF,C,243835,243835,242310,243119,242311,244252,243635,243635,244252,5
5,test,1,inc,1,z,Wed Jul 09 2025 15:40:47 GMT-0400 (Eastern Daylight Time),249861.80000001192,silver,1000,I,z,z,None,534,334.0,200.0,23,1,2074.800000011921,247787.0,9023,orange,NF,C,245985,245985,244260,245268,244260,246335,245785,245785,246335,6
6,test,1,inc,1,z,Wed Jul 09 2025 15:40:47 GMT-0400 (Eastern Daylight Time),251894.70000000298,gold,800,I,z,z,None,697,498.0,199.0,37,1,2024.5,249870.20000000298,9023,lime,NF,C,247869,247869,246343,247152,246344,248368,247669,247669,248368,7
7,test,1,inc,1,z,Wed Jul 09 2025 15:40:47 GMT-0400 (Eastern Daylight Time),254078.5,cobalt,1100,I,z,z,None,540,341.0,199.0,24,1,2176.3999999910593,251902.10000000894,9023,orange,NF,C,250202,250202,248375,249485,248376,250552,250002,250002,250551,8
8,test,1,con,1,m,Wed Jul 09 2025 15:40:47 GMT-0400 (Eastern Daylight Time),256211.80000001192,zinc,1100,I,m,m,None,486,286.0,200.0,116,1,2123.9000000059605,254087.90000000596,9023,zinc,NF,C,252385,252385,250561,251669,250561,252685,252185,252185,252685,9
9,test,1,inc,1,z,Wed Jul 09 2025 15:40:47 GMT-0400 (Eastern Daylight Time),258561.90000000596,cobalt,1100,I,z,z,None,704,505.0,199.0,8,1,2340.5,256221.40000000596,9023,banana,NF,C,254518,254518,252694,253802,252695,255035,254319,254319,255035,10
10,test,1,inc,1,z,Wed Jul 09 2025 15:40:47 GMT-0400 (Eastern Daylight Time),260778.40000000596,lead,1100,I,z,z,None,578,378.0,200.0,40,1,2206.4000000059605,258572.0,9023,lime,NF,C,256869,256869,255045,256152,255045,257252,256668,256668,257251,11
11,test,1,con,1,m,Wed Jul 09 2025 15:40:47 GMT-0400 (Eastern Daylight Time),262795.0,gold,900,I,m,m,None,578,378.0,200.0,98,1,2006.0999999940395,260788.90000000596,9023,gold,NF,C,258885,258885,257262,258169,257262,259268,258685,258685,259268,12
12,test,1,inc,1,m,Wed Jul 09 2025 15:40:47 GMT-0400 (Eastern Daylight Time),264861.700000003,banana,800,I,m,m,None,739,525.0,214.0,93,1,2057.2999999970198,262804.40000000596,9023,cobalt,NF,C,260802,260802,259277,260085,259278,261335,260587,260587,261335,13
13,test,1,con,1,m,Wed Jul 09 2025 15:40:47 GMT-0400 (Eastern Daylight Time),266778.40000000596,copper,900,I,m,m,None,477,278.0,199.0,74,1,1907.4000000059605,264871.0,9023,copper,NF,C,262969,262969,261344,262252,261344,263252,262769,262769,263251,14
14,test,1,inc,1,z,Wed Jul 09 2025 15:40:47 GMT-0400 (Eastern Daylight Time),268845.10000000894,zinc,1000,I,z,z,None,525,325.0,200.0,47,1,2058.4000000059605,266786.700000003,9023,pear,NF,C,264985,264986,263260,264269,263260,265318,264785,264785,265318,15
15,test,1,inc,1,z,Wed Jul 09 2025 15:40:47 GMT-0400 (Eastern Daylight Time),271095.5,silver,1000,I,z,z,None,715,516.0,199.0,31,1,2242.3999999910593,268853.10000000894,9023,raisin,NF,C,267052,267052,265326,266335,265327,267569,266852,266852,267569,16
16,test,1,con,1,z,Wed Jul 09 2025 15:40:47 GMT-0400 (Eastern Daylight Time),272995.10000000894,raisin,900,I,z,z,None,452,253.0,199.0,26,1,1888.4000000059605,271106.700000003,9023,raisin,NF,C,269202,269202,267580,268485,267580,269468,269002,269002,269468,17
17,test,1,con,1,m,Wed Jul 09 2025 15:40:47 GMT-0400 (Eastern Daylight Time),274928.3000000119,cobalt,800,I,m,m,None,588,389.0,199.0,89,1,1923.0,273005.3000000119,9023,cobalt,NF,C,271002,271002,269478,270285,269479,271401,270802,270802,271401,18
18,test,1,con,1,m,Wed Jul 09 2025 15:40:47 GMT-0400 (Eastern Daylight Time),276845.10000000894,lead,800,I,m,m,None,576,376.0,200.0,121,1,1905.9000000059605,274939.200000003,9023,lead,NF,C,272935,272935,271412,272219,271413,273318,272735,272735,273318,19
19,test,1,con,1,m,Wed Jul 09 2025 15:40:47 GMT-0400 (Eastern Daylight Time),279011.8000000119,cobalt,1000,I,m,m,None,618,419.0,199.0,91,1,2158.0,276853.8000000119,9023,cobalt,NF,C,275052,275052,273327,274335,273327,275485,274852,274852,275485,20
20,test,1,con,1,m,Wed Jul 09 2025 15:40:47 GMT-0400 (Eastern Daylight Time),281078.700000003,iron,1000,I,m,m,None,531,332.0,199.0,107,1,2057.7000000029802,279021.0,9023,iron,NF,C,277219,277219,275494,276502,275494,277552,277019,277019,277552,21
21,test,1,inc,1,z,Wed Jul 09 2025 15:40:47 GMT-0400 (Eastern Daylight Time),282995.10000000894,bronze,800,I,z,z,None,570,370.0,200.0,21,1,1906.2999999970198,281088.8000000119,9023,orange,NF,C,279085,279085,277562,278369,277562,279468,278885,278885,279468,22
22,test,1,con,1,z,Wed Jul 09 2025 15:40:47 GMT-0400 (Eastern Daylight Time),285028.3000000119,cherry,1000,I,z,z,None,484,285.0,199.0,11,1,2022.6000000089407,283005.700000003,9023,cherry,NF,C,281202,281202,279479,280485,279479,281502,281002,281002,281501,23
23,test,1,inc,1,z,Wed Jul 09 2025 15:40:47 GMT-0400 (Eastern Daylight Time),286978.5,copper,900,I,z,z,None,504,304.0,200.0,6,1,1940.699999988079,285037.8000000119,9023,banana,NF,C,283135,283135,281511,282419,281511,283452,282935,282935,283451,24
24,test,1,con,1,m,Wed Jul 09 2025 15:40:47 GMT-0400 (Eastern Daylight Time),289011.8000000119,silver,900,I,m,m,None,568,369.0,199.0,82,1,2018.1000000089407,286993.700000003,9023,silver,NF,C,285102,285102,283467,284385,283468,285485,284902,284902,285485,25
25,test,1,con,1,z,Wed Jul 09 2025 15:40:47 GMT-0400 (Eastern Daylight Time),291295.10000000894,plum,1100,I,z,z,None,639,440.0,199.0,60,1,2274.1000000089407,289021.0,9023,plum,NF,C,287319,287319,285494,286602,285494,287768,287119,287119,287768,26
26,test,1,inc,1,z,Wed Jul 09 2025 15:40:47 GMT-0400 (Eastern Daylight Time),293479.10000000894,zinc,1000,I,z,z,None,648,449.0,199.0,55,1,2173.0,291306.10000000894,9023,kiwi,NF,C,289502,289502,287779,288785,287779,289952,289302,289302,289952,27
27,test,1,con,1,z,Wed Jul 09 2025 15:40:47 GMT-0400 (Eastern Daylight Time),295477.90000000596,kiwi,900,I,z,z,None,565,365.0,200.0,50,1,1991.2000000029802,293486.700000003,9023,kiwi,NF,C,291585,291585,289960,290869,289960,291951,291385,291385,291951,28
28,test,1,con,1,m,Wed Jul 09 2025 15:40:47 GMT-0400 (Eastern Daylight Time),297595.10000000894,iron,900,I,m,m,None,678,478.0,200.0,106,1,2109.6000000089407,295485.5,9023,iron,NF,C,293585,293585,291959,292869,291959,294068,293385,293385,294068,29
29,test,1,inc,1,m,Wed Jul 09 2025 15:40:47 GMT-0400 (Eastern Daylight Time),299545.10000000894,banana,800,I,m,m,None,612,413.0,199.0,69,1,1941.4000000059605,297603.700000003,9023,bronze,NF,C,295602,295602,294077,294885,294077,296018,295402,295402,296018,30
30,test,1,inc,1,m,Wed Jul 09 2025 15:40:47 GMT-0400 (Eastern Daylight Time),301561.60000000894,orange,1000,I,m,m,None,478,279.0,199.0,71,1,2002.2000000029802,299559.40000000596,9023,bronze,NF,C,297752,297752,296032,297035,296033,298035,297552,297552,298035,31
31,test,1,con,1,m,Wed Jul 09 2025 15:40:47 GMT-0400 (Eastern Daylight Time),303411.8000000119,silver,800,I,m,m,None,501,302.0,199.0,81,1,1841.2000000029802,301570.60000000894,9023,silver,NF,C,299569,299569,298044,298852,298044,299885,299369,299369,299885,32
32,test,1,inc,1,m,Wed Jul 09 2025 15:40:47 GMT-0400 (Eastern Daylight Time),305411.90000000596,pear,900,I,m,m,None,551,352.0,199.0,102,1,1991.0,303420.90000000596,9023,gold,NF,C,301519,301519,299894,300802,299894,301885,301319,301319,301885,33
33,test,1,con,1,m,Wed Jul 09 2025 15:40:47 GMT-0400 (Eastern Daylight Time),307378.3000000119,silver,1000,I,m,m,None,419,220.0,199.0,83,1,1956.7000000029802,305421.60000000894,9023,silver,NF,C,303619,303619,301895,302902,301895,303851,303419,303419,303851,34
34,test,1,con,1,m,Wed Jul 09 2025 15:40:47 GMT-0400 (Eastern Daylight Time),309278.5,zinc,900,I,m,m,None,458,258.0,200.0,114,1,1890.5999999940395,307387.90000000596,9023,zinc,NF,C,305485,305485,303861,304768,303861,305752,305285,305285,305752,35
34,test,1,con,0,z,Wed Jul 09 2025 15:40:47 GMT-0400 (Eastern Daylight Time),311011.8000000119,lime,800,I,m,m,None,384,185.0,199.0,33,1,1724.0,309287.8000000119,9023,lime,NF,C,307286,307286,305761,306569,305761,307485,307086,307086,307485,36
35,test,1,con,1,m,Wed Jul 09 2025 15:40:47 GMT-0400 (Eastern Daylight Time),313261.8000000119,bronze,1100,I,m,m,None,608,408.0,200.0,68,1,2240.7000000029802,311021.10000000894,9023,bronze,NF,C,309319,309319,307494,308602,307495,309735,309118,309118,309735,37
36,test,1,inc,1,z,Wed Jul 09 2025 15:40:47 GMT-0400 (Eastern Daylight Time),315378.40000000596,zinc,1000,I,z,z,None,569,370.0,199.0,63,1,2108.4000000059605,313270.0,9023,plum,NF,C,311469,311469,309743,310752,309743,311852,311269,311269,311851,38
37,test,1,con,1,z,Wed Jul 09 2025 15:40:47 GMT-0400 (Eastern Daylight Time),317694.8000000119,raisin,1000,I,z,z,None,774,574.0,200.0,27,1,2307.4000000059605,315387.40000000596,9023,raisin,NF,C,313585,313585,311860,312869,311861,314168,313385,313385,314168,39
38,test,1,inc,1,z,Wed Jul 09 2025 15:40:47 GMT-0400 (Eastern Daylight Time),319628.40000000596,gold,800,I,z,z,None,592,393.0,199.0,45,1,1928.0,317700.40000000596,9023,pear,NF,C,315702,315702,314173,314985,314174,316102,315502,315502,316101,40
39,test,1,inc,1,m,Wed Jul 09 2025 15:40:47 GMT-0400 (Eastern Daylight Time),321711.700000003,kiwi,1000,I,m,m,None,540,340.0,200.0,127,1,2072.7000000029802,319639.0,9023,lead,NF,C,317835,317835,316112,317119,316112,318185,317635,317635,318185,41
40,test,1,inc,1,m,Wed Jul 09 2025 15:40:47 GMT-0400 (Eastern Daylight Time),323995.0,plum,1100,I,m,m,None,643,444.0,199.0,128,1,2274.5,321720.5,9023,lead,NF,C,320019,320019,318194,319302,318194,320468,319819,319819,320468,42
41,test,1,inc,1,z,Wed Jul 09 2025 15:40:47 GMT-0400 (Eastern Daylight Time),326195.10000000894,cobalt,1100,I,z,z,None,552,353.0,199.0,32,1,2191.5,324003.60000000894,9023,raisin,NF,C,322302,322302,320477,321585,320477,322668,322102,322102,322668,43
42,test,1,con,1,z,Wed Jul 09 2025 15:40:47 GMT-0400 (Eastern Daylight Time),328128.40000000596,pear,800,I,z,z,None,588,389.0,199.0,41,1,1924.0,326204.40000000596,9023,pear,NF,C,324202,324202,322677,323485,322678,324602,324002,324002,324601,44
43,test,1,inc,1,m,Wed Jul 09 2025 15:40:47 GMT-0400 (Eastern Daylight Time),330078.40000000596,cherry,900,I,m,m,None,508,308.0,200.0,86,1,1940.2000000029802,328138.200000003,9023,silver,NF,C,326235,326235,324611,325519,324612,326551,326035,326035,326551,45
44,test,1,con,1,m,Wed Jul 09 2025 15:40:47 GMT-0400 (Eastern Daylight Time),332111.8000000119,gold,1000,I,m,m,None,490,290.0,200.0,99,1,2022.9000000059605,330088.90000000596,9023,gold,NF,C,328285,328285,326562,327569,326562,328585,328085,328085,328585,46
45,test,1,inc,1,m,Wed Jul 09 2025 15:40:47 GMT-0400 (Eastern Daylight Time),333978.5,banana,800,I,m,m,None,527,328.0,199.0,85,1,1856.699999988079,332121.8000000119,9023,silver,NF,C,330119,330119,328595,329402,328595,330452,329919,329919,330451,47
46,test,1,inc,1,m,Wed Jul 09 2025 15:40:47 GMT-0400 (Eastern Daylight Time),336145.200000003,plum,1100,I,m,m,None,522,322.0,200.0,104,1,2158.0999999940395,333987.10000000894,9023,gold,NF,C,332285,332285,330460,331569,330460,332618,332085,332085,332618,48
47,test,1,inc,1,m,Wed Jul 09 2025 15:40:47 GMT-0400 (Eastern Daylight Time),338261.8000000119,raisin,1100,I,m,m,None,466,267.0,199.0,80,1,2108.5,336153.3000000119,9023,copper,NF,C,334452,334452,332626,333735,332627,334735,334252,334252,334735,49
48,test,1,con,1,z,Wed Jul 09 2025 15:40:47 GMT-0400 (Eastern Daylight Time),340111.700000003,kiwi,800,I,z,z,None,505,306.0,199.0,49,1,1839.7000000029802,338272.0,9023,kiwi,NF,C,336269,336269,334745,335552,334745,336585,336069,336069,336585,50
49,test,1,inc,1,z,Wed Jul 09 2025 15:40:47 GMT-0400 (Eastern Daylight Time),342128.3000000119,zinc,1000,I,z,z,None,471,272.0,199.0,39,1,2008.300000011921,340120.0,9023,lime,NF,C,338319,338319,336593,337602,336593,338602,338119,338119,338601,51
50,test,1,inc,1,z,Wed Jul 09 2025 15:40:47 GMT-0400 (Eastern Daylight Time),344261.90000000596,lead,1100,I,z,z,None,467,268.0,199.0,48,1,2118.5,342143.40000000596,9023,pear,NF,C,340451,340451,338616,339735,338618,340735,340252,340252,340735,52
51,test,1,con,1,z,Wed Jul 09 2025 15:40:47 GMT-0400 (Eastern Daylight Time),346278.90000000596,lime,1000,I,z,z,None,482,282.0,200.0,35,1,2008.4000000059605,344270.5,9023,lime,NF,C,342469,342469,340744,341752,340744,342752,342269,342269,342752,53
51,test,1,con,0,m,Wed Jul 09 2025 15:40:47 GMT-0400 (Eastern Daylight Time),348278.5,gold,1100,I,z,z,None,351,151.0,200.0,100,1,1991.3999999910593,346287.10000000894,9023,gold,NF,C,344585,344585,342760,343869,342760,344752,344385,344385,344752,54
52,test,1,inc,1,m,Wed Jul 09 2025 15:40:47 GMT-0400 (Eastern Daylight Time),350428.60000000894,orange,1000,I,m,m,None,611,410.0,201.0,95,1,2141.5,348287.10000000894,9023,cobalt,NF,C,346485,346485,344760,345769,344760,346902,346284,346284,346902,55
53,test,1,inc,1,m,Wed Jul 09 2025 15:40:47 GMT-0400 (Eastern Daylight Time),352545.10000000894,plum,1100,I,m,m,None,471,271.0,200.0,112,1,2108.2000000029802,350436.90000000596,9023,iron,NF,C,348736,348736,346910,348019,346910,349018,348535,348535,349018,56
54,test,1,con,1,m,Wed Jul 09 2025 15:40:47 GMT-0400 (Eastern Daylight Time),354678.8000000119,cobalt,1100,I,m,m,None,498,299.0,199.0,92,1,2125.4000000059605,352553.40000000596,9023,cobalt,NF,C,350852,350852,349026,350135,349027,351152,350652,350652,351152,57
54,test,1,con,0,z,Wed Jul 09 2025 15:40:47 GMT-0400 (Eastern Daylight Time),356478.60000000894,plum,800,I,m,m,None,458,258.0,200.0,57,1,1792.2999999970198,354686.3000000119,9023,plum,NF,C,352685,352685,351159,351969,351160,352952,352485,352485,352952,58
55,test,1,inc,1,m,Wed Jul 09 2025 15:40:47 GMT-0400 (Eastern Daylight Time),358561.90000000596,pear,900,I,m,m,None,638,438.0,200.0,110,1,2075.5999999940395,356486.3000000119,9023,iron,NF,C,354585,354585,352959,353869,352960,355035,354385,354385,355035,59
56,test,1,inc,1,z,Wed Jul 09 2025 15:40:47 GMT-0400 (Eastern Daylight Time),360345.0,copper,900,I,z,z,None,346,146.0,200.0,14,1,1774.2999999970198,358570.700000003,9023,cherry,NF,C,356669,356669,355044,355952,355044,356818,356468,356468,356818,60
57,test,1,inc,1,m,Wed Jul 09 2025 15:40:47 GMT-0400 (Eastern Daylight Time),362545.0,plum,1100,I,m,m,None,554,355.0,199.0,120,1,2191.699999988079,360353.3000000119,9023,zinc,NF,C,358652,358652,356826,357935,356827,359018,358452,358452,359018,61
58,test,1,con,1,z,Wed Jul 09 2025 15:40:47 GMT-0400 (Eastern Daylight Time),364545.200000003,orange,900,I,z,z,None,554,355.0,199.0,18,1,1992.5,362552.700000003,9023,orange,NF,C,360652,360652,359026,359935,359026,361018,360452,360452,361018,62
59,test,1,con,1,z,Wed Jul 09 2025 15:40:47 GMT-0400 (Eastern Daylight Time),366811.8000000119,orange,1100,I,z,z,None,626,427.0,199.0,20,1,2257.7000000029802,364554.10000000894,9023,orange,NF,C,362852,362852,361027,362135,361027,363285,362652,362652,363285,63
60,test,1,con,1,z,Wed Jul 09 2025 15:40:47 GMT-0400 (Eastern Daylight Time),368761.60000000894,cherry,900,I,z,z,None,512,312.0,200.0,10,1,1940.5,366821.10000000894,9023,cherry,NF,C,364919,364919,363294,364202,363294,365235,364718,364718,365235,64
61,test,1,inc,1,z,Wed Jul 09 2025 15:40:47 GMT-0400 (Eastern Daylight Time),370661.8000000119,iron,900,I,z,z,None,449,250.0,199.0,62,1,1891.1000000089407,368770.700000003,9023,plum,NF,C,366869,366869,365244,366152,365244,367135,366669,366669,367135,65
62,test,1,con,1,z,Wed Jul 09 2025 15:40:47 GMT-0400 (Eastern Daylight Time),372478.5,raisin,800,I,z,z,None,474,275.0,199.0,25,1,1808.0,370670.5,9023,raisin,NF,C,368668,368668,367144,367952,367144,368952,368469,368469,368952,66
63,test,1,con,1,z,Wed Jul 09 2025 15:40:47 GMT-0400 (Eastern Daylight Time),374395.0,banana,900,I,z,z,None,478,278.0,200.0,2,1,1906.8999999910593,372488.10000000894,9023,banana,NF,C,370585,370585,368961,369868,368961,370868,370385,370385,370868,67
64,test,1,inc,1,z,Wed Jul 09 2025 15:40:47 GMT-0400 (Eastern Daylight Time),376278.3000000119,copper,900,I,z,z,None,432,233.0,199.0,22,1,1868.2000000029802,374410.10000000894,9023,orange,NF,C,372502,372502,370883,371785,370884,372751,372302,372302,372751,68
65,test,1,inc,1,m,Wed Jul 09 2025 15:40:47 GMT-0400 (Eastern Daylight Time),378211.8000000119,pear,900,I,m,m,None,486,286.0,200.0,118,1,1924.2000000029802,376287.60000000894,9023,zinc,NF,C,374385,374385,372761,373669,372761,374685,374185,374185,374685,69
66,test,1,inc,1,m,Wed Jul 09 2025 15:40:47 GMT-0400 (Eastern Daylight Time),380228.40000000596,cherry,900,I,m,m,None,567,368.0,199.0,70,1,2008.4000000059605,378220.0,9023,bronze,NF,C,376319,376319,374693,375602,374693,376701,376119,376119,376701,70
67,test,1,inc,1,m,Wed Jul 09 2025 15:40:47 GMT-0400 (Eastern Daylight Time),382195.200000003,cherry,900,I,m,m,None,520,320.0,200.0,94,1,1956.3999999910593,380238.8000000119,9023,cobalt,NF,C,378335,378335,376712,377619,376712,378668,378135,378135,378668,71
68,test,1,inc,1,m,Wed Jul 09 2025 15:40:47 GMT-0400 (Eastern Daylight Time),384111.90000000596,cherry,900,I,m,m,None,472,273.0,199.0,78,1,1906.0999999940395,382205.8000000119,9023,copper,NF,C,380302,380302,378679,379585,378679,380585,380102,380102,380585,72
68,test,1,con,0,z,Wed Jul 09 2025 15:40:47 GMT-0400 (Eastern Daylight Time),386195.200000003,banana,1100,I,m,m,None,435,236.0,199.0,4,1,2073.2999999970198,384121.90000000596,9023,banana,NF,C,382419,382419,380595,381702,380595,382668,382219,382219,382668,73
69,test,1,con,1,z,Wed Jul 09 2025 15:40:47 GMT-0400 (Eastern Daylight Time),388228.5,kiwi,1000,I,z,z,None,484,285.0,199.0,51,1,2024.0999999940395,386204.40000000596,9023,kiwi,NF,C,384402,384402,382677,383685,382678,384702,384202,384202,384702,74
70,test,1,con,1,z,Wed Jul 09 2025 15:40:47 GMT-0400 (Eastern Daylight Time),390011.90000000596,banana,800,I,z,z,None,444,244.0,200.0,1,1,1775.2999999970198,388236.60000000894,9023,banana,NF,C,386235,386235,384710,385519,384710,386485,386035,386035,386485,75
71,test,1,inc,1,z,Wed Jul 09 2025 15:40:47 GMT-0400 (Eastern Daylight Time),391961.700000003,silver,1000,I,z,z,None,412,212.0,200.0,7,1,1941.7999999970198,390019.90000000596,9023,banana,NF,C,388219,388219,386493,387502,386493,388435,388018,388018,388435,76
71,test,1,con,0,m,Wed Jul 09 2025 15:40:47 GMT-0400 (Eastern Daylight Time),393961.8000000119,lead,1100,I,z,z,None,362,162.0,200.0,124,1,1988.800000011921,391973.0,9023,lead,NF,C,390269,390269,388446,389552,388446,390435,390068,390068,390435,77
72,test,1,con,1,m,Wed Jul 09 2025 15:40:47 GMT-0400 (Eastern Daylight Time),396145.200000003,zinc,1000,I,m,m,None,637,438.0,199.0,115,1,2173.5,393971.700000003,9023,zinc,NF,C,392169,392169,390445,391452,390445,392618,391969,391969,392618,78
73,test,1,inc,1,z,Wed Jul 09 2025 15:40:47 GMT-0400 (Eastern Daylight Time),398028.5,gold,800,I,z,z,None,542,343.0,199.0,53,1,1873.7999999970198,396154.700000003,9023,kiwi,NF,C,394152,394152,392628,393435,392628,394502,393952,393952,394501,79
74,test,1,inc,1,z,Wed Jul 09 2025 15:40:47 GMT-0400 (Eastern Daylight Time),399978.5,iron,900,I,z,z,None,512,312.0,200.0,38,1,1941.7999999970198,398036.700000003,9023,lime,NF,C,396135,396135,394510,395419,394510,396452,395935,395935,396451,80
75,test,1,con,1,m,Wed Jul 09 2025 15:40:47 GMT-0400 (Eastern Daylight Time),401878.5,zinc,800,I,m,m,None,550,350.0,200.0,113,1,1891.3999999910593,399987.10000000894,9023,zinc,NF,C,397985,397985,396460,397269,396460,398352,397785,397785,398351,81
76,test,1,con,1,m,Wed Jul 09 2025 15:40:47 GMT-0400 (Eastern Daylight Time),403861.90000000596,lead,900,I,m,m,None,534,334.0,200.0,122,1,1975.7999999970198,401886.10000000894,9023,lead,NF,C,399985,399985,398359,399269,398359,400335,399785,399785,400335,82
77,test,1,inc,1,m,Wed Jul 09 2025 15:40:47 GMT-0400 (Eastern Daylight Time),406061.90000000596,raisin,1100,I,m,m,None,558,359.0,199.0,72,1,2191.0,403870.90000000596,9023,bronze,NF,C,402168,402168,400344,401452,400344,402535,401969,401969,402535,83
78,test,1,con,1,m,Wed Jul 09 2025 15:40:47 GMT-0400 (Eastern Daylight Time),408279.0,lead,1000,I,m,m,None,681,482.0,199.0,123,1,2206.7999999970198,406072.200000003,9023,lead,NF,C,404269,404269,402545,403552,402546,404752,404069,404069,404752,84
79,test,1,inc,1,m,Wed Jul 09 2025 15:40:47 GMT-0400 (Eastern Daylight Time),410378.5,kiwi,1000,I,m,m,None,561,361.0,200.0,103,1,2089.199999988079,408289.3000000119,9023,gold,NF,C,406485,406486,404762,405769,404763,406852,406285,406285,406852,85
80,test,1,inc,1,m,Wed Jul 09 2025 15:40:47 GMT-0400 (Eastern Daylight Time),412361.8000000119,orange,1000,I,m,m,None,446,246.0,200.0,79,1,1974.9000000059605,410386.90000000596,9023,copper,NF,C,408585,408585,406860,407869,406860,408835,408385,408385,408835,86
81,test,1,inc,1,z,Wed Jul 09 2025 15:40:47 GMT-0400 (Eastern Daylight Time),414511.90000000596,lead,1100,I,z,z,None,505,306.0,199.0,64,1,2142.0,412369.90000000596,9023,plum,NF,C,410669,410669,408843,409952,408843,410985,410469,410469,410985,87
82,test,1,con,1,m,Wed Jul 09 2025 15:40:47 GMT-0400 (Eastern Daylight Time),416345.10000000894,bronze,800,I,m,m,None,496,296.0,200.0,65,1,1823.0,414522.10000000894,9023,bronze,NF,C,412519,412519,410995,411802,410996,412818,412318,412318,412818,88
83,test,1,con,1,m,Wed Jul 09 2025 15:40:47 GMT-0400 (Eastern Daylight Time),418261.90000000596,bronze,900,I,m,m,None,466,267.0,199.0,66,1,1908.7000000029802,416353.200000003,9023,bronze,NF,C,414452,414452,412826,413735,412827,414735,414252,414252,414735,89
84,test,1,con,1,z,Wed Jul 09 2025 15:40:47 GMT-0400 (Eastern Daylight Time),420411.8000000119,cherry,1100,I,z,z,None,509,310.0,199.0,12,1,2139.4000000059605,418272.40000000596,9023,cherry,NF,C,416569,416569,414745,415852,414746,416885,416368,416369,416885,90
85,test,1,inc,1,m,Wed Jul 09 2025 15:40:47 GMT-0400 (Eastern Daylight Time),422328.200000003,lime,800,I,m,m,None,579,380.0,199.0,125,1,1907.2000000029802,420421.0,9023,lead,NF,C,418419,418419,416894,417702,416894,418801,418219,418219,418801,91
86,test,1,inc,1,z,Wed Jul 09 2025 15:40:47 GMT-0400 (Eastern Daylight Time),424311.60000000894,copper,900,I,z,z,None,548,348.0,200.0,30,1,1972.9000000059605,422338.700000003,9023,raisin,NF,C,420435,420435,418812,419719,418812,420785,420235,420235,420785,92
87,test,1,inc,1,m,Wed Jul 09 2025 15:40:47 GMT-0400 (Eastern Daylight Time),426328.3000000119,kiwi,1000,I,m,m,None,480,281.0,199.0,119,1,2009.7000000029802,424318.60000000894,9023,zinc,NF,C,422519,422519,420792,421802,420792,422801,422319,422319,422801,93
88,test,1,con,1,z,Wed Jul 09 2025 15:40:47 GMT-0400 (Eastern Daylight Time),428095.200000003,plum,900,I,z,z,None,324,124.0,200.0,58,1,1758.5,426336.700000003,9023,plum,NF,C,424435,424435,422810,423719,422810,424568,424235,424235,424568,94
89,test,1,inc,1,m,Wed Jul 09 2025 15:40:47 GMT-0400 (Eastern Daylight Time),430261.90000000596,raisin,1100,I,m,m,None,516,317.0,199.0,88,1,2151.9000000059605,428110.0,9023,silver,NF,C,426402,426402,424583,425685,424584,426735,426202,426202,426735,95
89,test,1,inc,0,m,Wed Jul 09 2025 15:40:47 GMT-0400 (Eastern Daylight Time),432061.8000000119,pear,900,I,z,z,None,357,158.0,199.0,126,1,1791.300000011921,430270.5,9023,lead,NF,C,428369,428369,426744,427652,426744,428535,428169,428169,428535,96
90,test,1,con,1,z,Wed Jul 09 2025 15:40:47 GMT-0400 (Eastern Daylight Time),434261.90000000596,plum,1000,I,z,z,None,649,450.0,199.0,59,1,2186.2000000029802,432075.700000003,9023,plum,NF,C,430269,430269,428549,429552,428550,430735,430069,430069,430735,97
91,test,1,con,1,m,Wed Jul 09 2025 15:40:47 GMT-0400 (Eastern Daylight Time),436445.200000003,copper,1100,I,m,m,None,541,342.0,199.0,76,1,2174.0,434271.200000003,9023,copper,NF,C,432569,432569,430744,431852,430744,432918,432369,432369,432918,98
92,test,1,inc,1,z,Wed Jul 09 2025 15:40:47 GMT-0400 (Eastern Daylight Time),438395.10000000894,gold,800,I,z,z,None,610,411.0,199.0,61,1,1938.1000000089407,436457.0,9023,plum,NF,C,434452,434452,432930,433735,432930,434868,434252,434252,434868,99
93,test,1,con,1,z,Wed Jul 09 2025 15:40:47 GMT-0400 (Eastern Daylight Time),440312.700000003,lime,900,I,z,z,None,481,281.0,200.0,34,1,1908.8999999910593,438403.8000000119,9023,lime,NF,C,436502,436502,434877,435785,434877,436786,436302,436302,436786,100
94,test,1,con,1,z,Wed Jul 09 2025 15:40:47 GMT-0400 (Eastern Daylight Time),442361.8000000119,banana,1000,I,z,z,None,511,312.0,199.0,3,1,2040.4000000059605,440321.40000000596,9023,banana,NF,C,438519,438519,436794,437802,436795,438835,438319,438319,438835,101
95,test,1,con,1,z,Wed Jul 09 2025 15:40:47 GMT-0400 (Eastern Daylight Time),444195.3000000119,cherry,800,I,z,z,None,485,286.0,199.0,9,1,1823.1000000089407,442372.200000003,9023,cherry,NF,C,440369,440369,438845,439652,438846,440668,440169,440169,440668,102
96,test,1,con,1,m,Wed Jul 09 2025 15:40:47 GMT-0400 (Eastern Daylight Time),446211.8000000119,bronze,1000,I,m,m,None,469,269.0,200.0,67,1,2008.5,444203.3000000119,9023,bronze,NF,C,442402,442402,440676,441685,440677,442685,442202,442202,442685,103
97,test,1,con,1,z,Wed Jul 09 2025 15:40:47 GMT-0400 (Eastern Daylight Time),448161.5,pear,900,I,z,z,None,503,304.0,199.0,42,1,1941.0,446220.5,9023,pear,NF,C,444318,444319,442694,443602,442694,444635,444119,444119,444635,104
98,test,1,inc,1,z,Wed Jul 09 2025 15:40:47 GMT-0400 (Eastern Daylight Time),450128.5,bronze,800,I,z,z,None,622,423.0,199.0,29,1,1962.199999988079,448166.3000000119,9023,raisin,NF,C,446168,446168,444639,445452,444640,446602,445969,445969,446601,105
99,test,1,inc,1,z,Wed Jul 09 2025 15:40:47 GMT-0400 (Eastern Daylight Time),452295.10000000894,cobalt,1100,I,z,z,None,532,332.0,200.0,16,1,2158.9000000059605,450136.200000003,9023,cherry,NF,C,448435,448435,446609,447719,446610,448768,448235,448235,448768,106
100,test,1,con,1,z,Wed Jul 09 2025 15:40:47 GMT-0400 (Eastern Daylight Time),454461.90000000596,kiwi,1100,I,z,z,None,524,325.0,199.0,52,1,2159.2999999970198,452302.60000000894,9023,kiwi,NF,C,450602,450602,448776,449885,448776,450935,450402,450402,450935,107
101,test,1,inc,1,m,Wed Jul 09 2025 15:40:47 GMT-0400 (Eastern Daylight Time),456378.5,lime,800,I,m,m,None,577,378.0,199.0,101,1,1908.699999988079,454469.8000000119,9023,gold,NF,C,452469,452469,450943,451752,450943,452852,452269,452269,452851,108
101,test,1,inc,0,z,Wed Jul 09 2025 15:40:47 GMT-0400 (Eastern Daylight Time),458178.5,bronze,800,I,m,m,None,455,255.0,200.0,13,1,1788.5,456390.0,9023,cherry,NF,C,454385,454385,452863,453669,452863,454652,454185,454185,454652,109
102,test,1,con,1,z,Wed Jul 09 2025 15:40:47 GMT-0400 (Eastern Daylight Time),460294.700000003,lime,1100,I,z,z,None,481,281.0,200.0,36,1,2107.0999999940395,458187.60000000894,9023,lime,NF,C,456485,456485,454661,455768,454661,456768,456285,456285,456768,110
103,test,1,inc,1,m,Wed Jul 09 2025 15:40:47 GMT-0400 (Eastern Daylight Time),462445.3000000119,kiwi,1000,I,m,m,None,608,409.0,199.0,111,1,2144.2000000029802,460301.10000000894,9023,iron,NF,C,458502,458502,456774,457785,456775,458918,458302,458302,458918,111
104,test,1,con,1,m,Wed Jul 09 2025 15:40:47 GMT-0400 (Eastern Daylight Time),464361.60000000894,iron,800,I,m,m,None,577,378.0,199.0,105,1,1901.6000000089407,462460.0,9023,iron,NF,C,460452,460452,458933,459735,458934,460835,460252,460252,460835,112
105,test,1,con,1,z,Wed Jul 09 2025 15:40:47 GMT-0400 (Eastern Daylight Time),466661.5,pear,1100,I,z,z,None,649,450.0,199.0,44,1,2291.2999999970198,464370.200000003,9023,pear,NF,C,462669,462669,460843,461952,460844,463135,462469,462469,463134,113
106,test,1,con,1,m,Wed Jul 09 2025 15:40:47 GMT-0400 (Eastern Daylight Time),469045.10000000894,iron,1100,I,m,m,None,733,534.0,199.0,108,1,2378.7999999970198,466666.3000000119,9023,iron,NF,C,464969,464969,463139,464252,463140,465518,464769,464769,465518,114
107,test,1,con,1,z,Wed Jul 09 2025 15:40:47 GMT-0400 (Eastern Daylight Time),471345.200000003,raisin,1100,I,z,z,None,654,455.0,199.0,28,1,2291.2000000029802,469054.0,9023,raisin,NF,C,467352,467352,465527,466635,465527,467818,467152,467152,467818,115
108,test,1,con,1,m,Wed Jul 09 2025 15:40:47 GMT-0400 (Eastern Daylight Time),473695.200000003,silver,1100,I,m,m,None,707,507.0,200.0,84,1,2340.0999999940395,471355.10000000894,9023,silver,NF,C,469652,469652,467828,468935,467828,470168,469452,469452,470168,116
108,test,1,inc,0,m,Wed Jul 09 2025 15:40:47 GMT-0400 (Eastern Daylight Time),475461.90000000596,lime,800,I,z,z,None,433,233.0,200.0,109,1,1757.5,473704.40000000596,9023,iron,NF,C,471702,471702,470177,470985,470178,471935,471502,471502,471935,117
109,test,1,inc,1,z,Wed Jul 09 2025 15:40:47 GMT-0400 (Eastern Daylight Time),477462.0,iron,900,I,z,z,None,565,366.0,199.0,46,1,1993.5999999940395,475468.40000000596,9023,pear,NF,C,473569,473569,471941,472852,471942,473935,473369,473369,473935,118
110,test,1,inc,1,m,Wed Jul 09 2025 15:40:47 GMT-0400 (Eastern Daylight Time),479795.200000003,orange,1000,I,m,m,None,785,586.0,199.0,87,1,2328.3999999910593,477466.8000000119,9023,silver,NF,C,475669,475669,473940,474951,473940,476268,475469,475469,476268,119
111,test,1,inc,1,z,Wed Jul 09 2025 15:40:47 GMT-0400 (Eastern Daylight Time),481578.700000003,bronze,800,I,z,z,None,444,245.0,199.0,5,1,1774.8999999910593,479803.8000000119,9023,banana,NF,C,477802,477802,476277,477085,476277,478052,477602,477602,478052,120
112,test,1,con,1,m,Wed Jul 09 2025 15:40:47 GMT-0400 (Eastern Daylight Time),483511.5,cobalt,900,I,m,m,None,498,298.0,200.0,90,1,1917.8999999910593,481593.60000000894,9023,cobalt,NF,C,479685,479685,478067,478969,478067,479985,479485,479485,479985,121
112,test,1,con,0,z,Wed Jul 09 2025 15:40:47 GMT-0400 (Eastern Daylight Time),485595.0,orange,800,I,m,m,None,743,544.0,199.0,17,1,2075.699999988079,483519.3000000119,9023,orange,NF,C,481519,481519,479992,480802,479993,482068,481319,481319,482068,122
113,test,1,con,1,m,Wed Jul 09 2025 15:40:47 GMT-0400 (Eastern Daylight Time),487695.10000000894,copper,1000,I,m,m,None,557,357.0,200.0,75,1,2091.9000000059605,485603.200000003,9023,copper,NF,C,483802,483802,482076,483085,482077,484168,483602,483602,484168,123
114,test,1,con,1,m,Wed Jul 09 2025 15:40:47 GMT-0400 (Eastern Daylight Time),489461.90000000596,copper,800,I,m,m,None,416,217.0,199.0,73,1,1758.4000000059605,487703.5,9023,copper,NF,C,485702,485702,484177,484985,484177,485935,485502,485502,485935,124
115,test,1,inc,1,z,Wed Jul 09 2025 15:40:47 GMT-0400 (Eastern Daylight Time),491511.700000003,silver,1000,I,z,z,None,514,315.0,199.0,15,1,2041.0999999940395,489470.60000000894,9023,cherry,NF,C,487669,487669,485944,486952,485944,487985,487469,487469,487985,125
116,test,1,con,1,m,Wed Jul 09 2025 15:40:47 GMT-0400 (Eastern Daylight Time),493511.5,gold,800,I,m,m,None,663,464.0,199.0,97,1,1993.0999999940395,491518.40000000596,9023,gold,NF,C,489519,489519,487991,488802,487992,489985,489319,489319,489985,126
117,test,1,inc,1,z,Wed Jul 09 2025 15:40:47 GMT-0400 (Eastern Daylight Time),495545.10000000894,iron,900,I,z,z,None,595,396.0,199.0,54,1,2023.2999999970198,493521.8000000119,9023,kiwi,NF,C,491619,491619,489995,490902,489995,492018,491419,491419,492018,127
117,test,1,con,0,z,Wed Jul 09 2025 15:40:47 GMT-0400 (Eastern Daylight Time),497861.90000000596,pear,1000,I,m,m,None,766,567.0,199.0,43,1,2308.0999999940395,495553.8000000119,9023,pear,NF,C,493752,493752,492027,493035,492027,494335,493552,493552,494335,128
