acc_sum,block,block_c,change,condition,correct,correct_response,datetime,endtime,face,project,response,response_time,row_sel,session_number,start_end,starttime,subject_id,task,task_vers,trial
0,prac,1,,1-Back,,,Mon Aug 04 2025 14:50:54 GMT-0500 (Central Daylight Time),,124_o_f_d_a.png,O,space,2941,1,1,,,7197,VNB,A,0
1,prac,1,0.0,1-Back,1,m,Mon Aug 04 2025 14:50:54 GMT-0500 (Central Daylight Time),101083.39999985695,071_y_f_n_a.png,O,m,1233,2,1,2038.5999999046326,99044.79999995232,7197,VNB,A,1
2,prac,1,0.0,1-Back,1,m,Mon Aug 04 2025 14:50:54 GMT-0500 (Central Daylight Time),103148.09999990463,165_m_m_h_a.png,O,m,1279,3,1,2055.7999999523163,101092.29999995232,7197,VNB,A,2
3,prac,1,0.0,1-Back,1,m,Mon Aug 04 2025 14:50:54 GMT-0500 (Central Daylight Time),104997.89999985695,109_y_m_d_a.png,O,m,1056,4,1,1837.2999999523163,103160.59999990463,7197,VNB,A,3
4,prac,1,0.0,1-Back,1,m,Mon Aug 04 2025 14:50:54 GMT-0500 (Central Daylight Time),106964.5,124_o_f_n_a.png,O,m,1146,5,1,1955.9000000953674,105008.59999990463,7197,VNB,A,4
5,prac,1,1.0,1-Back,1,z,Mon Aug 04 2025 14:50:54 GMT-0500 (Central Daylight Time),108779.79999995232,109_y_m_n_a.png,O,z,1010,6,1,1801.7000000476837,106978.09999990463,7197,VNB,A,5
6,prac,1,0.0,1-Back,1,m,Mon Aug 04 2025 14:50:54 GMT-0500 (Central Daylight Time),110428.79999995232,039_o_m_h_a.png,O,m,847,7,1,1637.5999999046326,108791.20000004768,7197,VNB,A,6
7,prac,1,0.0,1-Back,1,m,Mon Aug 04 2025 14:50:54 GMT-0500 (Central Daylight Time),113012.39999985695,139_m_f_d_a.png,O,m,1784,8,1,2573.5999999046326,110438.79999995232,7197,VNB,A,7
7,prac,1,1.0,1-Back,0,z,Mon Aug 04 2025 14:50:54 GMT-0500 (Central Daylight Time),115144.5,071_y_f_d_a.png,O,m,1333,9,1,2120.600000143051,113023.89999985695,7197,VNB,A,8
8,prac,1,0.0,1-Back,1,m,Mon Aug 04 2025 14:50:54 GMT-0500 (Central Daylight Time),117794.5,165_m_m_n_a.png,O,m,1851,10,1,2638.7000000476837,115155.79999995232,7197,VNB,A,9
9,prac,1,0.0,1-Back,1,m,Mon Aug 04 2025 14:50:54 GMT-0500 (Central Daylight Time),120255.5,124_o_f_h_a.png,O,m,1640,11,1,2448.5,117807.0,7197,VNB,A,10
10,prac,1,0.0,1-Back,1,m,Mon Aug 04 2025 14:50:54 GMT-0500 (Central Daylight Time),122376.70000004768,109_y_m_d_a.png,O,m,1347,12,1,2112.800000190735,120263.89999985695,7197,VNB,A,11
0,test,1,0.0,1-Back,,,Mon Aug 04 2025 14:50:54 GMT-0500 (Central Daylight Time),122376.70000004768,071_y_f_d_a.png,O,space,4465,1,1,2112.800000190735,120263.89999985695,7197,VNB,A,0
1,test,1,0.0,1-Back,1,m,Mon Aug 04 2025 14:50:54 GMT-0500 (Central Daylight Time),134570.39999985695,139_m_f_n_a.png,O,m,1122,2,1,2143.5999999046326,132426.79999995232,7197,VNB,A,1
2,test,1,0.0,1-Back,1,m,Mon Aug 04 2025 14:50:54 GMT-0500 (Central Daylight Time),136455.0,039_o_m_h_a.png,O,m,857,3,1,1876.9000000953674,134578.09999990463,7197,VNB,A,2
3,test,1,1.0,1-Back,1,z,Mon Aug 04 2025 14:50:54 GMT-0500 (Central Daylight Time),138469.0,165_m_m_h_a.png,O,z,996,4,1,2004.5,136464.5,7197,VNB,A,3
4,test,1,0.0,1-Back,1,m,Mon Aug 04 2025 14:50:54 GMT-0500 (Central Daylight Time),140403.09999990463,124_o_f_n_a.png,O,m,915,5,1,1924.8999998569489,138478.20000004768,7197,VNB,A,4
5,test,1,0.0,1-Back,1,m,Mon Aug 04 2025 14:50:54 GMT-0500 (Central Daylight Time),142302.09999990463,109_y_m_d_a.png,O,m,878,6,1,1891.2000000476837,140410.89999985695,7197,VNB,A,5
6,test,1,1.0,1-Back,1,z,Mon Aug 04 2025 14:50:54 GMT-0500 (Central Daylight Time),144317.20000004768,139_m_f_d_a.png,O,z,987,7,1,2005.6000001430511,142311.59999990463,7197,VNB,A,6
7,test,1,0.0,1-Back,1,m,Mon Aug 04 2025 14:50:54 GMT-0500 (Central Daylight Time),146133.79999995232,071_y_f_h_a.png,O,m,785,8,1,1807.7999999523163,144326.0,7197,VNB,A,7
8,test,1,0.0,1-Back,1,m,Mon Aug 04 2025 14:50:54 GMT-0500 (Central Daylight Time),148149.59999990463,039_o_m_n_a.png,O,m,987,9,1,2005.7999999523163,146143.79999995232,7197,VNB,A,8
9,test,1,0.0,1-Back,1,m,Mon Aug 04 2025 14:50:54 GMT-0500 (Central Daylight Time),150299.0,109_y_m_h_a.png,O,m,1125,10,1,2140.9000000953674,148158.09999990463,7197,VNB,A,9
10,test,1,0.0,1-Back,1,m,Mon Aug 04 2025 14:50:54 GMT-0500 (Central Daylight Time),152248.29999995232,039_o_m_d_a.png,O,m,924,11,1,1938.9000000953674,150309.39999985695,7197,VNB,A,10
11,test,1,1.0,1-Back,1,z,Mon Aug 04 2025 14:50:54 GMT-0500 (Central Daylight Time),154098.5,124_o_f_d_a.png,O,z,831,12,1,1841.7000000476837,152256.79999995232,7197,VNB,A,11
12,test,1,0.0,1-Back,1,m,Mon Aug 04 2025 14:50:54 GMT-0500 (Central Daylight Time),155881.09999990463,165_m_m_n_a.png,O,m,752,13,1,1772.7000000476837,154108.39999985695,7197,VNB,A,12
13,test,1,1.0,1-Back,1,z,Mon Aug 04 2025 14:50:54 GMT-0500 (Central Daylight Time),157797.79999995232,071_y_f_n_a.png,O,z,899,14,1,1907.0,155890.79999995232,7197,VNB,A,13
14,test,1,0.0,1-Back,1,m,Mon Aug 04 2025 14:50:54 GMT-0500 (Central Daylight Time),159547.79999995232,139_m_f_h_a.png,O,m,733,15,1,1742.2999999523163,157805.5,7197,VNB,A,14
15,test,1,0.0,1-Back,1,m,Mon Aug 04 2025 14:50:54 GMT-0500 (Central Daylight Time),161511.70000004768,165_m_m_d_a.png,O,m,941,16,1,1954.6000001430511,159557.09999990463,7197,VNB,A,15
16,test,1,0.0,1-Back,1,m,Mon Aug 04 2025 14:50:54 GMT-0500 (Central Daylight Time),163795.70000004768,109_y_m_n_a.png,O,m,1257,17,1,2275.100000143051,161520.59999990463,7197,VNB,A,16
17,test,1,0.0,1-Back,1,m,Mon Aug 04 2025 14:50:54 GMT-0500 (Central Daylight Time),165677.5,124_o_f_h_a.png,O,m,864,18,1,1872.4000000953674,163805.09999990463,7197,VNB,A,17
0,test,2,0.0,1-Back,,,Mon Aug 04 2025 14:50:54 GMT-0500 (Central Daylight Time),165677.5,109_y_m_n_a.png,O,space,1076,1,1,1872.4000000953674,163805.09999990463,7197,VNB,A,0
1,test,2,0.0,1-Back,1,m,Mon Aug 04 2025 14:50:54 GMT-0500 (Central Daylight Time),170525.79999995232,071_y_f_h_a.png,O,m,716,2,1,1739.0999999046326,168786.70000004768,7197,VNB,A,1
2,test,2,1.0,1-Back,1,m,Mon Aug 04 2025 14:50:54 GMT-0500 (Central Daylight Time),172342.39999985695,039_o_m_n_a.png,O,m,786,3,1,1806.6999998092651,170535.70000004768,7197,VNB,A,2
2,test,2,0.0,1-Back,0,m,Mon Aug 04 2025 14:50:54 GMT-0500 (Central Daylight Time),174374.09999990463,139_m_f_d_a.png,O,z,1011,4,1,2021.0999999046326,172353.0,7197,VNB,A,3
2,test,2,0.0,1-Back,0,z,Mon Aug 04 2025 14:50:54 GMT-0500 (Central Daylight Time),176640.70000004768,165_m_m_d_a.png,O,m,1242,5,1,2255.800000190735,174384.89999985695,7197,VNB,A,4
3,test,2,0.0,1-Back,1,m,Mon Aug 04 2025 14:50:54 GMT-0500 (Central Daylight Time),178556.70000004768,109_y_m_h_a.png,O,m,897,6,1,1907.0,176649.70000004768,7197,VNB,A,5
4,test,2,1.0,1-Back,1,z,Mon Aug 04 2025 14:50:54 GMT-0500 (Central Daylight Time),180474.5,124_o_f_h_a.png,O,z,893,7,1,1907.7000000476837,178566.79999995232,7197,VNB,A,6
5,test,2,0.0,1-Back,1,m,Mon Aug 04 2025 14:50:54 GMT-0500 (Central Daylight Time),182622.09999990463,139_m_f_n_a.png,O,m,1129,8,1,2136.7000000476837,180485.39999985695,7197,VNB,A,7
6,test,2,0.0,1-Back,1,m,Mon Aug 04 2025 14:50:54 GMT-0500 (Central Daylight Time),184538.39999985695,071_y_f_d_a.png,O,m,890,9,1,1906.6999998092651,182631.70000004768,7197,VNB,A,8
7,test,2,0.0,1-Back,1,m,Mon Aug 04 2025 14:50:54 GMT-0500 (Central Daylight Time),186356.0,165_m_m_n_a.png,O,m,802,10,1,1806.4000000953674,184549.59999990463,7197,VNB,A,9
8,test,2,1.0,1-Back,1,m,Mon Aug 04 2025 14:50:54 GMT-0500 (Central Daylight Time),188254.20000004768,139_m_f_h_a.png,O,m,870,11,1,1887.4000000953674,186366.79999995232,7197,VNB,A,10
9,test,2,0.0,1-Back,1,z,Mon Aug 04 2025 14:50:54 GMT-0500 (Central Daylight Time),189937.5,039_o_m_h_a.png,O,z,660,12,1,1674.4000000953674,188263.09999990463,7197,VNB,A,11
10,test,2,0.0,1-Back,1,m,Mon Aug 04 2025 14:50:54 GMT-0500 (Central Daylight Time),191686.5,109_y_m_d_a.png,O,m,729,13,1,1739.4000000953674,189947.09999990463,7197,VNB,A,12
11,test,2,0.0,1-Back,1,m,Mon Aug 04 2025 14:50:54 GMT-0500 (Central Daylight Time),193419.0,124_o_f_n_a.png,O,m,706,14,1,1719.9000000953674,191699.09999990463,7197,VNB,A,13
12,test,2,0.0,1-Back,1,z,Mon Aug 04 2025 14:50:54 GMT-0500 (Central Daylight Time),194968.5,071_y_f_n_a.png,O,z,526,15,1,1538.4000000953674,193430.09999990463,7197,VNB,A,14
13,test,2,1.0,1-Back,1,m,Mon Aug 04 2025 14:50:54 GMT-0500 (Central Daylight Time),196618.39999985695,165_m_m_h_a.png,O,m,625,16,1,1639.5,194978.89999985695,7197,VNB,A,15
14,test,2,0.0,1-Back,1,m,Mon Aug 04 2025 14:50:54 GMT-0500 (Central Daylight Time),198385.5,124_o_f_d_a.png,O,m,735,17,1,1756.1000001430511,196629.39999985695,7197,VNB,A,16
15,test,2,1.0,1-Back,1,z,Mon Aug 04 2025 14:50:54 GMT-0500 (Central Daylight Time),200083.59999990463,039_o_m_d_a.png,O,z,672,18,1,1687.7999999523163,198395.79999995232,7197,VNB,A,17
0,test,3,1.0,1-Back,,,Mon Aug 04 2025 14:50:54 GMT-0500 (Central Daylight Time),200083.59999990463,124_o_f_h_a.png,O,space,1543,1,1,1687.7999999523163,198395.79999995232,7197,VNB,A,0
1,test,3,0.0,1-Back,1,m,Mon Aug 04 2025 14:50:54 GMT-0500 (Central Daylight Time),205398.39999985695,139_m_f_d_a.png,O,m,694,2,1,1703.7999999523163,203694.59999990463,7197,VNB,A,1
2,test,3,1.0,1-Back,1,m,Mon Aug 04 2025 14:50:54 GMT-0500 (Central Daylight Time),207365.39999985695,165_m_m_n_a.png,O,m,938,3,1,1957.8999998569489,205407.5,7197,VNB,A,2
3,test,3,0.0,1-Back,1,z,Mon Aug 04 2025 14:50:54 GMT-0500 (Central Daylight Time),209430.29999995232,124_o_f_n_a.png,O,z,1045,4,1,2055.2000000476837,207375.09999990463,7197,VNB,A,3
4,test,3,1.0,1-Back,1,m,Mon Aug 04 2025 14:50:54 GMT-0500 (Central Daylight Time),211148.09999990463,039_o_m_d_a.png,O,m,690,5,1,1710.8999998569489,209437.20000004768,7197,VNB,A,4
5,test,3,0.0,1-Back,1,m,Mon Aug 04 2025 14:50:54 GMT-0500 (Central Daylight Time),212862.20000004768,071_y_f_h_a.png,O,m,693,6,1,1702.8000001907349,211159.39999985695,7197,VNB,A,5
6,test,3,0.0,1-Back,1,z,Mon Aug 04 2025 14:50:54 GMT-0500 (Central Daylight Time),215045.20000004768,109_y_m_h_a.png,O,z,1165,7,1,2172.5,212872.70000004768,7197,VNB,A,6
7,test,3,0.0,1-Back,1,m,Mon Aug 04 2025 14:50:54 GMT-0500 (Central Daylight Time),216761.59999990463,139_m_f_n_a.png,O,m,694,8,1,1705.7000000476837,215055.89999985695,7197,VNB,A,7
8,test,3,0.0,1-Back,1,m,Mon Aug 04 2025 14:50:54 GMT-0500 (Central Daylight Time),218477.59999990463,071_y_f_d_a.png,O,m,696,9,1,1707.5,216770.09999990463,7197,VNB,A,8
9,test,3,1.0,1-Back,1,m,Mon Aug 04 2025 14:50:54 GMT-0500 (Central Daylight Time),220628.29999995232,039_o_m_n_a.png,O,m,1134,10,1,2140.0,218488.29999995232,7197,VNB,A,9
10,test,3,0.0,1-Back,1,m,Mon Aug 04 2025 14:50:54 GMT-0500 (Central Daylight Time),222411.09999990463,165_m_m_h_a.png,O,m,767,11,1,1772.0,220639.09999990463,7197,VNB,A,10
11,test,3,0.0,1-Back,1,z,Mon Aug 04 2025 14:50:54 GMT-0500 (Central Daylight Time),224010.89999985695,139_m_f_h_a.png,O,z,584,12,1,1590.0,222420.89999985695,7197,VNB,A,11
12,test,3,1.0,1-Back,1,m,Mon Aug 04 2025 14:50:54 GMT-0500 (Central Daylight Time),225774.0,124_o_f_d_a.png,O,m,742,13,1,1752.1000001430511,224021.89999985695,7197,VNB,A,12
13,test,3,0.0,1-Back,1,z,Mon Aug 04 2025 14:50:54 GMT-0500 (Central Daylight Time),228092.0,165_m_m_d_a.png,O,z,1293,14,1,2309.7999999523163,225782.20000004768,7197,VNB,A,13
14,test,3,0.0,1-Back,1,m,Mon Aug 04 2025 14:50:54 GMT-0500 (Central Daylight Time),229940.89999985695,109_y_m_n_a.png,O,m,823,15,1,1839.5999999046326,228101.29999995232,7197,VNB,A,14
15,test,3,1.0,1-Back,1,m,Mon Aug 04 2025 14:50:54 GMT-0500 (Central Daylight Time),231723.5,039_o_m_h_a.png,O,m,758,16,1,1771.5,229952.0,7197,VNB,A,15
16,test,3,0.0,1-Back,1,m,Mon Aug 04 2025 14:50:54 GMT-0500 (Central Daylight Time),233472.39999985695,109_y_m_d_a.png,O,m,726,17,1,1738.5999999046326,231733.79999995232,7197,VNB,A,16
17,test,3,1.0,1-Back,1,m,Mon Aug 04 2025 14:50:54 GMT-0500 (Central Daylight Time),235439.29999995232,071_y_f_n_a.png,O,m,944,18,1,1959.0,233480.29999995232,7197,VNB,A,17
0,test,4,1.0,1-Back,,,Mon Aug 04 2025 14:50:54 GMT-0500 (Central Daylight Time),235439.29999995232,165_m_m_d_a.png,O,space,954,1,1,1959.0,233480.29999995232,7197,VNB,A,0
1,test,4,0.0,1-Back,1,z,Mon Aug 04 2025 14:50:54 GMT-0500 (Central Daylight Time),241436.29999995232,039_o_m_d_a.png,O,z,1987,2,1,3010.2000000476837,238426.09999990463,7197,VNB,A,1
2,test,4,0.0,1-Back,1,m,Mon Aug 04 2025 14:50:54 GMT-0500 (Central Daylight Time),243284.79999995232,109_y_m_h_a.png,O,m,819,3,1,1839.0999999046326,241445.70000004768,7197,VNB,A,2
3,test,4,0.0,1-Back,1,m,Mon Aug 04 2025 14:50:54 GMT-0500 (Central Daylight Time),245169.09999990463,139_m_f_n_a.png,O,m,850,4,1,1878.5,243290.59999990463,7197,VNB,A,3
4,test,4,1.0,1-Back,1,m,Mon Aug 04 2025 14:50:54 GMT-0500 (Central Daylight Time),247102.5,124_o_f_h_a.png,O,m,903,5,1,1923.2000000476837,245179.29999995232,7197,VNB,A,4
5,test,4,0.0,1-Back,1,m,Mon Aug 04 2025 14:50:54 GMT-0500 (Central Daylight Time),248783.09999990463,165_m_m_n_a.png,O,m,652,6,1,1670.7999999523163,247112.29999995232,7197,VNB,A,5
6,test,4,0.0,1-Back,1,m,Mon Aug 04 2025 14:50:54 GMT-0500 (Central Daylight Time),250516.29999995232,109_y_m_d_a.png,O,m,704,7,1,1723.5,248792.79999995232,7197,VNB,A,6
6,test,4,1.0,1-Back,0,z,Mon Aug 04 2025 14:50:54 GMT-0500 (Central Daylight Time),252733.59999990463,071_y_f_d_a.png,O,m,1182,8,1,2209.2999999523163,250524.29999995232,7197,VNB,A,7
6,test,4,0.0,1-Back,0,m,Mon Aug 04 2025 14:50:54 GMT-0500 (Central Daylight Time),254766.39999985695,139_m_f_h_a.png,O,z,1005,9,1,2022.2999999523163,252744.09999990463,7197,VNB,A,8
7,test,4,0.0,1-Back,1,z,Mon Aug 04 2025 14:50:54 GMT-0500 (Central Daylight Time),256448.70000004768,039_o_m_h_a.png,O,z,651,10,1,1670.8000001907349,254777.89999985695,7197,VNB,A,9
8,test,4,1.0,1-Back,1,m,Mon Aug 04 2025 14:50:54 GMT-0500 (Central Daylight Time),258131.59999990463,124_o_f_n_a.png,O,m,658,11,1,1673.0999999046326,256458.5,7197,VNB,A,10
9,test,4,0.0,1-Back,1,m,Mon Aug 04 2025 14:50:54 GMT-0500 (Central Daylight Time),260363.79999995232,139_m_f_d_a.png,O,m,1215,12,1,2222.4000000953674,258141.39999985695,7197,VNB,A,11
10,test,4,0.0,1-Back,1,m,Mon Aug 04 2025 14:50:54 GMT-0500 (Central Daylight Time),262164.39999985695,071_y_f_n_a.png,O,m,783,13,1,1789.5,260374.89999985695,7197,VNB,A,12
10,test,4,0.0,1-Back,0,m,Mon Aug 04 2025 14:50:54 GMT-0500 (Central Daylight Time),264029.39999985695,124_o_f_d_a.png,O,z,833,14,1,1855.1999998092651,262174.2000000477,7197,VNB,A,13
11,test,4,0.0,1-Back,1,m,Mon Aug 04 2025 14:50:54 GMT-0500 (Central Daylight Time),265895.2999999523,071_y_f_h_a.png,O,m,835,15,1,1857.2000000476837,264038.09999990463,7197,VNB,A,14
12,test,4,1.0,1-Back,1,z,Mon Aug 04 2025 14:50:54 GMT-0500 (Central Daylight Time),267813.2000000477,165_m_m_h_a.png,O,z,899,16,1,1912.6000001430511,265900.59999990463,7197,VNB,A,15
13,test,4,0.0,1-Back,1,m,Mon Aug 04 2025 14:50:54 GMT-0500 (Central Daylight Time),269562.0,039_o_m_n_a.png,O,m,717,17,1,1740.2999999523163,267821.7000000477,7197,VNB,A,16
13,test,4,1.0,1-Back,0,z,Mon Aug 04 2025 14:50:54 GMT-0500 (Central Daylight Time),271426.59999990463,109_y_m_n_a.png,O,m,841,18,1,1854.8999998569489,269571.7000000477,7197,VNB,A,17
0,test,5,1.0,1-Back,,,Mon Aug 04 2025 14:50:54 GMT-0500 (Central Daylight Time),271426.59999990463,039_o_m_n_a.png,O,space,927,1,1,1854.8999998569489,269571.7000000477,7197,VNB,A,0
1,test,5,1.0,1-Back,1,m,Mon Aug 04 2025 14:50:54 GMT-0500 (Central Daylight Time),276260.59999990463,124_o_f_h_a.png,O,m,866,2,1,1874.7000000476837,274385.89999985695,7197,VNB,A,1
2,test,5,0.0,1-Back,1,m,Mon Aug 04 2025 14:50:54 GMT-0500 (Central Daylight Time),278207.5,109_y_m_d_a.png,O,m,918,3,1,1938.2000000476837,276269.2999999523,7197,VNB,A,2
3,test,5,0.0,1-Back,1,z,Mon Aug 04 2025 14:50:54 GMT-0500 (Central Daylight Time),279957.7999999523,039_o_m_d_a.png,O,z,729,4,1,1740.0999999046326,278217.7000000477,7197,VNB,A,3
4,test,5,0.0,1-Back,1,m,Mon Aug 04 2025 14:50:54 GMT-0500 (Central Daylight Time),281690.2000000477,139_m_f_h_a.png,O,m,701,5,1,1722.5,279967.7000000477,7197,VNB,A,4
5,test,5,0.0,1-Back,1,m,Mon Aug 04 2025 14:50:54 GMT-0500 (Central Daylight Time),283508.39999985695,071_y_f_n_a.png,O,m,801,6,1,1806.6999998092651,281701.7000000477,7197,VNB,A,5
6,test,5,1.0,1-Back,1,z,Mon Aug 04 2025 14:50:54 GMT-0500 (Central Daylight Time),285490.7999999523,124_o_f_n_a.png,O,z,966,7,1,1974.2000000476837,283516.59999990463,7197,VNB,A,6
7,test,5,0.0,1-Back,1,m,Mon Aug 04 2025 14:50:54 GMT-0500 (Central Daylight Time),287488.7000000477,139_m_f_d_a.png,O,m,976,8,1,1990.5,285498.2000000477,7197,VNB,A,7
8,test,5,0.0,1-Back,1,m,Mon Aug 04 2025 14:50:54 GMT-0500 (Central Daylight Time),289204.0,109_y_m_h_a.png,O,m,688,9,1,1705.2999999523163,287498.7000000477,7197,VNB,A,8
9,test,5,0.0,1-Back,1,m,Mon Aug 04 2025 14:50:54 GMT-0500 (Central Daylight Time),291471.09999990463,071_y_f_d_a.png,O,m,1237,10,1,2257.5999999046326,289213.5,7197,VNB,A,9
10,test,5,0.0,1-Back,1,m,Mon Aug 04 2025 14:50:54 GMT-0500 (Central Daylight Time),293170.2000000477,165_m_m_n_a.png,O,m,675,11,1,1688.8000001907349,291481.39999985695,7197,VNB,A,10
11,test,5,1.0,1-Back,1,z,Mon Aug 04 2025 14:50:54 GMT-0500 (Central Daylight Time),294936.09999990463,139_m_f_n_a.png,O,z,744,12,1,1756.5,293179.59999990463,7197,VNB,A,11
12,test,5,0.0,1-Back,1,m,Mon Aug 04 2025 14:50:54 GMT-0500 (Central Daylight Time),296552.59999990463,039_o_m_h_a.png,O,m,594,13,1,1607.2000000476837,294945.39999985695,7197,VNB,A,12
13,test,5,0.0,1-Back,1,z,Mon Aug 04 2025 14:50:54 GMT-0500 (Central Daylight Time),298934.59999990463,165_m_m_h_a.png,O,z,1353,14,1,2372.899999856949,296561.7000000477,7197,VNB,A,13
14,test,5,1.0,1-Back,1,m,Mon Aug 04 2025 14:50:54 GMT-0500 (Central Daylight Time),300768.0,124_o_f_d_a.png,O,m,802,15,1,1824.1000001430511,298943.89999985695,7197,VNB,A,14
15,test,5,0.0,1-Back,1,m,Mon Aug 04 2025 14:50:54 GMT-0500 (Central Daylight Time),302583.7999999523,109_y_m_n_a.png,O,m,793,16,1,1805.4000000953674,300778.39999985695,7197,VNB,A,15
16,test,5,0.0,1-Back,1,m,Mon Aug 04 2025 14:50:54 GMT-0500 (Central Daylight Time),304451.2999999523,071_y_f_h_a.png,O,m,841,17,1,1858.0,302593.2999999523,7197,VNB,A,16
17,test,5,0.0,1-Back,1,m,Mon Aug 04 2025 14:50:54 GMT-0500 (Central Daylight Time),306267.2000000477,165_m_m_d_a.png,O,m,785,18,1,1805.1000001430511,304462.09999990463,7197,VNB,A,17
0,prac,1,0.0,2-Back,,,Mon Aug 04 2025 14:50:54 GMT-0500 (Central Daylight Time),306267.2000000477,139_m_f_n_a.png,O,space,2900,1,1,1805.1000001430511,304462.09999990463,7197,VNB,A,0
0,prac,1,0.0,2-Back,,,Mon Aug 04 2025 14:50:54 GMT-0500 (Central Daylight Time),306267.2000000477,124_o_f_h_a.png,O,space,2900,2,1,1805.1000001430511,304462.09999990463,7197,VNB,A,0
0,prac,1,0.0,2-Back,0,m,Mon Aug 04 2025 14:50:54 GMT-0500 (Central Daylight Time),379010.0,039_o_m_d_a.png,O,None,2001,3,1,2786.7000000476837,376223.2999999523,7197,VNB,A,1
1,prac,1,1.0,2-Back,1,z,Mon Aug 04 2025 14:50:54 GMT-0500 (Central Daylight Time),381210.39999985695,165_m_m_h_a.png,O,z,1384,4,1,2189.7999999523163,379020.59999990463,7197,VNB,A,2
2,prac,1,0.0,2-Back,1,m,Mon Aug 04 2025 14:50:54 GMT-0500 (Central Daylight Time),383474.7999999523,071_y_f_n_a.png,O,m,1456,5,1,2253.7000000476837,381221.09999990463,7197,VNB,A,3
3,prac,1,1.0,2-Back,1,z,Mon Aug 04 2025 14:50:54 GMT-0500 (Central Daylight Time),385825.0,039_o_m_h_a.png,O,z,1574,6,1,2339.9000000953674,383485.09999990463,7197,VNB,A,4
3,prac,1,1.0,2-Back,0,z,Mon Aug 04 2025 14:50:54 GMT-0500 (Central Daylight Time),387790.7000000477,109_y_m_n_a.png,O,m,1149,7,1,1955.6000001430511,385835.09999990463,7197,VNB,A,5
4,prac,1,0.0,2-Back,1,m,Mon Aug 04 2025 14:50:54 GMT-0500 (Central Daylight Time),390189.89999985695,139_m_f_d_a.png,O,m,1596,8,1,2388.5999999046326,387801.2999999523,7197,VNB,A,6
4,prac,1,0.0,2-Back,0,m,Mon Aug 04 2025 14:50:54 GMT-0500 (Central Daylight Time),393038.59999990463,124_o_f_d_a.png,O,None,2017,9,1,2837.0,390201.59999990463,7197,VNB,A,7
5,prac,1,0.0,2-Back,1,m,Mon Aug 04 2025 14:50:54 GMT-0500 (Central Daylight Time),395238.7999999523,165_m_m_h_a.png,O,m,1416,10,1,2188.4000000953674,393050.39999985695,7197,VNB,A,8
5,prac,1,1.0,2-Back,0,z,Mon Aug 04 2025 14:50:54 GMT-0500 (Central Daylight Time),397937.39999985695,071_y_f_d_a.png,O,m,1894,11,1,2688.5,395248.89999985695,7197,VNB,A,9
5,prac,1,0.0,2-Back,0,m,Mon Aug 04 2025 14:50:54 GMT-0500 (Central Daylight Time),400504.7000000477,039_o_m_n_a.png,O,z,1774,12,1,2555.100000143051,397949.59999990463,7197,VNB,A,10
0,prac,2,0.0,2-Back,,,Mon Aug 04 2025 14:50:54 GMT-0500 (Central Daylight Time),400504.7000000477,139_m_f_n_a.png,O,a,7075,1,1,2555.100000143051,397949.59999990463,7197,VNB,A,0
0,prac,2,0.0,2-Back,,,Mon Aug 04 2025 14:50:54 GMT-0500 (Central Daylight Time),400504.7000000477,124_o_f_h_a.png,O,a,7075,2,1,2555.100000143051,397949.59999990463,7197,VNB,A,0
1,prac,2,0.0,2-Back,1,m,Mon Aug 04 2025 14:50:54 GMT-0500 (Central Daylight Time),415364.09999990463,039_o_m_d_a.png,O,m,1847,3,1,2637.5,412726.59999990463,7197,VNB,A,1
2,prac,2,1.0,2-Back,1,z,Mon Aug 04 2025 14:50:54 GMT-0500 (Central Daylight Time),417082.2999999523,165_m_m_h_a.png,O,z,939,4,1,1705.5999999046326,415376.7000000477,7197,VNB,A,2
3,prac,2,0.0,2-Back,1,m,Mon Aug 04 2025 14:50:54 GMT-0500 (Central Daylight Time),419747.7000000477,071_y_f_n_a.png,O,m,1863,5,1,2653.0,417094.7000000477,7197,VNB,A,3
4,prac,2,1.0,2-Back,1,z,Mon Aug 04 2025 14:50:54 GMT-0500 (Central Daylight Time),422031.2000000477,039_o_m_h_a.png,O,z,1471,6,1,2272.300000190735,419758.89999985695,7197,VNB,A,4
4,prac,2,1.0,2-Back,0,z,Mon Aug 04 2025 14:50:54 GMT-0500 (Central Daylight Time),424578.09999990463,109_y_m_n_a.png,O,m,1740,7,1,2536.0,422042.09999990463,7197,VNB,A,5
4,prac,2,0.0,2-Back,0,m,Mon Aug 04 2025 14:50:54 GMT-0500 (Central Daylight Time),427394.7999999523,139_m_f_d_a.png,O,None,2015,8,1,2804.2999999523163,424590.5,7197,VNB,A,6
5,prac,2,0.0,2-Back,1,m,Mon Aug 04 2025 14:50:54 GMT-0500 (Central Daylight Time),429694.7999999523,124_o_f_d_a.png,O,m,1468,9,1,2289.2999999523163,427405.5,7197,VNB,A,7
6,prac,2,0.0,2-Back,1,m,Mon Aug 04 2025 14:50:54 GMT-0500 (Central Daylight Time),432110.7999999523,165_m_m_h_a.png,O,m,1650,10,1,2406.0999999046326,429704.7000000477,7197,VNB,A,8
7,prac,2,1.0,2-Back,1,z,Mon Aug 04 2025 14:50:54 GMT-0500 (Central Daylight Time),433959.5,071_y_f_d_a.png,O,z,1047,11,1,1839.2000000476837,432120.2999999523,7197,VNB,A,9
8,prac,2,0.0,2-Back,1,m,Mon Aug 04 2025 14:50:54 GMT-0500 (Central Daylight Time),436093.39999985695,039_o_m_n_a.png,O,m,1333,12,1,2122.399999856949,433971.0,7197,VNB,A,10
0,test,1,0.0,2-Back,,,Mon Aug 04 2025 14:50:54 GMT-0500 (Central Daylight Time),436093.39999985695,109_y_m_h_a.png,O,space,4562,1,1,2122.399999856949,433971.0,7197,VNB,A,0
0,test,1,0.0,2-Back,,,Mon Aug 04 2025 14:50:54 GMT-0500 (Central Daylight Time),436093.39999985695,124_o_f_n_a.png,O,space,4562,2,1,2122.399999856949,433971.0,7197,VNB,A,0
1,test,1,0.0,2-Back,1,z,Mon Aug 04 2025 14:50:54 GMT-0500 (Central Daylight Time),454255.59999990463,039_o_m_h_a.png,O,z,914,3,1,1923.2000000476837,452332.39999985695,7197,VNB,A,1
2,test,1,0.0,2-Back,1,m,Mon Aug 04 2025 14:50:54 GMT-0500 (Central Daylight Time),456319.09999990463,139_m_f_d_a.png,O,m,1038,4,1,2053.7000000476837,454265.39999985695,7197,VNB,A,2
2,test,1,1.0,2-Back,0,m,Mon Aug 04 2025 14:50:54 GMT-0500 (Central Daylight Time),459352.2000000477,109_y_m_n_a.png,O,None,2015,5,1,3022.100000143051,456330.09999990463,7197,VNB,A,3
2,test,1,0.0,2-Back,0,z,Mon Aug 04 2025 14:50:54 GMT-0500 (Central Daylight Time),461868.2999999523,071_y_f_d_a.png,O,m,1499,6,1,2506.0999999046326,459362.2000000477,7197,VNB,A,4
3,test,1,0.0,2-Back,1,m,Mon Aug 04 2025 14:50:54 GMT-0500 (Central Daylight Time),464232.7999999523,165_m_m_h_a.png,O,m,1333,7,1,2354.0999999046326,461878.7000000477,7197,VNB,A,5
4,test,1,1.0,2-Back,1,m,Mon Aug 04 2025 14:50:54 GMT-0500 (Central Daylight Time),467014.59999990463,071_y_f_n_a.png,O,m,1753,8,1,2772.399999856949,464242.2000000477,7197,VNB,A,6
5,test,1,0.0,2-Back,1,z,Mon Aug 04 2025 14:50:54 GMT-0500 (Central Daylight Time),469263.2000000477,124_o_f_h_a.png,O,z,1218,9,1,2237.800000190735,467025.39999985695,7197,VNB,A,7
5,test,1,0.0,2-Back,0,m,Mon Aug 04 2025 14:50:54 GMT-0500 (Central Daylight Time),471846.2000000477,039_o_m_d_a.png,O,z,1561,10,1,2573.600000143051,469272.59999990463,7197,VNB,A,8
5,test,1,1.0,2-Back,0,m,Mon Aug 04 2025 14:50:54 GMT-0500 (Central Daylight Time),474711.39999985695,165_m_m_d_a.png,O,z,1833,11,1,2855.2999999523163,471856.09999990463,7197,VNB,A,9
6,test,1,0.0,2-Back,1,m,Mon Aug 04 2025 14:50:54 GMT-0500 (Central Daylight Time),477279.0,139_m_f_n_a.png,O,m,1548,12,1,2556.9000000953674,474722.09999990463,7197,VNB,A,10
7,test,1,0.0,2-Back,1,m,Mon Aug 04 2025 14:50:54 GMT-0500 (Central Daylight Time),480111.39999985695,071_y_f_h_a.png,O,m,1802,13,1,2821.5,477289.89999985695,7197,VNB,A,11
8,test,1,0.0,2-Back,1,z,Mon Aug 04 2025 14:50:54 GMT-0500 (Central Daylight Time),482293.09999990463,165_m_m_n_a.png,O,z,1153,14,1,2170.7999999523163,480122.2999999523,7197,VNB,A,12
8,test,1,0.0,2-Back,0,m,Mon Aug 04 2025 14:50:54 GMT-0500 (Central Daylight Time),485276.0,109_y_m_d_a.png,O,z,1958,15,1,2972.2999999523163,482303.7000000477,7197,VNB,A,13
9,test,1,1.0,2-Back,1,m,Mon Aug 04 2025 14:50:54 GMT-0500 (Central Daylight Time),487425.2999999523,139_m_f_h_a.png,O,m,1125,16,1,2138.7000000476837,485286.59999990463,7197,VNB,A,14
9,test,1,0.0,2-Back,0,z,Mon Aug 04 2025 14:50:54 GMT-0500 (Central Daylight Time),489874.5,124_o_f_d_a.png,O,m,1432,17,1,2439.5,487435.0,7197,VNB,A,15
9,test,1,0.0,2-Back,0,m,Mon Aug 04 2025 14:50:54 GMT-0500 (Central Daylight Time),492907.5,039_o_m_n_a.png,O,None,2015,18,1,3024.9000000953674,489882.59999990463,7197,VNB,A,16
0,test,2,0.0,2-Back,,,Mon Aug 04 2025 14:50:54 GMT-0500 (Central Daylight Time),492907.5,165_m_m_h_a.png,O,space,1190,1,1,3024.9000000953674,489882.59999990463,7197,VNB,A,0
0,test,2,0.0,2-Back,,,Mon Aug 04 2025 14:50:54 GMT-0500 (Central Daylight Time),492907.5,071_y_f_n_a.png,O,space,1190,2,1,3024.9000000953674,489882.59999990463,7197,VNB,A,0
1,test,2,1.0,2-Back,1,z,Mon Aug 04 2025 14:50:54 GMT-0500 (Central Daylight Time),501354.89999985695,124_o_f_h_a.png,O,z,1149,3,1,2159.699999809265,499195.2000000477,7197,VNB,A,1
2,test,2,0.0,2-Back,1,m,Mon Aug 04 2025 14:50:54 GMT-0500 (Central Daylight Time),503536.5,039_o_m_d_a.png,O,m,1159,4,1,2171.2999999523163,501365.2000000477,7197,VNB,A,2
3,test,2,0.0,2-Back,1,m,Mon Aug 04 2025 14:50:54 GMT-0500 (Central Daylight Time),506551.5,139_m_f_d_a.png,O,m,1992,5,1,3007.4000000953674,503544.09999990463,7197,VNB,A,3
3,test,2,0.0,2-Back,0,m,Mon Aug 04 2025 14:50:54 GMT-0500 (Central Daylight Time),508667.2000000477,109_y_m_h_a.png,O,z,1089,6,1,2107.7000000476837,506559.5,7197,VNB,A,4
3,test,2,0.0,2-Back,0,m,Mon Aug 04 2025 14:50:54 GMT-0500 (Central Daylight Time),511166.59999990463,124_o_f_n_a.png,O,z,1476,7,1,2490.0,508676.59999990463,7197,VNB,A,5
4,test,2,1.0,2-Back,1,z,Mon Aug 04 2025 14:50:54 GMT-0500 (Central Daylight Time),513884.0,039_o_m_h_a.png,O,z,1688,8,1,2707.9000000953674,511176.09999990463,7197,VNB,A,6
5,test,2,0.0,2-Back,1,m,Mon Aug 04 2025 14:50:54 GMT-0500 (Central Daylight Time),516749.0,071_y_f_d_a.png,O,m,1834,9,1,2856.100000143051,513892.89999985695,7197,VNB,A,7
6,test,2,0.0,2-Back,1,m,Mon Aug 04 2025 14:50:54 GMT-0500 (Central Daylight Time),519631.7999999523,109_y_m_d_a.png,O,m,1852,10,1,2872.4000000953674,516759.39999985695,7197,VNB,A,8
6,test,2,0.0,2-Back,0,m,Mon Aug 04 2025 14:50:54 GMT-0500 (Central Daylight Time),522663.7999999523,165_m_m_n_a.png,O,None,2014,11,1,3021.7000000476837,519642.09999990463,7197,VNB,A,9
6,test,2,0.0,2-Back,0,m,Mon Aug 04 2025 14:50:54 GMT-0500 (Central Daylight Time),525697.2000000477,139_m_f_h_a.png,O,None,2017,12,1,3023.4000000953674,522673.7999999523,7197,VNB,A,10
6,test,2,1.0,2-Back,0,z,Mon Aug 04 2025 14:50:54 GMT-0500 (Central Daylight Time),528729.5999999046,039_o_m_n_a.png,O,None,2016,13,1,3021.7000000476837,525707.899999857,7197,VNB,A,11
7,test,2,0.0,2-Back,1,m,Mon Aug 04 2025 14:50:54 GMT-0500 (Central Daylight Time),531612.5999999046,124_o_f_d_a.png,O,m,1850,14,1,2873.399999856949,528739.2000000477,7197,VNB,A,12
7,test,2,0.0,2-Back,0,m,Mon Aug 04 2025 14:50:54 GMT-0500 (Central Daylight Time),534178.2999999523,071_y_f_h_a.png,O,z,1552,15,1,2556.5,531621.7999999523,7197,VNB,A,13
8,test,2,0.0,2-Back,1,z,Mon Aug 04 2025 14:50:54 GMT-0500 (Central Daylight Time),536825.5,165_m_m_d_a.png,O,z,1616,16,1,2636.4000000953674,534189.0999999046,7197,VNB,A,14
9,test,2,0.0,2-Back,1,m,Mon Aug 04 2025 14:50:54 GMT-0500 (Central Daylight Time),539624.5999999046,109_y_m_n_a.png,O,m,1766,17,1,2789.7000000476837,536834.899999857,7197,VNB,A,15
9,test,2,1.0,2-Back,0,m,Mon Aug 04 2025 14:50:54 GMT-0500 (Central Daylight Time),542658.0,139_m_f_n_a.png,O,None,2016,18,1,3023.9000000953674,539634.0999999046,7197,VNB,A,16
0,test,3,1.0,2-Back,,,Mon Aug 04 2025 14:50:54 GMT-0500 (Central Daylight Time),542658.0,039_o_m_n_a.png,O,space,1103,1,1,3023.9000000953674,539634.0999999046,7197,VNB,A,0
0,test,3,1.0,2-Back,,,Mon Aug 04 2025 14:50:54 GMT-0500 (Central Daylight Time),542658.0,124_o_f_d_a.png,O,space,1103,2,1,3023.9000000953674,539634.0999999046,7197,VNB,A,0
1,test,3,0.0,2-Back,1,m,Mon Aug 04 2025 14:50:54 GMT-0500 (Central Daylight Time),551404.7000000477,071_y_f_h_a.png,O,m,1556,3,1,2571.300000190735,548833.399999857,7197,VNB,A,1
2,test,3,0.0,2-Back,1,z,Mon Aug 04 2025 14:50:54 GMT-0500 (Central Daylight Time),553521.2999999523,139_m_f_d_a.png,O,z,1083,4,1,2104.5999999046326,551416.7000000477,7197,VNB,A,2
2,test,3,1.0,2-Back,0,m,Mon Aug 04 2025 14:50:54 GMT-0500 (Central Daylight Time),556554.0,109_y_m_n_a.png,O,None,2016,5,1,3021.600000143051,553532.399999857,7197,VNB,A,3
2,test,3,0.0,2-Back,0,m,Mon Aug 04 2025 14:50:54 GMT-0500 (Central Daylight Time),559002.7000000477,039_o_m_h_a.png,O,z,1432,6,1,2438.2000000476837,556564.5,7197,VNB,A,4
3,test,3,0.0,2-Back,1,z,Mon Aug 04 2025 14:50:54 GMT-0500 (Central Daylight Time),561266.0999999046,071_y_f_n_a.png,O,z,1248,7,1,2256.0,559010.0999999046,7197,VNB,A,5
4,test,3,1.0,2-Back,1,m,Mon Aug 04 2025 14:50:54 GMT-0500 (Central Daylight Time),563851.5999999046,165_m_m_d_a.png,O,m,1553,8,1,2579.399999856949,561272.2000000477,7197,VNB,A,6
5,test,3,0.0,2-Back,1,m,Mon Aug 04 2025 14:50:54 GMT-0500 (Central Daylight Time),566067.0999999046,109_y_m_d_a.png,O,m,1191,9,1,2205.2000000476837,563861.899999857,7197,VNB,A,7
5,test,3,0.0,2-Back,0,m,Mon Aug 04 2025 14:50:54 GMT-0500 (Central Daylight Time),568433.2999999523,124_o_f_h_a.png,O,z,1342,10,1,2355.0999999046326,566078.2000000477,7197,VNB,A,8
5,test,3,1.0,2-Back,0,m,Mon Aug 04 2025 14:50:54 GMT-0500 (Central Daylight Time),571466.0,139_m_f_n_a.png,O,None,2017,11,1,3018.7000000476837,568447.2999999523,7197,VNB,A,9
5,test,3,1.0,2-Back,0,z,Mon Aug 04 2025 14:50:54 GMT-0500 (Central Daylight Time),573531.2999999523,165_m_m_h_a.png,O,m,1050,12,1,2053.9000000953674,571477.399999857,7197,VNB,A,10
5,test,3,0.0,2-Back,0,m,Mon Aug 04 2025 14:50:54 GMT-0500 (Central Daylight Time),576096.899999857,071_y_f_d_a.png,O,z,1543,13,1,2554.0,573542.899999857,7197,VNB,A,11
6,test,3,0.0,2-Back,1,m,Mon Aug 04 2025 14:50:54 GMT-0500 (Central Daylight Time),578644.7999999523,124_o_f_n_a.png,O,m,1518,14,1,2536.7000000476837,576108.0999999046,7197,VNB,A,12
6,test,3,0.0,2-Back,0,z,Mon Aug 04 2025 14:50:54 GMT-0500 (Central Daylight Time),581164.2999999523,039_o_m_d_a.png,O,m,1502,15,1,2513.9000000953674,578650.399999857,7197,VNB,A,13
6,test,3,1.0,2-Back,0,m,Mon Aug 04 2025 14:50:54 GMT-0500 (Central Daylight Time),583811.399999857,139_m_f_h_a.png,O,z,1623,16,1,2636.7999999523163,581174.5999999046,7197,VNB,A,14
6,test,3,0.0,2-Back,0,m,Mon Aug 04 2025 14:50:54 GMT-0500 (Central Daylight Time),586844.0999999046,165_m_m_n_a.png,O,None,2015,17,1,3021.7999999523163,583822.2999999523,7197,VNB,A,15
7,test,3,0.0,2-Back,1,z,Mon Aug 04 2025 14:50:54 GMT-0500 (Central Daylight Time),588626.7000000477,109_y_m_h_a.png,O,z,752,18,1,1771.8000001907349,586854.899999857,7197,VNB,A,16
0,test,4,0.0,2-Back,,,Mon Aug 04 2025 14:50:54 GMT-0500 (Central Daylight Time),588626.7000000477,139_m_f_n_a.png,O,space,1143,1,1,1771.8000001907349,586854.899999857,7197,VNB,A,0
0,test,4,0.0,2-Back,,,Mon Aug 04 2025 14:50:54 GMT-0500 (Central Daylight Time),588626.7000000477,039_o_m_n_a.png,O,space,1143,2,1,1771.8000001907349,586854.899999857,7197,VNB,A,0
1,test,4,1.0,2-Back,1,m,Mon Aug 04 2025 14:50:54 GMT-0500 (Central Daylight Time),596827.2999999523,109_y_m_h_a.png,O,m,952,3,1,1959.2999999523163,594868.0,7197,VNB,A,1
1,test,4,1.0,2-Back,0,m,Mon Aug 04 2025 14:50:54 GMT-0500 (Central Daylight Time),599857.5,124_o_f_d_a.png,O,None,2017,4,1,3018.4000000953674,596839.0999999046,7197,VNB,A,2
2,test,4,0.0,2-Back,1,z,Mon Aug 04 2025 14:50:54 GMT-0500 (Central Daylight Time),602054.7000000477,039_o_m_h_a.png,O,z,1178,5,1,2186.4000000953674,599868.2999999523,7197,VNB,A,3
2,test,4,0.0,2-Back,0,m,Mon Aug 04 2025 14:50:54 GMT-0500 (Central Daylight Time),604535.2999999523,165_m_m_n_a.png,O,z,1459,6,1,2470.7999999523163,602064.5,7197,VNB,A,4
2,test,4,0.0,2-Back,0,m,Mon Aug 04 2025 14:50:54 GMT-0500 (Central Daylight Time),607570.2000000477,139_m_f_d_a.png,O,None,2016,7,1,3029.0,604541.2000000477,7197,VNB,A,5
3,test,4,0.0,2-Back,1,z,Mon Aug 04 2025 14:50:54 GMT-0500 (Central Daylight Time),610568.7999999523,071_y_f_n_a.png,O,z,1974,8,1,2989.0,607579.7999999523,7197,VNB,A,6
4,test,4,1.0,2-Back,1,m,Mon Aug 04 2025 14:50:54 GMT-0500 (Central Daylight Time),613084.5999999046,124_o_f_h_a.png,O,m,1497,9,1,2506.2999999523163,610578.2999999523,7197,VNB,A,7
5,test,4,0.0,2-Back,1,m,Mon Aug 04 2025 14:50:54 GMT-0500 (Central Daylight Time),615751.5,165_m_m_h_a.png,O,m,1642,10,1,2655.0,613096.5,7197,VNB,A,8
5,test,4,0.0,2-Back,0,m,Mon Aug 04 2025 14:50:54 GMT-0500 (Central Daylight Time),618466.5,071_y_f_d_a.png,O,z,1690,11,1,2707.0,615759.5,7197,VNB,A,9
5,test,4,0.0,2-Back,0,m,Mon Aug 04 2025 14:50:54 GMT-0500 (Central Daylight Time),621499.7000000477,109_y_m_n_a.png,O,None,2016,12,1,3023.100000143051,618476.5999999046,7197,VNB,A,10
5,test,4,0.0,2-Back,0,z,Mon Aug 04 2025 14:50:54 GMT-0500 (Central Daylight Time),624532.0,039_o_m_d_a.png,O,None,2016,13,1,3022.600000143051,621509.399999857,7197,VNB,A,11
6,test,4,1.0,2-Back,1,m,Mon Aug 04 2025 14:50:54 GMT-0500 (Central Daylight Time),626900.0,139_m_f_h_a.png,O,m,1334,14,1,2357.5,624542.5,7197,VNB,A,12
7,test,4,1.0,2-Back,1,m,Mon Aug 04 2025 14:50:54 GMT-0500 (Central Daylight Time),629646.0,071_y_f_h_a.png,O,m,1728,15,1,2740.2999999523163,626905.7000000477,7197,VNB,A,13
7,test,4,0.0,2-Back,0,m,Mon Aug 04 2025 14:50:54 GMT-0500 (Central Daylight Time),631912.2999999523,124_o_f_n_a.png,O,z,1244,16,1,2255.5,629656.7999999523,7197,VNB,A,14
8,test,4,0.0,2-Back,1,m,Mon Aug 04 2025 14:50:54 GMT-0500 (Central Daylight Time),634278.2999999523,109_y_m_d_a.png,O,m,1337,17,1,2356.2999999523163,631922.0,7197,VNB,A,15
8,test,4,1.0,2-Back,0,m,Mon Aug 04 2025 14:50:54 GMT-0500 (Central Daylight Time),636810.7000000477,165_m_m_d_a.png,O,z,1507,18,1,2522.4000000953674,634288.2999999523,7197,VNB,A,16
0,test,5,1.0,2-Back,,,Mon Aug 04 2025 14:50:54 GMT-0500 (Central Daylight Time),636810.7000000477,071_y_f_d_a.png,O,space,1119,1,1,2522.4000000953674,634288.2999999523,7197,VNB,A,0
0,test,5,1.0,2-Back,,,Mon Aug 04 2025 14:50:54 GMT-0500 (Central Daylight Time),636810.7000000477,124_o_f_h_a.png,O,space,1119,2,1,2522.4000000953674,634288.2999999523,7197,VNB,A,0
1,test,5,1.0,2-Back,1,z,Mon Aug 04 2025 14:50:54 GMT-0500 (Central Daylight Time),645309.399999857,039_o_m_d_a.png,O,z,1266,3,1,2274.199999809265,643035.2000000477,7197,VNB,A,1
2,test,5,1.0,2-Back,1,m,Mon Aug 04 2025 14:50:54 GMT-0500 (Central Daylight Time),647509.2000000477,139_m_f_n_a.png,O,m,1184,4,1,2191.300000190735,645317.899999857,7197,VNB,A,2
2,test,5,0.0,2-Back,0,m,Mon Aug 04 2025 14:50:54 GMT-0500 (Central Daylight Time),650473.5999999046,165_m_m_h_a.png,O,z,1940,5,1,2955.2000000476837,647518.399999857,7197,VNB,A,3
2,test,5,0.0,2-Back,0,z,Mon Aug 04 2025 14:50:54 GMT-0500 (Central Daylight Time),653504.899999857,071_y_f_n_a.png,O,None,2014,6,1,3025.7999999523163,650479.0999999046,7197,VNB,A,4
3,test,5,0.0,2-Back,1,m,Mon Aug 04 2025 14:50:54 GMT-0500 (Central Daylight Time),656321.2999999523,124_o_f_d_a.png,O,m,1791,7,1,2804.4000000953674,653516.899999857,7197,VNB,A,5
3,test,5,0.0,2-Back,0,m,Mon Aug 04 2025 14:50:54 GMT-0500 (Central Daylight Time),658686.2999999523,039_o_m_h_a.png,O,z,1345,8,1,2356.0,656330.2999999523,7197,VNB,A,6
3,test,5,1.0,2-Back,0,z,Mon Aug 04 2025 14:50:54 GMT-0500 (Central Daylight Time),661402.899999857,139_m_f_d_a.png,O,m,1689,9,1,2705.699999809265,658697.2000000477,7197,VNB,A,7
3,test,5,0.0,2-Back,0,m,Mon Aug 04 2025 14:50:54 GMT-0500 (Central Daylight Time),664019.0999999046,109_y_m_n_a.png,O,z,1589,10,1,2606.0999999046326,661413.0,7197,VNB,A,8
4,test,5,0.0,2-Back,1,m,Mon Aug 04 2025 14:50:54 GMT-0500 (Central Daylight Time),666867.7999999523,165_m_m_n_a.png,O,m,1829,11,1,2839.7000000476837,664028.0999999046,7197,VNB,A,9
5,test,5,0.0,2-Back,1,m,Mon Aug 04 2025 14:50:54 GMT-0500 (Central Daylight Time),669416.7999999523,071_y_f_h_a.png,O,m,1515,12,1,2539.0,666877.7999999523,7197,VNB,A,10
5,test,5,0.0,2-Back,0,m,Mon Aug 04 2025 14:50:54 GMT-0500 (Central Daylight Time),671784.5,109_y_m_d_a.png,O,z,1336,13,1,2359.0,669425.5,7197,VNB,A,11
5,test,5,1.0,2-Back,0,z,Mon Aug 04 2025 14:50:54 GMT-0500 (Central Daylight Time),674003.0999999046,139_m_f_h_a.png,O,m,1204,14,1,2209.2999999523163,671793.7999999523,7197,VNB,A,12
5,test,5,0.0,2-Back,0,m,Mon Aug 04 2025 14:50:54 GMT-0500 (Central Daylight Time),676649.7000000477,039_o_m_n_a.png,O,z,1626,15,1,2640.600000143051,674009.0999999046,7197,VNB,A,13
6,test,5,0.0,2-Back,1,m,Mon Aug 04 2025 14:50:54 GMT-0500 (Central Daylight Time),679431.399999857,165_m_m_d_a.png,O,m,1761,16,1,2770.0999999046326,676661.2999999523,7197,VNB,A,14
7,test,5,0.0,2-Back,1,z,Mon Aug 04 2025 14:50:54 GMT-0500 (Central Daylight Time),681863.399999857,124_o_f_n_a.png,O,z,1400,17,1,2422.199999809265,679441.2000000477,7197,VNB,A,15
8,test,5,1.0,2-Back,1,m,Mon Aug 04 2025 14:50:54 GMT-0500 (Central Daylight Time),684680.2999999523,109_y_m_h_a.png,O,m,1795,18,1,2807.4000000953674,681872.899999857,7197,VNB,A,16
