acc_sum,block,block_c,condition,correct,correct_response,datetime,endtime,flanker,jitter,project,response,response_test_buffer_response,response_test_target_response,response_time,response_time_test_buffer_response,response_time_test_target_response,row_sel,session_number,start_end,starttime,subject_id,target,task,task_vers,time_test_buffer,time_test_buffer_response,time_test_constants,time_test_flanker,time_test_jitter,time_test_logger,time_test_target,time_test_target_response,time_test_variables,trial
0,prac,1,inc,0,z,Thu Apr 09 2026 14:44:42 GMT-0500 (Central Daylight Time),99329.69999992847,rock,900,O,None,,,1800,,,10,1,4962.0,94367.69999992847,7785,kind,AF,A,,,,,,,,,,1
1,prac,1,con,1,m,Thu Apr 09 2026 14:44:42 GMT-0500 (Central Daylight Time),102528.39999997616,bell,1000,O,m,,,897,,,3,1,3194.8000000715256,99333.59999990463,7785,bell,AF,A,,,,,,,,,,2
2,prac,1,con,1,m,Thu Apr 09 2026 14:44:42 GMT-0500 (Central Daylight Time),105060.79999995232,step,800,O,m,,,417,,,1,1,2529.2999999523163,102531.5,7785,step,AF,A,,,,,,,,,,3
3,prac,1,con,1,m,Thu Apr 09 2026 14:44:42 GMT-0500 (Central Daylight Time),107560.0,jacket,800,O,m,,,411,,,5,1,2495.3000000715256,105064.69999992847,7785,jacket,AF,A,,,,,,,,,,4
4,prac,1,con,1,m,Thu Apr 09 2026 14:44:42 GMT-0500 (Central Daylight Time),110225.29999995232,remote,1000,O,m,,,363,,,7,1,2661.2000000476837,107564.09999990463,7785,remote,AF,A,,,,,,,,,,5
4,prac,1,inc,0,z,Thu Apr 09 2026 14:44:42 GMT-0500 (Central Daylight Time),113158.0,window,1100,O,m,,,517,,,16,1,2929.3000000715256,110228.69999992847,7785,temper,AF,A,,,,,,,,,,6
4,prac,1,con,0,z,Thu Apr 09 2026 14:44:42 GMT-0500 (Central Daylight Time),115806.5,brutal,800,O,m,,,550,,,13,1,2642.3000000715256,113164.19999992847,7785,brutal,AF,A,,,,,,,,,,7
4,prac,1,inc,0,m,Thu Apr 09 2026 14:44:42 GMT-0500 (Central Daylight Time),120772.5,elated,900,O,None,,,1799,,,6,1,4962.800000071526,115809.69999992847,7785,napkin,AF,A,,,,,,,,,,8
4,prac,1,con,0,z,Thu Apr 09 2026 14:44:42 GMT-0500 (Central Daylight Time),125622.29999995232,elated,800,O,None,,,1799,,,9,1,4846.299999952316,120776.0,7785,elated,AF,A,,,,,,,,,,9
5,prac,1,inc,1,z,Thu Apr 09 2026 14:44:42 GMT-0500 (Central Daylight Time),128754.39999997616,napkin,1100,O,z,,,729,,,12,1,3125.100000023842,125629.29999995232,7785,friend,AF,A,,,,,,,,,,10
6,prac,1,con,1,z,Thu Apr 09 2026 14:44:42 GMT-0500 (Central Daylight Time),131421.19999992847,rage,1000,O,z,,,364,,,15,1,2658.0,128763.19999992847,7785,rage,AF,A,,,,,,,,,,11
6,prac,1,inc,0,z,Thu Apr 09 2026 14:44:42 GMT-0500 (Central Daylight Time),134086.5,film,900,O,m,,,461,,,14,1,2660.8000000715256,131425.69999992847,7785,hate,AF,A,,,,,,,,,,12
7,prac,1,inc,1,m,Thu Apr 09 2026 14:44:42 GMT-0500 (Central Daylight Time),137052.5,hate,1100,O,m,,,552,,,4,1,2959.2000000476837,134093.29999995232,7785,film,AF,A,,,,,,,,,,13
8,prac,1,inc,1,m,Thu Apr 09 2026 14:44:42 GMT-0500 (Central Daylight Time),140119.29999995232,brutal,1100,O,m,,,668,,,8,1,3060.2000000476837,137059.09999990463,7785,window,AF,A,,,,,,,,,,14
9,prac,1,inc,1,m,Thu Apr 09 2026 14:44:42 GMT-0500 (Central Daylight Time),142866.09999990463,kind,900,O,m,,,545,,,2,1,2739.1999999284744,140126.89999997616,7785,rock,AF,A,,,,,,,,,,15
10,prac,1,con,1,z,Thu Apr 09 2026 14:44:42 GMT-0500 (Central Daylight Time),145565.39999997616,love,1000,O,z,,,395,,,11,1,2695.3000000715256,142870.09999990463,7785,love,AF,A,,,,,,,,,,16
0,test,1,con,0,z,Thu Apr 09 2026 14:44:42 GMT-0500 (Central Daylight Time),154730.59999990463,rage,900,O,m,m,None,1108,908.0,200.0,50,1,2547.0,152183.59999990463,7785,rage,AF,A,143548,143548,141918,142832,141918,144465,143347,143347,144465,1
0,test,1,inc,0,m,Thu Apr 09 2026 14:44:42 GMT-0500 (Central Daylight Time),158362.5,hate,1100,O,None,None,None,1799,1799.0,201.0,72,1,3628.4000000953674,154734.09999990463,7785,step,AF,A,146297,146297,144468,145580,144468,148097,146096,146096,148097,2
1,test,1,con,1,m,Thu Apr 09 2026 14:44:42 GMT-0500 (Central Daylight Time),160327.09999990463,jacket,1000,O,m,m,None,427,226.0,201.0,99,1,1959.0999999046326,158368.0,7785,jacket,AF,A,149829,149829,148102,149113,148102,150061,149628,149628,150061,3
2,test,1,inc,1,m,Thu Apr 09 2026 14:44:42 GMT-0500 (Central Daylight Time),162425.19999992847,temper,1000,O,m,m,None,557,341.0,216.0,119,1,2094.0,160331.19999992847,7785,remote,AF,A,151810,151810,150065,151078,150065,152159,151594,151594,152159,4
3,test,1,inc,1,m,Thu Apr 09 2026 14:44:42 GMT-0500 (Central Daylight Time),164308.19999992847,kind,900,O,m,m,None,444,229.0,215.0,94,1,1878.0,162430.19999992847,7785,film,AF,A,153809,153809,152164,153078,152165,154042,153594,153594,154042,5
4,test,1,con,1,z,Thu Apr 09 2026 14:44:42 GMT-0500 (Central Daylight Time),166341.59999990463,elated,900,O,z,z,None,593,378.0,215.0,2,1,2030.2999999523163,164311.29999995232,7785,elated,AF,A,155693,155693,154045,154962,154046,156076,155477,155477,156076,6
5,test,1,con,1,z,Thu Apr 09 2026 14:44:42 GMT-0500 (Central Daylight Time),168458.29999995232,kind,1100,O,z,z,None,482,283.0,199.0,12,1,2112.899999976158,166345.39999997616,7785,kind,AF,A,157909,157909,156079,157194,156080,158192,157709,157709,158192,7
6,test,1,con,1,z,Thu Apr 09 2026 14:44:42 GMT-0500 (Central Daylight Time),170474.09999990463,elated,1100,O,z,z,None,365,166.0,199.0,4,1,2012.2999999523163,168461.79999995232,7785,elated,AF,A,160025,160025,158196,159309,158196,160208,159825,159825,160208,8
7,test,1,inc,1,m,Thu Apr 09 2026 14:44:42 GMT-0500 (Central Daylight Time),172439.09999990463,brutal,900,O,m,m,None,526,327.0,199.0,126,1,1960.7999999523163,170478.29999995232,7785,window,AF,A,161841,161841,160212,161126,160213,162173,161642,161642,162173,9
8,test,1,inc,1,m,Thu Apr 09 2026 14:44:42 GMT-0500 (Central Daylight Time),174254.5,elated,800,O,m,m,None,473,274.0,199.0,117,1,1811.4000000953674,172443.09999990463,7785,remote,AF,A,163708,163708,162177,162992,162178,163989,163508,163508,163988,10
9,test,1,inc,1,z,Thu Apr 09 2026 14:44:42 GMT-0500 (Central Daylight Time),176339.0,rock,900,O,z,z,None,638,439.0,199.0,54,1,2080.4000000953674,174258.59999990463,7785,rage,AF,A,165623,165624,163993,164907,163993,166073,165424,165424,166073,11
10,test,1,con,1,z,Thu Apr 09 2026 14:44:42 GMT-0500 (Central Daylight Time),178155.69999992847,friend,800,O,z,z,None,487,288.0,199.0,25,1,1813.0,176342.69999992847,7785,friend,AF,A,167591,167591,166077,166889,166077,167890,167391,167391,167890,12
11,test,1,con,1,z,Thu Apr 09 2026 14:44:42 GMT-0500 (Central Daylight Time),180320.69999992847,brutal,900,O,z,z,None,717,517.0,200.0,34,1,2161.100000023842,178159.59999990463,7785,brutal,AF,A,169522,169522,167894,168807,167894,170055,169322,169322,170055,13
12,test,1,inc,1,z,Thu Apr 09 2026 14:44:42 GMT-0500 (Central Daylight Time),182352.89999997616,napkin,900,O,z,z,None,607,407.0,200.0,30,1,2027.8999999761581,180325.0,7785,friend,AF,A,171672,171672,170059,170971,170059,172087,171472,171472,172087,14
13,test,1,con,1,m,Thu Apr 09 2026 14:44:42 GMT-0500 (Central Daylight Time),184103.5,remote,800,O,m,m,None,400,201.0,199.0,113,1,1745.7000000476837,182357.79999995232,7785,remote,AF,A,173622,173622,172092,172905,172092,173838,173423,173423,173838,15
13,test,1,con,0,z,Thu Apr 09 2026 14:44:42 GMT-0500 (Central Daylight Time),186069.29999995232,brutal,800,O,m,m,None,629,430.0,199.0,33,1,1960.0,184109.29999995232,7785,brutal,AF,A,175370,175370,173843,174655,173844,175803,175171,175171,175803,16
14,test,1,inc,1,z,Thu Apr 09 2026 14:44:42 GMT-0500 (Central Daylight Time),188134.29999995232,napkin,900,O,z,z,None,618,419.0,199.0,6,1,2060.100000023842,186074.19999992847,7785,elated,AF,A,177436,177436,175808,176724,175809,177868,177237,177237,177868,17
15,test,1,con,1,m,Thu Apr 09 2026 14:44:42 GMT-0500 (Central Daylight Time),189969.5,napkin,900,O,m,m,None,393,193.0,200.0,106,1,1829.5,188140.0,7785,napkin,AF,A,179504,179504,177874,178786,177874,179704,179302,179303,179703,18
16,test,1,con,1,z,Thu Apr 09 2026 14:44:42 GMT-0500 (Central Daylight Time),191966.69999992847,friend,1100,O,z,z,None,351,152.0,199.0,28,1,1992.8999999761581,189973.79999995232,7785,friend,AF,A,181535,181535,179708,180819,179708,181701,181336,181336,181701,19
17,test,1,inc,1,z,Thu Apr 09 2026 14:44:42 GMT-0500 (Central Daylight Time),194117.59999990463,film,1100,O,z,z,None,520,320.0,200.0,24,1,2145.399999976158,191972.19999992847,7785,love,AF,A,183519,183519,181706,182817,181706,183852,183318,183318,183852,20
18,test,1,inc,1,m,Thu Apr 09 2026 14:44:42 GMT-0500 (Central Daylight Time),196265.29999995232,hate,1100,O,m,m,None,506,291.0,215.0,96,1,2143.399999976158,194121.89999997616,7785,film,AF,A,185701,185701,183856,184968,183856,185999,185485,185485,185999,21
19,test,1,con,1,z,Thu Apr 09 2026 14:44:42 GMT-0500 (Central Daylight Time),198014.09999990463,temper,800,O,z,z,None,400,201.0,199.0,57,1,1744.6999999284744,196269.39999997616,7785,temper,AF,A,187534,187534,186003,186817,186004,187748,187335,187335,187748,22
20,test,1,inc,1,m,Thu Apr 09 2026 14:44:42 GMT-0500 (Central Daylight Time),199916.09999990463,brutal,900,O,m,m,None,466,264.0,202.0,102,1,1898.8999999761581,198017.19999992847,7785,jacket,AF,A,189384,189384,187751,188667,187752,189650,189182,189182,189650,23
21,test,1,inc,1,z,Thu Apr 09 2026 14:44:42 GMT-0500 (Central Daylight Time),201998.79999995232,bell,1000,O,z,z,None,544,328.0,216.0,55,1,2076.5,199922.29999995232,7785,rage,AF,A,191400,191400,189656,190668,189657,191733,191183,191183,191733,24
22,test,1,inc,1,m,Thu Apr 09 2026 14:44:42 GMT-0500 (Central Daylight Time),204013.19999992847,temper,1000,O,m,m,None,478,278.0,200.0,103,1,2011.3999999761581,202001.79999995232,7785,jacket,AF,A,193465,193465,191736,192748,191736,193747,193264,193264,193747,25
23,test,1,inc,1,m,Thu Apr 09 2026 14:44:42 GMT-0500 (Central Daylight Time),206095.59999990463,love,1000,O,m,m,None,530,317.0,213.0,87,1,2079.0,204016.59999990463,7785,bell,AF,A,195498,195498,193751,194764,193751,195830,195284,195284,195830,26
24,test,1,inc,1,m,Thu Apr 09 2026 14:44:42 GMT-0500 (Central Daylight Time),208178.39999997616,hate,1100,O,m,m,None,463,264.0,199.0,80,1,2076.399999976158,206102.0,7785,rock,AF,A,197648,197648,195836,196946,195836,197912,197448,197448,197912,27
25,test,1,inc,1,z,Thu Apr 09 2026 14:44:42 GMT-0500 (Central Daylight Time),210194.79999995232,napkin,900,O,z,z,None,582,382.0,200.0,62,1,2009.5,208185.29999995232,7785,temper,AF,A,199546,199546,197919,198831,197920,199929,199345,199345,199929,28
26,test,1,con,1,z,Thu Apr 09 2026 14:44:42 GMT-0500 (Central Daylight Time),211926.89999997616,love,800,O,z,z,None,395,193.0,202.0,17,1,1725.7000000476837,210201.19999992847,7785,love,AF,A,201463,201463,199935,200747,199936,201661,201260,201260,201661,29
27,test,1,inc,1,z,Thu Apr 09 2026 14:44:42 GMT-0500 (Central Daylight Time),214060.29999995232,film,1100,O,z,z,None,503,286.0,217.0,48,1,2129.399999976158,211930.89999997616,7785,hate,AF,A,203497,203497,201665,202778,201665,203794,203280,203280,203794,30
28,test,1,inc,1,m,Thu Apr 09 2026 14:44:42 GMT-0500 (Central Daylight Time),215944.09999990463,elated,800,O,m,m,None,545,346.0,199.0,125,1,1879.0,214065.09999990463,7785,window,AF,A,205326,205326,203799,204611,203799,205678,205127,205127,205678,31
29,test,1,con,1,m,Thu Apr 09 2026 14:44:42 GMT-0500 (Central Daylight Time),217826.09999990463,rock,900,O,m,m,None,441,238.0,203.0,74,1,1874.5999999046326,215951.5,7785,rock,AF,A,207313,207313,205686,206595,205686,207560,207110,207110,207560,32
30,test,1,con,1,z,Thu Apr 09 2026 14:44:42 GMT-0500 (Central Daylight Time),220074.29999995232,temper,1100,O,z,z,None,606,405.0,201.0,60,1,2244.0,217830.29999995232,7785,temper,AF,A,209394,209394,207564,208678,207565,209808,209193,209193,209808,33
31,test,1,inc,1,z,Thu Apr 09 2026 14:44:42 GMT-0500 (Central Daylight Time),222356.89999997616,remote,1000,O,z,z,None,735,535.0,200.0,39,1,2276.600000023842,220080.29999995232,7785,brutal,AF,A,211543,211543,209814,210826,209815,212091,211342,211342,212091,34
32,test,1,con,1,z,Thu Apr 09 2026 14:44:42 GMT-0500 (Central Daylight Time),224356.59999990463,rage,1000,O,z,z,None,450,234.0,216.0,51,1,1996.5,222360.09999990463,7785,rage,AF,A,213841,213841,212094,213108,212095,214091,213624,213625,214091,35
33,test,1,inc,1,z,Thu Apr 09 2026 14:44:42 GMT-0500 (Central Daylight Time),226490.5,remote,1000,O,z,z,None,590,390.0,200.0,63,1,2130.4000000953674,224360.09999990463,7785,temper,AF,A,215825,215825,214094,215110,214094,216225,215624,215624,216225,36
34,test,1,inc,1,m,Thu Apr 09 2026 14:44:42 GMT-0500 (Central Daylight Time),228422.69999992847,kind,900,O,m,m,None,491,276.0,215.0,86,1,1925.5,226497.19999992847,7785,bell,AF,A,217875,217875,216231,217140,216232,218157,217660,217660,218157,37
35,test,1,con,1,m,Thu Apr 09 2026 14:44:42 GMT-0500 (Central Daylight Time),230121.79999995232,window,800,O,m,m,None,369,156.0,213.0,121,1,1693.0,228428.79999995232,7785,window,AF,A,219691,219691,218163,218973,218163,219856,219478,219478,219856,38
36,test,1,con,1,m,Thu Apr 09 2026 14:44:42 GMT-0500 (Central Daylight Time),232037.0,window,1000,O,m,m,None,370,169.0,201.0,123,1,1910.5,230126.5,7785,window,AF,A,221590,221590,219861,220873,219861,221771,221389,221389,221771,39
37,test,1,con,1,z,Thu Apr 09 2026 14:44:42 GMT-0500 (Central Daylight Time),234020.89999997616,temper,900,O,z,z,None,538,339.0,199.0,58,1,1978.6000000238419,232042.29999995232,7785,temper,AF,A,223405,223405,221776,222689,221777,223755,223206,223206,223755,40
38,test,1,inc,1,z,Thu Apr 09 2026 14:44:42 GMT-0500 (Central Daylight Time),236287.29999995232,window,1100,O,z,z,None,636,436.0,200.0,40,1,2261.2000000476837,234026.09999990463,7785,brutal,AF,A,225571,225571,223760,224870,223760,226021,225371,225371,226021,41
39,test,1,con,1,z,Thu Apr 09 2026 14:44:42 GMT-0500 (Central Daylight Time),238219.39999997616,friend,1000,O,z,z,None,383,181.0,202.0,27,1,1928.2000000476837,236291.19999992847,7785,friend,AF,A,227757,227757,226025,227038,226025,227953,227554,227554,227953,42
40,test,1,inc,1,m,Thu Apr 09 2026 14:44:42 GMT-0500 (Central Daylight Time),240187.29999995232,rage,800,O,m,m,None,633,434.0,199.0,77,1,1961.3999999761581,238225.89999997616,7785,rock,AF,A,229487,229487,227960,228771,227960,229921,229287,229287,229921,43
41,test,1,con,1,m,Thu Apr 09 2026 14:44:42 GMT-0500 (Central Daylight Time),242052.5,remote,900,O,m,m,None,423,222.0,201.0,114,1,1860.5,240192.0,7785,remote,AF,A,231554,231554,229926,230837,229926,231787,231352,231352,231787,44
42,test,1,con,1,m,Thu Apr 09 2026 14:44:42 GMT-0500 (Central Daylight Time),244366.5,bell,1100,O,m,m,None,666,467.0,199.0,84,1,2309.4000000953674,242057.09999990463,7785,bell,AF,A,233619,233619,231791,232903,231791,234101,233419,233419,234101,45
43,test,1,inc,1,m,Thu Apr 09 2026 14:44:42 GMT-0500 (Central Daylight Time),246550.39999997616,friend,1100,O,m,m,None,561,346.0,215.0,104,1,2180.0,244370.39999997616,7785,jacket,AF,A,235935,235935,234104,235218,234105,236284,235719,235719,236284,46
44,test,1,inc,1,m,Thu Apr 09 2026 14:44:42 GMT-0500 (Central Daylight Time),248665.39999997616,friend,1100,O,m,m,None,472,257.0,215.0,112,1,2110.600000023842,246554.79999995232,7785,napkin,AF,A,238134,238134,236289,237401,236289,238399,237918,237918,238399,47
45,test,1,inc,1,m,Thu Apr 09 2026 14:44:42 GMT-0500 (Central Daylight Time),250817.59999990463,hate,1100,O,m,m,None,517,317.0,200.0,88,1,2147.2999999523163,248670.29999995232,7785,bell,AF,A,240234,240234,238404,239516,238405,240552,240033,240033,240552,48
46,test,1,con,1,m,Thu Apr 09 2026 14:44:42 GMT-0500 (Central Daylight Time),252547.89999997616,rock,800,O,m,m,None,389,187.0,202.0,73,1,1725.8000000715256,250822.09999990463,7785,rock,AF,A,242084,242084,240556,241367,240556,242282,241882,241882,242282,49
47,test,1,con,1,m,Thu Apr 09 2026 14:44:42 GMT-0500 (Central Daylight Time),254464.69999992847,bell,1000,O,m,m,None,392,192.0,200.0,83,1,1911.8999999761581,252552.79999995232,7785,bell,AF,A,244000,244000,242287,243297,242287,244199,243799,243799,244199,50
48,test,1,inc,1,z,Thu Apr 09 2026 14:44:42 GMT-0500 (Central Daylight Time),256479.89999997616,rock,900,O,z,z,None,575,376.0,199.0,46,1,2011.2000000476837,254468.69999992847,7785,hate,AF,A,245831,245831,244203,245115,244203,246214,245632,245632,246214,51
49,test,1,inc,1,m,Thu Apr 09 2026 14:44:42 GMT-0500 (Central Daylight Time),258363.19999992847,rage,800,O,m,m,None,554,342.0,212.0,85,1,1877.8999999761581,256485.29999995232,7785,bell,AF,A,247747,247747,246219,247031,246220,248097,247534,247534,248097,52
50,test,1,con,1,z,Thu Apr 09 2026 14:44:42 GMT-0500 (Central Daylight Time),260346.5,brutal,1000,O,z,z,None,432,233.0,199.0,35,1,1979.3000000715256,258367.19999992847,7785,brutal,AF,A,249830,249831,248101,249114,248101,250081,249631,249631,250081,53
51,test,1,con,1,z,Thu Apr 09 2026 14:44:42 GMT-0500 (Central Daylight Time),262628.89999997616,kind,1000,O,z,z,None,731,517.0,214.0,11,1,2276.8000000715256,260352.09999990463,7785,kind,AF,A,251829,251829,250086,251096,250087,252363,251614,251614,252363,54
52,test,1,inc,1,z,Thu Apr 09 2026 14:44:42 GMT-0500 (Central Daylight Time),264645.0,bell,1000,O,z,z,None,482,282.0,200.0,23,1,2009.7000000476837,262635.2999999523,7785,love,AF,A,254080,254080,252369,253379,252370,254379,253880,253880,254379,55
53,test,1,con,1,z,Thu Apr 09 2026 14:44:42 GMT-0500 (Central Daylight Time),266461.89999997616,rage,800,O,z,z,None,471,271.0,200.0,49,1,1812.6000000238419,264649.2999999523,7785,rage,AF,A,255913,255913,254383,255196,254383,256196,255712,255712,256196,56
54,test,1,inc,1,m,Thu Apr 09 2026 14:44:42 GMT-0500 (Central Daylight Time),268544.39999997616,love,1000,O,m,m,None,536,337.0,199.0,79,1,2077.7000000476837,266466.6999999285,7785,rock,AF,A,257927,257927,256201,257211,256201,258278,257727,257728,258278,57
55,test,1,inc,1,m,Thu Apr 09 2026 14:44:42 GMT-0500 (Central Daylight Time),270476.6999999285,rage,800,O,m,m,None,599,399.0,200.0,69,1,1927.6999999284744,268549.0,7785,step,AF,A,259811,259811,258283,259094,258283,260211,259610,259610,260211,58
56,test,1,con,1,m,Thu Apr 09 2026 14:44:42 GMT-0500 (Central Daylight Time),272424.7999999523,step,1000,O,m,m,None,400,200.0,200.0,67,1,1943.7999999523163,270481.0,7785,step,AF,A,261944,261944,260215,261226,260215,262159,261744,261744,262159,59
57,test,1,con,1,m,Thu Apr 09 2026 14:44:42 GMT-0500 (Central Daylight Time),274206.89999997616,window,900,O,m,m,None,358,159.0,199.0,122,1,1777.8999999761581,272429.0,7785,window,AF,A,263776,263776,262163,263075,262163,263941,263577,263577,263941,60
58,test,1,con,1,m,Thu Apr 09 2026 14:44:42 GMT-0500 (Central Daylight Time),276140.1999999285,napkin,1000,O,m,m,None,396,196.0,200.0,107,1,1929.0,274211.1999999285,7785,napkin,AF,A,265675,265675,263945,264960,263945,265874,265474,265474,265874,61
59,test,1,inc,1,m,Thu Apr 09 2026 14:44:42 GMT-0500 (Central Daylight Time),278241.39999997616,brutal,900,O,m,m,None,651,451.0,200.0,110,1,2097.399999976158,276144.0,7785,napkin,AF,A,267508,267508,265878,266793,265878,267975,267307,267307,267975,62
60,test,1,inc,1,z,Thu Apr 09 2026 14:44:42 GMT-0500 (Central Daylight Time),280221.39999997616,step,800,O,z,z,None,634,435.0,199.0,13,1,1976.5,278244.89999997616,7785,kind,AF,A,269508,269508,267979,268790,267979,269955,269308,269308,269955,63
61,test,1,con,1,z,Thu Apr 09 2026 14:44:42 GMT-0500 (Central Daylight Time),282307.0,kind,900,O,z,z,None,634,433.0,201.0,10,1,2080.3000000715256,280226.6999999285,7785,kind,AF,A,271591,271591,269961,270874,269961,272041,271390,271390,272041,64
62,test,1,inc,1,m,Thu Apr 09 2026 14:44:42 GMT-0500 (Central Daylight Time),284538.0,brutal,900,O,m,m,None,806,607.0,199.0,118,1,2226.2000000476837,282311.7999999523,7785,remote,AF,A,273657,273657,272046,272955,272046,274272,273457,273457,274272,65
63,test,1,con,1,m,Thu Apr 09 2026 14:44:42 GMT-0500 (Central Daylight Time),286471.1999999285,film,1000,O,m,m,None,385,186.0,199.0,91,1,1927.3999999761581,284543.7999999523,7785,film,AF,A,276005,276005,274278,275289,274278,276205,275805,275805,276205,66
64,test,1,inc,1,z,Thu Apr 09 2026 14:44:42 GMT-0500 (Central Daylight Time),288553.59999990463,napkin,900,O,z,z,None,633,433.0,200.0,38,1,2078.5999999046326,286475.0,7785,brutal,AF,A,277838,277838,276209,277122,276209,278288,277638,277638,278288,67
65,test,1,inc,1,z,Thu Apr 09 2026 14:44:42 GMT-0500 (Central Daylight Time),290586.89999997616,step,800,O,z,z,None,690,491.0,199.0,53,1,2028.1000000238419,288558.7999999523,7785,rage,AF,A,279820,279820,278293,279105,278293,280321,279621,279621,280321,68
66,test,1,inc,1,m,Thu Apr 09 2026 14:44:42 GMT-0500 (Central Daylight Time),292536.09999990463,rage,800,O,m,m,None,603,402.0,201.0,93,1,1945.6999999284744,290590.39999997616,7785,film,AF,A,281854,281854,280324,281137,280325,282270,281653,281653,282270,69
67,test,1,con,1,m,Thu Apr 09 2026 14:44:42 GMT-0500 (Central Daylight Time),294484.7999999523,rock,1000,O,m,m,None,404,205.0,199.0,75,1,1944.1000000238419,292540.6999999285,7785,rock,AF,A,284002,284002,282275,283286,282275,284219,283803,283803,284219,70
68,test,1,con,1,z,Thu Apr 09 2026 14:44:42 GMT-0500 (Central Daylight Time),296417.2999999523,kind,800,O,z,z,None,589,375.0,214.0,9,1,1928.7000000476837,294488.59999990463,7785,kind,AF,A,285769,285769,284223,285036,284223,286151,285554,285554,286151,71
69,test,1,con,1,m,Thu Apr 09 2026 14:44:42 GMT-0500 (Central Daylight Time),298516.7999999523,jacket,900,O,m,m,None,654,455.0,199.0,98,1,2095.600000023842,296421.1999999285,7785,jacket,AF,A,287785,287785,286155,287069,286156,288251,287586,287586,288251,72
70,test,1,inc,1,z,Thu Apr 09 2026 14:44:42 GMT-0500 (Central Daylight Time),300367.2999999523,jacket,800,O,z,z,None,502,303.0,199.0,37,1,1845.8999999761581,298521.39999997616,7785,brutal,AF,A,289785,289785,288255,289068,288256,290101,289585,289585,290101,73
71,test,1,inc,1,z,Thu Apr 09 2026 14:44:42 GMT-0500 (Central Daylight Time),302666.09999990463,window,1100,O,z,z,None,650,450.0,200.0,8,1,2294.6999999284744,300371.39999997616,7785,elated,AF,A,291934,291934,290105,291218,290106,292400,291734,291734,292400,74
72,test,1,con,1,m,Thu Apr 09 2026 14:44:42 GMT-0500 (Central Daylight Time),304465.6999999285,napkin,800,O,m,m,None,449,250.0,199.0,105,1,1794.2999999523163,302671.39999997616,7785,napkin,AF,A,293933,293933,292405,293217,292406,294200,293733,293733,294200,75
73,test,1,con,1,z,Thu Apr 09 2026 14:44:42 GMT-0500 (Central Daylight Time),306580.1999999285,brutal,1100,O,z,z,None,471,271.0,200.0,36,1,2110.100000023842,304470.09999990463,7785,brutal,AF,A,296033,296033,294204,295316,294204,296314,295833,295833,296314,76
74,test,1,con,1,m,Thu Apr 09 2026 14:44:42 GMT-0500 (Central Daylight Time),308396.89999997616,film,900,O,m,m,None,381,182.0,199.0,90,1,1813.2000000476837,306583.6999999285,7785,film,AF,A,297948,297949,296318,297232,296318,298131,297749,297749,298131,77
75,test,1,inc,1,m,Thu Apr 09 2026 14:44:42 GMT-0500 (Central Daylight Time),310512.6999999285,love,1000,O,m,m,None,583,382.0,201.0,95,1,2111.1999999284744,308401.5,7785,film,AF,A,299865,299865,298136,299148,298136,300247,299664,299664,300247,78
76,test,1,con,1,z,Thu Apr 09 2026 14:44:42 GMT-0500 (Central Daylight Time),312396.6999999285,love,900,O,z,z,None,456,256.0,200.0,18,1,1879.2999999523163,310517.39999997616,7785,love,AF,A,301864,301864,300251,301163,300252,302131,301664,301664,302131,79
77,test,1,con,1,z,Thu Apr 09 2026 14:44:42 GMT-0500 (Central Daylight Time),314810.2999999523,rage,1100,O,z,z,None,772,572.0,200.0,52,1,2409.7000000476837,312400.59999990463,7785,rage,AF,A,303962,303962,302135,303246,302135,304544,303762,303762,304544,80
78,test,1,inc,1,z,Thu Apr 09 2026 14:44:42 GMT-0500 (Central Daylight Time),316793.6999999285,rock,900,O,z,z,None,532,333.0,199.0,22,1,1980.6000000238419,314813.09999990463,7785,love,AF,A,306179,306179,304547,305464,304547,306528,305979,305979,306528,81
79,test,1,con,1,z,Thu Apr 09 2026 14:44:42 GMT-0500 (Central Daylight Time),318910.59999990463,love,1000,O,z,z,None,576,376.0,200.0,19,1,2112.7999999523163,316797.7999999523,7785,love,AF,A,308263,308263,306532,307545,306532,308645,308062,308062,308645,82
79,test,1,con,0,z,Thu Apr 09 2026 14:44:42 GMT-0500 (Central Daylight Time),320793.89999997616,hate,900,O,m,m,None,433,233.0,200.0,42,1,1878.2000000476837,318915.6999999285,7785,hate,AF,A,310278,310278,308650,309561,308650,310528,310078,310078,310528,83
80,test,1,con,1,m,Thu Apr 09 2026 14:44:42 GMT-0500 (Central Daylight Time),322825.09999990463,window,1100,O,m,m,None,383,183.0,200.0,124,1,2026.2999999523163,320798.7999999523,7785,window,AF,A,312360,312360,310533,311644,310533,312559,312160,312160,312559,84
81,test,1,con,1,m,Thu Apr 09 2026 14:44:42 GMT-0500 (Central Daylight Time),324841.09999990463,jacket,1100,O,m,m,None,373,173.0,200.0,100,1,2009.3999999761581,322831.6999999285,7785,jacket,AF,A,314394,314394,312566,313676,312566,314575,314193,314193,314575,85
82,test,1,inc,1,z,Thu Apr 09 2026 14:44:42 GMT-0500 (Central Daylight Time),327023.7999999523,bell,1000,O,z,z,None,659,460.0,199.0,47,1,2176.600000023842,324847.1999999285,7785,hate,AF,A,316292,316292,314581,315591,314582,316758,316093,316093,316758,86
83,test,1,con,1,z,Thu Apr 09 2026 14:44:42 GMT-0500 (Central Daylight Time),328956.09999990463,temper,1000,O,z,z,None,396,194.0,202.0,59,1,1925.3999999761581,327030.6999999285,7785,temper,AF,A,318492,318493,316765,317776,316765,318690,318290,318290,318690,87
84,test,1,con,1,m,Thu Apr 09 2026 14:44:42 GMT-0500 (Central Daylight Time),331005.5,step,1100,O,m,m,None,417,202.0,215.0,68,1,2043.3000000715256,328962.1999999285,7785,step,AF,A,320524,320524,318696,319806,318697,320740,320308,320308,320739,88
85,test,1,inc,1,z,Thu Apr 09 2026 14:44:42 GMT-0500 (Central Daylight Time),333488.2999999523,window,1100,O,z,z,None,850,651.0,199.0,64,1,2480.0,331008.2999999523,7785,temper,AF,A,322571,322571,320742,321856,320743,323222,322372,322372,323222,89
86,test,1,con,1,m,Thu Apr 09 2026 14:44:42 GMT-0500 (Central Daylight Time),335519.89999997616,rock,1100,O,m,m,None,384,184.0,200.0,76,1,2028.6000000238419,333491.2999999523,7785,rock,AF,A,325054,325054,323225,324338,323226,325254,324854,324854,325254,90
87,test,1,inc,1,m,Thu Apr 09 2026 14:44:42 GMT-0500 (Central Daylight Time),337770.1999999285,friend,1100,O,m,m,None,607,407.0,200.0,128,1,2247.5,335522.6999999285,7785,window,AF,A,327087,327087,325257,326372,325257,327504,326887,326887,327504,91
88,test,1,con,1,m,Thu Apr 09 2026 14:44:42 GMT-0500 (Central Daylight Time),339669.09999990463,step,800,O,m,m,None,554,354.0,200.0,65,1,1896.5,337772.59999990463,7785,step,AF,A,329037,329037,327507,328321,327507,329403,328837,328837,329403,92
88,test,1,inc,0,z,Thu Apr 09 2026 14:44:42 GMT-0500 (Central Daylight Time),341902.1999999285,film,1100,O,m,m,None,594,394.0,200.0,56,1,2230.399999976158,339671.7999999523,7785,rage,AF,A,331236,331236,329406,330519,329406,331636,331036,331036,331636,93
89,test,1,con,1,z,Thu Apr 09 2026 14:44:42 GMT-0500 (Central Daylight Time),344001.7999999523,elated,1000,O,z,z,None,549,349.0,200.0,3,1,2097.0,341904.7999999523,7785,elated,AF,A,333369,333369,331639,332654,331639,333736,333169,333169,333736,94
90,test,1,inc,1,z,Thu Apr 09 2026 14:44:42 GMT-0500 (Central Daylight Time),346249.89999997616,film,1100,O,z,z,None,615,416.0,199.0,16,1,2244.899999976158,344005.0,7785,kind,AF,A,335567,335567,333739,334852,333739,335984,335368,335368,335984,95
91,test,1,inc,1,z,Thu Apr 09 2026 14:44:42 GMT-0500 (Central Daylight Time),348299.09999990463,jacket,800,O,z,z,None,712,497.0,215.0,61,1,2046.5999999046326,346252.5,7785,temper,AF,A,337534,337534,335987,336801,335987,338033,337319,337319,338033,96
92,test,1,con,1,z,Thu Apr 09 2026 14:44:42 GMT-0500 (Central Daylight Time),350067.6999999285,hate,800,O,z,z,None,432,231.0,201.0,41,1,1765.8999999761581,348301.7999999523,7785,hate,AF,A,339568,339568,338036,338850,338036,339802,339366,339366,339802,97
93,test,1,inc,1,z,Thu Apr 09 2026 14:44:42 GMT-0500 (Central Daylight Time),351982.59999990463,step,800,O,z,z,None,569,370.0,199.0,45,1,1909.2999999523163,350073.2999999523,7785,hate,AF,A,341334,341334,339807,340618,339808,341717,341134,341134,341717,98
94,test,1,con,1,m,Thu Apr 09 2026 14:44:42 GMT-0500 (Central Daylight Time),354398.09999990463,napkin,1100,O,m,m,None,769,569.0,200.0,108,1,2410.5,351987.59999990463,7785,napkin,AF,A,343550,343550,341722,342834,341722,344132,343350,343350,344132,99
95,test,1,con,1,m,Thu Apr 09 2026 14:44:42 GMT-0500 (Central Daylight Time),356881.5,film,1100,O,m,m,None,840,626.0,214.0,92,1,2479.3000000715256,354402.1999999285,7785,film,AF,A,345983,345983,344136,345251,344136,346616,345768,345768,346616,100
96,test,1,inc,1,m,Thu Apr 09 2026 14:44:42 GMT-0500 (Central Daylight Time),358813.7999999523,elated,800,O,m,m,None,603,389.0,214.0,109,1,1928.7999999523163,356885.0,7785,napkin,AF,A,348147,348147,346619,347431,346619,348548,347933,347933,348548,101
97,test,1,inc,1,m,Thu Apr 09 2026 14:44:42 GMT-0500 (Central Daylight Time),360980.09999990463,friend,1100,O,m,m,None,531,331.0,200.0,120,1,2162.6999999284744,358817.39999997616,7785,remote,AF,A,350381,350381,348551,349665,348552,350714,350181,350181,350714,102
98,test,1,inc,1,m,Thu Apr 09 2026 14:44:42 GMT-0500 (Central Daylight Time),363096.2999999523,temper,1000,O,m,m,None,566,367.0,199.0,127,1,2111.5,360984.7999999523,7785,window,AF,A,352448,352448,350719,351731,350719,352830,352248,352248,352830,103
99,test,1,con,1,m,Thu Apr 09 2026 14:44:42 GMT-0500 (Central Daylight Time),365362.59999990463,remote,1100,O,m,m,None,639,440.0,199.0,116,1,2259.7999999523163,363102.7999999523,7785,remote,AF,A,354647,354647,352837,353947,352837,355097,354448,354448,355097,104
100,test,1,con,1,m,Thu Apr 09 2026 14:44:42 GMT-0500 (Central Daylight Time),367311.7999999523,bell,900,O,m,m,None,501,302.0,199.0,82,1,1944.0,365367.7999999523,7785,bell,AF,A,356729,356729,355102,356013,355102,357046,356529,356529,357046,105
101,test,1,con,1,z,Thu Apr 09 2026 14:44:42 GMT-0500 (Central Daylight Time),369394.39999997616,hate,1000,O,z,z,None,533,334.0,199.0,43,1,2077.399999976158,367317.0,7785,hate,AF,A,358778,358778,357051,358063,357051,359129,358579,358579,359128,106
102,test,1,con,1,m,Thu Apr 09 2026 14:44:42 GMT-0500 (Central Daylight Time),371442.7999999523,bell,800,O,m,m,None,706,506.0,200.0,81,1,2041.7999999523163,369401.0,7785,bell,AF,A,360661,360661,359135,359945,359135,361177,360461,360461,361177,107
103,test,1,inc,1,z,Thu Apr 09 2026 14:44:42 GMT-0500 (Central Daylight Time),373410.5,jacket,800,O,z,z,None,631,416.0,215.0,29,1,1963.7000000476837,371446.7999999523,7785,friend,AF,A,362727,362727,361181,361994,361181,363145,362512,362512,363144,108
104,test,1,inc,1,m,Thu Apr 09 2026 14:44:42 GMT-0500 (Central Daylight Time),375525.6999999285,love,1000,O,m,m,None,571,370.0,201.0,71,1,2108.7999999523163,373416.89999997616,7785,step,AF,A,364877,364877,363151,364160,363151,365260,364676,364676,365260,109
105,test,1,con,1,z,Thu Apr 09 2026 14:44:42 GMT-0500 (Central Daylight Time),377425.6999999285,friend,900,O,z,z,None,450,250.0,200.0,26,1,1895.0,375530.6999999285,7785,friend,AF,A,366893,366894,365265,366176,365265,367160,366693,366693,367160,110
106,test,1,inc,1,m,Thu Apr 09 2026 14:44:42 GMT-0500 (Central Daylight Time),379490.59999990463,kind,900,O,m,m,None,631,431.0,200.0,70,1,2059.0999999046326,377431.5,7785,step,AF,A,368793,368793,367166,368076,367166,369225,368592,368592,369225,111
107,test,1,con,1,z,Thu Apr 09 2026 14:44:42 GMT-0500 (Central Daylight Time),381673.39999997616,hate,1100,O,z,z,None,542,342.0,200.0,44,1,2178.100000023842,379495.2999999523,7785,hate,AF,A,371059,371059,369229,370343,369230,371408,370858,370858,371407,112
108,test,1,inc,1,z,Thu Apr 09 2026 14:44:42 GMT-0500 (Central Daylight Time),383923.0,bell,1000,O,z,z,None,706,505.0,201.0,15,1,2244.9000000953674,381678.09999990463,7785,kind,AF,A,373143,373143,371412,372425,371412,373657,372941,372941,373657,113
109,test,1,inc,1,m,Thu Apr 09 2026 14:44:42 GMT-0500 (Central Daylight Time),386055.5,temper,1000,O,m,m,None,593,393.0,200.0,111,1,2128.3000000715256,383927.1999999285,7785,napkin,AF,A,375390,375390,373661,374675,373662,375790,375190,375190,375790,114
110,test,1,inc,1,z,Thu Apr 09 2026 14:44:42 GMT-0500 (Central Daylight Time),388171.5,remote,1000,O,z,z,None,587,388.0,199.0,31,1,2111.4000000953674,386060.09999990463,7785,friend,AF,A,377507,377507,375794,376806,375794,377906,377307,377307,377906,115
111,test,1,inc,1,z,Thu Apr 09 2026 14:44:42 GMT-0500 (Central Daylight Time),390337.5,jacket,800,O,z,z,None,827,627.0,200.0,5,1,2162.600000023842,388174.89999997616,7785,elated,AF,A,379438,379438,377909,378723,377909,380072,379238,379238,380072,116
112,test,1,inc,1,m,Thu Apr 09 2026 14:44:42 GMT-0500 (Central Daylight Time),392220.39999997616,elated,800,O,m,m,None,540,340.0,200.0,101,1,1878.5,390341.89999997616,7785,jacket,AF,A,381605,381605,380076,380890,380076,381954,381405,381405,381954,117
113,test,1,inc,1,z,Thu Apr 09 2026 14:44:42 GMT-0500 (Central Daylight Time),394187.2999999523,rock,900,O,z,z,None,532,332.0,200.0,14,1,1961.8999999761581,392225.39999997616,7785,kind,AF,A,383588,383588,381959,382871,381960,383921,383388,383388,383921,118
114,test,1,con,1,z,Thu Apr 09 2026 14:44:42 GMT-0500 (Central Daylight Time),396368.6999999285,love,1100,O,z,z,None,541,341.0,200.0,20,1,2175.399999976158,394193.2999999523,7785,love,AF,A,385754,385754,383927,385038,383927,386103,385554,385554,386103,119
115,test,1,con,1,m,Thu Apr 09 2026 14:44:42 GMT-0500 (Central Daylight Time),398135.7999999523,jacket,800,O,m,m,None,426,227.0,199.0,97,1,1761.5,396374.2999999523,7785,jacket,AF,A,387636,387636,386108,386919,386109,387870,387437,387437,387870,120
116,test,1,inc,1,z,Thu Apr 09 2026 14:44:42 GMT-0500 (Central Daylight Time),400300.59999990463,window,1100,O,z,z,None,515,299.0,216.0,32,1,2161.1999999284744,398139.39999997616,7785,friend,AF,A,389719,389719,387873,388990,387874,390035,389503,389503,390035,121
117,test,1,inc,1,z,Thu Apr 09 2026 14:44:42 GMT-0500 (Central Daylight Time),402435.2999999523,remote,1000,O,z,z,None,600,400.0,200.0,7,1,2129.399999976158,400305.89999997616,7785,elated,AF,A,391769,391769,390040,391052,390040,392169,391568,391568,392169,122
118,test,1,con,1,z,Thu Apr 09 2026 14:44:42 GMT-0500 (Central Daylight Time),404232.59999990463,elated,800,O,z,z,None,451,252.0,199.0,1,1,1792.7999999523163,402439.7999999523,7785,elated,AF,A,393699,393699,392174,392985,392174,393967,393500,393500,393967,123
119,test,1,inc,1,m,Thu Apr 09 2026 14:44:42 GMT-0500 (Central Daylight Time),406248.89999997616,kind,900,O,m,m,None,574,374.0,200.0,78,1,2010.8999999761581,404238.0,7785,rock,AF,A,395601,395601,393972,394885,393972,395983,395401,395401,395983,124
119,test,1,con,0,m,Thu Apr 09 2026 14:44:42 GMT-0500 (Central Daylight Time),408398.1999999285,remote,1000,O,z,z,None,611,412.0,199.0,115,1,2145.1999999284744,406253.0,7785,remote,AF,A,397716,397716,395987,396999,395987,398132,397517,397517,398132,125
120,test,1,con,1,m,Thu Apr 09 2026 14:44:42 GMT-0500 (Central Daylight Time),410448.7999999523,film,800,O,m,m,None,700,501.0,199.0,89,1,2045.7999999523163,408403.0,7785,film,AF,A,399666,399666,398137,398949,398137,400183,399467,399467,400183,126
121,test,1,inc,1,z,Thu Apr 09 2026 14:44:42 GMT-0500 (Central Daylight Time),412364.1999999285,step,800,O,z,z,None,573,373.0,200.0,21,1,1911.3999999761581,410452.7999999523,7785,love,AF,A,401715,401715,400187,400998,400187,402098,401515,401515,402098,127
122,test,1,con,1,m,Thu Apr 09 2026 14:44:42 GMT-0500 (Central Daylight Time),414463.59999990463,step,900,O,m,m,None,660,460.0,200.0,66,1,2094.2999999523163,412369.2999999523,7785,step,AF,A,403732,403732,402103,403015,402104,404198,403531,403531,404198,128
