acc_sum,block,block_c,block_cond,con_img,correct,correct_response,datetime,endtime,face,jitter,line,project,response,response_time,row_sel,session_number,start_end,starttime,subject_id,task,task_vers,trial
1,prac,1,A,haborder.png,1,z,Fri Sep 19 2025 16:03:18 GMT-0500 (Central Daylight Time),63764.60000014305,CFD-WF-026-008-A.jpg,1600,solid,I,z,848,10,2,3232.300000190735,60532.299999952316,8048,ATS,B,1
2,prac,1,A,haborder.png,1,z,Fri Sep 19 2025 16:03:18 GMT-0500 (Central Daylight Time),67030.10000014305,CFD-WM-009-009-A.jpg,1900,solid,I,z,581,8,2,6497.800000190735,60532.299999952316,8048,ATS,B,2
3,prac,1,A,haborder.png,1,m,Fri Sep 19 2025 16:03:18 GMT-0500 (Central Daylight Time),69945.90000009537,CFD-BM-020-024-HC.jpg,1500,solid,I,m,626,3,2,9413.600000143051,60532.299999952316,8048,ATS,B,3
4,prac,1,A,haborder.png,1,z,Fri Sep 19 2025 16:03:18 GMT-0500 (Central Daylight Time),72861.5,CFD-WF-013-015-A.jpg,1000,solid,I,z,1132,12,2,12329.200000047684,60532.299999952316,8048,ATS,B,4
5,prac,1,A,haborder.png,1,m,Fri Sep 19 2025 16:03:18 GMT-0500 (Central Daylight Time),75677.40000009537,CFD-WM-011-006-HC.jpg,1400,solid,I,m,624,7,2,15145.100000143051,60532.299999952316,8048,ATS,B,5
6,prac,1,A,haborder.png,1,z,Fri Sep 19 2025 16:03:18 GMT-0500 (Central Daylight Time),78709.70000004768,CFD-BM-037-041-A.jpg,1600,solid,I,z,640,2,2,18177.400000095367,60532.299999952316,8048,ATS,B,6
7,prac,1,A,haborder.png,1,m,Fri Sep 19 2025 16:03:18 GMT-0500 (Central Daylight Time),81942.10000014305,CFD-WM-012-007-HC.jpg,1700,solid,I,m,748,9,2,21409.800000190735,60532.299999952316,8048,ATS,B,7
8,prac,1,A,haborder.png,1,m,Fri Sep 19 2025 16:03:18 GMT-0500 (Central Daylight Time),85725.79999995232,CFD-BF-035-007-HC.jpg,2000,solid,I,m,1000,5,2,25193.5,60532.299999952316,8048,ATS,B,8
9,prac,1,A,haborder.png,1,m,Fri Sep 19 2025 16:03:18 GMT-0500 (Central Daylight Time),88990.10000014305,CFD-BM-015-017-HC.jpg,1700,solid,I,m,773,1,2,28457.800000190735,60532.299999952316,8048,ATS,B,9
10,prac,1,A,haborder.png,1,m,Fri Sep 19 2025 16:03:18 GMT-0500 (Central Daylight Time),91972.29999995232,CFD-WF-011-006-HC.jpg,1500,solid,I,m,692,11,2,31440.0,60532.299999952316,8048,ATS,B,10
11,prac,1,A,haborder.png,1,z,Fri Sep 19 2025 16:03:18 GMT-0500 (Central Daylight Time),94621.29999995232,CFD-BF-051-043-A.jpg,1000,solid,I,z,857,4,2,34089.0,60532.299999952316,8048,ATS,B,11
12,prac,1,A,haborder.png,1,z,Fri Sep 19 2025 16:03:18 GMT-0500 (Central Daylight Time),97487.40000009537,CFD-BF-050-012-A.jpg,1200,solid,I,z,880,6,2,36955.10000014305,60532.299999952316,8048,ATS,B,12
0,prac,1,B,mfborder.png,0,z,Fri Sep 19 2025 16:03:18 GMT-0500 (Central Daylight Time),123262.5,CFD-WF-011-006-HC.jpg,1000,dash,I,None,1516,12,2,3298.7000000476837,119963.79999995232,8048,ATS,B,1
1,prac,1,B,mfborder.png,1,m,Fri Sep 19 2025 16:03:18 GMT-0500 (Central Daylight Time),126328.29999995232,CFD-WM-012-007-HC.jpg,1600,dash,I,m,671,10,2,6364.5,119963.79999995232,8048,ATS,B,2
2,prac,1,B,mfborder.png,1,z,Fri Sep 19 2025 16:03:18 GMT-0500 (Central Daylight Time),129743.79999995232,CFD-WF-027-007-HC.jpg,1900,dash,I,z,722,8,2,9780.0,119963.79999995232,8048,ATS,B,3
3,prac,1,B,mfborder.png,1,m,Fri Sep 19 2025 16:03:18 GMT-0500 (Central Daylight Time),133209.20000004768,CFD-BM-037-041-A.jpg,2000,dash,I,m,670,5,2,13245.400000095367,119963.79999995232,8048,ATS,B,4
4,prac,1,B,mfborder.png,1,m,Fri Sep 19 2025 16:03:18 GMT-0500 (Central Daylight Time),136275.0,CFD-BM-020-024-HC.jpg,1700,dash,I,m,567,1,2,16311.200000047684,119963.79999995232,8048,ATS,B,5
5,prac,1,B,mfborder.png,1,m,Fri Sep 19 2025 16:03:18 GMT-0500 (Central Daylight Time),139324.20000004768,CFD-WM-009-009-A.jpg,1700,dash,I,m,559,9,2,19360.400000095367,119963.79999995232,8048,ATS,B,6
6,prac,1,B,mfborder.png,1,m,Fri Sep 19 2025 16:03:18 GMT-0500 (Central Daylight Time),142223.20000004768,CFD-BM-041-048-A.jpg,1600,dash,I,m,506,2,2,22259.400000095367,119963.79999995232,8048,ATS,B,7
6,prac,1,B,mfborder.png,0,z,Fri Sep 19 2025 16:03:18 GMT-0500 (Central Daylight Time),144522.5,CFD-BF-051-043-A.jpg,1000,dash,I,m,502,4,2,24558.700000047684,119963.79999995232,8048,ATS,B,8
7,prac,1,B,mfborder.png,1,z,Fri Sep 19 2025 16:03:18 GMT-0500 (Central Daylight Time),147721.60000014305,CFD-BF-027-013-HC.jpg,1500,dash,I,z,911,3,2,27757.800000190735,119963.79999995232,8048,ATS,B,9
8,prac,1,B,mfborder.png,1,z,Fri Sep 19 2025 16:03:18 GMT-0500 (Central Daylight Time),150904.20000004768,CFD-BF-035-007-HC.jpg,1400,dash,I,z,988,7,2,30940.400000095367,119963.79999995232,8048,ATS,B,10
9,prac,1,B,mfborder.png,1,m,Fri Sep 19 2025 16:03:18 GMT-0500 (Central Daylight Time),154219.29999995232,CFD-WM-037-060-A.jpg,1200,dash,I,m,1318,6,2,34255.5,119963.79999995232,8048,ATS,B,11
10,prac,1,B,mfborder.png,1,z,Fri Sep 19 2025 16:03:18 GMT-0500 (Central Daylight Time),157818.29999995232,CFD-WF-026-008-A.jpg,1500,dash,I,z,1302,11,2,37854.5,119963.79999995232,8048,ATS,B,12
1,test,1,A,haborder.png,1,z,Fri Sep 19 2025 16:03:18 GMT-0500 (Central Daylight Time),170647.60000014305,CFD-BF-051-043-A.jpg,1000,solid,I,z,723,4,2,1749.5,168898.10000014305,8048,ATS,B,1
2,test,1,A,haborder.png,1,m,Fri Sep 19 2025 16:03:18 GMT-0500 (Central Daylight Time),172780.20000004768,CFD-WM-011-006-HC.jpg,1400,solid,I,m,701,7,2,3882.0999999046326,168898.10000014305,8048,ATS,B,2
3,test,1,A,haborder.png,1,m,Fri Sep 19 2025 16:03:18 GMT-0500 (Central Daylight Time),175479.40000009537,CFD-BF-035-007-HC.jpg,2000,solid,I,m,673,5,2,6581.299999952316,168898.10000014305,8048,ATS,B,3
4,test,1,A,haborder.png,1,m,Fri Sep 19 2025 16:03:18 GMT-0500 (Central Daylight Time),177461.90000009537,CFD-WF-011-006-HC.jpg,1500,solid,I,m,450,11,2,8563.799999952316,168898.10000014305,8048,ATS,B,4
5,test,1,A,haborder.png,1,m,Fri Sep 19 2025 16:03:18 GMT-0500 (Central Daylight Time),179561.5,CFD-WF-011-006-HC.jpg,1500,solid,I,m,579,11,2,10663.399999856949,168898.10000014305,8048,ATS,B,5
5,test,1,A,haborder.png,0,z,Fri Sep 19 2025 16:03:18 GMT-0500 (Central Daylight Time),181129.0,CFD-WF-013-015-A.jpg,1000,solid,I,m,540,12,2,12230.899999856949,168898.10000014305,8048,ATS,B,6
6,test,1,A,haborder.png,1,z,Fri Sep 19 2025 16:03:18 GMT-0500 (Central Daylight Time),183510.20000004768,CFD-BM-037-041-A.jpg,1600,solid,I,z,750,2,2,14612.099999904633,168898.10000014305,8048,ATS,B,7
7,test,1,A,haborder.png,1,m,Fri Sep 19 2025 16:03:18 GMT-0500 (Central Daylight Time),185826.29999995232,CFD-BM-015-017-HC.jpg,1700,solid,I,m,595,1,2,16928.199999809265,168898.10000014305,8048,ATS,B,8
8,test,1,A,haborder.png,1,z,Fri Sep 19 2025 16:03:18 GMT-0500 (Central Daylight Time),188492.10000014305,CFD-WM-009-009-A.jpg,1900,solid,I,z,744,8,2,19594.0,168898.10000014305,8048,ATS,B,9
9,test,1,A,haborder.png,1,z,Fri Sep 19 2025 16:03:18 GMT-0500 (Central Daylight Time),190674.60000014305,CFD-WF-026-008-A.jpg,1600,solid,I,z,553,10,2,21776.5,168898.10000014305,8048,ATS,B,10
10,test,1,A,haborder.png,1,z,Fri Sep 19 2025 16:03:18 GMT-0500 (Central Daylight Time),193423.60000014305,CFD-WM-009-009-A.jpg,1900,solid,I,z,831,8,2,24525.5,168898.10000014305,8048,ATS,B,11
11,test,1,A,haborder.png,1,m,Fri Sep 19 2025 16:03:18 GMT-0500 (Central Daylight Time),196106.40000009537,CFD-WM-012-007-HC.jpg,1700,solid,I,m,954,9,2,27208.299999952316,168898.10000014305,8048,ATS,B,12
12,test,1,A,haborder.png,1,m,Fri Sep 19 2025 16:03:18 GMT-0500 (Central Daylight Time),198538.79999995232,CFD-WM-012-007-HC.jpg,1700,solid,I,m,711,9,2,29640.699999809265,168898.10000014305,8048,ATS,B,13
13,test,1,A,haborder.png,1,z,Fri Sep 19 2025 16:03:18 GMT-0500 (Central Daylight Time),200888.10000014305,CFD-BM-037-041-A.jpg,1600,solid,I,z,723,2,2,31990.0,168898.10000014305,8048,ATS,B,14
14,test,1,A,haborder.png,1,z,Fri Sep 19 2025 16:03:18 GMT-0500 (Central Daylight Time),203204.0,CFD-WF-013-015-A.jpg,1000,solid,I,z,1294,12,2,34305.89999985695,168898.10000014305,8048,ATS,B,15
15,test,1,A,haborder.png,1,m,Fri Sep 19 2025 16:03:18 GMT-0500 (Central Daylight Time),205586.70000004768,CFD-WM-011-006-HC.jpg,1400,solid,I,m,953,7,2,36688.59999990463,168898.10000014305,8048,ATS,B,16
16,test,1,A,haborder.png,1,z,Fri Sep 19 2025 16:03:18 GMT-0500 (Central Daylight Time),208018.90000009537,CFD-BF-050-012-A.jpg,1200,solid,I,z,1212,6,2,39120.799999952316,168898.10000014305,8048,ATS,B,17
17,test,1,A,haborder.png,1,m,Fri Sep 19 2025 16:03:18 GMT-0500 (Central Daylight Time),210518.20000004768,CFD-BM-015-017-HC.jpg,1700,solid,I,m,774,1,2,41620.09999990463,168898.10000014305,8048,ATS,B,18
18,test,1,A,haborder.png,1,m,Fri Sep 19 2025 16:03:18 GMT-0500 (Central Daylight Time),212951.20000004768,CFD-BM-020-024-HC.jpg,1500,solid,I,m,907,3,2,44053.09999990463,168898.10000014305,8048,ATS,B,19
19,test,1,A,haborder.png,1,z,Fri Sep 19 2025 16:03:18 GMT-0500 (Central Daylight Time),214583.90000009537,CFD-BF-051-043-A.jpg,1000,solid,I,z,606,4,2,45685.799999952316,168898.10000014305,8048,ATS,B,20
20,test,1,A,haborder.png,1,z,Fri Sep 19 2025 16:03:18 GMT-0500 (Central Daylight Time),216583.20000004768,CFD-BF-050-012-A.jpg,1200,solid,I,z,774,6,2,47685.09999990463,168898.10000014305,8048,ATS,B,21
21,test,1,A,haborder.png,1,m,Fri Sep 19 2025 16:03:18 GMT-0500 (Central Daylight Time),219248.70000004768,CFD-BF-035-007-HC.jpg,2000,solid,I,m,637,5,2,50350.59999990463,168898.10000014305,8048,ATS,B,22
22,test,1,A,haborder.png,1,z,Fri Sep 19 2025 16:03:18 GMT-0500 (Central Daylight Time),221531.60000014305,CFD-WF-026-008-A.jpg,1600,solid,I,z,660,10,2,52633.5,168898.10000014305,8048,ATS,B,23
23,test,1,A,haborder.png,1,m,Fri Sep 19 2025 16:03:18 GMT-0500 (Central Daylight Time),223897.70000004768,CFD-BM-020-024-HC.jpg,1500,solid,I,m,847,3,2,54999.59999990463,168898.10000014305,8048,ATS,B,24
1,test,1,B,mfborder.png,1,m,Fri Sep 19 2025 16:03:18 GMT-0500 (Central Daylight Time),235044.10000014305,CFD-WM-012-007-HC.jpg,1600,dash,I,m,885,10,2,2515.800000190735,232528.29999995232,8048,ATS,B,1
2,test,1,B,mfborder.png,1,m,Fri Sep 19 2025 16:03:18 GMT-0500 (Central Daylight Time),237593.20000004768,CFD-WM-009-009-A.jpg,1700,dash,I,m,830,9,2,5064.900000095367,232528.29999995232,8048,ATS,B,2
3,test,1,B,mfborder.png,1,m,Fri Sep 19 2025 16:03:18 GMT-0500 (Central Daylight Time),239842.60000014305,CFD-BM-020-024-HC.jpg,1700,dash,I,m,529,1,2,7314.300000190735,232528.29999995232,8048,ATS,B,3
4,test,1,B,mfborder.png,1,m,Fri Sep 19 2025 16:03:18 GMT-0500 (Central Daylight Time),242141.79999995232,CFD-BM-020-024-HC.jpg,1700,dash,I,m,567,1,2,9613.5,232528.29999995232,8048,ATS,B,4
5,test,1,B,mfborder.png,1,m,Fri Sep 19 2025 16:03:18 GMT-0500 (Central Daylight Time),244574.5,CFD-WM-012-007-HC.jpg,1600,dash,I,m,816,10,2,12046.200000047684,232528.29999995232,8048,ATS,B,5
6,test,1,B,mfborder.png,1,z,Fri Sep 19 2025 16:03:18 GMT-0500 (Central Daylight Time),246707.10000014305,CFD-BF-051-043-A.jpg,1000,dash,I,z,1111,4,2,14178.800000190735,232528.29999995232,8048,ATS,B,6
7,test,1,B,mfborder.png,1,z,Fri Sep 19 2025 16:03:18 GMT-0500 (Central Daylight Time),249189.5,CFD-WF-027-007-HC.jpg,1900,dash,I,z,558,8,2,16661.200000047684,232528.29999995232,8048,ATS,B,7
8,test,1,B,mfborder.png,1,z,Fri Sep 19 2025 16:03:18 GMT-0500 (Central Daylight Time),251355.60000014305,CFD-WF-026-008-A.jpg,1500,dash,I,z,644,11,2,18827.300000190735,232528.29999995232,8048,ATS,B,8
9,test,1,B,mfborder.png,1,z,Fri Sep 19 2025 16:03:18 GMT-0500 (Central Daylight Time),253371.79999995232,CFD-WF-026-008-A.jpg,1500,dash,I,z,486,11,2,20843.5,232528.29999995232,8048,ATS,B,9
10,test,1,B,mfborder.png,1,z,Fri Sep 19 2025 16:03:18 GMT-0500 (Central Daylight Time),255803.90000009537,CFD-WF-027-007-HC.jpg,1900,dash,I,z,502,8,2,23275.60000014305,232528.29999995232,8048,ATS,B,10
11,test,1,B,mfborder.png,1,m,Fri Sep 19 2025 16:03:18 GMT-0500 (Central Daylight Time),258236.70000004768,CFD-BM-041-048-A.jpg,1600,dash,I,m,809,2,2,25708.400000095367,232528.29999995232,8048,ATS,B,11
12,test,1,B,mfborder.png,1,z,Fri Sep 19 2025 16:03:18 GMT-0500 (Central Daylight Time),260635.90000009537,CFD-BF-035-007-HC.jpg,1400,dash,I,z,969,7,2,28107.60000014305,232528.29999995232,8048,ATS,B,12
13,test,1,B,mfborder.png,1,m,Fri Sep 19 2025 16:03:18 GMT-0500 (Central Daylight Time),263235.2000000477,CFD-WM-009-009-A.jpg,1700,dash,I,m,869,9,2,30706.900000095367,232528.29999995232,8048,ATS,B,13
14,test,1,B,mfborder.png,1,m,Fri Sep 19 2025 16:03:18 GMT-0500 (Central Daylight Time),265018.10000014305,CFD-WM-037-060-A.jpg,1200,dash,I,m,562,6,2,32489.800000190735,232528.29999995232,8048,ATS,B,14
15,test,1,B,mfborder.png,1,z,Fri Sep 19 2025 16:03:18 GMT-0500 (Central Daylight Time),266684.40000009537,CFD-WF-011-006-HC.jpg,1000,dash,I,z,635,12,2,34156.10000014305,232528.29999995232,8048,ATS,B,15
16,test,1,B,mfborder.png,1,z,Fri Sep 19 2025 16:03:18 GMT-0500 (Central Daylight Time),268916.7999999523,CFD-BF-027-013-HC.jpg,1500,dash,I,z,701,3,2,36388.5,232528.29999995232,8048,ATS,B,16
17,test,1,B,mfborder.png,1,m,Fri Sep 19 2025 16:03:18 GMT-0500 (Central Daylight Time),271815.7999999523,CFD-BM-037-041-A.jpg,2000,dash,I,m,881,5,2,39287.5,232528.29999995232,8048,ATS,B,17
18,test,1,B,mfborder.png,1,z,Fri Sep 19 2025 16:03:18 GMT-0500 (Central Daylight Time),273598.7999999523,CFD-WF-011-006-HC.jpg,1000,dash,I,z,758,12,2,41070.5,232528.29999995232,8048,ATS,B,18
19,test,1,B,mfborder.png,1,m,Fri Sep 19 2025 16:03:18 GMT-0500 (Central Daylight Time),276214.7000000477,CFD-BM-037-041-A.jpg,2000,dash,I,m,599,5,2,43686.40000009537,232528.29999995232,8048,ATS,B,19
20,test,1,B,mfborder.png,1,m,Fri Sep 19 2025 16:03:18 GMT-0500 (Central Daylight Time),278493.7999999523,CFD-BM-041-048-A.jpg,1600,dash,I,m,662,2,2,45965.5,232528.29999995232,8048,ATS,B,20
21,test,1,B,mfborder.png,1,m,Fri Sep 19 2025 16:03:18 GMT-0500 (Central Daylight Time),280746.7000000477,CFD-WM-037-060-A.jpg,1200,dash,I,m,1020,6,2,48218.40000009537,232528.29999995232,8048,ATS,B,21
22,test,1,B,mfborder.png,1,z,Fri Sep 19 2025 16:03:18 GMT-0500 (Central Daylight Time),282862.2999999523,CFD-BF-027-013-HC.jpg,1500,dash,I,z,591,3,2,50334.0,232528.29999995232,8048,ATS,B,22
23,test,1,B,mfborder.png,1,z,Fri Sep 19 2025 16:03:18 GMT-0500 (Central Daylight Time),284478.60000014305,CFD-BF-051-043-A.jpg,1000,dash,I,z,599,4,2,51950.300000190735,232528.29999995232,8048,ATS,B,23
24,test,1,B,mfborder.png,1,z,Fri Sep 19 2025 16:03:18 GMT-0500 (Central Daylight Time),286694.5,CFD-BF-035-007-HC.jpg,1400,dash,I,z,799,7,2,54166.200000047684,232528.29999995232,8048,ATS,B,24
0,10,1,C,haborder.png,0,m,Fri Sep 19 2025 16:03:18 GMT-0500 (Central Daylight Time),306388.5,CFD-BM-020-024-HC.jpg,1500,solid,I,None,1516,prac,2,3798.7999999523163,302589.7000000477,8048,ATS,B,1
1,11,1,C,haborder.png,1,m,Fri Sep 19 2025 16:03:18 GMT-0500 (Central Daylight Time),309087.5,CFD-WM-011-006-HC.jpg,1000,dash,I,m,912,prac,2,6497.799999952316,302589.7000000477,8048,ATS,B,2
2,5,1,C,mfborder.png,1,m,Fri Sep 19 2025 16:03:18 GMT-0500 (Central Daylight Time),311937.10000014305,CFD-BM-037-041-A.jpg,1200,dash,I,m,862,prac,2,9347.400000095367,302589.7000000477,8048,ATS,B,3
3,8,1,C,haborder.png,1,z,Fri Sep 19 2025 16:03:18 GMT-0500 (Central Daylight Time),315569.0,CFD-BF-050-012-A.jpg,1700,solid,I,z,1137,prac,2,12979.299999952316,302589.7000000477,8048,ATS,B,4
4,4,1,C,mfborder.png,1,m,Fri Sep 19 2025 16:03:18 GMT-0500 (Central Daylight Time),319068.90000009537,CFD-BM-015-017-HC.jpg,2000,solid,I,m,709,prac,2,16479.200000047684,302589.7000000477,8048,ATS,B,5
5,9,1,C,haborder.png,1,z,Fri Sep 19 2025 16:03:18 GMT-0500 (Central Daylight Time),322516.7999999523,CFD-WF-026-008-A.jpg,1600,dash,I,z,1050,prac,2,19927.099999904633,302589.7000000477,8048,ATS,B,6
6,3,1,C,mfborder.png,1,z,Fri Sep 19 2025 16:03:18 GMT-0500 (Central Daylight Time),325182.2999999523,CFD-BF-035-007-HC.jpg,1000,dash,I,z,873,prac,2,22592.599999904633,302589.7000000477,8048,ATS,B,7
7,12,1,C,haborder.png,1,m,Fri Sep 19 2025 16:03:18 GMT-0500 (Central Daylight Time),328081.7999999523,CFD-WM-011-006-HC.jpg,1400,solid,I,m,703,prac,2,25492.099999904633,302589.7000000477,8048,ATS,B,8
8,2,1,C,mfborder.png,1,z,Fri Sep 19 2025 16:03:18 GMT-0500 (Central Daylight Time),331097.0,CFD-WF-013-015-A.jpg,1500,solid,I,z,728,prac,2,28507.299999952316,302589.7000000477,8048,ATS,B,9
8,6,1,C,mfborder.png,0,m,Fri Sep 19 2025 16:03:18 GMT-0500 (Central Daylight Time),334878.90000009537,CFD-WM-009-009-A.jpg,1700,solid,I,z,1287,prac,2,32289.200000047684,302589.7000000477,8048,ATS,B,10
9,1,1,C,mfborder.png,1,z,Fri Sep 19 2025 16:03:18 GMT-0500 (Central Daylight Time),338178.5,CFD-WF-011-006-HC.jpg,1600,dash,I,z,902,prac,2,35588.799999952316,302589.7000000477,8048,ATS,B,11
10,7,1,C,haborder.png,1,z,Fri Sep 19 2025 16:03:18 GMT-0500 (Central Daylight Time),341793.7000000477,CFD-BF-051-043-A.jpg,1900,dash,I,z,919,prac,2,39204.0,302589.7000000477,8048,ATS,B,12
0,test,1,C,haborder.png,0,m,Fri Sep 19 2025 16:03:18 GMT-0500 (Central Daylight Time),356022.7999999523,CFD-WF-027-007-HC.jpg,1500,solid,I,None,1516,11,2,3032.399999856949,352990.40000009537,8048,ATS,B,1
0,test,1,C,haborder.png,0,z,Fri Sep 19 2025 16:03:18 GMT-0500 (Central Daylight Time),359321.7999999523,CFD-BM-037-041-A.jpg,1900,solid,I,m,1371,8,2,6331.399999856949,352990.40000009537,8048,ATS,B,2
1,test,1,C,mfborder.png,1,m,Fri Sep 19 2025 16:03:18 GMT-0500 (Central Daylight Time),361737.7999999523,CFD-WM-012-007-HC.jpg,1000,dash,I,m,1388,4,2,8747.399999856949,352990.40000009537,8048,ATS,B,3
2,test,1,C,mfborder.png,1,m,Fri Sep 19 2025 16:03:18 GMT-0500 (Central Daylight Time),363620.40000009537,CFD-BM-020-024-HC.jpg,1200,dash,I,m,660,6,2,10630.0,352990.40000009537,8048,ATS,B,4
3,test,1,C,haborder.png,1,z,Fri Sep 19 2025 16:03:18 GMT-0500 (Central Daylight Time),365936.5,CFD-WM-009-009-A.jpg,1400,solid,I,z,897,7,2,12946.099999904633,352990.40000009537,8048,ATS,B,5
4,test,1,C,haborder.png,1,m,Fri Sep 19 2025 16:03:18 GMT-0500 (Central Daylight Time),367669.0,CFD-WF-011-006-HC.jpg,1000,solid,I,m,709,12,2,14678.599999904633,352990.40000009537,8048,ATS,B,6
5,test,1,C,mfborder.png,1,m,Fri Sep 19 2025 16:03:18 GMT-0500 (Central Daylight Time),369618.5,CFD-BM-020-024-HC.jpg,1200,dash,I,m,728,6,2,16628.099999904633,352990.40000009537,8048,ATS,B,7
6,test,1,C,haborder.png,1,z,Fri Sep 19 2025 16:03:18 GMT-0500 (Central Daylight Time),372401.0,CFD-BM-037-041-A.jpg,1900,solid,I,z,863,8,2,19410.599999904633,352990.40000009537,8048,ATS,B,8
7,test,1,C,mfborder.png,1,m,Fri Sep 19 2025 16:03:18 GMT-0500 (Central Daylight Time),375549.7999999523,CFD-WM-037-060-A.jpg,2000,dash,I,m,1117,5,2,22559.39999985695,352990.40000009537,8048,ATS,B,9
8,test,1,C,haborder.png,1,m,Fri Sep 19 2025 16:03:18 GMT-0500 (Central Daylight Time),378249.0,CFD-WF-027-007-HC.jpg,1500,solid,I,m,1173,11,2,25258.599999904633,352990.40000009537,8048,ATS,B,10
9,test,1,C,haborder.png,1,z,Fri Sep 19 2025 16:03:18 GMT-0500 (Central Daylight Time),380781.7999999523,CFD-BM-041-048-A.jpg,1700,solid,I,z,817,9,2,27791.39999985695,352990.40000009537,8048,ATS,B,11
10,test,1,C,haborder.png,1,m,Fri Sep 19 2025 16:03:18 GMT-0500 (Central Daylight Time),382547.7999999523,CFD-WF-011-006-HC.jpg,1000,solid,I,m,736,12,2,29557.39999985695,352990.40000009537,8048,ATS,B,12
11,test,1,C,mfborder.png,1,z,Fri Sep 19 2025 16:03:18 GMT-0500 (Central Daylight Time),385013.60000014305,CFD-WF-026-008-A.jpg,1500,dash,I,z,941,3,2,32023.200000047684,352990.40000009537,8048,ATS,B,13
11,test,1,C,haborder.png,0,m,Fri Sep 19 2025 16:03:18 GMT-0500 (Central Daylight Time),388012.90000009537,CFD-BF-035-007-HC.jpg,1600,solid,I,z,1368,10,2,35022.5,352990.40000009537,8048,ATS,B,14
12,test,1,C,mfborder.png,1,m,Fri Sep 19 2025 16:03:18 GMT-0500 (Central Daylight Time),389812.0,CFD-WM-012-007-HC.jpg,1000,dash,I,m,769,4,2,36821.59999990463,352990.40000009537,8048,ATS,B,15
12,test,1,C,mfborder.png,0,z,Fri Sep 19 2025 16:03:18 GMT-0500 (Central Daylight Time),392861.2000000477,CFD-BF-051-043-A.jpg,1600,dash,I,m,1417,2,2,39870.799999952316,352990.40000009537,8048,ATS,B,16
13,test,1,C,mfborder.png,1,z,Fri Sep 19 2025 16:03:18 GMT-0500 (Central Daylight Time),395493.60000014305,CFD-BF-027-013-HC.jpg,1700,dash,I,z,900,1,2,42503.200000047684,352990.40000009537,8048,ATS,B,17
14,test,1,C,haborder.png,1,z,Fri Sep 19 2025 16:03:18 GMT-0500 (Central Daylight Time),398259.7000000477,CFD-WM-009-009-A.jpg,1400,solid,I,z,1345,7,2,45269.299999952316,352990.40000009537,8048,ATS,B,18
15,test,1,C,mfborder.png,1,m,Fri Sep 19 2025 16:03:18 GMT-0500 (Central Daylight Time),401025.5,CFD-WM-037-060-A.jpg,2000,dash,I,m,738,5,2,48035.09999990463,352990.40000009537,8048,ATS,B,19
16,test,1,C,haborder.png,1,z,Fri Sep 19 2025 16:03:18 GMT-0500 (Central Daylight Time),404074.2000000477,CFD-BM-041-048-A.jpg,1700,solid,I,z,1320,9,2,51083.799999952316,352990.40000009537,8048,ATS,B,20
16,test,1,C,mfborder.png,0,z,Fri Sep 19 2025 16:03:18 GMT-0500 (Central Daylight Time),406557.0,CFD-BF-027-013-HC.jpg,1700,dash,I,m,750,1,2,53566.59999990463,352990.40000009537,8048,ATS,B,21
17,test,1,C,mfborder.png,1,z,Fri Sep 19 2025 16:03:18 GMT-0500 (Central Daylight Time),408773.40000009537,CFD-WF-026-008-A.jpg,1500,dash,I,z,692,3,2,55783.0,352990.40000009537,8048,ATS,B,22
18,test,1,C,haborder.png,1,m,Fri Sep 19 2025 16:03:18 GMT-0500 (Central Daylight Time),411872.0,CFD-BF-035-007-HC.jpg,1600,solid,I,m,1480,10,2,58881.59999990463,352990.40000009537,8048,ATS,B,23
19,test,1,C,mfborder.png,1,z,Fri Sep 19 2025 16:03:18 GMT-0500 (Central Daylight Time),414638.7999999523,CFD-BF-051-043-A.jpg,1600,dash,I,z,1133,2,2,61648.39999985695,352990.40000009537,8048,ATS,B,24
1,test,2,C,haborder.png,1,m,Fri Sep 19 2025 16:03:18 GMT-0500 (Central Daylight Time),418969.7999999523,CFD-WM-011-006-HC.jpg,1000,solid,I,m,1079,12,2,2099.0,416870.7999999523,8048,ATS,B,1
1,test,2,C,mfborder.png,0,m,Fri Sep 19 2025 16:03:18 GMT-0500 (Central Daylight Time),421152.40000009537,CFD-WM-009-009-A.jpg,1200,dash,I,z,964,6,2,4281.600000143051,416870.7999999523,8048,ATS,B,2
2,test,2,C,haborder.png,1,m,Fri Sep 19 2025 16:03:18 GMT-0500 (Central Daylight Time),424118.10000014305,CFD-WM-011-006-HC.jpg,1500,solid,I,m,1441,11,2,7247.300000190735,416870.7999999523,8048,ATS,B,3
3,test,2,C,mfborder.png,1,m,Fri Sep 19 2025 16:03:18 GMT-0500 (Central Daylight Time),425884.10000014305,CFD-WM-009-009-A.jpg,1200,dash,I,m,543,6,2,9013.300000190735,416870.7999999523,8048,ATS,B,4
4,test,2,C,haborder.png,1,m,Fri Sep 19 2025 16:03:18 GMT-0500 (Central Daylight Time),428066.7999999523,CFD-WM-011-006-HC.jpg,1000,solid,I,m,1153,12,2,11196.0,416870.7999999523,8048,ATS,B,5
5,test,2,C,haborder.png,1,z,Fri Sep 19 2025 16:03:18 GMT-0500 (Central Daylight Time),430266.0,CFD-BF-051-043-A.jpg,1400,solid,I,z,779,7,2,13395.200000047684,416870.7999999523,8048,ATS,B,6
6,test,2,C,haborder.png,1,z,Fri Sep 19 2025 16:03:18 GMT-0500 (Central Daylight Time),432499.0,CFD-BF-051-043-A.jpg,1400,solid,I,z,811,7,2,15628.200000047684,416870.7999999523,8048,ATS,B,7
7,test,2,C,mfborder.png,1,m,Fri Sep 19 2025 16:03:18 GMT-0500 (Central Daylight Time),434298.0,CFD-BM-015-017-HC.jpg,1000,dash,I,m,771,4,2,17427.200000047684,416870.7999999523,8048,ATS,B,8
8,test,2,C,haborder.png,1,z,Fri Sep 19 2025 16:03:18 GMT-0500 (Central Daylight Time),437230.7000000477,CFD-BF-050-012-A.jpg,1900,solid,I,z,1016,8,2,20359.900000095367,416870.7999999523,8048,ATS,B,9
9,test,2,C,mfborder.png,1,m,Fri Sep 19 2025 16:03:18 GMT-0500 (Central Daylight Time),440129.7000000477,CFD-BM-037-041-A.jpg,2000,dash,I,m,871,5,2,23258.900000095367,416870.7999999523,8048,ATS,B,10
10,test,2,C,mfborder.png,1,m,Fri Sep 19 2025 16:03:18 GMT-0500 (Central Daylight Time),441779.40000009537,CFD-BM-015-017-HC.jpg,1000,dash,I,m,628,4,2,24908.60000014305,416870.7999999523,8048,ATS,B,11
11,test,2,C,haborder.png,1,z,Fri Sep 19 2025 16:03:18 GMT-0500 (Central Daylight Time),444895.0,CFD-BF-050-012-A.jpg,1900,solid,I,z,1138,8,2,28024.200000047684,416870.7999999523,8048,ATS,B,12
12,test,2,C,mfborder.png,1,z,Fri Sep 19 2025 16:03:18 GMT-0500 (Central Daylight Time),447360.7000000477,CFD-BF-035-007-HC.jpg,1500,dash,I,z,947,3,2,30489.900000095367,416870.7999999523,8048,ATS,B,13
13,test,2,C,mfborder.png,1,z,Fri Sep 19 2025 16:03:18 GMT-0500 (Central Daylight Time),449510.10000014305,CFD-WF-013-015-A.jpg,1600,dash,I,z,525,2,2,32639.300000190735,416870.7999999523,8048,ATS,B,14
14,test,2,C,mfborder.png,1,m,Fri Sep 19 2025 16:03:18 GMT-0500 (Central Daylight Time),452126.0,CFD-BM-037-041-A.jpg,2000,dash,I,m,600,5,2,35255.200000047684,416870.7999999523,8048,ATS,B,15
14,test,2,C,haborder.png,0,m,Fri Sep 19 2025 16:03:18 GMT-0500 (Central Daylight Time),455258.10000014305,CFD-BM-020-024-HC.jpg,1600,solid,I,None,1515,10,2,38387.300000190735,416870.7999999523,8048,ATS,B,16
15,test,2,C,mfborder.png,1,z,Fri Sep 19 2025 16:03:18 GMT-0500 (Central Daylight Time),457874.2999999523,CFD-WF-011-006-HC.jpg,1700,dash,I,z,895,1,2,41003.5,416870.7999999523,8048,ATS,B,17
16,test,2,C,haborder.png,1,z,Fri Sep 19 2025 16:03:18 GMT-0500 (Central Daylight Time),460356.5,CFD-WF-026-008-A.jpg,1700,solid,I,z,760,9,2,43485.700000047684,416870.7999999523,8048,ATS,B,18
16,test,2,C,mfborder.png,0,z,Fri Sep 19 2025 16:03:18 GMT-0500 (Central Daylight Time),462789.40000009537,CFD-BF-035-007-HC.jpg,1500,dash,I,m,909,3,2,45918.60000014305,416870.7999999523,8048,ATS,B,19
17,test,2,C,mfborder.png,1,z,Fri Sep 19 2025 16:03:18 GMT-0500 (Central Daylight Time),465521.7999999523,CFD-WF-013-015-A.jpg,1600,dash,I,z,1104,2,2,48651.0,416870.7999999523,8048,ATS,B,20
18,test,2,C,mfborder.png,1,z,Fri Sep 19 2025 16:03:18 GMT-0500 (Central Daylight Time),467870.7000000477,CFD-WF-011-006-HC.jpg,1700,dash,I,z,525,1,2,50999.90000009537,416870.7999999523,8048,ATS,B,21
19,test,2,C,haborder.png,1,m,Fri Sep 19 2025 16:03:18 GMT-0500 (Central Daylight Time),470803.7000000477,CFD-BM-020-024-HC.jpg,1600,solid,I,m,1310,10,2,53932.90000009537,416870.7999999523,8048,ATS,B,22
20,test,2,C,haborder.png,1,z,Fri Sep 19 2025 16:03:18 GMT-0500 (Central Daylight Time),473469.10000014305,CFD-WF-026-008-A.jpg,1700,solid,I,z,934,9,2,56598.300000190735,416870.7999999523,8048,ATS,B,23
21,test,2,C,haborder.png,1,m,Fri Sep 19 2025 16:03:18 GMT-0500 (Central Daylight Time),475718.2999999523,CFD-WM-011-006-HC.jpg,1500,solid,I,m,732,11,2,58847.5,416870.7999999523,8048,ATS,B,24
1,test,3,C,mfborder.png,1,z,Fri Sep 19 2025 16:03:18 GMT-0500 (Central Daylight Time),481533.5,CFD-WF-026-008-A.jpg,1500,dash,I,z,1275,3,2,2799.2999999523163,478734.2000000477,8048,ATS,B,1
1,test,3,C,haborder.png,0,m,Fri Sep 19 2025 16:03:18 GMT-0500 (Central Daylight Time),484066.2000000477,CFD-WF-011-006-HC.jpg,1000,solid,I,None,1516,12,2,5332.0,478734.2000000477,8048,ATS,B,2
1,test,3,C,haborder.png,0,z,Fri Sep 19 2025 16:03:18 GMT-0500 (Central Daylight Time),486848.60000014305,CFD-WM-009-009-A.jpg,1400,solid,I,m,1357,7,2,8114.400000095367,478734.2000000477,8048,ATS,B,3
2,test,3,C,mfborder.png,1,z,Fri Sep 19 2025 16:03:18 GMT-0500 (Central Daylight Time),489614.2999999523,CFD-BF-027-013-HC.jpg,1700,dash,I,z,1033,1,2,10880.099999904633,478734.2000000477,8048,ATS,B,4
2,test,3,C,mfborder.png,0,m,Fri Sep 19 2025 16:03:18 GMT-0500 (Central Daylight Time),492397.10000014305,CFD-BM-020-024-HC.jpg,1200,dash,I,None,1505,6,2,13662.900000095367,478734.2000000477,8048,ATS,B,5
3,test,3,C,mfborder.png,1,m,Fri Sep 19 2025 16:03:18 GMT-0500 (Central Daylight Time),494012.7999999523,CFD-WM-012-007-HC.jpg,1000,dash,I,m,593,4,2,15278.599999904633,478734.2000000477,8048,ATS,B,6
4,test,3,C,haborder.png,1,z,Fri Sep 19 2025 16:03:18 GMT-0500 (Central Daylight Time),496778.5,CFD-BM-041-048-A.jpg,1700,solid,I,z,1045,9,2,18044.299999952316,478734.2000000477,8048,ATS,B,7
4,test,3,C,haborder.png,0,m,Fri Sep 19 2025 16:03:18 GMT-0500 (Central Daylight Time),499911.2000000477,CFD-BF-035-007-HC.jpg,1600,solid,I,None,1516,10,2,21177.0,478734.2000000477,8048,ATS,B,8
5,test,3,C,mfborder.png,1,z,Fri Sep 19 2025 16:03:18 GMT-0500 (Central Daylight Time),502443.60000014305,CFD-WF-026-008-A.jpg,1500,dash,I,z,1002,3,2,23709.400000095367,478734.2000000477,8048,ATS,B,9
5,test,3,C,haborder.png,0,z,Fri Sep 19 2025 16:03:18 GMT-0500 (Central Daylight Time),505875.90000009537,CFD-BM-037-041-A.jpg,1900,solid,I,None,1516,8,2,27141.700000047684,478734.2000000477,8048,ATS,B,10
6,test,3,C,haborder.png,1,z,Fri Sep 19 2025 16:03:18 GMT-0500 (Central Daylight Time),507991.60000014305,CFD-WM-009-009-A.jpg,1400,solid,I,z,698,7,2,29257.400000095367,478734.2000000477,8048,ATS,B,11
7,test,3,C,haborder.png,1,m,Fri Sep 19 2025 16:03:18 GMT-0500 (Central Daylight Time),510274.2999999523,CFD-WF-027-007-HC.jpg,1500,solid,I,m,762,11,2,31540.099999904633,478734.2000000477,8048,ATS,B,12
8,test,3,C,haborder.png,1,m,Fri Sep 19 2025 16:03:18 GMT-0500 (Central Daylight Time),512656.90000009537,CFD-BF-035-007-HC.jpg,1600,solid,I,m,755,10,2,33922.700000047684,478734.2000000477,8048,ATS,B,13
9,test,3,C,mfborder.png,1,z,Fri Sep 19 2025 16:03:18 GMT-0500 (Central Daylight Time),515222.5,CFD-BF-051-043-A.jpg,1600,dash,I,z,879,2,2,36488.299999952316,478734.2000000477,8048,ATS,B,14
10,test,3,C,haborder.png,1,z,Fri Sep 19 2025 16:03:18 GMT-0500 (Central Daylight Time),518305.10000014305,CFD-BM-041-048-A.jpg,1700,solid,I,z,1356,9,2,39570.90000009537,478734.2000000477,8048,ATS,B,15
11,test,3,C,haborder.png,1,m,Fri Sep 19 2025 16:03:18 GMT-0500 (Central Daylight Time),520088.10000014305,CFD-WF-011-006-HC.jpg,1000,solid,I,m,764,12,2,41353.90000009537,478734.2000000477,8048,ATS,B,16
12,test,3,C,mfborder.png,1,z,Fri Sep 19 2025 16:03:18 GMT-0500 (Central Daylight Time),522787.10000014305,CFD-BF-027-013-HC.jpg,1700,dash,I,z,978,1,2,44052.90000009537,478734.2000000477,8048,ATS,B,17
13,test,3,C,haborder.png,1,z,Fri Sep 19 2025 16:03:18 GMT-0500 (Central Daylight Time),525902.9000000954,CFD-BM-037-041-A.jpg,1900,solid,I,z,1191,8,2,47168.700000047684,478734.2000000477,8048,ATS,B,18
14,test,3,C,mfborder.png,1,m,Fri Sep 19 2025 16:03:18 GMT-0500 (Central Daylight Time),527585.600000143,CFD-WM-012-007-HC.jpg,1000,dash,I,m,655,4,2,48851.40000009537,478734.2000000477,8048,ATS,B,19
15,test,3,C,mfborder.png,1,m,Fri Sep 19 2025 16:03:18 GMT-0500 (Central Daylight Time),530201.4000000954,CFD-WM-037-060-A.jpg,2000,dash,I,m,596,5,2,51467.200000047684,478734.2000000477,8048,ATS,B,20
16,test,3,C,mfborder.png,1,m,Fri Sep 19 2025 16:03:18 GMT-0500 (Central Daylight Time),533233.9000000954,CFD-WM-037-060-A.jpg,2000,dash,I,m,1012,5,2,54499.700000047684,478734.2000000477,8048,ATS,B,21
16,test,3,C,haborder.png,0,m,Fri Sep 19 2025 16:03:18 GMT-0500 (Central Daylight Time),536066.7000000477,CFD-WF-027-007-HC.jpg,1500,solid,I,z,1303,11,2,57332.5,478734.2000000477,8048,ATS,B,22
17,test,3,C,mfborder.png,1,m,Fri Sep 19 2025 16:03:18 GMT-0500 (Central Daylight Time),538215.9000000954,CFD-BM-020-024-HC.jpg,1200,dash,I,m,924,6,2,59481.700000047684,478734.2000000477,8048,ATS,B,23
18,test,3,C,mfborder.png,1,z,Fri Sep 19 2025 16:03:18 GMT-0500 (Central Daylight Time),540748.2999999523,CFD-BF-051-043-A.jpg,1600,dash,I,z,902,2,2,62014.09999990463,478734.2000000477,8048,ATS,B,24
1,test,4,C,haborder.png,1,z,Fri Sep 19 2025 16:03:18 GMT-0500 (Central Daylight Time),545613.5,CFD-BF-050-012-A.jpg,1900,solid,I,z,1434,8,2,3365.7999999523163,542247.7000000477,8048,ATS,B,1
2,test,4,C,haborder.png,1,m,Fri Sep 19 2025 16:03:18 GMT-0500 (Central Daylight Time),547729.7999999523,CFD-WM-011-006-HC.jpg,1500,solid,I,m,588,11,2,5482.099999904633,542247.7000000477,8048,ATS,B,2
3,test,4,C,haborder.png,1,m,Fri Sep 19 2025 16:03:18 GMT-0500 (Central Daylight Time),550395.2999999523,CFD-BM-020-024-HC.jpg,1600,solid,I,m,1044,10,2,8147.599999904633,542247.7000000477,8048,ATS,B,3
4,test,4,C,haborder.png,1,z,Fri Sep 19 2025 16:03:18 GMT-0500 (Central Daylight Time),552460.9000000954,CFD-BF-051-043-A.jpg,1400,solid,I,z,633,7,2,10213.200000047684,542247.7000000477,8048,ATS,B,4
5,test,4,C,haborder.png,1,m,Fri Sep 19 2025 16:03:18 GMT-0500 (Central Daylight Time),554827.100000143,CFD-BM-020-024-HC.jpg,1600,solid,I,m,736,10,2,12579.400000095367,542247.7000000477,8048,ATS,B,5
6,test,4,C,mfborder.png,1,m,Fri Sep 19 2025 16:03:18 GMT-0500 (Central Daylight Time),556710.0,CFD-BM-015-017-HC.jpg,1000,dash,I,m,866,4,2,14462.299999952316,542247.7000000477,8048,ATS,B,6
7,test,4,C,mfborder.png,1,z,Fri Sep 19 2025 16:03:18 GMT-0500 (Central Daylight Time),558909.2000000477,CFD-WF-013-015-A.jpg,1600,dash,I,z,568,2,2,16661.5,542247.7000000477,8048,ATS,B,7
8,test,4,C,haborder.png,1,z,Fri Sep 19 2025 16:03:18 GMT-0500 (Central Daylight Time),561824.9000000954,CFD-BF-050-012-A.jpg,1900,solid,I,z,988,8,2,19577.200000047684,542247.7000000477,8048,ATS,B,8
8,test,4,C,mfborder.png,0,z,Fri Sep 19 2025 16:03:18 GMT-0500 (Central Daylight Time),564440.7999999523,CFD-WF-011-006-HC.jpg,1700,dash,I,m,889,1,2,22193.099999904633,542247.7000000477,8048,ATS,B,9
9,test,4,C,haborder.png,1,m,Fri Sep 19 2025 16:03:18 GMT-0500 (Central Daylight Time),566206.9000000954,CFD-WM-011-006-HC.jpg,1000,solid,I,m,740,12,2,23959.200000047684,542247.7000000477,8048,ATS,B,10
10,test,4,C,mfborder.png,1,z,Fri Sep 19 2025 16:03:18 GMT-0500 (Central Daylight Time),568489.600000143,CFD-WF-013-015-A.jpg,1600,dash,I,z,663,2,2,26241.900000095367,542247.7000000477,8048,ATS,B,11
11,test,4,C,haborder.png,1,m,Fri Sep 19 2025 16:03:18 GMT-0500 (Central Daylight Time),571271.7999999523,CFD-WM-011-006-HC.jpg,1500,solid,I,m,1256,11,2,29024.099999904633,542247.7000000477,8048,ATS,B,12
12,test,4,C,mfborder.png,1,m,Fri Sep 19 2025 16:03:18 GMT-0500 (Central Daylight Time),573071.600000143,CFD-BM-015-017-HC.jpg,1000,dash,I,m,773,4,2,30823.900000095367,542247.7000000477,8048,ATS,B,13
13,test,4,C,mfborder.png,1,z,Fri Sep 19 2025 16:03:18 GMT-0500 (Central Daylight Time),575770.600000143,CFD-WF-011-006-HC.jpg,1700,dash,I,z,970,1,2,33522.90000009537,542247.7000000477,8048,ATS,B,14
14,test,4,C,mfborder.png,1,m,Fri Sep 19 2025 16:03:18 GMT-0500 (Central Daylight Time),578603.0,CFD-BM-037-041-A.jpg,2000,dash,I,m,803,5,2,36355.299999952316,542247.7000000477,8048,ATS,B,15
15,test,4,C,haborder.png,1,z,Fri Sep 19 2025 16:03:18 GMT-0500 (Central Daylight Time),580952.4000000954,CFD-BF-051-043-A.jpg,1400,solid,I,z,930,7,2,38704.700000047684,542247.7000000477,8048,ATS,B,16
16,test,4,C,mfborder.png,1,m,Fri Sep 19 2025 16:03:18 GMT-0500 (Central Daylight Time),583701.4000000954,CFD-BM-037-041-A.jpg,2000,dash,I,m,717,5,2,41453.700000047684,542247.7000000477,8048,ATS,B,17
17,test,4,C,haborder.png,1,m,Fri Sep 19 2025 16:03:18 GMT-0500 (Central Daylight Time),585750.7000000477,CFD-WM-011-006-HC.jpg,1000,solid,I,m,1016,12,2,43503.0,542247.7000000477,8048,ATS,B,18
18,test,4,C,mfborder.png,1,m,Fri Sep 19 2025 16:03:18 GMT-0500 (Central Daylight Time),587817.0,CFD-WM-009-009-A.jpg,1200,dash,I,m,840,6,2,45569.299999952316,542247.7000000477,8048,ATS,B,19
19,test,4,C,mfborder.png,1,m,Fri Sep 19 2025 16:03:18 GMT-0500 (Central Daylight Time),589766.2999999523,CFD-WM-009-009-A.jpg,1200,dash,I,m,717,6,2,47518.59999990463,542247.7000000477,8048,ATS,B,20
20,test,4,C,mfborder.png,1,z,Fri Sep 19 2025 16:03:18 GMT-0500 (Central Daylight Time),592548.7999999523,CFD-BF-035-007-HC.jpg,1500,dash,I,z,1259,3,2,50301.09999990463,542247.7000000477,8048,ATS,B,21
21,test,4,C,haborder.png,1,z,Fri Sep 19 2025 16:03:18 GMT-0500 (Central Daylight Time),595314.5,CFD-WF-026-008-A.jpg,1700,solid,I,z,1037,9,2,53066.799999952316,542247.7000000477,8048,ATS,B,22
22,test,4,C,mfborder.png,1,z,Fri Sep 19 2025 16:03:18 GMT-0500 (Central Daylight Time),597763.7000000477,CFD-BF-035-007-HC.jpg,1500,dash,I,z,927,3,2,55516.0,542247.7000000477,8048,ATS,B,23
23,test,4,C,haborder.png,1,z,Fri Sep 19 2025 16:03:18 GMT-0500 (Central Daylight Time),600463.0,CFD-WF-026-008-A.jpg,1700,solid,I,z,974,9,2,58215.299999952316,542247.7000000477,8048,ATS,B,24
