block_c,block_dur,condition,countdown,datetime,endtime,list,multichar_response,project,response,response_time,session_number,start_end,starttime,subject_id,task,task_vers,trial
,,,,Wed Oct 08 2025 16:13:00 GMT-0500 (Central Daylight Time),,,,O,space,654,1,,,7702,WL,B,
prac,,0,,Wed Oct 08 2025 16:13:00 GMT-0500 (Central Daylight Time),,NA,b,O,b,7536,1,,,7702,WL,B,1.0
prac,,0,,Wed Oct 08 2025 16:13:00 GMT-0500 (Central Daylight Time),,NA,bo,O,o,692,1,,,7702,WL,B,1.0
prac,,0,,Wed Oct 08 2025 16:13:00 GMT-0500 (Central Daylight Time),,NA,boo,O,o,171,1,,,7702,WL,B,1.0
prac,,0,,Wed Oct 08 2025 16:13:00 GMT-0500 (Central Daylight Time),,NA,boos,O,s,111,1,,,7702,WL,B,1.0
prac,,0,,Wed Oct 08 2025 16:13:00 GMT-0500 (Central Daylight Time),,NA,boost,O,t,337,1,,,7702,WL,B,1.0
prac,,0,,Wed Oct 08 2025 16:13:00 GMT-0500 (Central Daylight Time),,NA,boostenter,O,enter,3018,1,,,7702,WL,B,1.0
1,1.682999849319458,learn,58317.00015068054,Wed Oct 08 2025 16:13:00 GMT-0500 (Central Daylight Time),290488.0,A,g,O,g,1672,1,1682.3999999761581,288805.60000002384,7702,WL,B,1.0
1,1.9169998168945312,learn,58083.00018310547,Wed Oct 08 2025 16:13:00 GMT-0500 (Central Daylight Time),290722.10000002384,A,gr,O,r,213,1,1916.5,288805.60000002384,7702,WL,B,1.0
1,2.1659998893737793,learn,57834.00011062622,Wed Oct 08 2025 16:13:00 GMT-0500 (Central Daylight Time),290971.2000000477,A,grq,O,q,242,1,2165.600000023842,288805.60000002384,7702,WL,B,1.0
1,2.7339999675750732,learn,57266.00003242493,Wed Oct 08 2025 16:13:00 GMT-0500 (Central Daylight Time),291539.2999999523,A,grqs,O,s,547,1,2733.6999999284744,288805.60000002384,7702,WL,B,1.0
1,4.732999801635742,learn,55267.00019836426,Wed Oct 08 2025 16:13:00 GMT-0500 (Central Daylight Time),293538.0,A,grq,O,backspace,1977,1,4732.399999976158,288805.60000002384,7702,WL,B,1.0
1,5.317999839782715,learn,54682.000160217285,Wed Oct 08 2025 16:13:00 GMT-0500 (Central Daylight Time),294123.2999999523,A,gr,O,backspace,580,1,5317.699999928474,288805.60000002384,7702,WL,B,1.0
1,6.2149999141693115,learn,53785.00008583069,Wed Oct 08 2025 16:13:00 GMT-0500 (Central Daylight Time),295020.5,A,gra,O,a,892,1,6214.899999976158,288805.60000002384,7702,WL,B,1.0
1,6.631999969482422,learn,53368.00003051758,Wed Oct 08 2025 16:13:00 GMT-0500 (Central Daylight Time),295437.0,A,gras,O,s,399,1,6631.399999976158,288805.60000002384,7702,WL,B,1.0
1,6.797999858856201,learn,53202.0001411438,Wed Oct 08 2025 16:13:00 GMT-0500 (Central Daylight Time),295603.2000000477,A,grass,O,s,161,1,6797.600000023842,288805.60000002384,7702,WL,B,1.0
1,9.597999811172485,learn,50402.000188827515,Wed Oct 08 2025 16:13:00 GMT-0500 (Central Daylight Time),298404.2999999523,A,grassenter,O,enter,2794,1,9598.699999928474,288805.60000002384,7702,WL,B,1.0
1,10.396999835968018,learn,49603.00016403198,Wed Oct 08 2025 16:13:00 GMT-0500 (Central Daylight Time),299202.89999997616,A,d,O,d,792,1,798.1999999284744,298404.7000000477,7702,WL,B,2.0
1,10.530999898910522,learn,49469.00010108948,Wed Oct 08 2025 16:13:00 GMT-0500 (Central Daylight Time),299337.0,A,do,O,o,114,1,932.2999999523163,298404.7000000477,7702,WL,B,2.0
1,10.728999853134155,learn,49271.000146865845,Wed Oct 08 2025 16:13:00 GMT-0500 (Central Daylight Time),299534.89999997616,A,doo,O,o,185,1,1130.1999999284744,298404.7000000477,7702,WL,B,2.0
1,10.863999843597412,learn,49136.00015640259,Wed Oct 08 2025 16:13:00 GMT-0500 (Central Daylight Time),299669.89999997616,A,door,O,r,126,1,1265.1999999284744,298404.7000000477,7702,WL,B,2.0
1,11.378999948501587,learn,48621.00005149841,Wed Oct 08 2025 16:13:00 GMT-0500 (Central Daylight Time),300184.7999999523,A,doorenter,O,enter,503,1,1780.0999999046326,298404.7000000477,7702,WL,B,2.0
1,11.928999900817871,learn,48071.00009918213,Wed Oct 08 2025 16:13:00 GMT-0500 (Central Daylight Time),300735.5,A,a,O,a,532,1,550.3999999761581,300185.10000002384,7702,WL,B,3.0
1,12.027999877929688,learn,47972.00012207031,Wed Oct 08 2025 16:13:00 GMT-0500 (Central Daylight Time),300834.2999999523,A,ar,O,r,94,1,649.1999999284744,300185.10000002384,7702,WL,B,3.0
1,12.27999997138977,learn,47720.00002861023,Wed Oct 08 2025 16:13:00 GMT-0500 (Central Daylight Time),301085.89999997616,A,arm,O,m,234,1,900.7999999523163,300185.10000002384,7702,WL,B,3.0
1,12.811999797821045,learn,47188.000202178955,Wed Oct 08 2025 16:13:00 GMT-0500 (Central Daylight Time),301617.7999999523,A,armenter,O,enter,526,1,1432.6999999284744,300185.10000002384,7702,WL,B,3.0
1,13.628999948501587,learn,46371.00005149841,Wed Oct 08 2025 16:13:00 GMT-0500 (Central Daylight Time),302435.0,A,s,O,s,804,1,816.8999999761581,301618.10000002384,7702,WL,B,4.0
1,13.796000003814697,learn,46203.9999961853,Wed Oct 08 2025 16:13:00 GMT-0500 (Central Daylight Time),302601.89999997616,A,st,O,t,147,1,983.7999999523163,301618.10000002384,7702,WL,B,4.0
1,13.960999965667725,learn,46039.000034332275,Wed Oct 08 2025 16:13:00 GMT-0500 (Central Daylight Time),302767.0,A,sto,O,o,144,1,1148.8999999761581,301618.10000002384,7702,WL,B,4.0
1,14.111999988555908,learn,45888.00001144409,Wed Oct 08 2025 16:13:00 GMT-0500 (Central Daylight Time),302917.89999997616,A,stor,O,r,140,1,1299.7999999523163,301618.10000002384,7702,WL,B,4.0
1,14.76199984550476,learn,45238.00015449524,Wed Oct 08 2025 16:13:00 GMT-0500 (Central Daylight Time),303568.5,A,store,O,e,638,1,1950.3999999761581,301618.10000002384,7702,WL,B,4.0
1,15.710999965667725,learn,44289.000034332275,Wed Oct 08 2025 16:13:00 GMT-0500 (Central Daylight Time),304517.2000000477,A,storeenter,O,enter,933,1,2899.100000023842,301618.10000002384,7702,WL,B,4.0
1,16.32699990272522,learn,43673.00009727478,Wed Oct 08 2025 16:13:00 GMT-0500 (Central Daylight Time),305132.89999997616,A,w,O,w,598,1,615.3999999761581,304517.5,7702,WL,B,5.0
1,16.460999965667725,learn,43539.000034332275,Wed Oct 08 2025 16:13:00 GMT-0500 (Central Daylight Time),305267.10000002384,A,wi,O,i,130,1,749.6000000238419,304517.5,7702,WL,B,5.0
1,16.626999855041504,learn,43373.000144958496,Wed Oct 08 2025 16:13:00 GMT-0500 (Central Daylight Time),305433.5,A,wif,O,f,146,1,916.0,304517.5,7702,WL,B,5.0
1,16.877999782562256,learn,43122.000217437744,Wed Oct 08 2025 16:13:00 GMT-0500 (Central Daylight Time),305684.39999997616,A,wife,O,e,244,1,1166.8999999761581,304517.5,7702,WL,B,5.0
1,17.459999799728394,learn,42540.00020027161,Wed Oct 08 2025 16:13:00 GMT-0500 (Central Daylight Time),306266.7999999523,A,wifeenter,O,enter,578,1,1749.2999999523163,304517.5,7702,WL,B,5.0
1,17.926999807357788,learn,42073.00019264221,Wed Oct 08 2025 16:13:00 GMT-0500 (Central Daylight Time),306733.7999999523,A,c,O,c,458,1,466.6999999284744,306267.10000002384,7702,WL,B,6.0
1,18.359999895095825,learn,41640.000104904175,Wed Oct 08 2025 16:13:00 GMT-0500 (Central Daylight Time),307165.89999997616,A,ci,O,i,415,1,898.7999999523163,306267.10000002384,7702,WL,B,6.0
1,18.542999982833862,learn,41457.00001716614,Wed Oct 08 2025 16:13:00 GMT-0500 (Central Daylight Time),307349.2000000477,A,cit,O,t,162,1,1082.1000000238419,306267.10000002384,7702,WL,B,6.0
1,18.792999982833862,learn,41207.00001716614,Wed Oct 08 2025 16:13:00 GMT-0500 (Central Daylight Time),307599.39999997616,A,city,O,y,237,1,1332.2999999523163,306267.10000002384,7702,WL,B,6.0
1,19.80900001525879,learn,40190.99998474121,Wed Oct 08 2025 16:13:00 GMT-0500 (Central Daylight Time),308615.39999997616,A,cityenter,O,enter,1005,1,2348.2999999523163,306267.10000002384,7702,WL,B,6.0
1,26.04099988937378,learn,33959.00011062622,Wed Oct 08 2025 16:13:00 GMT-0500 (Central Daylight Time),314847.10000002384,A,enter,O,enter,6223,1,6231.300000071526,308615.7999999523,7702,WL,B,7.0
1,26.292999982833862,learn,33707.00001716614,Wed Oct 08 2025 16:13:00 GMT-0500 (Central Daylight Time),315099.5,A,enter,O,enter,246,1,252.10000002384186,314847.39999997616,7702,WL,B,8.0
1,26.54099988937378,learn,33459.00011062622,Wed Oct 08 2025 16:13:00 GMT-0500 (Central Daylight Time),315347.0,A,enter,O,enter,233,1,247.20000004768372,315099.7999999523,7702,WL,B,9.0
1,26.806999921798706,learn,33193.000078201294,Wed Oct 08 2025 16:13:00 GMT-0500 (Central Daylight Time),315613.10000002384,A,enter,O,enter,250,1,265.8000000715256,315347.2999999523,7702,WL,B,10.0
1,27.039999961853027,learn,32960.00003814697,Wed Oct 08 2025 16:13:00 GMT-0500 (Central Daylight Time),315845.7999999523,A,enter,O,enter,224,1,232.29999995231628,315613.5,7702,WL,B,11.0
1,27.256999969482422,learn,32743.000030517578,Wed Oct 08 2025 16:13:00 GMT-0500 (Central Daylight Time),316063.2999999523,A,enter,O,enter,207,1,217.0,315846.2999999523,7702,WL,B,12.0
1,27.490999937057495,learn,32509.000062942505,Wed Oct 08 2025 16:13:00 GMT-0500 (Central Daylight Time),316296.7999999523,A,enter,O,enter,223,1,233.09999990463257,316063.7000000477,7702,WL,B,13.0
1,27.757999897003174,learn,32242.000102996826,Wed Oct 08 2025 16:13:00 GMT-0500 (Central Daylight Time),316564.2999999523,A,enter,O,enter,260,1,267.09999990463257,316297.2000000477,7702,WL,B,14.0
1,28.02300000190735,learn,31976.99999809265,Wed Oct 08 2025 16:13:00 GMT-0500 (Central Daylight Time),316829.7000000477,A,enter,O,enter,250,1,265.0,316564.7000000477,7702,WL,B,15.0
2,2.298999786376953,learn,57701.00021362305,Wed Oct 08 2025 16:13:00 GMT-0500 (Central Daylight Time),387540.7999999523,A,s,O,s,2280,1,2298.5,385242.2999999523,7702,WL,B,1.0
2,2.482999801635742,learn,57517.00019836426,Wed Oct 08 2025 16:13:00 GMT-0500 (Central Daylight Time),387724.2000000477,A,st,O,t,170,1,2481.9000000953674,385242.2999999523,7702,WL,B,1.0
2,2.6989998817443848,learn,57301.000118255615,Wed Oct 08 2025 16:13:00 GMT-0500 (Central Daylight Time),387940.7999999523,A,str,O,r,199,1,2698.5,385242.2999999523,7702,WL,B,1.0
2,3.0319998264312744,learn,56968.000173568726,Wed Oct 08 2025 16:13:00 GMT-0500 (Central Daylight Time),388273.5,A,stre,O,e,322,1,3031.2000000476837,385242.2999999523,7702,WL,B,1.0
2,3.2319998741149902,learn,56768.00012588501,Wed Oct 08 2025 16:13:00 GMT-0500 (Central Daylight Time),388474.2000000477,A,stree,O,e,186,1,3231.9000000953674,385242.2999999523,7702,WL,B,1.0
2,3.3989999294281006,learn,56601.0000705719,Wed Oct 08 2025 16:13:00 GMT-0500 (Central Daylight Time),388641.0,A,street,O,t,153,1,3398.7000000476837,385242.2999999523,7702,WL,B,1.0
2,3.7819998264312744,learn,56218.000173568726,Wed Oct 08 2025 16:13:00 GMT-0500 (Central Daylight Time),389023.7999999523,A,streetenter,O,enter,365,1,3781.5,385242.2999999523,7702,WL,B,1.0
2,4.781999826431274,learn,55218.000173568726,Wed Oct 08 2025 16:13:00 GMT-0500 (Central Daylight Time),390023.2999999523,A,g,O,g,989,1,999.1999999284744,389024.10000002384,7702,WL,B,2.0
2,5.0,learn,55000.0,Wed Oct 08 2025 16:13:00 GMT-0500 (Central Daylight Time),390242.0,A,gr,O,r,198,1,1217.8999999761581,389024.10000002384,7702,WL,B,2.0
2,5.198999881744385,learn,54801.000118255615,Wed Oct 08 2025 16:13:00 GMT-0500 (Central Daylight Time),390440.2000000477,A,gra,O,a,180,1,1416.1000000238419,389024.10000002384,7702,WL,B,2.0
2,5.581999778747559,learn,54418.00022125244,Wed Oct 08 2025 16:13:00 GMT-0500 (Central Daylight Time),390823.2000000477,A,gras,O,s,374,1,1799.1000000238419,389024.10000002384,7702,WL,B,2.0
2,5.81499981880188,learn,54185.00018119812,Wed Oct 08 2025 16:13:00 GMT-0500 (Central Daylight Time),391056.2000000477,A,grass,O,s,215,1,2032.1000000238419,389024.10000002384,7702,WL,B,2.0
2,6.179999828338623,learn,53820.00017166138,Wed Oct 08 2025 16:13:00 GMT-0500 (Central Daylight Time),391421.89999997616,A,grassenter,O,enter,356,1,2397.7999999523163,389024.10000002384,7702,WL,B,2.0
2,6.598999977111816,learn,53401.00002288818,Wed Oct 08 2025 16:13:00 GMT-0500 (Central Daylight Time),391840.10000002384,A,a,O,a,399,1,417.8000000715256,391422.2999999523,7702,WL,B,3.0
2,6.764999866485596,learn,53235.000133514404,Wed Oct 08 2025 16:13:00 GMT-0500 (Central Daylight Time),392007.10000002384,A,ar,O,r,150,1,584.8000000715256,391422.2999999523,7702,WL,B,3.0
2,6.98199987411499,learn,53018.00012588501,Wed Oct 08 2025 16:13:00 GMT-0500 (Central Daylight Time),392223.5,A,arm,O,m,205,1,801.2000000476837,391422.2999999523,7702,WL,B,3.0
2,7.680999994277954,learn,52319.000005722046,Wed Oct 08 2025 16:13:00 GMT-0500 (Central Daylight Time),392922.7000000477,A,armenter,O,enter,687,1,1500.4000000953674,391422.2999999523,7702,WL,B,3.0
2,8.14799976348877,learn,51852.00023651123,Wed Oct 08 2025 16:13:00 GMT-0500 (Central Daylight Time),393389.2999999523,A,s,O,s,451,1,466.39999997615814,392922.89999997616,7702,WL,B,4.0
2,8.297999858856201,learn,51702.0001411438,Wed Oct 08 2025 16:13:00 GMT-0500 (Central Daylight Time),393539.89999997616,A,st,O,t,146,1,617.0,392922.89999997616,7702,WL,B,4.0
2,8.480999946594238,learn,51519.00005340576,Wed Oct 08 2025 16:13:00 GMT-0500 (Central Daylight Time),393722.39999997616,A,sta,O,a,169,1,799.5,392922.89999997616,7702,WL,B,4.0
2,8.681999921798706,learn,51318.000078201294,Wed Oct 08 2025 16:13:00 GMT-0500 (Central Daylight Time),393923.39999997616,A,star,O,r,195,1,1000.5,392922.89999997616,7702,WL,B,4.0
2,9.113999843597412,learn,50886.00015640259,Wed Oct 08 2025 16:13:00 GMT-0500 (Central Daylight Time),394355.2000000477,A,starenter,O,enter,423,1,1432.3000000715256,392922.89999997616,7702,WL,B,4.0
2,10.480999946594238,learn,49519.00005340576,Wed Oct 08 2025 16:13:00 GMT-0500 (Central Daylight Time),395722.0,A,w,O,w,1355,1,1366.5,394355.5,7702,WL,B,5.0
2,10.63099980354309,learn,49369.00019645691,Wed Oct 08 2025 16:13:00 GMT-0500 (Central Daylight Time),395872.89999997616,A,wi,O,i,131,1,1517.3999999761581,394355.5,7702,WL,B,5.0
2,10.79699993133545,learn,49203.00006866455,Wed Oct 08 2025 16:13:00 GMT-0500 (Central Daylight Time),396038.2999999523,A,wif,O,f,148,1,1682.7999999523163,394355.5,7702,WL,B,5.0
2,11.02999997138977,learn,48970.00002861023,Wed Oct 08 2025 16:13:00 GMT-0500 (Central Daylight Time),396271.0,A,wife,O,e,213,1,1915.5,394355.5,7702,WL,B,5.0
2,11.262999773025513,learn,48737.00022697449,Wed Oct 08 2025 16:13:00 GMT-0500 (Central Daylight Time),396504.89999997616,A,wifeenter,O,enter,222,1,2149.399999976158,394355.5,7702,WL,B,5.0
2,11.813999891281128,learn,48186.00010871887,Wed Oct 08 2025 16:13:00 GMT-0500 (Central Daylight Time),397055.2000000477,A,c,O,c,540,1,550.1000000238419,396505.10000002384,7702,WL,B,6.0
2,11.96399998664856,learn,48036.00001335144,Wed Oct 08 2025 16:13:00 GMT-0500 (Central Daylight Time),397205.2999999523,A,ca,O,a,145,1,700.1999999284744,396505.10000002384,7702,WL,B,6.0
2,12.212999820709229,learn,47787.00017929077,Wed Oct 08 2025 16:13:00 GMT-0500 (Central Daylight Time),397454.2000000477,A,cab,O,b,239,1,949.1000000238419,396505.10000002384,7702,WL,B,6.0
2,12.627999782562256,learn,47372.000217437744,Wed Oct 08 2025 16:13:00 GMT-0500 (Central Daylight Time),397869.7000000477,A,cabl,O,l,406,1,1364.6000000238419,396505.10000002384,7702,WL,B,6.0
2,13.297999858856201,learn,46702.0001411438,Wed Oct 08 2025 16:13:00 GMT-0500 (Central Daylight Time),398539.2000000477,A,cab,O,backspace,657,1,2034.1000000238419,396505.10000002384,7702,WL,B,6.0
2,13.712999820709229,learn,46287.00017929077,Wed Oct 08 2025 16:13:00 GMT-0500 (Central Daylight Time),398954.10000002384,A,cabi,O,i,402,1,2449.0,396505.10000002384,7702,WL,B,6.0
2,14.062999963760376,learn,45937.000036239624,Wed Oct 08 2025 16:13:00 GMT-0500 (Central Daylight Time),399304.2000000477,A,cabin,O,n,332,1,2799.100000023842,396505.10000002384,7702,WL,B,6.0
2,14.494999885559082,learn,45505.00011444092,Wed Oct 08 2025 16:13:00 GMT-0500 (Central Daylight Time),399736.10000002384,A,cabinenter,O,enter,420,1,3231.0,396505.10000002384,7702,WL,B,6.0
2,15.394999980926514,learn,44605.000019073486,Wed Oct 08 2025 16:13:00 GMT-0500 (Central Daylight Time),400636.60000002384,A,l,O,l,885,1,900.2000000476837,399736.39999997616,7702,WL,B,7.0
2,15.494999885559082,learn,44505.00011444092,Wed Oct 08 2025 16:13:00 GMT-0500 (Central Daylight Time),400736.89999997616,A,la,O,a,81,1,1000.5,399736.39999997616,7702,WL,B,7.0
2,15.694999933242798,learn,44305.0000667572,Wed Oct 08 2025 16:13:00 GMT-0500 (Central Daylight Time),400936.89999997616,A,lak,O,k,181,1,1200.5,399736.39999997616,7702,WL,B,7.0
2,16.346999883651733,learn,43653.00011634827,Wed Oct 08 2025 16:13:00 GMT-0500 (Central Daylight Time),401588.60000002384,A,lake,O,e,647,1,1852.2000000476837,399736.39999997616,7702,WL,B,7.0
2,17.459999799728394,learn,42540.00020027161,Wed Oct 08 2025 16:13:00 GMT-0500 (Central Daylight Time),402701.7000000477,A,lakeenter,O,enter,1096,1,2965.3000000715256,399736.39999997616,7702,WL,B,7.0
2,19.193999767303467,learn,40806.00023269653,Wed Oct 08 2025 16:13:00 GMT-0500 (Central Daylight Time),404435.5,A,f,O,f,1729,1,1733.6000000238419,402701.89999997616,7702,WL,B,8.0
2,19.310999870300293,learn,40689.00012969971,Wed Oct 08 2025 16:13:00 GMT-0500 (Central Daylight Time),404552.10000002384,A,fi,O,i,106,1,1850.2000000476837,402701.89999997616,7702,WL,B,8.0
2,19.426999807357788,learn,40573.00019264221,Wed Oct 08 2025 16:13:00 GMT-0500 (Central Daylight Time),404668.7000000477,A,fir,O,r,101,1,1966.8000000715256,402701.89999997616,7702,WL,B,8.0
2,19.727999925613403,learn,40272.0000743866,Wed Oct 08 2025 16:13:00 GMT-0500 (Central Daylight Time),404969.7999999523,A,fire,O,e,296,1,2267.899999976158,402701.89999997616,7702,WL,B,8.0
2,21.026999950408936,learn,38973.000049591064,Wed Oct 08 2025 16:13:00 GMT-0500 (Central Daylight Time),406268.39999997616,A,fireenter,O,enter,1284,1,3566.5,402701.89999997616,7702,WL,B,8.0
2,23.80899977684021,learn,36191.00022315979,Wed Oct 08 2025 16:13:00 GMT-0500 (Central Daylight Time),409050.2000000477,A,enter,O,enter,2761,1,2781.5,406268.7000000477,7702,WL,B,9.0
2,24.025999784469604,learn,35974.000215530396,Wed Oct 08 2025 16:13:00 GMT-0500 (Central Daylight Time),409267.7999999523,A,enter,O,enter,204,1,217.29999995231628,409050.5,7702,WL,B,10.0
2,24.24399995803833,learn,35756.00004196167,Wed Oct 08 2025 16:13:00 GMT-0500 (Central Daylight Time),409485.2999999523,A,enter,O,enter,203,1,217.19999992847443,409268.10000002384,7702,WL,B,11.0
2,24.591999769210815,learn,35408.000230789185,Wed Oct 08 2025 16:13:00 GMT-0500 (Central Daylight Time),409834.0,A,enter,O,enter,327,1,348.2999999523163,409485.7000000477,7702,WL,B,12.0
2,25.091999769210815,learn,34908.000230789185,Wed Oct 08 2025 16:13:00 GMT-0500 (Central Daylight Time),410333.2000000477,A,enter,O,enter,478,1,498.90000009536743,409834.2999999523,7702,WL,B,13.0
2,25.609999895095825,learn,34390.000104904175,Wed Oct 08 2025 16:13:00 GMT-0500 (Central Daylight Time),410851.10000002384,A,enter,O,enter,514,1,517.6000000238419,410333.5,7702,WL,B,14.0
2,26.125999927520752,learn,33874.00007247925,Wed Oct 08 2025 16:13:00 GMT-0500 (Central Daylight Time),411367.10000002384,A,enter,O,enter,499,1,515.7000000476837,410851.39999997616,7702,WL,B,15.0
3,2.4809999465942383,learn,57519.00005340576,Wed Oct 08 2025 16:13:00 GMT-0500 (Central Daylight Time),479511.60000002384,A,w,O,w,2473,1,2481.100000023842,477030.5,7702,WL,B,1.0
3,2.563999891281128,learn,57436.00010871887,Wed Oct 08 2025 16:13:00 GMT-0500 (Central Daylight Time),479595.39999997616,A,wi,O,i,66,1,2564.899999976158,477030.5,7702,WL,B,1.0
3,2.697999954223633,learn,57302.00004577637,Wed Oct 08 2025 16:13:00 GMT-0500 (Central Daylight Time),479728.89999997616,A,win,O,n,122,1,2698.399999976158,477030.5,7702,WL,B,1.0
3,2.797999858856201,learn,57202.0001411438,Wed Oct 08 2025 16:13:00 GMT-0500 (Central Daylight Time),479829.0,A,wind,O,d,83,1,2798.5,477030.5,7702,WL,B,1.0
3,3.113999843597412,learn,56886.00015640259,Wed Oct 08 2025 16:13:00 GMT-0500 (Central Daylight Time),480144.7999999523,A,windo,O,o,303,1,3114.2999999523163,477030.5,7702,WL,B,1.0
3,3.447000026702881,learn,56552.99997329712,Wed Oct 08 2025 16:13:00 GMT-0500 (Central Daylight Time),480478.10000002384,A,window,O,w,316,1,3447.600000023842,477030.5,7702,WL,B,1.0
3,4.113999843597412,learn,55886.00015640259,Wed Oct 08 2025 16:13:00 GMT-0500 (Central Daylight Time),481144.7000000477,A,windowenter,O,enter,656,1,4114.200000047684,477030.5,7702,WL,B,1.0
3,4.73199987411499,learn,55268.00012588501,Wed Oct 08 2025 16:13:00 GMT-0500 (Central Daylight Time),481763.2999999523,A,p,O,p,613,1,618.2999999523163,481145.0,7702,WL,B,2.0
3,4.896999835968018,learn,55103.00016403198,Wed Oct 08 2025 16:13:00 GMT-0500 (Central Daylight Time),481928.2999999523,A,pu,O,u,155,1,783.2999999523163,481145.0,7702,WL,B,2.0
3,5.079999923706055,learn,54920.000076293945,Wed Oct 08 2025 16:13:00 GMT-0500 (Central Daylight Time),482111.2000000477,A,pup,O,p,164,1,966.2000000476837,481145.0,7702,WL,B,2.0
3,5.312999963760376,learn,54687.000036239624,Wed Oct 08 2025 16:13:00 GMT-0500 (Central Daylight Time),482344.2000000477,A,pupi,O,i,214,1,1199.2000000476837,481145.0,7702,WL,B,2.0
3,5.629999876022339,learn,54370.00012397766,Wed Oct 08 2025 16:13:00 GMT-0500 (Central Daylight Time),482660.7999999523,A,pupil,O,l,310,1,1515.7999999523163,481145.0,7702,WL,B,2.0
3,5.980000019073486,learn,54019.999980926514,Wed Oct 08 2025 16:13:00 GMT-0500 (Central Daylight Time),483010.89999997616,A,pupilenter,O,enter,343,1,1865.8999999761581,481145.0,7702,WL,B,2.0
3,6.379999876022339,learn,53620.00012397766,Wed Oct 08 2025 16:13:00 GMT-0500 (Central Daylight Time),483411.2000000477,A,p,O,p,378,1,400.2000000476837,483011.0,7702,WL,B,3.0
3,6.5959999561309814,learn,53404.00004386902,Wed Oct 08 2025 16:13:00 GMT-0500 (Central Daylight Time),483626.89999997616,A,pi,O,i,201,1,615.8999999761581,483011.0,7702,WL,B,3.0
3,6.744999885559082,learn,53255.00011444092,Wed Oct 08 2025 16:13:00 GMT-0500 (Central Daylight Time),483776.5,A,pip,O,p,136,1,765.5,483011.0,7702,WL,B,3.0
3,7.078999996185303,learn,52921.0000038147,Wed Oct 08 2025 16:13:00 GMT-0500 (Central Daylight Time),484109.89999997616,A,pipe,O,e,323,1,1098.8999999761581,483011.0,7702,WL,B,3.0
3,7.444999933242798,learn,52555.0000667572,Wed Oct 08 2025 16:13:00 GMT-0500 (Central Daylight Time),484476.39999997616,A,pipes,O,s,360,1,1465.3999999761581,483011.0,7702,WL,B,3.0
3,7.546999931335449,learn,52453.00006866455,Wed Oct 08 2025 16:13:00 GMT-0500 (Central Daylight Time),484578.39999997616,A,pipesk,O,k,94,1,1567.3999999761581,483011.0,7702,WL,B,3.0
3,8.128999948501587,learn,51871.00005149841,Wed Oct 08 2025 16:13:00 GMT-0500 (Central Daylight Time),485159.7999999523,A,pipes,O,backspace,561,1,2148.7999999523163,483011.0,7702,WL,B,3.0
3,8.34500002861023,learn,51654.99997138977,Wed Oct 08 2025 16:13:00 GMT-0500 (Central Daylight Time),485375.7999999523,A,pipe,O,backspace,203,1,2364.7999999523163,483011.0,7702,WL,B,3.0
3,8.861999988555908,learn,51138.00001144409,Wed Oct 08 2025 16:13:00 GMT-0500 (Central Daylight Time),485892.60000002384,A,pipeenter,O,enter,510,1,2881.600000023842,483011.0,7702,WL,B,3.0
3,9.61299991607666,learn,50387.00008392334,Wed Oct 08 2025 16:13:00 GMT-0500 (Central Daylight Time),486643.7000000477,A,s,O,s,735,1,750.8000000715256,485892.89999997616,7702,WL,B,4.0
3,10.610999822616577,learn,49389.00017738342,Wed Oct 08 2025 16:13:00 GMT-0500 (Central Daylight Time),487641.89999997616,A,sk,O,k,975,1,1749.0,485892.89999997616,7702,WL,B,4.0
3,10.828999996185303,learn,49171.0000038147,Wed Oct 08 2025 16:13:00 GMT-0500 (Central Daylight Time),487860.0,A,ski,O,i,197,1,1967.1000000238419,485892.89999997616,7702,WL,B,4.0
3,10.994999885559082,learn,49005.00011444092,Wed Oct 08 2025 16:13:00 GMT-0500 (Central Daylight Time),488025.7000000477,A,skin,O,n,151,1,2132.8000000715256,485892.89999997616,7702,WL,B,4.0
3,11.542999982833862,learn,48457.00001716614,Wed Oct 08 2025 16:13:00 GMT-0500 (Central Daylight Time),488574.2999999523,A,skinenter,O,enter,530,1,2681.399999976158,485892.89999997616,7702,WL,B,4.0
3,11.944000005722046,learn,48055.999994277954,Wed Oct 08 2025 16:13:00 GMT-0500 (Central Daylight Time),488975.39999997616,A,c,O,c,383,1,400.89999997615814,488574.5,7702,WL,B,5.0
3,12.044999837875366,learn,47955.000162124634,Wed Oct 08 2025 16:13:00 GMT-0500 (Central Daylight Time),489076.2000000477,A,cl,O,l,77,1,501.7000000476837,488574.5,7702,WL,B,5.0
3,12.309999942779541,learn,47690.00005722046,Wed Oct 08 2025 16:13:00 GMT-0500 (Central Daylight Time),489341.2999999523,A,clo,O,o,257,1,766.7999999523163,488574.5,7702,WL,B,5.0
3,12.510999917984009,learn,47489.00008201599,Wed Oct 08 2025 16:13:00 GMT-0500 (Central Daylight Time),489542.2000000477,A,cloc,O,c,191,1,967.7000000476837,488574.5,7702,WL,B,5.0
3,13.093999862670898,learn,46906.0001373291,Wed Oct 08 2025 16:13:00 GMT-0500 (Central Daylight Time),490125.39999997616,A,clock,O,k,574,1,1550.8999999761581,488574.5,7702,WL,B,5.0
3,13.644000053405762,learn,46355.99994659424,Wed Oct 08 2025 16:13:00 GMT-0500 (Central Daylight Time),490675.2000000477,A,clockenter,O,enter,546,1,2100.7000000476837,488574.5,7702,WL,B,5.0
3,14.710000038146973,learn,45289.99996185303,Wed Oct 08 2025 16:13:00 GMT-0500 (Central Daylight Time),491740.60000002384,A,s,O,s,1050,1,1065.0,490675.60000002384,7702,WL,B,6.0
3,14.891999959945679,learn,45108.00004005432,Wed Oct 08 2025 16:13:00 GMT-0500 (Central Daylight Time),491923.0,A,st,O,t,161,1,1247.3999999761581,490675.60000002384,7702,WL,B,6.0
3,15.059999942779541,learn,44940.00005722046,Wed Oct 08 2025 16:13:00 GMT-0500 (Central Daylight Time),492091.10000002384,A,str,O,r,164,1,1415.5,490675.60000002384,7702,WL,B,6.0
3,15.32699990272522,learn,44673.00009727478,Wed Oct 08 2025 16:13:00 GMT-0500 (Central Daylight Time),492357.7999999523,A,stre,O,e,245,1,1682.1999999284744,490675.60000002384,7702,WL,B,6.0
3,15.644000053405762,learn,44355.99994659424,Wed Oct 08 2025 16:13:00 GMT-0500 (Central Daylight Time),492674.7000000477,A,stree,O,e,311,1,1999.1000000238419,490675.60000002384,7702,WL,B,6.0
3,16.14299988746643,learn,43857.00011253357,Wed Oct 08 2025 16:13:00 GMT-0500 (Central Daylight Time),493174.0,A,street,O,t,493,1,2498.399999976158,490675.60000002384,7702,WL,B,6.0
3,16.592999935150146,learn,43407.00006484985,Wed Oct 08 2025 16:13:00 GMT-0500 (Central Daylight Time),493623.60000002384,A,streetenter,O,enter,439,1,2948.0,490675.60000002384,7702,WL,B,6.0
3,16.991999864578247,learn,43008.00013542175,Wed Oct 08 2025 16:13:00 GMT-0500 (Central Daylight Time),494023.2999999523,A,g,O,g,382,1,399.39999997615814,493623.89999997616,7702,WL,B,7.0
3,17.192999839782715,learn,42807.000160217285,Wed Oct 08 2025 16:13:00 GMT-0500 (Central Daylight Time),494224.10000002384,A,gr,O,r,182,1,600.2000000476837,493623.89999997616,7702,WL,B,7.0
3,17.358999967575073,learn,42641.00003242493,Wed Oct 08 2025 16:13:00 GMT-0500 (Central Daylight Time),494390.5,A,gra,O,a,150,1,766.6000000238419,493623.89999997616,7702,WL,B,7.0
3,17.64199995994568,learn,42358.00004005432,Wed Oct 08 2025 16:13:00 GMT-0500 (Central Daylight Time),494673.2999999523,A,gras,O,s,268,1,1049.3999999761581,493623.89999997616,7702,WL,B,7.0
3,17.924999952316284,learn,42075.000047683716,Wed Oct 08 2025 16:13:00 GMT-0500 (Central Daylight Time),494956.10000002384,A,grass,O,s,267,1,1332.2000000476837,493623.89999997616,7702,WL,B,7.0
3,18.407999992370605,learn,41592.000007629395,Wed Oct 08 2025 16:13:00 GMT-0500 (Central Daylight Time),495439.39999997616,A,grassenter,O,enter,466,1,1815.5,493623.89999997616,7702,WL,B,7.0
3,18.741999864578247,learn,41258.00013542175,Wed Oct 08 2025 16:13:00 GMT-0500 (Central Daylight Time),495773.39999997616,A,d,O,d,329,1,333.6999999284744,495439.7000000477,7702,WL,B,8.0
3,18.991999864578247,learn,41008.00013542175,Wed Oct 08 2025 16:13:00 GMT-0500 (Central Daylight Time),496022.89999997616,A,do,O,o,232,1,583.1999999284744,495439.7000000477,7702,WL,B,8.0
3,19.20799994468689,learn,40792.00005531311,Wed Oct 08 2025 16:13:00 GMT-0500 (Central Daylight Time),496239.5,A,doo,O,o,197,1,799.7999999523163,495439.7000000477,7702,WL,B,8.0
3,19.342999935150146,learn,40657.00006484985,Wed Oct 08 2025 16:13:00 GMT-0500 (Central Daylight Time),496373.7000000477,A,door,O,r,116,1,934.0,495439.7000000477,7702,WL,B,8.0
3,20.07699990272522,learn,39923.00009727478,Wed Oct 08 2025 16:13:00 GMT-0500 (Central Daylight Time),497108.2000000477,A,doorc,O,c,727,1,1668.5,495439.7000000477,7702,WL,B,8.0
3,20.691999912261963,learn,39308.00008773804,Wed Oct 08 2025 16:13:00 GMT-0500 (Central Daylight Time),497723.5,A,door,O,backspace,608,1,2283.7999999523163,495439.7000000477,7702,WL,B,8.0
3,21.22499990463257,learn,38775.00009536743,Wed Oct 08 2025 16:13:00 GMT-0500 (Central Daylight Time),498255.60000002384,A,doorenter,O,enter,511,1,2815.899999976158,495439.7000000477,7702,WL,B,8.0
3,21.723999977111816,learn,38276.00002288818,Wed Oct 08 2025 16:13:00 GMT-0500 (Central Daylight Time),498755.5,A,c,O,c,495,1,499.60000002384186,498255.89999997616,7702,WL,B,9.0
3,21.789999961853027,learn,38210.00003814697,Wed Oct 08 2025 16:13:00 GMT-0500 (Central Daylight Time),498820.5,A,cc,O,c,55,1,564.6000000238419,498255.89999997616,7702,WL,B,9.0
3,22.05900001525879,learn,37940.99998474121,Wed Oct 08 2025 16:13:00 GMT-0500 (Central Daylight Time),499089.60000002384,A,cca,O,a,258,1,833.7000000476837,498255.89999997616,7702,WL,B,9.0
3,22.69000005722046,learn,37309.99994277954,Wed Oct 08 2025 16:13:00 GMT-0500 (Central Daylight Time),499721.2999999523,A,cc,O,backspace,609,1,1465.3999999761581,498255.89999997616,7702,WL,B,9.0
3,22.889999866485596,learn,37110.000133514404,Wed Oct 08 2025 16:13:00 GMT-0500 (Central Daylight Time),499920.5,A,c,O,backspace,188,1,1664.6000000238419,498255.89999997616,7702,WL,B,9.0
3,23.073999881744385,learn,36926.000118255615,Wed Oct 08 2025 16:13:00 GMT-0500 (Central Daylight Time),500104.89999997616,A,ca,O,a,174,1,1849.0,498255.89999997616,7702,WL,B,9.0
3,23.391000032424927,learn,36608.99996757507,Wed Oct 08 2025 16:13:00 GMT-0500 (Central Daylight Time),500422.0,A,cab,O,b,308,1,2166.100000023842,498255.89999997616,7702,WL,B,9.0
3,23.674000024795532,learn,36325.99997520447,Wed Oct 08 2025 16:13:00 GMT-0500 (Central Daylight Time),500705.10000002384,A,cabi,O,i,272,1,2449.2000000476837,498255.89999997616,7702,WL,B,9.0
3,23.889999866485596,learn,36110.000133514404,Wed Oct 08 2025 16:13:00 GMT-0500 (Central Daylight Time),500921.60000002384,A,cabin,O,n,195,1,2665.7000000476837,498255.89999997616,7702,WL,B,9.0
3,24.60699987411499,learn,35393.00012588501,Wed Oct 08 2025 16:13:00 GMT-0500 (Central Daylight Time),501638.2000000477,A,cabinenter,O,enter,699,1,3382.3000000715256,498255.89999997616,7702,WL,B,9.0
3,25.056999921798706,learn,34943.000078201294,Wed Oct 08 2025 16:13:00 GMT-0500 (Central Daylight Time),502088.39999997616,A,f,O,f,439,1,449.89999997615814,501638.5,7702,WL,B,10.0
3,25.307999849319458,learn,34692.00015068054,Wed Oct 08 2025 16:13:00 GMT-0500 (Central Daylight Time),502339.2999999523,A,fi,O,i,245,1,700.7999999523163,501638.5,7702,WL,B,10.0
3,25.389999866485596,learn,34610.000133514404,Wed Oct 08 2025 16:13:00 GMT-0500 (Central Daylight Time),502420.7000000477,A,fir,O,r,73,1,782.2000000476837,501638.5,7702,WL,B,10.0
3,25.77300000190735,learn,34226.99999809265,Wed Oct 08 2025 16:13:00 GMT-0500 (Central Daylight Time),502803.60000002384,A,fire,O,e,369,1,1165.1000000238419,501638.5,7702,WL,B,10.0
3,26.1729998588562,learn,33827.0001411438,Wed Oct 08 2025 16:13:00 GMT-0500 (Central Daylight Time),503203.7000000477,A,fireenter,O,enter,386,1,1565.2000000476837,501638.5,7702,WL,B,10.0
3,27.79099988937378,learn,32209.00011062622,Wed Oct 08 2025 16:13:00 GMT-0500 (Central Daylight Time),504822.2000000477,A,a,O,a,1597,1,1618.2000000476837,503204.0,7702,WL,B,11.0
3,27.955999851226807,learn,32044.000148773193,Wed Oct 08 2025 16:13:00 GMT-0500 (Central Daylight Time),504986.7999999523,A,ar,O,r,152,1,1782.7999999523163,503204.0,7702,WL,B,11.0
3,28.10599994659424,learn,31894.00005340576,Wed Oct 08 2025 16:13:00 GMT-0500 (Central Daylight Time),505137.2999999523,A,arm,O,m,138,1,1933.2999999523163,503204.0,7702,WL,B,11.0
3,28.556999921798706,learn,31443.000078201294,Wed Oct 08 2025 16:13:00 GMT-0500 (Central Daylight Time),505587.89999997616,A,armenter,O,enter,436,1,2383.899999976158,503204.0,7702,WL,B,11.0
3,28.85800004005432,learn,31141.99995994568,Wed Oct 08 2025 16:13:00 GMT-0500 (Central Daylight Time),505888.89999997616,A,w,O,w,281,1,300.60000002384186,505588.2999999523,7702,WL,B,12.0
3,28.938999891281128,learn,31061.000108718872,Wed Oct 08 2025 16:13:00 GMT-0500 (Central Daylight Time),505970.0,A,wi,O,i,75,1,381.7000000476837,505588.2999999523,7702,WL,B,12.0
3,29.138999938964844,learn,30861.000061035156,Wed Oct 08 2025 16:13:00 GMT-0500 (Central Daylight Time),506169.89999997616,A,wif,O,f,179,1,581.6000000238419,505588.2999999523,7702,WL,B,12.0
3,29.437999963760376,learn,30562.000036239624,Wed Oct 08 2025 16:13:00 GMT-0500 (Central Daylight Time),506469.39999997616,A,wife,O,e,291,1,881.1000000238419,505588.2999999523,7702,WL,B,12.0
3,29.921000003814697,learn,30078.999996185303,Wed Oct 08 2025 16:13:00 GMT-0500 (Central Daylight Time),506952.10000002384,A,wifeenter,O,enter,473,1,1363.8000000715256,505588.2999999523,7702,WL,B,12.0
3,32.65499997138977,learn,27345.00002861023,Wed Oct 08 2025 16:13:00 GMT-0500 (Central Daylight Time),509685.7999999523,A,a,O,a,2714,1,2733.5,506952.2999999523,7702,WL,B,13.0
3,32.78699994087219,learn,27213.000059127808,Wed Oct 08 2025 16:13:00 GMT-0500 (Central Daylight Time),509818.39999997616,A,ar,O,r,127,1,2866.100000023842,506952.2999999523,7702,WL,B,13.0
3,33.13800001144409,learn,26861.99998855591,Wed Oct 08 2025 16:13:00 GMT-0500 (Central Daylight Time),510169.2999999523,A,arm,O,m,340,1,3217.0,506952.2999999523,7702,WL,B,13.0
3,33.47099995613098,learn,26529.00004386902,Wed Oct 08 2025 16:13:00 GMT-0500 (Central Daylight Time),510501.89999997616,A,armenter,O,enter,324,1,3549.600000023842,506952.2999999523,7702,WL,B,13.0
3,36.187000036239624,learn,23812.999963760376,Wed Oct 08 2025 16:13:00 GMT-0500 (Central Daylight Time),513217.60000002384,A,enter,O,enter,2695,1,2715.5,510502.10000002384,7702,WL,B,14.0
3,36.36999988555908,learn,23630.000114440918,Wed Oct 08 2025 16:13:00 GMT-0500 (Central Daylight Time),513401.2000000477,A,enter,O,enter,172,1,183.30000007152557,513217.89999997616,7702,WL,B,15.0
4,4.980999946594238,learn,55019.00005340576,Wed Oct 08 2025 16:13:00 GMT-0500 (Central Daylight Time),589426.8999999762,A,c,O,c,4957,1,4980.899999976158,584446.0,7702,WL,B,1.0
4,5.46399998664856,learn,54536.00001335144,Wed Oct 08 2025 16:13:00 GMT-0500 (Central Daylight Time),589909.7000000477,A,cl,O,l,470,1,5463.700000047684,584446.0,7702,WL,B,1.0
4,5.746999979019165,learn,54253.000020980835,Wed Oct 08 2025 16:13:00 GMT-0500 (Central Daylight Time),590193.0,A,clo,O,o,260,1,5747.0,584446.0,7702,WL,B,1.0
4,5.863999843597412,learn,54136.00015640259,Wed Oct 08 2025 16:13:00 GMT-0500 (Central Daylight Time),590309.5,A,cloc,O,c,98,1,5863.5,584446.0,7702,WL,B,1.0
4,6.031999826431274,learn,53968.000173568726,Wed Oct 08 2025 16:13:00 GMT-0500 (Central Daylight Time),590477.6000000238,A,clock,O,k,149,1,6031.600000023842,584446.0,7702,WL,B,1.0
4,6.430999994277954,learn,53569.000005722046,Wed Oct 08 2025 16:13:00 GMT-0500 (Central Daylight Time),590876.7000000477,A,clockenter,O,enter,379,1,6430.700000047684,584446.0,7702,WL,B,1.0
4,7.0299999713897705,learn,52970.00002861023,Wed Oct 08 2025 16:13:00 GMT-0500 (Central Daylight Time),591476.3999999762,A,w,O,w,592,1,599.3999999761581,590877.0,7702,WL,B,2.0
4,8.079999923706055,learn,51920.000076293945,Wed Oct 08 2025 16:13:00 GMT-0500 (Central Daylight Time),592525.7999999523,A,wu,O,u,1038,1,1648.7999999523163,590877.0,7702,WL,B,2.0
4,8.27999997138977,learn,51720.00002861023,Wed Oct 08 2025 16:13:00 GMT-0500 (Central Daylight Time),592726.1000000238,A,wub,O,b,181,1,1849.1000000238419,590877.0,7702,WL,B,2.0
4,9.434000015258789,learn,50565.99998474121,Wed Oct 08 2025 16:13:00 GMT-0500 (Central Daylight Time),593879.7999999523,A,wu,O,backspace,1145,1,3002.7999999523163,590877.0,7702,WL,B,2.0
4,9.628000020980835,learn,50371.999979019165,Wed Oct 08 2025 16:13:00 GMT-0500 (Central Daylight Time),594074.2000000477,A,w,O,backspace,188,1,3197.2000000476837,590877.0,7702,WL,B,2.0
4,11.327999830245972,learn,48672.00016975403,Wed Oct 08 2025 16:13:00 GMT-0500 (Central Daylight Time),595774.3999999762,A,wi,O,i,1694,1,4897.399999976158,590877.0,7702,WL,B,2.0
4,11.544999837875366,learn,48455.000162124634,Wed Oct 08 2025 16:13:00 GMT-0500 (Central Daylight Time),595991.1000000238,A,win,O,n,203,1,5114.100000023842,590877.0,7702,WL,B,2.0
4,11.745999813079834,learn,48254.000186920166,Wed Oct 08 2025 16:13:00 GMT-0500 (Central Daylight Time),596192.3999999762,A,wind,O,d,183,1,5315.399999976158,590877.0,7702,WL,B,2.0
4,11.928999900817871,learn,48071.00009918213,Wed Oct 08 2025 16:13:00 GMT-0500 (Central Daylight Time),596374.8999999762,A,windo,O,o,162,1,5497.899999976158,590877.0,7702,WL,B,2.0
4,12.361999988555908,learn,47638.00001144409,Wed Oct 08 2025 16:13:00 GMT-0500 (Central Daylight Time),596807.7999999523,A,window,O,w,411,1,5930.799999952316,590877.0,7702,WL,B,2.0
4,12.794999837875366,learn,47205.000162124634,Wed Oct 08 2025 16:13:00 GMT-0500 (Central Daylight Time),597241.2000000477,A,windowenter,O,enter,410,1,6364.200000047684,590877.0,7702,WL,B,2.0
4,15.40999984741211,learn,44590.00015258789,Wed Oct 08 2025 16:13:00 GMT-0500 (Central Daylight Time),599856.7999999523,A,c,O,c,2596,1,2615.2999999523163,597241.5,7702,WL,B,3.0
4,15.575999975204468,learn,44424.00002479553,Wed Oct 08 2025 16:13:00 GMT-0500 (Central Daylight Time),600022.6000000238,A,ca,O,a,155,1,2781.100000023842,597241.5,7702,WL,B,3.0
4,15.860999822616577,learn,44139.00017738342,Wed Oct 08 2025 16:13:00 GMT-0500 (Central Daylight Time),600307.7999999523,A,cab,O,b,272,1,3066.2999999523163,597241.5,7702,WL,B,3.0
4,16.110999822616577,learn,43889.00017738342,Wed Oct 08 2025 16:13:00 GMT-0500 (Central Daylight Time),600557.2000000477,A,cabi,O,i,240,1,3315.7000000476837,597241.5,7702,WL,B,3.0
4,16.259999990463257,learn,43740.00000953674,Wed Oct 08 2025 16:13:00 GMT-0500 (Central Daylight Time),600706.2999999523,A,cabin,O,n,125,1,3464.7999999523163,597241.5,7702,WL,B,3.0
4,16.65999984741211,learn,43340.00015258789,Wed Oct 08 2025 16:13:00 GMT-0500 (Central Daylight Time),601106.5,A,cabinenter,O,enter,375,1,3865.0,597241.5,7702,WL,B,3.0
4,17.075999975204468,learn,42924.00002479553,Wed Oct 08 2025 16:13:00 GMT-0500 (Central Daylight Time),601522.5,A,f,O,f,403,1,415.7999999523163,601106.7000000477,7702,WL,B,4.0
4,17.41100001335144,learn,42588.99998664856,Wed Oct 08 2025 16:13:00 GMT-0500 (Central Daylight Time),601857.1000000238,A,fi,O,i,313,1,750.3999999761581,601106.7000000477,7702,WL,B,4.0
4,17.526000022888184,learn,42473.99997711182,Wed Oct 08 2025 16:13:00 GMT-0500 (Central Daylight Time),601973.0,A,fir,O,r,99,1,866.2999999523163,601106.7000000477,7702,WL,B,4.0
4,17.842999935150146,learn,42157.00006484985,Wed Oct 08 2025 16:13:00 GMT-0500 (Central Daylight Time),602289.3999999762,A,fire,O,e,291,1,1182.6999999284744,601106.7000000477,7702,WL,B,4.0
4,18.09499979019165,learn,41905.00020980835,Wed Oct 08 2025 16:13:00 GMT-0500 (Central Daylight Time),602541.2000000477,A,fireenter,O,enter,244,1,1434.5,601106.7000000477,7702,WL,B,4.0
4,18.526000022888184,learn,41473.99997711182,Wed Oct 08 2025 16:13:00 GMT-0500 (Central Daylight Time),602972.7999999523,A,a,O,a,425,1,431.2999999523163,602541.5,7702,WL,B,5.0
4,18.692999839782715,learn,41307.000160217285,Wed Oct 08 2025 16:13:00 GMT-0500 (Central Daylight Time),603139.1000000238,A,ar,O,r,158,1,597.6000000238419,602541.5,7702,WL,B,5.0
4,19.143999814987183,learn,40856.00018501282,Wed Oct 08 2025 16:13:00 GMT-0500 (Central Daylight Time),603590.8999999762,A,arm,O,m,444,1,1049.3999999761581,602541.5,7702,WL,B,5.0
4,19.575999975204468,learn,40424.00002479553,Wed Oct 08 2025 16:13:00 GMT-0500 (Central Daylight Time),604022.2000000477,A,armenter,O,enter,413,1,1480.7000000476837,602541.5,7702,WL,B,5.0
4,22.807999849319458,learn,37192.00015068054,Wed Oct 08 2025 16:13:00 GMT-0500 (Central Daylight Time),607254.2000000477,A,s,O,s,3215,1,3231.7000000476837,604022.5,7702,WL,B,6.0
4,22.957000017166138,learn,37042.99998283386,Wed Oct 08 2025 16:13:00 GMT-0500 (Central Daylight Time),607403.5,A,st,O,t,133,1,3381.0,604022.5,7702,WL,B,6.0
4,23.14199995994568,learn,36858.00004005432,Wed Oct 08 2025 16:13:00 GMT-0500 (Central Daylight Time),607588.5,A,str,O,r,177,1,3566.0,604022.5,7702,WL,B,6.0
4,23.54199981689453,learn,36458.00018310547,Wed Oct 08 2025 16:13:00 GMT-0500 (Central Daylight Time),607988.6000000238,A,stre,O,e,390,1,3966.100000023842,604022.5,7702,WL,B,6.0
4,23.740999937057495,learn,36259.000062942505,Wed Oct 08 2025 16:13:00 GMT-0500 (Central Daylight Time),608187.2999999523,A,stree,O,e,190,1,4164.799999952316,604022.5,7702,WL,B,6.0
4,23.924999952316284,learn,36075.000047683716,Wed Oct 08 2025 16:13:00 GMT-0500 (Central Daylight Time),608371.2000000477,A,street,O,t,168,1,4348.700000047684,604022.5,7702,WL,B,6.0
4,24.223999977111816,learn,35776.00002288818,Wed Oct 08 2025 16:13:00 GMT-0500 (Central Daylight Time),608670.6000000238,A,streetenter,O,enter,288,1,4648.100000023842,604022.5,7702,WL,B,6.0
4,24.60699987411499,learn,35393.00012588501,Wed Oct 08 2025 16:13:00 GMT-0500 (Central Daylight Time),609053.6000000238,A,g,O,g,366,1,382.7000000476837,608670.8999999762,7702,WL,B,7.0
4,24.806999921798706,learn,35193.000078201294,Wed Oct 08 2025 16:13:00 GMT-0500 (Central Daylight Time),609253.2999999523,A,gr,O,r,190,1,582.3999999761581,608670.8999999762,7702,WL,B,7.0
4,24.990000009536743,learn,35009.99999046326,Wed Oct 08 2025 16:13:00 GMT-0500 (Central Daylight Time),609437.0,A,gra,O,a,165,1,766.1000000238419,608670.8999999762,7702,WL,B,7.0
4,25.424000024795532,learn,34575.99997520447,Wed Oct 08 2025 16:13:00 GMT-0500 (Central Daylight Time),609870.6000000238,A,gras,O,s,416,1,1199.7000000476837,608670.8999999762,7702,WL,B,7.0
4,25.622999906539917,learn,34377.00009346008,Wed Oct 08 2025 16:13:00 GMT-0500 (Central Daylight Time),610070.2000000477,A,grass,O,s,189,1,1399.3000000715256,608670.8999999762,7702,WL,B,7.0
4,25.87399983406067,learn,34126.00016593933,Wed Oct 08 2025 16:13:00 GMT-0500 (Central Daylight Time),610320.1000000238,A,grassenter,O,enter,239,1,1649.2000000476837,608670.8999999762,7702,WL,B,7.0
4,26.54099988937378,learn,33459.00011062622,Wed Oct 08 2025 16:13:00 GMT-0500 (Central Daylight Time),610987.2999999523,A,a,O,a,645,1,666.8999999761581,610320.3999999762,7702,WL,B,8.0
4,26.709999799728394,learn,33290.00020027161,Wed Oct 08 2025 16:13:00 GMT-0500 (Central Daylight Time),611156.3999999762,A,ar,O,r,163,1,836.0,610320.3999999762,7702,WL,B,8.0
4,26.924000024795532,learn,33075.99997520447,Wed Oct 08 2025 16:13:00 GMT-0500 (Central Daylight Time),611370.6000000238,A,arm,O,m,204,1,1050.2000000476837,610320.3999999762,7702,WL,B,8.0
4,27.322999954223633,learn,32677.000045776367,Wed Oct 08 2025 16:13:00 GMT-0500 (Central Daylight Time),611770.0,A,armenter,O,enter,386,1,1449.6000000238419,610320.3999999762,7702,WL,B,8.0
4,29.038999795913696,learn,30961.000204086304,Wed Oct 08 2025 16:13:00 GMT-0500 (Central Daylight Time),613485.8999999762,A,w,O,w,1699,1,1715.6999999284744,611770.2000000477,7702,WL,B,9.0
4,29.138999938964844,learn,30861.000061035156,Wed Oct 08 2025 16:13:00 GMT-0500 (Central Daylight Time),613585.1000000238,A,wi,O,i,79,1,1814.8999999761581,611770.2000000477,7702,WL,B,9.0
4,29.25599980354309,learn,30744.00019645691,Wed Oct 08 2025 16:13:00 GMT-0500 (Central Daylight Time),613702.0,A,win,O,n,108,1,1931.7999999523163,611770.2000000477,7702,WL,B,9.0
4,29.322999954223633,learn,30677.000045776367,Wed Oct 08 2025 16:13:00 GMT-0500 (Central Daylight Time),613769.6000000238,A,wind,O,d,54,1,1999.3999999761581,611770.2000000477,7702,WL,B,9.0
4,29.5719997882843,learn,30428.0002117157,Wed Oct 08 2025 16:13:00 GMT-0500 (Central Daylight Time),614018.8999999762,A,windo,O,o,235,1,2248.6999999284744,611770.2000000477,7702,WL,B,9.0
4,30.054999828338623,learn,29945.000171661377,Wed Oct 08 2025 16:13:00 GMT-0500 (Central Daylight Time),614501.8999999762,A,window,O,w,463,1,2731.6999999284744,611770.2000000477,7702,WL,B,9.0
4,30.355000019073486,learn,29644.999980926514,Wed Oct 08 2025 16:13:00 GMT-0500 (Central Daylight Time),614801.7999999523,A,windowenter,O,enter,295,1,3031.5999999046326,611770.2000000477,7702,WL,B,9.0
4,31.488999843597412,learn,28511.000156402588,Wed Oct 08 2025 16:13:00 GMT-0500 (Central Daylight Time),615935.1000000238,A,l,O,l,1116,1,1133.0,614802.1000000238,7702,WL,B,10.0
4,31.605000019073486,learn,28394.999980926514,Wed Oct 08 2025 16:13:00 GMT-0500 (Central Daylight Time),616052.0,A,la,O,a,102,1,1249.8999999761581,614802.1000000238,7702,WL,B,10.0
4,31.83899998664856,learn,28161.00001335144,Wed Oct 08 2025 16:13:00 GMT-0500 (Central Daylight Time),616285.7000000477,A,lak,O,k,226,1,1483.6000000238419,614802.1000000238,7702,WL,B,10.0
4,32.15399980545044,learn,27846.00019454956,Wed Oct 08 2025 16:13:00 GMT-0500 (Central Daylight Time),616600.7000000477,A,lake,O,e,295,1,1798.6000000238419,614802.1000000238,7702,WL,B,10.0
4,32.38800001144409,learn,27611.99998855591,Wed Oct 08 2025 16:13:00 GMT-0500 (Central Daylight Time),616834.7999999523,A,lakeenter,O,enter,220,1,2032.6999999284744,614802.1000000238,7702,WL,B,10.0
4,35.30399990081787,learn,24696.00009918213,Wed Oct 08 2025 16:13:00 GMT-0500 (Central Daylight Time),619750.7999999523,A,p,O,p,2899,1,2915.6999999284744,616835.1000000238,7702,WL,B,11.0
4,35.48699998855591,learn,24513.00001144409,Wed Oct 08 2025 16:13:00 GMT-0500 (Central Daylight Time),619933.8999999762,A,pi,O,i,167,1,3098.7999999523163,616835.1000000238,7702,WL,B,11.0
4,35.519999980926514,learn,24480.000019073486,Wed Oct 08 2025 16:13:00 GMT-0500 (Central Daylight Time),619966.2000000477,A,pip,O,p,21,1,3131.100000023842,616835.1000000238,7702,WL,B,11.0
4,36.287999868392944,learn,23712.000131607056,Wed Oct 08 2025 16:13:00 GMT-0500 (Central Daylight Time),620734.7000000477,A,pipe,O,e,764,1,3899.600000023842,616835.1000000238,7702,WL,B,11.0
4,36.65299987792969,learn,23347.000122070312,Wed Oct 08 2025 16:13:00 GMT-0500 (Central Daylight Time),621100.0,A,pipeenter,O,enter,349,1,4264.899999976158,616835.1000000238,7702,WL,B,11.0
4,37.3529999256134,learn,22647.000074386597,Wed Oct 08 2025 16:13:00 GMT-0500 (Central Daylight Time),621799.5,A,p,O,p,682,1,699.2000000476837,621100.2999999523,7702,WL,B,12.0
4,37.53699994087219,learn,22463.000059127808,Wed Oct 08 2025 16:13:00 GMT-0500 (Central Daylight Time),621984.0,A,pu,O,u,174,1,883.7000000476837,621100.2999999523,7702,WL,B,12.0
4,38.00499987602234,learn,21995.00012397766,Wed Oct 08 2025 16:13:00 GMT-0500 (Central Daylight Time),622451.3999999762,A,pup,O,p,463,1,1351.1000000238419,621100.2999999523,7702,WL,B,12.0
4,38.28699994087219,learn,21713.000059127808,Wed Oct 08 2025 16:13:00 GMT-0500 (Central Daylight Time),622733.2999999523,A,pupi,O,i,266,1,1633.0,621100.2999999523,7702,WL,B,12.0
4,38.6029999256134,learn,21397.000074386597,Wed Oct 08 2025 16:13:00 GMT-0500 (Central Daylight Time),623049.8999999762,A,pupil,O,l,296,1,1949.6000000238419,621100.2999999523,7702,WL,B,12.0
4,38.98699998855591,learn,21013.00001144409,Wed Oct 08 2025 16:13:00 GMT-0500 (Central Daylight Time),623433.1000000238,A,pupilenter,O,enter,370,1,2332.8000000715256,621100.2999999523,7702,WL,B,12.0
4,39.4689998626709,learn,20531.0001373291,Wed Oct 08 2025 16:13:00 GMT-0500 (Central Daylight Time),623916.1000000238,A,w,O,w,476,1,482.60000002384186,623433.5,7702,WL,B,13.0
4,39.585999965667725,learn,20414.000034332275,Wed Oct 08 2025 16:13:00 GMT-0500 (Central Daylight Time),624032.3999999762,A,wi,O,i,95,1,598.8999999761581,623433.5,7702,WL,B,13.0
4,39.734999895095825,learn,20265.000104904175,Wed Oct 08 2025 16:13:00 GMT-0500 (Central Daylight Time),624181.7000000477,A,win,O,n,140,1,748.2000000476837,623433.5,7702,WL,B,13.0
4,39.88499999046326,learn,20115.000009536743,Wed Oct 08 2025 16:13:00 GMT-0500 (Central Daylight Time),624331.7999999523,A,wind,O,d,137,1,898.2999999523163,623433.5,7702,WL,B,13.0
4,40.05399990081787,learn,19946.00009918213,Wed Oct 08 2025 16:13:00 GMT-0500 (Central Daylight Time),624500.5,A,windo,O,o,165,1,1067.0,623433.5,7702,WL,B,13.0
4,40.253000020980835,learn,19746.999979019165,Wed Oct 08 2025 16:13:00 GMT-0500 (Central Daylight Time),624699.2000000477,A,window,O,w,174,1,1265.7000000476837,623433.5,7702,WL,B,13.0
4,40.668999910354614,learn,19331.000089645386,Wed Oct 08 2025 16:13:00 GMT-0500 (Central Daylight Time),625115.1000000238,A,windowenter,O,enter,401,1,1681.6000000238419,623433.5,7702,WL,B,13.0
4,47.76599979400635,learn,12234.000205993652,Wed Oct 08 2025 16:13:00 GMT-0500 (Central Daylight Time),632212.8999999762,A,d,O,d,7082,1,7097.600000023842,625115.2999999523,7702,WL,B,14.0
4,47.883999824523926,learn,12116.000175476074,Wed Oct 08 2025 16:13:00 GMT-0500 (Central Daylight Time),632330.3999999762,A,da,O,a,111,1,7215.100000023842,625115.2999999523,7702,WL,B,14.0
4,48.08299994468689,learn,11917.00005531311,Wed Oct 08 2025 16:13:00 GMT-0500 (Central Daylight Time),632529.7000000477,A,dar,O,r,178,1,7414.400000095367,625115.2999999523,7702,WL,B,14.0
4,48.19999980926514,learn,11800.000190734863,Wed Oct 08 2025 16:13:00 GMT-0500 (Central Daylight Time),632646.7999999523,A,dark,O,k,98,1,7531.5,625115.2999999523,7702,WL,B,14.0
4,48.58299994468689,learn,11417.00005531311,Wed Oct 08 2025 16:13:00 GMT-0500 (Central Daylight Time),633029.5,A,darkenter,O,enter,366,1,7914.200000047684,625115.2999999523,7702,WL,B,14.0
4,53.031999826431274,learn,6968.000173568726,Wed Oct 08 2025 16:13:00 GMT-0500 (Central Daylight Time),637478.2999999523,A,enter,O,enter,4441,1,4448.599999904633,633029.7000000477,7702,WL,B,15.0
5,4.148000001907349,learn,60000.0,Wed Oct 08 2025 16:13:00 GMT-0500 (Central Daylight Time),712637.7000000477,A,s,O,s,4135,1,4149.0,708488.7000000477,7702,WL,B,1.0
5,4.731000185012817,learn,60000.0,Wed Oct 08 2025 16:13:00 GMT-0500 (Central Daylight Time),713220.2999999523,A,sk,O,k,566,1,4731.599999904633,708488.7000000477,7702,WL,B,1.0
5,4.9670000076293945,learn,60000.0,Wed Oct 08 2025 16:13:00 GMT-0500 (Central Daylight Time),713455.7999999523,A,ski,O,i,216,1,4967.099999904633,708488.7000000477,7702,WL,B,1.0
5,5.14900016784668,learn,60000.0,Wed Oct 08 2025 16:13:00 GMT-0500 (Central Daylight Time),713637.7999999523,A,skin,O,n,172,1,5149.099999904633,708488.7000000477,7702,WL,B,1.0
5,5.448000192642212,learn,60000.0,Wed Oct 08 2025 16:13:00 GMT-0500 (Central Daylight Time),713937.0,A,skinenter,O,enter,286,1,5448.299999952316,708488.7000000477,7702,WL,B,1.0
5,7.432000160217285,learn,60000.0,Wed Oct 08 2025 16:13:00 GMT-0500 (Central Daylight Time),715920.8999999762,A,f,O,f,1972,1,1983.6000000238419,713937.2999999523,7702,WL,B,2.0
5,7.549000024795532,learn,60000.0,Wed Oct 08 2025 16:13:00 GMT-0500 (Central Daylight Time),716038.2999999523,A,fi,O,i,108,1,2101.0,713937.2999999523,7702,WL,B,2.0
5,7.666000127792358,learn,60000.0,Wed Oct 08 2025 16:13:00 GMT-0500 (Central Daylight Time),716155.0,A,fir,O,r,93,1,2217.7000000476837,713937.2999999523,7702,WL,B,2.0
5,7.9150002002716064,learn,60000.0,Wed Oct 08 2025 16:13:00 GMT-0500 (Central Daylight Time),716404.0,A,fire,O,e,242,1,2466.7000000476837,713937.2999999523,7702,WL,B,2.0
5,8.29800009727478,learn,60000.0,Wed Oct 08 2025 16:13:00 GMT-0500 (Central Daylight Time),716786.7000000477,A,fireenter,O,enter,367,1,2849.4000000953674,713937.2999999523,7702,WL,B,2.0
5,9.064000129699707,learn,60000.0,Wed Oct 08 2025 16:13:00 GMT-0500 (Central Daylight Time),717552.7999999523,A,a,O,a,747,1,765.8999999761581,716786.8999999762,7702,WL,B,3.0
5,9.230000019073486,learn,60000.0,Wed Oct 08 2025 16:13:00 GMT-0500 (Central Daylight Time),717718.7000000477,A,ar,O,r,154,1,931.8000000715256,716786.8999999762,7702,WL,B,3.0
5,9.44700002670288,learn,60000.0,Wed Oct 08 2025 16:13:00 GMT-0500 (Central Daylight Time),717935.7999999523,A,arm,O,m,205,1,1148.8999999761581,716786.8999999762,7702,WL,B,3.0
5,9.795000076293945,learn,60000.0,Wed Oct 08 2025 16:13:00 GMT-0500 (Central Daylight Time),718284.8999999762,A,armenter,O,enter,340,1,1498.0,716786.8999999762,7702,WL,B,3.0
5,10.481000185012817,learn,60000.0,Wed Oct 08 2025 16:13:00 GMT-0500 (Central Daylight Time),718971.0,A,w,O,w,673,1,685.7999999523163,718285.2000000477,7702,WL,B,4.0
5,10.597000122070312,learn,60000.0,Wed Oct 08 2025 16:13:00 GMT-0500 (Central Daylight Time),719086.3999999762,A,wi,O,i,105,1,801.1999999284744,718285.2000000477,7702,WL,B,4.0
5,10.729000091552734,learn,60000.0,Wed Oct 08 2025 16:13:00 GMT-0500 (Central Daylight Time),719218.8999999762,A,win,O,n,108,1,933.6999999284744,718285.2000000477,7702,WL,B,4.0
5,10.812000036239624,learn,60000.0,Wed Oct 08 2025 16:13:00 GMT-0500 (Central Daylight Time),719301.7000000477,A,wind,O,d,64,1,1016.5,718285.2000000477,7702,WL,B,4.0
5,11.062000036239624,learn,60000.0,Wed Oct 08 2025 16:13:00 GMT-0500 (Central Daylight Time),719552.1000000238,A,windo,O,o,238,1,1266.8999999761581,718285.2000000477,7702,WL,B,4.0
5,11.264000177383423,learn,60000.0,Wed Oct 08 2025 16:13:00 GMT-0500 (Central Daylight Time),719753.2999999523,A,window,O,w,187,1,1468.0999999046326,718285.2000000477,7702,WL,B,4.0
5,11.529000043869019,learn,60000.0,Wed Oct 08 2025 16:13:00 GMT-0500 (Central Daylight Time),720018.8999999762,A,windowenter,O,enter,259,1,1733.6999999284744,718285.2000000477,7702,WL,B,4.0
5,11.914000034332275,learn,60000.0,Wed Oct 08 2025 16:13:00 GMT-0500 (Central Daylight Time),720403.7000000477,A,p,O,p,370,1,384.5,720019.2000000477,7702,WL,B,5.0
5,12.111999988555908,learn,60000.0,Wed Oct 08 2025 16:13:00 GMT-0500 (Central Daylight Time),720601.8999999762,A,pi,O,i,175,1,582.6999999284744,720019.2000000477,7702,WL,B,5.0
5,12.246000051498413,learn,60000.0,Wed Oct 08 2025 16:13:00 GMT-0500 (Central Daylight Time),720735.8999999762,A,pip,O,p,113,1,716.6999999284744,720019.2000000477,7702,WL,B,5.0
5,12.57800006866455,learn,60000.0,Wed Oct 08 2025 16:13:00 GMT-0500 (Central Daylight Time),721068.0,A,pipe,O,e,316,1,1048.7999999523163,720019.2000000477,7702,WL,B,5.0
5,13.01200008392334,learn,60000.0,Wed Oct 08 2025 16:13:00 GMT-0500 (Central Daylight Time),721501.8999999762,A,pipeenter,O,enter,415,1,1482.6999999284744,720019.2000000477,7702,WL,B,5.0
5,13.379000186920166,learn,60000.0,Wed Oct 08 2025 16:13:00 GMT-0500 (Central Daylight Time),721868.6000000238,A,p,O,p,361,1,366.39999997615814,721502.2000000477,7702,WL,B,6.0
5,13.628000020980835,learn,60000.0,Wed Oct 08 2025 16:13:00 GMT-0500 (Central Daylight Time),722117.5,A,pu,O,u,231,1,615.2999999523163,721502.2000000477,7702,WL,B,6.0
5,13.861000061035156,learn,60000.0,Wed Oct 08 2025 16:13:00 GMT-0500 (Central Daylight Time),722351.1000000238,A,pup,O,p,215,1,848.8999999761581,721502.2000000477,7702,WL,B,6.0
5,14.295000076293945,learn,60000.0,Wed Oct 08 2025 16:13:00 GMT-0500 (Central Daylight Time),722784.3999999762,A,pupi,O,i,413,1,1282.1999999284744,721502.2000000477,7702,WL,B,6.0
5,14.59600019454956,learn,60000.0,Wed Oct 08 2025 16:13:00 GMT-0500 (Central Daylight Time),723085.3999999762,A,pupil,O,l,278,1,1583.1999999284744,721502.2000000477,7702,WL,B,6.0
5,14.92799997329712,learn,60000.0,Wed Oct 08 2025 16:13:00 GMT-0500 (Central Daylight Time),723417.8999999762,A,pupilenter,O,enter,318,1,1915.6999999284744,721502.2000000477,7702,WL,B,6.0
5,16.028000116348267,learn,60000.0,Wed Oct 08 2025 16:13:00 GMT-0500 (Central Daylight Time),724517.8999999762,A,s,O,s,1084,1,1099.8999999761581,723418.0,7702,WL,B,7.0
5,16.194000005722046,learn,60000.0,Wed Oct 08 2025 16:13:00 GMT-0500 (Central Daylight Time),724683.3999999762,A,st,O,t,151,1,1265.3999999761581,723418.0,7702,WL,B,7.0
5,16.361000061035156,learn,60000.0,Wed Oct 08 2025 16:13:00 GMT-0500 (Central Daylight Time),724850.5,A,str,O,r,153,1,1432.5,723418.0,7702,WL,B,7.0
5,16.611999988555908,learn,60000.0,Wed Oct 08 2025 16:13:00 GMT-0500 (Central Daylight Time),725102.1000000238,A,stre,O,e,239,1,1684.1000000238419,723418.0,7702,WL,B,7.0
5,16.848000049591064,learn,60000.0,Wed Oct 08 2025 16:13:00 GMT-0500 (Central Daylight Time),725337.3999999762,A,stree,O,e,215,1,1919.3999999761581,723418.0,7702,WL,B,7.0
5,16.99400019645691,learn,60000.0,Wed Oct 08 2025 16:13:00 GMT-0500 (Central Daylight Time),725484.0,A,street,O,t,138,1,2066.0,723418.0,7702,WL,B,7.0
5,17.594000101089478,learn,60000.0,Wed Oct 08 2025 16:13:00 GMT-0500 (Central Daylight Time),726083.6000000238,A,streetenter,O,enter,587,1,2665.600000023842,723418.0,7702,WL,B,7.0
5,17.960000038146973,learn,60000.0,Wed Oct 08 2025 16:13:00 GMT-0500 (Central Daylight Time),726449.7999999523,A,g,O,g,347,1,365.89999997615814,726083.8999999762,7702,WL,B,8.0
5,18.127000093460083,learn,60000.0,Wed Oct 08 2025 16:13:00 GMT-0500 (Central Daylight Time),726616.2999999523,A,gr,O,r,145,1,532.3999999761581,726083.8999999762,7702,WL,B,8.0
5,18.292999982833862,learn,60000.0,Wed Oct 08 2025 16:13:00 GMT-0500 (Central Daylight Time),726782.6000000238,A,gra,O,a,149,1,698.7000000476837,726083.8999999762,7702,WL,B,8.0
5,18.759999990463257,learn,60000.0,Wed Oct 08 2025 16:13:00 GMT-0500 (Central Daylight Time),727249.8999999762,A,gras,O,s,455,1,1166.0,726083.8999999762,7702,WL,B,8.0
5,18.978000164031982,learn,60000.0,Wed Oct 08 2025 16:13:00 GMT-0500 (Central Daylight Time),727468.0,A,grass,O,s,205,1,1384.1000000238419,726083.8999999762,7702,WL,B,8.0
5,19.426000118255615,learn,60000.0,Wed Oct 08 2025 16:13:00 GMT-0500 (Central Daylight Time),727916.0,A,grassenter,O,enter,439,1,1832.1000000238419,726083.8999999762,7702,WL,B,8.0
5,19.794000148773193,learn,60000.0,Wed Oct 08 2025 16:13:00 GMT-0500 (Central Daylight Time),728283.7999999523,A,a,O,a,346,1,367.59999990463257,727916.2000000477,7702,WL,B,9.0
5,19.944000005722046,learn,60000.0,Wed Oct 08 2025 16:13:00 GMT-0500 (Central Daylight Time),728433.8999999762,A,ar,O,r,128,1,517.6999999284744,727916.2000000477,7702,WL,B,9.0
5,20.211000204086304,learn,60000.0,Wed Oct 08 2025 16:13:00 GMT-0500 (Central Daylight Time),728700.2000000477,A,arm,O,m,250,1,784.0,727916.2000000477,7702,WL,B,9.0
5,20.9760000705719,learn,60000.0,Wed Oct 08 2025 16:13:00 GMT-0500 (Central Daylight Time),729465.5,A,arms,O,s,744,1,1549.2999999523163,727916.2000000477,7702,WL,B,9.0
5,21.092000007629395,learn,60000.0,Wed Oct 08 2025 16:13:00 GMT-0500 (Central Daylight Time),729581.8999999762,A,armst,O,t,105,1,1665.6999999284744,727916.2000000477,7702,WL,B,9.0
5,21.259000062942505,learn,60000.0,Wed Oct 08 2025 16:13:00 GMT-0500 (Central Daylight Time),729749.0,A,armsta,O,a,151,1,1832.7999999523163,727916.2000000477,7702,WL,B,9.0
5,21.794000148773193,learn,60000.0,Wed Oct 08 2025 16:13:00 GMT-0500 (Central Daylight Time),730283.6000000238,A,armst,O,backspace,527,1,2367.399999976158,727916.2000000477,7702,WL,B,9.0
5,22.042999982833862,learn,60000.0,Wed Oct 08 2025 16:13:00 GMT-0500 (Central Daylight Time),730532.2000000477,A,arms,O,backspace,243,1,2616.0,727916.2000000477,7702,WL,B,9.0
5,22.558000087738037,learn,60000.0,Wed Oct 08 2025 16:13:00 GMT-0500 (Central Daylight Time),731047.8999999762,A,arm,O,backspace,496,1,3131.6999999284744,727916.2000000477,7702,WL,B,9.0
5,22.95800018310547,learn,60000.0,Wed Oct 08 2025 16:13:00 GMT-0500 (Central Daylight Time),731447.2000000477,A,armenter,O,enter,391,1,3531.0,727916.2000000477,7702,WL,B,9.0
5,23.54200005531311,learn,60000.0,Wed Oct 08 2025 16:13:00 GMT-0500 (Central Daylight Time),732031.8999999762,A,s,O,s,574,1,584.3999999761581,731447.5,7702,WL,B,10.0
5,23.675000190734863,learn,60000.0,Wed Oct 08 2025 16:13:00 GMT-0500 (Central Daylight Time),732164.7000000477,A,st,O,t,126,1,717.2000000476837,731447.5,7702,WL,B,10.0
5,23.842000007629395,learn,60000.0,Wed Oct 08 2025 16:13:00 GMT-0500 (Central Daylight Time),732332.0,A,sta,O,a,160,1,884.5,731447.5,7702,WL,B,10.0
5,23.991000175476074,learn,60000.0,Wed Oct 08 2025 16:13:00 GMT-0500 (Central Daylight Time),732481.2000000477,A,star,O,r,127,1,1033.7000000476837,731447.5,7702,WL,B,10.0
5,24.359000205993652,learn,60000.0,Wed Oct 08 2025 16:13:00 GMT-0500 (Central Daylight Time),732848.2000000477,A,starenter,O,enter,346,1,1400.7000000476837,731447.5,7702,WL,B,10.0
5,24.95800018310547,learn,60000.0,Wed Oct 08 2025 16:13:00 GMT-0500 (Central Daylight Time),733447.6000000238,A,w,O,w,589,1,599.2000000476837,732848.3999999762,7702,WL,B,11.0
5,25.174000024795532,learn,60000.0,Wed Oct 08 2025 16:13:00 GMT-0500 (Central Daylight Time),733664.1000000238,A,wi,O,i,197,1,815.7000000476837,732848.3999999762,7702,WL,B,11.0
5,25.325999975204468,learn,60000.0,Wed Oct 08 2025 16:13:00 GMT-0500 (Central Daylight Time),733815.2999999523,A,win,O,n,130,1,966.8999999761581,732848.3999999762,7702,WL,B,11.0
5,25.442000150680542,learn,60000.0,Wed Oct 08 2025 16:13:00 GMT-0500 (Central Daylight Time),733931.6000000238,A,wind,O,d,111,1,1083.2000000476837,732848.3999999762,7702,WL,B,11.0
5,25.725000143051147,learn,60000.0,Wed Oct 08 2025 16:13:00 GMT-0500 (Central Daylight Time),734214.7000000477,A,windo,O,o,274,1,1366.3000000715256,732848.3999999762,7702,WL,B,11.0
5,25.924000024795532,learn,60000.0,Wed Oct 08 2025 16:13:00 GMT-0500 (Central Daylight Time),734414.1000000238,A,window,O,w,190,1,1565.7000000476837,732848.3999999762,7702,WL,B,11.0
5,26.210000038146973,learn,60000.0,Wed Oct 08 2025 16:13:00 GMT-0500 (Central Daylight Time),734699.3999999762,A,windowenter,O,enter,280,1,1851.0,732848.3999999762,7702,WL,B,11.0
5,28.60700011253357,learn,60000.0,Wed Oct 08 2025 16:13:00 GMT-0500 (Central Daylight Time),737096.2999999523,A,g,O,g,2377,1,2396.5999999046326,734699.7000000477,7702,WL,B,12.0
5,28.790000200271606,learn,60000.0,Wed Oct 08 2025 16:13:00 GMT-0500 (Central Daylight Time),737279.6000000238,A,gr,O,r,174,1,2579.899999976158,734699.7000000477,7702,WL,B,12.0
5,28.990000009536743,learn,60000.0,Wed Oct 08 2025 16:13:00 GMT-0500 (Central Daylight Time),737479.7999999523,A,gra,O,a,181,1,2780.0999999046326,734699.7000000477,7702,WL,B,12.0
5,29.407000064849854,learn,60000.0,Wed Oct 08 2025 16:13:00 GMT-0500 (Central Daylight Time),737896.2999999523,A,gras,O,s,404,1,3196.5999999046326,734699.7000000477,7702,WL,B,12.0
5,29.890000104904175,learn,60000.0,Wed Oct 08 2025 16:13:00 GMT-0500 (Central Daylight Time),738379.2999999523,A,gra,O,backspace,471,1,3679.5999999046326,734699.7000000477,7702,WL,B,12.0
5,30.12600016593933,learn,60000.0,Wed Oct 08 2025 16:13:00 GMT-0500 (Central Daylight Time),738616.0,A,gr,O,backspace,223,1,3916.2999999523163,734699.7000000477,7702,WL,B,12.0
5,30.371999979019165,learn,60000.0,Wed Oct 08 2025 16:13:00 GMT-0500 (Central Daylight Time),738862.2000000477,A,g,O,backspace,229,1,4162.5,734699.7000000477,7702,WL,B,12.0
5,30.657999992370605,learn,60000.0,Wed Oct 08 2025 16:13:00 GMT-0500 (Central Daylight Time),739147.3999999762,A,,O,backspace,279,1,4447.699999928474,734699.7000000477,7702,WL,B,12.0
5,32.92300009727478,learn,60000.0,Wed Oct 08 2025 16:13:00 GMT-0500 (Central Daylight Time),741412.8999999762,A,l,O,l,2260,1,6713.199999928474,734699.7000000477,7702,WL,B,12.0
5,33.03800010681152,learn,60000.0,Wed Oct 08 2025 16:13:00 GMT-0500 (Central Daylight Time),741527.8999999762,A,la,O,a,104,1,6828.199999928474,734699.7000000477,7702,WL,B,12.0
5,33.52300000190735,learn,60000.0,Wed Oct 08 2025 16:13:00 GMT-0500 (Central Daylight Time),742012.2999999523,A,lak,O,k,469,1,7312.599999904633,734699.7000000477,7702,WL,B,12.0
5,33.871999979019165,learn,60000.0,Wed Oct 08 2025 16:13:00 GMT-0500 (Central Daylight Time),742361.5,A,lake,O,e,338,1,7661.799999952316,734699.7000000477,7702,WL,B,12.0
5,34.1710000038147,learn,60000.0,Wed Oct 08 2025 16:13:00 GMT-0500 (Central Daylight Time),742660.7999999523,A,lakeenter,O,enter,292,1,7961.099999904633,734699.7000000477,7702,WL,B,12.0
5,35.38800001144409,learn,60000.0,Wed Oct 08 2025 16:13:00 GMT-0500 (Central Daylight Time),743877.2999999523,A,c,O,c,1209,1,1216.1999999284744,742661.1000000238,7702,WL,B,13.0
5,35.605000019073486,learn,60000.0,Wed Oct 08 2025 16:13:00 GMT-0500 (Central Daylight Time),744094.3999999762,A,ca,O,a,210,1,1433.2999999523163,742661.1000000238,7702,WL,B,13.0
5,35.90499997138977,learn,60000.0,Wed Oct 08 2025 16:13:00 GMT-0500 (Central Daylight Time),744394.7999999523,A,cab,O,b,278,1,1733.6999999284744,742661.1000000238,7702,WL,B,13.0
5,36.15400004386902,learn,60000.0,Wed Oct 08 2025 16:13:00 GMT-0500 (Central Daylight Time),744644.2999999523,A,cabi,O,i,240,1,1983.1999999284744,742661.1000000238,7702,WL,B,13.0
5,36.289000034332275,learn,60000.0,Wed Oct 08 2025 16:13:00 GMT-0500 (Central Daylight Time),744778.7000000477,A,cabin,O,n,119,1,2117.600000023842,742661.1000000238,7702,WL,B,13.0
5,36.62100005149841,learn,60000.0,Wed Oct 08 2025 16:13:00 GMT-0500 (Central Daylight Time),745111.1000000238,A,cabinenter,O,enter,323,1,2450.0,742661.1000000238,7702,WL,B,13.0
5,38.254000186920166,learn,60000.0,Wed Oct 08 2025 16:13:00 GMT-0500 (Central Daylight Time),746743.6000000238,A,enter,O,enter,1622,1,1632.3000000715256,745111.2999999523,7702,WL,B,14.0
5,38.82000017166138,learn,60000.0,Wed Oct 08 2025 16:13:00 GMT-0500 (Central Daylight Time),747309.7000000477,A,enter,O,enter,551,1,565.8000000715256,746743.8999999762,7702,WL,B,15.0
6,1.4489998817443848,distr,58551.000118255615,Wed Oct 08 2025 16:13:00 GMT-0500 (Central Daylight Time),819953.6000000238,B,b,O,b,1439,1,1449.0,818504.6000000238,7702,WL,B,1.0
6,1.5859999656677246,distr,58414.000034332275,Wed Oct 08 2025 16:13:00 GMT-0500 (Central Daylight Time),820090.2000000477,B,ba,O,a,121,1,1585.6000000238419,818504.6000000238,7702,WL,B,1.0
6,1.7179999351501465,distr,58282.00006484985,Wed Oct 08 2025 16:13:00 GMT-0500 (Central Daylight Time),820222.1000000238,B,bab,O,b,115,1,1717.5,818504.6000000238,7702,WL,B,1.0
6,1.9159998893737793,distr,58084.00011062622,Wed Oct 08 2025 16:13:00 GMT-0500 (Central Daylight Time),820419.7999999523,B,baby,O,y,183,1,1915.1999999284744,818504.6000000238,7702,WL,B,1.0
6,2.31499981880188,distr,57685.00018119812,Wed Oct 08 2025 16:13:00 GMT-0500 (Central Daylight Time),820819.5,B,babyenter,O,enter,385,1,2314.899999976158,818504.6000000238,7702,WL,B,1.0
6,2.7990000247955322,distr,57200.99997520447,Wed Oct 08 2025 16:13:00 GMT-0500 (Central Daylight Time),821302.8999999762,B,s,O,s,476,1,483.2999999523163,820819.6000000238,7702,WL,B,2.0
6,2.947999954223633,distr,57052.00004577637,Wed Oct 08 2025 16:13:00 GMT-0500 (Central Daylight Time),821452.5,B,st,O,t,132,1,632.8999999761581,820819.6000000238,7702,WL,B,2.0
6,3.115999937057495,distr,56884.000062942505,Wed Oct 08 2025 16:13:00 GMT-0500 (Central Daylight Time),821620.2000000477,B,sta,O,a,152,1,800.6000000238419,820819.6000000238,7702,WL,B,2.0
6,5.164999961853027,distr,54835.00003814697,Wed Oct 08 2025 16:13:00 GMT-0500 (Central Daylight Time),823668.7000000477,B,st,O,backspace,2040,1,2849.100000023842,820819.6000000238,7702,WL,B,2.0
6,5.516999959945679,distr,54483.00004005432,Wed Oct 08 2025 16:13:00 GMT-0500 (Central Daylight Time),824020.8999999762,B,s,O,backspace,345,1,3201.2999999523163,820819.6000000238,7702,WL,B,2.0
6,5.764999866485596,distr,54235.000133514404,Wed Oct 08 2025 16:13:00 GMT-0500 (Central Daylight Time),824269.6000000238,B,,O,backspace,232,1,3450.0,820819.6000000238,7702,WL,B,2.0
6,6.363999843597412,distr,53636.00015640259,Wed Oct 08 2025 16:13:00 GMT-0500 (Central Daylight Time),824868.6000000238,B,v,O,v,584,1,4049.0,820819.6000000238,7702,WL,B,2.0
6,6.5309998989105225,distr,53469.00010108948,Wed Oct 08 2025 16:13:00 GMT-0500 (Central Daylight Time),825035.1000000238,B,vi,O,i,151,1,4215.5,820819.6000000238,7702,WL,B,2.0
6,6.846999883651733,distr,53153.00011634827,Wed Oct 08 2025 16:13:00 GMT-0500 (Central Daylight Time),825351.6000000238,B,vil,O,l,307,1,4532.0,820819.6000000238,7702,WL,B,2.0
6,7.031999826431274,distr,52968.000173568726,Wed Oct 08 2025 16:13:00 GMT-0500 (Central Daylight Time),825536.2999999523,B,vill,O,l,173,1,4716.699999928474,820819.6000000238,7702,WL,B,2.0
6,7.146999835968018,distr,52853.00016403198,Wed Oct 08 2025 16:13:00 GMT-0500 (Central Daylight Time),825651.5,B,villa,O,a,101,1,4831.899999976158,820819.6000000238,7702,WL,B,2.0
6,7.281999826431274,distr,52718.000173568726,Wed Oct 08 2025 16:13:00 GMT-0500 (Central Daylight Time),825786.5,B,villag,O,g,128,1,4966.899999976158,820819.6000000238,7702,WL,B,2.0
6,7.697999954223633,distr,52302.00004577637,Wed Oct 08 2025 16:13:00 GMT-0500 (Central Daylight Time),826201.8999999762,B,village,O,e,400,1,5382.299999952316,820819.6000000238,7702,WL,B,2.0
6,7.745999813079834,distr,52254.000186920166,Wed Oct 08 2025 16:13:00 GMT-0500 (Central Daylight Time),826250.5,B,villagee,O,e,33,1,5430.899999976158,820819.6000000238,7702,WL,B,2.0
6,8.77999997138977,distr,51220.00002861023,Wed Oct 08 2025 16:13:00 GMT-0500 (Central Daylight Time),827284.2999999523,B,village,O,backspace,1013,1,6464.699999928474,820819.6000000238,7702,WL,B,2.0
6,9.628999948501587,distr,50371.00005149841,Wed Oct 08 2025 16:13:00 GMT-0500 (Central Daylight Time),828133.3999999762,B,villageenter,O,enter,831,1,7313.799999952316,820819.6000000238,7702,WL,B,2.0
6,11.328999996185303,distr,48671.0000038147,Wed Oct 08 2025 16:13:00 GMT-0500 (Central Daylight Time),829833.1000000238,B,c,O,c,1681,1,1699.5,828133.6000000238,7702,WL,B,3.0
6,11.597999811172485,distr,48402.000188827515,Wed Oct 08 2025 16:13:00 GMT-0500 (Central Daylight Time),830102.2000000477,B,co,O,o,263,1,1968.6000000238419,828133.6000000238,7702,WL,B,3.0
6,11.895999908447266,distr,48104.000091552734,Wed Oct 08 2025 16:13:00 GMT-0500 (Central Daylight Time),830400.1000000238,B,coi,O,i,285,1,2266.5,828133.6000000238,7702,WL,B,3.0
6,12.146999835968018,distr,47853.00016403198,Wed Oct 08 2025 16:13:00 GMT-0500 (Central Daylight Time),830651.2999999523,B,coin,O,n,230,1,2517.6999999284744,828133.6000000238,7702,WL,B,3.0
6,12.44599986076355,distr,47554.00013923645,Wed Oct 08 2025 16:13:00 GMT-0500 (Central Daylight Time),830950.3999999762,B,coinenter,O,enter,291,1,2816.7999999523163,828133.6000000238,7702,WL,B,3.0
6,13.763000011444092,distr,46236.99998855591,Wed Oct 08 2025 16:13:00 GMT-0500 (Central Daylight Time),832267.2000000477,B,s,O,s,1304,1,1316.6000000238419,830950.6000000238,7702,WL,B,4.0
6,13.94700002670288,distr,46052.99997329712,Wed Oct 08 2025 16:13:00 GMT-0500 (Central Daylight Time),832451.1000000238,B,st,O,t,160,1,1500.5,830950.6000000238,7702,WL,B,4.0
6,14.13099980354309,distr,45869.00019645691,Wed Oct 08 2025 16:13:00 GMT-0500 (Central Daylight Time),832634.7000000477,B,ste,O,e,161,1,1684.1000000238419,830950.6000000238,7702,WL,B,4.0
6,14.26199984550476,distr,45738.00015449524,Wed Oct 08 2025 16:13:00 GMT-0500 (Central Daylight Time),832765.8999999762,B,stea,O,a,122,1,1815.2999999523163,830950.6000000238,7702,WL,B,4.0
6,14.428999900817871,distr,45571.00009918213,Wed Oct 08 2025 16:13:00 GMT-0500 (Central Daylight Time),832933.1000000238,B,steam,O,m,162,1,1982.5,830950.6000000238,7702,WL,B,4.0
6,14.777999877929688,distr,45222.00012207031,Wed Oct 08 2025 16:13:00 GMT-0500 (Central Daylight Time),833281.8999999762,B,steamenter,O,enter,337,1,2331.2999999523163,830950.6000000238,7702,WL,B,4.0
6,17.47699999809265,distr,42523.00000190735,Wed Oct 08 2025 16:13:00 GMT-0500 (Central Daylight Time),835981.1000000238,B,v,O,v,2692,1,2699.0,833282.1000000238,7702,WL,B,5.0
6,17.59500002861023,distr,42404.99997138977,Wed Oct 08 2025 16:13:00 GMT-0500 (Central Daylight Time),836098.8999999762,B,vi,O,i,104,1,2816.7999999523163,833282.1000000238,7702,WL,B,5.0
6,17.960999965667725,distr,42039.000034332275,Wed Oct 08 2025 16:13:00 GMT-0500 (Central Daylight Time),836464.8999999762,B,vil,O,l,354,1,3182.7999999523163,833282.1000000238,7702,WL,B,5.0
6,18.126999855041504,distr,41873.000144958496,Wed Oct 08 2025 16:13:00 GMT-0500 (Central Daylight Time),836631.7000000477,B,vill,O,l,155,1,3349.600000023842,833282.1000000238,7702,WL,B,5.0
6,18.15999984741211,distr,41840.00015258789,Wed Oct 08 2025 16:13:00 GMT-0500 (Central Daylight Time),836663.8999999762,B,villa,O,a,17,1,3381.7999999523163,833282.1000000238,7702,WL,B,5.0
6,18.30999994277954,distr,41690.00005722046,Wed Oct 08 2025 16:13:00 GMT-0500 (Central Daylight Time),836814.1000000238,B,villag,O,g,143,1,3532.0,833282.1000000238,7702,WL,B,5.0
6,18.626999855041504,distr,41373.000144958496,Wed Oct 08 2025 16:13:00 GMT-0500 (Central Daylight Time),837131.3999999762,B,village,O,e,304,1,3849.2999999523163,833282.1000000238,7702,WL,B,5.0
6,19.143999814987183,distr,40856.00018501282,Wed Oct 08 2025 16:13:00 GMT-0500 (Central Daylight Time),837648.2000000477,B,villageenter,O,enter,507,1,4366.100000023842,833282.1000000238,7702,WL,B,5.0
6,24.607999801635742,distr,35392.00019836426,Wed Oct 08 2025 16:13:00 GMT-0500 (Central Daylight Time),843113.1000000238,B,enter,O,enter,5453,1,5464.600000023842,837648.5,7702,WL,B,6.0
6,24.79099988937378,distr,35209.00011062622,Wed Oct 08 2025 16:13:00 GMT-0500 (Central Daylight Time),843296.0,B,enter,O,enter,172,1,182.70000004768372,843113.2999999523,7702,WL,B,7.0
6,24.991999864578247,distr,35008.00013542175,Wed Oct 08 2025 16:13:00 GMT-0500 (Central Daylight Time),843496.2999999523,B,enter,O,enter,182,1,200.0,843296.2999999523,7702,WL,B,8.0
6,25.20899987220764,distr,34791.00012779236,Wed Oct 08 2025 16:13:00 GMT-0500 (Central Daylight Time),843713.2999999523,B,enter,O,enter,197,1,216.69999992847443,843496.6000000238,7702,WL,B,9.0
6,25.406999826431274,distr,34593.000173568726,Wed Oct 08 2025 16:13:00 GMT-0500 (Central Daylight Time),843911.6000000238,B,enter,O,enter,188,1,198.0,843713.6000000238,7702,WL,B,10.0
6,25.625,distr,34375.0,Wed Oct 08 2025 16:13:00 GMT-0500 (Central Daylight Time),844129.3999999762,B,enter,O,enter,198,1,217.60000002384186,843911.7999999523,7702,WL,B,11.0
6,25.842000007629395,distr,34157.999992370605,Wed Oct 08 2025 16:13:00 GMT-0500 (Central Daylight Time),844346.6000000238,B,enter,O,enter,196,1,216.80000007152557,844129.7999999523,7702,WL,B,12.0
6,26.057999849319458,distr,33942.00015068054,Wed Oct 08 2025 16:13:00 GMT-0500 (Central Daylight Time),844562.7999999523,B,enter,O,enter,196,1,215.89999997615814,844346.8999999762,7702,WL,B,13.0
6,26.276000022888184,distr,33723.99997711182,Wed Oct 08 2025 16:13:00 GMT-0500 (Central Daylight Time),844780.3999999762,B,enter,O,enter,202,1,217.39999997615814,844563.0,7702,WL,B,14.0
6,26.72499990463257,distr,33275.00009536743,Wed Oct 08 2025 16:13:00 GMT-0500 (Central Daylight Time),845229.2000000477,B,enter,O,enter,433,1,448.60000002384186,844780.6000000238,7702,WL,B,15.0
7,6.73199987411499,immed,53268.00012588501,Wed Oct 08 2025 16:13:00 GMT-0500 (Central Daylight Time),853493.5,A,s,O,s,6710,1,6731.600000023842,846761.8999999762,7702,WL,B,1.0
7,6.881999969482422,immed,53118.00003051758,Wed Oct 08 2025 16:13:00 GMT-0500 (Central Daylight Time),853643.2999999523,A,st,O,t,135,1,6881.399999976158,846761.8999999762,7702,WL,B,1.0
7,7.049000024795532,immed,52950.99997520447,Wed Oct 08 2025 16:13:00 GMT-0500 (Central Daylight Time),853810.2999999523,A,str,O,r,161,1,7048.399999976158,846761.8999999762,7702,WL,B,1.0
7,7.480999946594238,immed,52519.00005340576,Wed Oct 08 2025 16:13:00 GMT-0500 (Central Daylight Time),854242.7999999523,A,stre,O,e,426,1,7480.899999976158,846761.8999999762,7702,WL,B,1.0
7,7.680999994277954,immed,52319.000005722046,Wed Oct 08 2025 16:13:00 GMT-0500 (Central Daylight Time),854442.5,A,stree,O,e,178,1,7680.600000023842,846761.8999999762,7702,WL,B,1.0
7,7.865000009536743,immed,52134.99999046326,Wed Oct 08 2025 16:13:00 GMT-0500 (Central Daylight Time),854626.6000000238,A,street,O,t,163,1,7864.700000047684,846761.8999999762,7702,WL,B,1.0
7,8.46399998664856,immed,51536.00001335144,Wed Oct 08 2025 16:13:00 GMT-0500 (Central Daylight Time),855225.8999999762,A,streetenter,O,enter,584,1,8464.0,846761.8999999762,7702,WL,B,1.0
7,8.830999851226807,immed,51169.00014877319,Wed Oct 08 2025 16:13:00 GMT-0500 (Central Daylight Time),855592.2000000477,A,g,O,g,347,1,366.0,855226.2000000477,7702,WL,B,2.0
7,9.030999898910522,immed,50969.00010108948,Wed Oct 08 2025 16:13:00 GMT-0500 (Central Daylight Time),855792.3999999762,A,gr,O,r,188,1,566.1999999284744,855226.2000000477,7702,WL,B,2.0
7,9.214999914169312,immed,50785.00008583069,Wed Oct 08 2025 16:13:00 GMT-0500 (Central Daylight Time),855976.1000000238,A,gra,O,a,165,1,749.8999999761581,855226.2000000477,7702,WL,B,2.0
7,9.562999963760376,immed,50437.000036239624,Wed Oct 08 2025 16:13:00 GMT-0500 (Central Daylight Time),856324.5,A,gras,O,s,332,1,1098.2999999523163,855226.2000000477,7702,WL,B,2.0
7,9.781999826431274,immed,50218.000173568726,Wed Oct 08 2025 16:13:00 GMT-0500 (Central Daylight Time),856543.6000000238,A,grass,O,s,210,1,1317.3999999761581,855226.2000000477,7702,WL,B,2.0
7,10.080999851226807,immed,49919.00014877319,Wed Oct 08 2025 16:13:00 GMT-0500 (Central Daylight Time),856842.2000000477,A,grassenter,O,enter,276,1,1616.0,855226.2000000477,7702,WL,B,2.0
7,11.115000009536743,immed,48884.99999046326,Wed Oct 08 2025 16:13:00 GMT-0500 (Central Daylight Time),857877.0,A,d,O,d,1021,1,1034.5,856842.5,7702,WL,B,3.0
7,12.113999843597412,immed,47886.00015640259,Wed Oct 08 2025 16:13:00 GMT-0500 (Central Daylight Time),858875.3999999762,A,,O,backspace,993,1,2032.8999999761581,856842.5,7702,WL,B,3.0
7,12.345999956130981,immed,47654.00004386902,Wed Oct 08 2025 16:13:00 GMT-0500 (Central Daylight Time),859107.6000000238,A,a,O,a,217,1,2265.100000023842,856842.5,7702,WL,B,3.0
7,12.596999883651733,immed,47403.00011634827,Wed Oct 08 2025 16:13:00 GMT-0500 (Central Daylight Time),859358.5,A,ar,O,r,239,1,2516.0,856842.5,7702,WL,B,3.0
7,13.213000059127808,immed,46786.99994087219,Wed Oct 08 2025 16:13:00 GMT-0500 (Central Daylight Time),859974.2000000477,A,arm,O,m,605,1,3131.7000000476837,856842.5,7702,WL,B,3.0
7,13.546000003814697,immed,46453.9999961853,Wed Oct 08 2025 16:13:00 GMT-0500 (Central Daylight Time),860308.0,A,armenter,O,enter,329,1,3465.5,856842.5,7702,WL,B,3.0
7,13.928999900817871,immed,46071.00009918213,Wed Oct 08 2025 16:13:00 GMT-0500 (Central Daylight Time),860690.7999999523,A,s,O,s,370,1,382.59999990463257,860308.2000000477,7702,WL,B,4.0
7,14.046000003814697,immed,45953.9999961853,Wed Oct 08 2025 16:13:00 GMT-0500 (Central Daylight Time),860807.6000000238,A,st,O,t,107,1,499.39999997615814,860308.2000000477,7702,WL,B,4.0
7,14.213000059127808,immed,45786.99994087219,Wed Oct 08 2025 16:13:00 GMT-0500 (Central Daylight Time),860974.2999999523,A,sta,O,a,149,1,666.0999999046326,860308.2000000477,7702,WL,B,4.0
7,14.411999940872192,immed,45588.00005912781,Wed Oct 08 2025 16:13:00 GMT-0500 (Central Daylight Time),861173.3999999762,A,star,O,r,183,1,865.1999999284744,860308.2000000477,7702,WL,B,4.0
7,14.76199984550476,immed,45238.00015449524,Wed Oct 08 2025 16:13:00 GMT-0500 (Central Daylight Time),861523.6000000238,A,starenter,O,enter,336,1,1215.3999999761581,860308.2000000477,7702,WL,B,4.0
7,15.062999963760376,immed,44937.000036239624,Wed Oct 08 2025 16:13:00 GMT-0500 (Central Daylight Time),861824.5,A,c,O,c,283,1,300.7000000476837,861523.7999999523,7702,WL,B,5.0
7,15.228999853134155,immed,44771.000146865845,Wed Oct 08 2025 16:13:00 GMT-0500 (Central Daylight Time),861990.6000000238,A,ca,O,a,155,1,466.8000000715256,861523.7999999523,7702,WL,B,5.0
7,15.546000003814697,immed,44453.9999961853,Wed Oct 08 2025 16:13:00 GMT-0500 (Central Daylight Time),862307.2000000477,A,cab,O,b,304,1,783.4000000953674,861523.7999999523,7702,WL,B,5.0
7,16.079999923706055,immed,43920.000076293945,Wed Oct 08 2025 16:13:00 GMT-0500 (Central Daylight Time),862841.2999999523,A,cabi,O,i,514,1,1317.5,861523.7999999523,7702,WL,B,5.0
7,16.34500002861023,immed,43654.99997138977,Wed Oct 08 2025 16:13:00 GMT-0500 (Central Daylight Time),863106.7999999523,A,cabin,O,n,244,1,1583.0,861523.7999999523,7702,WL,B,5.0
7,16.694999933242798,immed,43305.0000667572,Wed Oct 08 2025 16:13:00 GMT-0500 (Central Daylight Time),863456.6000000238,A,cabinenter,O,enter,339,1,1932.8000000715256,861523.7999999523,7702,WL,B,5.0
7,18.527999877929688,immed,41472.00012207031,Wed Oct 08 2025 16:13:00 GMT-0500 (Central Daylight Time),865289.7999999523,A,p,O,p,1822,1,1832.8999999761581,863456.8999999762,7702,WL,B,6.0
7,18.694000005722046,immed,41305.999994277954,Wed Oct 08 2025 16:13:00 GMT-0500 (Central Daylight Time),865455.2000000477,A,pu,O,u,147,1,1998.3000000715256,863456.8999999762,7702,WL,B,6.0
7,19.16100001335144,immed,40838.99998664856,Wed Oct 08 2025 16:13:00 GMT-0500 (Central Daylight Time),865922.2000000477,A,pup,O,p,448,1,2465.3000000715256,863456.8999999762,7702,WL,B,6.0
7,19.444000005722046,immed,40555.999994277954,Wed Oct 08 2025 16:13:00 GMT-0500 (Central Daylight Time),866205.7000000477,A,pupi,O,i,276,1,2748.8000000715256,863456.8999999762,7702,WL,B,6.0
7,19.77900004386902,immed,40220.99995613098,Wed Oct 08 2025 16:13:00 GMT-0500 (Central Daylight Time),866540.2000000477,A,pupil,O,l,329,1,3083.3000000715256,863456.8999999762,7702,WL,B,6.0
7,20.14299988746643,immed,39857.00011253357,Wed Oct 08 2025 16:13:00 GMT-0500 (Central Daylight Time),866904.8999999762,A,pupilenter,O,enter,345,1,3448.0,863456.8999999762,7702,WL,B,6.0
7,20.49399995803833,immed,39506.00004196167,Wed Oct 08 2025 16:13:00 GMT-0500 (Central Daylight Time),867255.6000000238,A,p,O,p,340,1,350.39999997615814,866905.2000000477,7702,WL,B,7.0
7,20.692999839782715,immed,39307.000160217285,Wed Oct 08 2025 16:13:00 GMT-0500 (Central Daylight Time),867454.3999999762,A,pi,O,i,181,1,549.1999999284744,866905.2000000477,7702,WL,B,7.0
7,20.8439998626709,immed,39156.0001373291,Wed Oct 08 2025 16:13:00 GMT-0500 (Central Daylight Time),867605.2999999523,A,pip,O,p,134,1,700.0999999046326,866905.2000000477,7702,WL,B,7.0
7,21.177000045776367,immed,38822.99995422363,Wed Oct 08 2025 16:13:00 GMT-0500 (Central Daylight Time),867938.5,A,pipe,O,e,322,1,1033.2999999523163,866905.2000000477,7702,WL,B,7.0
7,21.59500002861023,immed,38404.99997138977,Wed Oct 08 2025 16:13:00 GMT-0500 (Central Daylight Time),868356.2999999523,A,pipeenter,O,enter,403,1,1451.0999999046326,866905.2000000477,7702,WL,B,7.0
7,28.174000024795532,immed,31825.999975204468,Wed Oct 08 2025 16:13:00 GMT-0500 (Central Daylight Time),874935.5,A,l,O,l,6561,1,6578.899999976158,868356.6000000238,7702,WL,B,8.0
7,28.307999849319458,immed,31692.000150680542,Wed Oct 08 2025 16:13:00 GMT-0500 (Central Daylight Time),875069.8999999762,A,la,O,a,126,1,6713.299999952316,868356.6000000238,7702,WL,B,8.0
7,28.842000007629395,immed,31157.999992370605,Wed Oct 08 2025 16:13:00 GMT-0500 (Central Daylight Time),875603.5,A,lak,O,k,511,1,7246.899999976158,868356.6000000238,7702,WL,B,8.0
7,29.10800004005432,immed,30891.99995994568,Wed Oct 08 2025 16:13:00 GMT-0500 (Central Daylight Time),875870.0,A,lake,O,e,258,1,7513.399999976158,868356.6000000238,7702,WL,B,8.0
7,29.44099998474121,immed,30559.00001525879,Wed Oct 08 2025 16:13:00 GMT-0500 (Central Daylight Time),876202.6000000238,A,lakeenter,O,enter,321,1,7846.0,868356.6000000238,7702,WL,B,8.0
7,31.44099998474121,immed,28559.00001525879,Wed Oct 08 2025 16:13:00 GMT-0500 (Central Daylight Time),878203.1000000238,A,f,O,f,1997,1,2000.2000000476837,876202.8999999762,7702,WL,B,9.0
7,31.539000034332275,immed,28460.999965667725,Wed Oct 08 2025 16:13:00 GMT-0500 (Central Daylight Time),878300.7999999523,A,fi,O,i,88,1,2097.899999976158,876202.8999999762,7702,WL,B,9.0
7,31.657999992370605,immed,28342.000007629395,Wed Oct 08 2025 16:13:00 GMT-0500 (Central Daylight Time),878419.3999999762,A,fir,O,r,113,1,2216.5,876202.8999999762,7702,WL,B,9.0
7,31.94000005722046,immed,28059.99994277954,Wed Oct 08 2025 16:13:00 GMT-0500 (Central Daylight Time),878701.5,A,fire,O,e,266,1,2498.600000023842,876202.8999999762,7702,WL,B,9.0
7,32.1729998588562,immed,27827.0001411438,Wed Oct 08 2025 16:13:00 GMT-0500 (Central Daylight Time),878934.7999999523,A,fireenter,O,enter,215,1,2731.899999976158,876202.8999999762,7702,WL,B,9.0
7,39.38699984550476,immed,20613.00015449524,Wed Oct 08 2025 16:13:00 GMT-0500 (Central Daylight Time),886148.7999999523,A,enter,O,enter,7199,1,7213.699999928474,878935.1000000238,7702,WL,B,10.0
7,39.5699999332428,immed,20430.000066757202,Wed Oct 08 2025 16:13:00 GMT-0500 (Central Daylight Time),886332.0,A,enter,O,enter,169,1,182.79999995231628,886149.2000000477,7702,WL,B,11.0
7,39.769999980926514,immed,20230.000019073486,Wed Oct 08 2025 16:13:00 GMT-0500 (Central Daylight Time),886531.7000000477,A,enter,O,enter,185,1,199.40000009536743,886332.2999999523,7702,WL,B,12.0
7,39.9539999961853,immed,20046.000003814697,Wed Oct 08 2025 16:13:00 GMT-0500 (Central Daylight Time),886715.5,A,enter,O,enter,171,1,183.5,886532.0,7702,WL,B,13.0
7,40.187999963760376,immed,19812.000036239624,Wed Oct 08 2025 16:13:00 GMT-0500 (Central Daylight Time),886949.8999999762,A,enter,O,enter,219,1,234.10000002384186,886715.7999999523,7702,WL,B,14.0
7,40.669999837875366,immed,19330.000162124634,Wed Oct 08 2025 16:13:00 GMT-0500 (Central Daylight Time),887431.1000000238,A,enter,O,enter,463,1,481.0,886950.1000000238,7702,WL,B,15.0
