acc_sum,block,block_c,change,condition,correct,correct_response,datetime,endtime,face,project,response,response_time,row_sel,session_number,start_end,starttime,subject_id,task,task_vers,trial
0,prac,1,,1-Back,,,Fri May 23 2025 18:11:20 GMT-0500 (Central Daylight Time),,005_o_f_d_a.png,I,space,3912,1,2,,,8021,VNB,B,0
0,prac,1,0.0,1-Back,0,m,Fri May 23 2025 18:11:20 GMT-0500 (Central Daylight Time),174246.79999999702,020_y_f_n_a.png,I,None,2004,2,2,2873.0,171373.79999999702,8021,VNB,B,1
0,prac,1,0.0,1-Back,0,m,Fri May 23 2025 18:11:20 GMT-0500 (Central Daylight Time),177145.6000000015,007_m_m_h_a.png,I,None,2002,3,2,2891.3000000044703,174254.29999999702,8021,VNB,B,2
0,prac,1,0.0,1-Back,0,m,Fri May 23 2025 18:11:20 GMT-0500 (Central Daylight Time),180061.3999999985,016_y_m_d_a.png,I,None,2017,4,2,2908.89999999851,177152.5,8021,VNB,B,3
0,prac,1,0.0,1-Back,0,m,Fri May 23 2025 18:11:20 GMT-0500 (Central Daylight Time),182960.5,005_o_f_n_a.png,I,None,2009,5,2,2893.7999999970198,180066.70000000298,8021,VNB,B,4
0,prac,1,1.0,1-Back,0,z,Fri May 23 2025 18:11:20 GMT-0500 (Central Daylight Time),185876.1000000015,016_y_m_n_a.png,I,None,2016,6,2,2906.10000000149,182970.0,8021,VNB,B,5
0,prac,1,0.0,1-Back,0,m,Fri May 23 2025 18:11:20 GMT-0500 (Central Daylight Time),188758.70000000298,004_o_m_h_a.png,I,None,2010,7,2,2875.4000000059605,185883.29999999702,8021,VNB,B,6
0,prac,1,0.0,1-Back,0,m,Fri May 23 2025 18:11:20 GMT-0500 (Central Daylight Time),191657.70000000298,011_m_f_d_a.png,I,None,2007,8,2,2891.3000000044703,188766.3999999985,8021,VNB,B,7
0,prac,1,1.0,1-Back,0,z,Fri May 23 2025 18:11:20 GMT-0500 (Central Daylight Time),194557.0,020_y_f_d_a.png,I,None,2011,9,2,2891.7000000029802,191665.29999999702,8021,VNB,B,8
0,prac,1,0.0,1-Back,0,m,Fri May 23 2025 18:11:20 GMT-0500 (Central Daylight Time),197456.1000000015,007_m_m_n_a.png,I,None,2002,10,2,2891.3000000044703,194564.79999999702,8021,VNB,B,9
0,prac,1,0.0,1-Back,0,m,Fri May 23 2025 18:11:20 GMT-0500 (Central Daylight Time),200355.0,005_o_f_h_a.png,I,None,2009,11,2,2891.39999999851,197463.6000000015,8021,VNB,B,10
0,prac,1,0.0,1-Back,0,m,Fri May 23 2025 18:11:20 GMT-0500 (Central Daylight Time),203270.79999999702,016_y_m_d_a.png,I,None,2015,12,2,2910.0,200360.79999999702,8021,VNB,B,11
0,prac,2,0.0,1-Back,,,Fri May 23 2025 18:11:20 GMT-0500 (Central Daylight Time),203270.79999999702,005_o_f_d_a.png,I,a,4878,1,2,2910.0,200360.79999999702,8021,VNB,B,0
1,prac,2,0.0,1-Back,1,m,Fri May 23 2025 18:11:20 GMT-0500 (Central Daylight Time),213517.8999999985,020_y_f_n_a.png,I,m,1429,2,2,2306.0,211211.8999999985,8021,VNB,B,1
2,prac,2,0.0,1-Back,1,m,Fri May 23 2025 18:11:20 GMT-0500 (Central Daylight Time),215850.3999999985,007_m_m_h_a.png,I,m,1424,3,2,2327.0,213523.3999999985,8021,VNB,B,2
3,prac,2,0.0,1-Back,1,m,Fri May 23 2025 18:11:20 GMT-0500 (Central Daylight Time),218082.8999999985,016_y_m_d_a.png,I,m,1448,4,2,2226.39999999851,215856.5,8021,VNB,B,3
4,prac,2,0.0,1-Back,1,m,Fri May 23 2025 18:11:20 GMT-0500 (Central Daylight Time),220248.79999999702,005_o_f_n_a.png,I,m,1266,5,2,2159.0999999940395,218089.70000000298,8021,VNB,B,4
5,prac,2,1.0,1-Back,1,z,Fri May 23 2025 18:11:20 GMT-0500 (Central Daylight Time),222248.3999999985,016_y_m_n_a.png,I,z,1092,6,2,1993.6000000014901,220254.79999999702,8021,VNB,B,5
6,prac,2,0.0,1-Back,1,m,Fri May 23 2025 18:11:20 GMT-0500 (Central Daylight Time),224264.3999999985,004_o_m_h_a.png,I,m,1145,7,2,2008.3999999985099,222256.0,8021,VNB,B,6
6,prac,2,0.0,1-Back,0,m,Fri May 23 2025 18:11:20 GMT-0500 (Central Daylight Time),226863.3999999985,011_m_f_d_a.png,I,z,1701,8,2,2593.2999999970198,224270.1000000015,8021,VNB,B,7
6,prac,2,1.0,1-Back,0,z,Fri May 23 2025 18:11:20 GMT-0500 (Central Daylight Time),229196.20000000298,020_y_f_d_a.png,I,m,1448,9,2,2324.9000000059605,226871.29999999702,8021,VNB,B,8
6,prac,2,0.0,1-Back,0,m,Fri May 23 2025 18:11:20 GMT-0500 (Central Daylight Time),231478.70000000298,007_m_m_n_a.png,I,z,1369,10,2,2276.4000000059605,229202.29999999702,8021,VNB,B,9
6,prac,2,0.0,1-Back,0,m,Fri May 23 2025 18:11:20 GMT-0500 (Central Daylight Time),234377.6000000015,005_o_f_h_a.png,I,None,2007,11,2,2892.60000000149,231485.0,8021,VNB,B,10
6,prac,2,0.0,1-Back,0,m,Fri May 23 2025 18:11:20 GMT-0500 (Central Daylight Time),236926.8999999985,016_y_m_d_a.png,I,z,1632,12,2,2542.89999999851,234384.0,8021,VNB,B,11
0,prac,3,0.0,1-Back,,,Fri May 23 2025 18:11:20 GMT-0500 (Central Daylight Time),236926.8999999985,005_o_f_d_a.png,I,a,2270,1,2,2542.89999999851,234384.0,8021,VNB,B,0
0,prac,3,0.0,1-Back,0,m,Fri May 23 2025 18:11:20 GMT-0500 (Central Daylight Time),245124.29999999702,020_y_f_n_a.png,I,None,2004,2,2,2874.7999999970198,242249.5,8021,VNB,B,1
1,prac,3,0.0,1-Back,1,m,Fri May 23 2025 18:11:20 GMT-0500 (Central Daylight Time),247523.8999999985,007_m_m_h_a.png,I,m,1487,3,2,2393.6999999955297,245130.20000000298,8021,VNB,B,2
2,prac,3,0.0,1-Back,1,m,Fri May 23 2025 18:11:20 GMT-0500 (Central Daylight Time),249972.8999999985,016_y_m_d_a.png,I,m,1670,4,2,2442.89999999851,247530.0,8021,VNB,B,3
3,prac,3,0.0,1-Back,1,m,Fri May 23 2025 18:11:20 GMT-0500 (Central Daylight Time),252055.6000000015,005_o_f_n_a.png,I,m,1177,5,2,2076.8000000044703,249978.79999999702,8021,VNB,B,4
3,prac,3,1.0,1-Back,0,z,Fri May 23 2025 18:11:20 GMT-0500 (Central Daylight Time),254338.29999999702,016_y_m_n_a.png,I,m,1367,6,2,2275.5,252062.79999999702,8021,VNB,B,5
4,prac,3,0.0,1-Back,1,m,Fri May 23 2025 18:11:20 GMT-0500 (Central Daylight Time),256421.0,004_o_m_h_a.png,I,m,1197,7,2,2076.7999999970198,254344.20000000298,8021,VNB,B,6
4,prac,3,0.0,1-Back,0,m,Fri May 23 2025 18:11:20 GMT-0500 (Central Daylight Time),258420.20000000298,011_m_f_d_a.png,I,z,1104,8,2,1992.8000000044703,256427.3999999985,8021,VNB,B,7
4,prac,3,1.0,1-Back,0,z,Fri May 23 2025 18:11:20 GMT-0500 (Central Daylight Time),260086.5,020_y_f_d_a.png,I,m,772,9,2,1659.6000000014901,258426.8999999985,8021,VNB,B,8
4,prac,3,0.0,1-Back,0,m,Fri May 23 2025 18:11:20 GMT-0500 (Central Daylight Time),262119.20000000298,007_m_m_n_a.png,I,z,1120,10,2,2025.9000000059605,260093.29999999702,8021,VNB,B,9
5,prac,3,0.0,1-Back,1,m,Fri May 23 2025 18:11:20 GMT-0500 (Central Daylight Time),263552.299999997,005_o_f_h_a.png,I,m,527,11,2,1426.6999999955297,262125.6000000015,8021,VNB,B,10
5,prac,3,0.0,1-Back,0,m,Fri May 23 2025 18:11:20 GMT-0500 (Central Daylight Time),265468.200000003,016_y_m_d_a.png,I,z,1011,12,2,1909.8000000044703,263558.3999999985,8021,VNB,B,11
0,test,1,0.0,1-Back,,,Fri May 23 2025 18:11:20 GMT-0500 (Central Daylight Time),265468.200000003,020_y_f_d_a.png,I,space,11957,1,2,1909.8000000044703,263558.3999999985,8021,VNB,B,0
1,test,1,0.0,1-Back,1,m,Fri May 23 2025 18:11:20 GMT-0500 (Central Daylight Time),290177.1000000015,011_m_f_n_a.png,I,m,1233,2,2,2261.10000000149,287916.0,8021,VNB,B,1
2,test,1,0.0,1-Back,1,m,Fri May 23 2025 18:11:20 GMT-0500 (Central Daylight Time),292276.3999999985,004_o_m_h_a.png,I,m,1079,3,2,2095.6999999955297,290180.700000003,8021,VNB,B,2
3,test,1,1.0,1-Back,1,z,Fri May 23 2025 18:11:20 GMT-0500 (Central Daylight Time),294475.299999997,007_m_m_h_a.png,I,z,1180,4,2,2194.39999999851,292280.8999999985,8021,VNB,B,3
4,test,1,0.0,1-Back,1,m,Fri May 23 2025 18:11:20 GMT-0500 (Central Daylight Time),296641.6000000015,005_o_f_n_a.png,I,m,1133,5,2,2161.8000000044703,294479.799999997,8021,VNB,B,4
4,test,1,0.0,1-Back,0,m,Fri May 23 2025 18:11:20 GMT-0500 (Central Daylight Time),298774.3999999985,016_y_m_d_a.png,I,z,1111,6,2,2128.60000000149,296645.799999997,8021,VNB,B,5
5,test,1,1.0,1-Back,1,z,Fri May 23 2025 18:11:20 GMT-0500 (Central Daylight Time),300923.299999997,011_m_f_d_a.png,I,z,1130,7,2,2144.0999999940395,298779.200000003,8021,VNB,B,6
6,test,1,0.0,1-Back,1,m,Fri May 23 2025 18:11:20 GMT-0500 (Central Daylight Time),303056.3999999985,020_y_f_h_a.png,I,m,1101,8,2,2128.6999999955297,300927.700000003,8021,VNB,B,7
7,test,1,0.0,1-Back,1,m,Fri May 23 2025 18:11:20 GMT-0500 (Central Daylight Time),305572.0,004_o_m_n_a.png,I,m,1484,9,2,2511.5,303060.5,8021,VNB,B,8
8,test,1,0.0,1-Back,1,m,Fri May 23 2025 18:11:20 GMT-0500 (Central Daylight Time),308105.799999997,016_y_m_h_a.png,I,m,1500,10,2,2530.39999999851,305575.3999999985,8021,VNB,B,9
8,test,1,0.0,1-Back,0,m,Fri May 23 2025 18:11:20 GMT-0500 (Central Daylight Time),310587.200000003,004_o_m_d_a.png,I,z,1463,11,2,2476.8000000044703,308110.3999999985,8021,VNB,B,10
9,test,1,1.0,1-Back,1,z,Fri May 23 2025 18:11:20 GMT-0500 (Central Daylight Time),313053.1000000015,005_o_f_d_a.png,I,z,1445,12,2,2461.7000000029802,310591.3999999985,8021,VNB,B,11
10,test,1,0.0,1-Back,1,m,Fri May 23 2025 18:11:20 GMT-0500 (Central Daylight Time),315235.6000000015,007_m_m_n_a.png,I,m,1163,13,2,2178.7000000029802,313056.8999999985,8021,VNB,B,12
11,test,1,1.0,1-Back,1,z,Fri May 23 2025 18:11:20 GMT-0500 (Central Daylight Time),317801.5,020_y_f_n_a.png,I,z,1541,14,2,2561.39999999851,315240.1000000015,8021,VNB,B,13
11,test,1,0.0,1-Back,0,m,Fri May 23 2025 18:11:20 GMT-0500 (Central Daylight Time),320633.799999997,011_m_f_h_a.png,I,z,1815,15,2,2827.5999999940395,317806.200000003,8021,VNB,B,14
12,test,1,0.0,1-Back,1,m,Fri May 23 2025 18:11:20 GMT-0500 (Central Daylight Time),323083.3999999985,007_m_m_d_a.png,I,m,1430,16,2,2445.5,320637.8999999985,8021,VNB,B,15
13,test,1,0.0,1-Back,1,m,Fri May 23 2025 18:11:20 GMT-0500 (Central Daylight Time),325282.5,016_y_m_n_a.png,I,m,1173,17,2,2194.10000000149,323088.3999999985,8021,VNB,B,16
14,test,1,0.0,1-Back,1,m,Fri May 23 2025 18:11:20 GMT-0500 (Central Daylight Time),327665.0,005_o_f_h_a.png,I,m,1358,18,2,2375.7000000029802,325289.299999997,8021,VNB,B,17
0,test,2,0.0,1-Back,,,Fri May 23 2025 18:11:20 GMT-0500 (Central Daylight Time),327665.0,016_y_m_n_a.png,I,space,2168,1,2,2375.7000000029802,325289.299999997,8021,VNB,B,0
1,test,2,0.0,1-Back,1,m,Fri May 23 2025 18:11:20 GMT-0500 (Central Daylight Time),333813.299999997,020_y_f_h_a.png,I,m,920,2,2,1944.5,331868.799999997,8021,VNB,B,1
2,test,2,1.0,1-Back,1,m,Fri May 23 2025 18:11:20 GMT-0500 (Central Daylight Time),336395.6000000015,004_o_m_n_a.png,I,m,1555,3,2,2578.2000000029802,333817.3999999985,8021,VNB,B,2
2,test,2,0.0,1-Back,0,m,Fri May 23 2025 18:11:20 GMT-0500 (Central Daylight Time),339011.5,011_m_f_d_a.png,I,z,1596,4,2,2612.0,336399.5,8021,VNB,B,3
3,test,2,0.0,1-Back,1,z,Fri May 23 2025 18:11:20 GMT-0500 (Central Daylight Time),341011.0,007_m_m_d_a.png,I,z,973,5,2,1995.6000000014901,339015.3999999985,8021,VNB,B,4
4,test,2,0.0,1-Back,1,m,Fri May 23 2025 18:11:20 GMT-0500 (Central Daylight Time),342893.700000003,016_y_m_h_a.png,I,m,861,6,2,1878.5,341015.200000003,8021,VNB,B,5
5,test,2,1.0,1-Back,1,z,Fri May 23 2025 18:11:20 GMT-0500 (Central Daylight Time),345209.700000003,005_o_f_h_a.png,I,z,1298,7,2,2312.60000000149,342897.1000000015,8021,VNB,B,6
6,test,2,0.0,1-Back,1,m,Fri May 23 2025 18:11:20 GMT-0500 (Central Daylight Time),347175.700000003,011_m_f_n_a.png,I,m,934,8,2,1962.2000000029802,345213.5,8021,VNB,B,7
6,test,2,0.0,1-Back,0,m,Fri May 23 2025 18:11:20 GMT-0500 (Central Daylight Time),349874.799999997,020_y_f_d_a.png,I,z,1673,9,2,2695.5999999940395,347179.200000003,8021,VNB,B,8
6,test,2,0.0,1-Back,0,m,Fri May 23 2025 18:11:20 GMT-0500 (Central Daylight Time),352207.299999997,007_m_m_n_a.png,I,z,1184,10,2,2329.0,349878.299999997,8021,VNB,B,9
7,test,2,1.0,1-Back,1,m,Fri May 23 2025 18:11:20 GMT-0500 (Central Daylight Time),354106.799999997,011_m_f_h_a.png,I,m,873,11,2,1895.0,352211.799999997,8021,VNB,B,10
8,test,2,0.0,1-Back,1,z,Fri May 23 2025 18:11:20 GMT-0500 (Central Daylight Time),356072.8999999985,004_o_m_h_a.png,I,z,933,12,2,1961.5,354111.3999999985,8021,VNB,B,11
9,test,2,0.0,1-Back,1,m,Fri May 23 2025 18:11:20 GMT-0500 (Central Daylight Time),358056.6000000015,016_y_m_d_a.png,I,m,959,13,2,1979.0,356077.6000000015,8021,VNB,B,12
9,test,2,0.0,1-Back,0,m,Fri May 23 2025 18:11:20 GMT-0500 (Central Daylight Time),360221.799999997,005_o_f_n_a.png,I,z,1145,14,2,2161.0999999940395,358060.700000003,8021,VNB,B,13
10,test,2,0.0,1-Back,1,z,Fri May 23 2025 18:11:20 GMT-0500 (Central Daylight Time),362254.299999997,020_y_f_n_a.png,I,z,1010,15,2,2028.8999999985099,360225.3999999985,8021,VNB,B,14
11,test,2,1.0,1-Back,1,m,Fri May 23 2025 18:11:20 GMT-0500 (Central Daylight Time),364320.3999999985,007_m_m_h_a.png,I,m,1034,16,2,2062.6999999955297,362257.700000003,8021,VNB,B,15
12,test,2,0.0,1-Back,1,m,Fri May 23 2025 18:11:20 GMT-0500 (Central Daylight Time),366319.5,005_o_f_d_a.png,I,m,976,17,2,1994.8999999985099,364324.6000000015,8021,VNB,B,16
13,test,2,1.0,1-Back,1,z,Fri May 23 2025 18:11:20 GMT-0500 (Central Daylight Time),368502.5,004_o_m_d_a.png,I,z,1161,18,2,2178.89999999851,366323.6000000015,8021,VNB,B,17
0,test,3,1.0,1-Back,,,Fri May 23 2025 18:11:20 GMT-0500 (Central Daylight Time),368502.5,005_o_f_h_a.png,I,space,1370,1,2,2178.89999999851,366323.6000000015,8021,VNB,B,0
1,test,3,0.0,1-Back,1,m,Fri May 23 2025 18:11:20 GMT-0500 (Central Daylight Time),374150.700000003,011_m_f_d_a.png,I,m,1111,2,2,2128.9000000059605,372021.799999997,8021,VNB,B,1
1,test,3,1.0,1-Back,0,m,Fri May 23 2025 18:11:20 GMT-0500 (Central Daylight Time),376250.0,007_m_m_n_a.png,I,z,1074,3,2,2095.5,374154.5,8021,VNB,B,2
2,test,3,0.0,1-Back,1,z,Fri May 23 2025 18:11:20 GMT-0500 (Central Daylight Time),377982.8999999985,005_o_f_n_a.png,I,z,703,4,2,1728.8999999985099,376254.0,8021,VNB,B,3
2,test,3,1.0,1-Back,0,m,Fri May 23 2025 18:11:20 GMT-0500 (Central Daylight Time),380098.700000003,004_o_m_d_a.png,I,z,1089,5,2,2111.9000000059605,377986.799999997,8021,VNB,B,4
3,test,3,0.0,1-Back,1,m,Fri May 23 2025 18:11:20 GMT-0500 (Central Daylight Time),381898.0,020_y_f_h_a.png,I,m,781,6,2,1795.1000000014901,380102.8999999985,8021,VNB,B,5
3,test,3,0.0,1-Back,0,z,Fri May 23 2025 18:11:20 GMT-0500 (Central Daylight Time),383664.3999999985,016_y_m_h_a.png,I,m,742,7,2,1762.1999999955297,381902.200000003,8021,VNB,B,6
3,test,3,0.0,1-Back,0,m,Fri May 23 2025 18:11:20 GMT-0500 (Central Daylight Time),386296.700000003,011_m_f_n_a.png,I,z,1608,8,2,2628.3000000044703,383668.3999999985,8021,VNB,B,7
3,test,3,0.0,1-Back,0,m,Fri May 23 2025 18:11:20 GMT-0500 (Central Daylight Time),388479.700000003,020_y_f_d_a.png,I,z,1152,9,2,2178.8000000044703,386300.8999999985,8021,VNB,B,8
3,test,3,1.0,1-Back,0,m,Fri May 23 2025 18:11:20 GMT-0500 (Central Daylight Time),390612.200000003,004_o_m_n_a.png,I,z,1113,10,2,2128.5,388483.700000003,8021,VNB,B,9
4,test,3,0.0,1-Back,1,m,Fri May 23 2025 18:11:20 GMT-0500 (Central Daylight Time),392461.3999999985,007_m_m_h_a.png,I,m,828,11,2,1845.0,390616.3999999985,8021,VNB,B,10
4,test,3,0.0,1-Back,0,z,Fri May 23 2025 18:11:20 GMT-0500 (Central Daylight Time),394377.799999997,011_m_f_h_a.png,I,m,890,12,2,1912.3999999985099,392465.3999999985,8021,VNB,B,11
5,test,3,1.0,1-Back,1,m,Fri May 23 2025 18:11:20 GMT-0500 (Central Daylight Time),396976.700000003,005_o_f_d_a.png,I,m,1575,13,2,2594.5,394382.200000003,8021,VNB,B,12
6,test,3,0.0,1-Back,1,z,Fri May 23 2025 18:11:20 GMT-0500 (Central Daylight Time),399275.8999999985,007_m_m_d_a.png,I,z,1198,14,2,2294.5,396981.3999999985,8021,VNB,B,13
6,test,3,0.0,1-Back,0,m,Fri May 23 2025 18:11:20 GMT-0500 (Central Daylight Time),401941.799999997,016_y_m_n_a.png,I,z,1635,15,2,2662.1999999955297,399279.6000000015,8021,VNB,B,14
7,test,3,1.0,1-Back,1,m,Fri May 23 2025 18:11:20 GMT-0500 (Central Daylight Time),403992.3999999985,004_o_m_h_a.png,I,m,1018,16,2,2046.2999999970198,401946.1000000015,8021,VNB,B,15
8,test,3,0.0,1-Back,1,m,Fri May 23 2025 18:11:20 GMT-0500 (Central Daylight Time),406440.5,016_y_m_d_a.png,I,m,1425,17,2,2443.7999999970198,403996.700000003,8021,VNB,B,16
8,test,3,1.0,1-Back,0,m,Fri May 23 2025 18:11:20 GMT-0500 (Central Daylight Time),408556.700000003,020_y_f_n_a.png,I,z,1088,18,2,2112.4000000059605,406444.299999997,8021,VNB,B,17
0,test,4,1.0,1-Back,,,Fri May 23 2025 18:11:20 GMT-0500 (Central Daylight Time),408556.700000003,007_m_m_d_a.png,I,space,1324,1,2,2112.4000000059605,406444.299999997,8021,VNB,B,0
1,test,4,0.0,1-Back,1,z,Fri May 23 2025 18:11:20 GMT-0500 (Central Daylight Time),414337.8999999985,004_o_m_d_a.png,I,z,1415,2,2,2428.1999999955297,411909.700000003,8021,VNB,B,1
2,test,4,0.0,1-Back,1,m,Fri May 23 2025 18:11:20 GMT-0500 (Central Daylight Time),416220.6000000015,016_y_m_h_a.png,I,m,862,3,2,1878.8999999985099,414341.700000003,8021,VNB,B,2
3,test,4,0.0,1-Back,1,m,Fri May 23 2025 18:11:20 GMT-0500 (Central Daylight Time),418636.799999997,011_m_f_n_a.png,I,m,1387,4,2,2412.2999999970198,416224.5,8021,VNB,B,3
4,test,4,1.0,1-Back,1,m,Fri May 23 2025 18:11:20 GMT-0500 (Central Daylight Time),421152.5,005_o_f_h_a.png,I,m,1491,5,2,2511.60000000149,418640.8999999985,8021,VNB,B,4
5,test,4,0.0,1-Back,1,m,Fri May 23 2025 18:11:20 GMT-0500 (Central Daylight Time),423035.299999997,007_m_m_n_a.png,I,m,864,6,2,1879.3999999985099,421155.8999999985,8021,VNB,B,5
5,test,4,0.0,1-Back,0,m,Fri May 23 2025 18:11:20 GMT-0500 (Central Daylight Time),425051.0,016_y_m_d_a.png,I,z,989,7,2,2011.2999999970198,423039.700000003,8021,VNB,B,6
6,test,4,1.0,1-Back,1,z,Fri May 23 2025 18:11:20 GMT-0500 (Central Daylight Time),427234.0,020_y_f_d_a.png,I,z,1157,8,2,2179.2999999970198,425054.700000003,8021,VNB,B,7
7,test,4,0.0,1-Back,1,m,Fri May 23 2025 18:11:20 GMT-0500 (Central Daylight Time),429033.6000000015,011_m_f_h_a.png,I,m,766,9,2,1796.3000000044703,427237.299999997,8021,VNB,B,8
8,test,4,0.0,1-Back,1,z,Fri May 23 2025 18:11:20 GMT-0500 (Central Daylight Time),431065.8999999985,004_o_m_h_a.png,I,z,1015,10,2,2029.1000000014901,429036.799999997,8021,VNB,B,9
9,test,4,1.0,1-Back,1,m,Fri May 23 2025 18:11:20 GMT-0500 (Central Daylight Time),433148.700000003,005_o_f_n_a.png,I,m,1062,11,2,2079.2000000029802,431069.5,8021,VNB,B,10
9,test,4,0.0,1-Back,0,m,Fri May 23 2025 18:11:20 GMT-0500 (Central Daylight Time),435781.299999997,011_m_f_d_a.png,I,z,1602,12,2,2628.1999999955297,433153.1000000015,8021,VNB,B,11
9,test,4,0.0,1-Back,0,m,Fri May 23 2025 18:11:20 GMT-0500 (Central Daylight Time),438147.200000003,020_y_f_n_a.png,I,z,1347,13,2,2361.8000000044703,435785.3999999985,8021,VNB,B,12
9,test,4,0.0,1-Back,0,m,Fri May 23 2025 18:11:20 GMT-0500 (Central Daylight Time),440379.8999999985,005_o_f_d_a.png,I,z,1205,14,2,2228.89999999851,438151.0,8021,VNB,B,13
10,test,4,0.0,1-Back,1,m,Fri May 23 2025 18:11:20 GMT-0500 (Central Daylight Time),442645.6000000015,020_y_f_h_a.png,I,m,1236,15,2,2262.5,440383.1000000015,8021,VNB,B,14
11,test,4,1.0,1-Back,1,z,Fri May 23 2025 18:11:20 GMT-0500 (Central Daylight Time),444761.799999997,007_m_m_h_a.png,I,z,1090,16,2,2111.89999999851,442649.8999999985,8021,VNB,B,15
12,test,4,0.0,1-Back,1,m,Fri May 23 2025 18:11:20 GMT-0500 (Central Daylight Time),446761.3999999985,004_o_m_n_a.png,I,m,982,17,2,1995.7999999970198,444765.6000000015,8021,VNB,B,16
13,test,4,1.0,1-Back,1,z,Fri May 23 2025 18:11:20 GMT-0500 (Central Daylight Time),448927.200000003,016_y_m_n_a.png,I,z,1135,18,2,2162.2000000029802,446765.0,8021,VNB,B,17
0,test,5,1.0,1-Back,,,Fri May 23 2025 18:11:20 GMT-0500 (Central Daylight Time),448927.200000003,004_o_m_n_a.png,I,space,1881,1,2,2162.2000000029802,446765.0,8021,VNB,B,0
1,test,5,1.0,1-Back,1,m,Fri May 23 2025 18:11:20 GMT-0500 (Central Daylight Time),454858.3999999985,005_o_f_h_a.png,I,m,1006,2,2,2026.8999999985099,452831.5,8021,VNB,B,1
2,test,5,0.0,1-Back,1,m,Fri May 23 2025 18:11:20 GMT-0500 (Central Daylight Time),456941.200000003,016_y_m_d_a.png,I,m,1054,3,2,2079.10000000149,454862.1000000015,8021,VNB,B,2
3,test,5,0.0,1-Back,1,z,Fri May 23 2025 18:11:20 GMT-0500 (Central Daylight Time),459307.299999997,004_o_m_d_a.png,I,z,1339,4,2,2362.0999999940395,456945.200000003,8021,VNB,B,3
4,test,5,0.0,1-Back,1,m,Fri May 23 2025 18:11:20 GMT-0500 (Central Daylight Time),461173.3999999985,011_m_f_h_a.png,I,m,837,5,2,1862.1000000014901,459311.299999997,8021,VNB,B,4
4,test,5,0.0,1-Back,0,m,Fri May 23 2025 18:11:20 GMT-0500 (Central Daylight Time),463356.0,020_y_f_n_a.png,I,z,1155,6,2,2178.60000000149,461177.3999999985,8021,VNB,B,5
5,test,5,1.0,1-Back,1,z,Fri May 23 2025 18:11:20 GMT-0500 (Central Daylight Time),465588.3999999985,005_o_f_n_a.png,I,z,1212,7,2,2228.89999999851,463359.5,8021,VNB,B,6
6,test,5,0.0,1-Back,1,m,Fri May 23 2025 18:11:20 GMT-0500 (Central Daylight Time),467521.3999999985,011_m_f_d_a.png,I,m,900,8,2,1929.5,465591.8999999985,8021,VNB,B,7
6,test,5,0.0,1-Back,0,m,Fri May 23 2025 18:11:20 GMT-0500 (Central Daylight Time),469804.0,016_y_m_h_a.png,I,z,1207,9,2,2278.5,467525.5,8021,VNB,B,8
7,test,5,0.0,1-Back,1,m,Fri May 23 2025 18:11:20 GMT-0500 (Central Daylight Time),472103.200000003,020_y_f_d_a.png,I,m,1276,10,2,2295.2000000029802,469808.0,8021,VNB,B,9
7,test,5,0.0,1-Back,0,m,Fri May 23 2025 18:11:20 GMT-0500 (Central Daylight Time),474236.0,007_m_m_n_a.png,I,z,1105,11,2,2129.39999999851,472106.6000000015,8021,VNB,B,10
8,test,5,1.0,1-Back,1,z,Fri May 23 2025 18:11:20 GMT-0500 (Central Daylight Time),476251.8999999985,011_m_f_n_a.png,I,z,997,12,2,2011.3999999985099,474240.5,8021,VNB,B,11
9,test,5,0.0,1-Back,1,m,Fri May 23 2025 18:11:20 GMT-0500 (Central Daylight Time),478151.299999997,004_o_m_h_a.png,I,m,878,13,2,1895.5999999940395,476255.700000003,8021,VNB,B,12
10,test,5,0.0,1-Back,1,z,Fri May 23 2025 18:11:20 GMT-0500 (Central Daylight Time),480117.200000003,007_m_m_h_a.png,I,z,945,14,2,1962.0,478155.200000003,8021,VNB,B,13
10,test,5,1.0,1-Back,0,m,Fri May 23 2025 18:11:20 GMT-0500 (Central Daylight Time),482133.5,005_o_f_d_a.png,I,z,987,15,2,2012.6000000014901,480120.8999999985,8021,VNB,B,14
10,test,5,0.0,1-Back,0,m,Fri May 23 2025 18:11:20 GMT-0500 (Central Daylight Time),484049.5,016_y_m_n_a.png,I,z,891,16,2,1912.2000000029802,482137.299999997,8021,VNB,B,15
11,test,5,0.0,1-Back,1,m,Fri May 23 2025 18:11:20 GMT-0500 (Central Daylight Time),485915.5,020_y_f_h_a.png,I,m,838,17,2,1862.7999999970198,484052.700000003,8021,VNB,B,16
11,test,5,0.0,1-Back,0,m,Fri May 23 2025 18:11:20 GMT-0500 (Central Daylight Time),487798.299999997,007_m_m_d_a.png,I,z,860,18,2,1878.5999999940395,485919.700000003,8021,VNB,B,17
0,prac,1,0.0,2-Back,,,Fri May 23 2025 18:11:20 GMT-0500 (Central Daylight Time),487798.299999997,011_m_f_n_a.png,I,space,3967,1,2,1878.5999999940395,485919.700000003,8021,VNB,B,0
0,prac,1,0.0,2-Back,,,Fri May 23 2025 18:11:20 GMT-0500 (Central Daylight Time),487798.299999997,005_o_f_h_a.png,I,space,3967,2,2,1878.5999999940395,485919.700000003,8021,VNB,B,0
1,prac,1,0.0,2-Back,1,m,Fri May 23 2025 18:11:20 GMT-0500 (Central Daylight Time),586134.299999997,004_o_m_d_a.png,I,m,1445,3,2,2320.0,583814.299999997,8021,VNB,B,1
2,prac,1,1.0,2-Back,1,z,Fri May 23 2025 18:11:20 GMT-0500 (Central Daylight Time),588717.1000000015,007_m_m_h_a.png,I,z,1676,4,2,2576.7000000029802,586140.3999999985,8021,VNB,B,2
3,prac,1,0.0,2-Back,1,m,Fri May 23 2025 18:11:20 GMT-0500 (Central Daylight Time),590949.200000003,020_y_f_n_a.png,I,m,1345,5,2,2225.5,588723.700000003,8021,VNB,B,3
4,prac,1,1.0,2-Back,1,z,Fri May 23 2025 18:11:20 GMT-0500 (Central Daylight Time),593382.0,004_o_m_h_a.png,I,z,1550,6,2,2426.5,590955.5,8021,VNB,B,4
4,prac,1,1.0,2-Back,0,z,Fri May 23 2025 18:11:20 GMT-0500 (Central Daylight Time),595647.799999997,016_y_m_n_a.png,I,m,1360,7,2,2259.5999999940395,593388.200000003,8021,VNB,B,5
5,prac,1,0.0,2-Back,1,m,Fri May 23 2025 18:11:20 GMT-0500 (Central Daylight Time),597730.6000000015,011_m_f_d_a.png,I,m,1194,8,2,2077.5,595653.1000000015,8021,VNB,B,6
5,prac,1,0.0,2-Back,0,m,Fri May 23 2025 18:11:20 GMT-0500 (Central Daylight Time),600363.1000000015,005_o_f_d_a.png,I,z,1740,9,2,2626.3000000044703,597736.799999997,8021,VNB,B,7
6,prac,1,0.0,2-Back,1,m,Fri May 23 2025 18:11:20 GMT-0500 (Central Daylight Time),602962.299999997,007_m_m_h_a.png,I,m,1815,10,2,2593.0999999940395,600369.200000003,8021,VNB,B,8
7,prac,1,1.0,2-Back,1,z,Fri May 23 2025 18:11:20 GMT-0500 (Central Daylight Time),605311.5,020_y_f_d_a.png,I,z,1458,11,2,2343.5,602968.0,8021,VNB,B,9
7,prac,1,0.0,2-Back,0,m,Fri May 23 2025 18:11:20 GMT-0500 (Central Daylight Time),607711.0,004_o_m_n_a.png,I,z,1515,12,2,2394.60000000149,605316.3999999985,8021,VNB,B,10
0,test,1,0.0,2-Back,,,Fri May 23 2025 18:11:20 GMT-0500 (Central Daylight Time),607711.0,016_y_m_h_a.png,I,space,2709,1,2,2394.60000000149,605316.3999999985,8021,VNB,B,0
0,test,1,0.0,2-Back,,,Fri May 23 2025 18:11:20 GMT-0500 (Central Daylight Time),607711.0,005_o_f_n_a.png,I,space,2709,2,2,2394.60000000149,605316.3999999985,8021,VNB,B,0
1,test,1,0.0,2-Back,1,z,Fri May 23 2025 18:11:20 GMT-0500 (Central Daylight Time),625188.700000003,004_o_m_h_a.png,I,z,1289,3,2,2312.60000000149,622876.1000000015,8021,VNB,B,1
1,test,1,0.0,2-Back,0,m,Fri May 23 2025 18:11:20 GMT-0500 (Central Daylight Time),627638.0,011_m_f_d_a.png,I,z,1427,4,2,2445.7000000029802,625192.299999997,8021,VNB,B,2
2,test,1,1.0,2-Back,1,m,Fri May 23 2025 18:11:20 GMT-0500 (Central Daylight Time),630170.5,016_y_m_n_a.png,I,m,1507,5,2,2528.5,627642.0,8021,VNB,B,3
3,test,1,0.0,2-Back,1,z,Fri May 23 2025 18:11:20 GMT-0500 (Central Daylight Time),632569.700000003,020_y_f_d_a.png,I,z,1374,6,2,2395.9000000059605,630173.799999997,8021,VNB,B,4
3,test,1,0.0,2-Back,0,m,Fri May 23 2025 18:11:20 GMT-0500 (Central Daylight Time),635202.3999999985,007_m_m_h_a.png,I,z,1578,7,2,2628.6999999955297,632573.700000003,8021,VNB,B,5
4,test,1,1.0,2-Back,1,m,Fri May 23 2025 18:11:20 GMT-0500 (Central Daylight Time),637918.1000000015,020_y_f_n_a.png,I,m,1686,8,2,2712.0,635206.1000000015,8021,VNB,B,6
5,test,1,0.0,2-Back,1,z,Fri May 23 2025 18:11:20 GMT-0500 (Central Daylight Time),639967.5,005_o_f_h_a.png,I,z,1018,9,2,2046.2000000029802,637921.299999997,8021,VNB,B,7
6,test,1,0.0,2-Back,1,m,Fri May 23 2025 18:11:20 GMT-0500 (Central Daylight Time),642183.299999997,004_o_m_d_a.png,I,m,1194,10,2,2212.0,639971.299999997,8021,VNB,B,8
6,test,1,1.0,2-Back,0,m,Fri May 23 2025 18:11:20 GMT-0500 (Central Daylight Time),644366.1000000015,007_m_m_d_a.png,I,z,1161,11,2,2179.3000000044703,642186.799999997,8021,VNB,B,9
6,test,1,0.0,2-Back,0,m,Fri May 23 2025 18:11:20 GMT-0500 (Central Daylight Time),646781.700000003,011_m_f_n_a.png,I,z,1394,12,2,2412.0,644369.700000003,8021,VNB,B,10
6,test,1,0.0,2-Back,0,m,Fri May 23 2025 18:11:20 GMT-0500 (Central Daylight Time),648997.8999999985,020_y_f_h_a.png,I,z,1186,13,2,2212.2999999970198,646785.6000000015,8021,VNB,B,11
6,test,1,0.0,2-Back,0,z,Fri May 23 2025 18:11:20 GMT-0500 (Central Daylight Time),651047.299999997,007_m_m_n_a.png,I,m,1026,14,2,2045.6999999955297,649001.6000000015,8021,VNB,B,12
6,test,1,0.0,2-Back,0,m,Fri May 23 2025 18:11:20 GMT-0500 (Central Daylight Time),653196.299999997,016_y_m_d_a.png,I,z,1129,15,2,2145.6999999955297,651050.6000000015,8021,VNB,B,13
7,test,1,1.0,2-Back,1,m,Fri May 23 2025 18:11:20 GMT-0500 (Central Daylight Time),655595.700000003,011_m_f_h_a.png,I,m,1371,16,2,2395.60000000149,653200.1000000015,8021,VNB,B,14
8,test,1,0.0,2-Back,1,z,Fri May 23 2025 18:11:20 GMT-0500 (Central Daylight Time),657811.6000000015,005_o_f_d_a.png,I,z,1188,17,2,2212.3000000044703,655599.299999997,8021,VNB,B,15
8,test,1,0.0,2-Back,0,m,Fri May 23 2025 18:11:20 GMT-0500 (Central Daylight Time),659794.700000003,004_o_m_n_a.png,I,z,956,18,2,1979.4000000059605,657815.299999997,8021,VNB,B,16
0,test,2,0.0,2-Back,,,Fri May 23 2025 18:11:20 GMT-0500 (Central Daylight Time),659794.700000003,007_m_m_h_a.png,I,space,1630,1,2,1979.4000000059605,657815.299999997,8021,VNB,B,0
0,test,2,0.0,2-Back,,,Fri May 23 2025 18:11:20 GMT-0500 (Central Daylight Time),659794.700000003,020_y_f_n_a.png,I,space,1630,2,2,1979.4000000059605,657815.299999997,8021,VNB,B,0
1,test,2,1.0,2-Back,1,z,Fri May 23 2025 18:11:20 GMT-0500 (Central Daylight Time),669091.700000003,005_o_f_h_a.png,I,z,1372,3,2,2395.2000000029802,666696.5,8021,VNB,B,1
2,test,2,0.0,2-Back,1,m,Fri May 23 2025 18:11:20 GMT-0500 (Central Daylight Time),671174.200000003,004_o_m_d_a.png,I,m,1061,4,2,2079.3000000044703,669094.8999999985,8021,VNB,B,2
2,test,2,0.0,2-Back,0,m,Fri May 23 2025 18:11:20 GMT-0500 (Central Daylight Time),673639.8999999985,011_m_f_d_a.png,I,z,1434,5,2,2461.39999999851,671178.5,8021,VNB,B,3
2,test,2,0.0,2-Back,0,m,Fri May 23 2025 18:11:20 GMT-0500 (Central Daylight Time),676222.700000003,016_y_m_h_a.png,I,z,1552,6,2,2578.9000000059605,673643.799999997,8021,VNB,B,4
3,test,2,0.0,2-Back,1,m,Fri May 23 2025 18:11:20 GMT-0500 (Central Daylight Time),678523.0,005_o_f_n_a.png,I,m,1273,7,2,2296.7999999970198,676226.200000003,8021,VNB,B,5
4,test,2,1.0,2-Back,1,z,Fri May 23 2025 18:11:20 GMT-0500 (Central Daylight Time),680854.299999997,004_o_m_h_a.png,I,z,1304,8,2,2327.5,678526.799999997,8021,VNB,B,6
5,test,2,0.0,2-Back,1,m,Fri May 23 2025 18:11:20 GMT-0500 (Central Daylight Time),682970.299999997,020_y_f_d_a.png,I,m,1097,9,2,2112.39999999851,680857.8999999985,8021,VNB,B,7
5,test,2,0.0,2-Back,0,m,Fri May 23 2025 18:11:20 GMT-0500 (Central Daylight Time),685119.700000003,016_y_m_d_a.png,I,z,1118,10,2,2145.9000000059605,682973.799999997,8021,VNB,B,8
5,test,2,0.0,2-Back,0,m,Fri May 23 2025 18:11:20 GMT-0500 (Central Daylight Time),687385.799999997,007_m_m_n_a.png,I,z,1240,11,2,2262.1999999955297,685123.6000000015,8021,VNB,B,9
6,test,2,0.0,2-Back,1,m,Fri May 23 2025 18:11:20 GMT-0500 (Central Daylight Time),689901.5,011_m_f_h_a.png,I,m,1494,12,2,2511.5,687390.0,8021,VNB,B,10
6,test,2,1.0,2-Back,0,z,Fri May 23 2025 18:11:20 GMT-0500 (Central Daylight Time),692217.5,004_o_m_n_a.png,I,m,1282,13,2,2312.60000000149,689904.8999999985,8021,VNB,B,11
6,test,2,0.0,2-Back,0,m,Fri May 23 2025 18:11:20 GMT-0500 (Central Daylight Time),694533.5,005_o_f_d_a.png,I,z,1287,14,2,2311.89999999851,692221.6000000015,8021,VNB,B,12
7,test,2,0.0,2-Back,1,m,Fri May 23 2025 18:11:20 GMT-0500 (Central Daylight Time),696949.3999999985,020_y_f_h_a.png,I,m,1395,15,2,2412.39999999851,694537.0,8021,VNB,B,13
8,test,2,0.0,2-Back,1,z,Fri May 23 2025 18:11:20 GMT-0500 (Central Daylight Time),699665.3999999985,007_m_m_d_a.png,I,z,1699,16,2,2712.2999999970198,696953.1000000015,8021,VNB,B,14
9,test,2,0.0,2-Back,1,m,Fri May 23 2025 18:11:20 GMT-0500 (Central Daylight Time),702497.799999997,016_y_m_n_a.png,I,m,1815,17,2,2829.5,699668.299999997,8021,VNB,B,15
10,test,2,1.0,2-Back,1,m,Fri May 23 2025 18:11:20 GMT-0500 (Central Daylight Time),704380.1000000015,011_m_f_n_a.png,I,m,863,18,2,1878.1000000014901,702502.0,8021,VNB,B,16
0,test,3,1.0,2-Back,,,Fri May 23 2025 18:11:20 GMT-0500 (Central Daylight Time),704380.1000000015,004_o_m_n_a.png,I,space,1388,1,2,1878.1000000014901,702502.0,8021,VNB,B,0
0,test,3,1.0,2-Back,,,Fri May 23 2025 18:11:20 GMT-0500 (Central Daylight Time),704380.1000000015,005_o_f_d_a.png,I,space,1388,2,2,1878.1000000014901,702502.0,8021,VNB,B,0
1,test,3,0.0,2-Back,1,m,Fri May 23 2025 18:11:20 GMT-0500 (Central Daylight Time),713011.1000000015,020_y_f_h_a.png,I,m,1156,3,2,2178.7000000029802,710832.3999999985,8021,VNB,B,1
2,test,3,0.0,2-Back,1,z,Fri May 23 2025 18:11:20 GMT-0500 (Central Daylight Time),715443.799999997,011_m_f_d_a.png,I,z,1413,4,2,2428.6999999955297,713015.1000000015,8021,VNB,B,2
3,test,3,1.0,2-Back,1,m,Fri May 23 2025 18:11:20 GMT-0500 (Central Daylight Time),717576.3999999985,016_y_m_n_a.png,I,m,1101,5,2,2128.89999999851,715447.5,8021,VNB,B,3
3,test,3,0.0,2-Back,0,m,Fri May 23 2025 18:11:20 GMT-0500 (Central Daylight Time),719692.200000003,004_o_m_h_a.png,I,z,1097,6,2,2112.10000000149,717580.1000000015,8021,VNB,B,4
4,test,3,0.0,2-Back,1,z,Fri May 23 2025 18:11:20 GMT-0500 (Central Daylight Time),721791.5,020_y_f_n_a.png,I,z,1076,7,2,2095.7999999970198,719695.700000003,8021,VNB,B,5
4,test,3,1.0,2-Back,0,m,Fri May 23 2025 18:11:20 GMT-0500 (Central Daylight Time),723990.8999999985,007_m_m_d_a.png,I,z,1176,8,2,2196.10000000149,721794.799999997,8021,VNB,B,6
4,test,3,0.0,2-Back,0,m,Fri May 23 2025 18:11:20 GMT-0500 (Central Daylight Time),726273.3999999985,016_y_m_d_a.png,I,z,1257,9,2,2278.2999999970198,723995.1000000015,8021,VNB,B,7
5,test,3,0.0,2-Back,1,m,Fri May 23 2025 18:11:20 GMT-0500 (Central Daylight Time),728106.200000003,005_o_f_h_a.png,I,m,807,10,2,1829.1000000014901,726277.1000000015,8021,VNB,B,8
6,test,3,1.0,2-Back,1,m,Fri May 23 2025 18:11:20 GMT-0500 (Central Daylight Time),730222.299999997,011_m_f_n_a.png,I,m,1094,11,2,2112.1999999955297,728110.1000000015,8021,VNB,B,9
7,test,3,1.0,2-Back,1,z,Fri May 23 2025 18:11:20 GMT-0500 (Central Daylight Time),732255.1000000015,007_m_m_h_a.png,I,z,1002,12,2,2029.3000000044703,730225.799999997,8021,VNB,B,10
7,test,3,0.0,2-Back,0,m,Fri May 23 2025 18:11:20 GMT-0500 (Central Daylight Time),734487.8999999985,020_y_f_d_a.png,I,z,1201,13,2,2229.10000000149,732258.799999997,8021,VNB,B,11
7,test,3,0.0,2-Back,0,m,Fri May 23 2025 18:11:20 GMT-0500 (Central Daylight Time),736603.6000000015,005_o_f_n_a.png,I,z,1088,14,2,2112.0,734491.6000000015,8021,VNB,B,12
7,test,3,0.0,2-Back,0,z,Fri May 23 2025 18:11:20 GMT-0500 (Central Daylight Time),738969.5,004_o_m_d_a.png,I,m,1341,15,2,2362.10000000149,736607.3999999985,8021,VNB,B,13
7,test,3,1.0,2-Back,0,m,Fri May 23 2025 18:11:20 GMT-0500 (Central Daylight Time),740935.700000003,011_m_f_h_a.png,I,z,934,16,2,1962.5,738973.200000003,8021,VNB,B,14
8,test,3,0.0,2-Back,1,m,Fri May 23 2025 18:11:20 GMT-0500 (Central Daylight Time),743201.799999997,007_m_m_n_a.png,I,m,1249,17,2,2262.5999999940395,740939.200000003,8021,VNB,B,15
9,test,3,0.0,2-Back,1,z,Fri May 23 2025 18:11:20 GMT-0500 (Central Daylight Time),745150.8999999985,016_y_m_h_a.png,I,z,919,18,2,1945.5,743205.3999999985,8021,VNB,B,16
0,test,4,0.0,2-Back,,,Fri May 23 2025 18:11:20 GMT-0500 (Central Daylight Time),745150.8999999985,011_m_f_n_a.png,I,space,1329,1,2,1945.5,743205.3999999985,8021,VNB,B,0
0,test,4,0.0,2-Back,,,Fri May 23 2025 18:11:20 GMT-0500 (Central Daylight Time),745150.8999999985,004_o_m_n_a.png,I,space,1329,2,2,1945.5,743205.3999999985,8021,VNB,B,0
1,test,4,1.0,2-Back,1,m,Fri May 23 2025 18:11:20 GMT-0500 (Central Daylight Time),753681.799999997,016_y_m_h_a.png,I,m,924,3,2,1945.7999999970198,751736.0,8021,VNB,B,1
1,test,4,1.0,2-Back,0,m,Fri May 23 2025 18:11:20 GMT-0500 (Central Daylight Time),756380.6000000015,005_o_f_d_a.png,I,z,1679,4,2,2695.39999999851,753685.200000003,8021,VNB,B,2
2,test,4,0.0,2-Back,1,z,Fri May 23 2025 18:11:20 GMT-0500 (Central Daylight Time),758663.3999999985,004_o_m_h_a.png,I,z,1259,5,2,2279.5,756383.8999999985,8021,VNB,B,3
3,test,4,0.0,2-Back,1,m,Fri May 23 2025 18:11:20 GMT-0500 (Central Daylight Time),760746.1000000015,007_m_m_n_a.png,I,m,1057,6,2,2079.39999999851,758666.700000003,8021,VNB,B,4
3,test,4,0.0,2-Back,0,m,Fri May 23 2025 18:11:20 GMT-0500 (Central Daylight Time),763045.6000000015,011_m_f_d_a.png,I,z,1278,7,2,2295.60000000149,760750.0,8021,VNB,B,5
4,test,4,0.0,2-Back,1,z,Fri May 23 2025 18:11:20 GMT-0500 (Central Daylight Time),765278.0,020_y_f_n_a.png,I,z,1203,8,2,2229.10000000149,763048.8999999985,8021,VNB,B,6
5,test,4,1.0,2-Back,1,m,Fri May 23 2025 18:11:20 GMT-0500 (Central Daylight Time),767193.8999999985,005_o_f_h_a.png,I,m,898,9,2,1912.2999999970198,765281.6000000015,8021,VNB,B,7
5,test,4,0.0,2-Back,0,m,Fri May 23 2025 18:11:20 GMT-0500 (Central Daylight Time),769310.1000000015,007_m_m_h_a.png,I,z,1094,10,2,2112.89999999851,767197.200000003,8021,VNB,B,8
5,test,4,0.0,2-Back,0,m,Fri May 23 2025 18:11:20 GMT-0500 (Central Daylight Time),771342.8999999985,020_y_f_d_a.png,I,z,1002,11,2,2029.1000000014901,769313.799999997,8021,VNB,B,9
6,test,4,0.0,2-Back,1,m,Fri May 23 2025 18:11:20 GMT-0500 (Central Daylight Time),773492.3999999985,016_y_m_n_a.png,I,m,1122,12,2,2145.7999999970198,771346.6000000015,8021,VNB,B,10
6,test,4,0.0,2-Back,0,z,Fri May 23 2025 18:11:20 GMT-0500 (Central Daylight Time),775591.5,004_o_m_d_a.png,I,m,1068,13,2,2095.7000000029802,773495.799999997,8021,VNB,B,11
6,test,4,1.0,2-Back,0,m,Fri May 23 2025 18:11:20 GMT-0500 (Central Daylight Time),777590.8999999985,011_m_f_h_a.png,I,z,977,14,2,1996.1000000014901,775594.799999997,8021,VNB,B,12
6,test,4,1.0,2-Back,0,m,Fri May 23 2025 18:11:20 GMT-0500 (Central Daylight Time),779290.1000000015,020_y_f_h_a.png,I,z,673,15,2,1695.3000000044703,777594.799999997,8021,VNB,B,13
7,test,4,0.0,2-Back,1,m,Fri May 23 2025 18:11:20 GMT-0500 (Central Daylight Time),781422.8999999985,005_o_f_n_a.png,I,m,1110,16,2,2129.1999999955297,779293.700000003,8021,VNB,B,14
7,test,4,0.0,2-Back,0,m,Fri May 23 2025 18:11:20 GMT-0500 (Central Daylight Time),783822.1000000015,016_y_m_d_a.png,I,z,1369,17,2,2395.5,781426.6000000015,8021,VNB,B,15
7,test,4,1.0,2-Back,0,m,Fri May 23 2025 18:11:20 GMT-0500 (Central Daylight Time),785871.5,007_m_m_d_a.png,I,z,1018,18,2,2045.8999999985099,783825.6000000015,8021,VNB,B,16
0,test,5,1.0,2-Back,,,Fri May 23 2025 18:11:20 GMT-0500 (Central Daylight Time),785871.5,020_y_f_d_a.png,I,space,1489,1,2,2045.8999999985099,783825.6000000015,8021,VNB,B,0
0,test,5,1.0,2-Back,,,Fri May 23 2025 18:11:20 GMT-0500 (Central Daylight Time),785871.5,005_o_f_h_a.png,I,space,1489,2,2,2045.8999999985099,783825.6000000015,8021,VNB,B,0
1,test,5,1.0,2-Back,1,z,Fri May 23 2025 18:11:20 GMT-0500 (Central Daylight Time),794935.3999999985,004_o_m_d_a.png,I,z,1268,3,2,2296.10000000149,792639.299999997,8021,VNB,B,1
1,test,5,1.0,2-Back,0,m,Fri May 23 2025 18:11:20 GMT-0500 (Central Daylight Time),797368.0,011_m_f_n_a.png,I,z,1409,4,2,2428.89999999851,794939.1000000015,8021,VNB,B,2
1,test,5,0.0,2-Back,0,m,Fri May 23 2025 18:11:20 GMT-0500 (Central Daylight Time),799433.799999997,007_m_m_h_a.png,I,z,973,5,2,2062.0999999940395,797371.700000003,8021,VNB,B,3
1,test,5,0.0,2-Back,0,z,Fri May 23 2025 18:11:20 GMT-0500 (Central Daylight Time),801433.6000000015,020_y_f_n_a.png,I,m,982,6,2,1996.2000000029802,799437.3999999985,8021,VNB,B,4
2,test,5,0.0,2-Back,1,m,Fri May 23 2025 18:11:20 GMT-0500 (Central Daylight Time),803449.6000000015,005_o_f_d_a.png,I,m,999,7,2,2012.6000000014901,801437.0,8021,VNB,B,5
2,test,5,0.0,2-Back,0,m,Fri May 23 2025 18:11:20 GMT-0500 (Central Daylight Time),805931.799999997,004_o_m_h_a.png,I,z,1456,8,2,2478.6999999955297,803453.1000000015,8021,VNB,B,6
3,test,5,1.0,2-Back,1,z,Fri May 23 2025 18:11:20 GMT-0500 (Central Daylight Time),807948.0,011_m_f_d_a.png,I,z,996,9,2,2011.8999999985099,805936.1000000015,8021,VNB,B,7
4,test,5,0.0,2-Back,1,m,Fri May 23 2025 18:11:20 GMT-0500 (Central Daylight Time),809980.799999997,016_y_m_n_a.png,I,m,1005,10,2,2029.0999999940395,807951.700000003,8021,VNB,B,8
5,test,5,0.0,2-Back,1,m,Fri May 23 2025 18:11:20 GMT-0500 (Central Daylight Time),812363.1000000015,007_m_m_n_a.png,I,m,1355,11,2,2379.0,809984.1000000015,8021,VNB,B,9
5,test,5,0.0,2-Back,0,m,Fri May 23 2025 18:11:20 GMT-0500 (Central Daylight Time),814629.1000000015,020_y_f_h_a.png,I,z,1245,12,2,2262.10000000149,812367.0,8021,VNB,B,10
5,test,5,0.0,2-Back,0,m,Fri May 23 2025 18:11:20 GMT-0500 (Central Daylight Time),816678.799999997,016_y_m_d_a.png,I,z,1019,13,2,2046.0,814632.799999997,8021,VNB,B,11
6,test,5,1.0,2-Back,1,z,Fri May 23 2025 18:11:20 GMT-0500 (Central Daylight Time),818911.1000000015,011_m_f_h_a.png,I,z,1209,14,2,2228.7000000029802,816682.3999999985,8021,VNB,B,12
7,test,5,0.0,2-Back,1,m,Fri May 23 2025 18:11:20 GMT-0500 (Central Daylight Time),821210.5,004_o_m_n_a.png,I,m,1273,15,2,2295.60000000149,818914.8999999985,8021,VNB,B,13
7,test,5,0.0,2-Back,0,m,Fri May 23 2025 18:11:20 GMT-0500 (Central Daylight Time),823343.299999997,007_m_m_d_a.png,I,z,1110,16,2,2129.0999999940395,821214.200000003,8021,VNB,B,14
8,test,5,0.0,2-Back,1,z,Fri May 23 2025 18:11:20 GMT-0500 (Central Daylight Time),825542.3999999985,005_o_f_n_a.png,I,z,1169,17,2,2195.2999999970198,823347.1000000015,8021,VNB,B,15
9,test,5,1.0,2-Back,1,m,Fri May 23 2025 18:11:20 GMT-0500 (Central Daylight Time),827575.1000000015,016_y_m_h_a.png,I,m,1002,18,2,2029.0,825546.1000000015,8021,VNB,B,16
