acc_sum,block,block_c,change,condition,correct,correct_response,datetime,endtime,face,project,response,response_time,row_sel,session_number,start_end,starttime,subject_id,task,task_vers,trial
0,prac,1,,1-Back,,,Thu Mar 19 2026 14:52:06 GMT-0500 (Central Daylight Time),,012_o_f_d_a.png,O,space,4418,1,1,,,7781,VNB,C,0
1,prac,1,0.0,1-Back,1.0,m,Thu Mar 19 2026 14:52:06 GMT-0500 (Central Daylight Time),155867.60000002384,022_y_f_n_a.png,O,m,1405,2,1,2271.399999976158,153596.20000004768,7781,VNB,C,1
1,prac,1,0.0,1-Back,0.0,m,Thu Mar 19 2026 14:52:06 GMT-0500 (Central Daylight Time),158716.0,014_m_m_h_a.png,O,None,2005,3,1,2841.399999976158,155874.60000002384,7781,VNB,C,2
1,prac,1,0.0,1-Back,0.0,m,Thu Mar 19 2026 14:52:06 GMT-0500 (Central Daylight Time),161563.80000007153,025_y_m_d_a.png,O,None,2003,4,1,2837.4000000953674,158726.39999997616,7781,VNB,C,3
2,prac,1,0.0,1-Back,1.0,m,Thu Mar 19 2026 14:52:06 GMT-0500 (Central Daylight Time),163584.80000007153,012_o_f_n_a.png,O,m,1165,5,1,2013.2000000476837,161571.60000002384,7781,VNB,C,4
3,prac,1,1.0,1-Back,1.0,z,Thu Mar 19 2026 14:52:06 GMT-0500 (Central Daylight Time),165646.39999997616,025_y_m_n_a.png,O,z,1205,6,1,2055.399999976158,163591.0,7781,VNB,C,5
4,prac,1,0.0,1-Back,1.0,m,Thu Mar 19 2026 14:52:06 GMT-0500 (Central Daylight Time),167530.80000007153,015_o_m_h_a.png,O,m,1012,7,1,1877.6000000238419,165653.20000004768,7781,VNB,C,6
4,prac,1,0.0,1-Back,0.0,m,Thu Mar 19 2026 14:52:06 GMT-0500 (Central Daylight Time),169644.70000004768,019_m_f_d_a.png,O,z,1233,8,1,2103.8000000715256,167540.89999997616,7781,VNB,C,7
5,prac,1,1.0,1-Back,1.0,z,Thu Mar 19 2026 14:52:06 GMT-0500 (Central Daylight Time),172043.60000002384,022_y_f_d_a.png,O,z,1530,9,1,2395.399999976158,169648.20000004768,7781,VNB,C,8
6,prac,1,0.0,1-Back,1.0,m,Thu Mar 19 2026 14:52:06 GMT-0500 (Central Daylight Time),173927.5,014_m_m_n_a.png,O,m,1021,10,1,1872.7999999523163,172054.70000004768,7781,VNB,C,9
7,prac,1,0.0,1-Back,1.0,m,Thu Mar 19 2026 14:52:06 GMT-0500 (Central Daylight Time),176410.0,012_o_f_h_a.png,O,m,1611,11,1,2476.100000023842,173933.89999997616,7781,VNB,C,10
7,prac,1,0.0,1-Back,0.0,m,Thu Mar 19 2026 14:52:06 GMT-0500 (Central Daylight Time),178109.60000002384,025_y_m_d_a.png,O,z,849,12,1,1689.7999999523163,176419.80000007153,7781,VNB,C,11
0,prac,2,0.0,1-Back,,,Thu Mar 19 2026 14:52:06 GMT-0500 (Central Daylight Time),178109.60000002384,012_o_f_d_a.png,O,a,19830,1,1,1689.7999999523163,176419.80000007153,7781,VNB,C,0
0,prac,2,0.0,1-Back,0.0,m,Thu Mar 19 2026 14:52:06 GMT-0500 (Central Daylight Time),203868.39999997616,022_y_f_n_a.png,O,None,2006,2,1,2869.399999976158,200999.0,7781,VNB,C,1
0,prac,2,0.0,1-Back,0.0,m,Thu Mar 19 2026 14:52:06 GMT-0500 (Central Daylight Time),206716.10000002384,014_m_m_h_a.png,O,None,2008,3,1,2843.7999999523163,203872.30000007153,7781,VNB,C,2
1,prac,2,0.0,1-Back,1.0,m,Thu Mar 19 2026 14:52:06 GMT-0500 (Central Daylight Time),209165.70000004768,025_y_m_d_a.png,O,m,1666,4,1,2438.399999976158,206727.30000007153,7781,VNB,C,3
1,prac,2,0.0,1-Back,0.0,m,Thu Mar 19 2026 14:52:06 GMT-0500 (Central Daylight Time),212030.89999997616,012_o_f_n_a.png,O,None,2008,5,1,2858.5999999046326,209172.30000007153,7781,VNB,C,4
1,prac,2,1.0,1-Back,0.0,z,Thu Mar 19 2026 14:52:06 GMT-0500 (Central Daylight Time),214897.39999997616,025_y_m_n_a.png,O,None,2016,6,1,2860.6999999284744,212036.70000004768,7781,VNB,C,5
2,prac,2,0.0,1-Back,1.0,m,Thu Mar 19 2026 14:52:06 GMT-0500 (Central Daylight Time),217246.70000004768,015_o_m_h_a.png,O,m,1488,7,1,2341.100000023842,214905.60000002384,7781,VNB,C,6
2,prac,2,0.0,1-Back,0.0,m,Thu Mar 19 2026 14:52:06 GMT-0500 (Central Daylight Time),219712.5,019_m_f_d_a.png,O,z,1594,8,1,2455.2999999523163,217257.20000004768,7781,VNB,C,7
2,prac,2,1.0,1-Back,0.0,z,Thu Mar 19 2026 14:52:06 GMT-0500 (Central Daylight Time),221912.20000004768,022_y_f_d_a.png,O,m,1332,9,1,2192.600000023842,219719.60000002384,7781,VNB,C,8
3,prac,2,0.0,1-Back,1.0,m,Thu Mar 19 2026 14:52:06 GMT-0500 (Central Daylight Time),224330.80000007153,014_m_m_n_a.png,O,m,1546,10,1,2407.4000000953674,221923.39999997616,7781,VNB,C,9
4,prac,2,0.0,1-Back,1.0,m,Thu Mar 19 2026 14:52:06 GMT-0500 (Central Daylight Time),226526.80000007153,012_o_f_h_a.png,O,m,1334,11,1,2191.100000023842,224335.70000004768,7781,VNB,C,10
5,prac,2,0.0,1-Back,1.0,m,Thu Mar 19 2026 14:52:06 GMT-0500 (Central Daylight Time),228409.60000002384,025_y_m_d_a.png,O,m,1039,12,1,1873.0,226536.60000002384,7781,VNB,C,11
0,prac,3,0.0,1-Back,,,Thu Mar 19 2026 14:52:06 GMT-0500 (Central Daylight Time),228409.60000002384,012_o_f_d_a.png,O,a,1415,1,1,1873.0,226536.60000002384,7781,VNB,C,0
0,prac,3,0.0,1-Back,0.0,m,Thu Mar 19 2026 14:52:06 GMT-0500 (Central Daylight Time),235057.30000007153,022_y_f_n_a.png,O,z,1314,2,1,2170.8000000715256,232886.5,7781,VNB,C,1
1,prac,3,0.0,1-Back,1.0,m,Thu Mar 19 2026 14:52:06 GMT-0500 (Central Daylight Time),236858.10000002384,014_m_m_h_a.png,O,m,962,3,1,1793.8999999761581,235064.20000004768,7781,VNB,C,2
2,prac,3,0.0,1-Back,1.0,m,Thu Mar 19 2026 14:52:06 GMT-0500 (Central Daylight Time),238507.20000004768,025_y_m_d_a.png,O,m,870,4,1,1638.0,236869.20000004768,7781,VNB,C,3
3,prac,3,0.0,1-Back,1.0,m,Thu Mar 19 2026 14:52:06 GMT-0500 (Central Daylight Time),240205.80000007153,012_o_f_n_a.png,O,m,841,5,1,1694.1000000238419,238511.70000004768,7781,VNB,C,4
4,prac,3,1.0,1-Back,1.0,z,Thu Mar 19 2026 14:52:06 GMT-0500 (Central Daylight Time),242388.5,025_y_m_n_a.png,O,z,1335,6,1,2173.600000023842,240214.89999997616,7781,VNB,C,5
5,prac,3,0.0,1-Back,1.0,m,Thu Mar 19 2026 14:52:06 GMT-0500 (Central Daylight Time),244004.20000004768,015_o_m_h_a.png,O,m,755,7,1,1610.3000000715256,242393.89999997616,7781,VNB,C,6
6,prac,3,0.0,1-Back,1.0,m,Thu Mar 19 2026 14:52:06 GMT-0500 (Central Daylight Time),246187.5,019_m_f_d_a.png,O,m,1313,8,1,2178.600000023842,244008.89999997616,7781,VNB,C,7
7,prac,3,1.0,1-Back,1.0,z,Thu Mar 19 2026 14:52:06 GMT-0500 (Central Daylight Time),248703.60000002384,022_y_f_d_a.png,O,z,1651,9,1,2511.5,246192.10000002384,7781,VNB,C,8
8,prac,3,0.0,1-Back,1.0,m,Thu Mar 19 2026 14:52:06 GMT-0500 (Central Daylight Time),250436.20000004768,014_m_m_n_a.png,O,m,874,10,1,1723.1000000238419,248713.10000002384,7781,VNB,C,9
9,prac,3,0.0,1-Back,1.0,m,Thu Mar 19 2026 14:52:06 GMT-0500 (Central Daylight Time),252468.0,012_o_f_h_a.png,O,m,1177,11,1,2027.1000000238419,250440.89999997616,7781,VNB,C,10
10,prac,3,0.0,1-Back,1.0,m,Thu Mar 19 2026 14:52:06 GMT-0500 (Central Daylight Time),254236.70000004768,025_y_m_d_a.png,O,m,930,12,1,1762.7000000476837,252474.0,7781,VNB,C,11
0,test,1,0.0,1-Back,,,Thu Mar 19 2026 14:52:06 GMT-0500 (Central Daylight Time),254236.70000004768,022_y_f_d_a.png,O,space,2786,1,1,1762.7000000476837,252474.0,7781,VNB,C,0
1,test,1,0.0,1-Back,1.0,m,Thu Mar 19 2026 14:52:06 GMT-0500 (Central Daylight Time),268515.5,019_m_f_n_a.png,O,m,1717,2,1,2723.0,265792.5,7781,VNB,C,1
2,test,1,0.0,1-Back,1.0,m,Thu Mar 19 2026 14:52:06 GMT-0500 (Central Daylight Time),270594.89999997616,015_o_m_h_a.png,O,m,1053,3,1,2076.5,268518.39999997616,7781,VNB,C,2
3,test,1,1.0,1-Back,1.0,z,Thu Mar 19 2026 14:52:06 GMT-0500 (Central Daylight Time),272829.0,014_m_m_h_a.png,O,z,1214,4,1,2226.7999999523163,270602.2000000477,7781,VNB,C,3
4,test,1,0.0,1-Back,1.0,m,Thu Mar 19 2026 14:52:06 GMT-0500 (Central Daylight Time),274812.8000000715,012_o_f_n_a.png,O,m,965,5,1,1980.0,272832.8000000715,7781,VNB,C,4
5,test,1,0.0,1-Back,1.0,m,Thu Mar 19 2026 14:52:06 GMT-0500 (Central Daylight Time),276761.7000000477,025_y_m_d_a.png,O,m,932,6,1,1938.8000000715256,274822.89999997616,7781,VNB,C,5
6,test,1,1.0,1-Back,1.0,z,Thu Mar 19 2026 14:52:06 GMT-0500 (Central Daylight Time),279044.39999997616,019_m_f_d_a.png,O,z,1266,7,1,2279.2999999523163,276765.10000002384,7781,VNB,C,6
7,test,1,0.0,1-Back,1.0,m,Thu Mar 19 2026 14:52:06 GMT-0500 (Central Daylight Time),281292.60000002384,022_y_f_h_a.png,O,m,1223,8,1,2241.399999976158,279051.2000000477,7781,VNB,C,7
8,test,1,0.0,1-Back,1.0,m,Thu Mar 19 2026 14:52:06 GMT-0500 (Central Daylight Time),284009.60000002384,015_o_m_n_a.png,O,m,1699,9,1,2714.100000023842,281295.5,7781,VNB,C,8
9,test,1,0.0,1-Back,1.0,m,Thu Mar 19 2026 14:52:06 GMT-0500 (Central Daylight Time),286107.8000000715,025_y_m_h_a.png,O,m,1072,10,1,2091.3000000715256,284016.5,7781,VNB,C,9
10,test,1,0.0,1-Back,1.0,m,Thu Mar 19 2026 14:52:06 GMT-0500 (Central Daylight Time),288258.0,015_o_m_d_a.png,O,m,1133,11,1,2146.7999999523163,286111.2000000477,7781,VNB,C,10
11,test,1,1.0,1-Back,1.0,z,Thu Mar 19 2026 14:52:06 GMT-0500 (Central Daylight Time),290307.0,012_o_f_d_a.png,O,z,1033,12,1,2040.6000000238419,288266.39999997616,7781,VNB,C,11
12,test,1,0.0,1-Back,1.0,m,Thu Mar 19 2026 14:52:06 GMT-0500 (Central Daylight Time),292257.0,014_m_m_n_a.png,O,m,916,13,1,1946.2999999523163,290310.7000000477,7781,VNB,C,12
13,test,1,1.0,1-Back,1.0,z,Thu Mar 19 2026 14:52:06 GMT-0500 (Central Daylight Time),294987.7000000477,022_y_f_n_a.png,O,z,1703,14,1,2719.600000023842,292268.10000002384,7781,VNB,C,13
14,test,1,0.0,1-Back,1.0,m,Thu Mar 19 2026 14:52:06 GMT-0500 (Central Daylight Time),296738.60000002384,019_m_f_h_a.png,O,m,717,15,1,1748.2000000476837,294990.39999997616,7781,VNB,C,14
15,test,1,0.0,1-Back,1.0,m,Thu Mar 19 2026 14:52:06 GMT-0500 (Central Daylight Time),299187.8000000715,014_m_m_d_a.png,O,m,1424,16,1,2441.0,296746.8000000715,7781,VNB,C,15
16,test,1,0.0,1-Back,1.0,m,Thu Mar 19 2026 14:52:06 GMT-0500 (Central Daylight Time),301419.7000000477,025_y_m_n_a.png,O,m,1214,17,1,2228.5,299191.2000000477,7781,VNB,C,16
17,test,1,0.0,1-Back,1.0,m,Thu Mar 19 2026 14:52:06 GMT-0500 (Central Daylight Time),303386.8000000715,012_o_f_h_a.png,O,m,949,18,1,1958.3000000715256,301428.5,7781,VNB,C,17
0,test,2,0.0,1-Back,,,Thu Mar 19 2026 14:52:06 GMT-0500 (Central Daylight Time),303386.8000000715,025_y_m_n_a.png,O,space,2005,1,1,1958.3000000715256,301428.5,7781,VNB,C,0
1,test,2,0.0,1-Back,1.0,m,Thu Mar 19 2026 14:52:06 GMT-0500 (Central Daylight Time),309250.60000002384,022_y_f_h_a.png,O,m,807,2,1,1823.2000000476837,307427.39999997616,7781,VNB,C,1
2,test,2,1.0,1-Back,1.0,m,Thu Mar 19 2026 14:52:06 GMT-0500 (Central Daylight Time),311166.10000002384,015_o_m_n_a.png,O,m,893,3,1,1909.2999999523163,309256.8000000715,7781,VNB,C,2
3,test,2,0.0,1-Back,1.0,m,Thu Mar 19 2026 14:52:06 GMT-0500 (Central Daylight Time),313031.0,019_m_f_d_a.png,O,m,840,4,1,1854.6000000238419,311176.39999997616,7781,VNB,C,3
3,test,2,0.0,1-Back,0.0,z,Thu Mar 19 2026 14:52:06 GMT-0500 (Central Daylight Time),315181.7000000477,014_m_m_d_a.png,O,m,1127,5,1,2148.899999976158,313032.8000000715,7781,VNB,C,4
4,test,2,0.0,1-Back,1.0,m,Thu Mar 19 2026 14:52:06 GMT-0500 (Central Daylight Time),317048.5,025_y_m_h_a.png,O,m,835,6,1,1856.6000000238419,315191.89999997616,7781,VNB,C,5
5,test,2,1.0,1-Back,1.0,z,Thu Mar 19 2026 14:52:06 GMT-0500 (Central Daylight Time),319098.5,012_o_f_h_a.png,O,z,1033,7,1,2045.8999999761581,317052.60000002384,7781,VNB,C,6
6,test,2,0.0,1-Back,1.0,m,Thu Mar 19 2026 14:52:06 GMT-0500 (Central Daylight Time),320995.89999997616,019_m_f_n_a.png,O,m,880,8,1,1890.5,319105.39999997616,7781,VNB,C,7
7,test,2,0.0,1-Back,1.0,m,Thu Mar 19 2026 14:52:06 GMT-0500 (Central Daylight Time),323029.7000000477,022_y_f_d_a.png,O,m,1006,9,1,2029.3999999761581,321000.3000000715,7781,VNB,C,8
8,test,2,0.0,1-Back,1.0,m,Thu Mar 19 2026 14:52:06 GMT-0500 (Central Daylight Time),325110.39999997616,014_m_m_n_a.png,O,m,1048,10,1,2071.0999999046326,323039.3000000715,7781,VNB,C,9
9,test,2,1.0,1-Back,1.0,m,Thu Mar 19 2026 14:52:06 GMT-0500 (Central Daylight Time),326995.3000000715,019_m_f_h_a.png,O,m,858,11,1,1882.6000000238419,325112.7000000477,7781,VNB,C,10
10,test,2,0.0,1-Back,1.0,z,Thu Mar 19 2026 14:52:06 GMT-0500 (Central Daylight Time),329395.39999997616,015_o_m_h_a.png,O,z,1381,12,1,2389.0,327006.39999997616,7781,VNB,C,11
11,test,2,0.0,1-Back,1.0,m,Thu Mar 19 2026 14:52:06 GMT-0500 (Central Daylight Time),331277.3000000715,025_y_m_d_a.png,O,m,849,13,1,1877.2000000476837,329400.10000002384,7781,VNB,C,12
12,test,2,0.0,1-Back,1.0,m,Thu Mar 19 2026 14:52:06 GMT-0500 (Central Daylight Time),333476.39999997616,012_o_f_n_a.png,O,m,1172,14,1,2191.399999976158,331285.0,7781,VNB,C,13
13,test,2,0.0,1-Back,1.0,z,Thu Mar 19 2026 14:52:06 GMT-0500 (Central Daylight Time),335826.39999997616,022_y_f_n_a.png,O,z,1333,15,1,2346.5999999046326,333479.8000000715,7781,VNB,C,14
14,test,2,1.0,1-Back,1.0,m,Thu Mar 19 2026 14:52:06 GMT-0500 (Central Daylight Time),337724.5,014_m_m_h_a.png,O,m,869,16,1,1891.0,335833.5,7781,VNB,C,15
15,test,2,0.0,1-Back,1.0,m,Thu Mar 19 2026 14:52:06 GMT-0500 (Central Daylight Time),340123.89999997616,012_o_f_d_a.png,O,m,1372,17,1,2396.5999999046326,337727.3000000715,7781,VNB,C,16
16,test,2,1.0,1-Back,1.0,z,Thu Mar 19 2026 14:52:06 GMT-0500 (Central Daylight Time),342390.5,015_o_m_d_a.png,O,z,1235,18,1,2258.600000023842,340131.89999997616,7781,VNB,C,17
0,test,3,1.0,1-Back,,,Thu Mar 19 2026 14:52:06 GMT-0500 (Central Daylight Time),342390.5,012_o_f_h_a.png,O,space,2643,1,1,2258.600000023842,340131.89999997616,7781,VNB,C,0
1,test,3,0.0,1-Back,1.0,m,Thu Mar 19 2026 14:52:06 GMT-0500 (Central Daylight Time),348969.2000000477,019_m_f_d_a.png,O,m,804,2,1,1818.7000000476837,347150.5,7781,VNB,C,1
2,test,3,1.0,1-Back,1.0,m,Thu Mar 19 2026 14:52:06 GMT-0500 (Central Daylight Time),351421.2000000477,014_m_m_n_a.png,O,m,1434,3,1,2450.3000000715256,348970.89999997616,7781,VNB,C,2
3,test,3,0.0,1-Back,1.0,z,Thu Mar 19 2026 14:52:06 GMT-0500 (Central Daylight Time),353386.8000000715,012_o_f_n_a.png,O,z,940,4,1,1957.9000000953674,351428.89999997616,7781,VNB,C,3
4,test,3,1.0,1-Back,1.0,m,Thu Mar 19 2026 14:52:06 GMT-0500 (Central Daylight Time),355319.2000000477,015_o_m_d_a.png,O,m,902,5,1,1928.8999999761581,353390.3000000715,7781,VNB,C,4
5,test,3,0.0,1-Back,1.0,m,Thu Mar 19 2026 14:52:06 GMT-0500 (Central Daylight Time),357518.2000000477,022_y_f_h_a.png,O,m,1169,6,1,2187.8000000715256,355330.39999997616,7781,VNB,C,5
6,test,3,0.0,1-Back,1.0,z,Thu Mar 19 2026 14:52:06 GMT-0500 (Central Daylight Time),359568.0,025_y_m_h_a.png,O,z,1028,7,1,2046.8999999761581,357521.10000002384,7781,VNB,C,6
7,test,3,0.0,1-Back,1.0,m,Thu Mar 19 2026 14:52:06 GMT-0500 (Central Daylight Time),361717.10000002384,019_m_f_n_a.png,O,m,1120,8,1,2140.0,359577.10000002384,7781,VNB,C,7
8,test,3,0.0,1-Back,1.0,m,Thu Mar 19 2026 14:52:06 GMT-0500 (Central Daylight Time),363966.3000000715,022_y_f_d_a.png,O,m,1227,9,1,2245.5,361720.8000000715,7781,VNB,C,8
9,test,3,1.0,1-Back,1.0,m,Thu Mar 19 2026 14:52:06 GMT-0500 (Central Daylight Time),366332.3000000715,015_o_m_n_a.png,O,m,1346,10,1,2355.9000000953674,363976.39999997616,7781,VNB,C,9
10,test,3,0.0,1-Back,1.0,m,Thu Mar 19 2026 14:52:06 GMT-0500 (Central Daylight Time),368765.2000000477,014_m_m_h_a.png,O,m,1403,11,1,2430.8000000715256,366334.39999997616,7781,VNB,C,10
11,test,3,0.0,1-Back,1.0,z,Thu Mar 19 2026 14:52:06 GMT-0500 (Central Daylight Time),370698.3000000715,019_m_f_h_a.png,O,z,900,12,1,1926.2000000476837,368772.10000002384,7781,VNB,C,11
12,test,3,1.0,1-Back,1.0,m,Thu Mar 19 2026 14:52:06 GMT-0500 (Central Daylight Time),372981.3000000715,012_o_f_d_a.png,O,m,1266,13,1,2279.7000000476837,370701.60000002384,7781,VNB,C,12
13,test,3,0.0,1-Back,1.0,z,Thu Mar 19 2026 14:52:06 GMT-0500 (Central Daylight Time),375746.5,014_m_m_d_a.png,O,z,1740,14,1,2759.399999976158,372987.10000002384,7781,VNB,C,13
14,test,3,0.0,1-Back,1.0,m,Thu Mar 19 2026 14:52:06 GMT-0500 (Central Daylight Time),377895.7000000477,025_y_m_n_a.png,O,m,1118,15,1,2146.5,375749.2000000477,7781,VNB,C,14
15,test,3,1.0,1-Back,1.0,m,Thu Mar 19 2026 14:52:06 GMT-0500 (Central Daylight Time),380079.2000000477,015_o_m_h_a.png,O,m,1154,16,1,2174.8000000715256,377904.39999997616,7781,VNB,C,15
16,test,3,0.0,1-Back,1.0,m,Thu Mar 19 2026 14:52:06 GMT-0500 (Central Daylight Time),382159.5,025_y_m_d_a.png,O,m,1057,17,1,2076.399999976158,380083.10000002384,7781,VNB,C,16
16,test,3,1.0,1-Back,0.0,m,Thu Mar 19 2026 14:52:06 GMT-0500 (Central Daylight Time),384493.8000000715,022_y_f_n_a.png,O,z,1312,18,1,2331.2000000476837,382162.60000002384,7781,VNB,C,17
0,test,4,1.0,1-Back,,,Thu Mar 19 2026 14:52:06 GMT-0500 (Central Daylight Time),384493.8000000715,014_m_m_d_a.png,O,space,1675,1,1,2331.2000000476837,382162.60000002384,7781,VNB,C,0
0,test,4,0.0,1-Back,0.0,z,Thu Mar 19 2026 14:52:06 GMT-0500 (Central Daylight Time),390524.10000002384,015_o_m_d_a.png,O,m,1299,2,1,2321.7999999523163,388202.3000000715,7781,VNB,C,1
1,test,4,0.0,1-Back,1.0,m,Thu Mar 19 2026 14:52:06 GMT-0500 (Central Daylight Time),392474.2000000477,025_y_m_h_a.png,O,m,926,3,1,1947.0,390527.2000000477,7781,VNB,C,2
2,test,4,0.0,1-Back,1.0,m,Thu Mar 19 2026 14:52:06 GMT-0500 (Central Daylight Time),394690.89999997616,019_m_f_n_a.png,O,m,1184,4,1,2209.5999999046326,392481.3000000715,7781,VNB,C,3
3,test,4,1.0,1-Back,1.0,m,Thu Mar 19 2026 14:52:06 GMT-0500 (Central Daylight Time),396956.0,012_o_f_h_a.png,O,m,1249,5,1,2261.600000023842,394694.39999997616,7781,VNB,C,4
4,test,4,0.0,1-Back,1.0,m,Thu Mar 19 2026 14:52:06 GMT-0500 (Central Daylight Time),399156.0,014_m_m_n_a.png,O,m,1173,6,1,2190.1999999284744,396965.8000000715,7781,VNB,C,5
5,test,4,0.0,1-Back,1.0,m,Thu Mar 19 2026 14:52:06 GMT-0500 (Central Daylight Time),401555.5,025_y_m_d_a.png,O,m,1382,7,1,2396.899999976158,399158.60000002384,7781,VNB,C,6
5,test,4,1.0,1-Back,0.0,z,Thu Mar 19 2026 14:52:06 GMT-0500 (Central Daylight Time),404204.39999997616,022_y_f_d_a.png,O,m,1625,8,1,2639.1999999284744,401565.2000000477,7781,VNB,C,7
6,test,4,0.0,1-Back,1.0,m,Thu Mar 19 2026 14:52:06 GMT-0500 (Central Daylight Time),406885.89999997616,019_m_f_h_a.png,O,m,1654,9,1,2678.5,404207.39999997616,7781,VNB,C,8
7,test,4,0.0,1-Back,1.0,z,Thu Mar 19 2026 14:52:06 GMT-0500 (Central Daylight Time),408769.7000000477,015_o_m_h_a.png,O,z,853,10,1,1874.5,406895.2000000477,7781,VNB,C,9
8,test,4,1.0,1-Back,1.0,m,Thu Mar 19 2026 14:52:06 GMT-0500 (Central Daylight Time),410700.8000000715,012_o_f_n_a.png,O,m,913,11,1,1928.6000000238419,408772.2000000477,7781,VNB,C,10
9,test,4,0.0,1-Back,1.0,m,Thu Mar 19 2026 14:52:06 GMT-0500 (Central Daylight Time),412902.10000002384,019_m_f_d_a.png,O,m,1172,12,1,2190.600000023842,410711.5,7781,VNB,C,11
10,test,4,0.0,1-Back,1.0,m,Thu Mar 19 2026 14:52:06 GMT-0500 (Central Daylight Time),415100.8000000715,022_y_f_n_a.png,O,m,1184,13,1,2196.2000000476837,412904.60000002384,7781,VNB,C,12
11,test,4,0.0,1-Back,1.0,m,Thu Mar 19 2026 14:52:06 GMT-0500 (Central Daylight Time),417633.2000000477,012_o_f_d_a.png,O,m,1507,14,1,2523.5,415109.7000000477,7781,VNB,C,13
12,test,4,0.0,1-Back,1.0,m,Thu Mar 19 2026 14:52:06 GMT-0500 (Central Daylight Time),419648.3000000715,022_y_f_h_a.png,O,m,991,15,1,2011.9000000953674,417636.39999997616,7781,VNB,C,14
13,test,4,1.0,1-Back,1.0,z,Thu Mar 19 2026 14:52:06 GMT-0500 (Central Daylight Time),422180.7000000477,014_m_m_h_a.png,O,z,1512,16,1,2525.8000000715256,419654.89999997616,7781,VNB,C,15
14,test,4,0.0,1-Back,1.0,m,Thu Mar 19 2026 14:52:06 GMT-0500 (Central Daylight Time),424062.3000000715,015_o_m_n_a.png,O,m,858,17,1,1878.8000000715256,422183.5,7781,VNB,C,16
14,test,4,1.0,1-Back,0.0,z,Thu Mar 19 2026 14:52:06 GMT-0500 (Central Daylight Time),426430.5,025_y_m_n_a.png,O,m,1344,18,1,2365.6999999284744,424064.8000000715,7781,VNB,C,17
0,test,5,1.0,1-Back,,,Thu Mar 19 2026 14:52:06 GMT-0500 (Central Daylight Time),426430.5,015_o_m_n_a.png,O,space,2242,1,1,2365.6999999284744,424064.8000000715,7781,VNB,C,0
1,test,5,1.0,1-Back,1.0,m,Thu Mar 19 2026 14:52:06 GMT-0500 (Central Daylight Time),432561.8000000715,012_o_f_h_a.png,O,m,843,2,1,1860.2000000476837,430701.60000002384,7781,VNB,C,1
2,test,5,0.0,1-Back,1.0,m,Thu Mar 19 2026 14:52:06 GMT-0500 (Central Daylight Time),434530.10000002384,025_y_m_d_a.png,O,m,952,3,1,1962.8999999761581,432567.2000000477,7781,VNB,C,2
3,test,5,0.0,1-Back,1.0,z,Thu Mar 19 2026 14:52:06 GMT-0500 (Central Daylight Time),437059.39999997616,015_o_m_d_a.png,O,z,1505,4,1,2522.1999999284744,434537.2000000477,7781,VNB,C,3
4,test,5,0.0,1-Back,1.0,m,Thu Mar 19 2026 14:52:06 GMT-0500 (Central Daylight Time),438843.39999997616,019_m_f_h_a.png,O,m,765,5,1,1779.5,437063.89999997616,7781,VNB,C,4
5,test,5,0.0,1-Back,1.0,m,Thu Mar 19 2026 14:52:06 GMT-0500 (Central Daylight Time),441691.10000002384,022_y_f_n_a.png,O,m,1830,6,1,2841.0,438850.10000002384,7781,VNB,C,5
6,test,5,1.0,1-Back,1.0,z,Thu Mar 19 2026 14:52:06 GMT-0500 (Central Daylight Time),443858.2000000477,012_o_f_n_a.png,O,z,1151,7,1,2163.2000000476837,441695.0,7781,VNB,C,6
7,test,5,0.0,1-Back,1.0,m,Thu Mar 19 2026 14:52:06 GMT-0500 (Central Daylight Time),445839.89999997616,019_m_f_d_a.png,O,m,959,8,1,1976.5,443863.39999997616,7781,VNB,C,7
8,test,5,0.0,1-Back,1.0,m,Thu Mar 19 2026 14:52:06 GMT-0500 (Central Daylight Time),448090.0,025_y_m_h_a.png,O,m,1232,9,1,2245.600000023842,445844.39999997616,7781,VNB,C,8
8,test,5,0.0,1-Back,0.0,m,Thu Mar 19 2026 14:52:06 GMT-0500 (Central Daylight Time),450056.2000000477,022_y_f_d_a.png,O,z,943,10,1,1958.3000000715256,448097.89999997616,7781,VNB,C,9
9,test,5,0.0,1-Back,1.0,m,Thu Mar 19 2026 14:52:06 GMT-0500 (Central Daylight Time),452356.39999997616,014_m_m_n_a.png,O,m,1283,11,1,2298.0,450058.39999997616,7781,VNB,C,10
10,test,5,1.0,1-Back,1.0,z,Thu Mar 19 2026 14:52:06 GMT-0500 (Central Daylight Time),454522.10000002384,019_m_f_n_a.png,O,z,1142,12,1,2156.5,452365.60000002384,7781,VNB,C,11
11,test,5,0.0,1-Back,1.0,m,Thu Mar 19 2026 14:52:06 GMT-0500 (Central Daylight Time),456536.3000000715,015_o_m_h_a.png,O,m,991,13,1,2009.9000000953674,454526.39999997616,7781,VNB,C,12
12,test,5,0.0,1-Back,1.0,z,Thu Mar 19 2026 14:52:06 GMT-0500 (Central Daylight Time),458620.3000000715,014_m_m_h_a.png,O,z,1066,14,1,2074.2000000476837,456546.10000002384,7781,VNB,C,13
13,test,5,1.0,1-Back,1.0,m,Thu Mar 19 2026 14:52:06 GMT-0500 (Central Daylight Time),460452.3000000715,012_o_f_d_a.png,O,m,805,15,1,1827.8000000715256,458624.5,7781,VNB,C,14
13,test,5,0.0,1-Back,0.0,m,Thu Mar 19 2026 14:52:06 GMT-0500 (Central Daylight Time),462785.2000000477,025_y_m_n_a.png,O,z,1308,16,1,2325.899999976158,460459.3000000715,7781,VNB,C,15
14,test,5,0.0,1-Back,1.0,m,Thu Mar 19 2026 14:52:06 GMT-0500 (Central Daylight Time),464917.39999997616,022_y_f_h_a.png,O,m,1110,17,1,2129.399999976158,462788.0,7781,VNB,C,16
15,test,5,0.0,1-Back,1.0,m,Thu Mar 19 2026 14:52:06 GMT-0500 (Central Daylight Time),467484.0,014_m_m_d_a.png,O,m,1541,18,1,2560.600000023842,464923.39999997616,7781,VNB,C,17
0,prac,1,0.0,2-Back,,,Thu Mar 19 2026 14:52:06 GMT-0500 (Central Daylight Time),467484.0,019_m_f_n_a.png,O,space,6105,1,1,2560.600000023842,464923.39999997616,7781,VNB,C,0
0,prac,1,0.0,2-Back,,,Thu Mar 19 2026 14:52:06 GMT-0500 (Central Daylight Time),467484.0,012_o_f_h_a.png,O,space,6105,2,1,2560.600000023842,464923.39999997616,7781,VNB,C,0
1,prac,1,0.0,2-Back,1.0,m,Thu Mar 19 2026 14:52:06 GMT-0500 (Central Daylight Time),658556.5,015_o_m_d_a.png,O,m,1616,3,1,2476.399999976158,656080.1000000238,7781,VNB,C,1
2,prac,1,1.0,2-Back,1.0,z,Thu Mar 19 2026 14:52:06 GMT-0500 (Central Daylight Time),661388.0,014_m_m_h_a.png,O,z,1960,4,1,2813.100000023842,658574.8999999762,7781,VNB,C,2
2,prac,1,0.0,2-Back,0.0,m,Thu Mar 19 2026 14:52:06 GMT-0500 (Central Daylight Time),664253.0,022_y_f_n_a.png,O,None,2006,5,1,2855.6999999284744,661397.3000000715,7781,VNB,C,3
3,prac,1,1.0,2-Back,1.0,z,Thu Mar 19 2026 14:52:06 GMT-0500 (Central Daylight Time),666520.6000000238,015_o_m_h_a.png,O,z,1391,6,1,2262.2999999523163,664258.3000000715,7781,VNB,C,4
3,prac,1,1.0,2-Back,0.0,z,Thu Mar 19 2026 14:52:06 GMT-0500 (Central Daylight Time),669169.0,025_y_m_n_a.png,O,m,1804,7,1,2640.899999976158,666528.1000000238,7781,VNB,C,5
3,prac,1,0.0,2-Back,0.0,m,Thu Mar 19 2026 14:52:06 GMT-0500 (Central Daylight Time),672052.3000000715,019_m_f_d_a.png,O,None,2014,8,1,2869.4000000953674,669182.8999999762,7781,VNB,C,6
3,prac,1,0.0,2-Back,0.0,m,Thu Mar 19 2026 14:52:06 GMT-0500 (Central Daylight Time),674917.3999999762,012_o_f_d_a.png,O,None,2008,9,1,2860.0999999046326,672057.3000000715,7781,VNB,C,7
3,prac,1,0.0,2-Back,0.0,m,Thu Mar 19 2026 14:52:06 GMT-0500 (Central Daylight Time),677200.0,014_m_m_h_a.png,O,z,1487,10,1,2268.6999999284744,674931.3000000715,7781,VNB,C,8
3,prac,1,1.0,2-Back,0.0,z,Thu Mar 19 2026 14:52:06 GMT-0500 (Central Daylight Time),680049.6000000238,022_y_f_d_a.png,O,None,2005,11,1,2842.0,677207.6000000238,7781,VNB,C,9
4,prac,1,0.0,2-Back,1.0,m,Thu Mar 19 2026 14:52:06 GMT-0500 (Central Daylight Time),682730.1000000238,015_o_m_n_a.png,O,m,1755,12,1,2670.600000023842,680059.5,7781,VNB,C,10
0,prac,2,0.0,2-Back,,,Thu Mar 19 2026 14:52:06 GMT-0500 (Central Daylight Time),682730.1000000238,019_m_f_n_a.png,O,a,13918,1,1,2670.600000023842,680059.5,7781,VNB,C,0
0,prac,2,0.0,2-Back,,,Thu Mar 19 2026 14:52:06 GMT-0500 (Central Daylight Time),682730.1000000238,012_o_f_h_a.png,O,a,13918,2,1,2670.600000023842,680059.5,7781,VNB,C,0
1,prac,2,0.0,2-Back,1.0,m,Thu Mar 19 2026 14:52:06 GMT-0500 (Central Daylight Time),703860.2000000477,015_o_m_d_a.png,O,m,1113,3,1,1979.1000000238419,701881.1000000238,7781,VNB,C,1
1,prac,2,1.0,2-Back,0.0,z,Thu Mar 19 2026 14:52:06 GMT-0500 (Central Daylight Time),706341.8999999762,014_m_m_h_a.png,O,m,1698,4,1,2471.7999999523163,703870.1000000238,7781,VNB,C,2
1,prac,2,0.0,2-Back,0.0,m,Thu Mar 19 2026 14:52:06 GMT-0500 (Central Daylight Time),708658.0,022_y_f_n_a.png,O,z,1470,5,1,2311.0,706347.0,7781,VNB,C,3
1,prac,2,1.0,2-Back,0.0,z,Thu Mar 19 2026 14:52:06 GMT-0500 (Central Daylight Time),711540.3000000715,015_o_m_h_a.png,O,None,2008,6,1,2866.7000000476837,708673.6000000238,7781,VNB,C,4
1,prac,2,1.0,2-Back,0.0,z,Thu Mar 19 2026 14:52:06 GMT-0500 (Central Daylight Time),713722.5,025_y_m_n_a.png,O,m,1331,7,1,2177.5,711545.0,7781,VNB,C,5
2,prac,2,0.0,2-Back,1.0,m,Thu Mar 19 2026 14:52:06 GMT-0500 (Central Daylight Time),715455.3000000715,019_m_f_d_a.png,O,m,853,8,1,1724.0,713731.3000000715,7781,VNB,C,6
3,prac,2,0.0,2-Back,1.0,m,Thu Mar 19 2026 14:52:06 GMT-0500 (Central Daylight Time),717504.7000000477,012_o_f_d_a.png,O,m,1193,9,1,2045.6000000238419,715459.1000000238,7781,VNB,C,7
4,prac,2,0.0,2-Back,1.0,m,Thu Mar 19 2026 14:52:06 GMT-0500 (Central Daylight Time),719603.1000000238,014_m_m_h_a.png,O,m,1323,10,1,2088.5,717514.6000000238,7781,VNB,C,8
5,prac,2,1.0,2-Back,1.0,z,Thu Mar 19 2026 14:52:06 GMT-0500 (Central Daylight Time),722136.8000000715,022_y_f_d_a.png,O,z,1671,11,1,2529.9000000953674,719606.8999999762,7781,VNB,C,9
6,prac,2,0.0,2-Back,1.0,m,Thu Mar 19 2026 14:52:06 GMT-0500 (Central Daylight Time),724284.3999999762,015_o_m_n_a.png,O,m,1272,12,1,2134.6999999284744,722149.7000000477,7781,VNB,C,10
0,prac,3,0.0,2-Back,,,Thu Mar 19 2026 14:52:06 GMT-0500 (Central Daylight Time),724284.3999999762,019_m_f_n_a.png,O,a,4740,1,1,2134.6999999284744,722149.7000000477,7781,VNB,C,0
0,prac,3,0.0,2-Back,,,Thu Mar 19 2026 14:52:06 GMT-0500 (Central Daylight Time),724284.3999999762,012_o_f_h_a.png,O,a,4740,2,1,2134.6999999284744,722149.7000000477,7781,VNB,C,0
1,prac,3,0.0,2-Back,1.0,m,Thu Mar 19 2026 14:52:06 GMT-0500 (Central Daylight Time),736331.7000000477,015_o_m_d_a.png,O,m,1224,3,1,2076.7000000476837,734255.0,7781,VNB,C,1
1,prac,3,1.0,2-Back,0.0,z,Thu Mar 19 2026 14:52:06 GMT-0500 (Central Daylight Time),738548.3000000715,014_m_m_h_a.png,O,m,1441,4,1,2208.2000000476837,736340.1000000238,7781,VNB,C,2
1,prac,3,0.0,2-Back,0.0,m,Thu Mar 19 2026 14:52:06 GMT-0500 (Central Daylight Time),741097.8999999762,022_y_f_n_a.png,O,z,1683,5,1,2545.0,738552.8999999762,7781,VNB,C,3
1,prac,3,1.0,2-Back,0.0,z,Thu Mar 19 2026 14:52:06 GMT-0500 (Central Daylight Time),743446.2000000477,015_o_m_h_a.png,O,m,1476,6,1,2336.399999976158,741109.8000000715,7781,VNB,C,4
1,prac,3,1.0,2-Back,0.0,z,Thu Mar 19 2026 14:52:06 GMT-0500 (Central Daylight Time),746295.8999999762,025_y_m_n_a.png,O,None,2010,7,1,2844.6999999284744,743451.2000000477,7781,VNB,C,5
2,prac,3,0.0,2-Back,1.0,m,Thu Mar 19 2026 14:52:06 GMT-0500 (Central Daylight Time),748111.5,019_m_f_d_a.png,O,m,933,8,1,1802.6999999284744,746308.8000000715,7781,VNB,C,6
3,prac,3,0.0,2-Back,1.0,m,Thu Mar 19 2026 14:52:06 GMT-0500 (Central Daylight Time),749961.1000000238,012_o_f_d_a.png,O,m,978,9,1,1843.5,748117.6000000238,7781,VNB,C,7
3,prac,3,0.0,2-Back,0.0,m,Thu Mar 19 2026 14:52:06 GMT-0500 (Central Daylight Time),751760.5,014_m_m_h_a.png,O,z,1002,10,1,1783.0,749977.5,7781,VNB,C,8
3,prac,3,1.0,2-Back,0.0,z,Thu Mar 19 2026 14:52:06 GMT-0500 (Central Daylight Time),754260.7000000477,022_y_f_d_a.png,O,m,1644,11,1,2496.2000000476837,751764.5,7781,VNB,C,9
3,prac,3,0.0,2-Back,0.0,m,Thu Mar 19 2026 14:52:06 GMT-0500 (Central Daylight Time),757142.0,015_o_m_n_a.png,O,None,2015,12,1,2868.1999999284744,754273.8000000715,7781,VNB,C,10
0,test,1,0.0,2-Back,,,Thu Mar 19 2026 14:52:06 GMT-0500 (Central Daylight Time),757142.0,025_y_m_h_a.png,O,space,4150,1,1,2868.1999999284744,754273.8000000715,7781,VNB,C,0
0,test,1,0.0,2-Back,,,Thu Mar 19 2026 14:52:06 GMT-0500 (Central Daylight Time),757142.0,012_o_f_n_a.png,O,space,4150,2,1,2868.1999999284744,754273.8000000715,7781,VNB,C,0
1,test,1,0.0,2-Back,1.0,z,Thu Mar 19 2026 14:52:06 GMT-0500 (Central Daylight Time),775935.7000000477,015_o_m_h_a.png,O,z,1462,3,1,2478.100000023842,773457.6000000238,7781,VNB,C,1
1,test,1,0.0,2-Back,0.0,m,Thu Mar 19 2026 14:52:06 GMT-0500 (Central Daylight Time),778318.2000000477,019_m_f_d_a.png,O,z,1353,4,1,2372.7000000476837,775945.5,7781,VNB,C,2
2,test,1,1.0,2-Back,1.0,m,Thu Mar 19 2026 14:52:06 GMT-0500 (Central Daylight Time),781099.8999999762,025_y_m_n_a.png,O,m,1755,5,1,2778.0,778321.8999999762,7781,VNB,C,3
2,test,1,0.0,2-Back,0.0,z,Thu Mar 19 2026 14:52:06 GMT-0500 (Central Daylight Time),783867.0,022_y_f_d_a.png,O,m,1749,6,1,2759.600000023842,781107.3999999762,7781,VNB,C,4
2,test,1,0.0,2-Back,0.0,m,Thu Mar 19 2026 14:52:06 GMT-0500 (Central Daylight Time),786315.3000000715,014_m_m_h_a.png,O,z,1421,7,1,2444.0,783871.3000000715,7781,VNB,C,5
3,test,1,1.0,2-Back,1.0,m,Thu Mar 19 2026 14:52:06 GMT-0500 (Central Daylight Time),788997.3000000715,022_y_f_n_a.png,O,m,1662,8,1,2671.9000000953674,786325.3999999762,7781,VNB,C,6
4,test,1,0.0,2-Back,1.0,z,Thu Mar 19 2026 14:52:06 GMT-0500 (Central Daylight Time),791229.8000000715,012_o_f_h_a.png,O,z,1202,9,1,2228.8000000715256,789001.0,7781,VNB,C,7
5,test,1,0.0,2-Back,1.0,m,Thu Mar 19 2026 14:52:06 GMT-0500 (Central Daylight Time),793730.2000000477,015_o_m_d_a.png,O,m,1475,10,1,2489.2000000476837,791241.0,7781,VNB,C,8
6,test,1,1.0,2-Back,1.0,m,Thu Mar 19 2026 14:52:06 GMT-0500 (Central Daylight Time),796161.8999999762,014_m_m_d_a.png,O,m,1408,11,1,2428.5,793733.3999999762,7781,VNB,C,9
7,test,1,0.0,2-Back,1.0,m,Thu Mar 19 2026 14:52:06 GMT-0500 (Central Daylight Time),798478.8000000715,019_m_f_n_a.png,O,m,1286,12,1,2305.600000023842,796173.2000000477,7781,VNB,C,10
8,test,1,0.0,2-Back,1.0,m,Thu Mar 19 2026 14:52:06 GMT-0500 (Central Daylight Time),801010.3999999762,022_y_f_h_a.png,O,m,1514,13,1,2526.0999999046326,798484.3000000715,7781,VNB,C,11
9,test,1,0.0,2-Back,1.0,z,Thu Mar 19 2026 14:52:06 GMT-0500 (Central Daylight Time),803826.3999999762,014_m_m_n_a.png,O,z,1792,14,1,2807.0,801019.3999999762,7781,VNB,C,12
10,test,1,0.0,2-Back,1.0,m,Thu Mar 19 2026 14:52:06 GMT-0500 (Central Daylight Time),806077.3000000715,025_y_m_d_a.png,O,m,1221,15,1,2247.8000000715256,803829.5,7781,VNB,C,13
10,test,1,1.0,2-Back,0.0,m,Thu Mar 19 2026 14:52:06 GMT-0500 (Central Daylight Time),808774.8999999762,019_m_f_h_a.png,O,z,1677,16,1,2688.399999976158,806086.5,7781,VNB,C,14
10,test,1,0.0,2-Back,0.0,z,Thu Mar 19 2026 14:52:06 GMT-0500 (Central Daylight Time),811558.1000000238,012_o_f_d_a.png,O,m,1755,17,1,2781.5,808776.6000000238,7781,VNB,C,15
11,test,1,0.0,2-Back,1.0,m,Thu Mar 19 2026 14:52:06 GMT-0500 (Central Daylight Time),814040.5,015_o_m_n_a.png,O,m,1451,18,1,2473.1999999284744,811567.3000000715,7781,VNB,C,16
0,test,2,0.0,2-Back,,,Thu Mar 19 2026 14:52:06 GMT-0500 (Central Daylight Time),814040.5,014_m_m_h_a.png,O,space,2009,1,1,2473.1999999284744,811567.3000000715,7781,VNB,C,0
0,test,2,0.0,2-Back,,,Thu Mar 19 2026 14:52:06 GMT-0500 (Central Daylight Time),814040.5,022_y_f_n_a.png,O,space,2009,2,1,2473.1999999284744,811567.3000000715,7781,VNB,C,0
1,test,2,1.0,2-Back,1.0,z,Thu Mar 19 2026 14:52:06 GMT-0500 (Central Daylight Time),823586.3999999762,012_o_f_h_a.png,O,z,1304,3,1,2327.6999999284744,821258.7000000477,7781,VNB,C,1
2,test,2,0.0,2-Back,1.0,m,Thu Mar 19 2026 14:52:06 GMT-0500 (Central Daylight Time),826136.5,015_o_m_d_a.png,O,m,1525,4,1,2540.899999976158,823595.6000000238,7781,VNB,C,2
2,test,2,0.0,2-Back,0.0,m,Thu Mar 19 2026 14:52:06 GMT-0500 (Central Daylight Time),828853.7000000477,019_m_f_d_a.png,O,z,1690,5,1,2714.600000023842,826139.1000000238,7781,VNB,C,3
3,test,2,0.0,2-Back,1.0,m,Thu Mar 19 2026 14:52:06 GMT-0500 (Central Daylight Time),831667.2000000477,025_y_m_h_a.png,O,m,1798,6,1,2805.5,828861.7000000477,7781,VNB,C,4
4,test,2,0.0,2-Back,1.0,m,Thu Mar 19 2026 14:52:06 GMT-0500 (Central Daylight Time),834017.6000000238,012_o_f_n_a.png,O,m,1317,7,1,2347.2000000476837,831670.3999999762,7781,VNB,C,5
5,test,2,1.0,2-Back,1.0,z,Thu Mar 19 2026 14:52:06 GMT-0500 (Central Daylight Time),836082.3999999762,015_o_m_h_a.png,O,z,1031,8,1,2055.6999999284744,834026.7000000477,7781,VNB,C,6
6,test,2,0.0,2-Back,1.0,m,Thu Mar 19 2026 14:52:06 GMT-0500 (Central Daylight Time),838548.5,022_y_f_d_a.png,O,m,1447,9,1,2462.100000023842,836086.3999999762,7781,VNB,C,7
6,test,2,0.0,2-Back,0.0,m,Thu Mar 19 2026 14:52:06 GMT-0500 (Central Daylight Time),841163.8000000715,025_y_m_d_a.png,O,z,1596,10,1,2606.3000000715256,838557.5,7781,VNB,C,8
7,test,2,0.0,2-Back,1.0,m,Thu Mar 19 2026 14:52:06 GMT-0500 (Central Daylight Time),843280.6000000238,014_m_m_n_a.png,O,m,1084,11,1,2114.5,841166.1000000238,7781,VNB,C,9
8,test,2,0.0,2-Back,1.0,m,Thu Mar 19 2026 14:52:06 GMT-0500 (Central Daylight Time),845445.3000000715,019_m_f_h_a.png,O,m,1138,12,1,2153.7000000476837,843291.6000000238,7781,VNB,C,10
9,test,2,1.0,2-Back,1.0,z,Thu Mar 19 2026 14:52:06 GMT-0500 (Central Daylight Time),847413.3999999762,015_o_m_n_a.png,O,z,946,13,1,1966.1999999284744,845447.2000000477,7781,VNB,C,11
10,test,2,0.0,2-Back,1.0,m,Thu Mar 19 2026 14:52:06 GMT-0500 (Central Daylight Time),849844.8000000715,012_o_f_d_a.png,O,m,1412,14,1,2425.600000023842,847419.2000000477,7781,VNB,C,12
10,test,2,0.0,2-Back,0.0,m,Thu Mar 19 2026 14:52:06 GMT-0500 (Central Daylight Time),851979.2000000477,022_y_f_h_a.png,O,z,1116,15,1,2132.399999976158,849846.8000000715,7781,VNB,C,13
10,test,2,0.0,2-Back,0.0,z,Thu Mar 19 2026 14:52:06 GMT-0500 (Central Daylight Time),854293.0,014_m_m_d_a.png,O,m,1294,16,1,2306.1999999284744,851986.8000000715,7781,VNB,C,14
11,test,2,0.0,2-Back,1.0,m,Thu Mar 19 2026 14:52:06 GMT-0500 (Central Daylight Time),856825.7000000477,025_y_m_n_a.png,O,m,1513,17,1,2529.899999976158,854295.8000000715,7781,VNB,C,15
11,test,2,1.0,2-Back,0.0,m,Thu Mar 19 2026 14:52:06 GMT-0500 (Central Daylight Time),859525.3999999762,019_m_f_n_a.png,O,z,1669,18,1,2696.0,856829.3999999762,7781,VNB,C,16
0,test,3,1.0,2-Back,,,Thu Mar 19 2026 14:52:06 GMT-0500 (Central Daylight Time),859525.3999999762,015_o_m_n_a.png,O,space,1907,1,1,2696.0,856829.3999999762,7781,VNB,C,0
0,test,3,1.0,2-Back,,,Thu Mar 19 2026 14:52:06 GMT-0500 (Central Daylight Time),859525.3999999762,012_o_f_d_a.png,O,space,1907,2,1,2696.0,856829.3999999762,7781,VNB,C,0
0,test,3,0.0,2-Back,0.0,m,Thu Mar 19 2026 14:52:06 GMT-0500 (Central Daylight Time),869154.7000000477,022_y_f_h_a.png,O,z,1646,3,1,2664.5,866490.2000000477,7781,VNB,C,1
0,test,3,0.0,2-Back,0.0,z,Thu Mar 19 2026 14:52:06 GMT-0500 (Central Daylight Time),871238.8000000715,019_m_f_d_a.png,O,m,1064,4,1,2080.7000000476837,869158.1000000238,7781,VNB,C,2
1,test,3,1.0,2-Back,1.0,m,Thu Mar 19 2026 14:52:06 GMT-0500 (Central Daylight Time),873655.1000000238,025_y_m_n_a.png,O,m,1396,5,1,2413.7000000476837,871241.3999999762,7781,VNB,C,3
1,test,3,0.0,2-Back,0.0,m,Thu Mar 19 2026 14:52:06 GMT-0500 (Central Daylight Time),875372.0,015_o_m_h_a.png,O,z,701,6,1,1706.5,873665.5,7781,VNB,C,4
1,test,3,0.0,2-Back,0.0,z,Thu Mar 19 2026 14:52:06 GMT-0500 (Central Daylight Time),877770.0,022_y_f_n_a.png,O,m,1366,7,1,2395.1999999284744,875374.8000000715,7781,VNB,C,5
2,test,3,1.0,2-Back,1.0,m,Thu Mar 19 2026 14:52:06 GMT-0500 (Central Daylight Time),880001.8000000715,014_m_m_d_a.png,O,m,1207,8,1,2223.7000000476837,877778.1000000238,7781,VNB,C,6
2,test,3,0.0,2-Back,0.0,m,Thu Mar 19 2026 14:52:06 GMT-0500 (Central Daylight Time),882234.7000000477,025_y_m_d_a.png,O,z,1205,9,1,2230.100000023842,880004.6000000238,7781,VNB,C,7
3,test,3,0.0,2-Back,1.0,m,Thu Mar 19 2026 14:52:06 GMT-0500 (Central Daylight Time),884667.3000000715,012_o_f_h_a.png,O,m,1414,10,1,2423.100000023842,882244.2000000477,7781,VNB,C,8
3,test,3,1.0,2-Back,0.0,m,Thu Mar 19 2026 14:52:06 GMT-0500 (Central Daylight Time),887000.2000000477,019_m_f_n_a.png,O,z,1310,11,1,2327.8000000715256,884672.3999999762,7781,VNB,C,9
4,test,3,1.0,2-Back,1.0,z,Thu Mar 19 2026 14:52:06 GMT-0500 (Central Daylight Time),889399.1000000238,014_m_m_h_a.png,O,z,1368,12,1,2390.899999976158,887008.2000000477,7781,VNB,C,10
4,test,3,0.0,2-Back,0.0,m,Thu Mar 19 2026 14:52:06 GMT-0500 (Central Daylight Time),891948.3999999762,022_y_f_d_a.png,O,z,1516,13,1,2546.0999999046326,889402.3000000715,7781,VNB,C,11
4,test,3,0.0,2-Back,0.0,m,Thu Mar 19 2026 14:52:06 GMT-0500 (Central Daylight Time),894448.5,012_o_f_n_a.png,O,z,1469,14,1,2487.5,891961.0,7781,VNB,C,12
5,test,3,0.0,2-Back,1.0,z,Thu Mar 19 2026 14:52:06 GMT-0500 (Central Daylight Time),896830.6000000238,015_o_m_d_a.png,O,z,1352,15,1,2378.2000000476837,894452.3999999762,7781,VNB,C,13
5,test,3,1.0,2-Back,0.0,m,Thu Mar 19 2026 14:52:06 GMT-0500 (Central Daylight Time),899462.3999999762,019_m_f_h_a.png,O,z,1609,16,1,2626.0,896836.3999999762,7781,VNB,C,14
5,test,3,0.0,2-Back,0.0,m,Thu Mar 19 2026 14:52:06 GMT-0500 (Central Daylight Time),901929.1000000238,014_m_m_n_a.png,O,z,1443,17,1,2464.0,899465.1000000238,7781,VNB,C,15
6,test,3,0.0,2-Back,1.0,z,Thu Mar 19 2026 14:52:06 GMT-0500 (Central Daylight Time),904777.3000000715,025_y_m_h_a.png,O,z,1823,18,1,2838.3000000715256,901939.0,7781,VNB,C,16
0,test,4,0.0,2-Back,,,Thu Mar 19 2026 14:52:06 GMT-0500 (Central Daylight Time),904777.3000000715,019_m_f_n_a.png,O,space,3495,1,1,2838.3000000715256,901939.0,7781,VNB,C,0
0,test,4,0.0,2-Back,,,Thu Mar 19 2026 14:52:06 GMT-0500 (Central Daylight Time),904777.3000000715,015_o_m_n_a.png,O,space,3495,2,1,2838.3000000715256,901939.0,7781,VNB,C,0
1,test,4,1.0,2-Back,1.0,m,Thu Mar 19 2026 14:52:06 GMT-0500 (Central Daylight Time),916290.8000000715,025_y_m_h_a.png,O,m,1789,3,1,2807.8000000715256,913483.0,7781,VNB,C,1
1,test,4,1.0,2-Back,0.0,m,Thu Mar 19 2026 14:52:06 GMT-0500 (Central Daylight Time),918441.2000000477,012_o_f_d_a.png,O,z,1121,4,1,2148.7000000476837,916292.5,7781,VNB,C,2
2,test,4,0.0,2-Back,1.0,z,Thu Mar 19 2026 14:52:06 GMT-0500 (Central Daylight Time),920756.0,015_o_m_h_a.png,O,z,1286,5,1,2303.0,918453.0,7781,VNB,C,3
2,test,4,0.0,2-Back,0.0,m,Thu Mar 19 2026 14:52:06 GMT-0500 (Central Daylight Time),923104.8999999762,014_m_m_n_a.png,O,z,1323,6,1,2346.1999999284744,920758.7000000477,7781,VNB,C,4
3,test,4,0.0,2-Back,1.0,m,Thu Mar 19 2026 14:52:06 GMT-0500 (Central Daylight Time),925103.6000000238,019_m_f_d_a.png,O,m,968,7,1,1991.6000000238419,923112.0,7781,VNB,C,5
3,test,4,0.0,2-Back,0.0,z,Thu Mar 19 2026 14:52:06 GMT-0500 (Central Daylight Time),927821.1000000238,022_y_f_n_a.png,O,m,1685,8,1,2714.600000023842,925106.5,7781,VNB,C,6
3,test,4,1.0,2-Back,0.0,m,Thu Mar 19 2026 14:52:06 GMT-0500 (Central Daylight Time),929937.5,012_o_f_h_a.png,O,z,1085,9,1,2105.7999999523163,927831.7000000477,7781,VNB,C,7
4,test,4,0.0,2-Back,1.0,m,Thu Mar 19 2026 14:52:06 GMT-0500 (Central Daylight Time),932402.3000000715,014_m_m_h_a.png,O,m,1440,10,1,2461.2000000476837,929941.1000000238,7781,VNB,C,8
4,test,4,0.0,2-Back,0.0,m,Thu Mar 19 2026 14:52:06 GMT-0500 (Central Daylight Time),934552.3000000715,022_y_f_d_a.png,O,z,1127,11,1,2139.4000000953674,932412.8999999762,7781,VNB,C,9
4,test,4,0.0,2-Back,0.0,m,Thu Mar 19 2026 14:52:06 GMT-0500 (Central Daylight Time),937383.6000000238,025_y_m_n_a.png,O,z,1810,12,1,2829.2999999523163,934554.3000000715,7781,VNB,C,10
5,test,4,0.0,2-Back,1.0,z,Thu Mar 19 2026 14:52:06 GMT-0500 (Central Daylight Time),940000.2000000477,015_o_m_d_a.png,O,z,1584,13,1,2609.399999976158,937390.8000000715,7781,VNB,C,11
6,test,4,1.0,2-Back,1.0,m,Thu Mar 19 2026 14:52:06 GMT-0500 (Central Daylight Time),942199.1000000238,019_m_f_h_a.png,O,m,1168,14,1,2196.2999999523163,940002.8000000715,7781,VNB,C,12
7,test,4,1.0,2-Back,1.0,m,Thu Mar 19 2026 14:52:06 GMT-0500 (Central Daylight Time),944597.8999999762,022_y_f_h_a.png,O,m,1370,15,1,2389.399999976158,942208.5,7781,VNB,C,13
8,test,4,0.0,2-Back,1.0,m,Thu Mar 19 2026 14:52:06 GMT-0500 (Central Daylight Time),947147.5,012_o_f_n_a.png,O,m,1523,16,1,2547.5,944600.0,7781,VNB,C,14
9,test,4,0.0,2-Back,1.0,m,Thu Mar 19 2026 14:52:06 GMT-0500 (Central Daylight Time),949298.8999999762,025_y_m_d_a.png,O,m,1126,17,1,2141.5999999046326,947157.3000000715,7781,VNB,C,15
10,test,4,1.0,2-Back,1.0,m,Thu Mar 19 2026 14:52:06 GMT-0500 (Central Daylight Time),952130.8000000715,014_m_m_d_a.png,O,m,1800,18,1,2829.0,949301.8000000715,7781,VNB,C,16
0,test,5,1.0,2-Back,,,Thu Mar 19 2026 14:52:06 GMT-0500 (Central Daylight Time),952130.8000000715,022_y_f_d_a.png,O,space,3886,1,1,2829.0,949301.8000000715,7781,VNB,C,0
0,test,5,1.0,2-Back,,,Thu Mar 19 2026 14:52:06 GMT-0500 (Central Daylight Time),952130.8000000715,012_o_f_h_a.png,O,space,3886,2,1,2829.0,949301.8000000715,7781,VNB,C,0
1,test,5,1.0,2-Back,1.0,z,Thu Mar 19 2026 14:52:06 GMT-0500 (Central Daylight Time),963725.2000000477,015_o_m_d_a.png,O,z,1460,3,1,2475.2000000476837,961250.0,7781,VNB,C,1
2,test,5,1.0,2-Back,1.0,m,Thu Mar 19 2026 14:52:06 GMT-0500 (Central Daylight Time),966374.3000000715,019_m_f_n_a.png,O,m,1627,4,1,2646.5,963727.8000000715,7781,VNB,C,2
2,test,5,0.0,2-Back,0.0,m,Thu Mar 19 2026 14:52:06 GMT-0500 (Central Daylight Time),969024.2000000477,014_m_m_h_a.png,O,z,1617,5,1,2642.2000000476837,966382.0,7781,VNB,C,3
3,test,5,0.0,2-Back,1.0,z,Thu Mar 19 2026 14:52:06 GMT-0500 (Central Daylight Time),971723.8000000715,022_y_f_n_a.png,O,z,1672,6,1,2696.7000000476837,969027.1000000238,7781,VNB,C,4
3,test,5,0.0,2-Back,0.0,m,Thu Mar 19 2026 14:52:06 GMT-0500 (Central Daylight Time),973938.8000000715,012_o_f_d_a.png,O,z,1191,7,1,2210.5,971728.3000000715,7781,VNB,C,5
4,test,5,0.0,2-Back,1.0,m,Thu Mar 19 2026 14:52:06 GMT-0500 (Central Daylight Time),976139.0,015_o_m_h_a.png,O,m,1174,8,1,2197.5,973941.5,7781,VNB,C,6
5,test,5,1.0,2-Back,1.0,z,Thu Mar 19 2026 14:52:06 GMT-0500 (Central Daylight Time),978953.3999999762,019_m_f_d_a.png,O,z,1789,9,1,2806.6999999284744,976146.7000000477,7781,VNB,C,7
6,test,5,0.0,2-Back,1.0,m,Thu Mar 19 2026 14:52:06 GMT-0500 (Central Daylight Time),981436.6000000238,025_y_m_n_a.png,O,m,1454,10,1,2481.100000023842,978955.5,7781,VNB,C,8
6,test,5,0.0,2-Back,0.0,m,Thu Mar 19 2026 14:52:06 GMT-0500 (Central Daylight Time),984470.0,014_m_m_n_a.png,O,None,2017,11,1,3026.6999999284744,981443.3000000715,7781,VNB,C,9
6,test,5,0.0,2-Back,0.0,m,Thu Mar 19 2026 14:52:06 GMT-0500 (Central Daylight Time),987352.8999999762,022_y_f_h_a.png,O,z,1860,12,1,2880.0,984472.8999999762,7781,VNB,C,10
7,test,5,0.0,2-Back,1.0,m,Thu Mar 19 2026 14:52:06 GMT-0500 (Central Daylight Time),990000.3000000715,025_y_m_d_a.png,O,m,1627,13,1,2642.2000000476837,987358.1000000238,7781,VNB,C,11
7,test,5,1.0,2-Back,0.0,z,Thu Mar 19 2026 14:52:06 GMT-0500 (Central Daylight Time),992734.1000000238,019_m_f_h_a.png,O,m,1700,14,1,2731.2000000476837,990002.8999999762,7781,VNB,C,12
8,test,5,0.0,2-Back,1.0,m,Thu Mar 19 2026 14:52:06 GMT-0500 (Central Daylight Time),995016.6000000238,015_o_m_n_a.png,O,m,1252,15,1,2272.7999999523163,992743.8000000715,7781,VNB,C,13
9,test,5,0.0,2-Back,1.0,m,Thu Mar 19 2026 14:52:06 GMT-0500 (Central Daylight Time),997250.8000000715,014_m_m_d_a.png,O,m,1210,16,1,2231.3000000715256,995019.5,7781,VNB,C,14
10,test,5,0.0,2-Back,1.0,z,Thu Mar 19 2026 14:52:06 GMT-0500 (Central Daylight Time),999797.2000000477,012_o_f_n_a.png,O,z,1529,17,1,2537.899999976158,997259.3000000715,7781,VNB,C,15
11,test,5,1.0,2-Back,1.0,m,Thu Mar 19 2026 14:52:06 GMT-0500 (Central Daylight Time),1002196.3000000715,025_y_m_h_a.png,O,m,1371,18,1,2396.8000000715256,999799.5,7781,VNB,C,16
