acc_sum,block,block_c,change,condition,correct,correct_response,datetime,endtime,face,project,response,response_time,row_sel,session_number,start_end,starttime,subject_id,task,task_vers,trial
0,prac,1,,1-Back,,,Wed Nov 12 2025 14:19:38 GMT-0600 (Central Standard Time),,093_m_f_n_a.png,O,space,7780,1,1,,,7232,NNB,C,0
1,prac,1,0.0,1-Back,1.0,m,Wed Nov 12 2025 14:19:38 GMT-0600 (Central Standard Time),184345.70000004768,098_y_f_n_a.png,O,m,709,2,1,1555.8999999761581,182789.80000007153,7232,NNB,C,1
2,prac,1,1.0,1-Back,1.0,z,Wed Nov 12 2025 14:19:38 GMT-0600 (Central Standard Time),186264.80000007153,098_y_f_n_a.png,O,z,1156,3,1,1913.8999999761581,184350.90000009537,7232,NNB,C,2
3,prac,1,0.0,1-Back,1.0,m,Wed Nov 12 2025 14:19:38 GMT-0600 (Central Standard Time),188110.60000002384,059_o_m_n_a.png,O,m,965,4,1,1837.7999999523163,186272.80000007153,7232,NNB,C,3
4,prac,1,0.0,1-Back,1.0,m,Wed Nov 12 2025 14:19:38 GMT-0600 (Central Standard Time),189893.60000002384,092_m_m_n_a.png,O,m,926,5,1,1777.1000000238419,188116.5,7232,NNB,C,4
5,prac,1,1.0,1-Back,1.0,z,Wed Nov 12 2025 14:19:38 GMT-0600 (Central Standard Time),191310.5,092_m_m_n_a.png,O,z,631,6,1,1411.2999999523163,189899.20000004768,7232,NNB,C,5
6,prac,1,0.0,1-Back,1.0,m,Wed Nov 12 2025 14:19:38 GMT-0600 (Central Standard Time),192926.10000002384,130_o_f_n_a.png,O,m,747,7,1,1608.8999999761581,191317.20000004768,7232,NNB,C,6
7,prac,1,0.0,1-Back,1.0,m,Wed Nov 12 2025 14:19:38 GMT-0600 (Central Standard Time),194926.0,082_m_m_n_a.png,O,m,1153,8,1,1993.6999999284744,192932.30000007153,7232,NNB,C,7
8,prac,1,0.0,1-Back,1.0,m,Wed Nov 12 2025 14:19:38 GMT-0600 (Central Standard Time),196991.80000007153,093_m_f_n_a.png,O,m,1288,9,1,2061.0,194930.80000007153,7232,NNB,C,8
9,prac,1,1.0,1-Back,1.0,z,Wed Nov 12 2025 14:19:38 GMT-0600 (Central Standard Time),198575.40000009537,093_m_f_n_a.png,O,z,804,10,1,1576.6000000238419,196998.80000007153,7232,NNB,C,9
10,prac,1,0.0,1-Back,1.0,m,Wed Nov 12 2025 14:19:38 GMT-0600 (Central Standard Time),200174.0,059_o_m_n_a.png,O,m,821,11,1,1592.5,198581.5,7232,NNB,C,10
10,prac,1,0.0,1-Back,0.0,m,Wed Nov 12 2025 14:19:38 GMT-0600 (Central Standard Time),201756.90000009537,028_y_f_n_a.png,O,z,736,12,1,1575.0,200181.90000009537,7232,NNB,C,11
0,test,1,0.0,1-Back,,,Wed Nov 12 2025 14:19:38 GMT-0600 (Central Standard Time),201756.90000009537,098_y_f_n_a.png,O,space,32833,1,1,1575.0,200181.90000009537,7232,NNB,C,0
1,test,1,0.0,1-Back,1.0,m,Wed Nov 12 2025 14:19:38 GMT-0600 (Central Standard Time),244826.40000009537,006_m_f_n_a.png,O,m,541,2,1,1562.0,243264.40000009537,7232,NNB,C,1
1,test,1,0.0,1-Back,0.0,m,Wed Nov 12 2025 14:19:38 GMT-0600 (Central Standard Time),246460.70000004768,028_y_f_n_a.png,O,z,607,3,1,1631.2999999523163,244829.40000009537,7232,NNB,C,2
2,test,1,1.0,1-Back,1.0,z,Wed Nov 12 2025 14:19:38 GMT-0600 (Central Standard Time),248311.60000002384,028_y_f_n_a.png,O,z,831,4,1,1845.0,246466.60000002384,7232,NNB,C,3
3,test,1,0.0,1-Back,1.0,m,Wed Nov 12 2025 14:19:38 GMT-0600 (Central Standard Time),249775.0,006_m_f_n_a.png,O,m,437,5,1,1459.0,248316.0,7232,NNB,C,4
4,test,1,0.0,1-Back,1.0,m,Wed Nov 12 2025 14:19:38 GMT-0600 (Central Standard Time),251541.90000009537,059_o_m_n_a.png,O,m,747,6,1,1762.8000000715256,249779.10000002384,7232,NNB,C,5
5,test,1,1.0,1-Back,1.0,z,Wed Nov 12 2025 14:19:38 GMT-0600 (Central Standard Time),253190.60000002384,059_o_m_n_a.png,O,z,630,7,1,1645.5,251545.10000002384,7232,NNB,C,6
6,test,1,0.0,1-Back,1.0,m,Wed Nov 12 2025 14:19:38 GMT-0600 (Central Standard Time),254956.0,092_m_m_n_a.png,O,m,748,8,1,1760.5999999046326,253195.40000009537,7232,NNB,C,7
6,test,1,0.0,1-Back,0.0,m,Wed Nov 12 2025 14:19:38 GMT-0600 (Central Standard Time),256572.20000004768,130_o_f_n_a.png,O,z,589,9,1,1610.1000000238419,254962.10000002384,7232,NNB,C,8
7,test,1,0.0,1-Back,1.0,m,Wed Nov 12 2025 14:19:38 GMT-0600 (Central Standard Time),258655.20000004768,092_m_m_n_a.png,O,m,1053,10,1,2078.600000023842,256576.60000002384,7232,NNB,C,9
7,test,1,0.0,1-Back,0.0,m,Wed Nov 12 2025 14:19:38 GMT-0600 (Central Standard Time),260405.10000002384,057_y_m_n_a.png,O,z,731,11,1,1746.0,258659.10000002384,7232,NNB,C,10
8,test,1,1.0,1-Back,1.0,z,Wed Nov 12 2025 14:19:38 GMT-0600 (Central Standard Time),262137.80000007153,057_y_m_n_a.png,O,z,700,12,1,1729.1000000238419,260408.70000004768,7232,NNB,C,11
9,test,1,0.0,1-Back,1.0,m,Wed Nov 12 2025 14:19:38 GMT-0600 (Central Standard Time),264020.10000002384,030_o_f_n_a.png,O,m,855,13,1,1878.8999999761581,262141.20000004768,7232,NNB,C,12
10,test,1,1.0,1-Back,1.0,z,Wed Nov 12 2025 14:19:38 GMT-0600 (Central Standard Time),265702.7000000477,030_o_f_n_a.png,O,z,661,14,1,1679.2000000476837,264023.5,7232,NNB,C,13
11,test,1,0.0,1-Back,1.0,m,Wed Nov 12 2025 14:19:38 GMT-0600 (Central Standard Time),267436.0,031_y_m_n_a.png,O,m,707,15,1,1729.0999999046326,265706.90000009537,7232,NNB,C,14
12,test,1,0.0,1-Back,1.0,m,Wed Nov 12 2025 14:19:38 GMT-0600 (Central Standard Time),269401.90000009537,093_m_f_n_a.png,O,m,942,16,1,1963.3000000715256,267438.60000002384,7232,NNB,C,15
13,test,1,0.0,1-Back,1.0,m,Wed Nov 12 2025 14:19:38 GMT-0600 (Central Standard Time),271069.0,146_o_m_n_a.png,O,m,633,17,1,1663.7999999523163,269405.2000000477,7232,NNB,C,16
14,test,1,0.0,1-Back,1.0,m,Wed Nov 12 2025 14:19:38 GMT-0600 (Central Standard Time),272634.5,093_m_f_n_a.png,O,m,542,18,1,1559.0999999046326,271075.40000009537,7232,NNB,C,17
0,test,2,0.0,1-Back,,,Wed Nov 12 2025 14:19:38 GMT-0600 (Central Standard Time),272634.5,092_m_m_n_a.png,O,space,3456,1,1,1559.0999999046326,271075.40000009537,7232,NNB,C,0
1,test,2,0.0,1-Back,1.0,m,Wed Nov 12 2025 14:19:38 GMT-0600 (Central Standard Time),279815.0,006_m_f_n_a.png,O,m,670,2,1,1695.5999999046326,278119.40000009537,7232,NNB,C,1
2,test,2,1.0,1-Back,1.0,z,Wed Nov 12 2025 14:19:38 GMT-0600 (Central Standard Time),281481.7000000477,006_m_f_n_a.png,O,z,643,3,1,1663.3999999761581,279818.3000000715,7232,NNB,C,2
3,test,2,0.0,1-Back,1.0,m,Wed Nov 12 2025 14:19:38 GMT-0600 (Central Standard Time),282914.0,092_m_m_n_a.png,O,m,400,4,1,1429.5,281484.5,7232,NNB,C,3
4,test,2,0.0,1-Back,1.0,m,Wed Nov 12 2025 14:19:38 GMT-0600 (Central Standard Time),284581.10000002384,057_y_m_n_a.png,O,m,640,5,1,1663.1000000238419,282918.0,7232,NNB,C,4
5,test,2,0.0,1-Back,1.0,m,Wed Nov 12 2025 14:19:38 GMT-0600 (Central Standard Time),286096.7000000477,098_y_f_n_a.png,O,m,493,6,1,1512.2999999523163,284584.40000009537,7232,NNB,C,5
6,test,2,1.0,1-Back,1.0,z,Wed Nov 12 2025 14:19:38 GMT-0600 (Central Standard Time),287579.2000000477,098_y_f_n_a.png,O,z,466,7,1,1478.8999999761581,286100.3000000715,7232,NNB,C,6
7,test,2,0.0,1-Back,1.0,m,Wed Nov 12 2025 14:19:38 GMT-0600 (Central Standard Time),289045.10000002384,057_y_m_n_a.png,O,m,447,8,1,1462.0,287583.10000002384,7232,NNB,C,7
7,test,2,0.0,1-Back,0.0,m,Wed Nov 12 2025 14:19:38 GMT-0600 (Central Standard Time),290712.0,030_o_f_n_a.png,O,z,637,9,1,1663.7999999523163,289048.2000000477,7232,NNB,C,8
8,test,2,0.0,1-Back,1.0,m,Wed Nov 12 2025 14:19:38 GMT-0600 (Central Standard Time),292361.40000009537,082_m_m_n_a.png,O,m,627,10,1,1646.2000000476837,290715.2000000477,7232,NNB,C,9
9,test,2,1.0,1-Back,1.0,z,Wed Nov 12 2025 14:19:38 GMT-0600 (Central Standard Time),294127.5,082_m_m_n_a.png,O,z,738,11,1,1762.1999999284744,292365.3000000715,7232,NNB,C,10
10,test,2,0.0,1-Back,1.0,m,Wed Nov 12 2025 14:19:38 GMT-0600 (Central Standard Time),295776.90000009537,030_o_f_n_a.png,O,m,627,12,1,1645.6000000238419,294131.3000000715,7232,NNB,C,11
11,test,2,0.0,1-Back,1.0,m,Wed Nov 12 2025 14:19:38 GMT-0600 (Central Standard Time),297376.2000000477,130_o_f_n_a.png,O,m,577,13,1,1595.7999999523163,295780.40000009537,7232,NNB,C,12
12,test,2,0.0,1-Back,1.0,m,Wed Nov 12 2025 14:19:38 GMT-0600 (Central Standard Time),298909.7000000477,059_o_m_n_a.png,O,m,514,14,1,1528.7000000476837,297381.0,7232,NNB,C,13
13,test,2,0.0,1-Back,1.0,m,Wed Nov 12 2025 14:19:38 GMT-0600 (Central Standard Time),300508.7000000477,146_o_m_n_a.png,O,m,580,15,1,1595.8999999761581,298912.8000000715,7232,NNB,C,14
14,test,2,1.0,1-Back,1.0,z,Wed Nov 12 2025 14:19:38 GMT-0600 (Central Standard Time),302525.10000002384,146_o_m_n_a.png,O,z,989,16,1,2013.0,300512.10000002384,7232,NNB,C,15
15,test,2,0.0,1-Back,1.0,m,Wed Nov 12 2025 14:19:38 GMT-0600 (Central Standard Time),304095.90000009537,031_y_m_n_a.png,O,m,532,17,1,1567.5,302528.40000009537,7232,NNB,C,16
16,test,2,1.0,1-Back,1.0,z,Wed Nov 12 2025 14:19:38 GMT-0600 (Central Standard Time),305690.2000000477,031_y_m_n_a.png,O,z,567,18,1,1590.6000000238419,304099.60000002384,7232,NNB,C,17
0,test,3,1.0,1-Back,,,Wed Nov 12 2025 14:19:38 GMT-0600 (Central Standard Time),305690.2000000477,028_y_f_n_a.png,O,space,2048,1,1,1590.6000000238419,304099.60000002384,7232,NNB,C,0
1,test,3,0.0,1-Back,1.0,m,Wed Nov 12 2025 14:19:38 GMT-0600 (Central Standard Time),311338.40000009537,146_o_m_n_a.png,O,m,466,1,1,1496.2000000476837,309842.2000000477,7232,NNB,C,1
2,test,3,1.0,1-Back,1.0,z,Wed Nov 12 2025 14:19:38 GMT-0600 (Central Standard Time),313604.2000000477,146_o_m_n_a.png,O,z,1240,1,1,2262.100000023842,311342.10000002384,7232,NNB,C,2
3,test,3,0.0,1-Back,1.0,m,Wed Nov 12 2025 14:19:38 GMT-0600 (Central Standard Time),315304.3000000715,093_m_f_n_a.png,O,m,678,1,1,1696.8000000715256,313607.5,7232,NNB,C,3
4,test,3,1.0,1-Back,1.0,z,Wed Nov 12 2025 14:19:38 GMT-0600 (Central Standard Time),317236.0,093_m_f_n_a.png,O,z,915,1,1,1928.0999999046326,315307.90000009537,7232,NNB,C,4
5,test,3,0.0,1-Back,1.0,m,Wed Nov 12 2025 14:19:38 GMT-0600 (Central Standard Time),318770.3000000715,030_o_f_n_a.png,O,m,501,1,1,1530.0,317240.3000000715,7232,NNB,C,5
6,test,3,0.0,1-Back,1.0,m,Wed Nov 12 2025 14:19:38 GMT-0600 (Central Standard Time),320418.8000000715,057_y_m_n_a.png,O,m,633,1,1,1645.2000000476837,318773.60000002384,7232,NNB,C,6
7,test,3,0.0,1-Back,1.0,m,Wed Nov 12 2025 14:19:38 GMT-0600 (Central Standard Time),322201.90000009537,030_o_f_n_a.png,O,m,759,1,1,1780.2000000476837,320421.7000000477,7232,NNB,C,7
8,test,3,0.0,1-Back,1.0,m,Wed Nov 12 2025 14:19:38 GMT-0600 (Central Standard Time),323768.5,031_y_m_n_a.png,O,m,545,1,1,1562.7999999523163,322205.7000000477,7232,NNB,C,8
9,test,3,1.0,1-Back,1.0,z,Wed Nov 12 2025 14:19:38 GMT-0600 (Central Standard Time),325368.2000000477,031_y_m_n_a.png,O,z,570,1,1,1595.1000000238419,323773.10000002384,7232,NNB,C,9
10,test,3,0.0,1-Back,1.0,m,Wed Nov 12 2025 14:19:38 GMT-0600 (Central Standard Time),326916.8000000715,006_m_f_n_a.png,O,m,523,1,1,1544.7000000476837,325372.10000002384,7232,NNB,C,10
11,test,3,0.0,1-Back,1.0,m,Wed Nov 12 2025 14:19:38 GMT-0600 (Central Standard Time),328433.2000000477,098_y_f_n_a.png,O,m,485,1,1,1512.7999999523163,326920.40000009537,7232,NNB,C,11
12,test,3,1.0,1-Back,1.0,z,Wed Nov 12 2025 14:19:38 GMT-0600 (Central Standard Time),329999.10000002384,098_y_f_n_a.png,O,z,537,1,1,1561.6000000238419,328437.5,7232,NNB,C,12
13,test,3,0.0,1-Back,1.0,m,Wed Nov 12 2025 14:19:38 GMT-0600 (Central Standard Time),331515.7000000477,006_m_f_n_a.png,O,m,498,1,1,1512.5,330003.2000000477,7232,NNB,C,13
14,test,3,0.0,1-Back,1.0,m,Wed Nov 12 2025 14:19:38 GMT-0600 (Central Standard Time),333065.3000000715,092_m_m_n_a.png,O,m,519,1,1,1546.3000000715256,331519.0,7232,NNB,C,14
15,test,3,1.0,1-Back,1.0,z,Wed Nov 12 2025 14:19:38 GMT-0600 (Central Standard Time),334714.5,092_m_m_n_a.png,O,z,626,1,1,1645.7999999523163,333068.7000000477,7232,NNB,C,15
16,test,3,0.0,1-Back,1.0,m,Wed Nov 12 2025 14:19:38 GMT-0600 (Central Standard Time),336396.90000009537,130_o_f_n_a.png,O,m,654,1,1,1679.1000000238419,334717.8000000715,7232,NNB,C,16
17,test,3,1.0,1-Back,1.0,z,Wed Nov 12 2025 14:19:38 GMT-0600 (Central Standard Time),338397.60000002384,130_o_f_n_a.png,O,z,974,1,1,1996.1999999284744,336401.40000009537,7232,NNB,C,17
0,test,4,1.0,1-Back,,,Wed Nov 12 2025 14:19:38 GMT-0600 (Central Standard Time),338397.60000002384,093_m_f_n_a.png,O,space,2862,1,1,1996.1999999284744,336401.40000009537,7232,NNB,C,0
1,test,4,0.0,1-Back,1.0,m,Wed Nov 12 2025 14:19:38 GMT-0600 (Central Standard Time),344827.90000009537,146_o_m_n_a.png,O,m,457,2,1,1479.0,343348.90000009537,7232,NNB,C,1
2,test,4,0.0,1-Back,1.0,m,Wed Nov 12 2025 14:19:38 GMT-0600 (Central Standard Time),346411.2000000477,093_m_f_n_a.png,O,m,550,3,1,1580.2999999523163,344830.90000009537,7232,NNB,C,2
3,test,4,0.0,1-Back,1.0,m,Wed Nov 12 2025 14:19:38 GMT-0600 (Central Standard Time),348127.0,030_o_f_n_a.png,O,m,688,4,1,1711.5999999046326,346415.40000009537,7232,NNB,C,3
4,test,4,1.0,1-Back,1.0,z,Wed Nov 12 2025 14:19:38 GMT-0600 (Central Standard Time),349709.90000009537,030_o_f_n_a.png,O,z,555,5,1,1579.2000000476837,348130.7000000477,7232,NNB,C,4
5,test,4,0.0,1-Back,1.0,m,Wed Nov 12 2025 14:19:38 GMT-0600 (Central Standard Time),351292.3000000715,098_y_f_n_a.png,O,m,550,6,1,1579.6000000238419,349712.7000000477,7232,NNB,C,5
6,test,4,0.0,1-Back,1.0,m,Wed Nov 12 2025 14:19:38 GMT-0600 (Central Standard Time),352925.5,057_y_m_n_a.png,O,m,605,7,1,1630.0,351295.5,7232,NNB,C,6
7,test,4,1.0,1-Back,1.0,z,Wed Nov 12 2025 14:19:38 GMT-0600 (Central Standard Time),354442.0,057_y_m_n_a.png,O,z,493,8,1,1513.0999999046326,352928.90000009537,7232,NNB,C,7
8,test,4,0.0,1-Back,1.0,m,Wed Nov 12 2025 14:19:38 GMT-0600 (Central Standard Time),356058.60000002384,098_y_f_n_a.png,O,m,600,9,1,1613.6999999284744,354444.90000009537,7232,NNB,C,8
9,test,4,0.0,1-Back,1.0,m,Wed Nov 12 2025 14:19:38 GMT-0600 (Central Standard Time),357840.2000000477,082_m_m_n_a.png,O,m,753,10,1,1777.7999999523163,356062.40000009537,7232,NNB,C,9
10,test,4,1.0,1-Back,1.0,z,Wed Nov 12 2025 14:19:38 GMT-0600 (Central Standard Time),359722.7000000477,082_m_m_n_a.png,O,z,850,11,1,1879.7999999523163,357842.90000009537,7232,NNB,C,10
11,test,4,0.0,1-Back,1.0,m,Wed Nov 12 2025 14:19:38 GMT-0600 (Central Standard Time),361355.10000002384,130_o_f_n_a.png,O,m,606,12,1,1628.8999999761581,359726.2000000477,7232,NNB,C,11
12,test,4,0.0,1-Back,1.0,m,Wed Nov 12 2025 14:19:38 GMT-0600 (Central Standard Time),362988.8000000715,059_o_m_n_a.png,O,m,614,13,1,1628.7000000476837,361360.10000002384,7232,NNB,C,12
13,test,4,0.0,1-Back,1.0,m,Wed Nov 12 2025 14:19:38 GMT-0600 (Central Standard Time),364921.2000000477,130_o_f_n_a.png,O,m,900,14,1,1928.8999999761581,362992.3000000715,7232,NNB,C,13
14,test,4,0.0,1-Back,1.0,m,Wed Nov 12 2025 14:19:38 GMT-0600 (Central Standard Time),366621.7000000477,028_y_f_n_a.png,O,m,672,15,1,1697.2999999523163,364924.40000009537,7232,NNB,C,14
15,test,4,1.0,1-Back,1.0,z,Wed Nov 12 2025 14:19:38 GMT-0600 (Central Standard Time),368236.8000000715,028_y_f_n_a.png,O,z,589,16,1,1611.8999999761581,366624.90000009537,7232,NNB,C,15
16,test,4,0.0,1-Back,1.0,m,Wed Nov 12 2025 14:19:38 GMT-0600 (Central Standard Time),369853.40000009537,006_m_f_n_a.png,O,m,599,17,1,1613.4000000953674,368240.0,7232,NNB,C,16
17,test,4,1.0,1-Back,1.0,z,Wed Nov 12 2025 14:19:38 GMT-0600 (Central Standard Time),371552.10000002384,006_m_f_n_a.png,O,z,677,18,1,1695.5,369856.60000002384,7232,NNB,C,17
0,test,5,1.0,1-Back,,,Wed Nov 12 2025 14:19:38 GMT-0600 (Central Standard Time),371552.10000002384,059_o_m_n_a.png,O,space,2545,1,1,1695.5,369856.60000002384,7232,NNB,C,0
1,test,5,1.0,1-Back,1.0,z,Wed Nov 12 2025 14:19:38 GMT-0600 (Central Standard Time),377834.0,059_o_m_n_a.png,O,z,684,2,1,1708.0999999046326,376125.90000009537,7232,NNB,C,1
2,test,5,0.0,1-Back,1.0,m,Wed Nov 12 2025 14:19:38 GMT-0600 (Central Standard Time),379467.0,098_y_f_n_a.png,O,m,616,3,1,1625.0,377842.0,7232,NNB,C,2
3,test,5,0.0,1-Back,1.0,m,Wed Nov 12 2025 14:19:38 GMT-0600 (Central Standard Time),381032.8000000715,057_y_m_n_a.png,O,m,534,4,1,1562.8999999761581,379469.90000009537,7232,NNB,C,3
4,test,5,0.0,1-Back,1.0,m,Wed Nov 12 2025 14:19:38 GMT-0600 (Central Standard Time),382616.3000000715,098_y_f_n_a.png,O,m,561,5,1,1579.3999999761581,381036.90000009537,7232,NNB,C,4
5,test,5,0.0,1-Back,1.0,m,Wed Nov 12 2025 14:19:38 GMT-0600 (Central Standard Time),384232.3000000715,092_m_m_n_a.png,O,m,594,6,1,1612.8000000715256,382619.5,7232,NNB,C,5
6,test,5,1.0,1-Back,1.0,z,Wed Nov 12 2025 14:19:38 GMT-0600 (Central Standard Time),385883.3000000715,092_m_m_n_a.png,O,z,618,7,1,1647.8999999761581,384235.40000009537,7232,NNB,C,6
7,test,5,0.0,1-Back,1.0,m,Wed Nov 12 2025 14:19:38 GMT-0600 (Central Standard Time),387565.10000002384,028_y_f_n_a.png,O,m,666,8,1,1677.3999999761581,385887.7000000477,7232,NNB,C,7
8,test,5,0.0,1-Back,1.0,m,Wed Nov 12 2025 14:19:38 GMT-0600 (Central Standard Time),389165.5,031_y_m_n_a.png,O,m,574,9,1,1596.5999999046326,387568.90000009537,7232,NNB,C,8
9,test,5,0.0,1-Back,1.0,m,Wed Nov 12 2025 14:19:38 GMT-0600 (Central Standard Time),390763.3000000715,028_y_f_n_a.png,O,m,566,10,1,1594.6000000238419,389168.7000000477,7232,NNB,C,9
10,test,5,0.0,1-Back,1.0,m,Wed Nov 12 2025 14:19:38 GMT-0600 (Central Standard Time),392380.0,130_o_f_n_a.png,O,m,591,11,1,1613.5,390766.5,7232,NNB,C,10
11,test,5,1.0,1-Back,1.0,z,Wed Nov 12 2025 14:19:38 GMT-0600 (Central Standard Time),394029.7000000477,130_o_f_n_a.png,O,z,623,12,1,1646.8999999761581,392382.8000000715,7232,NNB,C,11
12,test,5,0.0,1-Back,1.0,m,Wed Nov 12 2025 14:19:38 GMT-0600 (Central Standard Time),395661.3000000715,146_o_m_n_a.png,O,m,605,13,1,1628.8000000715256,394032.5,7232,NNB,C,12
13,test,5,0.0,1-Back,1.0,m,Wed Nov 12 2025 14:19:38 GMT-0600 (Central Standard Time),397211.40000009537,093_m_f_n_a.png,O,m,532,14,1,1546.9000000953674,395664.5,7232,NNB,C,13
14,test,5,1.0,1-Back,1.0,z,Wed Nov 12 2025 14:19:38 GMT-0600 (Central Standard Time),398827.7000000477,093_m_f_n_a.png,O,z,591,15,1,1612.6000000238419,397215.10000002384,7232,NNB,C,14
15,test,5,0.0,1-Back,1.0,m,Wed Nov 12 2025 14:19:38 GMT-0600 (Central Standard Time),400427.0,146_o_m_n_a.png,O,m,575,16,1,1596.0,398831.0,7232,NNB,C,15
16,test,5,0.0,1-Back,1.0,m,Wed Nov 12 2025 14:19:38 GMT-0600 (Central Standard Time),402242.90000009537,006_m_f_n_a.png,O,m,800,17,1,1812.9000000953674,400430.0,7232,NNB,C,16
17,test,5,0.0,1-Back,1.0,m,Wed Nov 12 2025 14:19:38 GMT-0600 (Central Standard Time),403860.40000009537,082_m_m_n_a.png,O,m,599,18,1,1614.7000000476837,402245.7000000477,7232,NNB,C,17
0,prac,1,0.0,2-Back,,,Wed Nov 12 2025 14:19:38 GMT-0600 (Central Standard Time),403860.40000009537,031_y_m_n_a.png,O,space,5898,1,1,1614.7000000476837,402245.7000000477,7232,NNB,C,0
0,prac,1,0.0,2-Back,,,Wed Nov 12 2025 14:19:38 GMT-0600 (Central Standard Time),403860.40000009537,006_m_f_n_a.png,O,space,5898,2,1,1614.7000000476837,402245.7000000477,7232,NNB,C,0
1,prac,1,1.0,2-Back,1.0,m,Wed Nov 12 2025 14:19:38 GMT-0600 (Central Standard Time),541399.8000000715,146_o_m_n_a.png,O,m,1254,3,1,2126.899999976158,539272.9000000954,7232,NNB,C,1
2,prac,1,0.0,2-Back,1.0,m,Wed Nov 12 2025 14:19:38 GMT-0600 (Central Standard Time),543315.5,130_o_f_n_a.png,O,m,1061,4,1,1908.0999999046326,541407.4000000954,7232,NNB,C,2
3,prac,1,0.0,2-Back,1.0,z,Wed Nov 12 2025 14:19:38 GMT-0600 (Central Standard Time),545564.8000000715,146_o_m_n_a.png,O,z,1489,5,1,2243.2000000476837,543321.6000000238,7232,NNB,C,3
4,prac,1,1.0,2-Back,1.0,z,Wed Nov 12 2025 14:19:38 GMT-0600 (Central Standard Time),548013.2000000477,130_o_f_n_a.png,O,z,1671,6,1,2441.7999999523163,545571.4000000954,7232,NNB,C,4
5,prac,1,0.0,2-Back,1.0,m,Wed Nov 12 2025 14:19:38 GMT-0600 (Central Standard Time),549962.6000000238,082_m_m_n_a.png,O,m,1099,7,1,1943.1999999284744,548019.4000000954,7232,NNB,C,5
6,prac,1,0.0,2-Back,1.0,m,Wed Nov 12 2025 14:19:38 GMT-0600 (Central Standard Time),551962.5,059_o_m_n_a.png,O,m,1147,8,1,1993.0999999046326,549969.4000000954,7232,NNB,C,6
7,prac,1,0.0,2-Back,1.0,m,Wed Nov 12 2025 14:19:38 GMT-0600 (Central Standard Time),553944.9000000954,028_y_f_n_a.png,O,m,1126,9,1,1977.8000000715256,551967.1000000238,7232,NNB,C,7
8,prac,1,1.0,2-Back,1.0,z,Wed Nov 12 2025 14:19:38 GMT-0600 (Central Standard Time),555544.4000000954,059_o_m_n_a.png,O,z,811,10,1,1593.0,553951.4000000954,7232,NNB,C,8
9,prac,1,0.0,2-Back,1.0,m,Wed Nov 12 2025 14:19:38 GMT-0600 (Central Standard Time),557244.1000000238,098_y_f_n_a.png,O,m,851,11,1,1693.5,555550.6000000238,7232,NNB,C,9
9,prac,1,0.0,2-Back,0.0,m,Wed Nov 12 2025 14:19:38 GMT-0600 (Central Standard Time),560026.3000000715,082_m_m_n_a.png,O,None,2010,12,1,2776.600000023842,557249.7000000477,7232,NNB,C,10
0,test,1,0.0,2-Back,,,Wed Nov 12 2025 14:19:38 GMT-0600 (Central Standard Time),560026.3000000715,057_y_m_n_a.png,O,space,6440,1,1,2776.600000023842,557249.7000000477,7232,NNB,C,0
0,test,1,0.0,2-Back,,,Wed Nov 12 2025 14:19:38 GMT-0600 (Central Standard Time),560026.3000000715,057_y_m_n_a.png,O,space,6440,2,1,2776.600000023842,557249.7000000477,7232,NNB,C,0
1,test,1,0.0,2-Back,1.0,m,Wed Nov 12 2025 14:19:38 GMT-0600 (Central Standard Time),581552.5,130_o_f_n_a.png,O,m,853,3,1,1878.5,579674.0,7232,NNB,C,1
2,test,1,0.0,2-Back,1.0,m,Wed Nov 12 2025 14:19:38 GMT-0600 (Central Standard Time),583419.4000000954,092_m_m_n_a.png,O,m,842,4,1,1863.8000000715256,581555.6000000238,7232,NNB,C,2
3,test,1,1.0,2-Back,1.0,z,Wed Nov 12 2025 14:19:38 GMT-0600 (Central Standard Time),585501.4000000954,130_o_f_n_a.png,O,z,1056,5,1,2079.3000000715256,583422.1000000238,7232,NNB,C,3
4,test,1,0.0,2-Back,1.0,m,Wed Nov 12 2025 14:19:38 GMT-0600 (Central Standard Time),587318.9000000954,098_y_f_n_a.png,O,m,788,6,1,1814.6000000238419,585504.3000000715,7232,NNB,C,4
4,test,1,0.0,2-Back,0.0,m,Wed Nov 12 2025 14:19:38 GMT-0600 (Central Standard Time),589266.6000000238,092_m_m_n_a.png,O,z,924,7,1,1944.1000000238419,587322.5,7232,NNB,C,5
5,test,1,1.0,2-Back,1.0,z,Wed Nov 12 2025 14:19:38 GMT-0600 (Central Standard Time),591867.0,098_y_f_n_a.png,O,z,1583,8,1,2597.0999999046326,589269.9000000954,7232,NNB,C,6
6,test,1,0.0,2-Back,1.0,m,Wed Nov 12 2025 14:19:38 GMT-0600 (Central Standard Time),594165.1000000238,031_y_m_n_a.png,O,m,1271,9,1,2294.899999976158,591870.2000000477,7232,NNB,C,7
7,test,1,0.0,2-Back,1.0,m,Wed Nov 12 2025 14:19:38 GMT-0600 (Central Standard Time),596364.1000000238,030_o_f_n_a.png,O,m,1181,10,1,2195.600000023842,594168.5,7232,NNB,C,8
8,test,1,1.0,2-Back,1.0,z,Wed Nov 12 2025 14:19:38 GMT-0600 (Central Standard Time),598680.4000000954,031_y_m_n_a.png,O,z,1286,11,1,2313.5,596366.9000000954,7232,NNB,C,9
9,test,1,0.0,2-Back,1.0,m,Wed Nov 12 2025 14:19:38 GMT-0600 (Central Standard Time),600529.9000000954,006_m_f_n_a.png,O,m,817,12,1,1845.8000000715256,598684.1000000238,7232,NNB,C,10
10,test,1,0.0,2-Back,1.0,m,Wed Nov 12 2025 14:19:38 GMT-0600 (Central Standard Time),603362.9000000954,006_m_f_n_a.png,O,m,1801,13,1,2830.3000000715256,600532.6000000238,7232,NNB,C,11
11,test,1,0.0,2-Back,1.0,m,Wed Nov 12 2025 14:19:38 GMT-0600 (Central Standard Time),606060.7000000477,146_o_m_n_a.png,O,m,1671,14,1,2694.2000000476837,603366.5,7232,NNB,C,12
12,test,1,0.0,2-Back,1.0,m,Wed Nov 12 2025 14:19:38 GMT-0600 (Central Standard Time),608078.0,030_o_f_n_a.png,O,m,988,15,1,2012.0999999046326,606065.9000000954,7232,NNB,C,13
13,test,1,1.0,2-Back,1.0,z,Wed Nov 12 2025 14:19:38 GMT-0600 (Central Standard Time),609876.6000000238,146_o_m_n_a.png,O,z,772,16,1,1794.8999999761581,608081.7000000477,7232,NNB,C,14
14,test,1,0.0,2-Back,1.0,m,Wed Nov 12 2025 14:19:38 GMT-0600 (Central Standard Time),611759.4000000954,093_m_f_n_a.png,O,m,854,17,1,1879.5,609879.9000000954,7232,NNB,C,15
15,test,1,0.0,2-Back,1.0,m,Wed Nov 12 2025 14:19:38 GMT-0600 (Central Standard Time),613891.8000000715,082_m_m_n_a.png,O,m,1115,18,1,2128.3000000715256,611763.5,7232,NNB,C,16
0,test,2,0.0,2-Back,,,Wed Nov 12 2025 14:19:38 GMT-0600 (Central Standard Time),613891.8000000715,082_m_m_n_a.png,O,space,2791,1,1,2128.3000000715256,611763.5,7232,NNB,C,0
0,test,2,0.0,2-Back,,,Wed Nov 12 2025 14:19:38 GMT-0600 (Central Standard Time),613891.8000000715,028_y_f_n_a.png,O,space,2791,2,1,2128.3000000715256,611763.5,7232,NNB,C,0
1,test,2,1.0,2-Back,1.0,z,Wed Nov 12 2025 14:19:38 GMT-0600 (Central Standard Time),623722.5,082_m_m_n_a.png,O,z,890,3,1,1912.2999999523163,621810.2000000477,7232,NNB,C,1
2,test,2,0.0,2-Back,1.0,m,Wed Nov 12 2025 14:19:38 GMT-0600 (Central Standard Time),625404.9000000954,093_m_f_n_a.png,O,m,656,4,1,1679.6000000238419,623725.3000000715,7232,NNB,C,2
2,test,2,0.0,2-Back,0.0,m,Wed Nov 12 2025 14:19:38 GMT-0600 (Central Standard Time),627954.3000000715,028_y_f_n_a.png,O,z,1516,5,1,2545.899999976158,625408.4000000954,7232,NNB,C,3
3,test,2,0.0,2-Back,1.0,m,Wed Nov 12 2025 14:19:38 GMT-0600 (Central Standard Time),629704.3000000715,146_o_m_n_a.png,O,m,727,6,1,1747.0,627957.3000000715,7232,NNB,C,4
3,test,2,0.0,2-Back,0.0,m,Wed Nov 12 2025 14:19:38 GMT-0600 (Central Standard Time),632019.8000000715,098_y_f_n_a.png,O,z,1290,7,1,2310.8000000715256,629709.0,7232,NNB,C,5
3,test,2,1.0,2-Back,0.0,z,Wed Nov 12 2025 14:19:38 GMT-0600 (Central Standard Time),635052.4000000954,146_o_m_n_a.png,O,None,2015,8,1,3029.100000023842,632023.3000000715,7232,NNB,C,6
4,test,2,0.0,2-Back,1.0,m,Wed Nov 12 2025 14:19:38 GMT-0600 (Central Standard Time),636952.8000000715,031_y_m_n_a.png,O,m,872,9,1,1896.7000000476837,635056.1000000238,7232,NNB,C,7
5,test,2,0.0,2-Back,1.0,m,Wed Nov 12 2025 14:19:38 GMT-0600 (Central Standard Time),638784.2000000477,031_y_m_n_a.png,O,m,802,10,1,1827.2999999523163,636956.9000000954,7232,NNB,C,8
6,test,2,0.0,2-Back,1.0,m,Wed Nov 12 2025 14:19:38 GMT-0600 (Central Standard Time),640817.3000000715,006_m_f_n_a.png,O,m,1001,11,1,2029.5,638787.8000000715,7232,NNB,C,9
6,test,2,0.0,2-Back,0.0,m,Wed Nov 12 2025 14:19:38 GMT-0600 (Central Standard Time),643033.1000000238,028_y_f_n_a.png,O,z,1184,12,1,2212.100000023842,640821.0,7232,NNB,C,10
6,test,2,1.0,2-Back,0.0,z,Wed Nov 12 2025 14:19:38 GMT-0600 (Central Standard Time),645249.0,006_m_f_n_a.png,O,m,1185,13,1,2212.6999999284744,643036.3000000715,7232,NNB,C,11
7,test,2,0.0,2-Back,1.0,m,Wed Nov 12 2025 14:19:38 GMT-0600 (Central Standard Time),647232.6000000238,059_o_m_n_a.png,O,m,953,14,1,1980.1999999284744,645252.4000000954,7232,NNB,C,12
7,test,2,0.0,2-Back,0.0,m,Wed Nov 12 2025 14:19:38 GMT-0600 (Central Standard Time),649347.6000000238,059_o_m_n_a.png,O,z,1084,15,1,2111.5,647236.1000000238,7232,NNB,C,13
8,test,2,0.0,2-Back,1.0,m,Wed Nov 12 2025 14:19:38 GMT-0600 (Central Standard Time),651264.0,030_o_f_n_a.png,O,m,894,16,1,1913.2999999523163,649350.7000000477,7232,NNB,C,14
9,test,2,0.0,2-Back,1.0,m,Wed Nov 12 2025 14:19:38 GMT-0600 (Central Standard Time),653163.5,092_m_m_n_a.png,O,m,866,17,1,1896.0999999046326,651267.4000000954,7232,NNB,C,15
10,test,2,1.0,2-Back,1.0,z,Wed Nov 12 2025 14:19:38 GMT-0600 (Central Standard Time),654929.6000000238,030_o_f_n_a.png,O,z,735,18,1,1762.8999999761581,653166.7000000477,7232,NNB,C,16
0,test,3,1.0,2-Back,,,Wed Nov 12 2025 14:19:38 GMT-0600 (Central Standard Time),654929.6000000238,057_y_m_n_a.png,O,space,2353,1,1,1762.8999999761581,653166.7000000477,7232,NNB,C,0
0,test,3,1.0,2-Back,,,Wed Nov 12 2025 14:19:38 GMT-0600 (Central Standard Time),654929.6000000238,057_y_m_n_a.png,O,space,2353,2,1,1762.8999999761581,653166.7000000477,7232,NNB,C,0
1,test,3,0.0,2-Back,1.0,m,Wed Nov 12 2025 14:19:38 GMT-0600 (Central Standard Time),664210.2000000477,030_o_f_n_a.png,O,m,743,3,1,1762.7999999523163,662447.4000000954,7232,NNB,C,1
1,test,3,0.0,2-Back,0.0,m,Wed Nov 12 2025 14:19:38 GMT-0600 (Central Standard Time),666359.4000000954,082_m_m_n_a.png,O,z,1128,4,1,2146.0,664213.4000000954,7232,NNB,C,2
1,test,3,1.0,2-Back,0.0,z,Wed Nov 12 2025 14:19:38 GMT-0600 (Central Standard Time),668358.0,030_o_f_n_a.png,O,m,971,5,1,1993.8999999761581,666364.1000000238,7232,NNB,C,3
2,test,3,0.0,2-Back,1.0,m,Wed Nov 12 2025 14:19:38 GMT-0600 (Central Standard Time),670157.4000000954,031_y_m_n_a.png,O,m,780,6,1,1796.4000000953674,668361.0,7232,NNB,C,4
2,test,3,0.0,2-Back,0.0,m,Wed Nov 12 2025 14:19:38 GMT-0600 (Central Standard Time),671973.7000000477,082_m_m_n_a.png,O,z,788,7,1,1813.1000000238419,670160.6000000238,7232,NNB,C,5
3,test,3,1.0,2-Back,1.0,z,Wed Nov 12 2025 14:19:38 GMT-0600 (Central Standard Time),674771.9000000954,031_y_m_n_a.png,O,z,1781,8,1,2794.600000023842,671977.3000000715,7232,NNB,C,6
4,test,3,0.0,2-Back,1.0,m,Wed Nov 12 2025 14:19:38 GMT-0600 (Central Standard Time),677688.0,028_y_f_n_a.png,O,m,1894,9,1,2913.0,674775.0,7232,NNB,C,7
5,test,3,0.0,2-Back,1.0,m,Wed Nov 12 2025 14:19:38 GMT-0600 (Central Standard Time),679605.6000000238,092_m_m_n_a.png,O,m,890,10,1,1913.8999999761581,677691.7000000477,7232,NNB,C,8
6,test,3,1.0,2-Back,1.0,z,Wed Nov 12 2025 14:19:38 GMT-0600 (Central Standard Time),681587.7000000477,028_y_f_n_a.png,O,z,951,11,1,1977.7000000476837,679610.0,7232,NNB,C,9
7,test,3,1.0,2-Back,1.0,z,Wed Nov 12 2025 14:19:38 GMT-0600 (Central Standard Time),684020.9000000954,092_m_m_n_a.png,O,z,1408,12,1,2430.3000000715256,681590.6000000238,7232,NNB,C,10
8,test,3,0.0,2-Back,1.0,m,Wed Nov 12 2025 14:19:38 GMT-0600 (Central Standard Time),685753.2000000477,030_o_f_n_a.png,O,m,709,13,1,1729.3999999761581,684023.8000000715,7232,NNB,C,11
9,test,3,0.0,2-Back,1.0,m,Wed Nov 12 2025 14:19:38 GMT-0600 (Central Standard Time),687552.3000000715,093_m_f_n_a.png,O,m,770,14,1,1795.3000000715256,685757.0,7232,NNB,C,12
10,test,3,0.0,2-Back,1.0,m,Wed Nov 12 2025 14:19:38 GMT-0600 (Central Standard Time),689418.3000000715,146_o_m_n_a.png,O,m,834,15,1,1861.5,687556.8000000715,7232,NNB,C,13
11,test,3,1.0,2-Back,1.0,z,Wed Nov 12 2025 14:19:38 GMT-0600 (Central Standard Time),691184.7000000477,093_m_f_n_a.png,O,z,736,16,1,1763.2999999523163,689421.4000000954,7232,NNB,C,14
12,test,3,0.0,2-Back,1.0,m,Wed Nov 12 2025 14:19:38 GMT-0600 (Central Standard Time),692920.2000000477,130_o_f_n_a.png,O,m,705,17,1,1731.0,691189.2000000477,7232,NNB,C,15
13,test,3,0.0,2-Back,1.0,m,Wed Nov 12 2025 14:19:38 GMT-0600 (Central Standard Time),694700.3000000715,130_o_f_n_a.png,O,m,765,18,1,1775.6000000238419,692924.7000000477,7232,NNB,C,16
0,test,4,0.0,2-Back,,,Wed Nov 12 2025 14:19:38 GMT-0600 (Central Standard Time),694700.3000000715,059_o_m_n_a.png,O,space,2390,1,1,1775.6000000238419,692924.7000000477,7232,NNB,C,0
0,test,4,0.0,2-Back,,,Wed Nov 12 2025 14:19:38 GMT-0600 (Central Standard Time),694700.3000000715,098_y_f_n_a.png,O,space,2390,2,1,1775.6000000238419,692924.7000000477,7232,NNB,C,0
0,test,4,1.0,2-Back,0.0,z,Wed Nov 12 2025 14:19:38 GMT-0600 (Central Standard Time),703713.7000000477,059_o_m_n_a.png,O,m,409,3,1,1429.6000000238419,702284.1000000238,7232,NNB,C,1
1,test,4,1.0,2-Back,1.0,z,Wed Nov 12 2025 14:19:38 GMT-0600 (Central Standard Time),706112.9000000954,098_y_f_n_a.png,O,z,1367,4,1,2396.4000000953674,703716.5,7232,NNB,C,2
2,test,4,0.0,2-Back,1.0,m,Wed Nov 12 2025 14:19:38 GMT-0600 (Central Standard Time),707895.5,030_o_f_n_a.png,O,m,761,5,1,1779.1999999284744,706116.3000000715,7232,NNB,C,3
2,test,4,0.0,2-Back,0.0,m,Wed Nov 12 2025 14:19:38 GMT-0600 (Central Standard Time),709745.9000000954,030_o_f_n_a.png,O,z,817,6,1,1847.4000000953674,707898.5,7232,NNB,C,4
3,test,4,0.0,2-Back,1.0,m,Wed Nov 12 2025 14:19:38 GMT-0600 (Central Standard Time),711395.5,006_m_f_n_a.png,O,m,617,7,1,1646.5,709749.0,7232,NNB,C,5
4,test,4,0.0,2-Back,1.0,m,Wed Nov 12 2025 14:19:38 GMT-0600 (Central Standard Time),713210.4000000954,031_y_m_n_a.png,O,m,783,8,1,1811.7000000476837,711398.7000000477,7232,NNB,C,6
5,test,4,1.0,2-Back,1.0,z,Wed Nov 12 2025 14:19:38 GMT-0600 (Central Standard Time),714944.3000000715,006_m_f_n_a.png,O,z,704,9,1,1731.0,713213.3000000715,7232,NNB,C,7
6,test,4,0.0,2-Back,1.0,m,Wed Nov 12 2025 14:19:38 GMT-0600 (Central Standard Time),716643.7000000477,092_m_m_n_a.png,O,m,667,10,1,1695.6000000238419,714948.1000000238,7232,NNB,C,8
6,test,4,0.0,2-Back,0.0,m,Wed Nov 12 2025 14:19:38 GMT-0600 (Central Standard Time),719475.6000000238,031_y_m_n_a.png,O,z,1799,11,1,2828.7999999523163,716646.8000000715,7232,NNB,C,9
7,test,4,0.0,2-Back,1.0,m,Wed Nov 12 2025 14:19:38 GMT-0600 (Central Standard Time),721342.0,130_o_f_n_a.png,O,m,847,12,1,1863.7999999523163,719478.2000000477,7232,NNB,C,10
8,test,4,0.0,2-Back,1.0,m,Wed Nov 12 2025 14:19:38 GMT-0600 (Central Standard Time),723058.0,057_y_m_n_a.png,O,m,684,13,1,1713.1999999284744,721344.8000000715,7232,NNB,C,11
9,test,4,1.0,2-Back,1.0,z,Wed Nov 12 2025 14:19:38 GMT-0600 (Central Standard Time),725091.1000000238,130_o_f_n_a.png,O,z,1000,14,1,2029.6999999284744,723061.4000000954,7232,NNB,C,12
9,test,4,1.0,2-Back,0.0,z,Wed Nov 12 2025 14:19:38 GMT-0600 (Central Standard Time),727406.2000000477,057_y_m_n_a.png,O,m,1296,15,1,2311.7000000476837,725094.5,7232,NNB,C,13
10,test,4,0.0,2-Back,1.0,m,Wed Nov 12 2025 14:19:38 GMT-0600 (Central Standard Time),729105.5,082_m_m_n_a.png,O,m,676,16,1,1696.0,727409.5,7232,NNB,C,14
11,test,4,0.0,2-Back,1.0,m,Wed Nov 12 2025 14:19:38 GMT-0600 (Central Standard Time),731171.6000000238,093_m_f_n_a.png,O,m,1049,17,1,2062.6999999284744,729108.9000000954,7232,NNB,C,15
12,test,4,1.0,2-Back,1.0,z,Wed Nov 12 2025 14:19:38 GMT-0600 (Central Standard Time),733387.7000000477,082_m_m_n_a.png,O,z,1182,18,1,2212.7999999523163,731174.9000000954,7232,NNB,C,16
0,test,5,1.0,2-Back,,,Wed Nov 12 2025 14:19:38 GMT-0600 (Central Standard Time),733387.7000000477,057_y_m_n_a.png,O,space,1375,1,1,2212.7999999523163,731174.9000000954,7232,NNB,C,0
0,test,5,1.0,2-Back,,,Wed Nov 12 2025 14:19:38 GMT-0600 (Central Standard Time),733387.7000000477,093_m_f_n_a.png,O,space,1375,2,1,2212.7999999523163,731174.9000000954,7232,NNB,C,0
1,test,5,1.0,2-Back,1.0,z,Wed Nov 12 2025 14:19:38 GMT-0600 (Central Standard Time),741602.3000000715,057_y_m_n_a.png,O,z,752,3,1,1779.7000000476837,739822.6000000238,7232,NNB,C,1
2,test,5,1.0,2-Back,1.0,z,Wed Nov 12 2025 14:19:38 GMT-0600 (Central Standard Time),743534.4000000954,093_m_f_n_a.png,O,z,913,4,1,1928.8000000715256,741605.6000000238,7232,NNB,C,2
3,test,5,0.0,2-Back,1.0,m,Wed Nov 12 2025 14:19:38 GMT-0600 (Central Standard Time),745200.6000000238,130_o_f_n_a.png,O,m,644,5,1,1663.0,743537.6000000238,7232,NNB,C,3
3,test,5,0.0,2-Back,0.0,m,Wed Nov 12 2025 14:19:38 GMT-0600 (Central Standard Time),747067.0,057_y_m_n_a.png,O,z,832,6,1,1863.1999999284744,745203.8000000715,7232,NNB,C,4
4,test,5,0.0,2-Back,1.0,m,Wed Nov 12 2025 14:19:38 GMT-0600 (Central Standard Time),749018.0,028_y_f_n_a.png,O,m,920,7,1,1948.1999999284744,747069.8000000715,7232,NNB,C,5
4,test,5,0.0,2-Back,0.0,m,Wed Nov 12 2025 14:19:38 GMT-0600 (Central Standard Time),750731.4000000954,130_o_f_n_a.png,O,z,698,8,1,1710.0,749021.4000000954,7232,NNB,C,6
5,test,5,1.0,2-Back,1.0,z,Wed Nov 12 2025 14:19:38 GMT-0600 (Central Standard Time),752898.1000000238,028_y_f_n_a.png,O,z,1134,9,1,2163.6999999284744,750734.4000000954,7232,NNB,C,7
6,test,5,0.0,2-Back,1.0,m,Wed Nov 12 2025 14:19:38 GMT-0600 (Central Standard Time),754380.8000000715,146_o_m_n_a.png,O,m,463,10,1,1479.8000000715256,752901.0,7232,NNB,C,8
7,test,5,0.0,2-Back,1.0,m,Wed Nov 12 2025 14:19:38 GMT-0600 (Central Standard Time),756080.2000000477,006_m_f_n_a.png,O,m,669,11,1,1696.2999999523163,754383.9000000954,7232,NNB,C,9
7,test,5,0.0,2-Back,0.0,m,Wed Nov 12 2025 14:19:38 GMT-0600 (Central Standard Time),757947.1000000238,092_m_m_n_a.png,O,z,842,12,1,1864.2999999523163,756082.8000000715,7232,NNB,C,10
7,test,5,0.0,2-Back,0.0,m,Wed Nov 12 2025 14:19:38 GMT-0600 (Central Standard Time),759912.5,146_o_m_n_a.png,O,z,944,13,1,1962.6999999284744,757949.8000000715,7232,NNB,C,11
8,test,5,1.0,2-Back,1.0,z,Wed Nov 12 2025 14:19:38 GMT-0600 (Central Standard Time),761762.8000000715,092_m_m_n_a.png,O,z,834,14,1,1847.3999999761581,759915.4000000954,7232,NNB,C,12
9,test,5,0.0,2-Back,1.0,m,Wed Nov 12 2025 14:19:38 GMT-0600 (Central Standard Time),763477.4000000954,098_y_f_n_a.png,O,m,688,15,1,1711.8000000715256,761765.6000000238,7232,NNB,C,13
10,test,5,0.0,2-Back,1.0,m,Wed Nov 12 2025 14:19:38 GMT-0600 (Central Standard Time),765143.8000000715,059_o_m_n_a.png,O,m,644,16,1,1663.3999999761581,763480.4000000954,7232,NNB,C,14
10,test,5,0.0,2-Back,0.0,m,Wed Nov 12 2025 14:19:38 GMT-0600 (Central Standard Time),767010.4000000954,006_m_f_n_a.png,O,z,833,17,1,1863.7000000476837,765146.7000000477,7232,NNB,C,15
11,test,5,1.0,2-Back,1.0,z,Wed Nov 12 2025 14:19:38 GMT-0600 (Central Standard Time),769110.3000000715,059_o_m_n_a.png,O,z,1073,18,1,2096.899999976158,767013.4000000954,7232,NNB,C,16
