Number,acc_sum,block,block_c,block_cond,con_img,correct,correct_response,datetime,endtime,jitter,project,response,response_time,row_sel,session_number,start_end,starttime,subject_id,task,task_vers,trial
8,0,prac,1,A,circle.png,0,m,Thu Oct 09 2025 10:00:40 GMT-0500 (Central Daylight Time),79349.69999992847,1600,O,None,1516,7,1,3893.100000023842,75456.59999990463,7701,NTS,A,1
1,1,prac,1,A,circle.png,1,z,Thu Oct 09 2025 10:00:40 GMT-0500 (Central Daylight Time),82169.39999997616,1000,O,z,1025,1,1,2812.7000000476837,79356.69999992847,7701,NTS,A,2
3,2,prac,1,A,circle.png,1,z,Thu Oct 09 2025 10:00:40 GMT-0500 (Central Daylight Time),84882.89999997616,1200,O,z,727,3,1,2707.399999976158,82175.5,7701,NTS,A,3
9,3,prac,1,A,circle.png,1,m,Thu Oct 09 2025 10:00:40 GMT-0500 (Central Daylight Time),87815.5,1500,O,m,633,8,1,2927.100000023842,84888.39999997616,7701,NTS,A,4
4,4,prac,1,A,circle.png,1,z,Thu Oct 09 2025 10:00:40 GMT-0500 (Central Daylight Time),90646.89999997616,1400,O,z,630,4,1,2824.0,87822.89999997616,7701,NTS,A,5
6,5,prac,1,A,circle.png,1,m,Thu Oct 09 2025 10:00:40 GMT-0500 (Central Daylight Time),94181.19999992847,1900,O,m,853,5,1,3527.399999976158,90653.79999995232,7701,NTS,A,6
7,6,prac,1,A,circle.png,1,m,Thu Oct 09 2025 10:00:40 GMT-0500 (Central Daylight Time),97329.89999997616,1700,O,m,666,6,1,3140.8000000715256,94189.09999990463,7701,NTS,A,7
2,7,prac,1,A,circle.png,1,z,Thu Oct 09 2025 10:00:40 GMT-0500 (Central Daylight Time),100711.69999992847,2000,O,z,601,2,1,3373.2999999523163,97338.39999997616,7701,NTS,A,8
8,8,prac,1,A,circle.png,1,m,Thu Oct 09 2025 10:00:40 GMT-0500 (Central Daylight Time),103828.29999995232,1600,O,m,736,7,1,3110.399999976158,100717.89999997616,7701,NTS,A,9
9,9,prac,1,A,circle.png,1,m,Thu Oct 09 2025 10:00:40 GMT-0500 (Central Daylight Time),106859.29999995232,1500,O,m,736,8,1,3025.7000000476837,103833.59999990463,7701,NTS,A,10
6,10,prac,1,A,circle.png,1,m,Thu Oct 09 2025 10:00:40 GMT-0500 (Central Daylight Time),110458.09999990463,1900,O,m,914,5,1,3592.0999999046326,106866.0,7701,NTS,A,11
7,11,prac,1,A,circle.png,1,m,Thu Oct 09 2025 10:00:40 GMT-0500 (Central Daylight Time),113506.09999990463,1700,O,m,565,6,1,3041.899999976158,110464.19999992847,7701,NTS,A,12
6,1,prac,1,B,triangle.png,1,m,Thu Oct 09 2025 10:00:40 GMT-0500 (Central Daylight Time),140048.09999990463,1000,O,m,1089,5,1,2869.2999999523163,137178.79999995232,7701,NTS,A,1
7,2,prac,1,B,triangle.png,1,z,Thu Oct 09 2025 10:00:40 GMT-0500 (Central Daylight Time),143713.39999997616,2000,O,z,867,6,1,3655.600000023842,140057.79999995232,7701,NTS,A,2
8,2,prac,1,B,triangle.png,0,m,Thu Oct 09 2025 10:00:40 GMT-0500 (Central Daylight Time),147211.79999995232,1200,O,None,1515,7,1,3490.2000000476837,143721.59999990463,7701,NTS,A,3
4,3,prac,1,B,triangle.png,1,m,Thu Oct 09 2025 10:00:40 GMT-0500 (Central Daylight Time),150877.69999992847,1500,O,m,1375,4,1,3657.1999999284744,147220.5,7701,NTS,A,4
8,4,prac,1,B,triangle.png,1,m,Thu Oct 09 2025 10:00:40 GMT-0500 (Central Daylight Time),153610.29999995232,1200,O,m,739,7,1,2728.7000000476837,150881.59999990463,7701,NTS,A,5
6,5,prac,1,B,triangle.png,1,m,Thu Oct 09 2025 10:00:40 GMT-0500 (Central Daylight Time),156108.89999997616,1000,O,m,710,5,1,2492.8000000715256,153616.09999990463,7701,NTS,A,6
3,6,prac,1,B,triangle.png,1,z,Thu Oct 09 2025 10:00:40 GMT-0500 (Central Daylight Time),159359.69999992847,1600,O,z,868,3,1,3247.2999999523163,156112.39999997616,7701,NTS,A,7
2,7,prac,1,B,triangle.png,1,m,Thu Oct 09 2025 10:00:40 GMT-0500 (Central Daylight Time),163009.29999995232,1700,O,m,1167,2,1,3638.600000023842,159370.69999992847,7701,NTS,A,8
1,8,prac,1,B,triangle.png,1,z,Thu Oct 09 2025 10:00:40 GMT-0500 (Central Daylight Time),166722.89999997616,1900,O,z,1022,1,1,3707.899999976158,163015.0,7701,NTS,A,9
9,8,prac,1,B,triangle.png,0,z,Thu Oct 09 2025 10:00:40 GMT-0500 (Central Daylight Time),170356.29999995232,1400,O,m,1439,8,1,3625.5,166730.79999995232,7701,NTS,A,10
1,9,prac,1,B,triangle.png,1,z,Thu Oct 09 2025 10:00:40 GMT-0500 (Central Daylight Time),174054.19999992847,1900,O,z,1006,1,1,3694.2999999523163,170359.89999997616,7701,NTS,A,11
2,10,prac,1,B,triangle.png,1,m,Thu Oct 09 2025 10:00:40 GMT-0500 (Central Daylight Time),177520.0,1700,O,m,972,2,1,3460.8000000715256,174059.19999992847,7701,NTS,A,12
3,0,test,1,A,circle.png,0,z,Thu Oct 09 2025 10:00:40 GMT-0500 (Central Daylight Time),200513.09999990463,1200,O,None,1516,3,1,2730.5,197782.59999990463,7701,NTS,A,1
6,1,test,1,A,circle.png,1,m,Thu Oct 09 2025 10:00:40 GMT-0500 (Central Daylight Time),203445.19999992847,1900,O,m,1002,5,1,2925.7999999523163,200519.39999997616,7701,NTS,A,2
2,2,test,1,A,circle.png,1,z,Thu Oct 09 2025 10:00:40 GMT-0500 (Central Daylight Time),206577.29999995232,2000,O,z,1115,2,1,3128.7000000476837,203448.59999990463,7701,NTS,A,3
7,3,test,1,A,circle.png,1,m,Thu Oct 09 2025 10:00:40 GMT-0500 (Central Daylight Time),209258.79999995232,1700,O,m,955,6,1,2676.5,206582.29999995232,7701,NTS,A,4
1,4,test,1,A,circle.png,1,z,Thu Oct 09 2025 10:00:40 GMT-0500 (Central Daylight Time),210975.39999997616,1000,O,z,684,1,1,1713.3000000715256,209262.09999990463,7701,NTS,A,5
4,5,test,1,A,circle.png,1,z,Thu Oct 09 2025 10:00:40 GMT-0500 (Central Daylight Time),213009.79999995232,1400,O,z,617,4,1,2030.0,210979.79999995232,7701,NTS,A,6
4,6,test,1,A,circle.png,1,z,Thu Oct 09 2025 10:00:40 GMT-0500 (Central Daylight Time),215175.79999995232,1400,O,z,742,4,1,2162.5,213013.29999995232,7701,NTS,A,7
6,7,test,1,A,circle.png,1,m,Thu Oct 09 2025 10:00:40 GMT-0500 (Central Daylight Time),217823.5,1900,O,m,727,5,1,2644.0,215179.5,7701,NTS,A,8
8,8,test,1,A,circle.png,1,m,Thu Oct 09 2025 10:00:40 GMT-0500 (Central Daylight Time),220171.09999990463,1600,O,m,724,7,1,2343.5,217827.59999990463,7701,NTS,A,9
9,9,test,1,A,circle.png,1,m,Thu Oct 09 2025 10:00:40 GMT-0500 (Central Daylight Time),222521.59999990463,1500,O,m,821,8,1,2347.899999976158,220173.69999992847,7701,NTS,A,10
1,10,test,1,A,circle.png,1,z,Thu Oct 09 2025 10:00:40 GMT-0500 (Central Daylight Time),224055.0,1000,O,z,509,1,1,1530.5,222524.5,7701,NTS,A,11
8,11,test,1,A,circle.png,1,m,Thu Oct 09 2025 10:00:40 GMT-0500 (Central Daylight Time),226237.09999990463,1600,O,m,553,7,1,2178.5,224058.59999990463,7701,NTS,A,12
9,12,test,1,A,circle.png,1,m,Thu Oct 09 2025 10:00:40 GMT-0500 (Central Daylight Time),228270.0,1500,O,m,508,8,1,2030.1000000238419,226239.89999997616,7701,NTS,A,13
2,13,test,1,A,circle.png,1,z,Thu Oct 09 2025 10:00:40 GMT-0500 (Central Daylight Time),231002.79999995232,2000,O,z,715,2,1,2730.0,228272.79999995232,7701,NTS,A,14
9,14,test,1,A,circle.png,1,m,Thu Oct 09 2025 10:00:40 GMT-0500 (Central Daylight Time),233107.0,1500,O,m,567,8,1,2100.2000000476837,231006.79999995232,7701,NTS,A,15
7,15,test,1,A,circle.png,1,m,Thu Oct 09 2025 10:00:40 GMT-0500 (Central Daylight Time),235484.39999997616,1700,O,m,653,6,1,2373.600000023842,233110.79999995232,7701,NTS,A,16
7,16,test,1,A,circle.png,1,m,Thu Oct 09 2025 10:00:40 GMT-0500 (Central Daylight Time),237701.0,1700,O,m,485,6,1,2212.8000000715256,235488.19999992847,7701,NTS,A,17
2,17,test,1,A,circle.png,1,z,Thu Oct 09 2025 10:00:40 GMT-0500 (Central Daylight Time),240300.5,2000,O,z,574,2,1,2595.100000023842,237705.39999997616,7701,NTS,A,18
6,18,test,1,A,circle.png,1,m,Thu Oct 09 2025 10:00:40 GMT-0500 (Central Daylight Time),242798.29999995232,1900,O,m,568,5,1,2493.600000023842,240304.69999992847,7701,NTS,A,19
3,19,test,1,A,circle.png,1,z,Thu Oct 09 2025 10:00:40 GMT-0500 (Central Daylight Time),244781.39999997616,1200,O,z,753,3,1,1977.3000000715256,242804.09999990463,7701,NTS,A,20
3,20,test,1,A,circle.png,1,z,Thu Oct 09 2025 10:00:40 GMT-0500 (Central Daylight Time),246533.79999995232,1200,O,z,530,3,1,1746.1000000238419,244787.69999992847,7701,NTS,A,21
8,21,test,1,A,circle.png,1,m,Thu Oct 09 2025 10:00:40 GMT-0500 (Central Daylight Time),248748.0,1600,O,m,597,7,1,2208.0,246540.0,7701,NTS,A,22
8,22,test,1,A,circle.png,1,m,Thu Oct 09 2025 10:00:40 GMT-0500 (Central Daylight Time),250845.89999997616,1600,O,m,469,7,1,2093.3000000715256,248752.59999990463,7701,NTS,A,23
6,23,test,1,A,circle.png,1,m,Thu Oct 09 2025 10:00:40 GMT-0500 (Central Daylight Time),253497.5,1900,O,m,733,5,1,2644.5,250853.0,7701,NTS,A,24
8,1,test,1,B,triangle.png,1,m,Thu Oct 09 2025 10:00:40 GMT-0500 (Central Daylight Time),268539.89999997616,1200,O,m,996,7,1,2208.2000000476837,266331.6999999285,7701,NTS,A,1
9,2,test,1,B,triangle.png,1,z,Thu Oct 09 2025 10:00:40 GMT-0500 (Central Daylight Time),271723.1999999285,1900,O,z,1264,16,1,3177.1999999284744,268546.0,7701,NTS,A,2
2,3,test,1,B,triangle.png,1,m,Thu Oct 09 2025 10:00:40 GMT-0500 (Central Daylight Time),274705.89999997616,1700,O,m,1256,2,1,2976.3000000715256,271729.59999990463,7701,NTS,A,3
4,4,test,1,B,triangle.png,1,m,Thu Oct 09 2025 10:00:40 GMT-0500 (Central Daylight Time),276338.5,1000,O,m,607,12,1,1628.5,274710.0,7701,NTS,A,4
7,5,test,1,B,triangle.png,1,z,Thu Oct 09 2025 10:00:40 GMT-0500 (Central Daylight Time),278670.2999999523,1600,O,z,701,14,1,2327.2000000476837,276343.09999990463,7701,NTS,A,5
3,6,test,1,B,triangle.png,1,z,Thu Oct 09 2025 10:00:40 GMT-0500 (Central Daylight Time),281052.7999999523,1600,O,z,761,3,1,2377.0,278675.7999999523,7701,NTS,A,6
2,7,test,1,B,triangle.png,1,m,Thu Oct 09 2025 10:00:40 GMT-0500 (Central Daylight Time),283154.39999997616,1200,O,m,882,10,1,2098.3000000715256,281056.09999990463,7701,NTS,A,7
4,8,test,1,B,triangle.png,1,m,Thu Oct 09 2025 10:00:40 GMT-0500 (Central Daylight Time),285386.59999990463,1500,O,m,700,4,1,2227.0999999046326,283159.5,7701,NTS,A,8
2,9,test,1,B,triangle.png,1,m,Thu Oct 09 2025 10:00:40 GMT-0500 (Central Daylight Time),287301.0,1200,O,m,695,10,1,1909.7000000476837,285391.2999999523,7701,NTS,A,9
8,10,test,1,B,triangle.png,1,m,Thu Oct 09 2025 10:00:40 GMT-0500 (Central Daylight Time),289733.5,1700,O,m,710,15,1,2429.100000023842,287304.39999997616,7701,NTS,A,10
8,11,test,1,B,triangle.png,1,m,Thu Oct 09 2025 10:00:40 GMT-0500 (Central Daylight Time),292017.39999997616,1700,O,m,549,15,1,2280.399999976158,289737.0,7701,NTS,A,11
1,12,test,1,B,triangle.png,1,z,Thu Oct 09 2025 10:00:40 GMT-0500 (Central Daylight Time),294433.6999999285,1400,O,z,1000,9,1,2412.0,292021.6999999285,7701,NTS,A,12
1,13,test,1,B,triangle.png,1,z,Thu Oct 09 2025 10:00:40 GMT-0500 (Central Daylight Time),296916.1999999285,1900,O,z,567,1,1,2479.1999999284744,294437.0,7701,NTS,A,13
2,14,test,1,B,triangle.png,1,m,Thu Oct 09 2025 10:00:40 GMT-0500 (Central Daylight Time),299716.2999999523,1700,O,m,1082,2,1,2796.100000023842,296920.1999999285,7701,NTS,A,14
3,15,test,1,B,triangle.png,1,z,Thu Oct 09 2025 10:00:40 GMT-0500 (Central Daylight Time),302079.7999999523,1600,O,z,742,3,1,2360.600000023842,299719.1999999285,7701,NTS,A,15
6,16,test,1,B,triangle.png,1,m,Thu Oct 09 2025 10:00:40 GMT-0500 (Central Daylight Time),304594.6999999285,1500,O,m,997,13,1,2511.399999976158,302083.2999999523,7701,NTS,A,16
9,16,test,1,B,triangle.png,0,z,Thu Oct 09 2025 10:00:40 GMT-0500 (Central Daylight Time),307011.0,1400,O,m,997,8,1,2412.7000000476837,304598.2999999523,7701,NTS,A,17
6,17,test,1,B,triangle.png,1,m,Thu Oct 09 2025 10:00:40 GMT-0500 (Central Daylight Time),308727.5,1000,O,m,692,5,1,1713.3000000715256,307014.1999999285,7701,NTS,A,18
4,18,test,1,B,triangle.png,1,m,Thu Oct 09 2025 10:00:40 GMT-0500 (Central Daylight Time),311159.89999997616,1500,O,m,908,4,1,2429.600000023842,308730.2999999523,7701,NTS,A,19
7,19,test,1,B,triangle.png,1,z,Thu Oct 09 2025 10:00:40 GMT-0500 (Central Daylight Time),313993.2999999523,1600,O,z,1215,14,1,2830.7000000476837,311162.59999990463,7701,NTS,A,20
9,19,test,1,B,triangle.png,0,z,Thu Oct 09 2025 10:00:40 GMT-0500 (Central Daylight Time),316792.09999990463,1900,O,m,875,16,1,2795.1999999284744,313996.89999997616,7701,NTS,A,21
6,20,test,1,B,triangle.png,1,m,Thu Oct 09 2025 10:00:40 GMT-0500 (Central Daylight Time),319024.09999990463,1500,O,m,707,13,1,2227.5,316796.59999990463,7701,NTS,A,22
3,21,test,1,B,triangle.png,1,z,Thu Oct 09 2025 10:00:40 GMT-0500 (Central Daylight Time),321824.1999999285,2000,O,z,767,11,1,2797.5,319026.6999999285,7701,NTS,A,23
7,22,test,1,B,triangle.png,1,z,Thu Oct 09 2025 10:00:40 GMT-0500 (Central Daylight Time),324671.6999999285,2000,O,z,823,6,1,2844.5,321827.1999999285,7701,NTS,A,24
9,1,prac,1,C,circle.png,1,m,Thu Oct 09 2025 10:00:40 GMT-0500 (Central Daylight Time),402781.7999999523,1900,O,m,1197,8,1,3890.100000023842,398891.6999999285,7701,NTS,A,1
6,1,prac,1,C,circle.png,0,m,Thu Oct 09 2025 10:00:40 GMT-0500 (Central Daylight Time),407080.1999999285,2000,O,None,1517,5,1,4291.0,402789.1999999285,7701,NTS,A,2
8,1,prac,1,C,triangle.png,0,m,Thu Oct 09 2025 10:00:40 GMT-0500 (Central Daylight Time),410779.09999990463,1400,O,None,1516,7,1,3690.2999999523163,407088.7999999523,7701,NTS,A,3
1,1,prac,1,C,circle.png,0,z,Thu Oct 09 2025 10:00:40 GMT-0500 (Central Daylight Time),414762.09999990463,1700,O,None,1501,1,1,3972.5999999046326,410789.5,7701,NTS,A,4
7,1,prac,1,C,triangle.png,0,z,Thu Oct 09 2025 10:00:40 GMT-0500 (Central Daylight Time),417910.2999999523,1200,O,m,1151,6,1,3142.0,414768.2999999523,7701,NTS,A,5
7,2,prac,1,C,triangle.png,1,z,Thu Oct 09 2025 10:00:40 GMT-0500 (Central Daylight Time),420925.6999999285,1200,O,z,1017,6,1,3006.5,417919.1999999285,7701,NTS,A,6
3,3,prac,1,C,triangle.png,1,z,Thu Oct 09 2025 10:00:40 GMT-0500 (Central Daylight Time),424191.1999999285,1500,O,z,974,3,1,3259.600000023842,420931.59999990463,7701,NTS,A,7
4,3,prac,1,C,circle.png,0,z,Thu Oct 09 2025 10:00:40 GMT-0500 (Central Daylight Time),427475.0,1000,O,None,1516,4,1,3278.4000000953674,424196.59999990463,7701,NTS,A,8
8,3,prac,1,C,triangle.png,0,m,Thu Oct 09 2025 10:00:40 GMT-0500 (Central Daylight Time),431156.2999999523,1400,O,None,1501,7,1,3676.2000000476837,427480.09999990463,7701,NTS,A,9
4,3,prac,1,C,circle.png,0,z,Thu Oct 09 2025 10:00:40 GMT-0500 (Central Daylight Time),434436.6999999285,1000,O,None,1501,4,1,3275.2999999523163,431161.39999997616,7701,NTS,A,10
2,4,prac,1,C,triangle.png,1,m,Thu Oct 09 2025 10:00:40 GMT-0500 (Central Daylight Time),438287.6999999285,1600,O,m,1457,2,1,3846.2999999523163,434441.39999997616,7701,NTS,A,11
6,5,prac,1,C,circle.png,1,m,Thu Oct 09 2025 10:00:40 GMT-0500 (Central Daylight Time),442468.6999999285,2000,O,m,1384,5,1,4175.299999952316,438293.39999997616,7701,NTS,A,12
6,1,prac,2,C,circle.png,1,m,Thu Oct 09 2025 10:00:40 GMT-0500 (Central Daylight Time),462680.0,2000,O,m,1173,5,1,3944.100000023842,458735.89999997616,7701,NTS,A,1
2,1,prac,2,C,triangle.png,0,m,Thu Oct 09 2025 10:00:40 GMT-0500 (Central Daylight Time),465945.89999997616,1600,O,z,898,2,1,3259.5,462686.39999997616,7701,NTS,A,2
1,1,prac,2,C,circle.png,0,z,Thu Oct 09 2025 10:00:40 GMT-0500 (Central Daylight Time),469943.5,1700,O,None,1517,1,1,3990.600000023842,465952.89999997616,7701,NTS,A,3
7,1,prac,2,C,triangle.png,0,z,Thu Oct 09 2025 10:00:40 GMT-0500 (Central Daylight Time),473441.59999990463,1200,O,None,1514,6,1,3492.399999976158,469949.1999999285,7701,NTS,A,4
8,2,prac,2,C,triangle.png,1,m,Thu Oct 09 2025 10:00:40 GMT-0500 (Central Daylight Time),476808.59999990463,1400,O,m,1183,7,1,3363.0999999046326,473445.5,7701,NTS,A,5
8,3,prac,2,C,triangle.png,1,m,Thu Oct 09 2025 10:00:40 GMT-0500 (Central Daylight Time),479740.59999990463,1400,O,m,745,7,1,2926.0999999046326,476814.5,7701,NTS,A,6
9,4,prac,2,C,circle.png,1,m,Thu Oct 09 2025 10:00:40 GMT-0500 (Central Daylight Time),483489.09999990463,1900,O,m,1056,8,1,3742.5,479746.59999990463,7701,NTS,A,7
7,5,prac,2,C,triangle.png,1,z,Thu Oct 09 2025 10:00:40 GMT-0500 (Central Daylight Time),486837.89999997616,1200,O,z,1359,6,1,3343.3000000715256,483494.59999990463,7701,NTS,A,8
2,5,prac,2,C,triangle.png,0,m,Thu Oct 09 2025 10:00:40 GMT-0500 (Central Daylight Time),490487.2999999523,1600,O,z,1266,2,1,3638.899999976158,486848.39999997616,7701,NTS,A,9
4,6,prac,2,C,circle.png,1,z,Thu Oct 09 2025 10:00:40 GMT-0500 (Central Daylight Time),493685.6999999285,1000,O,z,1400,4,1,3189.899999976158,490495.7999999523,7701,NTS,A,10
3,6,prac,2,C,triangle.png,0,z,Thu Oct 09 2025 10:00:40 GMT-0500 (Central Daylight Time),497484.6999999285,1500,O,None,1515,3,1,3790.5,493694.1999999285,7701,NTS,A,11
1,7,prac,2,C,circle.png,1,z,Thu Oct 09 2025 10:00:40 GMT-0500 (Central Daylight Time),501451.6999999285,1700,O,z,1494,1,1,3958.2999999523163,497493.39999997616,7701,NTS,A,12
9,1,test,1,C,circle.png,1,m,Thu Oct 09 2025 10:00:40 GMT-0500 (Central Daylight Time),549068.6999999285,1500,O,m,1217,8,1,2727.100000023842,546341.5999999046,7701,NTS,A,1
4,2,test,1,C,circle.png,1,z,Thu Oct 09 2025 10:00:40 GMT-0500 (Central Daylight Time),551467.2999999523,1400,O,z,972,4,1,2393.399999976158,549073.8999999762,7701,NTS,A,2
8,2,test,1,C,triangle.png,0,m,Thu Oct 09 2025 10:00:40 GMT-0500 (Central Daylight Time),554601.0999999046,1600,O,None,1517,7,1,3130.2999999523163,551470.7999999523,7701,NTS,A,3
4,2,test,1,C,triangle.png,0,m,Thu Oct 09 2025 10:00:40 GMT-0500 (Central Daylight Time),557564.5999999046,1500,O,z,1436,20,1,2958.899999976158,554605.6999999285,7701,NTS,A,4
6,2,test,1,C,triangle.png,0,m,Thu Oct 09 2025 10:00:40 GMT-0500 (Central Daylight Time),559833.3999999762,1000,O,z,1251,13,1,2264.7000000476837,557568.6999999285,7701,NTS,A,5
4,2,test,1,C,triangle.png,0,m,Thu Oct 09 2025 10:00:40 GMT-0500 (Central Daylight Time),562597.5999999046,1500,O,z,1238,12,1,2760.0999999046326,559837.5,7701,NTS,A,6
7,3,test,1,C,circle.png,1,m,Thu Oct 09 2025 10:00:40 GMT-0500 (Central Daylight Time),565979.8999999762,2000,O,m,1365,14,1,3378.8000000715256,562601.0999999046,7701,NTS,A,7
1,3,test,1,C,circle.png,0,z,Thu Oct 09 2025 10:00:40 GMT-0500 (Central Daylight Time),568511.6999999285,1000,O,None,1515,1,1,2526.100000023842,565985.5999999046,7701,NTS,A,8
8,3,test,1,C,triangle.png,0,m,Thu Oct 09 2025 10:00:40 GMT-0500 (Central Daylight Time),571627.5999999046,1600,O,None,1507,23,1,3110.899999976158,568516.6999999285,7701,NTS,A,9
6,3,test,1,C,circle.png,0,m,Thu Oct 09 2025 10:00:40 GMT-0500 (Central Daylight Time),575060.2999999523,1900,O,None,1515,5,1,3427.5,571632.7999999523,7701,NTS,A,10
1,3,test,1,C,triangle.png,0,z,Thu Oct 09 2025 10:00:40 GMT-0500 (Central Daylight Time),578492.5999999046,1900,O,None,1514,17,1,3427.6999999284744,575064.8999999762,7701,NTS,A,11
2,3,test,1,C,triangle.png,0,m,Thu Oct 09 2025 10:00:40 GMT-0500 (Central Daylight Time),582024.0,2000,O,None,1515,2,1,3527.2000000476837,578496.7999999523,7701,NTS,A,12
2,4,test,1,C,circle.png,1,z,Thu Oct 09 2025 10:00:40 GMT-0500 (Central Daylight Time),585123.5,1700,O,z,1373,10,1,3096.8000000715256,582026.6999999285,7701,NTS,A,13
3,5,test,1,C,circle.png,1,z,Thu Oct 09 2025 10:00:40 GMT-0500 (Central Daylight Time),587706.0999999046,1600,O,z,959,19,1,2579.5999999046326,585126.5,7701,NTS,A,14
7,5,test,1,C,triangle.png,0,z,Thu Oct 09 2025 10:00:40 GMT-0500 (Central Daylight Time),590555.6999999285,1700,O,m,1120,22,1,2845.399999976158,587710.2999999523,7701,NTS,A,15
9,5,test,1,C,circle.png,0,m,Thu Oct 09 2025 10:00:40 GMT-0500 (Central Daylight Time),593585.8999999762,1500,O,None,1514,24,1,3024.899999976158,590561.0,7701,NTS,A,16
2,5,test,1,C,circle.png,0,z,Thu Oct 09 2025 10:00:40 GMT-0500 (Central Daylight Time),596653.5999999046,1700,O,m,1346,18,1,3064.0999999046326,593589.5,7701,NTS,A,17
9,5,test,1,C,triangle.png,0,z,Thu Oct 09 2025 10:00:40 GMT-0500 (Central Daylight Time),599585.5,1400,O,None,1514,16,1,2928.7000000476837,596656.7999999523,7701,NTS,A,18
7,6,test,1,C,triangle.png,1,z,Thu Oct 09 2025 10:00:40 GMT-0500 (Central Daylight Time),602517.5,1700,O,z,1211,6,1,2926.0,599591.5,7701,NTS,A,19
8,6,test,1,C,circle.png,0,m,Thu Oct 09 2025 10:00:40 GMT-0500 (Central Daylight Time),605250.8999999762,1200,O,None,1517,15,1,2726.0,602524.8999999762,7701,NTS,A,20
1,7,test,1,C,triangle.png,1,z,Thu Oct 09 2025 10:00:40 GMT-0500 (Central Daylight Time),607915.5999999046,1900,O,z,745,9,1,2658.899999976158,605256.6999999285,7701,NTS,A,21
3,8,test,1,C,circle.png,1,z,Thu Oct 09 2025 10:00:40 GMT-0500 (Central Daylight Time),610749.3999999762,1600,O,z,1212,11,1,2828.5,607920.8999999762,7701,NTS,A,22
6,9,test,1,C,circle.png,1,m,Thu Oct 09 2025 10:00:40 GMT-0500 (Central Daylight Time),613897.5999999046,1900,O,m,1224,21,1,3143.1999999284744,610754.3999999762,7701,NTS,A,23
3,10,test,1,C,triangle.png,1,z,Thu Oct 09 2025 10:00:40 GMT-0500 (Central Daylight Time),616348.0,1200,O,z,1218,3,1,2444.600000023842,613903.3999999762,7701,NTS,A,24
4,0,test,2,C,triangle.png,0,m,Thu Oct 09 2025 10:00:40 GMT-0500 (Central Daylight Time),636324.2999999523,1500,O,None,1515,20,1,3028.7999999523163,633295.5,7701,NTS,A,1
2,1,test,2,C,circle.png,1,z,Thu Oct 09 2025 10:00:40 GMT-0500 (Central Daylight Time),639472.6999999285,1700,O,z,1424,18,1,3144.6999999284744,636328.0,7701,NTS,A,2
3,2,test,2,C,circle.png,1,z,Thu Oct 09 2025 10:00:40 GMT-0500 (Central Daylight Time),641972.2999999523,1600,O,z,879,11,1,2495.100000023842,639477.1999999285,7701,NTS,A,3
7,2,test,2,C,circle.png,0,m,Thu Oct 09 2025 10:00:40 GMT-0500 (Central Daylight Time),645504.5999999046,2000,O,None,1516,22,1,3528.0,641976.5999999046,7701,NTS,A,4
9,2,test,2,C,triangle.png,0,z,Thu Oct 09 2025 10:00:40 GMT-0500 (Central Daylight Time),648119.8999999762,1400,O,m,1182,16,1,2610.399999976158,645509.5,7701,NTS,A,5
1,3,test,2,C,triangle.png,1,z,Thu Oct 09 2025 10:00:40 GMT-0500 (Central Daylight Time),650985.6999999285,1900,O,z,941,9,1,2858.6999999284744,648127.0,7701,NTS,A,6
8,4,test,2,C,circle.png,1,m,Thu Oct 09 2025 10:00:40 GMT-0500 (Central Daylight Time),653368.5999999046,1200,O,m,1157,23,1,2375.0999999046326,650993.5,7701,NTS,A,7
7,4,test,2,C,triangle.png,0,z,Thu Oct 09 2025 10:00:40 GMT-0500 (Central Daylight Time),656601.0999999046,1700,O,None,1516,6,1,3227.2999999523163,653373.7999999523,7701,NTS,A,8
6,4,test,2,C,triangle.png,0,m,Thu Oct 09 2025 10:00:40 GMT-0500 (Central Daylight Time),659134.0,1000,O,None,1516,21,1,2526.3000000715256,656607.6999999285,7701,NTS,A,9
4,4,test,2,C,triangle.png,0,m,Thu Oct 09 2025 10:00:40 GMT-0500 (Central Daylight Time),662149.1999999285,1500,O,None,1501,12,1,3009.6999999284744,659139.5,7701,NTS,A,10
3,5,test,2,C,circle.png,1,z,Thu Oct 09 2025 10:00:40 GMT-0500 (Central Daylight Time),664900.1999999285,1600,O,z,1123,19,1,2745.899999976158,662154.2999999523,7701,NTS,A,11
2,5,test,2,C,triangle.png,0,m,Thu Oct 09 2025 10:00:40 GMT-0500 (Central Daylight Time),668080.7999999523,2000,O,z,1159,2,1,3177.399999976158,664903.3999999762,7701,NTS,A,12
1,6,test,2,C,circle.png,1,z,Thu Oct 09 2025 10:00:40 GMT-0500 (Central Daylight Time),670196.6999999285,1000,O,z,1088,1,1,2110.899999976158,668085.7999999523,7701,NTS,A,13
8,7,test,2,C,triangle.png,1,m,Thu Oct 09 2025 10:00:40 GMT-0500 (Central Daylight Time),673129.2999999523,1600,O,m,1315,7,1,2927.7000000476837,670201.5999999046,7701,NTS,A,14
6,8,test,2,C,circle.png,1,m,Thu Oct 09 2025 10:00:40 GMT-0500 (Central Daylight Time),676177.8999999762,1900,O,m,1115,5,1,3044.899999976158,673133.0,7701,NTS,A,15
8,9,test,2,C,circle.png,1,m,Thu Oct 09 2025 10:00:40 GMT-0500 (Central Daylight Time),678176.5999999046,1200,O,m,766,15,1,1993.1999999284744,676183.3999999762,7701,NTS,A,16
2,10,test,2,C,circle.png,1,z,Thu Oct 09 2025 10:00:40 GMT-0500 (Central Daylight Time),680911.8999999762,1700,O,z,1002,10,1,2730.600000023842,678181.2999999523,7701,NTS,A,17
4,10,test,2,C,circle.png,0,z,Thu Oct 09 2025 10:00:40 GMT-0500 (Central Daylight Time),683491.7999999523,1400,O,m,1164,4,1,2574.399999976158,680917.3999999762,7701,NTS,A,18
9,11,test,2,C,triangle.png,1,z,Thu Oct 09 2025 10:00:40 GMT-0500 (Central Daylight Time),686408.0999999046,1400,O,z,1485,24,1,2912.1999999284744,683495.8999999762,7701,NTS,A,19
7,11,test,2,C,circle.png,0,m,Thu Oct 09 2025 10:00:40 GMT-0500 (Central Daylight Time),689789.5999999046,2000,O,z,1361,14,1,3377.899999976158,686411.6999999285,7701,NTS,A,20
3,11,test,2,C,triangle.png,0,z,Thu Oct 09 2025 10:00:40 GMT-0500 (Central Daylight Time),692522.1999999285,1200,O,None,1515,3,1,2727.0,689795.1999999285,7701,NTS,A,21
6,12,test,2,C,triangle.png,1,m,Thu Oct 09 2025 10:00:40 GMT-0500 (Central Daylight Time),694755.5999999046,1000,O,m,1199,13,1,2227.399999976158,692528.1999999285,7701,NTS,A,22
9,12,test,2,C,circle.png,0,m,Thu Oct 09 2025 10:00:40 GMT-0500 (Central Daylight Time),697771.5,1500,O,z,1499,8,1,3010.3000000715256,694761.1999999285,7701,NTS,A,23
1,13,test,2,C,triangle.png,1,z,Thu Oct 09 2025 10:00:40 GMT-0500 (Central Daylight Time),700886.8999999762,1900,O,z,1187,17,1,3110.899999976158,697776.0,7701,NTS,A,24
3,1,test,3,C,circle.png,1,z,Thu Oct 09 2025 10:00:40 GMT-0500 (Central Daylight Time),714132.6999999285,1600,O,z,996,11,1,2615.1999999284744,711517.5,7701,NTS,A,1
6,2,test,3,C,circle.png,1,m,Thu Oct 09 2025 10:00:40 GMT-0500 (Central Daylight Time),716964.2999999523,1900,O,m,912,5,1,2828.7999999523163,714135.5,7701,NTS,A,2
7,3,test,3,C,triangle.png,1,z,Thu Oct 09 2025 10:00:40 GMT-0500 (Central Daylight Time),720081.5,1700,O,z,1390,22,1,3113.2000000476837,716968.2999999523,7701,NTS,A,3
6,4,test,3,C,triangle.png,1,m,Thu Oct 09 2025 10:00:40 GMT-0500 (Central Daylight Time),722397.0,1000,O,m,1288,13,1,2309.4000000953674,720087.5999999046,7701,NTS,A,4
7,5,test,3,C,triangle.png,1,z,Thu Oct 09 2025 10:00:40 GMT-0500 (Central Daylight Time),724995.2999999523,1700,O,z,882,6,1,2593.0,722402.2999999523,7701,NTS,A,5
9,6,test,3,C,triangle.png,1,z,Thu Oct 09 2025 10:00:40 GMT-0500 (Central Daylight Time),727594.0999999046,1400,O,z,1179,16,1,2593.899999976158,725000.1999999285,7701,NTS,A,6
4,7,test,3,C,triangle.png,1,m,Thu Oct 09 2025 10:00:40 GMT-0500 (Central Daylight Time),730326.6999999285,1500,O,m,1202,12,1,2727.899999976158,727598.7999999523,7701,NTS,A,7
4,8,test,3,C,circle.png,1,z,Thu Oct 09 2025 10:00:40 GMT-0500 (Central Daylight Time),732812.0,1400,O,z,1067,20,1,2480.100000023842,730331.8999999762,7701,NTS,A,8
1,9,test,3,C,circle.png,1,z,Thu Oct 09 2025 10:00:40 GMT-0500 (Central Daylight Time),735013.6999999285,1000,O,z,1182,17,1,2198.0,732815.6999999285,7701,NTS,A,9
6,10,test,3,C,circle.png,1,m,Thu Oct 09 2025 10:00:40 GMT-0500 (Central Daylight Time),737773.6999999285,1900,O,m,844,21,1,2754.600000023842,735019.0999999046,7701,NTS,A,10
9,10,test,3,C,circle.png,0,m,Thu Oct 09 2025 10:00:40 GMT-0500 (Central Daylight Time),740358.6999999285,1500,O,z,1063,8,1,2578.899999976158,737779.7999999523,7701,NTS,A,11
3,10,test,3,C,triangle.png,0,z,Thu Oct 09 2025 10:00:40 GMT-0500 (Central Daylight Time),743091.1999999285,1200,O,None,1515,3,1,2728.399999976158,740362.7999999523,7701,NTS,A,12
2,10,test,3,C,triangle.png,0,m,Thu Oct 09 2025 10:00:40 GMT-0500 (Central Daylight Time),746206.0,2000,O,z,1095,18,1,3111.2000000476837,743094.7999999523,7701,NTS,A,13
7,10,test,3,C,circle.png,0,m,Thu Oct 09 2025 10:00:40 GMT-0500 (Central Daylight Time),749737.5999999046,2000,O,None,1516,14,1,3525.899999976158,746211.6999999285,7701,NTS,A,14
1,11,test,3,C,circle.png,1,z,Thu Oct 09 2025 10:00:40 GMT-0500 (Central Daylight Time),751570.0999999046,1000,O,z,814,1,1,1826.6999999284744,749743.3999999762,7701,NTS,A,15
8,12,test,3,C,circle.png,1,m,Thu Oct 09 2025 10:00:40 GMT-0500 (Central Daylight Time),754086.2999999523,1200,O,m,1296,15,1,2510.7999999523163,751575.5,7701,NTS,A,16
3,13,test,3,C,triangle.png,1,z,Thu Oct 09 2025 10:00:40 GMT-0500 (Central Daylight Time),756219.3999999762,1200,O,z,916,19,1,2128.899999976158,754090.5,7701,NTS,A,17
8,14,test,3,C,triangle.png,1,m,Thu Oct 09 2025 10:00:40 GMT-0500 (Central Daylight Time),759134.8999999762,1600,O,m,1285,23,1,2910.8000000715256,756224.0999999046,7701,NTS,A,18
4,15,test,3,C,circle.png,1,z,Thu Oct 09 2025 10:00:40 GMT-0500 (Central Daylight Time),761818.5999999046,1400,O,z,1258,4,1,2679.5999999046326,759139.0,7701,NTS,A,19
8,15,test,3,C,triangle.png,0,m,Thu Oct 09 2025 10:00:40 GMT-0500 (Central Daylight Time),764950.0999999046,1600,O,None,1516,7,1,3126.5999999046326,761823.5,7701,NTS,A,20
1,16,test,3,C,triangle.png,1,z,Thu Oct 09 2025 10:00:40 GMT-0500 (Central Daylight Time),767866.6999999285,1900,O,z,984,9,1,2908.899999976158,764957.7999999523,7701,NTS,A,21
9,16,test,3,C,circle.png,0,m,Thu Oct 09 2025 10:00:40 GMT-0500 (Central Daylight Time),770514.3999999762,1500,O,z,1132,24,1,2641.600000023842,767872.7999999523,7701,NTS,A,22
2,16,test,3,C,circle.png,0,z,Thu Oct 09 2025 10:00:40 GMT-0500 (Central Daylight Time),773481.5,1700,O,m,1233,10,1,2961.8000000715256,770519.6999999285,7701,NTS,A,23
2,17,test,3,C,triangle.png,1,m,Thu Oct 09 2025 10:00:40 GMT-0500 (Central Daylight Time),776744.6999999285,2000,O,m,1240,2,1,3258.1999999284744,773486.5,7701,NTS,A,24
7,0,test,4,C,circle.png,0,m,Thu Oct 09 2025 10:00:40 GMT-0500 (Central Daylight Time),799692.0999999046,2000,O,z,1484,14,1,3495.5999999046326,796196.5,7701,NTS,A,1
1,1,test,4,C,circle.png,1,z,Thu Oct 09 2025 10:00:40 GMT-0500 (Central Daylight Time),801521.6999999285,1000,O,z,809,1,1,1825.2999999523163,799696.3999999762,7701,NTS,A,2
6,2,test,4,C,triangle.png,1,m,Thu Oct 09 2025 10:00:40 GMT-0500 (Central Daylight Time),803754.2999999523,1000,O,m,1198,13,1,2229.2999999523163,801525.0,7701,NTS,A,3
9,3,test,4,C,circle.png,1,m,Thu Oct 09 2025 10:00:40 GMT-0500 (Central Daylight Time),806519.2999999523,1500,O,m,1232,8,1,2760.100000023842,803759.1999999285,7701,NTS,A,4
9,4,test,4,C,circle.png,1,m,Thu Oct 09 2025 10:00:40 GMT-0500 (Central Daylight Time),808669.2999999523,1500,O,m,621,24,1,2143.899999976158,806525.3999999762,7701,NTS,A,5
3,5,test,4,C,circle.png,1,z,Thu Oct 09 2025 10:00:40 GMT-0500 (Central Daylight Time),811186.6999999285,1600,O,z,900,11,1,2512.399999976158,808674.2999999523,7701,NTS,A,6
6,6,test,4,C,circle.png,1,m,Thu Oct 09 2025 10:00:40 GMT-0500 (Central Daylight Time),814019.2999999523,1900,O,m,899,5,1,2827.100000023842,811192.1999999285,7701,NTS,A,7
3,7,test,4,C,triangle.png,1,z,Thu Oct 09 2025 10:00:40 GMT-0500 (Central Daylight Time),816266.5999999046,1200,O,z,1032,19,1,2241.7999999523163,814024.7999999523,7701,NTS,A,8
2,7,test,4,C,triangle.png,0,m,Thu Oct 09 2025 10:00:40 GMT-0500 (Central Daylight Time),819783.0,2000,O,None,1501,2,1,3512.100000023842,816270.8999999762,7701,NTS,A,9
1,8,test,4,C,triangle.png,1,z,Thu Oct 09 2025 10:00:40 GMT-0500 (Central Daylight Time),822531.3999999762,1900,O,z,822,9,1,2745.3000000715256,819786.0999999046,7701,NTS,A,10
2,8,test,4,C,triangle.png,0,m,Thu Oct 09 2025 10:00:40 GMT-0500 (Central Daylight Time),825697.5999999046,2000,O,z,1150,18,1,3163.6999999284744,822533.8999999762,7701,NTS,A,11
7,8,test,4,C,triangle.png,0,z,Thu Oct 09 2025 10:00:40 GMT-0500 (Central Daylight Time),828580.1999999285,1700,O,m,1166,22,1,2878.600000023842,825701.5999999046,7701,NTS,A,12
4,8,test,4,C,triangle.png,0,m,Thu Oct 09 2025 10:00:40 GMT-0500 (Central Daylight Time),831595.1999999285,1500,O,z,1491,12,1,3009.899999976158,828585.2999999523,7701,NTS,A,13
6,9,test,4,C,circle.png,1,m,Thu Oct 09 2025 10:00:40 GMT-0500 (Central Daylight Time),834810.5,1900,O,m,1288,21,1,3210.9000000953674,831599.5999999046,7701,NTS,A,14
9,9,test,4,C,triangle.png,0,z,Thu Oct 09 2025 10:00:40 GMT-0500 (Central Daylight Time),837743.3999999762,1400,O,None,1515,16,1,2928.3000000715256,834815.0999999046,7701,NTS,A,15
1,10,test,4,C,circle.png,1,z,Thu Oct 09 2025 10:00:40 GMT-0500 (Central Daylight Time),839759.5999999046,1000,O,z,985,17,1,2012.6999999284744,837746.8999999762,7701,NTS,A,16
8,11,test,4,C,triangle.png,1,m,Thu Oct 09 2025 10:00:40 GMT-0500 (Central Daylight Time),842524.5999999046,1600,O,m,1147,23,1,2756.7999999523163,839767.7999999523,7701,NTS,A,17
8,12,test,4,C,circle.png,1,m,Thu Oct 09 2025 10:00:40 GMT-0500 (Central Daylight Time),844923.7999999523,1200,O,m,1171,15,1,2390.600000023842,842533.1999999285,7701,NTS,A,18
3,13,test,4,C,triangle.png,1,z,Thu Oct 09 2025 10:00:40 GMT-0500 (Central Daylight Time),847006.8999999762,1200,O,z,860,3,1,2075.899999976158,844931.0,7701,NTS,A,19
4,13,test,4,C,circle.png,0,z,Thu Oct 09 2025 10:00:40 GMT-0500 (Central Daylight Time),849555.7999999523,1400,O,m,1121,4,1,2540.7999999523163,847015.0,7701,NTS,A,20
2,13,test,4,C,circle.png,0,z,Thu Oct 09 2025 10:00:40 GMT-0500 (Central Daylight Time),852787.5999999046,1700,O,None,1515,10,1,3222.6999999284744,849564.8999999762,7701,NTS,A,21
4,14,test,4,C,circle.png,1,z,Thu Oct 09 2025 10:00:40 GMT-0500 (Central Daylight Time),855338.0999999046,1400,O,z,1116,20,1,2537.1999999284744,852800.8999999762,7701,NTS,A,22
8,15,test,4,C,triangle.png,1,m,Thu Oct 09 2025 10:00:40 GMT-0500 (Central Daylight Time),858203.0,1600,O,m,1238,7,1,2857.3000000715256,855345.6999999285,7701,NTS,A,23
7,15,test,4,C,triangle.png,0,z,Thu Oct 09 2025 10:00:40 GMT-0500 (Central Daylight Time),861236.2999999523,1700,O,m,1306,6,1,3023.899999976158,858212.3999999762,7701,NTS,A,24
