acc_sum,block,block_c,condition,correct,correct_response,datetime,endtime,flanker,jitter,project,response,response_test_buffer_response,response_test_target_response,response_time,response_time_test_buffer_response,response_time_test_target_response,row_sel,session_number,start_end,starttime,subject_id,target,task,task_vers,time_test_buffer,time_test_buffer_response,time_test_constants,time_test_flanker,time_test_jitter,time_test_logger,time_test_target,time_test_target_response,time_test_variables,trial
0,prac,1,con,0,z,Wed May 21 2025 13:27:49 GMT-0500 (Central Daylight Time),143256.69999992847,lime,800,I,None,,,1799,,,5,1,4861.0,138395.69999992847,8032,lime,NF,B,,,,,,,,,,1
1,prac,1,con,1,z,Wed May 21 2025 13:27:49 GMT-0500 (Central Daylight Time),145539.29999995232,banana,800,I,z,,,171,,,1,1,2277.2999999523163,143262.0,8032,banana,NF,B,,,,,,,,,,2
2,prac,1,inc,1,z,Wed May 21 2025 13:27:49 GMT-0500 (Central Daylight Time),148455.09999990463,lead,1100,I,z,,,500,,,8,1,2911.399999976158,145543.69999992847,8032,plum,NF,B,,,,,,,,,,3
3,prac,1,con,1,m,Wed May 21 2025 13:27:49 GMT-0500 (Central Daylight Time),150922.09999990463,bronze,800,I,m,,,365,,,9,1,2462.899999976158,148459.19999992847,8032,bronze,NF,B,,,,,,,,,,4
3,prac,1,inc,0,m,Wed May 21 2025 13:27:49 GMT-0500 (Central Daylight Time),153753.0,plum,1100,I,z,,,423,,,16,1,2826.3000000715256,150926.69999992847,8032,lead,NF,B,,,,,,,,,,5
4,prac,1,inc,1,m,Wed May 21 2025 13:27:49 GMT-0500 (Central Daylight Time),156685.69999992847,raisin,1100,I,m,,,527,,,12,1,2928.0,153757.69999992847,8032,cobalt,NF,B,,,,,,,,,,6
5,prac,1,inc,1,z,Wed May 21 2025 13:27:49 GMT-0500 (Central Daylight Time),159368.19999992847,copper,900,I,z,,,467,,,2,1,2678.1999999284744,156690.0,8032,cherry,NF,B,,,,,,,,,,7
6,prac,1,con,1,z,Wed May 21 2025 13:27:49 GMT-0500 (Central Daylight Time),162118.29999995232,orange,1000,I,z,,,436,,,3,1,2745.600000023842,159372.69999992847,8032,orange,NF,B,,,,,,,,,,8
7,prac,1,inc,1,z,Wed May 21 2025 13:27:49 GMT-0500 (Central Daylight Time),164911.09999990463,iron,900,I,z,,,483,,,6,1,2787.7999999523163,162123.29999995232,8032,pear,NF,B,,,,,,,,,,9
7,prac,1,con,0,m,Wed May 21 2025 13:27:49 GMT-0500 (Central Daylight Time),167565.5,silver,1000,I,z,,,344,,,11,1,2648.7000000476837,164916.79999995232,8032,silver,NF,B,,,,,,,,,,10
8,prac,1,inc,1,z,Wed May 21 2025 13:27:49 GMT-0500 (Central Daylight Time),170497.69999992847,cobalt,1100,I,z,,,521,,,4,1,2927.2999999523163,167570.39999997616,8032,raisin,NF,B,,,,,,,,,,11
8,prac,1,con,0,m,Wed May 21 2025 13:27:49 GMT-0500 (Central Daylight Time),173380.39999997616,zinc,1000,I,z,,,593,,,15,1,2878.100000023842,170502.29999995232,8032,zinc,NF,B,,,,,,,,,,12
9,prac,1,con,1,z,Wed May 21 2025 13:27:49 GMT-0500 (Central Daylight Time),176662.69999992847,kiwi,1000,I,z,,,966,,,7,1,3277.5,173385.19999992847,8032,kiwi,NF,B,,,,,,,,,,13
10,prac,1,inc,1,m,Wed May 21 2025 13:27:49 GMT-0500 (Central Daylight Time),179278.39999997616,cherry,900,I,m,,,409,,,10,1,2611.5,176666.89999997616,8032,copper,NF,B,,,,,,,,,,14
11,prac,1,con,1,m,Wed May 21 2025 13:27:49 GMT-0500 (Central Daylight Time),181811.29999995232,gold,800,I,m,,,428,,,13,1,2528.7999999523163,179282.5,8032,gold,NF,B,,,,,,,,,,15
12,prac,1,inc,1,m,Wed May 21 2025 13:27:49 GMT-0500 (Central Daylight Time),184543.59999990463,pear,900,I,m,,,525,,,14,1,2728.0999999046326,181815.5,8032,iron,NF,B,,,,,,,,,,16
1,test,1,con,1,z,Wed May 21 2025 13:27:49 GMT-0500 (Central Daylight Time),202238.09999990463,orange,900,I,z,z,None,510,311.0,199.0,18,1,1945.8999999761581,200292.19999992847,8032,orange,NF,B,196854,196854,195224,196137,195225,197170,196654,196654,197170,1
2,test,1,con,1,z,Wed May 21 2025 13:27:49 GMT-0500 (Central Daylight Time),204137.5,banana,900,I,z,z,None,450,251.0,199.0,2,1,1894.8000000715256,202242.69999992847,8032,banana,NF,B,198803,198803,197175,198088,197175,199070,198603,198604,199069,2
3,test,1,con,1,z,Wed May 21 2025 13:27:49 GMT-0500 (Central Daylight Time),206103.39999997616,orange,1000,I,z,z,None,417,218.0,199.0,19,1,1961.8999999761581,204141.5,8032,orange,NF,B,200803,200803,199074,200086,199074,201035,200603,200603,201035,3
4,test,1,con,1,z,Wed May 21 2025 13:27:49 GMT-0500 (Central Daylight Time),208102.59999990463,banana,1000,I,z,z,None,460,261.0,199.0,3,1,1995.0999999046326,206107.5,8032,banana,NF,B,202769,202769,201040,202052,201040,203035,202569,202569,203035,4
5,test,1,con,1,m,Wed May 21 2025 13:27:49 GMT-0500 (Central Daylight Time),210335.5,iron,1000,I,m,m,None,694,494.0,200.0,107,1,2229.100000023842,208106.39999997616,8032,iron,NF,B,204768,204768,203038,204052,203039,205268,204568,204568,205267,5
6,test,1,inc,1,z,Wed May 21 2025 13:27:49 GMT-0500 (Central Daylight Time),212584.59999990463,cobalt,1100,I,z,z,None,531,325.0,206.0,16,1,2245.399999976158,210339.19999992847,8032,cherry,NF,B,207184,207184,205271,206384,205272,207517,206978,206978,207517,6
7,test,1,inc,1,z,Wed May 21 2025 13:27:49 GMT-0500 (Central Daylight Time),214634.09999990463,iron,900,I,z,z,None,606,407.0,199.0,62,1,2045.5,212588.59999990463,8032,plum,NF,B,209150,209150,207521,208434,207521,209566,208951,208951,209566,7
8,test,1,inc,1,m,Wed May 21 2025 13:27:49 GMT-0500 (Central Daylight Time),216766.79999995232,plum,1100,I,m,m,None,494,294.0,200.0,112,1,2128.5,214638.29999995232,8032,iron,NF,B,211399,211399,209570,210683,209571,211699,211199,211199,211699,8
9,test,1,con,1,m,Wed May 21 2025 13:27:49 GMT-0500 (Central Daylight Time),218666.19999992847,bronze,800,I,m,m,None,557,357.0,200.0,65,1,1895.6000000238419,216770.59999990463,8032,bronze,NF,B,213232,213232,211703,212515,211703,213598,213032,213032,213598,9
10,test,1,inc,1,z,Wed May 21 2025 13:27:49 GMT-0500 (Central Daylight Time),220715.69999992847,copper,900,I,z,z,None,613,414.0,199.0,14,1,2045.6999999284744,218670.0,8032,cherry,NF,B,215231,215231,213602,214515,213602,215648,215032,215032,215648,10
11,test,1,inc,1,m,Wed May 21 2025 13:27:49 GMT-0500 (Central Daylight Time),222581.5,lime,800,I,m,m,None,520,321.0,199.0,125,1,1861.5,220720.0,8032,lead,NF,B,217181,217181,215652,216464,215652,217514,216981,216981,217513,11
12,test,1,inc,1,m,Wed May 21 2025 13:27:49 GMT-0500 (Central Daylight Time),224547.69999992847,kiwi,1000,I,m,m,None,429,230.0,199.0,127,1,1961.7999999523163,222585.89999997616,8032,lead,NF,B,219247,219247,217518,218530,217518,219480,219047,219047,219480,12
13,test,1,inc,1,z,Wed May 21 2025 13:27:49 GMT-0500 (Central Daylight Time),226813.69999992847,lead,1100,I,z,z,None,627,428.0,199.0,56,1,2262.0,224551.69999992847,8032,kiwi,NF,B,221313,221313,219484,220597,219484,221746,221113,221113,221746,13
13,test,1,inc,0,m,Wed May 21 2025 13:27:49 GMT-0500 (Central Daylight Time),228763.09999990463,pear,900,I,z,z,None,513,314.0,199.0,126,1,1945.0,226818.09999990463,8032,lead,NF,B,223379,223379,221750,222662,221750,223695,223179,223179,223695,14
14,test,1,con,1,m,Wed May 21 2025 13:27:49 GMT-0500 (Central Daylight Time),230745.69999992847,copper,800,I,m,m,None,649,449.0,200.0,73,1,1978.6000000238419,228767.09999990463,8032,copper,NF,B,225228,225228,223699,224512,223699,225678,225028,225028,225678,15
15,test,1,inc,1,z,Wed May 21 2025 13:27:49 GMT-0500 (Central Daylight Time),232761.79999995232,iron,900,I,z,z,None,567,367.0,200.0,46,1,2012.2999999523163,230749.5,8032,pear,NF,B,227311,227311,225682,226595,225682,227694,227111,227111,227694,16
16,test,1,inc,1,m,Wed May 21 2025 13:27:49 GMT-0500 (Central Daylight Time),234911.19999992847,raisin,1100,I,m,m,None,510,310.0,200.0,80,1,2145.5,232765.69999992847,8032,copper,NF,B,229527,229527,227698,228810,227698,229843,229327,229327,229843,17
17,test,1,con,1,z,Wed May 21 2025 13:27:49 GMT-0500 (Central Daylight Time),236893.79999995232,kiwi,800,I,z,z,None,644,445.0,199.0,49,1,1978.2999999523163,234915.5,8032,kiwi,NF,B,231376,231376,229848,230663,229848,231826,231177,231177,231826,18
18,test,1,con,1,z,Wed May 21 2025 13:27:49 GMT-0500 (Central Daylight Time),239159.69999992847,raisin,900,I,z,z,None,818,618.0,200.0,26,1,2261.6999999284744,236898.0,8032,raisin,NF,B,233459,233459,231830,232743,231830,234092,233259,233259,234092,19
19,test,1,con,1,m,Wed May 21 2025 13:27:49 GMT-0500 (Central Daylight Time),241192.5,bronze,1100,I,m,m,None,393,193.0,200.0,68,1,2028.8000000715256,239163.69999992847,8032,bronze,NF,B,235925,235925,234096,235209,234096,236125,235725,235725,236124,20
20,test,1,inc,1,z,Wed May 21 2025 13:27:49 GMT-0500 (Central Daylight Time),243191.89999997616,gold,800,I,z,z,None,658,459.0,199.0,45,1,1995.3999999761581,241196.5,8032,pear,NF,B,237658,237658,236129,236941,236129,238124,237458,237458,238124,21
21,test,1,inc,1,m,Wed May 21 2025 13:27:49 GMT-0500 (Central Daylight Time),245041.29999995232,lime,800,I,m,m,None,507,308.0,199.0,117,1,1844.2999999523163,243197.0,8032,zinc,NF,B,239657,239657,238129,238941,238130,239973,239458,239458,239973,22
22,test,1,con,1,z,Wed May 21 2025 13:27:49 GMT-0500 (Central Daylight Time),247407.29999995232,cherry,1100,I,z,z,None,726,527.0,199.0,12,1,2362.2000000476837,245045.09999990463,8032,cherry,NF,B,241806,241806,239977,241090,239978,242339,241607,241607,242339,23
23,test,1,inc,1,z,Wed May 21 2025 13:27:49 GMT-0500 (Central Daylight Time),249556.89999997616,zinc,1000,I,z,z,None,614,414.0,200.0,63,1,2145.7000000476837,247411.19999992847,8032,plum,NF,B,244072,244072,242343,243356,242344,244489,243872,243872,244489,24
24,test,1,con,1,m,Wed May 21 2025 13:27:49 GMT-0500 (Central Daylight Time),251589.19999992847,bronze,1000,I,m,m,None,494,295.0,199.0,67,1,2028.1999999284744,249561.0,8032,bronze,NF,B,246222,246222,244493,245505,244493,246521,246022,246022,246521,25
25,test,1,inc,1,m,Wed May 21 2025 13:27:49 GMT-0500 (Central Daylight Time),253571.89999997616,banana,800,I,m,m,None,645,446.0,199.0,77,1,1978.7000000476837,251593.19999992847,8032,copper,NF,B,248054,248055,246525,247338,246526,248504,247855,247855,248504,26
26,test,1,con,1,z,Wed May 21 2025 13:27:49 GMT-0500 (Central Daylight Time),255487.89999997616,banana,800,I,z,z,None,568,368.0,200.0,1,1,1912.1000000238419,253575.79999995232,8032,banana,NF,B,250037,250037,248508,249321,248508,250420,249837,249837,250420,27
27,test,1,con,1,z,Wed May 21 2025 13:27:49 GMT-0500 (Central Daylight Time),257770.39999997616,pear,1000,I,z,z,None,748,548.0,200.0,43,1,2278.3000000715256,255492.09999990463,8032,pear,NF,B,252153,252153,250424,251437,250424,252702,251953,251953,252702,28
28,test,1,inc,1,z,Wed May 21 2025 13:27:49 GMT-0500 (Central Daylight Time),259937.59999990463,gold,800,I,z,z,None,740,534.0,206.0,37,1,2163.5,257774.09999990463,8032,lime,NF,B,254319,254319,252706,253519,252706,254870,254113,254113,254870,29
29,test,1,inc,1,m,Wed May 21 2025 13:27:49 GMT-0500 (Central Daylight Time),262102.5,kiwi,1000,I,m,m,None,620,421.0,199.0,103,1,2160.8000000715256,259941.69999992847,8032,gold,NF,B,256601,256601,254874,255885,254874,257035,256402,256402,257035,30
30,test,1,inc,1,z,Wed May 21 2025 13:27:49 GMT-0500 (Central Daylight Time),264235.1999999285,iron,900,I,z,z,None,688,489.0,199.0,54,1,2128.899999976158,262106.29999995232,8032,kiwi,NF,B,258668,258668,257038,257951,257039,259167,258468,258468,259167,31
31,test,1,inc,1,m,Wed May 21 2025 13:27:49 GMT-0500 (Central Daylight Time),266384.6999999285,kiwi,1000,I,m,m,None,600,401.0,199.0,111,1,2145.600000023842,264239.09999990463,8032,iron,NF,B,260900,260900,259171,260184,259171,261317,260701,260701,261317,32
32,test,1,inc,1,m,Wed May 21 2025 13:27:49 GMT-0500 (Central Daylight Time),268600.6999999285,plum,1100,I,m,m,None,566,367.0,199.0,128,1,2212.0,266388.6999999285,8032,lead,NF,B,263150,263150,261321,262434,261321,263533,262950,262950,263533,33
33,test,1,inc,1,z,Wed May 21 2025 13:27:49 GMT-0500 (Central Daylight Time),270466.59999990463,bronze,800,I,z,z,None,530,331.0,199.0,13,1,1862.1999999284744,268604.39999997616,8032,cherry,NF,B,265066,265066,263536,264349,263537,265399,264866,264866,265399,34
34,test,1,inc,1,z,Wed May 21 2025 13:27:49 GMT-0500 (Central Daylight Time),272765.6999999285,lead,1100,I,z,z,None,661,462.0,199.0,64,1,2295.5,270470.1999999285,8032,plum,NF,B,267232,267232,265402,266515,265403,267698,267032,267032,267698,35
35,test,1,inc,1,m,Wed May 21 2025 13:27:49 GMT-0500 (Central Daylight Time),274848.6999999285,pear,900,I,m,m,None,634,434.0,200.0,110,1,2079.0,272769.6999999285,8032,iron,NF,B,269331,269331,267702,268615,267702,269781,269131,269131,269781,36
36,test,1,con,1,z,Wed May 21 2025 13:27:49 GMT-0500 (Central Daylight Time),276731.39999997616,plum,800,I,z,z,None,548,348.0,200.0,57,1,1879.0,274852.39999997616,8032,plum,NF,B,271314,271314,269784,270599,269785,271664,271114,271114,271663,37
37,test,1,inc,1,z,Wed May 21 2025 13:27:49 GMT-0500 (Central Daylight Time),278780.7999999523,bronze,800,I,z,z,None,713,514.0,199.0,29,1,2045.6000000238419,276735.1999999285,8032,raisin,NF,B,273196,273196,271667,272480,271668,273713,272997,272997,273713,38
38,test,1,con,1,z,Wed May 21 2025 13:27:49 GMT-0500 (Central Daylight Time),280929.7999999523,banana,1100,I,z,z,None,514,315.0,199.0,4,1,2144.899999976158,278784.89999997616,8032,banana,NF,B,275546,275546,273717,274830,273717,275862,275346,275346,275862,39
39,test,1,con,1,z,Wed May 21 2025 13:27:49 GMT-0500 (Central Daylight Time),283162.59999990463,pear,1100,I,z,z,None,575,374.0,201.0,44,1,2228.6999999284744,280933.89999997616,8032,pear,NF,B,277712,277712,275866,276980,275866,278095,277510,277510,278095,40
40,test,1,inc,1,m,Wed May 21 2025 13:27:49 GMT-0500 (Central Daylight Time),285228.6999999285,plum,1100,I,m,m,None,421,221.0,200.0,104,1,2062.399999976158,283166.2999999523,8032,gold,NF,B,279928,279928,278098,279211,278099,280161,279728,279728,280161,41
41,test,1,con,1,m,Wed May 21 2025 13:27:49 GMT-0500 (Central Daylight Time),287594.5,cobalt,1000,I,m,m,None,823,624.0,199.0,91,1,2362.100000023842,285232.39999997616,8032,cobalt,NF,B,281894,281894,280164,281177,280165,282527,281694,281694,282527,42
42,test,1,inc,1,z,Wed May 21 2025 13:27:49 GMT-0500 (Central Daylight Time),289777.39999997616,copper,900,I,z,z,None,749,549.0,200.0,30,1,2179.0,287598.39999997616,8032,raisin,NF,B,284160,284160,282530,283444,282531,284709,283960,283960,284709,43
43,test,1,inc,1,z,Wed May 21 2025 13:27:49 GMT-0500 (Central Daylight Time),292093.09999990463,lead,1100,I,z,z,None,672,472.0,200.0,48,1,2312.0,289781.09999990463,8032,pear,NF,B,286542,286542,284713,285826,284713,287025,286342,286342,287025,44
44,test,1,con,1,z,Wed May 21 2025 13:27:49 GMT-0500 (Central Daylight Time),294225.6999999285,cherry,900,I,z,z,None,684,484.0,200.0,10,1,2128.7999999523163,292096.89999997616,8032,cherry,NF,B,288658,288658,287029,287942,287029,289158,288458,288458,289158,45
45,test,1,inc,1,z,Wed May 21 2025 13:27:49 GMT-0500 (Central Daylight Time),296341.7999999523,zinc,1000,I,z,z,None,570,370.0,200.0,55,1,2112.100000023842,294229.6999999285,8032,kiwi,NF,B,290891,290891,289162,290175,289162,291274,290691,290691,291274,46
46,test,1,con,1,z,Wed May 21 2025 13:27:49 GMT-0500 (Central Daylight Time),298158.0,pear,800,I,z,z,None,470,270.0,200.0,41,1,1812.1000000238419,296345.89999997616,8032,pear,NF,B,292807,292807,291278,292091,291278,293090,292607,292607,293090,47
47,test,1,inc,1,z,Wed May 21 2025 13:27:49 GMT-0500 (Central Daylight Time),300140.59999990463,bronze,800,I,z,z,None,646,446.0,200.0,5,1,1978.6999999284744,298161.89999997616,8032,banana,NF,B,294623,294623,293094,293907,293094,295073,294423,294423,295073,48
48,test,1,inc,1,z,Wed May 21 2025 13:27:49 GMT-0500 (Central Daylight Time),302356.7999999523,cobalt,1100,I,z,z,None,579,380.0,199.0,24,1,2212.399999976158,300144.39999997616,8032,orange,NF,B,296906,296906,295076,296189,295077,297289,296706,296706,297289,49
49,test,1,con,1,m,Wed May 21 2025 13:27:49 GMT-0500 (Central Daylight Time),304539.39999997616,gold,1000,I,m,m,None,639,439.0,200.0,99,1,2178.8000000715256,302360.59999990463,8032,gold,NF,B,299022,299022,297293,298305,297293,299471,298822,298822,299471,50
50,test,1,con,1,m,Wed May 21 2025 13:27:49 GMT-0500 (Central Daylight Time),306472.1999999285,cobalt,800,I,m,m,None,584,339.0,245.0,89,1,1928.8999999761581,304543.2999999523,8032,cobalt,NF,B,301050,301050,299475,300288,299476,301404,300804,300804,301404,51
51,test,1,inc,1,z,Wed May 21 2025 13:27:49 GMT-0500 (Central Daylight Time),308604.6999999285,silver,1000,I,z,z,None,588,388.0,200.0,7,1,2128.5,306476.1999999285,8032,banana,NF,B,303137,303137,301408,302421,301409,303537,302937,302937,303537,52
52,test,1,con,1,m,Wed May 21 2025 13:27:49 GMT-0500 (Central Daylight Time),310654.0,gold,900,I,m,m,None,602,403.0,199.0,98,1,2045.5,308608.5,8032,gold,NF,B,305170,305170,303541,304453,303541,305586,304970,304970,305586,53
53,test,1,con,1,z,Wed May 21 2025 13:27:49 GMT-0500 (Central Daylight Time),312887.6999999285,plum,1000,I,z,z,None,695,495.0,200.0,59,1,2229.6999999284744,310658.0,8032,plum,NF,B,307319,307319,305590,306603,305590,307820,307119,307119,307820,54
54,test,1,inc,1,z,Wed May 21 2025 13:27:49 GMT-0500 (Central Daylight Time),315235.7999999523,iron,900,I,z,z,None,905,706.0,199.0,38,1,2344.2999999523163,312891.5,8032,lime,NF,B,309452,309452,307824,308735,307824,310168,309252,309252,310168,55
55,test,1,inc,1,m,Wed May 21 2025 13:27:49 GMT-0500 (Central Daylight Time),317451.6999999285,plum,1100,I,m,m,None,573,373.0,200.0,120,1,2212.1999999284744,315239.5,8032,zinc,NF,B,312001,312001,310172,311285,310172,312384,311801,311801,312384,56
56,test,1,inc,1,z,Wed May 21 2025 13:27:49 GMT-0500 (Central Daylight Time),319667.6999999285,silver,1000,I,z,z,None,680,480.0,200.0,23,1,2212.1999999284744,317455.5,8032,orange,NF,B,314117,314117,312388,313401,312388,314600,313917,313917,314600,57
57,test,1,inc,1,m,Wed May 21 2025 13:27:49 GMT-0500 (Central Daylight Time),321667.2999999523,pear,900,I,m,m,None,564,364.0,200.0,118,1,1995.6000000238419,319671.6999999285,8032,zinc,NF,B,316233,316233,314604,315517,314604,316599,316033,316033,316599,58
58,test,1,inc,1,z,Wed May 21 2025 13:27:49 GMT-0500 (Central Daylight Time),323816.5,zinc,1000,I,z,z,None,601,401.0,200.0,39,1,2145.5,321671.0,8032,lime,NF,B,318332,318332,316603,317616,316603,318749,318132,318132,318749,59
59,test,1,inc,1,m,Wed May 21 2025 13:27:49 GMT-0500 (Central Daylight Time),325865.89999997616,lime,800,I,m,m,None,715,516.0,199.0,109,1,2045.7000000476837,323820.1999999285,8032,iron,NF,B,320282,320282,318752,319565,318752,320798,320082,320082,320798,60
60,test,1,inc,1,z,Wed May 21 2025 13:27:49 GMT-0500 (Central Daylight Time),327965.39999997616,silver,1000,I,z,z,None,562,362.0,200.0,31,1,2095.7000000476837,325869.6999999285,8032,raisin,NF,B,322531,322531,320802,321815,320802,322897,322331,322331,322897,61
61,test,1,inc,1,m,Wed May 21 2025 13:27:49 GMT-0500 (Central Daylight Time),330081.59999990463,kiwi,1000,I,m,m,None,582,272.0,310.0,119,1,2112.2999999523163,327969.2999999523,8032,zinc,NF,B,324741,324741,322901,323914,322902,325014,324430,324430,325014,62
61,test,1,con,0,z,Wed May 21 2025 13:27:49 GMT-0500 (Central Daylight Time),332064.09999990463,kiwi,900,I,m,m,None,541,342.0,199.0,50,1,1978.5999999046326,330085.5,8032,kiwi,NF,B,326647,326647,325018,325930,325018,326996,326447,326447,326996,63
62,test,1,con,1,m,Wed May 21 2025 13:27:49 GMT-0500 (Central Daylight Time),334480.0,silver,1000,I,m,m,None,875,676.0,199.0,83,1,2412.3000000715256,332067.6999999285,8032,silver,NF,B,328729,328729,327000,328013,327000,329412,328530,328530,329412,64
63,test,1,inc,1,m,Wed May 21 2025 13:27:49 GMT-0500 (Central Daylight Time),336545.7999999523,cherry,900,I,m,m,None,617,417.0,200.0,78,1,2062.0,334483.7999999523,8032,copper,NF,B,331045,331045,329416,330329,329416,331478,330845,330845,331478,65
64,test,1,inc,1,m,Wed May 21 2025 13:27:49 GMT-0500 (Central Daylight Time),338595.39999997616,pear,900,I,m,m,None,615,415.0,200.0,102,1,2045.8000000715256,336549.59999990463,8032,gold,NF,B,333111,333111,331482,332395,331482,333528,332911,332911,333527,66
65,test,1,inc,1,m,Wed May 21 2025 13:27:49 GMT-0500 (Central Daylight Time),340661.2999999523,orange,1000,I,m,m,None,520,321.0,199.0,95,1,2062.2000000476837,338599.09999990463,8032,cobalt,NF,B,335260,335260,333531,334544,333531,335593,335061,335061,335593,67
66,test,1,con,1,m,Wed May 21 2025 13:27:49 GMT-0500 (Central Daylight Time),342743.7999999523,lead,1000,I,m,m,None,543,344.0,199.0,123,1,2078.5,340665.2999999523,8032,lead,NF,B,337326,337326,335597,336610,335598,337676,337127,337127,337676,68
67,test,1,con,1,z,Wed May 21 2025 13:27:49 GMT-0500 (Central Daylight Time),344843.39999997616,cherry,1000,I,z,z,None,556,356.0,200.0,11,1,2095.7000000476837,342747.6999999285,8032,cherry,NF,B,339409,339409,337680,338693,337680,339775,339209,339209,339775,69
68,test,1,inc,1,z,Wed May 21 2025 13:27:49 GMT-0500 (Central Daylight Time),347192.5,silver,1000,I,z,z,None,799,600.0,199.0,15,1,2345.600000023842,344846.89999997616,8032,cherry,NF,B,341508,341509,339779,340792,339779,342125,341308,341309,342125,70
69,test,1,con,1,z,Wed May 21 2025 13:27:49 GMT-0500 (Central Daylight Time),349075.39999997616,raisin,800,I,z,z,None,547,347.0,200.0,25,1,1879.2000000476837,347196.1999999285,8032,raisin,NF,B,343658,343658,342128,342941,342128,344008,343458,343458,344007,71
70,test,1,con,1,m,Wed May 21 2025 13:27:49 GMT-0500 (Central Daylight Time),351024.5,copper,900,I,m,m,None,508,309.0,199.0,74,1,1945.4000000953674,349079.09999990463,8032,copper,NF,B,345640,345640,344011,344924,344011,345957,345441,345441,345957,72
71,test,1,inc,1,m,Wed May 21 2025 13:27:49 GMT-0500 (Central Daylight Time),352957.39999997616,banana,800,I,m,m,None,586,387.0,199.0,93,1,1928.8999999761581,351028.5,8032,cobalt,NF,B,347490,347490,345961,346773,345961,347889,347290,347290,347889,73
72,test,1,inc,1,m,Wed May 21 2025 13:27:49 GMT-0500 (Central Daylight Time),355107.89999997616,orange,1000,I,m,m,None,605,406.0,199.0,87,1,2146.899999976158,352961.0,8032,silver,NF,B,349623,349623,347893,348906,347893,350040,349423,349423,350040,74
73,test,1,con,1,m,Wed May 21 2025 13:27:49 GMT-0500 (Central Daylight Time),357156.1999999285,lead,1100,I,m,m,None,412,213.0,199.0,124,1,2044.2999999523163,355111.89999997616,8032,lead,NF,B,351872,351872,350044,351156,350044,352088,351672,351672,352088,75
74,test,1,con,1,m,Wed May 21 2025 13:27:49 GMT-0500 (Central Daylight Time),359072.2999999523,iron,800,I,m,m,None,568,368.0,200.0,105,1,1912.3999999761581,357159.89999997616,8032,iron,NF,B,353621,353621,352092,352905,352092,354004,353421,353421,354004,76
75,test,1,inc,1,z,Wed May 21 2025 13:27:49 GMT-0500 (Central Daylight Time),361154.89999997616,copper,900,I,z,z,None,639,440.0,199.0,22,1,2078.8000000715256,359076.09999990463,8032,orange,NF,B,355637,355637,354008,354921,354008,356087,355438,355438,356087,77
76,test,1,con,1,m,Wed May 21 2025 13:27:49 GMT-0500 (Central Daylight Time),363404.2999999523,gold,1100,I,m,m,None,605,405.0,200.0,100,1,2245.2999999523163,361159.0,8032,gold,NF,B,357920,357920,356091,357204,356092,358336,357720,357720,358336,78
77,test,1,con,1,m,Wed May 21 2025 13:27:49 GMT-0500 (Central Daylight Time),365403.39999997616,lead,800,I,m,m,None,655,456.0,199.0,121,1,1995.3000000715256,363408.09999990463,8032,lead,NF,B,359869,359869,358340,359153,358340,360335,359670,359670,360335,79
78,test,1,con,1,m,Wed May 21 2025 13:27:49 GMT-0500 (Central Daylight Time),367469.39999997616,zinc,900,I,m,m,None,620,421.0,199.0,114,1,2062.2000000476837,365407.1999999285,8032,zinc,NF,B,361968,361968,360339,361252,360340,362401,361769,361769,362401,80
79,test,1,con,1,m,Wed May 21 2025 13:27:49 GMT-0500 (Central Daylight Time),369419.0,bronze,900,I,m,m,None,513,314.0,199.0,66,1,1946.0,367473.0,8032,bronze,NF,B,364035,364035,362405,363318,362405,364351,363835,363835,364351,81
80,test,1,con,1,m,Wed May 21 2025 13:27:49 GMT-0500 (Central Daylight Time),371185.09999990463,gold,800,I,m,m,None,425,225.0,200.0,97,1,1762.3999999761581,369422.6999999285,8032,gold,NF,B,365884,365884,364355,365168,364355,366117,365684,365684,366117,82
81,test,1,con,1,z,Wed May 21 2025 13:27:49 GMT-0500 (Central Daylight Time),373117.59999990463,kiwi,1000,I,z,z,None,387,187.0,200.0,51,1,1928.3999999761581,371189.1999999285,8032,kiwi,NF,B,367850,367850,366121,367134,366122,368050,367650,367650,368050,83
82,test,1,con,1,z,Wed May 21 2025 13:27:49 GMT-0500 (Central Daylight Time),375201.59999990463,lime,1100,I,z,z,None,434,234.0,200.0,36,1,2080.2999999523163,373121.2999999523,8032,lime,NF,B,369883,369883,368053,369167,368054,370134,369683,369683,370134,84
83,test,1,inc,1,z,Wed May 21 2025 13:27:49 GMT-0500 (Central Daylight Time),377249.89999997616,gold,800,I,z,z,None,706,493.0,213.0,53,1,2044.1000000238419,375205.7999999523,8032,kiwi,NF,B,371679,371680,370138,370949,370138,372182,371466,371466,372182,85
84,test,1,con,1,z,Wed May 21 2025 13:27:49 GMT-0500 (Central Daylight Time),379115.89999997616,lime,800,I,z,z,None,531,331.0,200.0,33,1,1862.3000000715256,377253.59999990463,8032,lime,NF,B,373715,373715,372186,372999,372186,374048,373515,373515,374048,86
85,test,1,inc,1,m,Wed May 21 2025 13:27:49 GMT-0500 (Central Daylight Time),381231.89999997616,orange,1000,I,m,m,None,569,369.0,200.0,79,1,2112.3000000715256,379119.59999990463,8032,copper,NF,B,375781,375781,374052,375064,374052,376164,375581,375581,376164,87
86,test,1,inc,1,m,Wed May 21 2025 13:27:49 GMT-0500 (Central Daylight Time),383148.0,cherry,900,I,m,m,None,473,273.0,200.0,70,1,1912.3000000715256,381235.6999999285,8032,bronze,NF,B,377797,377797,376168,377081,376168,378080,377597,377597,378080,88
87,test,1,con,1,m,Wed May 21 2025 13:27:49 GMT-0500 (Central Daylight Time),385064.09999990463,zinc,800,I,m,m,None,576,376.0,200.0,113,1,1912.2999999523163,383151.7999999523,8032,zinc,NF,B,379613,379613,378084,378897,378084,379996,379413,379413,379996,89
88,test,1,inc,1,m,Wed May 21 2025 13:27:49 GMT-0500 (Central Daylight Time),387196.7999999523,cherry,900,I,m,m,None,688,488.0,200.0,86,1,2129.0,385067.7999999523,8032,silver,NF,B,381629,381629,380000,380913,380000,382129,381429,381429,382129,90
89,test,1,con,1,z,Wed May 21 2025 13:27:49 GMT-0500 (Central Daylight Time),389179.39999997616,lime,1000,I,z,z,None,437,222.0,215.0,35,1,1979.0,387200.39999997616,8032,lime,NF,B,383879,383879,382132,383145,382133,384111,383663,383663,384111,91
90,test,1,con,1,z,Wed May 21 2025 13:27:49 GMT-0500 (Central Daylight Time),391662.0,raisin,1100,I,z,z,None,835,636.0,199.0,28,1,2478.9000000953674,389183.09999990463,8032,raisin,NF,B,385945,385945,384115,385228,384115,386594,385745,385745,386594,92
91,test,1,inc,1,m,Wed May 21 2025 13:27:49 GMT-0500 (Central Daylight Time),393944.59999990463,raisin,1100,I,m,m,None,634,434.0,200.0,96,1,2278.5999999046326,391666.0,8032,cobalt,NF,B,388427,388427,386598,387711,386598,388877,388227,388227,388877,93
92,test,1,con,1,z,Wed May 21 2025 13:27:49 GMT-0500 (Central Daylight Time),395777.2999999523,cherry,800,I,z,z,None,483,284.0,199.0,9,1,1829.1000000238419,393948.1999999285,8032,cherry,NF,B,390410,390410,388880,389694,388881,390709,390210,390210,390709,94
93,test,1,inc,1,z,Wed May 21 2025 13:27:49 GMT-0500 (Central Daylight Time),398159.89999997616,copper,900,I,z,z,None,941,742.0,199.0,6,1,2379.3000000715256,395780.59999990463,8032,banana,NF,B,392343,392343,390713,391626,390713,393092,392143,392143,393092,95
94,test,1,con,1,m,Wed May 21 2025 13:27:49 GMT-0500 (Central Daylight Time),400542.2999999523,copper,1100,I,m,m,None,737,537.0,200.0,76,1,2378.5,398163.7999999523,8032,copper,NF,B,394925,394925,393096,394209,393096,395474,394725,394725,395474,96
95,test,1,con,1,z,Wed May 21 2025 13:27:49 GMT-0500 (Central Daylight Time),402858.2999999523,plum,1100,I,z,z,None,681,482.0,199.0,60,1,2312.2000000476837,400546.09999990463,8032,plum,NF,B,397308,397308,395478,396591,395478,397790,397108,397108,397790,97
96,test,1,con,1,m,Wed May 21 2025 13:27:49 GMT-0500 (Central Daylight Time),405357.89999997616,silver,1100,I,m,m,None,861,662.0,199.0,84,1,2495.8000000715256,402862.09999990463,8032,silver,NF,B,399624,399624,397794,398908,397794,400290,399424,399424,400290,98
97,test,1,inc,1,m,Wed May 21 2025 13:27:49 GMT-0500 (Central Daylight Time),407590.2999999523,raisin,1100,I,m,m,None,593,394.0,199.0,88,1,2228.7000000476837,405361.59999990463,8032,silver,NF,B,402123,402123,400294,401407,400294,402522,401923,401923,402522,99
98,test,1,con,1,z,Wed May 21 2025 13:27:49 GMT-0500 (Central Daylight Time),409606.2999999523,pear,900,I,z,z,None,569,370.0,199.0,42,1,2012.2999999523163,407594.0,8032,pear,NF,B,404155,404155,402526,403439,402526,404538,403956,403956,404538,100
99,test,1,con,1,z,Wed May 21 2025 13:27:49 GMT-0500 (Central Daylight Time),411456.0,orange,800,I,z,z,None,510,311.0,199.0,17,1,1846.0,409610.0,8032,orange,NF,B,406071,406071,404542,405355,404542,406388,405872,405872,406388,101
100,test,1,inc,1,m,Wed May 21 2025 13:27:49 GMT-0500 (Central Daylight Time),413404.89999997616,cherry,900,I,m,m,None,513,313.0,200.0,94,1,1945.3999999761581,411459.5,8032,cobalt,NF,B,408021,408021,406392,407305,406392,408337,407821,407821,408337,102
101,test,1,con,1,m,Wed May 21 2025 13:27:49 GMT-0500 (Central Daylight Time),415454.5,silver,800,I,m,m,None,702,503.0,199.0,81,1,2045.9000000953674,413408.59999990463,8032,silver,NF,B,409870,409870,408341,409154,408341,410387,409671,409671,410387,103
102,test,1,con,1,m,Wed May 21 2025 13:27:49 GMT-0500 (Central Daylight Time),417487.2999999523,cobalt,900,I,m,m,None,585,386.0,199.0,90,1,2028.8999999761581,415458.39999997616,8032,cobalt,NF,B,412020,412020,410390,411303,410391,412419,411820,411820,412419,104
103,test,1,con,1,z,Wed May 21 2025 13:27:49 GMT-0500 (Central Daylight Time),419669.7999999523,kiwi,1100,I,z,z,None,537,337.0,200.0,52,1,2179.0,417490.7999999523,8032,kiwi,NF,B,414252,414252,412423,413536,412423,414602,414052,414052,414602,105
104,test,1,inc,1,z,Wed May 21 2025 13:27:49 GMT-0500 (Central Daylight Time),421902.59999990463,cobalt,1100,I,z,z,None,586,386.0,200.0,8,1,2229.0,419673.59999990463,8032,banana,NF,B,416435,416435,414606,415719,414606,416835,416235,416235,416835,106
105,test,1,inc,1,z,Wed May 21 2025 13:27:49 GMT-0500 (Central Daylight Time),424028.1999999285,bronze,800,I,z,z,None,646,447.0,199.0,21,1,2121.899999976158,421906.2999999523,8032,orange,NF,B,418367,418367,416838,417651,416839,418960,418168,418168,418960,107
106,test,1,inc,1,m,Wed May 21 2025 13:27:49 GMT-0500 (Central Daylight Time),425984.5,banana,800,I,m,m,None,617,418.0,199.0,69,1,1951.8000000715256,424032.6999999285,8032,bronze,NF,B,420483,420483,418965,419767,418965,420917,420284,420284,420917,108
107,test,1,con,1,m,Wed May 21 2025 13:27:49 GMT-0500 (Central Daylight Time),428017.5,silver,900,I,m,m,None,598,399.0,199.0,82,1,2029.2000000476837,425988.2999999523,8032,silver,NF,B,422550,422550,420920,421833,420921,422950,422350,422350,422949,109
107,test,1,inc,0,m,Wed May 21 2025 13:27:49 GMT-0500 (Central Daylight Time),430116.59999990463,raisin,1100,I,z,z,None,462,263.0,199.0,72,1,2095.2999999523163,428021.2999999523,8032,bronze,NF,B,424783,424783,422953,424066,422954,425049,424583,424583,425049,110
108,test,1,inc,1,m,Wed May 21 2025 13:27:49 GMT-0500 (Central Daylight Time),432199.5,orange,1000,I,m,m,None,543,344.0,199.0,71,1,2078.600000023842,430120.89999997616,8032,bronze,NF,B,426782,426782,425053,426066,425053,427132,426582,426582,427132,111
109,test,1,con,1,z,Wed May 21 2025 13:27:49 GMT-0500 (Central Daylight Time),434315.2999999523,raisin,1000,I,z,z,None,582,382.0,200.0,27,1,2112.0,432203.2999999523,8032,raisin,NF,B,428864,428864,427135,428148,427136,429247,428664,428664,429247,112
110,test,1,con,1,z,Wed May 21 2025 13:27:49 GMT-0500 (Central Daylight Time),436464.5,lime,900,I,z,z,None,708,509.0,199.0,34,1,2145.4000000953674,434319.09999990463,8032,lime,NF,B,430880,430880,429251,430164,429251,431397,430681,430681,431397,113
111,test,1,con,1,m,Wed May 21 2025 13:27:49 GMT-0500 (Central Daylight Time),438531.6999999285,zinc,1000,I,m,m,None,531,332.0,199.0,115,1,2063.2999999523163,436468.39999997616,8032,zinc,NF,B,433129,433129,431400,432413,431401,433464,432930,432930,433464,114
112,test,1,inc,1,z,Wed May 21 2025 13:27:49 GMT-0500 (Central Daylight Time),440762.89999997616,lead,1100,I,z,z,None,597,398.0,199.0,40,1,2227.2000000476837,438535.6999999285,8032,lime,NF,B,435295,435295,433468,434579,433468,435695,435096,435096,435695,115
113,test,1,inc,1,m,Wed May 21 2025 13:27:49 GMT-0500 (Central Daylight Time),442595.89999997616,lime,800,I,m,m,None,497,297.0,200.0,101,1,1829.3000000715256,440766.59999990463,8032,gold,NF,B,437228,437228,435699,436512,435699,437528,437028,437028,437528,116
114,test,1,con,1,m,Wed May 21 2025 13:27:49 GMT-0500 (Central Daylight Time),444545.2999999523,lead,900,I,m,m,None,500,300.0,200.0,122,1,1945.7999999523163,442599.5,8032,lead,NF,B,439161,439161,437532,438444,437532,439477,438961,438961,439477,117
115,test,1,con,1,m,Wed May 21 2025 13:27:49 GMT-0500 (Central Daylight Time),446661.1999999285,iron,1100,I,m,m,None,479,279.0,200.0,108,1,2111.600000023842,444549.59999990463,8032,iron,NF,B,441310,441310,439482,440594,439482,441593,441110,441110,441593,118
116,test,1,con,1,z,Wed May 21 2025 13:27:49 GMT-0500 (Central Daylight Time),448977.09999990463,orange,1100,I,z,z,None,667,467.0,200.0,20,1,2311.6999999284744,446665.39999997616,8032,orange,NF,B,443426,443426,441597,442710,441598,443909,443226,443226,443909,119
117,test,1,con,1,m,Wed May 21 2025 13:27:49 GMT-0500 (Central Daylight Time),451026.39999997616,zinc,1100,I,m,m,None,407,207.0,200.0,116,1,2045.3999999761581,448981.0,8032,zinc,NF,B,445742,445742,443913,445026,443913,445958,445542,445542,445958,120
118,test,1,con,1,m,Wed May 21 2025 13:27:49 GMT-0500 (Central Daylight Time),452992.59999990463,cobalt,1100,I,m,m,None,326,126.0,200.0,92,1,1962.3999999761581,451030.1999999285,8032,cobalt,NF,B,447791,447791,445962,447075,445962,447925,447591,447591,447925,121
119,test,1,inc,1,z,Wed May 21 2025 13:27:49 GMT-0500 (Central Daylight Time),455225.09999990463,zinc,1000,I,z,z,None,682,483.0,199.0,47,1,2228.7999999523163,452996.2999999523,8032,pear,NF,B,449658,449658,447928,448941,447929,450157,449458,449458,450157,122
120,test,1,con,1,m,Wed May 21 2025 13:27:49 GMT-0500 (Central Daylight Time),457441.09999990463,iron,900,I,m,m,None,775,575.0,200.0,106,1,2211.5999999046326,455229.5,8032,iron,NF,B,451790,451790,450162,451074,450162,452373,451590,451590,452373,123
121,test,1,inc,1,z,Wed May 21 2025 13:27:49 GMT-0500 (Central Daylight Time),459590.39999997616,cobalt,1100,I,z,z,None,511,311.0,200.0,32,1,2145.7000000476837,457444.6999999285,8032,raisin,NF,B,454206,454206,452377,453490,452377,454522,454006,454006,454522,124
121,test,1,con,0,z,Wed May 21 2025 13:27:49 GMT-0500 (Central Daylight Time),461606.2999999523,plum,900,I,m,m,None,576,377.0,199.0,58,1,2012.1000000238419,459594.1999999285,8032,plum,NF,B,456156,456156,454526,455439,454527,456538,455956,455956,456538,125
122,test,1,inc,1,z,Wed May 21 2025 13:27:49 GMT-0500 (Central Daylight Time),463539.59999990463,gold,800,I,z,z,None,589,390.0,199.0,61,1,1929.3999999761581,461610.1999999285,8032,plum,NF,B,458072,458072,456542,457355,456543,458472,457872,457872,458472,126
123,test,1,con,1,m,Wed May 21 2025 13:27:49 GMT-0500 (Central Daylight Time),466205.2999999523,copper,1000,I,m,m,None,1120,921.0,199.0,75,1,2662.0,463543.2999999523,8032,copper,NF,B,460204,460204,458475,459488,458476,461137,460005,460005,461137,127
124,test,1,inc,1,m,Wed May 21 2025 13:27:49 GMT-0500 (Central Daylight Time),468171.39999997616,banana,800,I,m,m,None,622,423.0,199.0,85,1,1962.3999999761581,466209.0,8032,silver,NF,B,462671,462671,461141,461954,461141,463103,462471,462471,463103,128
