acc_sum,block,block_c,condition,correct,correct_response,datetime,endtime,flanker,jitter,project,response,response_test_buffer_response,response_test_target_response,response_time,response_time_test_buffer_response,response_time_test_target_response,row_sel,session_number,start_end,starttime,subject_id,target,task,task_vers,time_test_buffer,time_test_buffer_response,time_test_constants,time_test_flanker,time_test_jitter,time_test_logger,time_test_target,time_test_target_response,time_test_variables,trial
0,prac,1,inc,0,z,Tue Apr 14 2026 08:45:48 GMT-0500 (Central Daylight Time),95230.5,rock,900,I,None,,,1799,,,10,1,4961.200000047684,90269.29999995232,8106,kind,AF,C,,,,,,,,,,1
1,prac,1,con,1,z,Tue Apr 14 2026 08:45:48 GMT-0500 (Central Daylight Time),98646.10000002384,rage,1000,I,z,,,1100,,,15,1,3409.899999976158,95236.20000004768,8106,rage,AF,C,,,,,,,,,,2
2,prac,1,con,1,m,Tue Apr 14 2026 08:45:48 GMT-0500 (Central Daylight Time),101445.20000004768,step,800,I,m,,,694,,,1,1,2794.3000000715256,98650.89999997616,8106,step,AF,C,,,,,,,,,,3
3,prac,1,con,1,m,Tue Apr 14 2026 08:45:48 GMT-0500 (Central Daylight Time),104311.10000002384,remote,1000,I,m,,,559,,,7,1,2861.600000023842,101449.5,8106,remote,AF,C,,,,,,,,,,4
4,prac,1,con,1,z,Tue Apr 14 2026 08:45:48 GMT-0500 (Central Daylight Time),106943.5,elated,800,I,z,,,525,,,9,1,2627.5,104316.0,8106,elated,AF,C,,,,,,,,,,5
5,prac,1,con,1,m,Tue Apr 14 2026 08:45:48 GMT-0500 (Central Daylight Time),109575.89999997616,jacket,800,I,m,,,524,,,5,1,2627.7999999523163,106948.10000002384,8106,jacket,AF,C,,,,,,,,,,6
6,prac,1,inc,1,z,Tue Apr 14 2026 08:45:48 GMT-0500 (Central Daylight Time),112408.5,film,900,I,z,,,508,,,14,1,2828.2000000476837,109580.29999995232,8106,hate,AF,C,,,,,,,,,,7
7,prac,1,inc,1,m,Tue Apr 14 2026 08:45:48 GMT-0500 (Central Daylight Time),115440.79999995232,brutal,1100,I,m,,,632,,,8,1,3027.7999999523163,112413.0,8106,window,AF,C,,,,,,,,,,8
8,prac,1,inc,1,z,Tue Apr 14 2026 08:45:48 GMT-0500 (Central Daylight Time),118440.0,window,1100,I,z,,,590,,,16,1,2994.7000000476837,115445.29999995232,8106,temper,AF,C,,,,,,,,,,9
9,prac,1,inc,1,m,Tue Apr 14 2026 08:45:48 GMT-0500 (Central Daylight Time),121155.70000004768,kind,900,I,m,,,520,,,2,1,2710.8000000715256,118444.89999997616,8106,rock,AF,C,,,,,,,,,,10
9,prac,1,inc,0,m,Tue Apr 14 2026 08:45:48 GMT-0500 (Central Daylight Time),123939.29999995232,elated,900,I,z,,,571,,,6,1,2778.6999999284744,121160.60000002384,8106,napkin,AF,C,,,,,,,,,,11
10,prac,1,con,1,m,Tue Apr 14 2026 08:45:48 GMT-0500 (Central Daylight Time),127170.20000004768,bell,1000,I,m,,,945,,,3,1,3226.600000023842,123943.60000002384,8106,bell,AF,C,,,,,,,,,,12
11,prac,1,con,1,z,Tue Apr 14 2026 08:45:48 GMT-0500 (Central Daylight Time),129919.60000002384,brutal,800,I,z,,,641,,,13,1,2744.899999976158,127174.70000004768,8106,brutal,AF,C,,,,,,,,,,13
12,prac,1,inc,1,z,Tue Apr 14 2026 08:45:48 GMT-0500 (Central Daylight Time),132985.29999995232,napkin,1100,I,z,,,672,,,12,1,3061.1999999284744,129924.10000002384,8106,friend,AF,C,,,,,,,,,,14
13,prac,1,inc,1,m,Tue Apr 14 2026 08:45:48 GMT-0500 (Central Daylight Time),135984.29999995232,hate,1100,I,m,,,527,,,4,1,2994.6999999284744,132989.60000002384,8106,film,AF,C,,,,,,,,,,15
14,prac,1,con,1,z,Tue Apr 14 2026 08:45:48 GMT-0500 (Central Daylight Time),138799.89999997616,love,1000,I,z,,,516,,,11,1,2811.399999976158,135988.5,8106,love,AF,C,,,,,,,,,,16
1,test,1,con,1,m,Tue Apr 14 2026 08:45:48 GMT-0500 (Central Daylight Time),147264.0,window,800,I,m,m,None,483,268.0,215.0,121,1,1812.6000000238419,145451.39999997616,8106,window,AF,C,144082,144082,142552,143365,142553,144365,143867,143867,144365,1
2,test,1,con,1,m,Tue Apr 14 2026 08:45:48 GMT-0500 (Central Daylight Time),148996.89999997616,jacket,800,I,m,m,None,388,188.0,200.0,97,1,1728.5,147268.39999997616,8106,jacket,AF,C,145898,145898,144369,145182,144370,146098,145698,145698,146098,2
3,test,1,inc,1,z,Tue Apr 14 2026 08:45:48 GMT-0500 (Central Daylight Time),150946.29999995232,rock,900,I,z,z,None,507,307.0,200.0,46,1,1945.3999999761581,149000.89999997616,8106,hate,AF,C,147731,147731,146102,147014,146102,148047,147531,147531,148047,3
4,test,1,con,1,m,Tue Apr 14 2026 08:45:48 GMT-0500 (Central Daylight Time),152745.5,step,800,I,m,m,None,457,256.0,201.0,65,1,1795.2000000476837,150950.29999995232,8106,step,AF,C,149582,149582,148051,148864,148052,149847,149380,149380,149847,4
5,test,1,inc,1,z,Tue Apr 14 2026 08:45:48 GMT-0500 (Central Daylight Time),155028.20000004768,window,1100,I,z,z,None,645,446.0,199.0,64,1,2278.9000000953674,152749.29999995232,8106,temper,AF,C,151680,151680,149850,150963,149851,152129,151480,151480,152129,5
5,test,1,inc,0,m,Tue Apr 14 2026 08:45:48 GMT-0500 (Central Daylight Time),156994.29999995232,brutal,900,I,z,z,None,523,324.0,199.0,118,1,1961.8999999761581,155032.39999997616,8106,remote,AF,C,153762,153762,152133,153046,152134,154095,153562,153563,154095,6
6,test,1,con,1,z,Tue Apr 14 2026 08:45:48 GMT-0500 (Central Daylight Time),159010.29999995232,hate,900,I,z,z,None,573,373.0,200.0,42,1,2011.3999999761581,156998.89999997616,8106,hate,AF,C,155729,155729,154100,155013,154100,156111,155528,155528,156111,7
7,test,1,con,1,z,Tue Apr 14 2026 08:45:48 GMT-0500 (Central Daylight Time),161009.60000002384,rage,1000,I,z,z,None,457,258.0,199.0,51,1,1994.7000000476837,159014.89999997616,8106,rage,AF,C,157845,157845,156116,157128,156116,158111,157645,157645,158111,8
8,test,1,con,1,z,Tue Apr 14 2026 08:45:48 GMT-0500 (Central Daylight Time),163159.20000004768,brutal,1000,I,z,z,None,611,411.0,200.0,35,1,2145.2000000476837,161014.0,8106,brutal,AF,C,159844,159844,158115,159127,158115,160260,159644,159644,160260,9
9,test,1,con,1,z,Tue Apr 14 2026 08:45:48 GMT-0500 (Central Daylight Time),165158.39999997616,love,900,I,z,z,None,554,354.0,200.0,18,1,1995.1000000238419,163163.29999995232,8106,love,AF,C,161893,161893,160264,161177,160265,162260,161693,161693,162259,10
10,test,1,con,1,m,Tue Apr 14 2026 08:45:48 GMT-0500 (Central Daylight Time),167324.20000004768,remote,1000,I,m,m,None,620,421.0,199.0,115,1,2161.3000000715256,165162.89999997616,8106,remote,AF,C,163993,163993,162264,163276,162264,164425,163793,163793,164425,11
11,test,1,con,1,z,Tue Apr 14 2026 08:45:48 GMT-0500 (Central Daylight Time),169073.89999997616,friend,800,I,z,z,None,415,216.0,199.0,25,1,1745.3999999761581,167328.5,8106,friend,AF,C,165958,165958,164430,165242,164430,166175,165759,165759,166175,12
12,test,1,inc,1,z,Tue Apr 14 2026 08:45:48 GMT-0500 (Central Daylight Time),171289.70000004768,film,1100,I,z,z,None,567,367.0,200.0,48,1,2211.8000000715256,169077.89999997616,8106,hate,AF,C,168008,168008,166179,167291,166179,168391,167808,167808,168391,13
13,test,1,inc,1,m,Tue Apr 14 2026 08:45:48 GMT-0500 (Central Daylight Time),173272.39999997616,love,1000,I,m,m,None,433,234.0,199.0,95,1,1979.0,171293.39999997616,8106,film,AF,C,170124,170124,168394,169407,168395,170374,169924,169925,170373,14
14,test,1,inc,1,z,Tue Apr 14 2026 08:45:48 GMT-0500 (Central Daylight Time),175471.89999997616,window,1100,I,z,z,None,559,359.0,200.0,40,1,2195.5,173276.39999997616,8106,brutal,AF,C,172207,172207,170377,171490,170378,172573,172007,172007,172573,15
15,test,1,inc,1,m,Tue Apr 14 2026 08:45:48 GMT-0500 (Central Daylight Time),177671.20000004768,hate,1100,I,m,m,None,559,360.0,199.0,72,1,2194.9000000953674,175476.29999995232,8106,step,AF,C,174406,174406,172577,173689,172578,174772,174206,174206,174772,16
16,test,1,inc,1,z,Tue Apr 14 2026 08:45:48 GMT-0500 (Central Daylight Time),179820.39999997616,rock,900,I,z,z,None,712,512.0,200.0,22,1,2144.600000023842,177675.79999995232,8106,love,AF,C,176406,176406,174777,175689,174777,176922,176205,176205,176921,17
17,test,1,con,1,m,Tue Apr 14 2026 08:45:48 GMT-0500 (Central Daylight Time),181866.60000002384,jacket,900,I,m,m,None,475,275.0,200.0,98,1,2041.8000000715256,179824.79999995232,8106,jacket,AF,C,178555,178555,176926,177838,176926,178968,178354,178354,178968,18
18,test,1,con,1,m,Tue Apr 14 2026 08:45:48 GMT-0500 (Central Daylight Time),184185.79999995232,rock,1000,I,m,m,None,774,574.0,200.0,75,1,2313.7999999523163,181872.0,8106,rock,AF,C,180704,180704,178973,179987,178973,181287,180504,180504,181287,19
19,test,1,con,1,z,Tue Apr 14 2026 08:45:48 GMT-0500 (Central Daylight Time),186485.0,elated,1100,I,z,z,None,662,461.0,201.0,4,1,2295.100000023842,184189.89999997616,8106,elated,AF,C,183121,183121,181291,182403,181291,183586,182920,182920,183586,20
20,test,1,con,1,z,Tue Apr 14 2026 08:45:48 GMT-0500 (Central Daylight Time),188317.5,temper,900,I,z,z,None,395,195.0,200.0,58,1,1828.2000000476837,186489.29999995232,8106,temper,AF,C,185219,185219,183590,184503,183591,185419,185019,185019,185419,21
21,test,1,con,1,m,Tue Apr 14 2026 08:45:48 GMT-0500 (Central Daylight Time),190350.5,jacket,1100,I,m,m,None,386,186.0,200.0,100,1,2027.7000000476837,188322.79999995232,8106,jacket,AF,C,187252,187252,185424,186535,185424,187452,187052,187052,187452,22
22,test,1,con,1,m,Tue Apr 14 2026 08:45:48 GMT-0500 (Central Daylight Time),192349.89999997616,bell,800,I,m,m,None,652,453.0,199.0,81,1,1995.1000000238419,190354.79999995232,8106,bell,AF,C,188985,188985,187456,188268,187456,189451,188786,188786,189451,23
23,test,1,con,1,m,Tue Apr 14 2026 08:45:48 GMT-0500 (Central Daylight Time),194465.70000004768,step,1100,I,m,m,None,483,283.0,200.0,68,1,2111.8000000715256,192353.89999997616,8106,step,AF,C,191284,191284,189455,190567,189455,191567,191084,191084,191567,24
24,test,1,inc,1,m,Tue Apr 14 2026 08:45:48 GMT-0500 (Central Daylight Time),196631.70000004768,friend,1100,I,m,m,None,527,327.0,200.0,128,1,2162.4000000953674,194469.29999995232,8106,window,AF,C,193400,193400,191570,192683,191571,193733,193200,193200,193733,25
25,test,1,inc,1,z,Tue Apr 14 2026 08:45:48 GMT-0500 (Central Daylight Time),198514.29999995232,step,800,I,z,z,None,549,349.0,200.0,13,1,1878.2999999523163,196636.0,8106,kind,AF,C,195266,195266,193737,194550,193737,195615,195066,195066,195615,26
26,test,1,inc,1,m,Tue Apr 14 2026 08:45:48 GMT-0500 (Central Daylight Time),200580.70000004768,temper,1000,I,m,m,None,529,329.0,200.0,119,1,2062.8000000715256,198517.89999997616,8106,remote,AF,C,197349,197349,195619,196633,195619,197682,197149,197149,197682,27
27,test,1,inc,1,m,Tue Apr 14 2026 08:45:48 GMT-0500 (Central Daylight Time),202596.70000004768,love,1000,I,m,m,None,479,280.0,199.0,71,1,2011.3000000715256,200585.39999997616,8106,step,AF,C,199415,199415,197686,198699,197687,199698,199216,199216,199698,28
28,test,1,inc,1,m,Tue Apr 14 2026 08:45:48 GMT-0500 (Central Daylight Time),204596.20000004768,love,1000,I,m,m,None,456,256.0,200.0,79,1,1995.9000000953674,202600.29999995232,8106,rock,AF,C,201431,201431,199701,200714,199702,201697,201231,201231,201697,29
29,test,1,inc,1,m,Tue Apr 14 2026 08:45:48 GMT-0500 (Central Daylight Time),206578.70000004768,kind,900,I,m,m,None,541,341.0,200.0,86,1,1978.7000000476837,204600.0,8106,bell,AF,C,203330,203330,201701,202614,201701,203680,203130,203130,203680,30
30,test,1,inc,1,m,Tue Apr 14 2026 08:45:48 GMT-0500 (Central Daylight Time),208778.20000004768,temper,1000,I,m,m,None,650,450.0,200.0,103,1,2195.4000000953674,206582.79999995232,8106,jacket,AF,C,205413,205413,203684,204696,203684,205879,205213,205213,205879,31
31,test,1,inc,1,m,Tue Apr 14 2026 08:45:48 GMT-0500 (Central Daylight Time),210727.5,rage,800,I,m,m,None,602,402.0,200.0,93,1,1945.2999999523163,208782.20000004768,8106,film,AF,C,207412,207412,205883,206696,205884,207829,207212,207212,207829,32
31,test,1,con,0,z,Tue Apr 14 2026 08:45:48 GMT-0500 (Central Daylight Time),212660.10000002384,rage,900,I,m,m,None,487,288.0,199.0,50,1,1928.3999999761581,210731.70000004768,8106,rage,AF,C,209462,209462,207833,208745,207833,209761,209262,209262,209761,33
32,test,1,inc,1,m,Tue Apr 14 2026 08:45:48 GMT-0500 (Central Daylight Time),214659.70000004768,temper,1000,I,m,m,None,455,256.0,199.0,127,1,1995.5,212664.20000004768,8106,window,AF,C,211495,211495,209765,210778,209766,211761,211295,211295,211761,34
33,test,1,con,1,m,Tue Apr 14 2026 08:45:48 GMT-0500 (Central Daylight Time),216675.60000002384,window,1000,I,m,m,None,479,280.0,199.0,123,1,2012.0,214663.60000002384,8106,window,AF,C,213494,213494,211765,212777,211765,213777,213294,213294,213777,35
34,test,1,inc,1,m,Tue Apr 14 2026 08:45:48 GMT-0500 (Central Daylight Time),218641.79999995232,brutal,900,I,m,m,None,523,308.0,215.0,126,1,1962.2999999523163,216679.5,8106,window,AF,C,215427,215427,213781,214693,213781,215743,215211,215211,215743,36
35,test,1,inc,1,z,Tue Apr 14 2026 08:45:48 GMT-0500 (Central Daylight Time),220691.10000002384,napkin,900,I,z,z,None,605,406.0,199.0,62,1,2045.0,218646.10000002384,8106,temper,AF,C,217376,217376,215747,216659,215747,217792,217176,217176,217792,37
36,test,1,con,1,z,Tue Apr 14 2026 08:45:48 GMT-0500 (Central Daylight Time),222907.0,hate,1000,I,z,z,None,673,473.0,200.0,43,1,2212.100000023842,220694.89999997616,8106,hate,AF,C,219525,219525,217796,218809,217796,220008,219325,219325,220008,38
37,test,1,inc,1,z,Tue Apr 14 2026 08:45:48 GMT-0500 (Central Daylight Time),225106.20000004768,film,1100,I,z,z,None,565,365.0,200.0,24,1,2195.3000000715256,222910.89999997616,8106,love,AF,C,221842,221842,220012,221125,220012,222207,221642,221642,222207,39
38,test,1,con,1,m,Tue Apr 14 2026 08:45:48 GMT-0500 (Central Daylight Time),227072.29999995232,remote,800,I,m,m,None,626,426.0,200.0,113,1,1962.0999999046326,225110.20000004768,8106,remote,AF,C,223740,223740,222211,223024,222211,224173,223540,223540,224173,40
39,test,1,inc,1,z,Tue Apr 14 2026 08:45:48 GMT-0500 (Central Daylight Time),229188.29999995232,bell,1000,I,z,z,None,596,311.0,285.0,55,1,2112.399999976158,227075.89999997616,8106,rage,AF,C,225976,225976,224177,225190,224177,226290,225691,225691,226289,41
40,test,1,con,1,z,Tue Apr 14 2026 08:45:48 GMT-0500 (Central Daylight Time),231087.60000002384,temper,800,I,z,z,None,550,351.0,199.0,57,1,1895.2000000476837,229192.39999997616,8106,temper,AF,C,227822,227823,226293,227106,226294,228189,227623,227623,228189,42
41,test,1,con,1,z,Tue Apr 14 2026 08:45:48 GMT-0500 (Central Daylight Time),233186.89999997616,temper,1000,I,z,z,None,565,365.0,200.0,59,1,2095.100000023842,231091.79999995232,8106,temper,AF,C,229922,229922,228193,229205,228193,230288,229722,229722,230288,43
42,test,1,inc,1,z,Tue Apr 14 2026 08:45:48 GMT-0500 (Central Daylight Time),235069.79999995232,jacket,800,I,z,z,None,545,345.0,200.0,5,1,1879.0,233190.79999995232,8106,elated,AF,C,231821,231821,230292,231105,230292,232171,231621,231621,232171,44
43,test,1,con,1,z,Tue Apr 14 2026 08:45:48 GMT-0500 (Central Daylight Time),237152.60000002384,love,1100,I,z,z,None,434,234.0,200.0,20,1,2078.8000000715256,235073.79999995232,8106,love,AF,C,234004,234004,232175,233288,232175,234254,233804,233804,234254,45
44,test,1,inc,1,z,Tue Apr 14 2026 08:45:48 GMT-0500 (Central Daylight Time),238968.70000004768,jacket,800,I,z,z,None,466,267.0,199.0,61,1,1812.0,237156.70000004768,8106,temper,AF,C,235786,235787,234258,235070,234258,236070,235587,235587,236070,46
45,test,1,con,1,z,Tue Apr 14 2026 08:45:48 GMT-0500 (Central Daylight Time),240934.79999995232,love,1000,I,z,z,None,419,218.0,201.0,19,1,1962.1999999284744,238972.60000002384,8106,love,AF,C,237804,237804,236074,237087,236074,238036,237603,237603,238036,47
46,test,1,con,1,z,Tue Apr 14 2026 08:45:48 GMT-0500 (Central Daylight Time),242950.79999995232,hate,1100,I,z,z,None,376,177.0,199.0,44,1,2012.3999999761581,240938.39999997616,8106,hate,AF,C,239869,239869,238039,239152,238040,240052,239669,239669,240052,48
47,test,1,inc,1,z,Tue Apr 14 2026 08:45:48 GMT-0500 (Central Daylight Time),244916.70000004768,bell,1000,I,z,z,None,429,230.0,199.0,23,1,1962.2000000476837,242954.5,8106,love,AF,C,241785,241785,240055,241068,240056,242018,241585,241585,242018,49
48,test,1,inc,1,m,Tue Apr 14 2026 08:45:48 GMT-0500 (Central Daylight Time),246949.39999997616,kind,900,I,m,m,None,610,396.0,214.0,78,1,2028.6000000238419,244920.79999995232,8106,rock,AF,C,243651,243651,242022,242934,242022,244050,243436,243436,244050,50
49,test,1,inc,1,z,Tue Apr 14 2026 08:45:48 GMT-0500 (Central Daylight Time),248865.60000002384,rock,900,I,z,z,None,468,268.0,200.0,14,1,1912.5,246953.10000002384,8106,kind,AF,C,245683,245683,244054,244967,244054,245967,245483,245483,245967,51
50,test,1,con,1,z,Tue Apr 14 2026 08:45:48 GMT-0500 (Central Daylight Time),250631.5,love,800,I,z,z,None,426,227.0,199.0,17,1,1762.2000000476837,248869.29999995232,8106,love,AF,C,247500,247500,245970,246783,245970,247733,247300,247300,247733,52
51,test,1,inc,1,m,Tue Apr 14 2026 08:45:48 GMT-0500 (Central Daylight Time),252631.20000004768,rage,800,I,m,m,None,659,460.0,199.0,77,1,1996.3000000715256,250634.89999997616,8106,rock,AF,C,249266,249266,247736,248549,247736,249732,249066,249066,249732,53
52,test,1,inc,1,z,Tue Apr 14 2026 08:45:48 GMT-0500 (Central Daylight Time),254530.79999995232,step,800,I,z,z,None,557,358.0,199.0,21,1,1895.7999999523163,252635.0,8106,love,AF,C,251265,251265,249736,250549,249736,251632,251066,251066,251632,54
53,test,1,inc,1,m,Tue Apr 14 2026 08:45:48 GMT-0500 (Central Daylight Time),256779.79999995232,hate,1100,I,m,m,None,606,406.0,200.0,96,1,2245.0999999046326,254534.70000004768,8106,film,AF,C,253464,253464,251636,252748,251636,253881,253264,253264,253881,55
54,test,1,inc,1,m,Tue Apr 14 2026 08:45:48 GMT-0500 (Central Daylight Time),258712.5,elated,800,I,m,m,None,591,392.0,199.0,125,1,1928.8999999761581,256783.60000002384,8106,window,AF,C,255414,255414,253885,254697,253885,255814,255214,255214,255814,56
55,test,1,inc,1,m,Tue Apr 14 2026 08:45:48 GMT-0500 (Central Daylight Time),261128.39999997616,friend,1100,I,m,m,None,775,576.0,199.0,120,1,2412.100000023842,258716.29999995232,8106,remote,AF,C,257647,257647,255817,256930,255818,258229,257447,257447,258229,57
56,test,1,inc,1,m,Tue Apr 14 2026 08:45:48 GMT-0500 (Central Daylight Time),263294.2999999523,friend,1100,I,m,m,None,519,319.0,200.0,112,1,2162.0,261132.29999995232,8106,napkin,AF,C,260063,260063,258233,259346,258233,260395,259862,259862,260395,58
57,test,1,con,1,z,Tue Apr 14 2026 08:45:48 GMT-0500 (Central Daylight Time),265227.0,hate,800,I,z,z,None,613,414.0,199.0,41,1,1928.7999999523163,263298.2000000477,8106,hate,AF,C,261912,261912,260399,261212,260399,262328,261713,261713,262328,59
57,test,1,con,0,z,Tue Apr 14 2026 08:45:48 GMT-0500 (Central Daylight Time),267459.60000002384,temper,1100,I,m,m,None,597,397.0,200.0,60,1,2228.7000000476837,265230.89999997616,8106,temper,AF,C,264161,264161,262332,263445,262332,264561,263961,263961,264561,60
58,test,1,inc,1,z,Tue Apr 14 2026 08:45:48 GMT-0500 (Central Daylight Time),269692.2999999523,napkin,900,I,z,z,None,796,596.0,200.0,6,1,2228.399999976158,267463.89999997616,8106,elated,AF,C,266194,266194,264565,265477,264565,266793,265994,265994,266793,61
59,test,1,con,1,m,Tue Apr 14 2026 08:45:48 GMT-0500 (Central Daylight Time),271791.60000002384,rock,900,I,m,m,None,659,444.0,215.0,74,1,2095.399999976158,269696.2000000477,8106,rock,AF,C,268443,268443,266797,267710,266798,268893,268228,268228,268893,62
60,test,1,inc,1,z,Tue Apr 14 2026 08:45:48 GMT-0500 (Central Daylight Time),273624.2999999523,jacket,800,I,z,z,None,491,292.0,199.0,37,1,1828.8999999761581,271795.39999997616,8106,brutal,AF,C,270426,270426,268896,269709,268897,270725,270226,270226,270725,63
61,test,1,con,1,m,Tue Apr 14 2026 08:45:48 GMT-0500 (Central Daylight Time),275840.89999997616,film,1100,I,m,m,None,583,383.0,200.0,92,1,2212.899999976158,273628.0,8106,film,AF,C,272559,272559,270729,271842,270729,272942,272358,272358,272942,64
62,test,1,con,1,m,Tue Apr 14 2026 08:45:48 GMT-0500 (Central Daylight Time),277723.10000002384,window,900,I,m,m,None,438,239.0,199.0,122,1,1875.7000000476837,275847.39999997616,8106,window,AF,C,274574,274575,272948,273858,272949,274824,274375,274375,274824,65
63,test,1,inc,1,z,Tue Apr 14 2026 08:45:48 GMT-0500 (Central Daylight Time),279806.0,rock,900,I,z,z,None,646,446.0,200.0,54,1,2078.7999999523163,277727.2000000477,8106,rage,AF,C,276457,276457,274828,275741,274828,276907,276257,276257,276907,66
64,test,1,inc,1,m,Tue Apr 14 2026 08:45:48 GMT-0500 (Central Daylight Time),281856.2999999523,love,1000,I,m,m,None,502,302.0,200.0,87,1,2045.7999999523163,279810.5,8106,bell,AF,C,278640,278640,276912,277924,276912,278957,278440,278440,278957,67
65,test,1,inc,1,z,Tue Apr 14 2026 08:45:48 GMT-0500 (Central Daylight Time),283804.5,napkin,900,I,z,z,None,504,305.0,199.0,38,1,1944.1000000238419,281860.39999997616,8106,brutal,AF,C,280589,280589,278961,279873,278962,280906,280390,280390,280906,68
66,test,1,inc,1,z,Tue Apr 14 2026 08:45:48 GMT-0500 (Central Daylight Time),285937.5,film,1100,I,z,z,None,491,292.0,199.0,56,1,2129.100000023842,283808.39999997616,8106,rage,AF,C,282738,282739,280909,282022,280910,283039,282539,282539,283038,69
67,test,1,con,1,z,Tue Apr 14 2026 08:45:48 GMT-0500 (Central Daylight Time),288136.89999997616,brutal,900,I,z,z,None,759,559.0,200.0,34,1,2195.600000023842,285941.2999999523,8106,brutal,AF,C,284672,284672,283042,283955,283043,285238,284471,284471,285238,70
68,test,1,inc,1,m,Tue Apr 14 2026 08:45:48 GMT-0500 (Central Daylight Time),290052.7000000477,kind,900,I,m,m,None,478,279.0,199.0,94,1,1912.0,288140.7000000477,8106,film,AF,C,286870,286871,285242,286154,285242,287154,286671,286671,287154,71
69,test,1,con,1,m,Tue Apr 14 2026 08:45:48 GMT-0500 (Central Daylight Time),291802.2000000477,film,800,I,m,m,None,406,207.0,199.0,89,1,1745.8000000715256,290056.39999997616,8106,film,AF,C,288687,288687,287157,287970,287158,288903,288487,288487,288903,72
70,test,1,inc,1,m,Tue Apr 14 2026 08:45:48 GMT-0500 (Central Daylight Time),293901.7000000477,elated,800,I,m,m,None,754,554.0,200.0,109,1,2095.8000000715256,291805.89999997616,8106,napkin,AF,C,290436,290436,288907,289720,288907,291003,290236,290236,291003,73
71,test,1,inc,1,z,Tue Apr 14 2026 08:45:48 GMT-0500 (Central Daylight Time),295984.10000002384,bell,1000,I,z,z,None,542,343.0,199.0,15,1,2078.7000000476837,293905.39999997616,8106,kind,AF,C,292735,292735,291006,292019,291007,293085,292536,292536,293085,74
72,test,1,con,1,m,Tue Apr 14 2026 08:45:48 GMT-0500 (Central Daylight Time),298133.2999999523,window,1100,I,m,m,None,513,313.0,200.0,124,1,2145.5999999046326,295987.7000000477,8106,window,AF,C,294918,294918,293089,294202,293089,295234,294718,294718,295234,75
73,test,1,inc,1,z,Tue Apr 14 2026 08:45:48 GMT-0500 (Central Daylight Time),300299.2999999523,window,1100,I,z,z,None,545,331.0,214.0,32,1,2162.0999999046326,298137.2000000477,8106,friend,AF,C,297067,297067,295238,296351,295238,297400,296853,296853,297400,76
74,test,1,con,1,z,Tue Apr 14 2026 08:45:48 GMT-0500 (Central Daylight Time),302348.89999997616,brutal,800,I,z,z,None,703,504.0,199.0,33,1,2045.6999999284744,300303.2000000477,8106,brutal,AF,C,298934,298934,297404,298217,297405,299450,298734,298734,299450,77
75,test,1,inc,1,z,Tue Apr 14 2026 08:45:48 GMT-0500 (Central Daylight Time),304148.10000002384,step,800,I,z,z,None,455,255.0,200.0,45,1,1795.3999999761581,302352.7000000477,8106,hate,AF,C,300983,300983,299454,300267,299454,301249,300783,300783,301249,78
76,test,1,con,1,z,Tue Apr 14 2026 08:45:48 GMT-0500 (Central Daylight Time),306297.60000002384,brutal,1100,I,z,z,None,509,309.0,200.0,36,1,2145.600000023842,304152.0,8106,brutal,AF,C,303082,303082,301253,302366,301253,303399,302882,302882,303399,79
76,test,1,inc,0,z,Tue Apr 14 2026 08:45:48 GMT-0500 (Central Daylight Time),308114.39999997616,step,800,I,m,m,None,482,282.0,200.0,53,1,1813.0,306301.39999997616,8106,rage,AF,C,304932,304932,303402,304215,303403,305215,304732,304732,305215,80
77,test,1,inc,1,z,Tue Apr 14 2026 08:45:48 GMT-0500 (Central Daylight Time),310346.39999997616,film,1100,I,z,z,None,584,383.0,201.0,16,1,2228.5,308117.89999997616,8106,kind,AF,C,307048,307048,305219,306331,305219,307447,306847,306847,307447,81
78,test,1,inc,1,z,Tue Apr 14 2026 08:45:48 GMT-0500 (Central Daylight Time),312495.5,remote,1000,I,z,z,None,625,426.0,199.0,7,1,2145.2000000476837,310350.2999999523,8106,elated,AF,C,309164,309164,307451,308464,307452,309597,308965,308965,309597,82
79,test,1,con,1,z,Tue Apr 14 2026 08:45:48 GMT-0500 (Central Daylight Time),314378.39999997616,elated,800,I,z,z,None,539,340.0,199.0,1,1,1878.8999999761581,312499.5,8106,elated,AF,C,311130,311130,309601,310413,309601,311479,310930,310930,311479,83
80,test,1,inc,1,m,Tue Apr 14 2026 08:45:48 GMT-0500 (Central Daylight Time),316560.89999997616,hate,1100,I,m,m,None,542,342.0,200.0,88,1,2178.6999999284744,314382.2000000477,8106,bell,AF,C,313312,313312,311483,312596,311483,313662,313112,313112,313662,84
81,test,1,inc,1,m,Tue Apr 14 2026 08:45:48 GMT-0500 (Central Daylight Time),318610.60000002384,elated,800,I,m,m,None,708,508.0,200.0,101,1,2045.6000000238419,316565.0,8106,jacket,AF,C,315195,315195,313666,314479,313666,315712,314995,314995,315712,85
82,test,1,inc,1,m,Tue Apr 14 2026 08:45:48 GMT-0500 (Central Daylight Time),320509.89999997616,rage,800,I,m,m,None,561,362.0,199.0,69,1,1895.6000000238419,318614.2999999523,8106,step,AF,C,317245,317245,315715,316528,315716,317611,317045,317045,317611,86
83,test,1,inc,1,m,Tue Apr 14 2026 08:45:48 GMT-0500 (Central Daylight Time),322525.7999999523,brutal,900,I,m,m,None,570,370.0,200.0,102,1,2012.0999999046326,320513.7000000477,8106,jacket,AF,C,319244,319244,317615,318527,317615,319627,319044,319044,319627,87
84,test,1,con,1,m,Tue Apr 14 2026 08:45:48 GMT-0500 (Central Daylight Time),324608.60000002384,rock,1100,I,m,m,None,434,234.0,200.0,76,1,2079.0,322529.60000002384,8106,rock,AF,C,321460,321460,319631,320743,319631,321710,321260,321260,321710,88
85,test,1,con,1,z,Tue Apr 14 2026 08:45:48 GMT-0500 (Central Daylight Time),326841.10000002384,rage,1100,I,z,z,None,582,383.0,199.0,52,1,2228.899999976158,324612.2000000477,8106,rage,AF,C,323543,323543,321713,322826,321713,323942,323343,323343,323942,89
86,test,1,con,1,z,Tue Apr 14 2026 08:45:48 GMT-0500 (Central Daylight Time),328873.89999997616,elated,900,I,z,z,None,583,383.0,200.0,2,1,2029.0,326844.89999997616,8106,elated,AF,C,325575,325575,323946,324859,323946,325975,325375,325375,325975,90
87,test,1,inc,1,m,Tue Apr 14 2026 08:45:48 GMT-0500 (Central Daylight Time),331006.5,brutal,900,I,m,m,None,686,486.0,200.0,110,1,2128.7000000476837,328877.7999999523,8106,napkin,AF,C,327608,327608,325979,326891,325979,328108,327408,327408,328108,91
88,test,1,con,1,m,Tue Apr 14 2026 08:45:48 GMT-0500 (Central Daylight Time),333222.60000002384,bell,1000,I,m,m,None,677,478.0,199.0,83,1,2212.3000000715256,331010.2999999523,8106,bell,AF,C,329841,329841,328111,329124,328112,330324,329641,329641,330324,92
89,test,1,con,1,m,Tue Apr 14 2026 08:45:48 GMT-0500 (Central Daylight Time),335055.10000002384,remote,900,I,m,m,None,392,193.0,199.0,114,1,1828.8999999761581,333226.2000000477,8106,remote,AF,C,331957,331957,330327,331240,330327,332156,331757,331757,332156,93
90,test,1,con,1,m,Tue Apr 14 2026 08:45:48 GMT-0500 (Central Daylight Time),336971.10000002384,film,900,I,m,m,None,481,281.0,200.0,90,1,1912.3000000715256,335058.7999999523,8106,film,AF,C,333789,333789,332160,333074,332160,334072,333589,333589,334072,94
90,test,1,con,0,z,Tue Apr 14 2026 08:45:48 GMT-0500 (Central Daylight Time),339055.10000002384,friend,1100,I,m,m,None,445,245.0,200.0,28,1,2080.2000000476837,336974.89999997616,8106,friend,AF,C,335905,335905,334076,335189,334076,336156,335705,335705,336156,95
91,test,1,inc,1,z,Tue Apr 14 2026 08:45:48 GMT-0500 (Central Daylight Time),341136.60000002384,window,1100,I,z,z,None,442,242.0,200.0,8,1,2077.399999976158,339059.2000000477,8106,elated,AF,C,337988,337988,336160,337272,336160,338238,337788,337788,338238,96
92,test,1,inc,1,z,Tue Apr 14 2026 08:45:48 GMT-0500 (Central Daylight Time),343319.39999997616,remote,1000,I,z,z,None,644,444.0,200.0,63,1,2178.2999999523163,341141.10000002384,8106,temper,AF,C,339971,339971,338242,339255,338242,340420,339771,339771,340420,97
93,test,1,con,1,m,Tue Apr 14 2026 08:45:48 GMT-0500 (Central Daylight Time),345685.2999999523,remote,1100,I,m,m,None,722,522.0,200.0,116,1,2361.6999999284744,343323.60000002384,8106,remote,AF,C,342253,342253,340425,341537,340425,342786,342053,342053,342786,98
94,test,1,inc,1,z,Tue Apr 14 2026 08:45:48 GMT-0500 (Central Daylight Time),347835.5,remote,1000,I,z,z,None,597,398.0,199.0,39,1,2146.600000023842,345688.89999997616,8106,brutal,AF,C,344536,344536,342790,343826,342790,344937,344336,344336,344937,99
95,test,1,inc,1,m,Tue Apr 14 2026 08:45:48 GMT-0500 (Central Daylight Time),349983.7000000477,temper,1000,I,m,m,None,609,410.0,199.0,111,1,2144.4000000953674,347839.2999999523,8106,napkin,AF,C,346668,346668,344940,345952,344941,347085,346469,346469,347085,100
96,test,1,inc,1,m,Tue Apr 14 2026 08:45:48 GMT-0500 (Central Daylight Time),352133.10000002384,hate,1100,I,m,m,None,511,312.0,199.0,80,1,2145.899999976158,349987.2000000477,8106,rock,AF,C,348918,348918,347088,348201,347089,349234,348718,348718,349234,101
97,test,1,con,1,m,Tue Apr 14 2026 08:45:48 GMT-0500 (Central Daylight Time),354116.0,napkin,1000,I,m,m,None,447,247.0,200.0,107,1,1978.8999999761581,352137.10000002384,8106,napkin,AF,C,350967,350967,349238,350251,349238,351217,350767,350767,351217,102
98,test,1,inc,1,m,Tue Apr 14 2026 08:45:48 GMT-0500 (Central Daylight Time),356048.7999999523,kind,900,I,m,m,None,484,284.0,200.0,70,1,1929.0,354119.7999999523,8106,step,AF,C,352850,352850,351221,352134,351221,353150,352650,352650,353150,103
99,test,1,con,1,m,Tue Apr 14 2026 08:45:48 GMT-0500 (Central Daylight Time),357831.5,rock,800,I,m,m,None,434,219.0,215.0,73,1,1779.2000000476837,356052.2999999523,8106,rock,AF,C,354699,354699,353153,353966,353154,354933,354484,354484,354933,104
100,test,1,con,1,z,Tue Apr 14 2026 08:45:48 GMT-0500 (Central Daylight Time),359780.7999999523,elated,1000,I,z,z,None,403,204.0,199.0,3,1,1945.5999999046326,357835.2000000477,8106,elated,AF,C,356666,356666,354936,355949,354936,356882,356466,356466,356882,105
101,test,1,con,1,m,Tue Apr 14 2026 08:45:48 GMT-0500 (Central Daylight Time),361646.89999997616,step,900,I,m,m,None,428,228.0,200.0,66,1,1862.2999999523163,359784.60000002384,8106,step,AF,C,358515,358515,356886,357798,356886,358748,358315,358315,358748,106
102,test,1,con,1,m,Tue Apr 14 2026 08:45:48 GMT-0500 (Central Daylight Time),363712.60000002384,film,1000,I,m,m,None,525,325.0,200.0,91,1,2061.8000000715256,361650.7999999523,8106,film,AF,C,360481,360481,358752,359765,358752,360814,360281,360281,360814,107
102,test,1,con,0,z,Tue Apr 14 2026 08:45:48 GMT-0500 (Central Daylight Time),365562.39999997616,friend,900,I,m,m,None,408,208.0,200.0,26,1,1845.8999999761581,363716.5,8106,friend,AF,C,362447,362447,360818,361730,360818,362664,362247,362247,362663,108
103,test,1,inc,1,m,Tue Apr 14 2026 08:45:48 GMT-0500 (Central Daylight Time),367544.89999997616,rage,800,I,m,m,None,641,441.0,200.0,85,1,1978.3999999761581,365566.5,8106,bell,AF,C,364197,364197,362668,363480,362668,364646,363996,363996,364646,109
104,test,1,inc,1,m,Tue Apr 14 2026 08:45:48 GMT-0500 (Central Daylight Time),369710.89999997616,friend,1100,I,m,m,None,528,328.0,200.0,104,1,2162.0,367548.89999997616,8106,jacket,AF,C,366479,366479,364650,365762,364650,366812,366279,366279,366812,110
105,test,1,con,1,m,Tue Apr 14 2026 08:45:48 GMT-0500 (Central Daylight Time),371643.7000000477,step,1000,I,m,m,None,389,189.0,200.0,67,1,1928.9000000953674,369714.7999999523,8106,step,AF,C,368545,368545,366816,367828,366816,368745,368345,368345,368745,111
106,test,1,con,1,m,Tue Apr 14 2026 08:45:48 GMT-0500 (Central Daylight Time),373693.0,bell,900,I,m,m,None,612,412.0,200.0,82,1,2045.5,371647.5,8106,bell,AF,C,370378,370378,368749,369662,368749,370794,370178,370178,370794,112
107,test,1,con,1,z,Tue Apr 14 2026 08:45:48 GMT-0500 (Central Daylight Time),375642.2999999523,friend,1000,I,z,z,None,415,215.0,200.0,27,1,1945.5999999046326,373696.7000000477,8106,friend,AF,C,372527,372527,370798,371811,370798,372743,372327,372327,372743,113
107,test,1,inc,0,z,Tue Apr 14 2026 08:45:48 GMT-0500 (Central Daylight Time),377391.89999997616,bell,1000,I,m,m,None,200,1.0,199.0,47,1,1745.8999999761581,375646.0,8106,hate,AF,C,374477,374477,372747,373760,372747,374493,374277,374277,374493,114
107,test,1,inc,0,z,Tue Apr 14 2026 08:45:48 GMT-0500 (Central Daylight Time),379407.89999997616,remote,1000,I,m,m,None,477,277.0,200.0,31,1,2012.3999999761581,377395.5,8106,friend,AF,C,376226,376226,374497,375509,374497,376509,376026,376026,376509,115
108,test,1,con,1,z,Tue Apr 14 2026 08:45:48 GMT-0500 (Central Daylight Time),381424.2000000477,kind,900,I,z,z,None,568,368.0,200.0,10,1,2012.7000000476837,379411.5,8106,kind,AF,C,378142,378142,376513,377426,376513,378525,377942,377942,378525,116
109,test,1,inc,1,z,Tue Apr 14 2026 08:45:48 GMT-0500 (Central Daylight Time),383306.7999999523,napkin,900,I,z,z,None,440,240.0,200.0,30,1,1878.7999999523163,381428.0,8106,friend,AF,C,380158,380158,378529,379442,378529,380408,379958,379958,380408,117
110,test,1,inc,1,m,Tue Apr 14 2026 08:45:48 GMT-0500 (Central Daylight Time),385272.7999999523,elated,800,I,m,m,None,617,417.0,200.0,117,1,1962.1999999284744,383310.60000002384,8106,remote,AF,C,381941,381941,380412,381224,380412,382374,381741,381741,382374,118
111,test,1,con,1,m,Tue Apr 14 2026 08:45:48 GMT-0500 (Central Daylight Time),387438.7999999523,napkin,1100,I,m,m,None,527,327.0,200.0,108,1,2162.2999999523163,385276.5,8106,napkin,AF,C,384207,384207,382378,383490,382378,384540,384007,384007,384540,119
112,test,1,con,1,m,Tue Apr 14 2026 08:45:48 GMT-0500 (Central Daylight Time),389471.39999997616,bell,1100,I,m,m,None,385,185.0,200.0,84,1,2028.5,387442.89999997616,8106,bell,AF,C,386373,386373,384544,385657,384544,386572,386173,386173,386572,120
113,test,1,con,1,z,Tue Apr 14 2026 08:45:48 GMT-0500 (Central Daylight Time),391220.7999999523,rage,800,I,z,z,None,411,212.0,199.0,49,1,1745.6999999284744,389475.10000002384,8106,rage,AF,C,388106,388106,386576,387389,386576,388322,387906,387906,388322,121
114,test,1,con,1,z,Tue Apr 14 2026 08:45:48 GMT-0500 (Central Daylight Time),393237.0,kind,1100,I,z,z,None,379,179.0,200.0,12,1,2012.3999999761581,391224.60000002384,8106,kind,AF,C,390155,390155,388326,389439,388326,390338,389955,389955,390338,122
115,test,1,con,1,z,Tue Apr 14 2026 08:45:48 GMT-0500 (Central Daylight Time),395269.60000002384,kind,1000,I,z,z,None,496,296.0,200.0,11,1,2029.0,393240.60000002384,8106,kind,AF,C,392071,392071,390342,391355,390342,392371,391871,391871,392371,123
116,test,1,con,1,m,Tue Apr 14 2026 08:45:48 GMT-0500 (Central Daylight Time),397052.2999999523,napkin,800,I,m,m,None,438,238.0,200.0,105,1,1779.2999999523163,395273.0,8106,napkin,AF,C,393904,393904,392374,393187,392374,394153,393704,393704,394153,124
117,test,1,inc,1,z,Tue Apr 14 2026 08:45:48 GMT-0500 (Central Daylight Time),398835.0,jacket,800,I,z,z,None,447,248.0,199.0,29,1,1779.2999999523163,397055.7000000477,8106,friend,AF,C,395687,395687,394157,394970,394157,395936,395487,395487,395936,125
118,test,1,con,1,m,Tue Apr 14 2026 08:45:48 GMT-0500 (Central Daylight Time),400734.60000002384,napkin,900,I,m,m,None,460,261.0,199.0,106,1,1896.0,398838.60000002384,8106,napkin,AF,C,397570,397570,395940,396853,395940,397836,397370,397370,397836,126
119,test,1,con,1,z,Tue Apr 14 2026 08:45:48 GMT-0500 (Central Daylight Time),402817.5,kind,800,I,z,z,None,732,533.0,199.0,9,1,2078.899999976158,400738.60000002384,8106,kind,AF,C,399369,399369,397840,398652,397840,399919,399169,399169,399919,127
120,test,1,con,1,m,Tue Apr 14 2026 08:45:48 GMT-0500 (Central Daylight Time),404899.89999997616,jacket,1000,I,m,m,None,539,339.0,200.0,99,1,2078.1999999284744,402821.7000000477,8106,jacket,AF,C,401651,401651,399923,400935,399923,402001,401451,401451,402001,128
